"Time (s)","Gyroscope x (rad/s)","Gyroscope y (rad/s)","Gyroscope z (rad/s)"
1.330510400E-2,1.202830859E-2,-3.042869736E-3,2.179069072E-2
1.572505200E-2,1.202830859E-2,-3.042869736E-3,2.179069072E-2
1.814427000E-2,1.202830859E-2,-3.042869736E-3,2.179069072E-2
2.056265600E-2,1.202830859E-2,-3.042869736E-3,2.179069072E-2
2.298187500E-2,1.202830859E-2,-3.042869736E-3,2.179069072E-2
2.540182200E-2,1.202830859E-2,-3.042869736E-3,2.179069072E-2
2.782104100E-2,1.202830859E-2,-3.042869736E-3,2.179069072E-2
3.023942700E-2,1.202830859E-2,-3.042869736E-3,2.179069072E-2
3.265859300E-2,1.202830859E-2,-3.042869736E-3,2.179069072E-2
3.507859300E-2,1.202830859E-2,-3.042869736E-3,2.179069072E-2
3.749776000E-2,1.202830859E-2,-3.042869736E-3,2.179069072E-2
3.991614500E-2,1.202830859E-2,-3.042869736E-3,2.179069072E-2
4.233536400E-2,1.202830859E-2,-3.042869736E-3,2.179069072E-2
4.475531200E-2,1.202830859E-2,-3.042869736E-3,2.179069072E-2
4.717453100E-2,1.202830859E-2,-3.042869736E-3,2.179069072E-2
4.959291600E-2,1.202830859E-2,-3.042869736E-3,2.179069072E-2
5.201208300E-2,1.202830859E-2,-3.042869736E-3,2.179069072E-2
5.443208300E-2,1.202830859E-2,-3.042869736E-3,2.179069072E-2
5.685125000E-2,1.202830859E-2,-3.042869736E-3,2.179069072E-2
5.926968700E-2,1.202830859E-2,-3.042869736E-3,2.179069072E-2
6.168885400E-2,1.202830859E-2,-3.042869736E-3,2.179069072E-2
6.410885400E-2,1.202830859E-2,-3.042869736E-3,2.179069072E-2
6.652802000E-2,1.202830859E-2,-3.042869736E-3,2.179069072E-2
6.894640600E-2,1.325003617E-2,1.145387068E-5,2.789933607E-2
7.136562500E-2,1.263917238E-2,1.145387068E-5,2.789933607E-2
7.378557200E-2,1.141744293E-2,1.145387068E-5,2.667760849E-2
7.620479100E-2,1.141744293E-2,1.233183313E-3,2.606674284E-2
7.862317700E-2,1.141744293E-2,3.065776546E-3,2.606674284E-2
8.104234300E-2,9.584849700E-3,3.065776546E-3,2.545587718E-2
8.346234300E-2,9.584849700E-3,3.676642198E-3,2.362328395E-2
8.588151000E-2,8.973984048E-3,3.676642198E-3,2.484501526E-2
8.829994700E-2,7.752255071E-3,4.287507851E-3,2.362328395E-2
9.071911400E-2,9.584849700E-3,7.341830526E-3,2.179069072E-2
9.313911400E-2,8.363118395E-3,7.341830526E-3,1.995809749E-2
9.555828100E-2,7.752255071E-3,1.039615273E-2,2.056895941E-2
9.797666600E-2,8.363118395E-3,1.467220671E-2,1.873636618E-2
1.003958850E-1,8.363118395E-3,1.406134292E-2,1.812550053E-2
1.028158330E-1,8.363118395E-3,1.406134292E-2,1.812550053E-2
1.052350520E-1,8.973984048E-3,1.528307050E-2,1.751463488E-2
1.076534370E-1,8.363118395E-3,1.650480181E-2,1.812550053E-2
1.100726040E-1,9.584849700E-3,1.650480181E-2,1.751463488E-2
1.124926040E-1,8.973984048E-3,1.406134292E-2,1.812550053E-2
1.149117700E-1,8.973984048E-3,1.283961162E-2,1.934723184E-2
1.173301560E-1,8.363118395E-3,1.283961162E-2,1.995809749E-2
1.197493750E-1,8.363118395E-3,1.039615273E-2,2.056895941E-2
1.221693220E-1,8.973984048E-3,1.100701839E-2,1.995809749E-2
1.245885410E-1,8.973984048E-3,1.222874783E-2,2.056895941E-2
1.270069270E-1,8.973984048E-3,1.161788404E-2,2.117982507E-2
1.294261450E-1,1.019571349E-2,1.100701839E-2,2.056895941E-2
1.318460930E-1,9.584849700E-3,9.785288945E-3,2.179069072E-2
1.342653120E-1,8.973984048E-3,1.100701839E-2,2.179069072E-2
1.366836970E-1,9.584849700E-3,1.100701839E-2,2.179069072E-2
1.391028640E-1,1.080657728E-2,1.161788404E-2,2.301241830E-2
1.415228640E-1,1.141744293E-2,1.283961162E-2,2.423414961E-2
1.439420310E-1,1.019571349E-2,1.100701839E-2,2.423414961E-2
1.463604680E-1,1.019571349E-2,1.039615273E-2,2.301241830E-2
1.487796350E-1,1.080657728E-2,9.174425155E-3,2.423414961E-2
1.511995830E-1,1.080657728E-2,5.509235431E-3,2.484501526E-2
1.536188020E-1,1.263917238E-2,5.509235431E-3,2.606674284E-2
1.560371870E-1,1.202830859E-2,2.454912756E-3,2.728847042E-2
1.584564060E-1,1.141744293E-2,6.223176606E-4,2.667760849E-2
1.608763540E-1,1.141744293E-2,-1.210275572E-3,2.728847042E-2
1.632955720E-1,1.202830859E-2,1.233183313E-3,2.728847042E-2
1.657139580E-1,1.325003617E-2,-5.994108506E-4,2.667760849E-2
1.681331250E-1,1.508263126E-2,1.145387068E-5,2.606674284E-2
1.705531250E-1,1.447176747E-2,-5.994108506E-4,2.667760849E-2
1.729722910E-1,1.508263126E-2,1.145387068E-5,2.606674284E-2
1.753907290E-1,1.508263126E-2,-1.210275572E-3,2.301241830E-2
1.778098950E-1,1.569349505E-2,-5.994108506E-4,2.362328395E-2
1.802298950E-1,1.447176747E-2,1.844048966E-3,2.362328395E-2
1.826490620E-1,1.263917238E-2,6.223176606E-4,2.362328395E-2
1.850674470E-1,1.325003617E-2,6.223176606E-4,2.240155265E-2
1.874866660E-1,1.263917238E-2,2.454912756E-3,2.240155265E-2
1.899066140E-1,1.263917238E-2,3.676642198E-3,2.179069072E-2
1.923258330E-1,1.202830859E-2,4.898371641E-3,2.179069072E-2
1.947442180E-1,1.019571349E-2,8.563559502E-3,2.117982507E-2
1.971633850E-1,9.584849700E-3,7.341830526E-3,2.117982507E-2
1.995833850E-1,9.584849700E-3,9.174425155E-3,2.056895941E-2
2.020025520E-1,8.363118395E-3,9.785288945E-3,2.117982507E-2
2.044209890E-1,6.530525628E-3,1.039615273E-2,2.117982507E-2
2.068401560E-1,4.697931465E-3,9.785288945E-3,2.056895941E-2
2.092601560E-1,4.087066744E-3,9.174425155E-3,2.056895941E-2
2.116793220E-1,2.254472580E-3,1.161788404E-2,1.873636618E-2
2.140977080E-1,1.643607859E-3,1.039615273E-2,2.117982507E-2
2.165169270E-1,4.218784161E-4,1.161788404E-2,2.056895941E-2
2.189368750E-1,-7.998510264E-4,9.174425155E-3,2.117982507E-2
2.213560930E-1,-2.632445190E-3,6.730966736E-3,2.056895941E-2
2.237744790E-1,-3.854174633E-3,6.730966736E-3,1.995809749E-2
2.261936450E-1,-3.854174633E-3,6.120101083E-3,1.995809749E-2
2.286136450E-1,-3.854174633E-3,6.120101083E-3,2.179069072E-2
2.310328120E-1,-3.854174633E-3,4.898371641E-3,2.117982507E-2
2.334512500E-1,-6.297633518E-3,4.898371641E-3,2.240155265E-2
2.358704160E-1,-7.519362960E-3,3.065776546E-3,2.362328395E-2
2.382904160E-1,-8.130228147E-3,1.844048966E-3,2.117982507E-2
2.407095830E-1,-8.130228147E-3,4.287507851E-3,2.301241830E-2
2.431279680E-1,-8.741091937E-3,3.065776546E-3,2.423414961E-2
2.455471870E-1,-8.741091937E-3,3.676642198E-3,2.240155265E-2
2.479671350E-1,-7.519362960E-3,6.120101083E-3,2.240155265E-2
2.503863540E-1,-5.075904075E-3,6.730966736E-3,2.301241830E-2
2.528047390E-1,-3.854174633E-3,5.509235431E-3,2.117982507E-2
2.552239060E-1,-3.243309911E-3,5.509235431E-3,2.179069072E-2
2.576439060E-1,-3.854174633E-3,7.952693850E-3,1.995809749E-2
2.600630720E-1,-3.243309911E-3,7.952693850E-3,1.995809749E-2
2.624815100E-1,-3.243309911E-3,8.563559502E-3,1.873636618E-2
2.649006770E-1,-2.632445190E-3,7.952693850E-3,1.690377295E-2
2.673206770E-1,-3.854174633E-3,5.509235431E-3,1.934723184E-2
2.697398430E-1,-1.410715748E-3,5.509235431E-3,1.873636618E-2
2.721582290E-1,-1.889863051E-4,3.065776546E-3,1.812550053E-2
2.745774470E-1,1.032743137E-3,1.233183313E-3,1.995809749E-2
2.769973950E-1,1.643607859E-3,-1.821140293E-3,2.056895941E-2
2.794166140E-1,1.032743137E-3,-1.821140293E-3,1.995809749E-2
2.818350000E-1,2.254472580E-3,-7.318922784E-3,2.056895941E-2
2.842542180E-1,2.865337301E-3,-7.318922784E-3,1.995809749E-2
2.866741660E-1,4.218784161E-4,-9.762382135E-3,2.301241830E-2
2.890933850E-1,4.218784161E-4,-1.159497537E-2,2.362328395E-2
2.915117700E-1,-1.410715748E-3,-1.281670667E-2,2.423414961E-2
2.939309370E-1,4.218784161E-4,-1.159497537E-2,2.362328395E-2
2.963509370E-1,1.032743137E-3,-1.648189314E-2,2.423414961E-2
2.987701040E-1,4.218784161E-4,-1.587102935E-2,2.362328395E-2
3.011885410E-1,-1.889863051E-4,-1.587102935E-2,2.423414961E-2
3.036077080E-1,4.218784161E-4,-1.587102935E-2,2.423414961E-2
3.060277080E-1,4.218784161E-4,-1.648189314E-2,2.545587718E-2
3.084468750E-1,4.218784161E-4,-1.464929990E-2,2.484501526E-2
3.108652600E-1,-5.686768796E-3,-6.097193342E-3,2.545587718E-2
3.132844790E-1,-1.362800971E-2,-4.264599178E-3,2.362328395E-2
3.157044270E-1,-1.729319990E-2,-6.097193342E-3,2.423414961E-2
3.181236450E-1,-1.668233424E-2,-6.708058063E-3,2.789933607E-2
3.205420310E-1,-1.118455082E-2,-7.318922784E-3,2.728847042E-2
3.229611970E-1,-3.854174633E-3,-5.486328620E-3,2.728847042E-2
3.253811970E-1,4.218784161E-4,-6.097193342E-3,2.728847042E-2
3.278003640E-1,4.218784161E-4,-3.042869736E-3,2.667760849E-2
3.302188020E-1,1.032743137E-3,-1.821140293E-3,2.789933607E-2
3.326379680E-1,1.032743137E-3,-1.210275572E-3,2.789933607E-2
3.350579680E-1,-7.998510264E-4,-1.210275572E-3,2.728847042E-2
3.374771350E-1,-1.889863051E-4,-5.994108506E-4,2.851020172E-2
3.398955200E-1,4.218784161E-4,1.145387068E-5,2.789933607E-2
3.423147390E-1,4.218784161E-4,1.233183313E-3,2.667760849E-2
3.447346870E-1,1.643607859E-3,1.844048966E-3,2.484501526E-2
3.471539060E-1,2.254472580E-3,1.844048966E-3,2.606674284E-2
3.495722910E-1,4.697931465E-3,3.676642198E-3,2.423414961E-2
3.519915100E-1,4.697931465E-3,4.898371641E-3,2.240155265E-2
3.544114580E-1,3.476202022E-3,4.898371641E-3,2.240155265E-2
3.568306770E-1,2.254472580E-3,5.509235431E-3,2.240155265E-2
3.592490620E-1,-1.889863051E-4,4.898371641E-3,2.179069072E-2
3.616682290E-1,-7.998510264E-4,4.287507851E-3,2.117982507E-2
3.640882290E-1,-7.998510264E-4,3.676642198E-3,1.934723184E-2
3.665073950E-1,-7.998510264E-4,2.454912756E-3,1.812550053E-2
3.689258330E-1,2.254472580E-3,1.233183313E-3,1.812550053E-2
3.713450000E-1,1.643607859E-3,1.233183313E-3,1.812550053E-2
3.737650000E-1,4.218784161E-4,-5.994108506E-4,2.056895941E-2
3.761841660E-1,1.643607859E-3,6.223176606E-4,1.995809749E-2
3.786025520E-1,2.254472580E-3,1.145387068E-5,2.056895941E-2
3.810217700E-1,2.865337301E-3,1.233183313E-3,2.240155265E-2
3.834417180E-1,5.308796186E-3,1.233183313E-3,2.240155265E-2
3.858609370E-1,6.530525628E-3,1.233183313E-3,2.423414961E-2
3.882793220E-1,7.141391281E-3,3.065776546E-3,2.423414961E-2
3.906985410E-1,7.141391281E-3,4.898371641E-3,2.484501526E-2
3.931184890E-1,8.363118395E-3,6.730966736E-3,2.545587718E-2
3.955376560E-1,8.363118395E-3,7.341830526E-3,2.606674284E-2
3.979560930E-1,8.363118395E-3,6.730966736E-3,2.667760849E-2
4.003752600E-1,1.080657728E-2,8.563559502E-3,2.667760849E-2
4.027952600E-1,1.019571349E-2,9.785288945E-3,2.606674284E-2
4.052144270E-1,1.019571349E-2,1.039615273E-2,2.789933607E-2
4.076328640E-1,9.584849700E-3,1.283961162E-2,2.545587718E-2
4.100520310E-1,1.019571349E-2,1.222874783E-2,2.728847042E-2
4.124720310E-1,8.973984048E-3,1.528307050E-2,2.973193303E-2
4.148911970E-1,9.584849700E-3,1.528307050E-2,3.034279495E-2
4.173095830E-1,1.019571349E-2,1.589393616E-2,2.912106737E-2
4.197288020E-1,9.584849700E-3,1.589393616E-2,2.973193303E-2
4.221487500E-1,9.584849700E-3,1.772652939E-2,2.912106737E-2
4.245679680E-1,8.363118395E-3,1.833739504E-2,3.217538819E-2
4.269863540E-1,7.141391281E-3,1.772652939E-2,2.973193303E-2
4.294055200E-1,8.973984048E-3,1.711566374E-2,3.095366061E-2
4.318255200E-1,7.752255071E-3,1.955912635E-2,3.095366061E-2
4.342446870E-1,8.363118395E-3,1.833739504E-2,3.034279495E-2
4.366631250E-1,7.752255071E-3,2.016998827E-2,3.156452626E-2
4.390822910E-1,9.584849700E-3,2.078085393E-2,3.095366061E-2
4.415022910E-1,9.584849700E-3,2.200258151E-2,3.156452626E-2
4.439214580E-1,8.973984048E-3,2.322431281E-2,3.095366061E-2
4.463398950E-1,7.141391281E-3,2.383517846E-2,3.095366061E-2
4.487590620E-1,6.530525628E-3,2.444604412E-2,3.217538819E-2
4.511790620E-1,5.308796186E-3,2.566777170E-2,3.095366061E-2
4.535982290E-1,6.530525628E-3,2.627863735E-2,3.217538819E-2
4.560166140E-1,6.530525628E-3,2.750036493E-2,3.278625384E-2
4.584358330E-1,6.530525628E-3,2.872209623E-2,3.278625384E-2
4.608557810E-1,7.752255071E-3,2.994382381E-2,3.278625384E-2
4.632750000E-1,5.919659976E-3,3.421987966E-2,3.400798514E-2
4.656933850E-1,7.141391281E-3,3.421987966E-2,3.156452626E-2
4.681126040E-1,7.752255071E-3,3.666333482E-2,3.278625384E-2
4.705325520E-1,8.363118395E-3,3.605247289E-2,3.339711949E-2
4.729517180E-1,8.363118395E-3,3.727420047E-2,3.339711949E-2
4.753701560E-1,8.973984048E-3,3.910679743E-2,3.461885080E-2
4.777893220E-1,7.752255071E-3,4.032852873E-2,3.400798514E-2
4.802093220E-1,8.363118395E-3,4.032852873E-2,3.400798514E-2
4.826284890E-1,1.019571349E-2,3.910679743E-2,3.522971272E-2
4.850469270E-1,8.363118395E-3,4.216111824E-2,3.645144403E-2
4.874660930E-1,8.973984048E-3,4.093939438E-2,3.706230596E-2
4.898860930E-1,9.584849700E-3,4.338284954E-2,3.645144403E-2
4.923052600E-1,9.584849700E-3,4.582631215E-2,3.584057838E-2
4.947236450E-1,1.019571349E-2,4.582631215E-2,3.645144403E-2
4.971428640E-1,1.080657728E-2,4.888063297E-2,3.645144403E-2
4.995628120E-1,1.141744293E-2,5.132408813E-2,3.706230596E-2
5.019820310E-1,1.325003617E-2,5.437841639E-2,3.767317161E-2
5.044004160E-1,1.386090182E-2,5.682187155E-2,3.889490291E-2
5.068195310E-1,1.569349505E-2,6.048705801E-2,3.889490291E-2
5.092386450E-1,1.569349505E-2,6.109792367E-2,3.889490291E-2
5.116577600E-1,1.569349505E-2,6.231965497E-2,3.828403726E-2
5.140768750E-1,1.813695394E-2,6.293051690E-2,3.950576857E-2
5.164959890E-1,1.752609015E-2,6.415224820E-2,4.072749615E-2
5.189151040E-1,1.935868524E-2,6.537397206E-2,4.194922373E-2
5.213342180E-1,2.058041282E-2,6.476311386E-2,4.194922373E-2
5.237539580E-1,1.935868524E-2,6.293051690E-2,4.317095503E-2
5.261731250E-1,1.935868524E-2,6.293051690E-2,4.317095503E-2
5.285931250E-1,1.996954903E-2,6.109792367E-2,4.500355199E-2
5.310122910E-1,1.935868524E-2,5.865446851E-2,4.439268634E-2
5.334307290E-1,2.058041282E-2,5.926533416E-2,4.500355199E-2
5.358498950E-1,2.180214413E-2,5.804360285E-2,4.500355199E-2
5.382698430E-1,2.180214413E-2,5.743273720E-2,4.500355199E-2
5.406890620E-1,2.302387170E-2,5.865446851E-2,4.378182068E-2
5.431074470E-1,2.302387170E-2,5.804360285E-2,4.256008938E-2
5.455266660E-1,2.485646866E-2,5.926533416E-2,4.194922373E-2
5.479466140E-1,2.485646866E-2,6.048705801E-2,4.133836180E-2
5.503658330E-1,2.546733059E-2,6.048705801E-2,4.256008938E-2
5.527842180E-1,2.668906190E-2,6.048705801E-2,4.256008938E-2
5.552034370E-1,2.607819624E-2,5.987619236E-2,4.256008938E-2
5.576233850E-1,2.607819624E-2,5.926533416E-2,4.011663049E-2
5.600426040E-1,2.791078947E-2,5.926533416E-2,3.889490291E-2
5.624609890E-1,2.607819624E-2,5.804360285E-2,3.950576857E-2
5.648801560E-1,2.607819624E-2,5.865446851E-2,3.828403726E-2
5.673001560E-1,2.668906190E-2,5.682187155E-2,3.767317161E-2
5.697193220E-1,2.729992382E-2,5.682187155E-2,3.828403726E-2
5.721377600E-1,2.607819624E-2,5.682187155E-2,3.828403726E-2
5.745569270E-1,2.729992382E-2,5.926533416E-2,3.706230596E-2
5.769769270E-1,2.974338643E-2,5.682187155E-2,3.828403726E-2
5.793960930E-1,2.974338643E-2,5.621100590E-2,3.706230596E-2
5.818144790E-1,3.035424650E-2,5.743273720E-2,3.889490291E-2
5.842336970E-1,3.035424650E-2,5.560014024E-2,3.889490291E-2
5.866536450E-1,2.913252078E-2,5.560014024E-2,3.889490291E-2
5.890728640E-1,2.852165513E-2,5.560014024E-2,3.889490291E-2
5.914912500E-1,2.852165513E-2,5.498928204E-2,4.011663049E-2
5.939104680E-1,2.729992382E-2,5.254581943E-2,4.011663049E-2
5.963304160E-1,2.729992382E-2,5.071322247E-2,4.256008938E-2
5.987496350E-1,2.668906190E-2,5.071322247E-2,4.378182068E-2
6.011680200E-1,2.791078947E-2,5.071322247E-2,4.439268634E-2
6.035871870E-1,2.485646866E-2,4.888063297E-2,4.439268634E-2
6.060071870E-1,2.424560301E-2,4.643717036E-2,4.439268634E-2
6.084263020E-1,2.424560301E-2,4.521544650E-2,4.561441019E-2
6.108454160E-1,2.363473736E-2,4.277198389E-2,4.622527584E-2
6.132645310E-1,2.119127847E-2,4.399371520E-2,4.744700715E-2
6.156836450E-1,2.058041282E-2,4.338284954E-2,4.744700715E-2
6.181027600E-1,1.935868524E-2,4.155025259E-2,4.866873845E-2
6.205218750E-1,1.691522636E-2,3.849593177E-2,4.805787280E-2
6.229409890E-1,1.630436070E-2,3.727420047E-2,4.927960411E-2
6.253601040E-1,1.447176747E-2,3.666333482E-2,4.927960411E-2
6.277792180E-1,1.508263126E-2,3.544160724E-2,4.989046976E-2
6.301983330E-1,1.325003617E-2,3.421987966E-2,4.927960411E-2
6.326174470E-1,1.386090182E-2,3.483074158E-2,4.866873845E-2
6.350365620E-1,1.202830859E-2,3.421987966E-2,4.866873845E-2
6.374556770E-1,1.141744293E-2,3.544160724E-2,4.805787280E-2
6.398747910E-1,9.584849700E-3,3.483074158E-2,4.866873845E-2
6.422939060E-1,7.752255071E-3,3.666333482E-2,4.744700715E-2
6.447130200E-1,6.530525628E-3,3.788506612E-2,4.683614150E-2
6.471321350E-1,7.141391281E-3,3.849593177E-2,4.439268634E-2
6.495518220E-1,6.530525628E-3,4.032852873E-2,4.317095503E-2
6.519710410E-1,5.308796186E-3,3.971766308E-2,4.378182068E-2
6.543909890E-1,5.919659976E-3,3.971766308E-2,4.133836180E-2
6.568102080E-1,5.308796186E-3,4.093939438E-2,3.889490291E-2
6.592285930E-1,4.697931465E-3,4.216111824E-2,3.828403726E-2
6.616477600E-1,5.308796186E-3,3.849593177E-2,3.767317161E-2
6.640677600E-1,5.919659976E-3,3.849593177E-2,3.767317161E-2
6.664869270E-1,4.697931465E-3,3.849593177E-2,3.828403726E-2
6.689053640E-1,5.308796186E-3,3.849593177E-2,3.706230596E-2
6.713245310E-1,5.919659976E-3,3.910679743E-2,3.645144403E-2
6.737445310E-1,7.141391281E-3,3.849593177E-2,3.278625384E-2
6.761636970E-1,9.584849700E-3,3.910679743E-2,3.339711949E-2
6.785821350E-1,9.584849700E-3,3.788506612E-2,3.278625384E-2
6.810013020E-1,9.584849700E-3,3.666333482E-2,3.095366061E-2
6.834213020E-1,1.019571349E-2,3.544160724E-2,3.095366061E-2
6.858404680E-1,6.530525628E-3,3.299814835E-2,3.156452626E-2
6.882588540E-1,5.308796186E-3,3.299814835E-2,3.156452626E-2
6.906780720E-1,6.530525628E-3,3.055468947E-2,3.217538819E-2
6.930980200E-1,7.141391281E-3,2.750036493E-2,3.095366061E-2
6.955172390E-1,6.530525628E-3,2.505690604E-2,3.034279495E-2
6.979356250E-1,6.530525628E-3,2.383517846E-2,3.156452626E-2
7.003548430E-1,5.308796186E-3,2.200258151E-2,3.156452626E-2
7.027747910E-1,7.141391281E-3,2.139171958E-2,3.278625384E-2
7.051940100E-1,5.919659976E-3,2.016998827E-2,3.217538819E-2
7.076123950E-1,6.530525628E-3,1.894826069E-2,3.156452626E-2
7.100315620E-1,5.919659976E-3,1.833739504E-2,3.095366061E-2
7.124515620E-1,5.308796186E-3,1.650480181E-2,3.156452626E-2
7.148707810E-1,4.087066744E-3,1.467220671E-2,3.400798514E-2
7.172891660E-1,3.476202022E-3,1.283961162E-2,3.339711949E-2
7.197083330E-1,1.643607859E-3,1.100701839E-2,3.217538819E-2
7.221283330E-1,2.865337301E-3,6.730966736E-3,3.400798514E-2
7.245475000E-1,1.643607859E-3,6.730966736E-3,3.584057838E-2
7.269659370E-1,2.865337301E-3,4.898371641E-3,3.522971272E-2
7.293851040E-1,2.254472580E-3,3.676642198E-3,3.584057838E-2
7.318051040E-1,2.865337301E-3,1.233183313E-3,3.461885080E-2
7.342242700E-1,3.476202022E-3,1.233183313E-3,3.706230596E-2
7.366427080E-1,2.254472580E-3,2.454912756E-3,3.706230596E-2
7.390618750E-1,5.308796186E-3,6.223176606E-4,3.706230596E-2
7.414818750E-1,4.697931465E-3,1.233183313E-3,3.706230596E-2
7.439010410E-1,1.643607859E-3,3.676642198E-3,3.706230596E-2
7.463194270E-1,2.865337301E-3,2.454912756E-3,3.584057838E-2
7.487386450E-1,1.643607859E-3,1.844048966E-3,3.645144403E-2
7.511585930E-1,1.643607859E-3,1.844048966E-3,3.828403726E-2
7.535778120E-1,1.032743137E-3,6.223176606E-4,3.950576857E-2
7.559961970E-1,2.865337301E-3,6.223176606E-4,3.950576857E-2
7.584154160E-1,4.087066744E-3,-1.821140293E-3,3.950576857E-2
7.608353640E-1,4.087066744E-3,-5.994108506E-4,3.950576857E-2
7.632545830E-1,4.087066744E-3,1.233183313E-3,4.011663049E-2
7.656729680E-1,5.919659976E-3,2.454912756E-3,4.072749615E-2
7.680921870E-1,5.308796186E-3,1.233183313E-3,4.317095503E-2
7.705121350E-1,4.087066744E-3,6.223176606E-4,4.378182068E-2
7.729313540E-1,4.697931465E-3,6.223176606E-4,4.317095503E-2
7.753497390E-1,7.141391281E-3,1.844048966E-3,4.378182068E-2
7.777689060E-1,5.919659976E-3,1.844048966E-3,4.378182068E-2
7.801889060E-1,7.752255071E-3,6.223176606E-4,4.500355199E-2
7.826080720E-1,6.530525628E-3,-1.210275572E-3,4.561441019E-2
7.850265100E-1,7.752255071E-3,-2.432005014E-3,4.561441019E-2
7.874456770E-1,8.363118395E-3,-5.486328620E-3,4.744700715E-2
7.898656770E-1,1.141744293E-2,-7.318922784E-3,4.683614150E-2
7.922848430E-1,9.584849700E-3,-7.929787040E-3,4.866873845E-2
7.947032810E-1,1.019571349E-2,-1.159497537E-2,5.050133541E-2
7.971224470E-1,1.019571349E-2,-1.281670667E-2,5.233392492E-2
7.995424470E-1,1.202830859E-2,-1.281670667E-2,5.355565622E-2
8.019616140E-1,1.141744293E-2,-1.159497537E-2,5.294479057E-2
8.043800520E-1,1.325003617E-2,-1.220584102E-2,5.477738753E-2
8.067992180E-1,1.325003617E-2,-1.159497537E-2,5.477738753E-2
8.092191660E-1,1.508263126E-2,-1.098411158E-2,5.538824573E-2
8.116383850E-1,1.691522636E-2,-1.098411158E-2,5.538824573E-2
8.140567700E-1,1.691522636E-2,-1.220584102E-2,5.660997704E-2
8.164759890E-1,1.935868524E-2,-1.098411158E-2,5.783170834E-2
8.188959370E-1,1.996954903E-2,-1.281670667E-2,5.905343965E-2
8.213151560E-1,1.996954903E-2,-1.159497537E-2,5.905343965E-2
8.237335410E-1,2.058041282E-2,-1.281670667E-2,6.149689108E-2
8.261527600E-1,1.996954903E-2,-1.037324592E-2,6.088603288E-2
8.285727080E-1,2.058041282E-2,-9.762382135E-3,6.271862239E-2
8.309919270E-1,2.180214413E-2,-9.762382135E-3,6.332949549E-2
8.334103120E-1,2.058041282E-2,-8.540652692E-3,6.332949549E-2
8.358295310E-1,2.180214413E-2,-9.151516482E-3,6.455122679E-2
8.382494790E-1,1.996954903E-2,-8.540652692E-3,6.516208500E-2
8.406686970E-1,2.119127847E-2,-6.097193342E-3,6.455122679E-2
8.430870830E-1,2.180214413E-2,-7.318922784E-3,6.638381630E-2
8.455062500E-1,2.241300605E-2,-4.264599178E-3,6.577294320E-2
8.479262500E-1,2.180214413E-2,-3.042869736E-3,6.760554761E-2
8.503454160E-1,2.302387170E-2,-3.042869736E-3,6.821640581E-2
8.527638540E-1,2.363473736E-2,-5.994108506E-4,6.882727891E-2
8.551830200E-1,2.546733059E-2,-5.994108506E-4,6.760554761E-2
8.576030200E-1,2.363473736E-2,6.223176606E-4,6.760554761E-2
8.600221870E-1,2.485646866E-2,2.454912756E-3,6.882727891E-2
8.624406250E-1,2.485646866E-2,3.065776546E-3,7.004901022E-2
8.648597910E-1,2.607819624E-2,5.509235431E-3,6.821640581E-2
8.672797910E-1,2.729992382E-2,7.341830526E-3,6.882727891E-2
8.696989580E-1,2.852165513E-2,6.730966736E-3,7.004901022E-2
8.721173950E-1,2.729992382E-2,1.100701839E-2,7.127072662E-2
8.745365620E-1,2.791078947E-2,1.222874783E-2,7.127072662E-2
8.769565620E-1,3.096511215E-2,1.161788404E-2,7.065986842E-2
8.793757290E-1,3.035424650E-2,1.528307050E-2,7.065986842E-2
8.817941660E-1,3.035424650E-2,1.650480181E-2,7.127072662E-2
8.842133330E-1,3.340857476E-2,1.406134292E-2,7.249245793E-2
8.866333330E-1,3.218684345E-2,1.528307050E-2,7.188159972E-2
8.890525000E-1,3.096511215E-2,1.345047727E-2,7.310333103E-2
8.914708850E-1,3.096511215E-2,1.345047727E-2,7.249245793E-2
8.938901040E-1,3.218684345E-2,1.283961162E-2,7.432506233E-2
8.963100520E-1,3.035424650E-2,1.100701839E-2,7.432506233E-2
8.987292700E-1,3.096511215E-2,9.785288945E-3,7.554677874E-2
9.011476560E-1,3.279770911E-2,1.161788404E-2,7.799024135E-2
9.035668750E-1,3.340857476E-2,1.039615273E-2,7.799024135E-2
9.059868220E-1,3.340857476E-2,9.785288945E-3,7.799024135E-2
9.084060410E-1,3.463030607E-2,9.174425155E-3,7.860111445E-2
9.108244270E-1,3.463030607E-2,1.100701839E-2,7.982284576E-2
9.132436450E-1,3.340857476E-2,1.222874783E-2,8.043370396E-2
9.156635930E-1,3.463030607E-2,1.039615273E-2,8.043370396E-2
9.180828120E-1,3.463030607E-2,1.283961162E-2,8.104456216E-2
9.205011970E-1,3.463030607E-2,1.283961162E-2,8.287716657E-2
9.229204160E-1,3.585202992E-2,1.039615273E-2,8.348802477E-2
9.253403640E-1,3.707376122E-2,9.174425155E-3,8.348802477E-2
9.277595830E-1,3.707376122E-2,8.563559502E-3,8.654234558E-2
9.301779680E-1,3.890635818E-2,8.563559502E-3,8.776407689E-2
9.325971350E-1,3.890635818E-2,8.563559502E-3,8.837494999E-2
9.350171350E-1,3.890635818E-2,6.730966736E-3,8.837494999E-2
9.374363540E-1,3.890635818E-2,6.120101083E-3,9.081839770E-2
9.398547390E-1,3.951722383E-2,3.676642198E-3,9.265100211E-2
9.422739060E-1,3.829549253E-2,4.898371641E-3,9.570532292E-2
9.446939060E-1,3.951722383E-2,3.065776546E-3,9.692705423E-2
9.471130720E-1,4.012808204E-2,3.065776546E-3,9.753791243E-2
9.495315100E-1,4.073894769E-2,2.454912756E-3,9.814878553E-2
9.519506770E-1,4.134981334E-2,1.844048966E-3,9.814878553E-2
9.543706770E-1,4.196067899E-2,4.898371641E-3,1.012031063E-1
9.567898430E-1,4.134981334E-2,1.844048966E-3,1.036465690E-1
9.592082810E-1,3.829549253E-2,3.065776546E-3,1.030356959E-1
9.616274470E-1,4.012808204E-2,4.287507851E-3,1.048683003E-1
9.640474470E-1,3.951722383E-2,6.730966736E-3,1.054791585E-1
9.664666140E-1,3.890635818E-2,1.039615273E-2,1.060900316E-1
9.688850520E-1,3.707376122E-2,1.039615273E-2,1.073117480E-1
9.713042180E-1,3.646289557E-2,1.161788404E-2,1.091443524E-1
9.737242180E-1,3.890635818E-2,1.345047727E-2,1.103660837E-1
9.761433850E-1,3.768462688E-2,1.467220671E-2,1.121986732E-1
9.785618220E-1,3.768462688E-2,1.650480181E-2,1.115878001E-1
9.809809890E-1,3.585202992E-2,1.772652939E-2,1.140312627E-1
9.834009890E-1,3.524116427E-2,1.650480181E-2,1.140312627E-1
9.858201560E-1,3.646289557E-2,1.650480181E-2,1.146421358E-1
9.882385410E-1,3.768462688E-2,1.711566374E-2,1.158638671E-1
9.906577600E-1,3.585202992E-2,1.894826069E-2,1.152529940E-1
9.930777600E-1,3.646289557E-2,1.772652939E-2,1.170855835E-1
9.954969270E-1,3.524116427E-2,1.833739504E-2,1.158638671E-1
9.979153120E-1,3.585202992E-2,1.894826069E-2,1.189181879E-1
1.000334531E0,3.585202992E-2,2.078085393E-2,1.189181879E-1
1.002754479E0,3.524116427E-2,2.016998827E-2,1.189181879E-1
1.005173697E0,3.401944041E-2,2.016998827E-2,1.183073148E-1
1.007592083E0,3.401944041E-2,2.261344716E-2,1.183073148E-1
1.010011302E0,3.279770911E-2,2.261344716E-2,1.201399192E-1
1.012431250E0,2.974338643E-2,2.444604412E-2,1.189181879E-1
1.014850468E0,2.913252078E-2,2.505690604E-2,1.189181879E-1
1.017268854E0,2.913252078E-2,2.811123058E-2,1.195290461E-1
1.019688072E0,2.791078947E-2,2.994382381E-2,1.183073148E-1
1.022108020E0,2.668906190E-2,2.994382381E-2,1.176964566E-1
1.024527239E0,2.729992382E-2,3.421987966E-2,1.176964566E-1
1.026945625E0,2.607819624E-2,3.849593177E-2,1.183073148E-1
1.029364843E0,2.485646866E-2,3.971766308E-2,1.170855835E-1
1.031784791E0,2.485646866E-2,4.460458085E-2,1.183073148E-1
1.034204010E0,2.363473736E-2,4.460458085E-2,1.201399192E-1
1.036622395E0,2.363473736E-2,4.582631215E-2,1.195290461E-1
1.039041614E0,2.241300605E-2,4.765890166E-2,1.189181879E-1
1.041461562E0,2.241300605E-2,4.765890166E-2,1.195290461E-1
1.043880781E0,2.180214413E-2,4.888063297E-2,1.195290461E-1
1.046299166E0,2.119127847E-2,4.826976731E-2,1.207507774E-1
1.048718333E0,2.058041282E-2,4.765890166E-2,1.225833669E-1
1.051138333E0,2.058041282E-2,4.643717036E-2,1.225833669E-1
1.053557552E0,2.058041282E-2,4.704803601E-2,1.231942400E-1
1.055975937E0,2.119127847E-2,4.765890166E-2,1.256377101E-1
1.058395104E0,2.180214413E-2,4.704803601E-2,1.256377101E-1
1.060815104E0,2.058041282E-2,4.949149862E-2,1.262485683E-1
1.063234270E0,2.119127847E-2,4.826976731E-2,1.274702847E-1
1.065652708E0,2.119127847E-2,4.765890166E-2,1.280811429E-1
1.068071875E0,2.058041282E-2,4.888063297E-2,1.299137473E-1
1.070491875E0,2.119127847E-2,4.888063297E-2,1.317463517E-1
1.072911041E0,2.241300605E-2,5.010235682E-2,1.323572099E-1
1.075329479E0,2.302387170E-2,4.765890166E-2,1.323572099E-1
1.077748645E0,2.485646866E-2,4.704803601E-2,1.329680681E-1
1.080168645E0,2.424560301E-2,4.704803601E-2,1.348006725E-1
1.082587812E0,2.546733059E-2,4.582631215E-2,1.354115307E-1
1.085006250E0,2.607819624E-2,4.521544650E-2,1.366332471E-1
1.087425416E0,2.729992382E-2,4.399371520E-2,1.372441351E-1
1.089845416E0,2.913252078E-2,4.093939438E-2,1.384658515E-1
1.092264583E0,2.913252078E-2,3.971766308E-2,1.378549933E-1
1.094683020E0,3.157597780E-2,3.910679743E-2,1.390767097E-1
1.097102187E0,3.340857476E-2,3.666333482E-2,1.415201724E-1
1.099522187E0,3.340857476E-2,3.544160724E-2,1.409093142E-1
1.101941354E0,3.463030607E-2,3.483074158E-2,1.421310306E-1
1.104359791E0,3.524116427E-2,3.421987966E-2,1.427419186E-1
1.106778958E0,3.524116427E-2,2.994382381E-2,1.427419186E-1
1.109198958E0,3.646289557E-2,2.994382381E-2,1.445744932E-1
1.111618125E0,3.768462688E-2,3.055468947E-2,1.451853812E-1
1.114036562E0,3.890635818E-2,2.811123058E-2,1.457962394E-1
1.116455729E0,4.073894769E-2,2.933296189E-2,1.457962394E-1
1.118875729E0,4.257154465E-2,2.933296189E-2,1.464070976E-1
1.121294895E0,4.257154465E-2,3.055468947E-2,1.451853812E-1
1.123713333E0,4.257154465E-2,3.055468947E-2,1.451853812E-1
1.126132500E0,4.440414160E-2,3.299814835E-2,1.451853812E-1
1.128552500E0,4.440414160E-2,3.605247289E-2,1.451853812E-1
1.130971666E0,4.379327595E-2,3.483074158E-2,1.445744932E-1
1.133390104E0,4.379327595E-2,3.666333482E-2,1.439636350E-1
1.135809270E0,4.379327595E-2,3.971766308E-2,1.445744932E-1
1.138229270E0,4.440414160E-2,4.032852873E-2,1.433527768E-1
1.140648437E0,4.501499981E-2,4.216111824E-2,1.433527768E-1
1.143066822E0,4.562586546E-2,4.216111824E-2,1.445744932E-1
1.145486041E0,4.501499981E-2,4.399371520E-2,1.439636350E-1
1.147906041E0,4.440414160E-2,4.582631215E-2,1.421310306E-1
1.150325208E0,4.318241030E-2,4.765890166E-2,1.433527768E-1
1.152743593E0,4.318241030E-2,4.643717036E-2,1.433527768E-1
1.155162812E0,4.318241030E-2,4.826976731E-2,1.439636350E-1
1.157582812E0,4.196067899E-2,5.071322247E-2,1.433527768E-1
1.160001979E0,4.012808204E-2,5.071322247E-2,1.445744932E-1
1.162420364E0,4.012808204E-2,5.254581943E-2,1.451853812E-1
1.164839583E0,3.829549253E-2,5.437841639E-2,1.451853812E-1
1.167259583E0,3.585202992E-2,5.376755074E-2,1.464070976E-1
1.169678750E0,3.463030607E-2,5.315668508E-2,1.476288140E-1
1.172097135E0,3.279770911E-2,5.498928204E-2,1.464070976E-1
1.174516354E0,3.096511215E-2,5.498928204E-2,1.482397020E-1
1.176936302E0,3.218684345E-2,5.621100590E-2,1.494614184E-1
1.179355520E0,2.974338643E-2,5.926533416E-2,1.512940228E-1
1.181773906E0,2.791078947E-2,5.987619236E-2,1.531265974E-1
1.184193125E0,2.668906190E-2,6.109792367E-2,1.537374854E-1
1.186613125E0,2.485646866E-2,6.476311386E-2,1.531265974E-1
1.189032291E0,2.363473736E-2,6.415224820E-2,1.543483436E-1
1.191450677E0,2.180214413E-2,6.842830032E-2,1.531265974E-1
1.193869895E0,1.874781959E-2,6.842830032E-2,1.537374854E-1
1.196289843E0,1.691522636E-2,7.087175548E-2,1.543483436E-1
1.198709062E0,1.508263126E-2,7.270435244E-2,1.531265974E-1
1.201127447E0,1.386090182E-2,7.392608374E-2,1.531265974E-1
1.203546666E0,1.202830859E-2,7.270435244E-2,1.537374854E-1
1.205966666E0,1.080657728E-2,7.636953890E-2,1.531265974E-1
1.208385833E0,9.584849700E-3,7.698040456E-2,1.531265974E-1
1.210804218E0,7.141391281E-3,7.881300151E-2,1.537374854E-1
1.213223437E0,5.308796186E-3,8.125645667E-2,1.537374854E-1
1.215643385E0,6.530525628E-3,8.247818798E-2,1.531265974E-1
1.218062604E0,5.919659976E-3,8.369991928E-2,1.531265974E-1
1.220480989E0,5.308796186E-3,8.492164314E-2,1.531265974E-1
1.222900208E0,5.919659976E-3,8.614337444E-2,1.543483436E-1
1.225320156E0,4.697931465E-3,8.492164314E-2,1.549592018E-1
1.227739375E0,4.087066744E-3,8.614337444E-2,1.543483436E-1
1.230157760E0,2.865337301E-3,8.797597140E-2,1.549592018E-1
1.232576979E0,2.254472580E-3,8.553250879E-2,1.567918062E-1
1.234996927E0,1.643607859E-3,8.431078494E-2,1.586243808E-1
1.237416145E0,-1.889863051E-4,8.431078494E-2,1.586243808E-1
1.239834531E0,-1.410715748E-3,8.247818798E-2,1.592352688E-1
1.242253750E0,-2.021580469E-3,8.125645667E-2,1.604569852E-1
1.244673697E0,-3.854174633E-3,8.064559102E-2,1.604569852E-1
1.247092916E0,-3.243309911E-3,7.820213586E-2,1.616787016E-1
1.249511302E0,-3.854174633E-3,7.698040456E-2,1.616787016E-1
1.251930520E0,-4.465039354E-3,7.514780760E-2,1.635113060E-1
1.254350468E0,-5.075904075E-3,7.392608374E-2,1.622895896E-1
1.256769687E0,-4.465039354E-3,7.392608374E-2,1.641221642E-1
1.259188072E0,-5.075904075E-3,7.209348679E-2,1.635113060E-1
1.261607291E0,-6.908498239E-3,7.026088983E-2,1.635113060E-1
1.264027239E0,-6.908498239E-3,6.903916597E-2,1.629004478E-1
1.266446458E0,-6.908498239E-3,6.781743467E-2,1.622895896E-1
1.268864843E0,-7.519362960E-3,6.659570336E-2,1.604569852E-1
1.271284062E0,-6.297633518E-3,6.476311386E-2,1.616787016E-1
1.273704010E0,-7.519362960E-3,6.231965497E-2,1.598461270E-1
1.276123229E0,-6.908498239E-3,5.987619236E-2,1.592352688E-1
1.278541614E0,-7.519362960E-3,5.987619236E-2,1.592352688E-1
1.280960833E0,-9.351957589E-3,5.926533416E-2,1.567918062E-1
1.283380781E0,-8.741091937E-3,5.865446851E-2,1.555700600E-1
1.285800000E0,-9.351957589E-3,5.743273720E-2,1.549592018E-1
1.288218385E0,-1.118455082E-2,5.621100590E-2,1.531265974E-1
1.290637604E0,-1.118455082E-2,5.437841639E-2,1.506831348E-1
1.293057552E0,-1.118455082E-2,5.254581943E-2,1.488505602E-1
1.295476770E0,-9.962821379E-3,5.193495378E-2,1.470179558E-1
1.297895156E0,-9.962821379E-3,4.888063297E-2,1.451853812E-1
1.300314375E0,-1.057368703E-2,4.460458085E-2,1.445744932E-1
1.302734322E0,-9.351957589E-3,4.399371520E-2,1.427419186E-1
1.305153541E0,-8.130228147E-3,3.971766308E-2,1.396875978E-1
1.307571927E0,-8.130228147E-3,3.727420047E-2,1.366332471E-1
1.309991145E0,-6.908498239E-3,3.666333482E-2,1.360223889E-1
1.312411093E0,-6.297633518E-3,3.605247289E-2,1.335789263E-1
1.314830312E0,-4.465039354E-3,3.299814835E-2,1.323572099E-1
1.317248697E0,-4.465039354E-3,2.994382381E-2,1.305246055E-1
1.319667916E0,-3.243309911E-3,2.688949928E-2,1.293028891E-1
1.322087864E0,-2.021580469E-3,2.322431281E-2,1.274702847E-1
1.324507083E0,-2.021580469E-3,2.139171958E-2,1.268594265E-1
1.326925468E0,-1.410715748E-3,2.016998827E-2,1.250268221E-1
1.329344687E0,-1.889863051E-4,1.894826069E-2,1.238050982E-1
1.331764635E0,-1.410715748E-3,1.528307050E-2,1.250268221E-1
1.334183854E0,-7.998510264E-4,1.283961162E-2,1.238050982E-1
1.336602239E0,-2.021580469E-3,8.563559502E-3,1.231942400E-1
1.339021458E0,-3.243309911E-3,6.730966736E-3,1.213616505E-1
1.341441406E0,-4.465039354E-3,1.233183313E-3,1.201399192E-1
1.343860625E0,-6.297633518E-3,-1.821140293E-3,1.195290461E-1
1.346279010E0,-6.297633518E-3,-8.540652692E-3,1.195290461E-1
1.348698229E0,-9.351957589E-3,-1.098411158E-2,1.158638671E-1
1.351118177E0,-1.179541647E-2,-9.762382135E-3,1.158638671E-1
1.353537395E0,-1.484973915E-2,-7.318922784E-3,1.146421358E-1
1.355955781E0,-1.729319990E-2,-7.318922784E-3,1.121986732E-1
1.358375000E0,-1.729319990E-2,-7.929787040E-3,1.085334793E-1
1.360794947E0,-1.790406369E-2,-9.151516482E-3,1.079226211E-1
1.363214166E0,-1.912579313E-2,-9.151516482E-3,1.054791585E-1
1.365632552E0,-1.973665878E-2,-1.037324592E-2,1.005922332E-1
1.368051770E0,-2.156925201E-2,-1.098411158E-2,9.875964373E-2
1.370471718E0,-2.095838636E-2,-1.831448823E-2,9.631618112E-2
1.372890937E0,-2.095838636E-2,-3.297523782E-2,9.326186031E-2
1.375309322E0,-2.645616978E-2,-2.503400110E-2,9.020753950E-2
1.377728541E0,-3.012135811E-2,-1.648189314E-2,8.593148738E-2
1.380148489E0,-3.561913967E-2,-1.037324592E-2,8.470975608E-2
1.382567708E0,-3.806260228E-2,-6.708058063E-3,8.165543526E-2
1.384986093E0,-4.172778875E-2,-5.486328620E-3,7.860111445E-2
1.387405312E0,-4.600384086E-2,-4.264599178E-3,7.432506233E-2
1.389825260E0,-5.027989298E-2,-1.821140293E-3,7.188159972E-2
1.392244479E0,-5.455594510E-2,-1.821140293E-3,6.577294320E-2
1.394662864E0,-5.699940771E-2,-6.708058063E-3,6.027517468E-2
1.397082083E0,-6.066459417E-2,-3.114264645E-2,5.599911138E-2
1.399502083E0,-6.921669841E-2,-2.259054221E-2,5.111219361E-2
1.401921250E0,-8.082313091E-2,-7.318922784E-3,4.866873845E-2
1.404339687E0,-9.059696645E-2,6.223176606E-4,4.561441019E-2
1.406758854E0,-9.975993633E-2,5.509235431E-3,4.561441019E-2
1.409178854E0,-1.101446375E-1,7.952693850E-3,4.500355199E-2
1.411598020E0,-1.205293387E-1,9.174425155E-3,4.439268634E-2
1.414016458E0,-1.284705848E-1,7.341830526E-3,4.378182068E-2
1.416435625E0,-1.382444054E-1,5.509235431E-3,4.256008938E-2
1.418855625E0,-1.467965245E-1,4.287507851E-3,4.256008938E-2
1.421274791E0,-1.559594870E-1,1.844048966E-3,4.194922373E-2
1.423693229E0,-1.639007330E-1,-2.432005014E-3,4.317095503E-2
1.426112395E0,-1.693985164E-1,-1.464929990E-2,4.256008938E-2
1.428532395E0,-1.736745685E-1,-4.763599113E-2,4.561441019E-2
1.430951562E0,-1.852809936E-1,-4.519253597E-2,4.378182068E-2
1.433370000E0,-1.987200230E-1,-3.664042801E-2,4.256008938E-2
1.435789166E0,-2.091047168E-1,-2.992091887E-2,4.317095503E-2
1.438209166E0,-2.188785523E-1,-2.686659433E-2,4.439268634E-2
1.440628333E0,-2.243763357E-1,-2.931005321E-2,4.622527584E-2
1.443046770E0,-2.304849923E-1,-3.114264645E-2,4.683614150E-2
1.445465937E0,-2.341501713E-1,-3.480783477E-2,4.561441019E-2
1.447885937E0,-2.384262234E-1,-3.786215559E-2,4.378182068E-2
1.450305104E0,-2.408696860E-1,-4.152734578E-2,4.439268634E-2
1.452723541E0,-2.420914173E-1,-4.519253597E-2,4.439268634E-2
1.455142708E0,-2.469783276E-1,-4.702512547E-2,4.561441019E-2
1.457562708E0,-2.482000589E-1,-5.191204324E-2,4.500355199E-2
1.459981875E0,-2.512543797E-1,-5.557723716E-2,4.317095503E-2
1.462400312E0,-2.530869842E-1,-5.924242362E-2,4.500355199E-2
1.464819479E0,-2.567521632E-1,-6.229674444E-2,4.622527584E-2
1.467239479E0,-2.530869842E-1,-9.283998609E-2,5.783170834E-2
1.469658645E0,-2.567521632E-1,-1.020029560E-1,6.088603288E-2
1.472077083E0,-2.695803344E-1,-8.856393397E-2,5.722084269E-2
1.474496250E0,-2.799650133E-1,-8.612047881E-2,4.927960411E-2
1.476916250E0,-2.872954011E-1,-8.612047881E-2,4.500355199E-2
1.479335416E0,-2.934040427E-1,-8.489874750E-2,4.194922373E-2
1.481753854E0,-2.976801097E-1,-8.428788185E-2,4.194922373E-2
1.484173020E0,-3.031778932E-1,-8.367701620E-2,4.317095503E-2
1.486593020E0,-3.080648184E-1,-8.428788185E-2,4.256008938E-2
1.489012239E0,-3.123408556E-1,-8.734220266E-2,4.133836180E-2
1.491430625E0,-3.160060346E-1,-9.039653093E-2,4.133836180E-2
1.493849791E0,-3.196712434E-1,-9.345085174E-2,4.011663049E-2
1.496269791E0,-3.215038180E-1,-9.345085174E-2,3.828403726E-2
1.498689010E0,-3.233364224E-1,-9.406171739E-2,3.706230596E-2
1.501107395E0,-3.251690269E-1,-9.528344870E-2,3.645144403E-2
1.503526614E0,-3.270016015E-1,-9.650518000E-2,3.584057838E-2
1.505946562E0,-3.288342059E-1,-9.528344870E-2,3.522971272E-2
1.508365781E0,-3.294450641E-1,-9.772690386E-2,3.584057838E-2
1.510784166E0,-3.324993849E-1,-9.955950081E-2,3.400798514E-2
1.513203385E0,-3.349428475E-1,-9.894863516E-2,3.400798514E-2
1.515623333E0,-3.379971683E-1,-1.007812321E-1,3.461885080E-2
1.518042552E0,-3.428840935E-1,-1.007812321E-1,3.400798514E-2
1.520460937E0,-3.471601605E-1,-1.026138216E-1,3.278625384E-2
1.522880156E0,-3.551013768E-1,-1.099442020E-1,3.461885080E-2
1.525300104E0,-3.630426228E-1,-1.166637093E-1,3.400798514E-2
1.527719322E0,-3.697621524E-1,-1.209397539E-1,3.522971272E-2
1.530137708E0,-3.746490479E-1,-1.270484030E-1,3.584057838E-2
1.532556927E0,-3.813685775E-1,-1.301027238E-1,3.400798514E-2
1.534976875E0,-3.862555027E-1,-1.349896491E-1,3.217538819E-2
1.537396093E0,-3.923641443E-1,-1.410982907E-1,3.034279495E-2
1.539814479E0,-3.972510397E-1,-1.465960741E-1,2.667760849E-2
1.542233697E0,-4.027488232E-1,-1.490395218E-1,2.301241830E-2
1.544653645E0,-4.064140320E-1,-1.508721262E-1,1.812550053E-2
1.547072864E0,-4.100792110E-1,-1.514829844E-1,1.384944841E-2
1.549491250E0,-4.100792110E-1,-1.527047157E-1,8.962530643E-3
1.551910468E0,-4.113009572E-1,-1.514829844E-1,4.075612873E-3
1.554330468E0,-4.125226736E-1,-1.520938575E-1,-8.113048971E-4
1.556749635E0,-4.143552780E-1,-1.484286636E-1,-5.087357946E-3
1.559168020E0,-4.155769944E-1,-1.478177905E-1,-1.180686988E-2
1.561587239E0,-4.143552780E-1,-1.478177905E-1,-1.486119349E-2
1.564007239E0,-4.155769944E-1,-1.490395218E-1,-2.158070542E-2
1.566426406E0,-4.161878526E-1,-1.496503949E-1,-2.707848698E-2
1.568844843E0,-4.167987108E-1,-1.520938575E-1,-3.074367717E-2
1.571264010E0,-4.131335318E-1,-1.563699096E-1,-3.318713605E-2
1.573684010E0,-4.137443900E-1,-1.600350887E-1,-3.746318817E-2
1.576103177E0,-4.119118154E-1,-1.661437452E-1,-4.112837464E-2
1.578521614E0,-4.119118154E-1,-1.710306555E-1,-4.540443048E-2
1.580940781E0,-4.100792110E-1,-1.759175807E-1,-4.845875502E-2
1.583360781E0,-4.106900692E-1,-1.820262223E-1,-5.273480713E-2
1.585779947E0,-4.100792110E-1,-1.869131327E-1,-5.273480713E-2
1.588198385E0,-4.106900692E-1,-1.930217892E-1,-5.639999360E-2
1.590617552E0,-4.094683528E-1,-1.979086995E-1,-5.639999360E-2
1.593037552E0,-4.070248902E-1,-2.009630352E-1,-5.884345248E-2
1.595456718E0,-4.076357484E-1,-2.046282142E-1,-5.884345248E-2
1.597875156E0,-4.064140320E-1,-2.107368708E-1,-5.762172490E-2
1.600294322E0,-4.058031738E-1,-2.156237811E-1,-5.701085925E-2
1.602714322E0,-4.058031738E-1,-2.186781019E-1,-6.067604944E-2
1.605133541E0,-4.058031738E-1,-2.247867584E-1,-6.006518379E-2
1.607551927E0,-4.064140320E-1,-2.253976166E-1,-5.945431814E-2
1.609971093E0,-4.064140320E-1,-2.290628105E-1,-5.884345248E-2
1.612391093E0,-4.088574946E-1,-2.321171314E-1,-6.067604944E-2
1.614810312E0,-4.100792110E-1,-2.345605940E-1,-5.823258683E-2
1.617228697E0,-4.119118154E-1,-2.345605940E-1,-5.823258683E-2
1.619647916E0,-4.143552780E-1,-2.376149148E-1,-5.823258683E-2
1.622067864E0,-4.180204570E-1,-2.382257730E-1,-5.884345248E-2
1.624487083E0,-4.174095988E-1,-2.412800938E-1,-6.006518379E-2
1.626905468E0,-4.192421734E-1,-2.425018251E-1,-6.067604944E-2
1.629324687E0,-4.204639196E-1,-2.431126982E-1,-6.189777702E-2
1.631744635E0,-4.222964942E-1,-2.455561608E-1,-6.311950088E-2
1.634163854E0,-4.229073822E-1,-2.486104816E-1,-6.434123218E-2
1.636582239E0,-4.222964942E-1,-2.522756755E-1,-6.556297094E-2
1.639001458E0,-4.235182405E-1,-2.559408844E-1,-6.617382914E-2
1.641421458E0,-4.241290987E-1,-2.620495260E-1,-6.800641865E-2
1.643840625E0,-4.210747778E-1,-2.687690556E-1,-7.167161256E-2
1.646259010E0,-4.210747778E-1,-2.742668390E-1,-7.350420207E-2
1.648678229E0,-4.198530614E-1,-2.797645926E-1,-7.411507517E-2
1.651098229E0,-4.198530614E-1,-2.858732641E-1,-7.472593337E-2
1.653517395E0,-4.186313152E-1,-2.907601595E-1,-7.594766468E-2
1.655935833E0,-4.204639196E-1,-2.980905473E-1,-7.716939598E-2
1.658355000E0,-4.216856360E-1,-3.029774725E-1,-7.900198549E-2
1.660775000E0,-4.229073822E-1,-3.109187186E-1,-8.022371680E-2
1.663194166E0,-4.247399569E-1,-3.170273602E-1,-8.266717941E-2
1.665612604E0,-4.259617031E-1,-3.237468600E-1,-8.327803761E-2
1.668031770E0,-4.271834195E-1,-3.316881061E-1,-8.633235842E-2
1.670451770E0,-4.284051657E-1,-3.402402103E-1,-8.755408973E-2
1.672870937E0,-4.290160239E-1,-3.475705981E-1,-8.755408973E-2
1.675289375E0,-4.277942777E-1,-3.542900980E-1,-8.938669413E-2
1.677708541E0,-4.277942777E-1,-3.610096276E-1,-9.244101495E-2
1.680128541E0,-4.259617031E-1,-3.665074110E-1,-9.183014184E-2
1.682547760E0,-4.253508449E-1,-3.726160526E-1,-9.427360445E-2
1.684966145E0,-4.247399569E-1,-3.738377690E-1,-9.671706706E-2
1.687385312E0,-4.222964942E-1,-3.768920898E-1,-1.009931192E-1
1.689805312E0,-4.216856360E-1,-3.787246943E-1,-1.022148505E-1
1.692224531E0,-4.186313152E-1,-3.805572987E-1,-1.040474400E-1
1.694642916E0,-4.192421734E-1,-3.805572987E-1,-1.071017608E-1
1.697062135E0,-4.180204570E-1,-3.805572987E-1,-1.101560965E-1
1.699482083E0,-4.174095988E-1,-3.823898733E-1,-1.125995442E-1
1.701901302E0,-4.186313152E-1,-3.836116195E-1,-1.156538650E-1
1.704319687E0,-4.180204570E-1,-3.836116195E-1,-1.205407903E-1
1.706738906E0,-4.167987108E-1,-3.854441941E-1,-1.248168424E-1
1.709158854E0,-4.143552780E-1,-3.860550821E-1,-1.297037601E-1
1.711578072E0,-4.143552780E-1,-3.866659403E-1,-1.327580810E-1
1.713996458E0,-4.125226736E-1,-3.866659403E-1,-1.358124018E-1
1.716415677E0,-4.131335318E-1,-3.842224777E-1,-1.376450062E-1
1.718835625E0,-4.113009572E-1,-3.811681569E-1,-1.425319314E-1
1.721254843E0,-4.106900692E-1,-3.811681569E-1,-1.461971104E-1
1.723673229E0,-4.100792110E-1,-3.756703734E-1,-1.498622894E-1
1.726092447E0,-4.088574946E-1,-3.744486272E-1,-1.516948938E-1
1.728512447E0,-4.088574946E-1,-3.713943064E-1,-1.559709311E-1
1.730931614E0,-4.094683528E-1,-3.683399856E-1,-1.565818191E-1
1.733350052E0,-4.082466066E-1,-3.658965230E-1,-1.590252519E-1
1.735769218E0,-4.094683528E-1,-3.622313440E-1,-1.633013189E-1
1.738189218E0,-4.113009572E-1,-3.597878814E-1,-1.645230353E-1
1.740608385E0,-4.106900692E-1,-3.542900980E-1,-1.669664979E-1
1.743026822E0,-4.094683528E-1,-3.512357771E-1,-1.700208187E-1
1.745445989E0,-4.088574946E-1,-3.475705981E-1,-1.700208187E-1
1.747865989E0,-4.082466066E-1,-3.426836729E-1,-1.730751395E-1
1.750285208E0,-4.045814276E-1,-3.408510685E-1,-1.749077439E-1
1.752703593E0,-4.045814276E-1,-3.390184939E-1,-1.779620647E-1
1.755122760E0,-4.021379650E-1,-3.371858895E-1,-1.785729229E-1
1.757542760E0,-4.009162486E-1,-3.377967477E-1,-1.816272736E-1
1.759961979E0,-4.003053904E-1,-3.359641731E-1,-1.828489900E-1
1.762380364E0,-3.978619277E-1,-3.353532851E-1,-1.828489900E-1
1.764799583E0,-3.954184651E-1,-3.341315687E-1,-1.828489900E-1
1.767219531E0,-3.954184651E-1,-3.359641731E-1,-1.822381318E-1
1.769638750E0,-3.960293233E-1,-3.347424269E-1,-1.840707064E-1
1.772057135E0,-3.972510397E-1,-3.353532851E-1,-1.840707064E-1
1.774476354E0,-3.972510397E-1,-3.341315687E-1,-1.822381318E-1
1.776896302E0,-3.996945024E-1,-3.335207105E-1,-1.810163856E-1
1.779315520E0,-3.984727859E-1,-3.322989643E-1,-1.804055274E-1
1.781733906E0,-3.990836442E-1,-3.322989643E-1,-1.810163856E-1
1.784153125E0,-4.003053904E-1,-3.310772479E-1,-1.828489900E-1
1.786573125E0,-3.996945024E-1,-3.322989643E-1,-1.852924526E-1
1.788992291E0,-3.990836442E-1,-3.316881061E-1,-1.877359152E-1
1.791410677E0,-3.966401815E-1,-3.322989643E-1,-1.895684898E-1
1.793829895E0,-3.948076069E-1,-3.322989643E-1,-1.914010942E-1
1.796249895E0,-3.917532563E-1,-3.347424269E-1,-1.901793778E-1
1.798669062E0,-3.899206817E-1,-3.353532851E-1,-1.914010942E-1
1.801087500E0,-3.874772191E-1,-3.390184939E-1,-1.920119524E-1
1.803506666E0,-3.844228983E-1,-3.420728147E-1,-1.944554150E-1
1.805926666E0,-3.819794357E-1,-3.439053893E-1,-1.950662732E-1
1.808345833E0,-3.789251149E-1,-3.463488519E-1,-1.968988776E-1
1.810764270E0,-3.770925105E-1,-3.481814563E-1,-1.993423402E-1
1.813183437E0,-3.728164732E-1,-3.463488519E-1,-2.017858028E-1
1.815603437E0,-3.715947270E-1,-3.469597399E-1,-2.042292655E-1
1.818022656E0,-3.679295480E-1,-3.463488519E-1,-2.054509819E-1
1.820441041E0,-3.691512644E-1,-3.439053893E-1,-2.048401237E-1
1.822860260E0,-3.679295480E-1,-3.426836729E-1,-2.054509819E-1
1.825280208E0,-3.660969436E-1,-3.439053893E-1,-2.054509819E-1
1.827699427E0,-3.654860854E-1,-3.408510685E-1,-2.072835863E-1
1.830117812E0,-3.636534810E-1,-3.420728147E-1,-2.103379071E-1
1.832537031E0,-3.624317646E-1,-3.414619565E-1,-2.109487653E-1
1.834956979E0,-3.612100482E-1,-3.414619565E-1,-2.121704817E-1
1.837376197E0,-3.605991602E-1,-3.420728147E-1,-2.127813697E-1
1.839794583E0,-3.569339812E-1,-3.408510685E-1,-2.164465487E-1
1.842213802E0,-3.538796604E-1,-3.414619565E-1,-2.170574069E-1
1.844633802E0,-3.508253396E-1,-3.432945311E-1,-2.176682651E-1
1.847052968E0,-3.477710187E-1,-3.469597399E-1,-2.158356905E-1
1.849471406E0,-3.434949517E-1,-3.494031727E-1,-2.152248323E-1
1.851890572E0,-3.404406309E-1,-3.549009562E-1,-2.170574069E-1
1.854310572E0,-3.386080265E-1,-3.591770232E-1,-2.195008695E-1
1.856729739E0,-3.361645937E-1,-3.634530604E-1,-2.201117277E-1
1.859148177E0,-3.331102729E-1,-3.701725900E-1,-2.213334739E-1
1.861567343E0,-3.288342059E-1,-3.726160526E-1,-2.225551903E-1
1.863987343E0,-3.251690269E-1,-3.762812316E-1,-2.219443321E-1
1.866406562E0,-3.221147060E-1,-3.787246943E-1,-2.213334739E-1
1.868824947E0,-3.153951764E-1,-3.817790151E-1,-2.207226157E-1
1.871244166E0,-3.123408556E-1,-3.817790151E-1,-2.176682651E-1
1.873664114E0,-3.062322140E-1,-3.836116195E-1,-2.195008695E-1
1.876083333E0,-3.013452888E-1,-3.878876567E-1,-2.176682651E-1
1.878501718E0,-3.001235723E-1,-3.891094029E-1,-2.164465487E-1
1.880920937E0,-2.982909679E-1,-3.927745819E-1,-2.133922279E-1
1.883340885E0,-2.970692515E-1,-3.939962983E-1,-2.127813697E-1
1.885760104E0,-2.940149307E-1,-3.903311193E-1,-2.146139443E-1
1.888178489E0,-2.909605801E-1,-3.878876567E-1,-2.133922279E-1
1.890597708E0,-2.872954011E-1,-3.805572987E-1,-2.146139443E-1
1.893017708E0,-2.854627967E-1,-3.817790151E-1,-2.133922279E-1
1.895436875E0,-2.848519385E-1,-3.872767985E-1,-2.121704817E-1
1.897855312E0,-2.854627967E-1,-3.915528655E-1,-2.127813697E-1
1.900274479E0,-2.848519385E-1,-3.946071863E-1,-2.103379071E-1
1.902694479E0,-2.830193639E-1,-3.976615071E-1,-2.103379071E-1
1.905113645E0,-2.811867595E-1,-4.013266861E-1,-2.097270489E-1
1.907532083E0,-2.775215805E-1,-4.056027532E-1,-2.109487653E-1
1.909951250E0,-2.738563716E-1,-4.092679322E-1,-2.091161609E-1
1.912371250E0,-2.695803344E-1,-4.135439694E-1,-2.078944445E-1
1.914790468E0,-2.665260136E-1,-4.172091782E-1,-2.042292655E-1
1.917208854E0,-2.604173720E-1,-4.251504242E-1,-2.023966610E-1
1.919628072E0,-2.555304468E-1,-4.318699241E-1,-1.999531984E-1
1.922048020E0,-2.463674694E-1,-4.300373197E-1,-2.011749446E-1
1.924467239E0,-2.372044921E-1,-4.318699241E-1,-2.017858028E-1
1.926885625E0,-2.329284400E-1,-4.324807823E-1,-2.030075192E-1
1.929304843E0,-2.310958505E-1,-4.330916405E-1,-1.956771612E-1
1.931724843E0,-2.292632610E-1,-4.294264615E-1,-1.889576316E-1
1.934144010E0,-2.310958505E-1,-4.275938570E-1,-1.828489900E-1
1.936562447E0,-2.317067087E-1,-4.257612824E-1,-1.785729229E-1
1.938981614E0,-2.304849923E-1,-4.257612824E-1,-1.749077439E-1
1.941401614E0,-2.317067087E-1,-4.251504242E-1,-1.736860275E-1
1.943820781E0,-2.286523879E-1,-4.300373197E-1,-1.730751395E-1
1.946239218E0,-2.225437462E-1,-4.373677075E-1,-1.736860275E-1
1.948658385E0,-2.152133733E-1,-4.398111701E-1,-1.761294901E-1
1.951078385E0,-2.084938586E-1,-4.428654909E-1,-1.797946692E-1
1.953497552E0,-2.029960752E-1,-4.416437447E-1,-1.810163856E-1
1.955915989E0,-1.956657022E-1,-4.398111701E-1,-1.797946692E-1
1.958335208E0,-1.877244562E-1,-4.373677075E-1,-1.810163856E-1
1.960755156E0,-1.816157997E-1,-4.355351031E-1,-1.810163856E-1
1.963174375E0,-1.742854267E-1,-4.343133867E-1,-1.840707064E-1
1.965592760E0,-1.687876433E-1,-4.330916405E-1,-1.859033108E-1
1.968011979E0,-1.626790017E-1,-4.330916405E-1,-1.846815944E-1
1.970431927E0,-1.547377557E-1,-4.318699241E-1,-1.846815944E-1
1.972851145E0,-1.498508453E-1,-4.288156033E-1,-1.871250272E-1
1.975269531E0,-1.394661367E-1,-4.257612824E-1,-1.944554150E-1
1.977688750E0,-1.351900846E-1,-4.269829988E-1,-1.975097358E-1
1.980108750E0,-1.296923161E-1,-4.275938570E-1,-1.993423402E-1
1.982527916E0,-1.260271072E-1,-4.343133867E-1,-1.993423402E-1
1.984946354E0,-1.217510626E-1,-4.330916405E-1,-1.975097358E-1
1.987365520E0,-1.186967418E-1,-4.282047451E-1,-1.907902360E-1
1.989785520E0,-1.138098240E-1,-4.227069616E-1,-1.834598482E-1
1.992204687E0,-1.131989583E-1,-4.190417528E-1,-1.804055274E-1
1.994623125E0,-1.095337719E-1,-4.202634990E-1,-1.816272736E-1
1.997042343E0,-1.070903093E-1,-4.245395362E-1,-1.828489900E-1
1.999462291E0,-1.022033915E-1,-4.263721406E-1,-1.828489900E-1
2.001881510E0,-9.914907068E-2,-4.275938570E-1,-1.834598482E-1
2.004299895E0,-9.487301856E-2,-4.282047451E-1,-1.859033108E-1
2.006719114E0,-8.876436949E-2,-4.294264615E-1,-1.865141690E-1
2.009139062E0,-8.509918302E-2,-4.282047451E-1,-1.895684898E-1
2.011558281E0,-7.837966830E-2,-4.275938570E-1,-1.920119524E-1
2.013976666E0,-7.227102667E-2,-4.288156033E-1,-1.944554150E-1
2.016395885E0,-6.616237760E-2,-4.282047451E-1,-1.975097358E-1
2.018815885E0,-6.066459417E-2,-4.275938570E-1,-2.017858028E-1
2.021235052E0,-5.211248994E-2,-4.257612824E-1,-2.017858028E-1
2.023653489E0,-4.600384086E-2,-4.227069616E-1,-2.017858028E-1
2.026072656E0,-3.745173663E-2,-4.202634990E-1,-2.005640566E-1
2.028492656E0,-2.951049246E-2,-4.153765738E-1,-2.011749446E-1
2.030911875E0,-2.095838636E-2,-4.147657156E-1,-2.042292655E-1
2.033330260E0,-1.484973915E-2,-4.117113948E-1,-2.030075192E-1
2.035749479E0,-6.297633518E-3,-4.098787904E-1,-2.036183774E-1
2.038169427E0,-1.889863051E-4,-4.086570740E-1,-2.036183774E-1
2.040588645E0,7.141391281E-3,-4.086570740E-1,-2.011749446E-1
2.043007031E0,1.263917238E-2,-4.104896486E-1,-2.005640566E-1
2.045426250E0,1.874781959E-2,-4.111005366E-1,-1.987314820E-1
2.047846250E0,2.485646866E-2,-4.123222530E-1,-1.981205940E-1
2.050265416E0,3.035424650E-2,-4.129331112E-1,-1.975097358E-1
2.052683802E0,3.524116427E-2,-4.172091782E-1,-1.962880194E-1
2.055103020E0,4.134981334E-2,-4.178200364E-1,-1.962880194E-1
2.057523020E0,4.868019372E-2,-4.172091782E-1,-1.944554150E-1
2.059942187E0,5.478884280E-2,-4.190417528E-1,-1.944554150E-1
2.062360625E0,5.967576057E-2,-4.196526408E-1,-1.944554150E-1
2.064779791E0,6.456267834E-2,-4.190417528E-1,-1.932336986E-1
2.067199791E0,7.006046176E-2,-4.178200364E-1,-1.926228106E-1
2.069619010E0,7.433651388E-2,-4.165983200E-1,-1.926228106E-1
2.072037395E0,7.983429730E-2,-4.165983200E-1,-1.920119524E-1
2.074456614E0,8.533207327E-2,-4.135439694E-1,-1.901793778E-1
2.076876562E0,8.899726719E-2,-4.104896486E-1,-1.895684898E-1
2.079295781E0,9.449504316E-2,-4.104896486E-1,-1.901793778E-1
2.081714166E0,9.938196838E-2,-4.062136114E-1,-1.895684898E-1
2.084133385E0,1.061014757E-1,-4.043810070E-1,-1.877359152E-1
2.086553385E0,1.109883934E-1,-4.007158279E-1,-1.871250272E-1
2.088972552E0,1.183187664E-1,-3.946071863E-1,-1.846815944E-1
2.091390989E0,1.238165498E-1,-3.897202611E-1,-1.834598482E-1
2.093810156E0,1.299252063E-1,-3.842224777E-1,-1.822381318E-1
2.096230156E0,1.366447061E-1,-3.823898733E-1,-1.816272736E-1
2.098649375E0,1.439750940E-1,-3.787246943E-1,-1.804055274E-1
2.101067760E0,1.494728774E-1,-3.762812316E-1,-1.797946692E-1
2.103486979E0,1.561923772E-1,-3.695617318E-1,-1.797946692E-1
2.105906927E0,1.647444963E-1,-3.683399856E-1,-1.779620647E-1
2.108326145E0,1.684096754E-1,-3.665074110E-1,-1.755186021E-1
2.110744531E0,1.720748693E-1,-3.634530604E-1,-1.749077439E-1
2.113163750E0,1.781835109E-1,-3.616204858E-1,-1.736860275E-1
2.115583697E0,1.830704361E-1,-3.616204858E-1,-1.694099605E-1
2.118002916E0,1.873464882E-1,-3.603987396E-1,-1.675773561E-1
2.120421354E0,1.922333986E-1,-3.597878814E-1,-1.675773561E-1
2.122840520E0,1.971203238E-1,-3.579552770E-1,-1.663556397E-1
2.125260520E0,2.007855028E-1,-3.567335606E-1,-1.651339233E-1
2.127679687E0,2.038398385E-1,-3.555118442E-1,-1.633013189E-1
2.130098125E0,2.075050175E-1,-3.536792397E-1,-1.626904607E-1
2.132517291E0,2.099484801E-1,-3.524575233E-1,-1.620796025E-1
2.134937291E0,2.154462636E-1,-3.518466353E-1,-1.620796025E-1
2.137356510E0,2.197223157E-1,-3.500140607E-1,-1.614687145E-1
2.139774895E0,2.233875096E-1,-3.506249189E-1,-1.620796025E-1
2.142194114E0,2.270526886E-1,-3.500140607E-1,-1.596361399E-1
2.144614062E0,2.301070094E-1,-3.530683815E-1,-1.596361399E-1
2.147033281E0,2.331613451E-1,-3.512357771E-1,-1.590252519E-1
2.149451666E0,2.368265241E-1,-3.518466353E-1,-1.602469981E-1
2.151870885E0,2.417134345E-1,-3.506249189E-1,-1.590252519E-1
2.154290885E0,2.459895015E-1,-3.518466353E-1,-1.596361399E-1
2.156710052E0,2.502655387E-1,-3.500140607E-1,-1.602469981E-1
2.159128489E0,2.545416057E-1,-3.506249189E-1,-1.608578563E-1
2.161547656E0,2.588176429E-1,-3.506249189E-1,-1.608578563E-1
2.163967656E0,2.637045681E-1,-3.494031727E-1,-1.620796025E-1
2.166386875E0,2.685914934E-1,-3.475705981E-1,-1.620796025E-1
2.168805260E0,2.747001350E-1,-3.432945311E-1,-1.645230353E-1
2.171224479E0,2.801979184E-1,-3.414619565E-1,-1.645230353E-1
2.173644427E0,2.850848436E-1,-3.377967477E-1,-1.645230353E-1
2.176063645E0,2.887500226E-1,-3.347424269E-1,-1.645230353E-1
2.178482031E0,2.948586643E-1,-3.304663897E-1,-1.651339233E-1
2.180901250E0,2.997455895E-1,-3.268011808E-1,-1.663556397E-1
2.183321250E0,3.058542311E-1,-3.237468600E-1,-1.663556397E-1
2.185740416E0,3.101302981E-1,-3.194708228E-1,-1.669664979E-1
2.188158854E0,3.162389398E-1,-3.158056140E-1,-1.669664979E-1
2.190578020E0,3.235693276E-1,-3.151947558E-1,-1.657447815E-1
2.192998020E0,3.254019022E-1,-3.133621812E-1,-1.675773561E-1
2.195417239E0,3.308996856E-1,-3.145838976E-1,-1.675773561E-1
2.197835625E0,3.370083272E-1,-3.139730394E-1,-1.687991023E-1
2.200254843E0,3.418952525E-1,-3.158056140E-1,-1.694099605E-1
2.202674791E0,3.473930359E-1,-3.188599348E-1,-1.700208187E-1
2.205094010E0,3.516691029E-1,-3.219142854E-1,-1.736860275E-1
2.207512395E0,3.577777445E-1,-3.243577182E-1,-1.749077439E-1
2.209931614E0,3.626646698E-1,-3.255794644E-1,-1.761294901E-1
2.212351614E0,3.681624532E-1,-3.292446434E-1,-1.785729229E-1
2.214770781E0,3.699950278E-1,-3.298555017E-1,-1.779620647E-1
2.217189218E0,3.718276322E-1,-3.310772479E-1,-1.797946692E-1
2.219608385E0,3.736602366E-1,-3.322989643E-1,-1.816272736E-1
2.222028385E0,3.736602366E-1,-3.335207105E-1,-1.828489900E-1
2.224447604E0,3.730493486E-1,-3.347424269E-1,-1.846815944E-1
2.226865989E0,3.706058860E-1,-3.347424269E-1,-1.834598482E-1
2.229285208E0,3.687733114E-1,-3.365750313E-1,-1.840707064E-1
2.231705156E0,3.644972444E-1,-3.353532851E-1,-1.846815944E-1
2.234124375E0,3.644972444E-1,-3.359641731E-1,-1.822381318E-1
2.236542760E0,3.596103489E-1,-3.353532851E-1,-1.804055274E-1
2.238961979E0,3.535016775E-1,-3.353532851E-1,-1.791838109E-1
2.241381979E0,3.467821777E-1,-3.365750313E-1,-1.779620647E-1
2.243801145E0,3.376192153E-1,-3.353532851E-1,-1.736860275E-1
2.246219583E0,3.290671110E-1,-3.359641731E-1,-1.700208187E-1
2.248638750E0,3.162389398E-1,-3.371858895E-1,-1.663556397E-1
2.251058750E0,3.021890521E-1,-3.377967477E-1,-1.614687145E-1
2.253477916E0,2.863065600E-1,-3.414619565E-1,-1.571926773E-1
2.255896354E0,2.692023516E-1,-3.426836729E-1,-1.510840356E-1
2.258315572E0,2.520981431E-1,-3.481814563E-1,-1.449753642E-1
2.260735520E0,2.325504720E-1,-3.536792397E-1,-1.388667226E-1
2.263154739E0,2.117810696E-1,-3.616204858E-1,-1.333689392E-1
2.265573125E0,1.916225404E-1,-3.683399856E-1,-1.272602975E-1
2.267992343E0,1.720748693E-1,-3.768920898E-1,-1.199299321E-1
2.270412343E0,1.513054669E-1,-3.872767985E-1,-1.125995442E-1
2.272831510E0,1.293143332E-1,-3.958289027E-1,-1.028257087E-1
2.275249947E0,1.091558039E-1,-4.062136114E-1,-9.366274625E-2
2.277669114E0,8.716467023E-2,-4.178200364E-1,-8.449976891E-2
2.280089114E0,6.578440219E-2,-4.306482077E-1,-7.472593337E-2
2.282508333E0,4.318241030E-2,-4.434763491E-1,-6.556297094E-2
2.284926718E0,2.241300605E-2,-4.605805576E-1,-5.762172490E-2
2.287345937E0,2.254472580E-3,-4.868477583E-1,-4.784788936E-2
2.289765885E0,-2.279098146E-2,-5.118931532E-1,-3.807405382E-2
2.292185104E0,-4.478210956E-2,-5.222778320E-1,-2.891108207E-2
2.294603489E0,-6.677324325E-2,-5.289973617E-1,-2.524589375E-2
2.297022708E0,-8.754263818E-2,-5.369386077E-1,-2.341330051E-2
2.299442708E0,-1.040359885E-1,-5.424363613E-1,-2.219156921E-2
2.301861875E0,-1.217510626E-1,-5.479341745E-1,-2.219156921E-2
2.304280312E0,-1.370226890E-1,-5.558754206E-1,-2.158070542E-2
2.306699479E0,-1.522943079E-1,-5.595405698E-1,-2.158070542E-2
2.309119479E0,-1.663441956E-1,-5.583188534E-1,-2.280243486E-2
2.311538697E0,-1.779506207E-1,-5.564862490E-1,-2.830021828E-2
2.313957083E0,-1.840592623E-1,-5.473232865E-1,-4.173924029E-2
2.316376302E0,-1.920005083E-1,-5.418255329E-1,-5.273480713E-2
2.318796302E0,-2.005526125E-1,-5.351060033E-1,-5.578913167E-2
2.321215468E0,-2.109373212E-1,-5.430472493E-1,-5.945431814E-2
2.323633906E0,-2.066612542E-1,-5.968033671E-1,-7.778025419E-2
2.326053072E0,-2.036069334E-1,-6.310117841E-1,-1.034365818E-1
2.328473072E0,-2.103264481E-1,-5.754230618E-1,-1.009931192E-1
2.330892291E0,-2.176568210E-1,-5.002866983E-1,-7.411507517E-2
2.333310677E0,-2.225437462E-1,-4.581370950E-1,-5.517826602E-2
2.335729895E0,-2.231546044E-1,-4.398111701E-1,-4.845875502E-2
2.338149843E0,-2.158242315E-1,-4.343133867E-1,-5.334566906E-2
2.340569062E0,-2.048286647E-1,-4.306482077E-1,-5.639999360E-2
2.342987447E0,-1.901679188E-1,-4.159874320E-1,-5.884345248E-2
2.345406666E0,-1.730636954E-1,-3.988832235E-1,-6.250864267E-2
2.347826666E0,-1.584029496E-1,-3.768920898E-1,-6.800641865E-2
2.350245833E0,-1.406878680E-1,-3.512357771E-1,-7.411507517E-2
2.352664270E0,-1.217510626E-1,-3.243577182E-1,-8.449976891E-2
2.355083437E0,-1.015925258E-1,-2.950362265E-1,-9.427360445E-2
2.357503437E0,-8.082313091E-2,-2.644929886E-1,-1.071017608E-1
2.359922656E0,-5.944286287E-2,-2.345605940E-1,-1.199299321E-1
2.362341041E0,-3.684087098E-2,-2.070716769E-1,-1.339798272E-1
2.364760260E0,-1.423887536E-2,-1.856914163E-1,-1.461971104E-1
2.367180208E0,8.973984048E-3,-1.618676931E-1,-1.602469981E-1
2.369599427E0,3.340857476E-2,-1.392657012E-1,-1.749077439E-1
2.372017864E0,5.784316361E-2,-1.191071719E-1,-1.895684898E-1
2.374437031E0,8.533207327E-2,-1.013920903E-1,-2.048401237E-1
2.376857031E0,1.109883934E-1,-8.673134446E-2,-2.182791531E-1
2.379276197E0,1.378664374E-1,-7.329231501E-2,-2.329398990E-1
2.381694635E0,1.641336232E-1,-6.168587878E-2,-2.469897866E-1
2.384113854E0,1.910116673E-1,-5.618810281E-2,-2.604288161E-1
2.386533802E0,2.154462636E-1,-5.496637151E-2,-2.744787037E-1
2.388953020E0,2.386591136E-1,-5.069031939E-2,-2.854742706E-1
2.391371406E0,2.606502473E-1,-5.007945374E-2,-2.958589792E-1
2.393790625E0,2.801979184E-1,-4.824685678E-2,-3.031893373E-1
2.396210625E0,2.966912687E-1,-4.824685678E-2,-3.129631877E-1
2.398629791E0,3.131846189E-1,-4.946858808E-2,-3.202935457E-1
2.401048229E0,3.296779692E-1,-4.824685678E-2,-3.251804709E-1
2.403467395E0,3.400626779E-1,-4.030561820E-2,-3.331217170E-1
2.405887395E0,3.498364985E-1,-3.419696912E-2,-3.410629630E-1
2.408306614E0,3.577777445E-1,-2.625572868E-2,-3.465607464E-1
2.410725000E0,3.657189906E-1,-2.197967656E-2,-3.538911045E-1
2.413144218E0,3.706058860E-1,-1.220584102E-2,-3.581671715E-1
2.415564166E0,3.736602366E-1,-4.264599178E-3,-3.593888879E-1
2.417983385E0,3.773254156E-1,3.676642198E-3,-3.606106341E-1
2.420401822E0,3.803797364E-1,1.100701839E-2,-3.593888879E-1
2.422820989E0,3.877101243E-1,1.772652939E-2,-3.557237089E-1
2.425240989E0,3.925970197E-1,2.627863735E-2,-3.526693881E-1
2.427660208E0,3.987056911E-1,3.177641705E-2,-3.477824628E-1
2.430078593E0,4.048143327E-1,3.238728270E-2,-3.422846794E-1
2.432497812E0,4.121446908E-1,3.360901400E-2,-3.343434334E-1
2.434917760E0,4.194750786E-1,2.872209623E-2,-3.257913291E-1
2.437336979E0,4.274163246E-1,2.200258151E-2,-3.117414415E-1
2.439755416E0,4.316923618E-1,1.161788404E-2,-2.983024418E-1
2.442174583E0,4.384118915E-1,-2.432005014E-3,-2.818090916E-1
2.444594583E0,4.408553541E-1,-1.770362444E-2,-2.622614205E-1
2.447013750E0,4.402444661E-1,-3.175351024E-2,-2.402702868E-1
2.449432187E0,4.384118915E-1,-4.397080466E-2,-2.146139443E-1
2.451851406E0,4.329141080E-1,-5.679896101E-2,-1.877359152E-1
2.454271354E0,4.261945784E-1,-6.657280028E-2,-1.626904607E-1
2.456690572E0,4.188642204E-1,-7.207058370E-2,-1.370341480E-1
2.459108958E0,4.097012281E-1,-7.879009843E-2,-1.107669547E-1
2.461528177E0,4.005382657E-1,-7.940096408E-2,-8.572150022E-2
2.463948177E0,3.889318407E-1,-7.634663582E-2,-6.128691137E-2
2.466367343E0,3.809905946E-1,-7.512491196E-2,-3.746318817E-2
2.468785781E0,3.748819530E-1,-6.901626289E-2,-1.608292386E-2
2.471204947E0,3.687733114E-1,-5.618810281E-2,2.853883430E-3
2.473624947E0,3.644972444E-1,-3.786215559E-2,1.873636618E-2
2.476044166E0,3.571668863E-1,-1.953621767E-2,3.034279495E-2
2.478462552E0,3.522799611E-1,1.145387068E-5,3.889490291E-2
2.480881770E0,3.492256403E-1,2.322431281E-2,4.744700715E-2
2.483301718E0,3.449495733E-1,4.338284954E-2,5.538824573E-2
2.485720937E0,3.425061107E-1,6.903916597E-2,6.332949549E-2
2.488139375E0,3.412843943E-1,9.408462048E-2,7.065986842E-2
2.490558541E0,3.388409317E-1,1.227952540E-1,7.799024135E-2
2.492978541E0,3.376192153E-1,1.472298652E-1,8.409889787E-2
2.495397760E0,3.388409317E-1,1.722753197E-1,8.898580819E-2
2.497816145E0,3.406735361E-1,1.954881698E-1,9.081839770E-2
2.500235364E0,3.431169987E-1,2.144249827E-1,9.081839770E-2
2.502655312E0,3.461713195E-1,2.345835268E-1,9.020753950E-2
2.505074531E0,3.528908193E-1,2.498551309E-1,8.654234558E-2
2.507492968E0,3.577777445E-1,2.681810558E-1,8.104456216E-2
2.509912135E0,3.632755280E-1,2.828418016E-1,7.737938315E-2
2.512332135E0,3.669407070E-1,2.993351519E-1,6.943813711E-2
2.514751302E0,3.724384904E-1,3.127741814E-1,6.394035369E-2
2.517169739E0,3.754928112E-1,3.311001062E-1,5.355565622E-2
2.519588958E0,3.785471320E-1,3.500369191E-1,4.500355199E-2
2.522008906E0,3.828231990E-1,3.671411276E-1,3.645144403E-2
2.524428125E0,3.852666616E-1,3.872996569E-1,2.484501526E-2
2.526846510E0,3.913753033E-1,4.062364697E-1,1.323858276E-2
2.529265729E0,3.950404823E-1,4.300602078E-1,4.104245454E-4
2.531685729E0,3.987056911E-1,4.526621997E-1,-1.180686988E-2
2.534104895E0,3.993165493E-1,4.728207290E-1,-2.463502809E-2
2.536523333E0,4.011491239E-1,4.954227209E-1,-4.112837464E-2
2.538942552E0,4.042034745E-1,5.131378770E-1,-5.273480713E-2
2.541362500E0,4.072577953E-1,5.320746899E-1,-6.678469479E-2
2.543781718E0,4.103121161E-1,5.436810851E-1,-8.022371680E-2
2.546200104E0,4.127555788E-1,5.552875400E-1,-9.244101495E-2
2.548619322E0,4.164207578E-1,5.620070100E-1,-1.040474400E-1
2.551039322E0,4.200859368E-1,5.656722188E-1,-1.138212755E-1
2.553458489E0,4.219185412E-1,5.668939352E-1,-1.229842529E-1
2.555876927E0,4.274163246E-1,5.632287860E-1,-1.315363646E-1
2.558296145E0,4.335249662E-1,5.571201444E-1,-1.358124018E-1
2.560716093E0,4.390227497E-1,5.473462939E-1,-1.400884688E-1
2.563135312E0,4.457422495E-1,5.369615555E-1,-1.425319314E-1
2.565553697E0,4.512400329E-1,5.259660482E-1,-1.431427896E-1
2.567972916E0,4.573487043E-1,5.131378770E-1,-1.431427896E-1
2.570392916E0,4.622355998E-1,5.021422505E-1,-1.425319314E-1
2.572812083E0,4.701768458E-1,4.905357957E-1,-1.406993270E-1
2.575230520E0,4.768963754E-1,4.844271541E-1,-1.382558644E-1
2.577649687E0,4.836158752E-1,4.746533334E-1,-1.345906854E-1
2.580069687E0,4.891136587E-1,4.679338038E-1,-1.303146183E-1
2.582488906E0,4.940005541E-1,4.636577666E-1,-1.260385811E-1
2.584907291E0,4.982766509E-1,4.587708414E-1,-1.223733798E-1
2.587326510E0,5.037744045E-1,4.544947743E-1,-1.180973276E-1
2.589746510E0,5.031635165E-1,4.508295953E-1,-1.144321486E-1
2.592165677E0,5.025526881E-1,4.489969909E-1,-1.125995442E-1
2.594584114E0,5.007200837E-1,4.459426701E-1,-1.089343652E-1
2.597003281E0,4.982766509E-1,4.422774911E-1,-1.064909026E-1
2.599423281E0,4.933897257E-1,4.398340285E-1,-1.058800295E-1
2.601842500E0,4.903354049E-1,4.367797077E-1,-1.022148505E-1
2.604260885E0,4.866701961E-1,4.337253869E-1,-1.003822610E-1
2.606680104E0,4.848375916E-1,4.294493198E-1,-9.671706706E-2
2.609100104E0,4.805615544E-1,4.251732826E-1,-9.732792526E-2
2.611519270E0,4.793398082E-1,4.208972156E-1,-9.427360445E-2
2.613937708E0,4.768963754E-1,4.190646410E-1,-9.427360445E-2
2.616356875E0,4.738420248E-1,4.178428948E-1,-9.549533576E-2
2.618776875E0,4.707877040E-1,4.208972156E-1,-9.305187315E-2
2.621196093E0,4.659008086E-1,4.257841408E-1,-9.183014184E-2
2.623614479E0,4.591812789E-1,4.288384616E-1,-8.938669413E-2
2.626033697E0,4.506291747E-1,4.367797077E-1,-8.999755234E-2
2.628453697E0,4.439096749E-1,4.441100955E-1,-8.938669413E-2
2.630872864E0,4.359684289E-1,4.514404535E-1,-8.816496283E-2
2.633291302E0,4.268054664E-1,4.599925578E-1,-8.816496283E-2
2.635710468E0,4.176424742E-1,4.661012292E-1,-9.244101495E-2
2.638130468E0,4.109229743E-1,4.715990126E-1,-9.366274625E-2
2.640549687E0,4.035925865E-1,4.795402288E-1,-9.732792526E-2
2.642968072E0,3.956513405E-1,4.917575121E-1,-9.977138788E-2
2.645387291E0,3.864883780E-1,5.021422505E-1,-1.040474400E-1
2.647807291E0,3.785471320E-1,5.143595934E-1,-1.077126339E-1
2.650226458E0,3.706058860E-1,5.247442722E-1,-1.113778129E-1
2.652644895E0,3.620537817E-1,5.363507271E-1,-1.150430068E-1
2.655064062E0,3.547234237E-1,5.497897267E-1,-1.180973276E-1
2.657484062E0,3.461713195E-1,5.626178980E-1,-1.211516485E-1
2.659903281E0,3.351757526E-1,5.742243528E-1,-1.260385811E-1
2.662321666E0,3.290671110E-1,5.815547109E-1,-1.272602975E-1
2.664740885E0,3.229584396E-1,5.913285613E-1,-1.315363646E-1
2.667160885E0,3.174606562E-1,5.974372029E-1,-1.327580810E-1
2.669580052E0,3.156280816E-1,6.035458446E-1,-1.345906854E-1
2.671998489E0,3.144063354E-1,6.090435982E-1,-1.370341480E-1
2.674417656E0,3.162389398E-1,6.145414114E-1,-1.388667226E-1
2.676837656E0,3.180715442E-1,6.188174486E-1,-1.394776106E-1
2.679256875E0,3.192932606E-1,6.224826574E-1,-1.400884688E-1
2.681675260E0,3.211258650E-1,6.255369782E-1,-1.406993270E-1
2.684094479E0,3.223475814E-1,6.267586946E-1,-1.394776106E-1
2.686514479E0,3.229584396E-1,6.255369782E-1,-1.394776106E-1
2.688933645E0,3.229584396E-1,6.237043738E-1,-1.388667226E-1
2.691352083E0,3.223475814E-1,6.224826574E-1,-1.382558644E-1
2.693771302E0,3.205150068E-1,6.157631278E-1,-1.376450062E-1
2.696191250E0,3.168497980E-1,6.084327698E-1,-1.352015436E-1
2.698610468E0,3.156280816E-1,6.041567326E-1,-1.339798272E-1
2.701028906E0,3.150172234E-1,5.980480313E-1,-1.327580810E-1
2.703448072E0,3.113520145E-1,5.888850689E-1,-1.333689392E-1
2.705868072E0,3.119629025E-1,5.827764273E-1,-1.339798272E-1
2.708287291E0,3.137954772E-1,5.742243528E-1,-1.333689392E-1
2.710705677E0,3.156280816E-1,5.650613904E-1,-1.339798272E-1
2.713124895E0,3.211258650E-1,5.546766520E-1,-1.339798272E-1
2.715544843E0,3.247910440E-1,5.449028015E-1,-1.345906854E-1
2.717964062E0,3.315105438E-1,5.357398391E-1,-1.358124018E-1
2.720382447E0,3.370083272E-1,5.247442722E-1,-1.364232600E-1
2.722801666E0,3.400626779E-1,5.180248022E-1,-1.352015436E-1
2.725221666E0,3.461713195E-1,5.137487054E-1,-1.333689392E-1
2.727640885E0,3.528908193E-1,5.100835562E-1,-1.327580810E-1
2.730059270E0,3.571668863E-1,5.094726682E-1,-1.315363646E-1
2.732478489E0,3.614429235E-1,5.094726682E-1,-1.278711557E-1
2.734898437E0,3.651081324E-1,5.082509518E-1,-1.248168424E-1
2.737317656E0,3.663298488E-1,5.082509518E-1,-1.235951111E-1
2.739736093E0,3.669407070E-1,5.058074594E-1,-1.193190590E-1
2.742155260E0,3.657189906E-1,5.027530789E-1,-1.156538650E-1
2.744575260E0,3.657189906E-1,4.978661537E-1,-1.138212755E-1
2.746994479E0,3.644972444E-1,4.911466837E-1,-1.077126339E-1
2.749412864E0,3.626646698E-1,4.850380421E-1,-1.022148505E-1
2.751832083E0,3.632755280E-1,4.752641916E-1,-9.793879837E-2
2.754252083E0,3.644972444E-1,4.661012292E-1,-9.244101495E-2
2.756671250E0,3.669407070E-1,4.587708414E-1,-8.755408973E-2
2.759089687E0,3.675515652E-1,4.538839161E-1,-8.205631375E-2
2.761508854E0,3.706058860E-1,4.514404535E-1,-7.472593337E-2
2.763928854E0,3.706058860E-1,4.502187371E-1,-7.044988126E-2
2.766348072E0,3.699950278E-1,4.502187371E-1,-6.311950088E-2
2.768766458E0,3.706058860E-1,4.526621997E-1,-5.762172490E-2
2.771185677E0,3.706058860E-1,4.569382370E-1,-5.090221018E-2
2.773605677E0,3.687733114E-1,4.612143040E-1,-4.540443048E-2
2.776024843E0,3.663298488E-1,4.673229456E-1,-4.112837464E-2
2.778443281E0,3.602212071E-1,4.740424454E-1,-3.624145687E-2
2.780862500E0,3.553342819E-1,4.770967960E-1,-2.952194586E-2
2.783282447E0,3.535016775E-1,4.807619750E-1,-2.646762319E-2
2.785701666E0,3.486147821E-1,4.825945497E-1,-2.035897598E-2
2.788120104E0,3.437278569E-1,4.813728333E-1,-1.425032876E-2
2.790539270E0,3.370083272E-1,4.838162959E-1,-9.363410994E-3
2.792959270E0,3.315105438E-1,4.807619750E-1,-4.476493225E-3
2.795378489E0,3.254019022E-1,4.789293706E-1,1.632153988E-3
2.797796875E0,3.186824024E-1,4.752641916E-1,7.740801200E-3
2.800216093E0,3.137954772E-1,4.758750498E-1,1.507117972E-2
2.802636041E0,3.082976937E-1,4.734315872E-1,2.117982507E-2
2.805055260E0,3.034107685E-1,4.746533334E-1,2.851020172E-2
2.807473697E0,2.973021269E-1,4.734315872E-1,3.400798514E-2
2.809892864E0,2.899717689E-1,4.722098708E-1,4.194922373E-2
2.812312864E0,2.838630974E-1,4.740424454E-1,4.805787280E-2
2.814732083E0,2.789762020E-1,4.740424454E-1,5.172305927E-2
2.817150468E0,2.710349560E-1,4.722098708E-1,5.599911138E-2
2.819569687E0,2.643154263E-1,4.722098708E-1,6.027517468E-2
2.821989687E0,2.588176429E-1,4.734315872E-1,6.271862239E-2
2.824408854E0,2.545416057E-1,4.728207290E-1,6.516208500E-2
2.826827291E0,2.490438223E-1,4.740424454E-1,7.004901022E-2
2.829246458E0,2.459895015E-1,4.746533334E-1,7.371418923E-2
2.831666458E0,2.423243225E-1,4.770967960E-1,7.676851004E-2
2.834085677E0,2.398808599E-1,4.801511168E-1,7.982284576E-2
2.836504062E0,2.325504720E-1,4.838162959E-1,8.348802477E-2
2.838923281E0,2.270526886E-1,4.856488705E-1,8.776407689E-2
2.841343281E0,2.203331739E-1,4.880923629E-1,9.020753950E-2
2.843762447E0,2.148353904E-1,4.887031913E-1,9.448359162E-2
2.846180885E0,2.087267488E-1,4.923684001E-1,9.570532292E-2
2.848600104E0,2.044506967E-1,4.929792881E-1,9.753791243E-2
2.851020052E0,1.995637715E-1,4.929792881E-1,9.814878553E-2
2.853439270E0,1.934551299E-1,4.948118329E-1,9.814878553E-2
2.855857708E0,1.916225404E-1,4.942010045E-1,9.875964373E-2
2.858276875E0,1.904008090E-1,4.990879297E-1,9.570532292E-2
2.860696875E0,1.891790777E-1,5.027530789E-1,9.387273341E-2
2.863116093E0,1.897899508E-1,5.070292354E-1,9.204012901E-2
2.865534479E0,1.916225404E-1,5.119161010E-1,8.776407689E-2
2.867953697E0,1.922333986E-1,5.186356306E-1,8.287716657E-2
2.870373697E0,1.958985925E-1,5.253551602E-1,7.982284576E-2
2.872792864E0,1.989529133E-1,5.308529139E-1,7.432506233E-2
2.875211302E0,2.013963759E-1,5.400159359E-1,6.821640581E-2
2.877630468E0,2.056724280E-1,5.455136895E-1,6.455122679E-2
2.880050468E0,2.093376219E-1,5.522332191E-1,6.027517468E-2
2.882469687E0,2.136136740E-1,5.546766520E-1,5.660997704E-2
2.884888125E0,2.178897262E-1,5.558983684E-1,5.233392492E-2
2.887307291E0,2.209440470E-1,5.571201444E-1,4.805787280E-2
2.889727291E0,2.246092260E-1,5.577309728E-1,4.622527584E-2
2.892146458E0,2.294961512E-1,5.565092564E-1,4.072749615E-2
2.894564895E0,2.337722033E-1,5.552875400E-1,3.767317161E-2
2.896984114E0,2.380482554E-1,5.510115027E-1,3.706230596E-2
2.899404062E0,2.417134345E-1,5.491788983E-1,3.339711949E-2
2.901823281E0,2.466003597E-1,5.442919731E-1,3.034279495E-2
2.904241718E0,2.490438223E-1,5.400159359E-1,2.789933607E-2
2.906660885E0,2.520981431E-1,5.339072347E-1,2.545587718E-2
2.909080885E0,2.551524639E-1,5.277985930E-1,2.117982507E-2
2.911500104E0,2.588176429E-1,5.192465186E-1,1.812550053E-2
2.913918489E0,2.582067847E-1,5.149704814E-1,1.446031407E-2
2.916337708E0,2.563742101E-1,5.131378770E-1,1.323858276E-2
2.918757708E0,2.557633221E-1,5.088617802E-1,1.384944841E-2
2.921176875E0,2.539307475E-1,5.033639669E-1,1.262771711E-2
2.923595312E0,2.520981431E-1,5.015313625E-1,1.140598953E-2
2.926014531E0,2.508764267E-1,4.978661537E-1,1.201685518E-2
2.928434479E0,2.496546805E-1,4.966444373E-1,1.323858276E-2
2.930853697E0,2.472112179E-1,4.966444373E-1,1.384944841E-2
2.933272135E0,2.466003597E-1,4.972553253E-1,1.507117972E-2
2.935691302E0,2.453786433E-1,4.954227209E-1,1.568204165E-2
2.938111302E0,2.435460389E-1,4.911466837E-1,1.384944841E-2
2.940530520E0,2.417134345E-1,4.899249673E-1,1.629290730E-2
2.942948906E0,2.417134345E-1,4.850380421E-1,1.873636618E-2
2.945368125E0,2.429351807E-1,4.807619750E-1,1.934723184E-2
2.947788125E0,2.411025763E-1,4.746533334E-1,2.056895941E-2
2.950207291E0,2.417134345E-1,4.703772664E-1,2.301241830E-2
2.952625729E0,2.441568971E-1,4.679338038E-1,2.606674284E-2
2.955044895E0,2.435460389E-1,4.654903412E-1,2.912106737E-2
2.957464895E0,2.441568971E-1,4.630469084E-1,3.278625384E-2
2.959884114E0,2.478221059E-1,4.624360204E-1,3.522971272E-2
2.962302500E0,2.502655387E-1,4.630469084E-1,3.828403726E-2
2.964721718E0,2.520981431E-1,4.630469084E-1,4.011663049E-2
2.967141718E0,2.539307475E-1,4.618251622E-1,4.194922373E-2
2.969560937E0,2.582067847E-1,4.612143040E-1,4.317095503E-2
2.971979322E0,2.649263144E-1,4.624360204E-1,4.378182068E-2
2.974398541E0,2.679806352E-1,4.642686248E-1,4.500355199E-2
2.976818541E0,2.728675604E-1,4.642686248E-1,4.500355199E-2
2.979237708E0,2.783653140E-1,4.636577666E-1,4.439268634E-2
2.981656145E0,2.856957018E-1,4.606034458E-1,4.194922373E-2
2.984075312E0,2.948586643E-1,4.575491250E-1,3.889490291E-2
2.986495312E0,3.009673357E-1,4.624360204E-1,3.584057838E-2
2.988914531E0,3.046325147E-1,4.734315872E-1,3.889490291E-2
2.991332968E0,3.064651191E-1,4.850380421E-1,4.256008938E-2
2.993752135E0,3.064651191E-1,4.954227209E-1,4.805787280E-2
2.996172135E0,3.052433729E-1,5.015313625E-1,5.294479057E-2
2.998591354E0,3.046325147E-1,5.131378770E-1,5.599911138E-2
3.001009739E0,3.027999103E-1,5.247442722E-1,5.783170834E-2
3.003428958E0,3.009673357E-1,5.387941599E-1,5.966430157E-2
3.005848958E0,3.003564477E-1,5.491788983E-1,6.149689108E-2
3.008268125E0,3.021890521E-1,5.589526892E-1,6.332949549E-2
3.010686562E0,3.040216565E-1,5.668939352E-1,6.943813711E-2
3.013105781E0,3.046325147E-1,5.791112781E-1,7.249245793E-2
3.015525729E0,3.076868355E-1,5.870524645E-1,7.799024135E-2
3.017944947E0,3.076868355E-1,5.956045985E-1,8.287716657E-2
3.020363333E0,3.107411563E-1,6.011023521E-1,8.959668130E-2
3.022782552E0,3.119629025E-1,6.090435982E-1,9.692705423E-2
3.025202552E0,3.137954772E-1,6.157631278E-1,1.042574272E-1
3.027621770E0,3.137954772E-1,6.218717694E-1,1.115878001E-1
3.030040156E0,3.162389398E-1,6.267586946E-1,1.176964566E-1
3.032459375E0,3.168497980E-1,6.322565079E-1,1.256377101E-1
3.034879375E0,3.174606562E-1,6.371433735E-1,1.329680681E-1
3.037298541E0,3.174606562E-1,6.414194703E-1,1.402984560E-1
3.039716979E0,3.168497980E-1,6.438629031E-1,1.482397020E-1
3.042136197E0,3.205150068E-1,6.450846195E-1,1.537374854E-1
3.044556145E0,3.217367232E-1,6.469172239E-1,1.604569852E-1
3.046975364E0,3.235693276E-1,6.493607163E-1,1.653439105E-1
3.049393802E0,3.235693276E-1,6.499715447E-1,1.690090895E-1
3.051812968E0,3.254019022E-1,6.511932611E-1,1.745068729E-1
3.054232968E0,3.266236484E-1,6.511932611E-1,1.818372607E-1
3.056652187E0,3.290671110E-1,6.530258656E-1,1.873350441E-1
3.059070572E0,3.327322900E-1,6.548584700E-1,1.934436858E-1
3.061489791E0,3.351757526E-1,6.585236788E-1,1.989414692E-1
3.063909791E0,3.382300735E-1,6.615779996E-1,2.013849318E-1
3.066328958E0,3.388409317E-1,6.646323204E-1,2.074935734E-1
3.068747395E0,3.425061107E-1,6.682974696E-1,2.129913568E-1
3.071166614E0,3.443387151E-1,6.701300740E-1,2.184891403E-1
3.073586562E0,3.449495733E-1,6.719626784E-1,2.227651775E-1
3.076005781E0,3.480038941E-1,6.725735664E-1,2.276521027E-1
3.078424218E0,3.504473567E-1,6.737952828E-1,2.319281399E-1
3.080843385E0,3.492256403E-1,6.744061708E-1,2.374259233E-1
3.083263385E0,3.498364985E-1,6.774604917E-1,2.423128486E-1
3.085682604E0,3.504473567E-1,6.841799617E-1,2.441454530E-1
3.088100989E0,3.498364985E-1,6.921212077E-1,2.447563112E-1
3.090520208E0,3.486147821E-1,6.945647001E-1,2.484214902E-1
3.092940208E0,3.516691029E-1,6.982298493E-1,2.520866990E-1
3.095359375E0,3.553342819E-1,7.012841702E-1,2.557518780E-1
3.097777812E0,3.596103489E-1,7.067819834E-1,2.557518780E-1
3.100197031E0,3.626646698E-1,7.141123414E-1,2.551410198E-1
3.102616979E0,3.651081324E-1,7.202209830E-1,2.551410198E-1
3.105036197E0,3.693841696E-1,7.257187963E-1,2.569735944E-1
3.107454635E0,3.706058860E-1,7.330491543E-1,2.581953406E-1
3.109873802E0,3.724384904E-1,7.403795123E-1,2.600279152E-1
3.112293802E0,3.754928112E-1,7.458773255E-1,2.624713778E-1
3.114713020E0,3.773254156E-1,7.483207583E-1,2.661365867E-1
3.117131406E0,3.748819530E-1,7.501533628E-1,2.679691613E-1
3.119550625E0,3.754928112E-1,7.556511760E-1,2.704126239E-1
3.121970625E0,3.748819530E-1,7.574837208E-1,2.728560865E-1
3.124389791E0,3.736602366E-1,7.623706460E-1,2.710234821E-1
3.126808229E0,3.699950278E-1,7.635924220E-1,2.740778029E-1
3.129227447E0,3.675515652E-1,7.678684592E-1,2.746886909E-1
3.131647447E0,3.608320653E-1,7.715336084E-1,2.765212655E-1
3.134066614E0,3.541125655E-1,7.727553844E-1,2.789647281E-1
3.136485052E0,3.480038941E-1,7.733662128E-1,2.820190489E-1
3.138904270E0,3.406735361E-1,7.758097053E-1,2.820190489E-1
3.141324218E0,3.308996856E-1,7.794748545E-1,2.844625115E-1
3.143743437E0,3.223475814E-1,7.819183469E-1,2.820190489E-1
3.146161875E0,3.107411563E-1,7.837509513E-1,2.832407951E-1
3.148581041E0,2.985238731E-1,7.892487049E-1,2.887385786E-1
3.151001041E0,2.844739854E-1,7.990225554E-1,2.936254740E-1
3.153420260E0,2.692023516E-1,8.094072342E-1,2.972906828E-1
3.155838645E0,2.569850683E-1,8.167376518E-1,3.009558618E-1
3.158257864E0,2.447677553E-1,8.246788383E-1,2.997341454E-1
3.160677864E0,2.368265241E-1,8.277332187E-1,2.954580784E-1
3.163097031E0,2.276635617E-1,8.313983679E-1,2.930146158E-1
3.165515468E0,2.178897262E-1,8.344526887E-1,2.905711532E-1
3.167934687E0,2.105593383E-1,8.356744051E-1,2.881276906E-1
3.170354687E0,1.995637715E-1,8.350635767E-1,2.869059741E-1
3.172773854E0,1.910116673E-1,8.356744051E-1,2.832407951E-1
3.175192291E0,1.818487048E-1,8.350635767E-1,2.795755863E-1
3.177611510E0,1.739074588E-1,8.368961811E-1,2.759104073E-1
3.180031458E0,1.690205485E-1,8.307875395E-1,2.746886909E-1
3.182450677E0,1.659662127E-1,8.222354054E-1,2.716343701E-1
3.184869062E0,1.623010337E-1,8.155158758E-1,2.698017657E-1
3.187288281E0,1.592467129E-1,8.057420850E-1,2.643039823E-1
3.189708281E0,1.561923772E-1,7.953573465E-1,2.624713778E-1
3.192127500E0,1.531380564E-1,7.904704213E-1,2.588061988E-1
3.194545885E0,1.500837356E-1,7.825291753E-1,2.551410198E-1
3.196965104E0,1.445859522E-1,7.739771008E-1,2.533084154E-1
3.199385104E0,1.378664374E-1,7.672575712E-1,2.502540946E-1
3.201804270E0,1.305360645E-1,7.605381012E-1,2.478106320E-1
3.204222708E0,1.238165498E-1,7.544294000E-1,2.471997738E-1
3.206641927E0,1.164861768E-1,7.483207583E-1,2.453671694E-1
3.209061927E0,1.103775278E-1,7.434338331E-1,2.423128486E-1
3.211481093E0,1.024362892E-1,7.373251915E-1,2.392585278E-1
3.213899531E0,9.754937142E-2,7.293839455E-1,2.368150651E-1
3.216318697E0,9.449504316E-2,7.220535874E-1,2.343716025E-1
3.218738697E0,9.205158800E-2,7.171666622E-1,2.325390279E-1
3.221157916E0,8.960813284E-2,7.128906250E-1,2.300955653E-1
3.223576302E0,8.899726719E-2,7.073928714E-1,2.300955653E-1
3.225995520E0,8.533207327E-2,7.006733418E-1,2.276521027E-1
3.228415520E0,8.411034942E-2,6.951755285E-1,2.270412445E-1
3.230834739E0,8.288861811E-2,6.927320957E-1,2.276521027E-1
3.233253125E0,8.044515550E-2,6.878451705E-1,2.300955653E-1
3.235672343E0,7.800170034E-2,6.835691333E-1,2.319281399E-1
3.238092343E0,7.189305127E-2,6.786822081E-1,2.325390279E-1
3.240511510E0,7.189305127E-2,6.737952828E-1,2.355933487E-1
3.242929947E0,6.944959611E-2,6.719626784E-1,2.380368114E-1
3.245349166E0,6.700613350E-2,6.689083576E-1,2.410911322E-1
3.247769166E0,6.517353654E-2,6.689083576E-1,2.447563112E-1
3.250188333E0,6.517353654E-2,6.664649248E-1,2.471997738E-1
3.252606770E0,6.517353654E-2,6.652431488E-1,2.502540946E-1
3.255025989E0,6.517353654E-2,6.658540368E-1,2.533084154E-1
3.257445937E0,6.517353654E-2,6.670757532E-1,2.539192736E-1
3.259865156E0,6.639526784E-2,6.634106040E-1,2.594170570E-1
3.262283593E0,6.578440219E-2,6.597453952E-1,2.636931241E-1
3.264702760E0,6.456267834E-2,6.579127908E-1,2.679691613E-1
3.267122760E0,6.700613350E-2,6.548584700E-1,2.734669447E-1
3.269541979E0,7.067131996E-2,6.505824327E-1,2.777430117E-1
3.271960364E0,7.250391692E-2,6.450846195E-1,2.820190489E-1
3.274379583E0,7.433651388E-2,6.401976943E-1,2.862951159E-1
3.276799583E0,7.433651388E-2,6.334782243E-1,2.911820412E-1
3.279218802E0,7.250391692E-2,6.298130155E-1,2.960689366E-1
3.281637187E0,7.250391692E-2,6.267586946E-1,3.021776080E-1
3.284056406E0,7.128218561E-2,6.212609410E-1,3.058427870E-1
3.286476406E0,6.944959611E-2,6.169848442E-1,3.088971078E-1
3.288895572E0,6.639526784E-2,6.108762026E-1,3.113405704E-1
3.291314010E0,6.395181268E-2,6.053784490E-1,3.125622869E-1
3.293733229E0,6.211921573E-2,5.968263149E-1,3.137840331E-1
3.296153177E0,6.028662622E-2,5.882742405E-1,3.143948913E-1
3.298572395E0,6.028662622E-2,5.797221065E-1,3.125622869E-1
3.300990833E0,5.906489491E-2,5.699482560E-1,3.082862496E-1
3.303410000E0,5.723229796E-2,5.607852936E-1,3.015667200E-1
3.305830000E0,5.784316361E-2,5.510115027E-1,2.936254740E-1
3.308249218E0,5.967576057E-2,5.430702567E-1,2.850733697E-1
3.310667656E0,5.967576057E-2,5.375724435E-1,2.752995491E-1
3.313086822E0,6.273008138E-2,5.326855183E-1,2.661365867E-1
3.315506822E0,6.273008138E-2,5.265768766E-1,2.551410198E-1
3.317926041E0,6.639526784E-2,5.198573470E-1,2.459780276E-1
3.320344427E0,6.883873045E-2,5.168030262E-1,2.355933487E-1
3.322763645E0,6.944959611E-2,5.113052726E-1,2.270412445E-1
3.325183645E0,6.761699915E-2,5.039748549E-1,2.209326029E-1
3.327602864E0,6.578440219E-2,4.978661537E-1,2.154348195E-1
3.330021250E0,6.211921573E-2,4.905357957E-1,2.123804986E-1
3.332440468E0,5.601056665E-2,4.825945497E-1,2.105478942E-1
3.334860468E0,5.051278323E-2,4.728207290E-1,2.081044316E-1
3.337279635E0,4.501499981E-2,4.630469084E-1,2.050501108E-1
3.339698072E0,4.196067899E-2,4.526621997E-1,2.032175064E-1
3.342117291E0,4.012808204E-2,4.416666329E-1,1.971088648E-1
3.344537239E0,3.768462688E-2,4.312819242E-1,1.940545440E-1
3.346956458E0,3.463030607E-2,4.227298200E-1,1.885567605E-1
3.349374895E0,3.035424650E-2,4.117342532E-1,1.861132979E-1
3.351794062E0,2.729992382E-2,3.982952237E-1,1.824481189E-1
3.354214062E0,2.363473736E-2,3.848562241E-1,1.806155145E-1
3.356633281E0,1.691522636E-2,3.720280528E-1,1.812263727E-1
3.359051718E0,1.080657728E-2,3.610324860E-1,1.824481189E-1
3.361470885E0,3.476202022E-3,3.457608819E-1,1.836698353E-1
3.363890885E0,-4.465039354E-3,3.329327106E-1,1.836698353E-1
3.366310104E0,-1.240628026E-2,3.152176440E-1,1.806155145E-1
3.368728489E0,-1.851492748E-2,2.981134057E-1,1.787829399E-1
3.371147708E0,-2.584530413E-2,2.773440182E-1,1.757285893E-1
3.373567708E0,-3.073222376E-2,2.559637427E-1,1.726742685E-1
3.375986927E0,-3.745173663E-2,2.400813103E-1,1.696199477E-1
3.378405312E0,-4.233865440E-2,2.229770869E-1,1.671764851E-1
3.380824531E0,-4.844729602E-2,2.040402889E-1,1.659547687E-1
3.383244531E0,-5.455594510E-2,1.844926178E-1,1.616787016E-1
3.385663697E0,-6.066459417E-2,1.661666632E-1,1.567918062E-1
3.388082135E0,-6.555151194E-2,1.527276486E-1,1.549592018E-1
3.390501354E0,-5.761027336E-2,1.771622300E-1,1.635113060E-1
3.392921354E0,-3.684087098E-2,1.948773116E-1,1.787829399E-1
3.395340520E0,-4.050605744E-2,1.618906111E-1,1.806155145E-1
3.397758958E0,-5.699940771E-2,1.050801799E-1,1.665656269E-1
3.400178177E0,-7.532534748E-2,6.109792367E-2,1.482397020E-1
3.402598125E0,-9.059696645E-2,3.055468947E-2,1.256377101E-1
3.405017343E0,-9.792733938E-2,1.283961162E-2,1.054791585E-1
3.407435781E0,-1.003708020E-1,5.509235431E-3,9.326186031E-2
3.409854947E0,-1.022033915E-1,1.145387068E-5,8.043370396E-2
3.412274947E0,-1.028142571E-1,1.233183313E-3,7.493592054E-2
3.414694166E0,-1.077011749E-1,1.844048966E-3,7.432506233E-2
3.417112552E0,-1.138098240E-1,4.287507851E-3,7.921197265E-2
3.419531770E0,-1.211401969E-1,9.785288945E-3,8.470975608E-2
3.421951770E0,-1.309140325E-1,1.161788404E-2,9.509444982E-2
3.424370989E0,-1.419095993E-1,1.222874783E-2,1.042574272E-1
3.426789375E0,-1.498508453E-1,-1.210275572E-3,1.201399192E-1
3.429208593E0,-1.657333225E-1,6.120101083E-3,1.366332471E-1
3.431628593E0,-1.791723520E-1,2.566777170E-2,1.457962394E-1
3.434047812E0,-1.810049415E-1,8.492164314E-2,1.580135226E-1
3.436466197E0,-1.584029496E-1,1.209626645E-1,1.903893650E-1
3.438885416E0,-1.596246809E-1,1.362342983E-1,2.282629609E-1
3.441305416E0,-1.657333225E-1,1.417320818E-1,2.643039823E-1
3.443724583E0,-1.920005083E-1,1.264604479E-1,2.777430117E-1
3.446143020E0,-2.268197984E-1,1.044693142E-1,2.649148405E-1
3.448562239E0,-2.536978424E-1,8.553250879E-2,2.417019904E-1
3.450982239E0,-2.714129090E-1,8.369991928E-2,2.203217149E-1
3.453401406E0,-2.824084759E-1,9.103029221E-2,2.056609690E-1
3.455819843E0,-2.866845429E-1,1.081345081E-1,1.958871484E-1
3.458239062E0,-2.915714681E-1,1.240169853E-1,1.946654022E-1
3.460659010E0,-2.964583635E-1,1.441755444E-1,2.001631856E-1
3.463078229E0,-3.019561470E-1,1.686101258E-1,2.074935734E-1
3.465496666E0,-3.111191392E-1,1.930447221E-1,2.160456777E-1
3.467915833E0,-3.208929598E-1,2.119815201E-1,2.276521027E-1
3.470335833E0,-3.318885267E-1,2.260314077E-1,2.374259233E-1
3.472755052E0,-3.428840935E-1,2.339726537E-1,2.478106320E-1
3.475173489E0,-3.526579142E-1,2.413030267E-1,2.539192736E-1
3.477592656E0,-3.648752272E-1,2.431356311E-1,2.581953406E-1
3.480012656E0,-3.667078316E-1,2.358052433E-1,2.759104073E-1
3.482431875E0,-3.557122648E-1,2.626832724E-1,3.235578537E-1
3.484850260E0,-3.514361978E-1,3.030003309E-1,3.724270463E-1
3.487269479E0,-3.654860854E-1,3.078872561E-1,3.993050754E-1
3.489689479E0,-3.801468313E-1,2.938373685E-1,4.096897840E-1
3.492108697E0,-4.003053904E-1,2.614615262E-1,3.993050754E-1
3.494527083E0,-4.204639196E-1,2.168684453E-1,3.620423377E-1
3.496946302E0,-4.320703447E-1,1.808274239E-1,3.009558618E-1
3.499366302E0,-4.314594865E-1,1.576145589E-1,2.410911322E-1
3.501785520E0,-4.198530614E-1,1.484515965E-1,1.952762604E-1
3.504203906E0,-4.070248902E-1,1.453972757E-1,1.641221642E-1
3.506623125E0,-3.948076069E-1,1.411212087E-1,1.476288140E-1
3.509043125E0,-3.874772191E-1,1.362342983E-1,1.384658515E-1
3.511462291E0,-3.868663609E-1,1.282930374E-1,1.341898143E-1
3.513880729E0,-3.917532563E-1,1.179083437E-1,1.335789263E-1
3.516299947E0,-4.015271068E-1,1.081345081E-1,1.341898143E-1
3.518719947E0,-4.119118154E-1,9.958239645E-2,1.299137473E-1
3.521139114E0,-4.259617031E-1,9.591720998E-2,1.213616505E-1
3.523557552E0,-4.369572699E-1,9.225202352E-2,1.103660837E-1
3.525976770E0,-4.479528368E-1,8.858683705E-2,9.753791243E-2
3.528396770E0,-4.613918364E-1,9.041942656E-2,8.654234558E-2
3.530815937E0,-4.699439406E-1,8.492164314E-2,8.898580819E-2
3.533234375E0,-4.821612537E-1,7.636953890E-2,1.250268221E-1
3.535653593E0,-4.986546040E-1,1.270713061E-1,1.537374854E-1
3.538073541E0,-5.072067380E-1,1.637232155E-1,1.855024397E-1
3.540492760E0,-5.322521329E-1,1.661666632E-1,1.946654022E-1
3.542911197E0,-5.609627962E-1,1.411212087E-1,1.879459023E-1
3.545330364E0,-5.908951759E-1,1.026367247E-1,1.683982313E-1
3.547750364E0,-6.189949512E-1,6.659570336E-2,1.299137473E-1
3.550169583E0,-6.403751969E-1,4.155025259E-2,7.371418923E-2
3.552588020E0,-6.544250846E-1,2.627863735E-2,1.812550053E-2
3.555007187E0,-6.635880470E-1,2.750036493E-2,-2.524589375E-2
3.557427187E0,-6.721401811E-1,2.750036493E-2,-5.151307583E-2
3.559846406E0,-6.861900687E-1,3.177641705E-2,-6.617382914E-2
3.562264843E0,-7.032942772E-1,3.849593177E-2,-7.106074691E-2
3.564684010E0,-7.265071273E-1,4.032852873E-2,-7.228247821E-2
3.567104010E0,-7.539960742E-1,4.155025259E-2,-7.289334387E-2
3.569523229E0,-7.820958495E-1,4.521544650E-2,-7.350420207E-2
3.571941666E0,-8.120282292E-1,5.010235682E-2,-7.594766468E-2
3.574360833E0,-8.376845121E-1,5.743273720E-2,-8.083458245E-2
3.576780833E0,-8.627299666E-1,6.354138255E-2,-9.060842544E-2
3.579200052E0,-8.859428167E-1,6.781743467E-2,-1.022148505E-1
3.581618437E0,-9.079339504E-1,7.026088983E-2,-1.119886860E-1
3.584037656E0,-9.287033677E-1,7.148262113E-2,-1.235951111E-1
3.586457656E0,-9.494727850E-1,6.903916597E-2,-1.352015436E-1
3.588876875E0,-9.690204263E-1,6.903916597E-2,-1.468079686E-1
3.591295260E0,-9.861246347E-1,6.537397206E-2,-1.608578563E-1
3.593714479E0,-1.002617955E0,6.109792367E-2,-1.761294901E-1
3.596134479E0,-1.019722104E0,5.254581943E-2,-1.920119524E-1
3.598553645E0,-1.034993768E0,4.643717036E-2,-2.072835863E-1
3.600972083E0,-1.049043655E0,4.093939438E-2,-2.225551903E-1
3.603391302E0,-1.061260939E0,3.421987966E-2,-2.372159362E-1
3.605811302E0,-1.073478222E0,2.994382381E-2,-2.530984581E-1
3.608230468E0,-1.084473848E0,2.444604412E-2,-2.708135247E-1
3.610648906E0,-1.096691132E0,2.078085393E-2,-2.909720540E-1
3.613068125E0,-1.107686639E0,1.406134292E-2,-3.111305833E-1
3.615488125E0,-1.116849661E0,9.785288945E-3,-3.306782544E-1
3.617907291E0,-1.126012564E0,4.898371641E-3,-3.477824628E-1
3.620325729E0,-1.133342981E0,2.454912756E-3,-3.654975593E-1
3.622744947E0,-1.140673399E0,2.454912756E-3,-3.832126260E-1
3.625164947E0,-1.147392869E0,6.223176606E-4,-4.003168344E-1
3.627584114E0,-1.151668906E0,-5.994108506E-4,-4.198645055E-1
3.630002552E0,-1.157166719E0,1.233183313E-3,-4.388013184E-1
3.632421770E0,-1.159610152E0,6.223176606E-4,-4.552946687E-1
3.634841718E0,-1.162664533E0,1.844048966E-3,-4.705662727E-1
3.637260937E0,-1.165107965E0,3.065776546E-3,-4.846161604E-1
3.639679375E0,-1.166940570E0,6.120101083E-3,-4.986660480E-1
3.642098593E0,-1.166940570E0,8.563559502E-3,-5.114942193E-1
3.644518541E0,-1.166940570E0,1.039615273E-2,-5.231006742E-1
3.646937760E0,-1.165718794E0,1.283961162E-2,-5.347070694E-1
3.649356197E0,-1.165107965E0,1.589393616E-2,-5.432592034E-1
3.651775416E0,-1.162053585E0,1.528307050E-2,-5.542547703E-1
3.654195364E0,-1.158388495E0,1.345047727E-2,-5.609742403E-1
3.656614583E0,-1.153501511E0,1.039615273E-2,-5.676937699E-1
3.659033020E0,-1.150447249E0,6.730966736E-3,-5.738024116E-1
3.661452187E0,-1.147392869E0,2.454912756E-3,-5.786893368E-1
3.663872187E0,-1.140673399E0,-4.264599178E-3,-5.854088664E-1
3.666291406E0,-1.137008190E0,-1.403843425E-2,-5.890740156E-1
3.668709843E0,-1.135175586E0,-2.320140600E-2,-5.951826572E-1
3.671129062E0,-1.130288601E0,-3.297523782E-2,-5.976261497E-1
3.673549010E0,-1.127845168E0,-4.274907336E-2,-6.012913585E-1
3.675968229E0,-1.127845168E0,-5.557723716E-2,-6.037347913E-1
3.678386666E0,-1.124790907E0,-6.840539724E-2,-6.037347913E-1
3.680805833E0,-1.121736526E0,-8.245528489E-2,-6.019021869E-1
3.683225833E0,-1.118682265E0,-9.467258304E-2,-6.037347913E-1
3.685645052E0,-1.114406228E0,-1.093333364E-1,-6.012913585E-1
3.688063489E0,-1.111351848E0,-1.233832166E-1,-6.037347913E-1
3.690482656E0,-1.104632378E0,-1.398765594E-1,-6.025130749E-1
3.692902656E0,-1.099134564E0,-1.557590365E-1,-6.012913585E-1
3.695321875E0,-1.093025923E0,-1.698089242E-1,-6.012913585E-1
3.697740260E0,-1.086917281E0,-1.838588119E-1,-6.000695825E-1
3.700159479E0,-1.078365207E0,-1.985195726E-1,-6.000695825E-1
3.702579479E0,-1.068591356E0,-2.101259977E-1,-5.976261497E-1
3.704998697E0,-1.060650110E0,-2.241758853E-1,-5.994587541E-1
3.707417083E0,-1.050876260E0,-2.394475043E-1,-5.994587541E-1
3.709836302E0,-1.038048029E0,-2.577734590E-1,-6.012913585E-1
3.712256302E0,-1.024609089E0,-2.767102718E-1,-6.012913585E-1
3.714675520E0,-1.009948373E0,-2.938145101E-1,-6.012913585E-1
3.717093906E0,-9.965093732E-1,-3.072535098E-1,-6.012913585E-1
3.719513125E0,-9.818485975E-1,-3.237468600E-1,-6.012913585E-1
3.721933125E0,-9.653552175E-1,-3.371858895E-1,-5.970152617E-1
3.724352343E0,-9.513053298E-1,-3.487923145E-1,-5.970152617E-1
3.726770729E0,-9.360337257E-1,-3.603987396E-1,-5.982369781E-1
3.729189947E0,-9.232055545E-1,-3.701725900E-1,-5.982369781E-1
3.731609947E0,-9.115991592E-1,-3.787246943E-1,-5.976261497E-1
3.734029166E0,-9.024361968E-1,-3.860550821E-1,-5.982369781E-1
3.736447552E0,-8.920514584E-1,-3.909419775E-1,-5.994587541E-1
3.738866770E0,-8.841102123E-1,-3.915528655E-1,-5.976261497E-1
3.741286770E0,-8.749472499E-1,-3.933854401E-1,-5.945718288E-1
3.743705989E0,-8.633408546E-1,-4.037701488E-1,-5.909066200E-1
3.746124375E0,-8.492909670E-1,-4.220960736E-1,-5.847979784E-1
3.748543593E0,-8.431823254E-1,-4.172091782E-1,-5.823545456E-1
3.750963593E0,-8.395171165E-1,-4.080461860E-1,-5.829653740E-1
3.753382812E0,-8.370736241E-1,-4.037701488E-1,-5.835762620E-1
3.755801197E0,-8.358519077E-1,-3.976615071E-1,-5.835762620E-1
3.758220416E0,-8.334084749E-1,-3.903311193E-1,-5.817436576E-1
3.760640416E0,-8.297432661E-1,-3.891094029E-1,-5.756350160E-1
3.763059635E0,-8.297432661E-1,-3.897202611E-1,-5.695263743E-1
3.765478020E0,-8.321867585E-1,-3.933854401E-1,-5.634177327E-1
3.767897239E0,-8.358519077E-1,-3.970506191E-1,-5.628068447E-1
3.770317239E0,-8.425714374E-1,-4.031592906E-1,-5.670828819E-1
3.772736458E0,-8.450148702E-1,-4.129331112E-1,-5.689154863E-1
3.775154843E0,-8.486800790E-1,-4.165983200E-1,-5.664720535E-1
3.777574062E0,-8.511235118E-1,-4.227069616E-1,-5.609742403E-1
3.779994062E0,-8.499017954E-1,-4.343133867E-1,-5.518112779E-1
3.782413281E0,-8.480691910E-1,-4.489741325E-1,-5.426483154E-1
3.784831666E0,-8.486800790E-1,-4.618023038E-1,-5.402048826E-1
3.787250885E0,-8.499017954E-1,-4.721869826E-1,-5.408157110E-1
3.789670885E0,-8.480691910E-1,-4.813499749E-1,-5.414265990E-1
3.792090104E0,-8.450148702E-1,-4.886803329E-1,-5.402048826E-1
3.794508489E0,-8.419605494E-1,-5.008975863E-1,-5.395939946E-1
3.796927708E0,-8.358519077E-1,-5.088388324E-1,-5.304310322E-1
3.799347708E0,-8.297432661E-1,-5.112822652E-1,-5.127159357E-1
3.801766927E0,-8.260781169E-1,-5.125040412E-1,-4.925574064E-1
3.804185312E0,-8.236346245E-1,-5.173909068E-1,-4.711771309E-1
3.806604531E0,-8.236346245E-1,-5.186126828E-1,-4.601815939E-1
3.809024531E0,-8.218020201E-1,-5.155583620E-1,-4.546838105E-1
3.811443750E0,-8.205803037E-1,-5.137257576E-1,-4.546838105E-1
3.813862135E0,-8.156933784E-1,-5.106714368E-1,-4.595707059E-1
3.816281354E0,-8.065304160E-1,-5.070062280E-1,-4.754531980E-1
3.818701354E0,-8.022543788E-1,-5.015084743E-1,-4.888922274E-1
3.821120572E0,-7.992000580E-1,-4.868477583E-1,-4.913356900E-1
3.823538958E0,-8.004217744E-1,-4.618023038E-1,-4.840053022E-1
3.825958177E0,-8.040869832E-1,-4.361459613E-1,-4.742314816E-1
3.828378177E0,-8.083630204E-1,-4.056027532E-1,-4.528512061E-1
3.830797395E0,-8.138607740E-1,-3.775029778E-1,-4.271948934E-1
3.833215781E0,-8.175259829E-1,-3.597878814E-1,-3.984842300E-1
3.835635000E0,-8.199694157E-1,-3.561227024E-1,-3.654975593E-1
3.838055000E0,-8.236346245E-1,-3.603987396E-1,-3.441172838E-1
3.840474218E0,-8.297432661E-1,-3.646748066E-1,-3.416738212E-1
3.842892604E0,-8.340193033E-1,-3.671182692E-1,-3.459498882E-1
3.845311822E0,-8.334084749E-1,-3.628422022E-1,-3.502259254E-1
3.847731822E0,-8.285215497E-1,-3.597878814E-1,-3.514476717E-1
3.850151041E0,-8.211911917E-1,-3.689508438E-1,-3.557237089E-1
3.852569427E0,-8.028652072E-1,-3.988832235E-1,-3.844343424E-1
3.854988645E0,-7.882044911E-1,-4.233178198E-1,-4.149775803E-1
3.857408645E0,-7.753763199E-1,-4.202634990E-1,-4.241405725E-1
3.859827864E0,-7.674350739E-1,-3.994940817E-1,-4.155884683E-1
3.862246250E0,-7.594938278E-1,-3.811681569E-1,-3.972625136E-1
3.864665468E0,-7.515525818E-1,-3.622313440E-1,-3.752713799E-1
3.867085468E0,-7.472765446E-1,-3.402402103E-1,-3.447281420E-1
3.869504687E0,-7.423896194E-1,-3.261903226E-1,-3.135740459E-1
3.871923072E0,-7.356700897E-1,-3.225251436E-1,-2.891394496E-1
3.874342291E0,-7.277288437E-1,-3.316881061E-1,-2.695917785E-1
3.876762291E0,-7.155115604E-1,-3.500140607E-1,-2.524875700E-1
3.879181510E0,-7.020725608E-1,-3.683399856E-1,-2.323290408E-1
3.881599895E0,-6.868009567E-1,-3.952180445E-1,-2.085053027E-1
3.884019114E0,-6.758053899E-1,-4.184308946E-1,-1.932336986E-1
3.886439114E0,-6.703075767E-1,-4.367568493E-1,-1.907902360E-1
3.888858333E0,-6.641989350E-1,-4.434763491E-1,-1.907902360E-1
3.891276718E0,-6.580902934E-1,-4.440872073E-1,-1.877359152E-1
3.893695937E0,-6.489273310E-1,-4.428654909E-1,-1.859033108E-1
3.896115937E0,-6.385425925E-1,-4.459198117E-1,-1.901793778E-1
3.898535156E0,-6.318231225E-1,-4.550827742E-1,-1.920119524E-1
3.900953541E0,-6.232709885E-1,-4.850151539E-1,-1.950662732E-1
3.903372760E0,-6.104428172E-1,-5.094497204E-1,-2.133922279E-1
3.905792760E0,-6.061667800E-1,-5.027301908E-1,-2.164465487E-1
3.908211979E0,-6.025015712E-1,-4.654674828E-1,-2.011749446E-1
3.910630364E0,-5.970038176E-1,-4.294264615E-1,-1.791838109E-1
3.913049583E0,-5.933386087E-1,-4.068244696E-1,-1.565818191E-1
3.915469583E0,-5.829539299E-1,-4.001049697E-1,-1.400884688E-1
3.917888802E0,-5.719583631E-1,-3.988832235E-1,-1.297037601E-1
3.920307239E0,-5.597410798E-1,-3.988832235E-1,-1.242059842E-1
3.922726406E0,-5.475237966E-1,-3.988832235E-1,-1.229842529E-1
3.925146406E0,-5.322521329E-1,-3.988832235E-1,-1.211516485E-1
3.927565625E0,-5.151479244E-1,-3.976615071E-1,-1.180973276E-1
3.929984062E0,-4.962111413E-1,-3.927745819E-1,-1.150430068E-1
3.932403229E0,-4.766634703E-1,-3.848333359E-1,-1.138212755E-1
3.934823229E0,-4.571157992E-1,-3.701725900E-1,-1.095452234E-1
3.937242447E0,-4.363463819E-1,-3.567335606E-1,-1.064909026E-1
3.939660885E0,-4.149661362E-1,-3.414619565E-1,-1.113778129E-1
3.942080052E0,-3.941967189E-1,-3.274120688E-1,-1.119886860E-1
3.944500052E0,-3.740381896E-1,-3.151947558E-1,-1.144321486E-1
3.946919270E0,-3.532688022E-1,-3.072535098E-1,-1.174864694E-1
3.949337708E0,-3.355537057E-1,-3.206925392E-1,-1.193190590E-1
3.951756875E0,-3.062322140E-1,-3.414619565E-1,-1.425319314E-1
3.954176875E0,-2.897388637E-1,-3.127512932E-1,-1.480296850E-1
3.956596093E0,-2.750781178E-1,-2.522756755E-1,-1.290929019E-1
3.959014531E0,-2.616390884E-1,-2.064608037E-1,-1.046583131E-1
3.961433697E0,-2.482000589E-1,-1.783610284E-1,-7.961285859E-2
3.963853697E0,-2.329284400E-1,-1.655328721E-1,-6.128691137E-2
3.966272916E0,-2.170459628E-1,-1.600350887E-1,-4.968048260E-2
3.968691354E0,-2.005526125E-1,-1.582024992E-1,-3.990664706E-2
3.971110572E0,-1.828375310E-1,-1.563699096E-1,-3.074367717E-2
3.973530520E0,-1.626790017E-1,-1.557590365E-1,-2.280243486E-2
3.975949739E0,-1.437421888E-1,-1.527047157E-1,-1.302859932E-2
3.978368177E0,-1.223619282E-1,-1.478177905E-1,-2.033034340E-3
3.980787395E0,-1.022033915E-1,-1.404874176E-1,5.908206105E-3
3.983207395E0,-7.960139960E-2,-1.325461864E-1,1.446031407E-2
3.985626562E0,-6.066459417E-2,-1.227723584E-1,2.545587718E-2
3.988045000E0,-4.172778875E-2,-1.166637093E-1,3.645144403E-2
3.990464218E0,-2.340184525E-2,-1.068898737E-1,4.866873845E-2
3.992884218E0,-8.130228147E-3,-9.528344870E-2,6.027517468E-2
3.995303385E0,2.865337301E-3,-8.184441924E-2,7.249245793E-2
3.997721822E0,1.141744293E-2,-7.268144935E-2,8.409889787E-2
4.000141041E0,1.874781959E-2,-6.474021077E-2,9.448359162E-2
4.002561041E0,2.546733059E-2,-5.863155797E-2,9.937051684E-2
4.004980208E0,3.096511215E-2,-5.679896101E-2,9.998137504E-2
4.007398645E0,3.768462688E-2,-5.802069232E-2,1.024248376E-1
4.009817864E0,4.440414160E-2,-5.863155797E-2,1.036465690E-1
4.012237864E0,5.539970100E-2,-5.985328928E-2,1.036465690E-1
4.014657031E0,6.700613350E-2,-6.474021077E-2,1.018139645E-1
4.017075468E0,8.105602115E-2,-6.718366593E-2,1.012031063E-1
4.019494687E0,9.877110273E-2,-7.084885985E-2,9.875964373E-2
4.021914687E0,1.201513708E-1,-7.390318066E-2,9.631618112E-2
4.024333906E0,1.415316314E-1,-8.062269539E-2,9.448359162E-2
4.026752291E0,1.635227650E-1,-8.795306832E-2,9.265100211E-2
4.029171510E0,1.891790777E-1,-8.917479962E-2,8.959668130E-2
4.031591510E0,2.148353904E-1,-8.612047881E-2,8.409889787E-2
4.034010729E0,2.417134345E-1,-7.879009843E-2,7.921197265E-2
4.036429114E0,2.698132098E-1,-7.023799419E-2,7.310333103E-2
4.038848333E0,2.979129851E-1,-6.046415493E-2,7.065986842E-2
4.041268333E0,3.260127902E-1,-5.007945374E-2,6.882727891E-2
4.043687552E0,3.547234237E-1,-3.847302124E-2,6.455122679E-2
4.046105937E0,3.828231990E-1,-2.686659433E-2,5.905343965E-2
4.048525156E0,4.066469073E-1,-1.526016556E-2,5.111219361E-2
4.050945156E0,4.298597872E-1,-1.821140293E-3,4.194922373E-2
4.053364375E0,4.512400329E-1,1.039615273E-2,3.461885080E-2
4.055782760E0,4.738420248E-1,2.200258151E-2,2.545587718E-2
4.058201979E0,4.915571213E-1,3.177641705E-2,1.507117972E-2
4.060621979E0,5.080504417E-1,3.849593177E-2,4.686478525E-3
4.063041197E0,5.245438218E-1,4.888063297E-2,-6.919952109E-3
4.065459635E0,5.385937095E-1,5.743273720E-2,-1.669378765E-2
4.067878802E0,5.520327091E-1,6.537397206E-2,-2.891108207E-2
4.070298802E0,5.648608804E-1,7.148262113E-2,-4.112837464E-2
4.072718020E0,5.782998800E-1,7.942385972E-2,-5.151307583E-2
4.075136458E0,5.886846185E-1,8.858683705E-2,-6.067604944E-2
4.077555677E0,5.990692973E-1,9.347375482E-2,-7.228247821E-2
4.079975625E0,6.112865806E-1,9.408462048E-2,-8.327803761E-2
4.082394843E0,6.222821474E-1,9.286288917E-2,-9.427360445E-2
4.084813281E0,6.357212067E-1,8.980856091E-2,-1.064909026E-1
4.087232500E0,6.467167735E-1,8.614337444E-2,-1.174864694E-1
4.089652447E0,6.558797359E-1,8.247818798E-2,-1.248168424E-1
4.092071666E0,6.650426984E-1,8.186732233E-2,-1.278711557E-1
4.094490104E0,6.717622280E-1,8.369991928E-2,-1.297037601E-1
4.096909322E0,6.821469069E-1,7.514780760E-2,-1.364232600E-1
4.099329322E0,6.913098693E-1,6.659570336E-2,-1.443645060E-1
4.101748489E0,6.949750781E-1,5.376755074E-2,-1.510840356E-1
4.104166927E0,6.968076825E-1,4.093939438E-2,-1.584143937E-1
4.106586145E0,6.974185109E-1,3.116555512E-2,-1.657447815E-1
4.109006145E0,6.961967945E-1,2.016998827E-2,-1.724642813E-1
4.111425364E0,6.925315857E-1,9.785288945E-3,-1.797946692E-1
4.113843750E0,6.882555485E-1,-5.994108506E-4,-1.846815944E-1
4.116262968E0,6.833686233E-1,-1.220584102E-2,-1.907902360E-1
4.118682968E0,6.735947728E-1,-2.381226979E-2,-1.944554150E-1
4.121102187E0,6.662644148E-1,-3.602956608E-2,-2.005640566E-1
4.123520572E0,6.564905643E-1,-4.702512547E-2,-2.066726983E-1
4.125939791E0,6.461058855E-1,-6.290761381E-2,-2.115596235E-1
4.128359791E0,6.332777143E-1,-7.573577762E-2,-2.182791531E-1
4.130779010E0,6.167843938E-1,-7.695750147E-2,-2.164465487E-1
4.133197395E0,6.039562225E-1,-7.879009843E-2,-2.188900113E-1
4.135616614E0,5.935715437E-1,-1.044464186E-1,-2.286638319E-1
4.138036614E0,5.831868052E-1,-1.276592612E-1,-2.408811450E-1
4.140455833E0,5.715804100E-1,-1.472069323E-1,-2.488223910E-1
4.142874270E0,5.611956716E-1,-1.655328721E-1,-2.555418909E-1
4.145293437E0,5.434806347E-1,-1.814153641E-1,-2.592070997E-1
4.147713437E0,5.294307470E-1,-1.979086995E-1,-2.610396743E-1
4.150132656E0,5.166025758E-1,-2.144020498E-1,-2.640940249E-1
4.152551093E0,5.007200837E-1,-2.278410792E-1,-2.671483457E-1
4.154970260E0,4.860593379E-1,-2.425018251E-1,-2.695917785E-1
4.157390260E0,4.707877040E-1,-2.571626008E-1,-2.714243829E-1
4.159809479E0,4.567378163E-1,-2.760994136E-1,-2.720352411E-1
4.162227916E0,4.408553541E-1,-2.944253683E-1,-2.744787037E-1
4.164647135E0,4.231402576E-1,-3.139730394E-1,-2.732569873E-1
4.167067135E0,4.066469073E-1,-3.353532851E-1,-2.720352411E-1
4.169486302E0,3.864883780E-1,-3.542900980E-1,-2.689809203E-1
4.171904739E0,3.651081324E-1,-3.732269108E-1,-2.653157413E-1
4.174323958E0,3.455604613E-1,-3.921637237E-1,-2.634831369E-1
4.176743958E0,3.241801858E-1,-4.196526408E-1,-2.628722787E-1
4.179163125E0,3.003564477E-1,-4.495849907E-1,-2.585962415E-1
4.181581562E0,2.759218812E-1,-4.801282287E-1,-2.543201745E-1
4.184000781E0,2.520981431E-1,-5.131148696E-1,-2.494332492E-1
4.186420781E0,2.264418304E-1,-5.436580777E-1,-2.457680404E-1
4.188840000E0,2.020072341E-1,-5.705361366E-1,-2.414920032E-1
4.191258385E0,1.769617796E-1,-5.974141955E-1,-2.372159362E-1
4.193677604E0,1.555815190E-1,-6.224596500E-1,-2.329398990E-1
4.196097604E0,1.348121166E-1,-6.468942165E-1,-2.298855782E-1
4.198516822E0,1.164861768E-1,-6.688853502E-1,-2.280529737E-1
4.200935208E0,9.754937142E-2,-6.884330511E-1,-2.231660485E-1
4.203354427E0,7.983429730E-2,-7.104241848E-1,-2.195008695E-1
4.205774427E0,6.578440219E-2,-7.318044305E-1,-2.188900113E-1
4.208193645E0,5.723229796E-2,-7.544064522E-1,-2.219443321E-1
4.210612083E0,4.440414160E-2,-7.696780562E-1,-2.195008695E-1
4.213031250E0,3.218684345E-2,-7.794519067E-1,-2.121704817E-1
4.215451250E0,2.058041282E-2,-7.898365855E-1,-2.066726983E-1
4.217870468E0,1.019571349E-2,-8.008321524E-1,-2.017858028E-1
4.220288906E0,-1.889863051E-4,-8.106060028E-1,-1.993423402E-1
4.222708125E0,-8.130228147E-3,-8.222123981E-1,-1.999531984E-1
4.225128072E0,-1.546060480E-2,-8.344297409E-1,-1.987314820E-1
4.227547291E0,-2.340184525E-2,-8.442035317E-1,-1.950662732E-1
4.229965729E0,-2.828876488E-2,-8.558099866E-1,-1.901793778E-1
4.232384947E0,-3.256481886E-2,-8.661946654E-1,-1.895684898E-1
4.234804947E0,-3.561913967E-2,-8.759685159E-1,-1.871250272E-1
4.237224114E0,-3.745173663E-2,-8.832988739E-1,-1.834598482E-1
4.239642552E0,-3.623000532E-2,-8.887966871E-1,-1.804055274E-1
4.242061770E0,-3.439740837E-2,-8.936836123E-1,-1.785729229E-1
4.244481770E0,-3.134308755E-2,-9.016248584E-1,-1.773512065E-1
4.246900989E0,-2.828876488E-2,-9.059008956E-1,-1.718534231E-1
4.249319375E0,-2.340184525E-2,-9.107878208E-1,-1.718534231E-1
4.251738593E0,-2.034752257E-2,-9.138421416E-1,-1.712425649E-1
4.254158593E0,-1.423887536E-2,-9.150638580E-1,-1.681882441E-1
4.256577812E0,-5.075904075E-3,-9.150638580E-1,-1.669664979E-1
4.258996250E0,1.032743137E-3,-9.156747460E-1,-1.639121771E-1
4.261415416E0,1.202830859E-2,-9.156747460E-1,-1.608578563E-1
4.263835416E0,2.302387170E-2,-9.162855744E-1,-1.608578563E-1
4.266254635E0,3.463030607E-2,-9.168964624E-1,-1.571926773E-1
4.268673072E0,4.929105937E-2,-9.193398952E-1,-1.541383564E-1
4.271092239E0,6.334094703E-2,-9.211724997E-1,-1.535274684E-1
4.273512239E0,7.861256599E-2,-9.223942161E-1,-1.498622894E-1
4.275931458E0,9.754937142E-2,-9.230051041E-1,-1.498622894E-1
4.278349895E0,1.146535873E-1,-9.217833877E-1,-1.498622894E-1
4.280769114E0,1.354229897E-1,-9.230051041E-1,-1.468079686E-1
4.283189114E0,1.568032503E-1,-9.266703129E-1,-1.474188268E-1
4.285608281E0,1.800161004E-1,-9.309463501E-1,-1.474188268E-1
4.288026718E0,2.068941593E-1,-9.352223873E-1,-1.486405730E-1
4.290445937E0,2.319396138E-1,-9.376658797E-1,-1.498622894E-1
4.292865937E0,2.582067847E-1,-9.401093125E-1,-1.516948938E-1
4.295285156E0,2.863065600E-1,-9.388875961E-1,-1.541383564E-1
4.297703541E0,3.156280816E-1,-9.364441037E-1,-1.541383564E-1
4.300122760E0,3.467821777E-1,-9.346114993E-1,-1.553600729E-1
4.302542760E0,3.779362738E-1,-9.303354621E-1,-1.559709311E-1
4.304961979E0,4.127555788E-1,-9.211724997E-1,-1.565818191E-1
4.307380416E0,4.451313913E-1,-9.126204252E-1,-1.553600729E-1
4.309799583E0,4.781180918E-1,-9.052900076E-1,-1.541383564E-1
4.312219583E0,5.135482550E-1,-8.942944407E-1,-1.535274684E-1
4.314638802E0,5.465349555E-1,-8.863531947E-1,-1.492514312E-1
4.317057239E0,5.782998800E-1,-8.723033071E-1,-1.443645060E-1
4.319476458E0,6.070105433E-1,-8.533664942E-1,-1.406993270E-1
4.321896406E0,6.320559978E-1,-8.319862485E-1,-1.370341480E-1
4.324315625E0,6.552688479E-1,-8.093842864E-1,-1.339798272E-1
4.326734062E0,6.742056608E-1,-7.873931527E-1,-1.309254766E-1
4.329153281E0,6.900881529E-1,-7.654020190E-1,-1.272602975E-1
4.331573281E0,7.029163241E-1,-7.415782809E-1,-1.242059842E-1
4.333992447E0,7.114683986E-1,-7.147002220E-1,-1.199299321E-1
4.336410885E0,7.175770402E-1,-6.872113347E-1,-1.180973276E-1
4.338830104E0,7.187988162E-1,-6.585006714E-1,-1.168755963E-1
4.341250104E0,7.169662118E-1,-6.267356873E-1,-1.174864694E-1
4.343669322E0,7.133010030E-1,-5.986359119E-1,-1.229842529E-1
4.346087708E0,7.053597569E-1,-5.687035322E-1,-1.290929019E-1
4.348506927E0,6.943641901E-1,-5.363277197E-1,-1.394776106E-1
4.350926927E0,6.815360188E-1,-5.039519072E-1,-1.474188268E-1
4.353346145E0,6.625992656E-1,-4.819608331E-1,-1.590252519E-1
4.355764583E0,6.552688479E-1,-5.180017948E-1,-1.724642813E-1
4.358183750E0,6.369429231E-1,-4.935672581E-1,-1.883467734E-1
4.360603750E0,6.106757522E-1,-4.080461860E-1,-1.907902360E-1
4.363022968E0,5.874629021E-1,-3.310772479E-1,-1.877359152E-1
4.365441406E0,5.630282760E-1,-2.730450928E-1,-1.865141690E-1
4.367860625E0,5.392045379E-1,-2.278410792E-1,-1.840707064E-1
4.370280572E0,5.153808594E-1,-1.905783266E-1,-1.779620647E-1
4.372699791E0,4.915571213E-1,-1.679763347E-1,-1.730751395E-1
4.375118229E0,4.689551294E-1,-1.563699096E-1,-1.681882441E-1
4.377537447E0,4.445205331E-1,-1.545373052E-1,-1.626904607E-1
4.379957447E0,4.170316160E-1,-1.520938575E-1,-1.602469981E-1
4.382376666E0,3.858775198E-1,-2.150129229E-1,-1.675773561E-1
4.384795052E0,3.712167740E-1,-3.078643978E-1,-1.871250272E-1
4.387214270E0,3.150172234E-1,-2.767102718E-1,-1.736860275E-1
4.389634270E0,2.478221059E-1,-2.107368708E-1,-1.266494393E-1
4.392053489E0,1.800161004E-1,-1.856914163E-1,-8.144544810E-2
4.394471875E0,1.164861768E-1,-1.972978413E-1,-5.273480713E-2
4.396891093E0,6.150835007E-2,-2.241758853E-1,-3.501972929E-2
4.399311093E0,1.263917238E-2,-2.467778772E-1,-2.463502809E-2
4.401730312E0,-2.584530413E-2,-2.528865635E-1,-1.180686988E-2
4.404148750E0,-5.761027336E-2,-2.479996234E-1,4.686478525E-3
4.406567916E0,-8.143399656E-2,-2.327279896E-1,2.484501526E-2
4.408987916E0,-9.975993633E-2,-2.052390873E-1,4.378182068E-2
4.411407135E0,-1.144206896E-1,-1.734741181E-1,6.638381630E-2
4.413825572E0,-1.229727939E-1,-1.380439699E-1,8.715321869E-2
4.416244791E0,-1.327466369E-1,-1.093333364E-1,1.054791585E-1
4.418664791E0,-1.412987411E-1,-7.817923278E-2,1.238050982E-1
4.421083958E0,-1.486291140E-1,-5.130118504E-2,1.396875978E-1
4.423502395E0,-1.516834348E-1,-3.419696912E-2,1.555700600E-1
4.425921614E0,-1.504617035E-1,-1.892535202E-2,1.702308059E-1
4.428341614E0,-1.449639201E-1,-5.486328620E-3,1.824481189E-1
4.430760833E0,-1.345792264E-1,8.563559502E-3,1.903893650E-1
4.433179218E0,-1.168641448E-1,2.078085393E-2,1.995523274E-1
4.435598437E0,-9.426215291E-2,3.360901400E-2,2.062718272E-1
4.438018437E0,-6.371891499E-2,4.277198389E-2,2.099370360E-1
4.440437656E0,-2.645616978E-2,5.010235682E-2,2.142130733E-1
4.442856093E0,1.386090182E-2,5.621100590E-2,2.160456777E-1
4.445275260E0,5.784316361E-2,5.987619236E-2,2.154348195E-1
4.447695260E0,1.048797444E-1,6.842830032E-2,2.136022151E-1
4.450114479E0,1.549706608E-1,7.331521809E-2,2.123804986E-1
4.452532916E0,2.044506967E-1,8.003472537E-2,2.111587524E-1
4.454952135E0,2.545416057E-1,8.736510575E-2,2.074935734E-1
4.457372135E0,3.040216565E-1,9.836067259E-2,2.013849318E-1
4.459791302E0,3.516691029E-1,1.105779707E-1,1.952762604E-1
4.462209739E0,3.974839449E-1,1.227952540E-1,1.891676188E-1
4.464628958E0,4.402444661E-1,1.337908357E-1,1.812263727E-1
4.467048958E0,4.799506962E-1,1.435646713E-1,1.696199477E-1
4.469468177E0,5.190460086E-1,1.545602381E-1,1.567918062E-1
4.471886562E0,5.502001047E-1,1.649449468E-1,1.433527768E-1
4.474305781E0,5.746347308E-1,1.753296405E-1,1.262485683E-1
4.476725781E0,5.917389393E-1,1.857143342E-1,1.067008898E-1
4.479145000E0,6.033453345E-1,1.948773116E-1,8.409889787E-2
4.481563437E0,6.100648642E-1,2.070946097E-1,6.210776418E-2
4.483982604E0,6.112865806E-1,2.162575722E-1,3.950576857E-2
4.486402604E0,6.076214314E-1,2.211444974E-1,1.568204165E-2
4.488821822E0,5.972366929E-1,2.284748703E-1,-6.309087388E-3
4.491240260E0,5.837976933E-1,2.333617806E-1,-2.952194586E-2
4.493659479E0,5.660825968E-1,2.358052433E-1,-4.845875502E-2
4.496079479E0,5.495892763E-1,2.394704223E-1,-6.678469479E-2
4.498498645E0,5.306524634E-1,2.388595641E-1,-8.327803761E-2
4.500917083E0,5.135482550E-1,2.388595641E-1,-9.488447756E-2
4.503336302E0,4.970548749E-1,2.333617806E-1,-1.046583131E-1
4.505756302E0,4.817832708E-1,2.235879600E-1,-1.119886860E-1
4.508175520E0,4.707877040E-1,2.132032514E-1,-1.150430068E-1
4.510593906E0,4.634573460E-1,1.997642219E-1,-1.156538650E-1
4.513013125E0,4.597921371E-1,1.832708865E-1,-1.125995442E-1
4.515433125E0,4.561269581E-1,1.643340737E-1,-1.058800295E-1
4.517852343E0,4.591812789E-1,1.398994923E-1,-9.488447756E-2
4.520270781E0,4.622355998E-1,1.130214185E-1,-8.449976891E-2
4.522690000E0,4.665116668E-1,8.064559102E-2,-6.983902305E-2
4.525109947E0,4.744529128E-1,4.888063297E-2,-5.273480713E-2
4.527529166E0,4.793398082E-1,1.772652939E-2,-3.379800171E-2
4.529947604E0,4.854484797E-1,-1.159497537E-2,-1.425032876E-2
4.532366822E0,4.885028005E-1,-4.397080466E-2,7.740801200E-3
4.534786822E0,4.927788377E-1,-7.512491196E-2,2.973193303E-2
4.537206041E0,4.933897257E-1,-1.050572842E-1,5.111219361E-2
4.539624427E0,4.933897257E-1,-1.282701343E-1,7.371418923E-2
4.542043645E0,4.891136587E-1,-1.508721262E-1,9.570532292E-2
4.544463645E0,4.823941588E-1,-1.716415286E-1,1.164747253E-1
4.546882864E0,4.768963754E-1,-1.881348640E-1,1.390767097E-1
4.549301302E0,4.701768458E-1,-2.009630352E-1,1.598461270E-1
4.551720468E0,4.634573460E-1,-2.082934082E-1,1.775611937E-1
4.554140468E0,4.567378163E-1,-2.113477290E-1,1.958871484E-1
4.556559687E0,4.481857121E-1,-2.113477290E-1,2.111587524E-1
4.558978125E0,4.396336079E-1,-2.064608037E-1,2.276521027E-1
4.561397343E0,4.298597872E-1,-1.972978413E-1,2.410911322E-1
4.563817343E0,4.206967950E-1,-1.838588119E-1,2.563627362E-1
4.566236510E0,4.097012281E-1,-1.673654616E-1,2.698017657E-1
4.568654947E0,3.974839449E-1,-1.478177905E-1,2.814081907E-1
4.571074166E0,3.877101243E-1,-1.270484030E-1,2.930146158E-1
4.573494166E0,3.773254156E-1,-1.050572842E-1,3.021776080E-1
4.575913385E0,3.687733114E-1,-8.001182973E-2,3.076753616E-1
4.578331822E0,3.608320653E-1,-5.069031939E-2,3.119514287E-1
4.580750989E0,3.522799611E-1,-1.526016556E-2,3.143948913E-1
4.583170989E0,3.480038941E-1,1.772652939E-2,3.168383539E-1
4.585590208E0,3.394517899E-1,5.682187155E-2,3.180600703E-1
4.588008645E0,3.357866108E-1,9.408462048E-2,3.162274957E-1
4.590427864E0,3.345648944E-1,1.258495897E-1,3.143948913E-1
4.592847812E0,3.370083272E-1,1.563928276E-1,3.095079660E-1
4.595267031E0,3.376192153E-1,1.869360656E-1,3.021776080E-1
4.597685468E0,3.400626779E-1,2.174793035E-1,2.899602950E-1
4.600104687E0,3.437278569E-1,2.486334145E-1,2.765212655E-1
4.602524687E0,3.461713195E-1,2.791766226E-1,2.606388032E-1
4.604943906E0,3.486147821E-1,3.097198606E-1,2.429237068E-1
4.607362291E0,3.504473567E-1,3.408739567E-1,2.215434611E-1
4.609781510E0,3.516691029E-1,3.720280528E-1,1.989414692E-1
4.612201510E0,3.528908193E-1,4.013495445E-1,1.732851565E-1
4.614620729E0,3.516691029E-1,4.337253869E-1,1.506831348E-1
4.617039166E0,3.528908193E-1,4.624360204E-1,1.238050982E-1
4.619458333E0,3.528908193E-1,4.893140793E-1,9.631618112E-2
4.621878333E0,3.553342819E-1,5.161921978E-1,7.065986842E-2
4.624297552E0,3.577777445E-1,5.467354059E-1,4.439268634E-2
4.626715989E0,3.608320653E-1,5.785003901E-1,1.629290730E-2
4.629135208E0,3.669407070E-1,6.029349566E-1,-8.752546273E-3
4.631555208E0,3.736602366E-1,6.255369782E-1,-3.379800171E-2
4.633974427E0,3.834340572E-1,6.481389403E-1,-5.517826602E-2
4.636392812E0,3.883209825E-1,6.701300740E-1,-7.411507517E-2
4.638812031E0,3.962622285E-1,6.921212077E-1,-9.183014184E-2
4.641232031E0,4.017600119E-1,7.110580206E-1,-1.058800295E-1
4.643651250E0,4.060360491E-1,7.330491543E-1,-1.174864694E-1
4.646069687E0,4.084795117E-1,7.495425344E-1,-1.278711557E-1
4.648488854E0,4.078686535E-1,7.660358548E-1,-1.382558644E-1
4.650908854E0,4.042034745E-1,7.764205337E-1,-1.419210434E-1
4.653328072E0,3.987056911E-1,7.800857425E-1,-1.443645060E-1
4.655746510E0,3.907644451E-1,7.794748545E-1,-1.455862522E-1
4.658165729E0,3.834340572E-1,7.819183469E-1,-1.461971104E-1
4.660585729E0,3.773254156E-1,7.782531381E-1,-1.455862522E-1
4.663004947E0,3.681624532E-1,7.745879889E-1,-1.437536478E-1
4.665423333E0,3.596103489E-1,7.697010636E-1,-1.406993270E-1
4.667842552E0,3.504473567E-1,7.678684592E-1,-1.388667226E-1
4.670262552E0,3.394517899E-1,7.678684592E-1,-1.352015436E-1
4.672681770E0,3.290671110E-1,7.727553844E-1,-1.315363646E-1
4.675100208E0,3.186824024E-1,7.758097053E-1,-1.248168424E-1
4.677519375E0,3.144063354E-1,7.739771008E-1,-1.162647381E-1
4.679939375E0,3.150172234E-1,7.660358548E-1,-1.083234921E-1
4.682358593E0,3.168497980E-1,7.556511760E-1,-9.977138788E-2
4.684777031E0,3.241801858E-1,7.428230047E-1,-8.755408973E-2
4.687196250E0,3.290671110E-1,7.324382663E-1,-7.716939598E-2
4.689616250E0,3.327322900E-1,7.263296247E-1,-6.800641865E-2
4.692035468E0,3.345648944E-1,7.257187963E-1,-6.128691137E-2
4.694453854E0,3.357866108E-1,7.281622291E-1,-5.334566906E-2
4.696873072E0,3.339540064E-1,7.306057215E-1,-4.845875502E-2
4.699293072E0,3.327322900E-1,7.361034751E-1,-4.173924029E-2
4.701712291E0,3.302888274E-1,7.422121167E-1,-3.868491948E-2
4.704130729E0,3.266236484E-1,7.452664375E-1,-3.440886363E-2
4.706549895E0,3.235693276E-1,7.489316463E-1,-3.379800171E-2
4.708969895E0,3.217367232E-1,7.525968552E-1,-3.074367717E-2
4.711389114E0,3.180715442E-1,7.611489296E-1,-3.196540475E-2
4.713807552E0,3.180715442E-1,7.666467428E-1,-3.440886363E-2
4.716226770E0,3.192932606E-1,7.739771008E-1,-3.379800171E-2
4.718646770E0,3.211258650E-1,7.806966305E-1,-3.746318817E-2
4.721065989E0,3.260127902E-1,7.880269885E-1,-3.990664706E-2
4.723484375E0,3.315105438E-1,7.965790629E-1,-4.479356483E-2
4.725903593E0,3.376192153E-1,8.045203090E-1,-4.968048260E-2
4.728323593E0,3.425061107E-1,8.112398386E-1,-5.334566906E-2
4.730742812E0,3.473930359E-1,8.191810846E-1,-5.639999360E-2
4.733161250E0,3.504473567E-1,8.277332187E-1,-6.189777702E-2
4.735580416E0,3.541125655E-1,8.344526887E-1,-6.556297094E-2
4.738000416E0,3.553342819E-1,8.423939347E-1,-6.983902305E-2
4.740419635E0,3.571668863E-1,8.485025764E-1,-7.350420207E-2
4.742838072E0,3.559451401E-1,8.546112180E-1,-7.900198549E-2
4.745257291E0,3.541125655E-1,8.570547104E-1,-8.083458245E-2
4.747677291E0,3.504473567E-1,8.594981432E-1,-8.266717941E-2
4.750096510E0,3.455604613E-1,8.613307476E-1,-8.266717941E-2
4.752514895E0,3.394517899E-1,8.582764268E-1,-8.816496283E-2
4.754934114E0,3.321214318E-1,8.558329940E-1,-8.755408973E-2
4.757354114E0,3.241801858E-1,8.576655388E-1,-8.022371680E-2
4.759773333E0,3.174606562E-1,8.582764268E-1,-7.350420207E-2
4.762191770E0,3.095194399E-1,8.570547104E-1,-6.495210528E-2
4.764610989E0,3.034107685E-1,8.546112180E-1,-6.006518379E-2
4.767030937E0,2.960804105E-1,8.509460688E-1,-5.334566906E-2
4.769450156E0,2.863065600E-1,8.448374271E-1,-4.601529241E-2
4.771868593E0,2.783653140E-1,8.405613303E-1,-3.868491948E-2
4.774287812E0,2.679806352E-1,8.344526887E-1,-3.196540475E-2
4.776707812E0,2.563742101E-1,8.265114427E-1,-2.707848698E-2
4.779127031E0,2.447677553E-1,8.179593682E-1,-1.974811032E-2
4.781545416E0,2.337722033E-1,8.087964058E-1,-1.241773460E-2
4.783964635E0,2.221657783E-1,7.996334434E-1,-5.698222667E-3
4.786384635E0,2.105593383E-1,7.904704213E-1,2.853883430E-3
4.788803854E0,2.001746446E-1,7.813074589E-1,1.079512388E-2
4.791222291E0,1.910116673E-1,7.715336084E-1,1.690377295E-2
4.793641510E0,1.787943840E-1,7.623706460E-1,2.362328395E-2
4.796061510E0,1.690205485E-1,7.519859672E-1,3.095366061E-2
4.798480677E0,1.604684293E-1,7.434338331E-1,3.828403726E-2
4.800899114E0,1.500837356E-1,7.361034751E-1,4.256008938E-2
4.803318333E0,1.415316314E-1,7.214427590E-1,3.767317161E-2
4.805738333E0,1.287034750E-1,7.092254162E-1,2.912106737E-2
4.808157552E0,1.213730872E-1,7.086145878E-1,3.828403726E-2
4.810575937E0,1.183187664E-1,7.122797370E-1,5.233392492E-2
4.812995156E0,1.158753186E-1,7.122797370E-1,6.577294320E-2
