"Time (s)","Gyroscope x (rad/s)","Gyroscope y (rad/s)","Gyroscope z (rad/s)"
9.071067700E-2,-1.700706929E-1,-5.428460613E-2,1.076878086E-1
9.561395800E-2,-1.694598347E-1,-4.512163624E-2,1.070769429E-1
1.005172390E-1,-1.670163721E-1,-3.901299089E-2,1.058552116E-1
1.054205210E-1,-1.621294469E-1,-3.473693505E-2,1.015791595E-1
1.103238020E-1,-1.547990739E-1,-3.168261051E-2,9.852483869E-2
1.152270830E-1,-1.486904323E-1,-3.290434182E-2,9.363792092E-2
1.201303640E-1,-1.438035071E-1,-4.145644605E-2,8.875100315E-2
1.250336460E-1,-1.407491863E-1,-5.672806501E-2,8.386408538E-2
1.299369270E-1,-1.383057237E-1,-7.933005691E-2,7.714457065E-2
1.348402080E-1,-1.383057237E-1,-1.055972427E-1,6.553814560E-2
1.397434890E-1,-1.431926489E-1,-1.355296224E-1,4.537960514E-2
1.446467710E-1,-1.493012905E-1,-1.746249646E-1,2.216674760E-2
1.495500520E-1,-1.578533947E-1,-2.271593213E-1,-3.489570692E-3
1.544533330E-1,-1.688489616E-1,-2.925218642E-1,-2.792415954E-2
1.593566140E-1,-1.816771179E-1,-3.664364815E-1,-5.052615702E-2
1.642598960E-1,-1.993921995E-1,-4.446271658E-1,-7.251728326E-2
1.691631770E-1,-2.189398706E-1,-5.203743577E-1,-9.206495434E-2
1.740664580E-1,-2.458179146E-1,-5.906237960E-1,-1.103908941E-1
1.789697390E-1,-2.794154584E-1,-6.529320478E-1,-1.256625056E-1
1.838730210E-1,-3.191216588E-1,-7.109641433E-1,-1.391015351E-1
1.887763020E-1,-3.600496054E-1,-7.677745819E-1,-1.513188332E-1
1.936795830E-1,-3.948689103E-1,-8.166437745E-1,-1.568166167E-1
1.985828640E-1,-4.223577976E-1,-8.612368703E-1,-1.555948853E-1
2.034861460E-1,-4.412946105E-1,-8.942235708E-1,-1.500971019E-1
2.083894270E-1,-4.553444982E-1,-9.162147045E-1,-1.360472143E-1
2.132927080E-1,-4.602314234E-1,-9.247668386E-1,-1.134452224E-1
2.181959890E-1,-4.583988190E-1,-9.290428758E-1,-8.656717092E-2
2.230992710E-1,-4.492358565E-1,-9.290428758E-1,-5.541307479E-2
2.280025520E-1,-4.315207899E-1,-9.265994430E-1,-2.120464668E-2
2.329058330E-1,-4.076970518E-1,-9.186581969E-1,1.300377678E-2
2.378091140E-1,-3.789864182E-1,-9.021648169E-1,4.721219838E-2
2.427123960E-1,-3.453888595E-1,-8.795628548E-1,8.019889146E-2
2.476156770E-1,-3.075152338E-1,-8.490195870E-1,1.144073233E-1
2.525189580E-1,-2.769719958E-1,-8.025938869E-1,1.455614269E-1
2.574222390E-1,-2.519265711E-1,-7.433400154E-1,1.724394709E-1
2.623255210E-1,-2.311571687E-1,-6.743122935E-1,1.944306046E-1
2.672288020E-1,-2.164964080E-1,-6.071171761E-1,2.109239548E-1
2.721320830E-1,-2.048899829E-1,-5.441980958E-1,2.206977904E-1
2.770353640E-1,-1.951161474E-1,-4.800573289E-1,2.231412530E-1
2.819386460E-1,-1.865640432E-1,-4.165273905E-1,2.194760591E-1
2.868419270E-1,-1.816771179E-1,-3.566626608E-1,2.097022235E-1
2.917452080E-1,-1.816771179E-1,-2.937435806E-1,1.944306046E-1
2.966484890E-1,-1.859531850E-1,-2.326571047E-1,1.754937917E-1
3.015517710E-1,-1.926726848E-1,-1.727923602E-1,1.516700685E-1
3.064550520E-1,-2.012247890E-1,-1.117058918E-1,1.278463453E-1
3.113583330E-1,-2.134420872E-1,-4.939768836E-2,1.040226221E-1
3.162616140E-1,-2.311571687E-1,1.840829477E-2,8.142062277E-2
3.211648960E-1,-2.610895336E-1,9.110119939E-2,6.431641430E-2
3.260681770E-1,-2.983522713E-1,1.595180482E-1,4.965566099E-2
3.309714580E-1,-3.398910761E-1,2.199936509E-1,3.499490768E-2
3.358747390E-1,-3.844842017E-1,2.719171345E-1,2.033415437E-2
3.407780210E-1,-4.351859689E-1,3.226189017E-1,-4.352470860E-4
3.456813020E-1,-4.926072657E-1,3.745424151E-1,-3.403280675E-2
3.505845830E-1,-5.604132414E-1,4.215790033E-1,-6.274344772E-2
3.554826560E-1,-6.355496049E-1,4.625069201E-1,-8.778890222E-2
3.603231770E-1,-6.996904016E-1,5.095435381E-1,-9.634100646E-2
3.651644790E-1,-7.100751400E-1,5.889559388E-1,-6.335431337E-2
3.700049480E-1,-6.935817599E-1,6.500424147E-1,1.300377678E-2
3.748446870E-1,-6.575407386E-1,5.529149175E-1,1.443396956E-1
3.796851560E-1,-5.891239047E-1,2.829127014E-1,3.221013248E-1
3.845264580E-1,-5.298700333E-1,-9.080618620E-3,5.194106102E-1
3.893669790E-1,-5.207070708E-1,-2.161637545E-1,7.014483213E-1
3.942066660E-1,-5.109332204E-1,-1.605750620E-1,8.352276683E-1
3.990471870E-1,-4.131948352E-1,1.381377727E-1,8.541644812E-1
4.038884370E-1,-3.985340893E-1,1.851743609E-1,8.230103850E-1
4.087289580E-1,-5.555263758E-1,-4.634336382E-2,8.022409678E-1
4.135686980E-1,-7.210707068E-1,-2.308245152E-1,7.539826632E-1
4.184091660E-1,-8.646239042E-1,-2.931327224E-1,6.574660540E-1
4.232504680E-1,-1.003290176E0,-2.882457972E-1,5.572842360E-1
4.280909890E-1,-1.100417733E0,-2.668655515E-1,4.656545222E-1
4.329306770E-1,-1.130349994E0,-2.638112307E-1,3.783008754E-1
4.377711980E-1,-1.101639390E0,-2.955761850E-1,2.952232659E-1
4.426125000E-1,-1.025892138E0,-3.193999231E-1,2.219195217E-1
4.474529680E-1,-9.110496044E-1,-2.326571047E-1,1.565569937E-1
4.522927080E-1,-7.583334446E-1,-2.068704739E-2,1.058552116E-1
4.571331770E-1,-5.879021883E-1,1.460790187E-1,8.752927184E-2
4.619744790E-1,-4.260230064E-1,2.328218073E-1,1.327332705E-1
4.668150000E-1,-2.800263166E-1,3.568273485E-1,2.530736029E-1
4.716546870E-1,-1.438035071E-1,5.187065005E-1,4.326678216E-1
4.764952080E-1,-1.979796961E-2,6.378251314E-1,6.391401291E-1
4.813365100E-1,1.029858440E-1,6.708118320E-1,8.541644812E-1
4.861769790E-1,2.379869372E-1,6.048384309E-1,1.066134572E0
4.910167180E-1,3.626033664E-1,4.399049282E-1,1.293376327E0
4.958571870E-1,4.401831627E-1,2.096089572E-1,1.557880759E0
5.006984890E-1,4.841654301E-1,-2.251964062E-2,1.810167789E0
5.055390100E-1,5.043239594E-1,-1.605750620E-1,2.023359537E0
5.103786980E-1,4.914958179E-1,-2.961870432E-1,2.193180084E0
5.152192180E-1,4.524004757E-1,-5.160983205E-1,2.317796469E0
5.200605210E-1,3.852053583E-1,-7.402856946E-1,2.376439333E0
5.249009890E-1,3.002951443E-1,-9.333189130E-1,2.372163296E0
5.297407290E-1,2.147740722E-1,-1.114745736E0,2.314742088E0
5.345812500E-1,1.378051192E-1,-1.283344388E0,2.210895061E0
5.394225000E-1,7.977297902E-2,-1.429951906E0,2.076504946E0
5.442630210E-1,4.800801352E-2,-1.562509537E0,1.914014816E0
5.491027080E-1,4.678628221E-2,-1.688347697E0,1.728312016E0
5.539432290E-1,6.938828528E-2,-1.780588269E0,1.532224417E0
5.587845310E-1,9.565545619E-2,-1.813575029E0,1.337969422E0
5.636250000E-1,1.145922691E-1,-1.803801179E0,1.157153487E0
5.684647390E-1,1.213117689E-1,-1.776312232E0,9.989394546E-1
5.733052600E-1,1.152031273E-1,-1.752488494E0,8.682143688E-1
5.781465100E-1,9.932065010E-2,-1.745158195E0,7.643674016E-1
5.829870310E-1,7.671865821E-2,-1.753099442E0,6.892310381E-1
5.878267710E-1,4.312109575E-2,-1.763484120E0,6.391401291E-1
5.926672390E-1,9.714299813E-4,-1.768370986E0,6.177598238E-1
5.975085410E-1,-4.545428976E-2,-1.766538382E0,6.250902414E-1
6.023490620E-1,-8.943654597E-2,-1.748212457E0,6.562443376E-1
6.071887500E-1,-1.236449778E-1,-1.715225816E0,7.008374333E-1
6.120292710E-1,-1.413600594E-1,-1.688958645E0,7.527609468E-1
6.168705730E-1,-1.401383281E-1,-1.683460832E0,8.022409678E-1
6.217110410E-1,-1.193689257E-1,-1.693845510E0,8.443906307E-1
6.265507810E-1,-7.599753141E-2,-1.706062794E0,8.755447268E-1
6.313913020E-1,-1.552191749E-2,-1.709117174E0,8.957033157E-1
6.362325520E-1,5.656011775E-2,-1.707895398E0,9.060879946E-1
6.410730730E-1,1.384159923E-1,-1.705451965E0,9.024227858E-1
6.459128120E-1,2.306565642E-1,-1.703619361E0,8.847077489E-1
6.507532810E-1,3.308383822E-1,-1.709728003E0,8.529427648E-1
6.555945830E-1,4.352962673E-1,-1.717669249E0,8.071278930E-1
6.604351040E-1,5.379214883E-1,-1.720723510E0,7.472631335E-1
6.652747910E-1,6.356598735E-1,-1.710949659E0,6.788462996E-1
6.701153120E-1,7.297330499E-1,-1.687126040E0,6.165381074E-1
6.749566140E-1,8.189193010E-1,-1.659026265E0,5.774427652E-1
6.797970830E-1,8.977208138E-1,-1.640089393E0,5.627819896E-1
6.846368230E-1,9.649159312E-1,-1.627872109E0,5.725558400E-1
6.894773430E-1,1.016839385E0,-1.607713580E0,6.061534286E-1
6.943185930E-1,1.063265204E0,-1.581446409E0,6.568551660E-1
6.991591140E-1,1.109079957E0,-1.552124858E0,7.148873210E-1
7.039988540E-1,1.153062224E0,-1.509975195E0,7.753629684E-1
7.088393230E-1,1.190935850E0,-1.444612741E0,8.376711607E-1
7.136806250E-1,1.214148760E0,-1.360313416E0,9.012010694E-1
7.185211460E-1,1.233085513E0,-1.274792314E0,9.561789036E-1
7.233608330E-1,1.244691968E0,-1.189271212E0,1.003826380E0
7.282013540E-1,1.245913744E0,-1.098863244E0,1.041700006E0
7.330426560E-1,1.237972498E0,-1.004179239E0,1.072854161E0
7.378831770E-1,1.222700834E0,-9.064408541E-1,1.093012691E0
7.427228640E-1,1.202542305E0,-8.087025285E-1,1.095456123E0
7.475633850E-1,1.184216380E0,-7.054663897E-1,1.084460497E0
7.524046870E-1,1.167723060E0,-5.948998928E-1,1.063080311E0
7.572451560E-1,1.156116605E0,-4.825007915E-1,1.039256573E0
7.620848960E-1,1.143899322E0,-3.804863691E-1,1.012989402E0
7.669254160E-1,1.134125471E0,-3.053500354E-1,9.830569625E-1
7.717666660E-1,1.131071091E0,-2.558699846E-1,9.476267695E-1
7.766071870E-1,1.123740792E0,-2.173854858E-1,9.060879946E-1
7.814468750E-1,1.110301733E0,-1.782901436E-1,8.676035404E-1
7.862873960E-1,1.090754032E0,-1.471360475E-1,8.358385563E-1
7.911286980E-1,1.075482488E0,-1.312535554E-1,8.071278930E-1
7.959692180E-1,1.068762898E0,-1.251449138E-1,7.778064013E-1
8.008089060E-1,1.077925920E0,-1.000994593E-1,7.490957379E-1
8.056494270E-1,1.093808413E0,-5.917152762E-2,7.326024175E-1
8.104907290E-1,1.113356113E0,-9.691482410E-3,7.295480967E-1
8.153311980E-1,1.141455889E0,4.834066704E-2,7.393219471E-1
8.201709370E-1,1.181162000E0,9.598811716E-2,7.643674016E-1
8.250114580E-1,1.231252909E0,1.344725937E-1,8.004084229E-1
8.298527080E-1,1.283787370E0,1.760113984E-1,8.425580859E-1
8.346932290E-1,1.336321712E0,2.096089572E-1,8.804316521E-1
8.395329680E-1,1.391299486E0,2.340435386E-1,9.091423154E-1
8.443734370E-1,1.442612171E0,2.658084929E-1,9.305225611E-1
8.492147390E-1,1.492092252E0,2.987951934E-1,9.482376575E-1
8.540552600E-1,1.545237422E0,3.305601478E-1,9.628984332E-1
8.588950000E-1,1.590441465E0,3.708772361E-1,9.732831120E-1
8.637354680E-1,1.625871539E0,4.105834365E-1,9.824460745E-1
8.685767710E-1,1.654582262E0,4.282985032E-1,9.891656041E-1
8.734172910E-1,1.680849433E0,4.246333241E-1,9.934416413E-1
8.782569790E-1,1.704062223E0,4.173029363E-1,1.000772119E0
8.830975000E-1,1.724220753E0,4.081399739E-1,1.008713365E0
8.879388020E-1,1.754764080E0,3.843162358E-1,1.008713365E0
8.927793230E-1,1.799968004E0,3.617142439E-1,9.940524697E-1
8.976190100E-1,1.852502346E0,3.690446317E-1,9.690070748E-1
9.024595310E-1,1.903204203E0,3.977552652E-1,9.427399039E-1
9.073008330E-1,1.950851560E0,4.166920781E-1,9.207487702E-1
9.121413020E-1,1.990557790E0,4.301311076E-1,9.036445022E-1
9.169810410E-1,2.022933722E0,4.392940700E-1,8.883728981E-1
9.218215620E-1,2.056531429E0,4.496787786E-1,8.663817644E-1
9.266628120E-1,2.088907242E0,4.710590243E-1,8.358385563E-1
9.315033330E-1,2.120672226E0,4.985479414E-1,8.065170646E-1
9.363430730E-1,2.147550106E0,5.333672762E-1,7.857476473E-1
9.411835410E-1,2.171373844E0,5.645213723E-1,7.759737968E-1
9.460248430E-1,2.192754269E0,5.681865811E-1,7.729194760E-1
9.508653640E-1,2.219021320E0,5.608561635E-1,7.710868716E-1
9.557051040E-1,2.252007961E0,5.388650298E-1,7.698651552E-1
9.605455730E-1,2.286827326E0,5.046566129E-1,7.686434388E-1
9.653868750E-1,2.322257519E0,4.582308829E-1,7.692542672E-1
9.702273960E-1,2.350968122E0,4.075291157E-1,7.704760432E-1
9.750670830E-1,2.377235413E0,3.617142439E-1,7.692542672E-1
9.799076040E-1,2.410222054E0,3.213971853E-1,7.649782300E-1
9.847489060E-1,2.449317217E0,2.884104848E-1,7.460414171E-1
9.895894270E-1,2.493299484E0,2.639758885E-1,7.063352466E-1
9.944291140E-1,2.537892818E0,2.590889931E-1,6.568551660E-1
9.992696350E-1,2.582485914E0,2.847453058E-1,6.110403538E-1
1.004110937E0,2.622802973E0,3.256732225E-1,5.774427652E-1
1.008951458E0,2.659454823E0,3.690446317E-1,5.591168404E-1
1.013791146E0,2.689387083E0,4.240224659E-1,5.511755943E-1
1.018631666E0,2.705880404E0,5.016022921E-1,5.560625196E-1
1.023472968E0,2.712599993E0,5.926211476E-1,5.719450116E-1
1.028313437E0,2.708323956E0,6.775313616E-1,5.969904661E-1
1.033153177E0,2.702826262E0,7.471699119E-1,6.263119578E-1
1.037993698E0,2.700993538E0,8.027586341E-1,6.544117332E-1
1.042834948E0,2.707713127E0,8.650668263E-1,6.776245832E-1
1.047675468E0,2.724206448E0,9.566965103E-1,6.904527545E-1
1.052515208E0,2.751084566E0,1.069706440E0,6.904527545E-1
1.057355677E0,2.782849550E0,1.183327317E0,6.861767173E-1
1.062196979E0,2.811560154E0,1.272513628E0,6.855658293E-1
1.067037500E0,2.838438272E0,1.317717552E0,6.819006205E-1
1.071877239E0,2.865926981E0,1.325047970E0,6.660181284E-1
1.076717708E0,2.884863853E0,1.329934835E0,6.391401291E-1
1.081559010E0,2.889750719E0,1.346428156E0,6.116511822E-1
1.086399531E0,2.878755331E0,1.370251894E0,5.945469737E-1
1.091239271E0,2.853709698E0,1.383080125E0,5.957686901E-1
1.096079739E0,2.813392639E0,1.372084498E0,6.073751450E-1
1.100921041E0,2.757803917E0,1.339097857E0,6.232576370E-1
1.105761562E0,2.696106672E0,1.290839553E0,6.403618455E-1
1.110601250E0,2.630744219E0,1.244413853E0,6.470813751E-1
1.115441771E0,2.561716557E0,1.210816264E0,6.440270543E-1
1.120283073E0,2.496353865E0,1.195544600E0,6.275336742E-1
1.125123593E0,2.438321829E0,1.201042414E0,5.988230109E-1
1.129963281E0,2.385176420E0,1.219368339E0,5.621711612E-1
1.134803802E0,2.332031250E0,1.241970301E0,5.175780058E-1
1.139645104E0,2.278886080E0,1.275567889E0,4.668762684E-1
1.144485625E0,2.224519014E0,1.314663291E0,4.088441133E-1
1.149325312E0,2.170763016E0,1.351925969E0,3.471467793E-1
1.154165833E0,2.110898256E0,1.385523558E0,2.872820199E-1
1.159007135E0,2.049811840E0,1.411790729E0,2.316933572E-1
1.163847604E0,1.997277379E0,1.420953751E0,1.858785003E-1
1.168687343E0,1.963679790E0,1.402627826E0,1.461723000E-1
1.173527864E0,1.949018955E0,1.376360536E0,1.064660773E-1
1.178369166E0,1.956349373E0,1.350704312E0,6.675986946E-2
1.183209635E0,1.987503529E0,1.323826194E0,2.461020648E-2
1.188049375E0,2.041259766E0,1.296337366E0,-2.425897121E-2
1.192889896E0,2.106622219E0,1.279233098E0,-7.129555196E-2
1.197731198E0,2.167097807E0,1.264572382E0,-1.164995432E-1
1.202571666E0,2.215966940E0,1.254798532E0,-1.562057436E-1
1.207411406E0,2.244677544E0,1.260907173E0,-1.775860041E-1
1.212251927E0,2.255673170E0,1.272513628E0,-1.928576231E-1
1.217093229E0,2.258116722E0,1.284119964E0,-2.038531899E-1
1.221933698E0,2.259338379E0,1.302446008E0,-2.142378986E-1
1.226773437E0,2.255062342E0,1.324437141E0,-2.258443236E-1
1.231613958E0,2.254451513E0,1.361699820E0,-2.350073010E-1
1.236455208E0,2.259338379E0,1.391632199E0,-2.435594052E-1
1.241295729E0,2.277664423E0,1.409958124E0,-2.478354573E-1
1.246135468E0,2.310651064E0,1.420953751E0,-2.557767034E-1
1.250975989E0,2.350357294E0,1.446609974E0,-2.649396658E-1
1.255817239E0,2.400448084E0,1.555954814E0,-2.343964279E-1
1.260657760E0,2.587983608E0,1.927360535E0,-6.152172014E-2
1.265497500E0,2.689387083E0,2.164376020E0,-8.106938750E-2
1.270338021E0,2.635020256E0,2.037316322E0,-2.197356820E-1
1.275179271E0,2.616694212E0,1.816794038E0,-3.003698289E-1
1.280019791E0,2.625246286E0,1.825346112E0,-3.357999921E-1
1.284859531E0,2.627079010E0,1.927971482E0,-3.046458960E-1
1.289700052E0,2.639907122E0,1.973786235E0,-2.117944360E-1
1.294541302E0,2.647237539E0,1.976840615E0,-7.190641761E-2
1.299381823E0,2.652124405E0,1.981116652E0,1.082986742E-1
1.304221562E0,2.657011271E0,2.006772995E0,3.184361160E-1
1.309062031E0,2.675948143E0,2.050144434E0,5.346822143E-1
1.313903333E0,2.658843994E0,1.986614466E0,6.922853589E-1
1.318743854E0,2.621581078E0,1.846726418E0,8.266755939E-1
1.323583593E0,2.595924854E0,1.726996899E0,9.494593740E-1
1.328424062E0,2.580042362E0,1.654304028E0,1.060636878E0
1.333265364E0,2.584929228E0,1.578556776E0,1.154709935E0
1.338105885E0,2.597757578E0,1.508918285E0,1.235344172E0
1.342945625E0,2.608752966E0,1.481429338E0,1.302539229E0
1.347786093E0,2.610585690E0,1.488759637E0,1.363014817E0
1.352627396E0,2.602644444E0,1.497922659E0,1.421046972E0
1.357467916E0,2.576987982E0,1.475320697E0,1.476024866E0
1.362307656E0,2.531173229E0,1.406292915E0,1.521228790E0
1.367148125E0,2.459702015E0,1.296948195E0,1.546885133E0
1.371989427E0,2.367461443E0,1.191268563E0,1.543830872E0
1.376829948E0,2.247731924E0,1.124684334E0,1.515120149E0
1.381669687E0,2.100513458E0,1.090475917E0,1.468083620E0
1.386510156E0,1.927638769E0,1.058100104E0,1.403942823E0
1.391351458E0,1.736438036E0,1.015950441E0,1.342245460E0
1.396191979E0,1.536074400E0,9.701355696E-1,1.287267685E0
1.401031718E0,1.346706390E0,9.359270930E-1,1.226791978E0
1.405872187E0,1.170166492E0,9.353162646E-1,1.161429524E0
1.410713489E0,1.010119915E0,9.701355696E-1,1.103397369E0
1.415554010E0,8.616797924E-1,1.010452628E0,1.053306460E0
1.420393750E0,7.199591994E-1,1.033665419E0,1.017265439E0
1.425234218E0,5.837363601E-1,1.030000329E0,9.983285069E-1
1.430075521E0,4.487352669E-1,1.000067830E0,9.916090369E-1
1.434916041E0,3.198428154E-1,9.536421895E-1,9.909982085E-1
1.439755781E0,2.062219679E-1,9.096599221E-1,9.903873801E-1
1.444596250E0,1.158140004E-1,8.821710348E-1,9.977176785E-1
1.449437552E0,5.656011775E-2,8.711754680E-1,1.014822006E0
1.454278073E0,2.235169336E-2,8.577364087E-1,1.041089177E0
1.459117812E0,1.746477745E-2,8.430756927E-1,1.079573631E0
1.463958281E0,3.762331232E-2,8.302475214E-1,1.118669033E0
1.468799583E0,8.099471033E-2,8.467408419E-1,1.180366278E0
1.473640104E0,1.445246339E-1,8.620125055E-1,1.269552588E0
1.478479843E0,2.153849453E-1,8.668994308E-1,1.370956063E0
1.483320312E0,2.990734279E-1,8.650668263E-1,1.478468299E0
1.488161614E0,4.188029170E-1,8.565146923E-1,1.589034796E0
1.493002135E0,5.849580765E-1,8.589581847E-1,1.690438390E0
1.497841875E0,8.256387711E-1,8.387996554E-1,1.759466052E0
1.502682343E0,1.142677546E0,7.697719336E-1,1.772294283E0
1.507523646E0,1.476209760E0,6.811965108E-1,1.747248769E0
1.512364166E0,1.770646453E0,5.590235591E-1,1.705099106E0
1.517203906E0,2.005218744E0,3.934792280E-1,1.653786421E0
1.522044375E0,2.156713247E0,2.279348969E-1,1.593310833E0
1.526885677E0,2.219021320E0,8.315995336E-2,1.518174529E0
1.531726198E0,2.234292984E0,-4.634336382E-2,1.457698941E0
1.536565937E0,2.187867165E0,-1.300318390E-1,1.404553652E0
1.541406458E0,2.095626593E0,-1.801227331E-1,1.357517123E0
1.546247708E0,1.956960201E0,-2.186072171E-1,1.308647871E0
1.551088229E0,1.774311662E0,-2.503722012E-1,1.307426214E0
1.555927968E0,1.574558973E0,-2.876349390E-1,1.347743273E0
1.560768489E0,1.377249599E0,-3.542191982E-1,1.403331876E0
1.565609739E0,1.181162000E0,-4.159165323E-1,1.501681209E0
1.570450260E0,9.826310277E-1,-4.647857249E-1,1.617745399E0
1.575290000E0,7.608871460E-1,-4.519575536E-1,1.570708871E0
1.580130521E0,5.666321516E-1,-4.238577783E-1,1.461974978E0
1.584971823E0,4.151377082E-1,-4.317990243E-1,1.322697759E0
1.589812291E0,3.021277487E-1,-5.112113953E-1,1.169370770E0
1.594652031E0,2.355434746E-1,-5.894020796E-1,1.080795407E0
1.599492552E0,1.946155429E-1,-6.040628552E-1,1.079573631E0
1.604333854E0,1.604071110E-1,-5.668001175E-1,1.176090240E0
1.609174323E0,1.335290670E-1,-4.953289330E-1,1.372788668E0
1.614014062E0,1.158140004E-1,-4.171382785E-1,1.564600229E0
1.618854583E0,8.771422505E-2,-3.267302811E-1,1.657451630E0
1.623695885E0,5.472752824E-2,-2.552591264E-1,1.738085747E0
1.628536354E0,3.517985344E-2,-2.705307305E-1,1.843154550E0
1.633376093E0,5.247483030E-3,-3.041282892E-1,1.940892935E0
1.638216614E0,-3.629131615E-2,-2.992413640E-1,2.015418291E0
1.643057916E0,-9.737779200E-2,-2.833589017E-1,2.084446192E0
1.647898385E0,-1.712924242E-1,-2.894675434E-1,2.166301966E0
1.652738125E0,-2.537591457E-1,-3.065717518E-1,2.242660046E0
1.657578646E0,-3.423345387E-1,-3.420019150E-1,2.293972731E0
1.662419948E0,-4.516793191E-1,-4.128622115E-1,2.330624580E0
1.667260468E0,-5.744631290E-1,-4.971615374E-1,2.356280804E0
1.672100156E0,-7.015230060E-1,-5.814608335E-1,2.375217676E0
1.676940677E0,-8.243068457E-1,-6.749231219E-1,2.365443945E0
1.681781979E0,-9.116604924E-1,-6.963034272E-1,2.322683334E0
1.686622448E0,-9.825208187E-1,-7.598333359E-1,2.267705441E0
1.691462187E0,-1.019172668E0,-7.769375443E-1,2.208451748E0
1.696302708E0,-1.004511833E0,-7.500594854E-1,2.149197817E0
1.701144010E0,-9.800773263E-1,-7.628876567E-1,2.118654490E0
1.705984531E0,-9.513666630E-1,-7.842679620E-1,2.102161169E0
1.710824218E0,-9.147148132E-1,-8.288610578E-1,2.077115774E0
1.715664739E0,-8.866150379E-1,-8.728433251E-1,2.045350790E0
1.720506041E0,-8.676782250E-1,-8.899475336E-1,2.001979351E0
1.725346562E0,-8.499631286E-1,-9.119386673E-1,1.948223233E0
1.730186250E0,-8.212525249E-1,-9.229342341E-1,1.888358474E0
1.735026771E0,-7.693290114E-1,-8.942235708E-1,1.812611341E0
1.739868073E0,-6.960252523E-1,-8.685672879E-1,1.716705561E0
1.744708593E0,-6.221106052E-1,-8.490195870E-1,1.622021556E0
1.749548333E0,-5.616350174E-1,-8.423000574E-1,1.557269812E0
1.754388802E0,-5.109332204E-1,-8.331370950E-1,1.521839738E0
1.759230104E0,-4.657292068E-1,-8.813953996E-1,1.505346298E0
1.764070625E0,-4.400728941E-1,-9.968488216E-1,1.498626828E0
1.768910364E0,-4.376294315E-1,-1.129406452E0,1.490685582E0
1.773750833E0,-4.577879608E-1,-1.206375480E0,1.476635695E0
1.778592135E0,-5.084897280E-1,-1.225923181E0,1.439983845E0
1.783432656E0,-5.848478675E-1,-1.186216950E0,1.335525990E0
1.788272396E0,-6.715906262E-1,-1.082980752E0,1.168148994E0
1.793112916E0,-7.412292361E-1,-9.675273299E-1,9.653418660E-1
1.797954166E0,-7.760485411E-1,-8.728433251E-1,7.582587004E-1
1.802794687E0,-7.894875407E-1,-8.325262666E-1,5.572842360E-1
1.807634427E0,-8.023157120E-1,-8.416892290E-1,3.697487712E-1
1.812474948E0,-8.023157120E-1,-8.655129671E-1,1.901545525E-1
1.817316250E0,-7.846006155E-1,-9.094951749E-1,2.399934083E-2
1.822156718E0,-7.772702575E-1,-9.320971966E-1,-1.146669537E-1
1.826996458E0,-8.151438832E-1,-9.461470842E-1,-2.392833531E-1
1.831836979E0,-8.475196958E-1,-9.797446728E-1,-3.840582967E-1
1.836678281E0,-8.181982040E-1,-1.045107126E0,-5.392179489E-1
1.841518750E0,-7.943744659E-1,-1.082980752E0,-6.393997669E-1
1.846358489E0,-7.797136903E-1,-1.114134908E0,-7.041513920E-1
1.851199010E0,-7.448943853E-1,-1.188660383E0,-7.634052634E-1
1.856040312E0,-7.003012896E-1,-1.246081710E0,-8.306004405E-1
1.860880781E0,-6.422691345E-1,-1.246692538E0,-8.690848947E-1
1.865720521E0,-6.196671724E-1,-1.170334458E0,-8.904651403E-1
1.870561041E0,-6.141693592E-1,-1.091532946E0,-9.155105948E-1
1.875402343E0,-6.172236800E-1,-1.056102753E0,-9.552168250E-1
1.880242864E0,-6.251649261E-1,-1.014563918E0,-1.002864242E0
1.885082552E0,-6.386039257E-1,-9.620295763E-1,-1.049900770E0
1.889923073E0,-6.489886642E-1,-9.516448975E-1,-1.105489492E0
1.894764375E0,-6.605950594E-1,-9.113277793E-1,-1.136643529E0
1.899604896E0,-6.715906262E-1,-8.251958489E-1,-1.138476133E0
1.904444583E0,-6.831970811E-1,-7.647202611E-1,-1.125037193E0
1.909285104E0,-7.027447224E-1,-7.580007315E-1,-1.096937418E0
1.914126406E0,-7.601660490E-1,-7.714397907E-1,-1.073724508E0
1.918966927E0,-8.200307488E-1,-7.573899031E-1,-1.041348696E0
1.923806614E0,-8.621804118E-1,-7.341770530E-1,-1.034018278E0
1.928647135E0,-8.731759787E-1,-7.164619565E-1,-1.082276583E0
1.933488437E0,-8.640130162E-1,-6.828643680E-1,-1.157413006E0
1.938328958E0,-8.646239042E-1,-6.474342346E-1,-1.240490556E0
1.943168698E0,-8.780629039E-1,-6.364386678E-1,-1.300355315E0
1.948009218E0,-8.896693587E-1,-6.523211598E-1,-1.351668000E0
1.952850468E0,-9.018866420E-1,-6.639275551E-1,-1.402980566E0
1.957690989E0,-9.177691340E-1,-6.663710475E-1,-1.443297625E0
1.962530729E0,-9.428145885E-1,-6.773666143E-1,-1.467121363E0
1.967371250E0,-9.739686847E-1,-6.737014055E-1,-1.468343139E0
1.972212500E0,-9.916837811E-1,-6.706470847E-1,-1.450628042E0
1.977053021E0,-1.010620594E0,-6.938599348E-1,-1.427415133E0
1.981892760E0,-1.021616101E0,-7.201271653E-1,-1.386487246E0
1.986733281E0,-1.013064027E0,-8.050373197E-1,-1.357165694E0
1.991574583E0,-9.990141392E-1,-8.771193624E-1,-1.310739994E0
1.996415052E0,-9.971815348E-1,-8.997213840E-1,-1.237436295E0
2.001254791E0,-9.971815348E-1,-9.369841218E-1,-1.169630289E0
2.006095312E0,-9.996250272E-1,-9.730251431E-1,-1.104267716E0
2.010936614E0,-1.002679348E0,-9.595860839E-1,-1.046846509E0
2.015777135E0,-1.000235796E0,-8.887258172E-1,-9.882035255E-1
2.020616823E0,-9.965707064E-1,-8.221415281E-1,-9.362800121E-1
2.025457343E0,-9.904620051E-1,-7.842679620E-1,-9.002389908E-1
2.030298646E0,-9.782447219E-1,-7.940417528E-1,-8.758044243E-1
2.035139166E0,-9.703034759E-1,-8.337479830E-1,-8.483154774E-1
2.039978906E0,-9.745795727E-1,-9.082734585E-1,-8.196048737E-1
2.044819375E0,-9.996250272E-1,-1.020672560E0,-7.970028520E-1
2.049660677E0,-1.039942026E0,-1.134293437E0,-7.823420763E-1
2.054501198E0,-1.099195957E0,-1.289453030E0,-8.000571728E-1
2.059340937E0,-1.165169358E0,-1.445223570E0,-8.220483065E-1
2.064181406E0,-1.208540678E0,-1.574726939E0,-8.360981941E-1
2.069022708E0,-1.203653812E0,-1.673686981E0,-8.458720446E-1
2.073863229E0,-1.172499776E0,-1.690180302E0,-8.483154774E-1
2.078702968E0,-1.113856673E0,-1.635202527E0,-7.841746807E-1
2.083543489E0,-1.055213690E0,-1.530133724E0,-6.687212586E-1
2.088384791E0,-1.017950892E0,-1.425675869E0,-5.379962325E-1
2.093225260E0,-1.005122781E0,-1.349928617E0,-4.109363556E-1
2.098065000E0,-1.008177042E0,-1.308389902E0,-3.272478878E-1
2.102905521E0,-1.000235796E0,-1.243638158E0,-2.612744868E-1
2.107746823E0,-9.666383266E-1,-1.161782384E0,-1.885815710E-1
2.112587343E0,-9.141039252E-1,-1.045107126E0,-1.207755953E-1
2.117427031E0,-8.249176741E-1,-9.424818754E-1,-7.496074587E-2
2.122267552E0,-7.143511772E-1,-8.068699241E-1,-2.181551233E-2
2.127108854E0,-6.117259264E-1,-6.126149297E-1,3.255144507E-2
2.131949375E0,-5.200961828E-1,-3.963688612E-1,7.286851853E-2
2.136789062E0,-4.339642525E-1,-2.204398066E-1,9.547051042E-2
2.141629583E0,-3.618822098E-1,-1.233123243E-1,1.125747189E-1
2.146470885E0,-3.032391965E-1,-1.190362722E-1,1.260137558E-1
2.151311406E0,-2.464287877E-1,-1.587424725E-1,1.394527853E-1
2.156151146E0,-2.116094977E-1,-2.479287237E-1,1.394527853E-1
2.160991614E0,-1.969487369E-1,-3.749885857E-1,1.174616441E-1
2.165832916E0,-2.036682516E-1,-4.996050298E-1,9.180532396E-2
2.170673437E0,-2.439853251E-1,-6.346060634E-1,1.076878086E-1
2.175513177E0,-3.191216588E-1,-8.025938869E-1,1.376201808E-1
2.180353698E0,-4.400728941E-1,-1.057935357E0,1.583895832E-1
2.185195000E0,-5.897347927E-1,-1.416512966E0,1.382310539E-1
2.190035468E0,-6.948034763E-1,-1.770203590E0,8.325321972E-2
2.194875208E0,-7.516139150E-1,-1.980341077E0,4.415787756E-2
2.199715729E0,-8.236959577E-1,-2.086020708E0,2.644279972E-2
2.204557031E0,-9.654165506E-1,-2.275999546E0,3.010798991E-2
2.209397552E0,-1.224423170E0,-2.685889721E0,5.393171310E-2
2.214237239E0,-1.573837876E0,-3.361506224E0,9.302705526E-2
2.219077760E0,-1.892709255E0,-4.026738167E0,3.743836284E-2
2.223919062E0,-2.132168055E0,-4.183730125E0,-3.687866926E-1
2.228759583E0,-2.285495043E0,-4.101263523E0,-6.094673872E-1
2.233599323E0,-2.431491852E0,-4.111648083E0,-6.901015043E-1
2.238439791E0,-2.610475063E0,-4.390813351E0,-7.530205846E-1
2.243281093E0,-2.802897453E0,-4.702354431E0,-8.055549860E-1
2.248121614E0,-2.917129278E0,-4.808644772E0,-8.635870814E-1
2.252961354E0,-2.992876530E0,-4.640656948E0,-9.717101455E-1
2.257801875E0,-3.077786684E0,-4.215495110E0,-1.223386407E0
2.262643177E0,-3.190185785E0,-3.564924240E0,-1.783549309E0
2.267483646E0,-3.376499414E0,-2.809895277E0,-2.636927366E0
2.272323385E0,-3.986753464E0,-2.057920933E0,-3.300937176E0
2.277163906E0,-4.492549419E0,-1.621152639E0,-3.471368551E0
2.282005208E0,-4.504155636E0,-1.159949780E0,-3.421277523E0
2.286845729E0,-4.375263214E0,-5.790174007E-1,-3.432273149E0
2.291685416E0,-4.038676739E0,-3.290434182E-2,-3.526346445E0
2.296525937E0,-3.837091446E0,6.989116073E-1,-3.552613497E0
2.301367239E0,-3.579306602E0,1.599937081E0,-3.434716702E0
2.306207760E0,-3.254326582E0,2.440486908E0,-3.231909513E0
2.311047500E0,-2.998985052E0,3.018364906E0,-2.980844259E0
2.315887968E0,-2.918350935E0,3.243773937E0,-2.657085896E0
2.320729271E0,-2.951948643E0,3.097777367E0,-2.246584892E0
2.325569791E0,-3.076565027E0,2.489356041E0,-1.839138031E0
2.330409531E0,-3.356340885E0,1.569393873E0,-1.615561485E0
2.335250052E0,-3.417427540E0,7.019659281E-1,-1.630833149E0
2.340091302E0,-3.347788811E0,-4.023471847E-2,-1.727349758E0
2.344931823E0,-3.176135778E0,-5.515284538E-1,-1.913052678E0
2.349771562E0,-2.741811037E0,-4.831116498E-1,-2.290566921E0
2.354612083E0,-2.210358858E0,-1.886748523E-1,-2.636927366E0
2.359453385E0,-1.694178224E0,1.240878925E-1,-2.871499300E0
2.364293854E0,-1.226255774E0,4.521222413E-1,-2.993672371E0
2.369133593E0,-8.688999414E-1,6.702009439E-1,-3.041319847E0
2.373974114E0,-5.872913003E-1,7.435047626E-1,-3.038876295E0
2.378815416E0,-4.107513726E-1,7.111288905E-1,-2.992450714E0
2.383655937E0,-3.050717711E-1,5.883451104E-1,-2.913038254E0
2.388495677E0,-2.500939667E-1,3.666011691E-1,-2.842177868E0
2.393336146E0,-2.152746916E-1,7.033179700E-2,-2.751158953E0
2.398177448E0,-1.688489616E-1,-2.228832692E-1,-2.625931740E0
2.403017968E0,-1.169254631E-1,-4.635639787E-1,-2.436563730E0
2.407857708E0,-4.911947623E-2,-6.510994434E-1,-2.210543871E0
2.412698229E0,2.296255901E-2,-7.799918652E-1,-1.985745549E0
2.417539531E0,9.260113537E-2,-8.526847959E-1,-1.773164630E0
2.422380000E0,1.451355070E-1,-8.771193624E-1,-1.594181299E0
2.427219739E0,1.842308491E-1,-8.508521914E-1,-1.448184609E0
2.432060260E0,2.001133263E-1,-8.313044906E-1,-1.316237807E0
2.436901562E0,1.872851700E-1,-8.154220581E-1,-1.180625796E0
2.441742083E0,1.506332904E-1,-8.239741325E-1,-1.047457337E0
2.446581771E0,1.042075604E-1,-8.404675126E-1,-9.216192365E-1
2.451422291E0,6.938828528E-2,-8.349696994E-1,-8.067767024E-1
2.456263593E0,6.327962875E-2,-7.922091484E-1,-7.029296756E-1
2.461104114E0,8.649249375E-2,-7.182945609E-1,-6.167977452E-1
2.465943854E0,1.274204254E-1,-6.364386678E-1,-5.660960078E-1
2.470784375E0,1.823982447E-1,-5.686326623E-1,-5.612090826E-1
2.475625625E0,2.404303998E-1,-4.879985750E-1,-6.058021784E-1
2.480466146E0,3.009060323E-1,-3.872058988E-1,-6.729972959E-1
2.485305885E0,3.564946949E-1,-2.619786263E-1,-7.408033013E-1
2.490146406E0,4.041421711E-1,-1.202580035E-1,-8.147179484E-1
2.494987708E0,4.517896175E-1,3.490164131E-2,-8.916868567E-1
2.499828177E0,5.012696385E-1,2.169393301E-1,-9.668232203E-1
2.504667916E0,5.507496595E-1,4.460135996E-1,-1.044402957E0
2.509508437E0,6.014514565E-1,6.836400032E-1,-1.121371984E0
2.514349739E0,6.478771567E-1,8.858362436E-1,-1.199562669E0
2.519190260E0,6.808638573E-1,1.027556777E0,-1.282029390E0
2.524029948E0,6.875833869E-1,1.111856103E0,-1.376713395E0
2.528870468E0,6.631487608E-1,1.144842863E0,-1.499497175E0
2.533711771E0,6.161121726E-1,1.114910483E0,-1.661376357E0
2.538552291E0,5.550256968E-1,1.023891687E0,-1.852576971E0
2.543392031E0,5.018804669E-1,8.968317509E-1,-2.024230003E0
2.548232552E0,4.389614463E-1,7.380069494E-1,-2.159842014E0
2.553073802E0,3.656576872E-1,5.468062758E-1,-2.259413004E0
2.557914323E0,2.685301900E-1,3.446100354E-1,-2.284458399E0
2.562754062E0,1.640723050E-1,1.222552955E-1,-2.187941790E0
2.567594583E0,8.649249375E-2,-1.556881517E-1,-1.910609126E0
2.572435885E0,4.678628221E-2,-4.605096579E-1,-1.498275518E0
2.577276406E0,4.373196140E-2,-7.604442239E-1,-1.032185674E0
2.582116093E0,6.633394957E-2,-9.773011804E-1,-5.850328207E-1
2.586956614E0,9.748806059E-2,-1.045107126E0,-2.124052942E-1
2.591797916E0,1.237552315E-1,-9.766902924E-1,4.904479533E-2
2.596638437E0,1.414703131E-1,-7.879331112E-1,2.017609775E-1
2.601478177E0,1.561310589E-1,-5.240395665E-1,2.817842364E-1
2.606318646E0,1.695700884E-1,-2.546482384E-1,3.239338994E-1
2.611160000E0,1.897286326E-1,-2.679569274E-2,3.489793539E-1
2.616000468E0,2.117197514E-1,1.277530789E-1,3.660835624E-1
2.620840208E0,2.282131016E-1,1.925047338E-1,3.801334798E-1
2.625680729E0,2.269913703E-1,1.772331148E-1,3.972376883E-1
2.630522031E0,2.123306245E-1,1.057619527E-1,4.241157174E-1
2.635362552E0,1.787330657E-1,2.085175365E-2,4.577132761E-1
2.640202239E0,1.426920444E-1,-3.351520747E-2,4.864239097E-1
2.645042760E0,1.066510230E-1,-4.389990866E-2,5.016955733E-1
2.649884062E0,7.916212082E-2,-8.469752967E-3,5.047498941E-1
2.654724583E0,5.717098340E-2,4.895152897E-2,4.888674021E-1
2.659564323E0,3.517985344E-2,9.049033374E-2,4.528263807E-1
2.664404791E0,1.685391366E-2,1.155357882E-1,4.015137255E-1
2.669246093E0,1.196699589E-2,1.259204894E-1,3.447033167E-1
2.674086614E0,1.563218236E-2,1.246987581E-1,2.805625200E-1
2.678926354E0,2.723861113E-2,1.179792434E-1,2.127565444E-1
2.683766875E0,5.045147240E-2,1.143140569E-1,1.590004563E-1
2.688608177E0,8.404903114E-2,1.265313476E-1,1.272354871E-1
2.693448698E0,1.207009107E-1,1.595180482E-1,1.137964502E-1
2.698288385E0,1.536876112E-1,2.065546364E-1,1.229594275E-1
2.703128906E0,1.830091178E-1,2.651976347E-1,1.461723000E-1
2.707970208E0,1.982807368E-1,3.220080435E-1,1.773263961E-1
2.712810729E0,2.031676471E-1,3.672120273E-1,2.066479027E-1
2.717650468E0,1.946155429E-1,4.020313323E-1,2.353585511E-1
2.722490989E0,1.793439239E-1,4.331854284E-1,2.732321322E-1
2.727332239E0,1.622397155E-1,4.490679204E-1,3.074405789E-1
2.732172760E0,1.359725296E-1,4.405158162E-1,3.343186080E-1
2.737012500E0,1.060401648E-1,4.111942947E-1,3.593640625E-1
2.741853021E0,8.282729983E-2,3.775967360E-1,3.825769126E-1
2.746694323E0,7.122087479E-2,3.391122520E-1,4.009028673E-1
2.751534843E0,6.450136006E-2,2.951299846E-1,4.186179340E-1
2.756374531E0,7.183173299E-2,2.401521951E-1,4.351112843E-1
2.761215052E0,7.794038951E-2,1.491333395E-1,4.424416721E-1
2.766056354E0,7.122087479E-2,2.818213031E-2,4.363330305E-1
2.770896875E0,6.816655397E-2,-1.074298397E-1,4.131201506E-1
2.775736614E0,7.061000168E-2,-2.405983508E-1,3.856312633E-1
2.780577135E0,8.404903114E-2,-3.597169816E-1,3.636401296E-1
2.785418437E0,1.200900525E-1,-4.385185242E-1,3.379837871E-1
2.790258906E0,1.677374989E-1,-4.763921499E-1,3.001101911E-1
2.795098646E0,2.251587808E-1,-4.928855002E-1,2.768973410E-1
2.799939166E0,2.886887193E-1,-4.886094332E-1,2.634583116E-1
2.804780468E0,3.393904865E-1,-4.641748369E-1,2.487975508E-1
2.809620989E0,3.894813955E-1,-3.652147651E-1,2.805625200E-1
2.814460677E0,4.401831627E-1,-1.813444644E-1,3.593640625E-1
2.819301198E0,4.352962673E-1,-1.190362722E-1,3.905181587E-1
2.824142500E0,4.004769623E-1,-1.544664204E-1,3.746356964E-1
2.828983021E0,3.656576872E-1,-1.416382641E-1,3.618075252E-1
2.833822760E0,3.400013745E-1,-5.978238583E-2,3.715813458E-1
2.838663281E0,3.094581366E-1,3.978855908E-2,3.758574128E-1
2.843504583E0,2.721953690E-1,1.576854438E-1,3.679161668E-1
2.848345052E0,2.300456911E-1,2.865778804E-1,3.502011001E-1
2.853184791E0,1.909503490E-1,4.258550406E-1,3.300425708E-1
2.858025312E0,1.646831781E-1,5.834581852E-1,3.098840117E-1
2.862866614E0,1.481898278E-1,7.575546503E-1,2.897254825E-1
2.867707135E0,1.359725296E-1,9.273750186E-1,2.695669532E-1
2.872546875E0,1.219226420E-1,1.048937082E0,2.469649762E-1
2.877387343E0,9.137940407E-2,1.097195387E0,2.200869173E-1
2.882228646E0,4.312109575E-2,1.082534671E0,1.950414628E-1
2.887069166E0,-1.185672916E-2,1.008009195E0,1.693851501E-1
2.891908906E0,-6.439109147E-2,8.778949976E-1,1.449505687E-1
2.896749427E0,-1.108168215E-1,7.135723829E-1,1.247920170E-1
2.901590729E0,-1.462469697E-1,5.309237838E-1,1.125747189E-1
2.906431250E0,-1.621294469E-1,3.397231102E-1,9.547051042E-2
2.911270937E0,-1.651837826E-1,1.668484211E-1,8.080975711E-2
2.916111458E0,-1.621294469E-1,1.718656532E-2,7.042505592E-2
2.920952760E0,-1.645729095E-1,-9.765600413E-2,7.042505592E-2
2.925793281E0,-1.761793494E-1,-1.685163081E-1,8.080975711E-2
2.930633021E0,-1.926726848E-1,-1.923400313E-1,9.669224173E-2
2.935473541E0,-2.140529603E-1,-1.740140915E-1,1.125747189E-1
2.940314843E0,-2.348223627E-1,-1.257557720E-1,1.284572184E-1
2.945155364E0,-2.574243546E-1,-5.184114724E-2,1.425071061E-1
2.949995052E0,-2.726959586E-1,3.123645484E-2,1.541135311E-1
2.954835573E0,-2.843023837E-1,1.137031913E-1,1.602221876E-1
2.959676875E0,-2.879675627E-1,1.815091819E-1,1.620547771E-1
2.964517396E0,-2.861349881E-1,2.322109491E-1,1.596113145E-1
2.969357135E0,-2.806372046E-1,2.596998513E-1,1.522809416E-1
2.974197604E0,-2.678090334E-1,2.670302093E-1,1.406745166E-1
2.979038958E0,-2.537591457E-1,2.603107095E-1,1.284572184E-1
2.983879427E0,-2.366549522E-1,2.419847846E-1,1.156290546E-1
2.988719166E0,-2.177181393E-1,2.138850093E-1,1.034117565E-1
2.993559687E0,-1.957270205E-1,1.833417714E-1,9.058359265E-2
2.998400989E0,-1.725141555E-1,1.503550708E-1,7.775543630E-2
3.003241510E0,-1.499121636E-1,1.204227060E-1,6.492727995E-2
3.008081250E0,-1.248667091E-1,9.476638585E-2,5.148825049E-2
3.012921718E0,-9.859952331E-2,7.338611782E-2,3.804922849E-2
3.017763021E0,-7.049974799E-2,5.322758481E-2,2.522107214E-2
3.022603541E0,-4.301083088E-2,3.734510019E-2,1.422550622E-2
3.027443281E0,-1.796537638E-2,2.512780577E-2,5.062536336E-3
3.032283802E0,5.247483030E-3,1.535397023E-2,-1.656976528E-3
3.037125104E0,2.357342467E-2,9.856188670E-3,-1.081994735E-2
3.041965625E0,3.884504363E-2,5.580135155E-3,-2.059378289E-2
3.046805312E0,4.984060675E-2,1.304082107E-3,-2.853502333E-2
3.051645833E0,5.778184906E-2,-5.415429827E-3,-3.586539999E-2
3.056487135E0,6.389050186E-2,-1.518926397E-2,-4.075231776E-2
3.061327656E0,6.572309136E-2,-2.740655839E-2,-4.319577664E-2
3.066167396E0,6.205790117E-2,-4.084558412E-2,-4.380664229E-2
3.071007916E0,5.656011775E-2,-5.306287855E-2,-4.502837360E-2
3.075849218E0,4.984060675E-2,-6.528016925E-2,-4.625010118E-2
3.080689687E0,3.823417798E-2,-7.627573609E-2,-4.686096683E-2
3.085529427E0,2.723861113E-2,-8.360611647E-2,-4.502837360E-2
3.090369948E0,1.685391366E-2,-8.727130294E-2,-4.319577664E-2
3.095211250E0,7.080078125E-3,-8.543870598E-2,-3.953059018E-2
3.100051771E0,-2.082893625E-3,-8.238438517E-2,-3.281107917E-2
3.104891510E0,-1.063499972E-2,-7.383228093E-2,-2.548070066E-2
3.109732031E0,-1.796537638E-2,-6.283671409E-2,-1.753946021E-2
3.114573333E0,-2.651748247E-2,-4.939768836E-2,-9.598217905E-3
3.119413802E0,-3.384786099E-2,-3.473693505E-2,-2.878705971E-3
3.124253541E0,-4.056737199E-2,-1.702185906E-2,5.062536336E-3
3.129094062E0,-4.606515542E-2,8.235266432E-5,9.949454106E-3
3.133935364E0,-5.156293511E-2,1.474310644E-2,1.422550622E-2
3.138775885E0,-5.339552835E-2,2.696040086E-2,1.789069176E-2
3.143615625E0,-5.583899096E-2,3.551250696E-2,2.155588195E-2
3.148456093E0,-5.400639400E-2,4.039942473E-2,2.399934083E-2
3.153297396E0,-5.278466642E-2,4.101029038E-2,2.705366537E-2
3.158137916E0,-4.973034188E-2,4.039942473E-2,2.949712425E-2
3.162977656E0,-4.728688300E-2,3.673423454E-2,3.132971749E-2
3.167818177E0,-4.728688300E-2,2.940385975E-2,3.316231072E-2
3.172659479E0,-4.728688300E-2,2.207348309E-2,3.438404202E-2
3.177500000E0,-4.911947623E-2,1.229964755E-2,3.621663526E-2
3.182339687E0,-5.217380077E-2,5.580135155E-3,3.743836284E-2
3.187180208E0,-5.706071854E-2,-5.285120569E-4,3.682750091E-2
3.192021510E0,-6.316936016E-2,-5.415429827E-3,3.682750091E-2
3.196862031E0,-6.927801669E-2,-9.080618620E-3,3.438404202E-2
3.201701771E0,-7.294319570E-2,-1.274580508E-2,3.255144507E-2
3.206542291E0,-7.660838962E-2,-1.580012962E-2,2.888625860E-2
3.211383593E0,-7.905185223E-2,-2.068704739E-2,2.644279972E-2
3.216224114E0,-7.966271043E-2,-2.985001728E-2,2.461020648E-2
3.221063802E0,-7.844097912E-2,-3.840212524E-2,2.155588195E-2
3.225904323E0,-7.599753141E-2,-5.061941966E-2,1.972328871E-2
3.230745625E0,-7.049974799E-2,-6.222584844E-2,1.666896418E-2
3.235586146E0,-6.439109147E-2,-7.444314659E-2,1.483637188E-2
3.240425885E0,-5.950417742E-2,-8.360611647E-2,1.178204734E-2
3.245266406E0,-5.400639400E-2,-9.276908636E-2,9.949454106E-3
3.250107708E0,-4.850861058E-2,-9.643427283E-2,9.338588454E-3
3.254948229E0,-4.301083088E-2,-9.704513848E-2,8.116859011E-3
3.259787916E0,-3.934564069E-2,-9.276908636E-2,7.505995221E-3
3.264628437E0,-3.506958857E-2,-8.910389245E-2,7.505995221E-3
3.269469739E0,-3.323699534E-2,-8.360611647E-2,7.505995221E-3
3.274310260E0,-3.140439838E-2,-7.871919870E-2,6.895129569E-3
3.279150000E0,-3.079353645E-2,-7.383228093E-2,8.727722801E-3
3.283990521E0,-3.140439838E-2,-6.772363186E-2,8.727722801E-3
3.288831823E0,-3.201526403E-2,-6.039325148E-2,1.056031790E-2
3.293672343E0,-3.445872292E-2,-5.550633743E-2,1.117118169E-2
3.298512031E0,-3.629131615E-2,-5.000855401E-2,1.239291299E-2
3.303352552E0,-3.873477876E-2,-4.634336382E-2,1.239291299E-2
3.308193854E0,-3.751304746E-2,-4.145644605E-2,1.300377678E-2
3.313034375E0,-3.690218180E-2,-3.534780070E-2,1.361464057E-2
3.317874114E0,-3.568045422E-2,-2.862828970E-2,1.361464057E-2
3.322714635E0,-3.445872292E-2,-2.190877683E-2,1.300377678E-2
3.327555937E0,-2.957180515E-2,-1.457840018E-2,1.300377678E-2
3.332396458E0,-2.407402359E-2,-1.030234620E-2,1.117118169E-2
3.337236146E0,-1.979796961E-2,-6.026294548E-3,9.949454106E-3
3.342076666E0,-1.552191749E-2,-4.193700384E-3,8.116859011E-3
3.346917968E0,-9.413270280E-3,-3.582835663E-3,6.284263916E-3
3.351758489E0,-4.526352510E-3,-4.804565106E-3,3.229941241E-3
3.356598229E0,3.605652601E-4,-4.193700384E-3,2.619077452E-3
3.361438750E0,2.804024145E-3,-4.193700384E-3,7.864823565E-4
3.366280052E0,5.247483030E-3,-2.361106221E-3,-1.656976528E-3
3.371120521E0,4.636618309E-3,-5.285120569E-4,-4.100435413E-3
3.375960260E0,4.636618309E-3,1.304082107E-3,-5.322164856E-3
3.380800781E0,4.025753587E-3,3.136676271E-3,-7.765623741E-3
3.385642083E0,1.582294703E-3,4.358405713E-3,-1.081994735E-2
3.390482604E0,-8.611641824E-4,3.747540992E-3,-1.143081207E-2
3.395322343E0,-4.526352510E-3,-5.285120569E-4,-1.204167679E-2
3.400162864E0,-7.580676116E-3,-5.415429827E-3,-1.265254151E-2
3.405004166E0,-1.063499972E-2,-1.091321185E-2,-1.265254151E-2
3.409844635E0,-1.491105277E-2,-1.580012962E-2,-1.387427095E-2
3.414684375E0,-1.735451072E-2,-1.946531795E-2,-1.570686512E-2
3.419524896E0,-1.857624203E-2,-2.129791304E-2,-1.570686512E-2
3.424366198E0,-1.857624203E-2,-2.251964062E-2,-1.570686512E-2
3.429206718E0,-1.674364693E-2,-2.068704739E-2,-1.448513567E-2
3.434046458E0,-1.430018805E-2,-2.007618174E-2,-1.509600040E-2
3.438886979E0,-1.002413500E-2,-2.007618174E-2,-1.448513567E-2
3.443728281E0,-6.358946674E-3,-2.129791304E-2,-1.448513567E-2
3.448568750E0,-1.472028904E-3,-2.251964062E-2,-1.326340623E-2
3.453408489E0,1.582294703E-3,-2.251964062E-2,-1.204167679E-2
3.458249010E0,3.414888866E-3,-2.129791304E-2,-1.020908263E-2
3.463090312E0,2.804024145E-3,-2.313050628E-2,-7.765623741E-3
3.467930833E0,2.193159424E-3,-2.374137193E-2,-5.322164856E-3
3.472770573E0,-2.082893625E-3,-2.435223572E-2,-5.322164856E-3
3.477611093E0,-2.693758346E-3,-2.129791304E-2,-4.100435413E-3
3.482452396E0,-3.915487789E-3,-1.763272285E-2,-2.267841250E-3
3.487292916E0,-4.526352510E-3,-1.091321185E-2,-1.046111807E-3
3.492132604E0,-6.358946674E-3,-4.193700384E-3,-4.352470860E-4
3.496973125E0,-5.748081952E-3,3.747540992E-3,-1.656976528E-3
3.501814427E0,-6.358946674E-3,1.046705246E-2,-1.656976528E-3
3.506654948E0,-6.969811395E-3,1.596483588E-2,-1.656976528E-3
3.511494687E0,-6.358946674E-3,1.840829477E-2,-1.656976528E-3
3.516335208E0,-5.137217231E-3,1.963002421E-2,-1.656976528E-3
3.521176510E0,-4.526352510E-3,1.840829477E-2,-2.267841250E-3
3.526017031E0,-2.693758346E-3,1.535397023E-2,-2.878705971E-3
3.530856718E0,-8.611641824E-4,1.291051134E-2,-2.878705971E-3
3.535697239E0,-1.472028904E-3,1.168878190E-2,-2.267841250E-3
3.540538541E0,9.714299813E-4,1.168878190E-2,-2.267841250E-3
3.545379062E0,4.025753587E-3,1.229964755E-2,-2.267841250E-3
3.550218802E0,4.025753587E-3,1.352137700E-2,-1.046111807E-3
3.555059323E0,4.636618309E-3,1.413224079E-2,-1.656976528E-3
3.559900625E0,7.080078125E-3,1.474310644E-2,-4.352470860E-4
3.564741146E0,7.080078125E-3,1.535397023E-2,1.756176353E-4
3.569580833E0,9.523537010E-3,1.657569967E-2,7.864823565E-4
3.574421354E0,1.074526459E-2,1.657569967E-2,2.008211799E-3
3.579262656E0,1.074526459E-2,1.840829477E-2,2.008211799E-3
3.584103177E0,1.074526459E-2,2.146261744E-2,1.397346146E-3
3.588942916E0,1.196699589E-2,2.329521254E-2,7.864823565E-4
3.593783437E0,1.502131857E-2,2.512780577E-2,-4.352470860E-4
3.598624739E0,1.624304801E-2,2.634953707E-2,-2.267841250E-3
3.603465260E0,1.746477745E-2,2.818213031E-2,-2.878705971E-3
3.608305000E0,1.929737255E-2,2.818213031E-2,-4.100435413E-3
3.613145468E0,1.929737255E-2,2.818213031E-2,-5.322164856E-3
3.617986771E0,1.807564124E-2,2.573867142E-2,-4.711300135E-3
3.622827291E0,1.685391366E-2,2.207348309E-2,-5.322164856E-3
3.627667031E0,1.685391366E-2,1.901915856E-2,-5.322164856E-3
3.632507552E0,1.441045478E-2,1.718656532E-2,-3.489570692E-3
3.637348854E0,1.074526459E-2,1.596483588E-2,-2.878705971E-3
3.642189375E0,8.301805705E-3,1.535397023E-2,-4.352470860E-4
3.647029114E0,5.247483030E-3,1.657569967E-2,-4.352470860E-4
3.651869635E0,2.804024145E-3,1.901915856E-2,1.756176353E-4
3.656710937E0,9.714299813E-4,2.207348309E-2,7.864823565E-4
3.661551458E0,9.714299813E-4,2.390607819E-2,2.008211799E-3
3.666391146E0,2.804024145E-3,2.634953707E-2,7.864823565E-4
3.671231666E0,7.080078125E-3,2.818213031E-2,1.397346146E-3
3.676072968E0,1.257785968E-2,2.940385975E-2,-4.352470860E-4
3.680913489E0,1.868650690E-2,3.184731677E-2,-2.267841250E-3
3.685753229E0,2.357342467E-2,3.490164131E-2,-1.656976528E-3
3.690593750E0,2.907120809E-2,3.856683150E-2,-1.046111807E-3
3.695435052E0,3.456899151E-2,4.101029038E-2,-2.267841250E-3
3.700275573E0,3.701244667E-2,4.406461120E-2,-2.267841250E-3
3.705115260E0,3.762331232E-2,4.772980139E-2,-4.100435413E-3
3.709955781E0,3.701244667E-2,4.772980139E-2,-2.267841250E-3
3.714797083E0,3.334726021E-2,4.772980139E-2,-2.267841250E-3
3.719637604E0,3.029293567E-2,4.650807381E-2,-2.878705971E-3
3.724477343E0,2.479515597E-2,4.284288362E-2,-3.489570692E-3
3.729317864E0,1.990823634E-2,3.917769343E-2,-4.711300135E-3
3.734159166E0,1.441045478E-2,3.612337261E-2,-5.933029577E-3
3.738999687E0,1.135613024E-2,3.490164131E-2,-6.543894298E-3
3.743839427E0,8.301805705E-3,3.245818242E-2,-6.543894298E-3
3.748679896E0,2.193159424E-3,3.184731677E-2,-5.322164856E-3
3.753521250E0,-2.082893625E-3,3.184731677E-2,-4.100435413E-3
3.758361718E0,-6.358946674E-3,3.306904808E-2,-4.711300135E-3
3.763201458E0,-1.185672916E-2,3.551250696E-2,-3.489570692E-3
3.768041979E0,-1.613278314E-2,3.734510019E-2,-4.711300135E-3
3.772883281E0,-1.796537638E-2,3.978855908E-2,-4.711300135E-3
3.777723802E0,-1.857624203E-2,4.162115604E-2,-4.711300135E-3
3.782563541E0,-1.674364693E-2,4.406461120E-2,-4.100435413E-3
3.787404062E0,-1.552191749E-2,4.528634250E-2,-3.489570692E-3
3.792245364E0,-1.246759389E-2,4.650807381E-2,-2.878705971E-3
3.797085885E0,-8.191540837E-3,4.650807381E-2,-2.878705971E-3
3.801925573E0,-6.358946674E-3,4.528634250E-2,-2.267841250E-3
3.806766093E0,-2.082893625E-3,4.162115604E-2,-2.878705971E-3
3.811607396E0,-2.502994612E-4,3.978855908E-2,-4.100435413E-3
3.816447916E0,1.582294703E-3,3.612337261E-2,-4.711300135E-3
3.821287656E0,3.414888866E-3,3.306904808E-2,-5.322164856E-3
3.826128177E0,5.858346820E-3,3.001472354E-2,-6.543894298E-3
3.830969479E0,5.858346820E-3,2.573867142E-2,-7.154759020E-3
3.835810000E0,6.469212472E-3,2.268434688E-2,-7.154759020E-3
3.840649739E0,8.301805705E-3,2.146261744E-2,-8.987353183E-3
3.845490208E0,8.301805705E-3,1.840829477E-2,-8.987353183E-3
3.850331510E0,9.523537010E-3,1.657569967E-2,-8.376488462E-3
3.855172031E0,8.301805705E-3,1.474310644E-2,-8.376488462E-3
3.860011771E0,6.469212472E-3,1.291051134E-2,-8.376488462E-3
3.864852291E0,7.080078125E-3,1.168878190E-2,-8.987353183E-3
3.869693593E0,4.636618309E-3,9.856188670E-3,-8.987353183E-3
3.874534114E0,3.414888866E-3,9.245323017E-3,-7.765623741E-3
3.879373854E0,2.193159424E-3,6.801864598E-3,-8.376488462E-3
3.884214375E0,1.582294703E-3,6.190999877E-3,-7.765623741E-3
3.889055677E0,-8.611641824E-4,3.747540992E-3,-7.765623741E-3
3.893896198E0,-2.502994612E-4,1.304082107E-3,-6.543894298E-3
3.898735885E0,9.714299813E-4,8.235266432E-5,-5.933029577E-3
3.903576406E0,9.714299813E-4,-5.285120569E-4,-7.154759020E-3
3.908417708E0,2.804024145E-3,-5.285120569E-4,-5.933029577E-3
3.913258229E0,3.414888866E-3,8.235266432E-5,-4.711300135E-3
3.918097968E0,4.636618309E-3,2.525811549E-3,-4.711300135E-3
3.922938489E0,7.080078125E-3,5.580135155E-3,-3.489570692E-3
3.927779791E0,7.080078125E-3,8.023593575E-3,-4.100435413E-3
3.932620312E0,8.912671357E-3,1.046705246E-2,-3.489570692E-3
3.937460052E0,9.523537010E-3,1.168878190E-2,-4.100435413E-3
3.942300573E0,1.135613024E-2,1.291051134E-2,-4.100435413E-3
3.947141875E0,1.074526459E-2,1.291051134E-2,-4.100435413E-3
3.951982343E0,1.257785968E-2,1.291051134E-2,-5.933029577E-3
3.956822083E0,1.379958913E-2,1.229964755E-2,-5.322164856E-3
3.961662604E0,1.441045478E-2,1.107791811E-2,-5.322164856E-3
3.966503906E0,1.379958913E-2,1.107791811E-2,-4.100435413E-3
3.971344427E0,1.379958913E-2,1.229964755E-2,-4.100435413E-3
3.976184166E0,1.318872347E-2,1.168878190E-2,-3.489570692E-3
3.981024687E0,1.196699589E-2,1.291051134E-2,-2.878705971E-3
3.985865989E0,1.074526459E-2,1.352137700E-2,-1.656976528E-3
3.990706510E0,9.523537010E-3,1.413224079E-2,-2.267841250E-3
3.995546198E0,7.690941915E-3,1.596483588E-2,-1.656976528E-3
4.000386771E0,5.247483030E-3,1.840829477E-2,-4.352470860E-4
4.005228021E0,3.414888866E-3,1.840829477E-2,-1.046111807E-3
4.010068541E0,4.025753587E-3,1.963002421E-2,-2.878705971E-3
4.014908281E0,4.636618309E-3,2.085175365E-2,-1.656976528E-3
4.019748802E0,4.636618309E-3,2.329521254E-2,-2.267841250E-3
4.024590104E0,6.469212472E-3,2.634953707E-2,-2.267841250E-3
4.029430625E0,1.013440080E-2,3.123645484E-2,-2.267841250E-3
4.034270364E0,1.074526459E-2,3.551250696E-2,-2.878705971E-3
4.039110885E0,1.196699589E-2,3.917769343E-2,-2.878705971E-3
4.043952187E0,1.257785968E-2,4.284288362E-2,-2.878705971E-3
4.048792708E0,1.318872347E-2,4.528634250E-2,-2.267841250E-3
4.053632396E0,1.502131857E-2,4.589720815E-2,-4.711300135E-3
4.058472916E0,1.502131857E-2,4.589720815E-2,-5.933029577E-3
4.063314218E0,1.502131857E-2,4.223201796E-2,-4.711300135E-3
4.068154739E0,1.563218236E-2,3.856683150E-2,-5.933029577E-3
4.072994479E0,1.379958913E-2,3.367991373E-2,-6.543894298E-3
4.077835000E0,1.379958913E-2,2.940385975E-2,-5.933029577E-3
4.082676302E0,1.318872347E-2,2.634953707E-2,-7.154759020E-3
4.087516823E0,1.135613024E-2,2.146261744E-2,-7.154759020E-3
4.092356562E0,1.074526459E-2,1.840829477E-2,-7.154759020E-3
4.097197083E0,9.523537010E-3,1.413224079E-2,-7.765623741E-3
4.102038385E0,7.690941915E-3,1.107791811E-2,-7.765623741E-3
4.106878906E0,4.636618309E-3,8.634459227E-3,-8.376488462E-3
4.111718593E0,2.804024145E-3,5.580135155E-3,-7.154759020E-3
4.116559114E0,-8.611641824E-4,5.580135155E-3,-7.765623741E-3
4.121400416E0,-3.304623067E-3,6.190999877E-3,-5.933029577E-3
4.126240937E0,-4.526352510E-3,8.634459227E-3,-5.933029577E-3
4.131080677E0,-6.969811395E-3,1.168878190E-2,-3.489570692E-3
4.135921198E0,-8.802405559E-3,1.657569967E-2,-2.878705971E-3
4.140762500E0,-8.802405559E-3,1.963002421E-2,-2.878705971E-3
4.145603021E0,-9.413270280E-3,2.329521254E-2,-2.878705971E-3
4.150442760E0,-8.191540837E-3,2.634953707E-2,-4.711300135E-3
4.155283281E0,-6.358946674E-3,2.879299596E-2,-5.322164856E-3
4.160124583E0,-3.915487789E-3,3.001472354E-2,-6.543894298E-3
4.164965104E0,-8.611641824E-4,2.940385975E-2,-8.376488462E-3
4.169804791E0,3.414888866E-3,3.001472354E-2,-9.598217905E-3
4.174645312E0,5.247483030E-3,2.940385975E-2,-9.598217905E-3
4.179486614E0,8.301805705E-3,2.696040086E-2,-1.081994735E-2
4.184327135E0,1.135613024E-2,2.512780577E-2,-1.204167679E-2
4.189166875E0,1.257785968E-2,2.329521254E-2,-1.326340623E-2
4.194007396E0,1.379958913E-2,2.146261744E-2,-1.326340623E-2
4.198848698E0,1.441045478E-2,2.085175365E-2,-1.326340623E-2
4.203689218E0,1.441045478E-2,2.146261744E-2,-1.326340623E-2
4.208528958E0,1.441045478E-2,2.390607819E-2,-1.448513567E-2
4.213369479E0,1.441045478E-2,2.573867142E-2,-1.448513567E-2
4.218210781E0,1.563218236E-2,2.818213031E-2,-1.509600040E-2
4.223051302E0,1.624304801E-2,3.001472354E-2,-1.570686512E-2
4.227890989E0,1.685391366E-2,3.245818242E-2,-1.448513567E-2
4.232731510E0,1.807564124E-2,3.306904808E-2,-1.509600040E-2
4.237572812E0,1.624304801E-2,3.184731677E-2,-1.387427095E-2
4.242413333E0,1.624304801E-2,3.123645484E-2,-1.570686512E-2
4.247253073E0,1.807564124E-2,2.818213031E-2,-1.448513567E-2
4.252093593E0,1.746477745E-2,2.512780577E-2,-1.570686512E-2
4.256934896E0,1.868650690E-2,2.085175365E-2,-1.509600040E-2
4.261775416E0,1.929737255E-2,1.901915856E-2,-1.448513567E-2
4.266615156E0,1.868650690E-2,1.718656532E-2,-1.387427095E-2
4.271455677E0,1.929737255E-2,1.413224079E-2,-1.387427095E-2
4.276296979E0,1.868650690E-2,1.168878190E-2,-1.204167679E-2
4.281137500E0,1.746477745E-2,9.245323017E-3,-1.265254151E-2
4.285977187E0,1.624304801E-2,6.801864598E-3,-1.081994735E-2
4.290817708E0,1.379958913E-2,5.580135155E-3,-1.143081207E-2
4.295659010E0,1.257785968E-2,3.136676271E-3,-1.020908263E-2
4.300499531E0,1.257785968E-2,1.304082107E-3,-1.020908263E-2
4.305339271E0,1.135613024E-2,6.932173856E-4,-9.598217905E-3
4.310179791E0,9.523537010E-3,-1.750241499E-3,-1.020908263E-2
4.315021093E0,8.301805705E-3,-2.971970942E-3,-7.765623741E-3
4.319861614E0,7.080078125E-3,-6.026294548E-3,-7.154759020E-3
4.324701354E0,4.636618309E-3,-7.248023991E-3,-6.543894298E-3
4.329541875E0,4.025753587E-3,-8.469752967E-3,-5.933029577E-3
4.334383177E0,3.414888866E-3,-9.080618620E-3,-5.322164856E-3
4.339223698E0,2.193159424E-3,-9.080618620E-3,-4.711300135E-3
4.344063385E0,9.714299813E-4,-9.691482410E-3,-3.489570692E-3
4.348903958E0,2.193159424E-3,-8.469752967E-3,-2.878705971E-3
4.353745208E0,1.582294703E-3,-8.469752967E-3,-2.267841250E-3
4.358585729E0,3.605652601E-4,-7.858889177E-3,-4.352470860E-4
4.363425468E0,-2.502994612E-4,-7.248023991E-3,7.864823565E-4
4.368265989E0,-2.502994612E-4,-7.248023991E-3,1.397346146E-3
4.373107291E0,-2.082893625E-3,-6.637159269E-3,3.229941241E-3
4.377947812E0,-2.082893625E-3,-6.637159269E-3,3.229941241E-3
4.382787552E0,-3.304623067E-3,-4.804565106E-3,3.229941241E-3
4.387628073E0,-6.358946674E-3,-3.582835663E-3,3.840805031E-3
4.392469375E0,-6.969811395E-3,-2.971970942E-3,4.451670684E-3
4.397309896E0,-8.191540837E-3,-4.804565106E-3,5.062536336E-3
4.402149635E0,-1.063499972E-2,-5.415429827E-3,5.673400126E-3
4.406990156E0,-1.185672916E-2,-5.415429827E-3,3.840805031E-3
4.411831458E0,-1.246759389E-2,-5.415429827E-3,2.619077452E-3
4.416671979E0,-1.307845861E-2,-4.193700384E-3,2.008211799E-3
4.421511666E0,-9.413270280E-3,-4.193700384E-3,1.756176353E-4
4.426352187E0,-8.191540837E-3,-1.139376778E-3,1.756176353E-4
4.431193489E0,-4.526352510E-3,1.914946828E-3,-4.352470860E-4
4.436034010E0,-2.502994612E-4,3.136676271E-3,-4.352470860E-4
4.440873750E0,4.025753587E-3,4.969270434E-3,-2.267841250E-3
4.445714271E0,7.690941915E-3,6.190999877E-3,-3.489570692E-3
4.450555573E0,1.013440080E-2,7.412729319E-3,-4.100435413E-3
4.455396093E0,1.379958913E-2,8.023593575E-3,-5.933029577E-3
4.460235833E0,1.807564124E-2,8.023593575E-3,-8.376488462E-3
4.465076354E0,1.929737255E-2,7.412729319E-3,-8.376488462E-3
4.469917656E0,2.112996578E-2,7.412729319E-3,-8.987353183E-3
4.474758177E0,2.174083143E-2,6.801864598E-3,-8.376488462E-3
4.479597916E0,2.112996578E-2,6.801864598E-3,-5.933029577E-3
4.484438437E0,2.112996578E-2,1.046705246E-2,-1.046111807E-3
4.489279687E0,2.174083143E-2,1.352137700E-2,3.229941241E-3
4.494120260E0,2.174083143E-2,1.718656532E-2,9.338588454E-3
4.498959948E0,2.357342467E-2,2.329521254E-2,1.300377678E-2
4.503800468E0,2.540601790E-2,2.818213031E-2,1.850155741E-2
4.508641771E0,2.784947678E-2,3.245818242E-2,2.216674760E-2
4.513482291E0,3.273639455E-2,3.367991373E-2,2.583193406E-2
4.518322031E0,3.701244667E-2,3.367991373E-2,2.827539295E-2
4.523162552E0,4.434282705E-2,3.429077566E-2,3.010798991E-2
4.528003854E0,5.411666259E-2,3.612337261E-2,3.071885183E-2
4.532844375E0,6.389050186E-2,4.162115604E-2,3.071885183E-2
4.537684114E0,7.427519560E-2,5.078412592E-2,2.827539295E-2
4.542524635E0,9.015767276E-2,6.483401358E-2,2.277760953E-2
4.547365937E0,1.084836274E-1,8.193822205E-2,1.483637188E-2
4.552206458E0,1.304747462E-1,9.904243797E-2,5.062536336E-3
4.557046198E0,1.567419320E-1,1.149249226E-1,-8.376488462E-3
4.561886666E0,1.830091178E-1,1.320291311E-1,-2.303724177E-2
4.566727968E0,2.123306245E-1,1.503550708E-1,-4.014145583E-2
4.571568489E0,2.410412580E-1,1.686810106E-1,-5.785652995E-2
4.576408229E0,2.715845108E-1,1.857852340E-1,-7.801506668E-2
4.581248750E0,3.002951443E-1,1.998351216E-1,-9.939533472E-2
4.586090052E0,3.302275240E-1,2.102198154E-1,-1.189430058E-1
4.590930573E0,3.595490456E-1,2.169393301E-1,-1.354363412E-1
4.595770312E0,3.821510375E-1,2.193827927E-1,-1.494862288E-1
4.600610833E0,4.041421711E-1,2.120524049E-1,-1.592600644E-1
4.605452135E0,4.224680960E-1,1.967807859E-1,-1.647578478E-1
4.610292656E0,4.377397299E-1,1.741787940E-1,-1.672013104E-1
4.615132396E0,4.493461549E-1,1.466898918E-1,-1.690338999E-1
4.619972916E0,4.621742964E-1,1.179792434E-1,-1.733099520E-1
4.624814218E0,4.743916094E-1,8.621428162E-2,-1.769751459E-1
4.629654739E0,4.866088927E-1,5.567104369E-2,-1.824729294E-1
4.634494479E0,5.006587505E-1,2.512780577E-2,-1.885815710E-1
4.639334948E0,5.147086382E-1,-4.193700384E-3,-1.959119588E-1
4.644176302E0,5.305911303E-1,-2.985001728E-2,-1.983554065E-1
4.649016823E0,5.421975255E-1,-5.489547178E-2,-1.953010857E-1
4.653856510E0,5.483062267E-1,-7.810833305E-2,-1.885815710E-1
4.658697031E0,5.489170551E-1,-9.521254152E-2,-1.781968772E-1
4.663538333E0,5.446410179E-1,-1.037646532E-1,-1.672013104E-1
4.668378854E0,5.318128467E-1,-1.049863771E-1,-1.592600644E-1
4.673218593E0,5.128760338E-1,-9.704513848E-2,-1.513188332E-1
4.678059114E0,4.896632135E-1,-7.871919870E-2,-1.433775872E-1
4.682900416E0,4.640069008E-1,-5.000855401E-2,-1.329928935E-1
4.687740937E0,4.420157671E-1,-9.691482410E-3,-1.232190579E-1
4.692580677E0,4.273550212E-1,4.039942473E-2,-1.140560880E-1
4.697421198E0,4.212463796E-1,9.782070667E-2,-1.073365733E-1
4.702262500E0,4.236898422E-1,1.527985334E-1,-1.036713868E-1
4.707103021E0,4.371288419E-1,1.967807859E-1,-1.042822525E-1
4.711942760E0,4.572874010E-1,2.230479717E-1,-1.079474390E-1
4.716783229E0,4.817219675E-1,2.273240238E-1,-1.189430058E-1
4.721624583E0,5.073782802E-1,2.035003006E-1,-1.342146248E-1
4.726465104E0,5.299802423E-1,1.509659439E-1,-1.531514227E-1
4.731304791E0,5.489170551E-1,7.033179700E-2,-1.733099520E-1
4.736145312E0,5.617452264E-1,-3.595866635E-2,-1.928576231E-1
4.740986614E0,5.690755844E-1,-1.605750620E-1,-2.069075108E-1
4.745827135E0,5.733516812E-1,-2.967979014E-1,-2.148487568E-1
4.750666875E0,5.733516812E-1,-4.379076660E-1,-2.160704881E-1
4.755507396E0,5.666321516E-1,-5.765739083E-1,-2.105727047E-1
4.760348698E0,5.586909056E-1,-7.060772777E-1,-1.977445483E-1
4.765189218E0,5.470844507E-1,-8.221415281E-1,-1.794186085E-1
4.770028958E0,5.312020183E-1,-9.168255925E-1,-1.580383331E-1
4.774869479E0,5.128760338E-1,-9.913510680E-1,-1.336037517E-1
4.779710781E0,4.908849299E-1,-1.043274522E0,-1.079474390E-1
4.784551302E0,4.658395052E-1,-1.073206902E0,-8.045852929E-2
4.789391041E0,4.365179837E-1,-1.085424185E0,-5.113701895E-2
4.794231562E0,4.059747458E-1,-1.079926491E0,-1.937205344E-2
4.799072864E0,3.723771870E-1,-1.063433170E0,1.544723567E-2
4.803913385E0,3.400013745E-1,-1.037776828E0,5.148825049E-2
4.808753073E0,3.100689948E-1,-1.004790068E0,8.752927184E-2
4.813593593E0,2.831909359E-1,-9.650838971E-1,1.180725023E-1
4.818434896E0,2.611998022E-1,-9.211016297E-1,1.431179643E-1
4.823275416E0,2.404303998E-1,-8.795628548E-1,1.614439040E-1
4.828115156E0,2.276022434E-1,-8.386349082E-1,1.767155230E-1
4.832955677E0,2.227153182E-1,-8.001503944E-1,1.883219630E-1
4.837796979E0,2.233261913E-1,-7.683854699E-1,2.011501193E-1
4.842637500E0,2.282131016E-1,-7.445617318E-1,2.200869173E-1
4.847477239E0,2.318782955E-1,-7.292901278E-1,2.451323718E-1
4.852317760E0,2.294348329E-1,-7.256249189E-1,2.726212740E-1
4.857159062E0,2.276022434E-1,-7.317335606E-1,2.982775867E-1
4.861999583E0,2.196609974E-1,-7.457834482E-1,3.202687204E-1
4.866839323E0,2.013350576E-1,-7.671636939E-1,3.379837871E-1
4.871679843E0,1.750678718E-1,-7.952635288E-1,3.514228165E-1
4.876521146E0,1.408594400E-1,-8.313044906E-1,3.587532043E-1
4.881361666E0,9.687718749E-2,-8.807845712E-1,3.587532043E-1
4.886201406E0,4.434282705E-2,-9.406493306E-1,3.538662791E-1
4.891041927E0,-1.002413500E-2,-1.012731314E0,3.453141749E-1
4.895883229E0,-6.866714358E-2,-1.097030640E0,3.312642872E-1
4.900723750E0,-1.279210299E-1,-1.190492988E0,3.147709370E-1
4.905563489E0,-1.853423119E-1,-1.291285634E0,2.976667285E-1
4.910403958E0,-2.342114896E-1,-1.391467452E0,2.787299156E-1
4.915245260E0,-2.769719958E-1,-1.488595009E0,2.585713863E-1
4.920085781E0,-3.111804426E-1,-1.583889842E0,2.384128720E-1
4.924925521E0,-3.343932927E-1,-1.673076153E0,2.182543278E-1
4.929766041E0,-3.459997177E-1,-1.756764531E0,1.980957985E-1
4.934607343E0,-3.435562551E-1,-1.829457521E0,1.803807169E-1
4.939447864E0,-3.295063674E-1,-1.890543938E0,1.638873667E-1
4.944287604E0,-3.020174503E-1,-1.935137033E0,1.498374790E-1
4.949128125E0,-2.610895336E-1,-1.962625980E0,1.382310539E-1
4.953969427E0,-2.140529603E-1,-1.972399831E0,1.296789497E-1
4.958809948E0,-1.615185887E-1,-1.963847756E0,1.229594275E-1
4.963649687E0,-1.089842170E-1,-1.938802242E0,1.180725023E-1
4.968490208E0,-6.011504307E-2,-1.901539564E0,1.144073233E-1
4.973331510E0,-1.613278314E-2,-1.855113745E0,1.119638607E-1
4.978172031E0,2.174083143E-2,-1.806855440E0,1.113530025E-1
4.983011771E0,5.350579694E-2,-1.756764531E0,1.150181815E-1
4.987852291E0,7.488605380E-2,-1.708506227E0,1.241811588E-1
4.992693593E0,8.771422505E-2,-1.665134907E0,1.376201808E-1
4.997534114E0,9.199027717E-2,-1.627261281E0,1.522809416E-1
5.002373854E0,9.015767276E-2,-1.595496297E0,1.669416875E-1
5.007214375E0,8.221644163E-2,-1.569839954E0,1.816024482E-1
5.012055677E0,7.183173299E-2,-1.547848821E0,1.944306046E-1
5.016896198E0,5.961444601E-2,-1.524025083E0,2.066479027E-1
5.021735885E0,4.189936444E-2,-1.500812292E0,2.139782757E-1
5.026576406E0,2.112996578E-2,-1.479431987E0,2.182543278E-1
5.031417708E0,-6.358946674E-3,-1.462327719E0,2.176434696E-1
5.036258229E0,-3.690218180E-2,-1.451943040E0,2.109239548E-1
5.041097968E0,-7.416492701E-2,-1.453164816E0,2.005392462E-1
5.045938489E0,-1.132602692E-1,-1.468436480E0,1.840459108E-1
5.050779791E0,-1.517447531E-1,-1.500812292E0,1.644982398E-1
5.055620312E0,-1.890075058E-1,-1.550292253E0,1.400636435E-1
5.060460052E0,-2.183290124E-1,-1.613822222E0,1.144073233E-1
5.065300573E0,-2.397092730E-1,-1.684682488E0,8.447495103E-2
5.070141875E0,-2.445961982E-1,-1.756153703E0,5.393171310E-2
5.074982396E0,-2.348223627E-1,-1.819072723E0,2.644279972E-2
5.079822135E0,-2.091660351E-1,-1.868552804E0,1.397346146E-3
5.084662656E0,-1.706815660E-1,-1.894819975E0,-2.425897121E-2
5.089503958E0,-1.205906570E-1,-1.894209146E0,-4.563923553E-2
5.094344479E0,-6.500196457E-2,-1.865498543E0,-6.396517903E-2
5.099184218E0,-8.191540837E-3,-1.810520649E0,-8.045852929E-2
5.104024739E0,4.800801352E-2,-1.737216949E0,-9.573014826E-2
5.108866041E0,9.626632929E-2,-1.654750109E0,-1.103908941E-1
5.113706562E0,1.347507983E-1,-1.571672559E0,-1.232190579E-1
5.118546302E0,1.585745215E-1,-1.497147083E0,-1.360472143E-1
5.123386823E0,1.720135510E-1,-1.428730249E0,-1.525405496E-1
5.128228125E0,1.775113344E-1,-1.365200281E0,-1.684230417E-1
5.133068646E0,1.732352823E-1,-1.301059484E0,-1.843055189E-1
5.137908333E0,1.646831781E-1,-1.238751292E0,-2.001880109E-1
5.142748854E0,1.579636633E-1,-1.174610496E0,-2.136270255E-1
5.147590156E0,1.536876112E-1,-1.111691475E0,-2.246225923E-1
5.152430677E0,1.542984694E-1,-1.049994111E0,-2.301203758E-1
5.157270416E0,1.585745215E-1,-9.913510680E-1,-2.319529653E-1
5.162110937E0,1.659048945E-1,-9.333189130E-1,-2.252334505E-1
5.166952239E0,1.744570136E-1,-8.771193624E-1,-2.130161673E-1
5.171792760E0,1.793439239E-1,-8.245850205E-1,-1.983554065E-1
5.176632500E0,1.787330657E-1,-7.775484324E-1,-1.781968772E-1
5.181473021E0,1.677374989E-1,-7.360095978E-1,-1.568166167E-1
5.186314323E0,1.475789547E-1,-6.975251436E-1,-1.384906769E-1
5.191154843E0,1.182574481E-1,-6.633167267E-1,-1.213864610E-1
5.195994583E0,7.855124772E-2,-6.291083097E-1,-1.055039838E-1
5.200835104E0,2.968207374E-2,-5.942890048E-1,-8.962149918E-2
5.205676406E0,-2.529575303E-2,-5.613023043E-1,-7.190641761E-2
5.210516927E0,-8.271703124E-2,-5.338134170E-1,-5.358047783E-2
5.215356666E0,-1.419709176E-1,-5.112113953E-1,-3.647626564E-2
5.220197187E0,-1.987813413E-1,-4.996050298E-1,-1.937205344E-2
5.225038489E0,-2.519265711E-1,-4.965507090E-1,-2.878705971E-3
5.229879010E0,-3.026283383E-1,-5.026593208E-1,1.239291299E-2
5.234718750E0,-3.472214639E-1,-5.185417533E-1,2.155588195E-2
5.239559271E0,-3.863168061E-1,-5.448089838E-1,2.461020648E-2
5.244400573E0,-4.162491560E-1,-5.777956843E-1,2.094501629E-2
5.249241093E0,-4.370185733E-1,-6.168910265E-1,1.544723567E-2
5.254080833E0,-4.504576027E-1,-6.639275551E-1,7.505995221E-3
5.258921354E0,-4.559553564E-1,-7.158510685E-1,-1.656976528E-3
5.263762656E0,-4.529010355E-1,-7.751049399E-1,-1.204167679E-2
5.268603177E0,-4.455706775E-1,-8.398566246E-1,-2.059378289E-2
5.273442864E0,-4.370185733E-1,-9.033865333E-1,-3.220021352E-2
5.278283385E0,-4.278555810E-1,-9.687491059E-1,-4.319577664E-2
5.283124739E0,-4.193034768E-1,-1.027392149E0,-5.541307479E-2
5.287965260E0,-4.113622606E-1,-1.078093886E0,-6.701949984E-2
5.292804948E0,-4.015884101E-1,-1.121465206E0,-7.923679799E-2
5.297645468E0,-3.893711269E-1,-1.154451966E0,-9.145408869E-2
5.302486771E0,-3.753212392E-1,-1.180108309E0,-1.030605212E-1
5.307327291E0,-3.606604636E-1,-1.194769025E0,-1.128343567E-1
5.312167031E0,-3.459997177E-1,-1.201488495E0,-1.238299236E-1
5.317007552E0,-3.343932927E-1,-1.204542875E0,-1.323820204E-1
5.321848854E0,-3.264520466E-1,-1.202710271E0,-1.403232664E-1
5.326689375E0,-3.233977258E-1,-1.199045062E0,-1.470427662E-1
5.331529114E0,-3.233977258E-1,-1.197823405E0,-1.562057436E-1
5.336369635E0,-3.240085840E-1,-1.195990801E0,-1.672013104E-1
5.341210937E0,-3.258411884E-1,-1.197212458E0,-1.800294667E-1
5.346051458E0,-3.252303302E-1,-1.198434234E0,-1.934684962E-1
5.350891198E0,-3.209542632E-1,-1.202099442E0,-2.081292421E-1
5.355731718E0,-3.130130172E-1,-1.205764532E0,-2.203465402E-1
5.360573021E0,-3.020174503E-1,-1.213705778E0,-2.331746966E-1
5.365413541E0,-2.904110253E-1,-1.225312233E0,-2.423376739E-1
5.370253281E0,-2.763611376E-1,-1.238140464E0,-2.551658452E-1
5.375093802E0,-2.598677874E-1,-1.252190351E0,-2.661614120E-1
5.379935104E0,-2.421527356E-1,-1.269905329E0,-2.765461206E-1
5.384775625E0,-2.250485271E-1,-1.290063977E0,-2.869307995E-1
5.389615364E0,-2.091660351E-1,-1.309611559E0,-2.991481125E-1
5.394455885E0,-1.957270205E-1,-1.324272394E0,-3.107545376E-1
5.399297187E0,-1.841205806E-1,-1.334657073E0,-3.193066418E-1
5.404137708E0,-1.792336702E-1,-1.337100506E0,-3.229718208E-1
5.408977448E0,-1.804554015E-1,-1.334046125E0,-3.229718208E-1
5.413817968E0,-1.896183640E-1,-1.322439790E0,-3.174740374E-1
5.418659271E0,-2.091660351E-1,-1.305335522E0,-3.052567542E-1
5.423499791E0,-2.372658104E-1,-1.287620425E0,-2.881525457E-1
5.428339531E0,-2.720851004E-1,-1.271127105E0,-2.692157328E-1
5.433180052E0,-3.087369800E-1,-1.258298993E0,-2.508897781E-1
5.438021354E0,-3.478323221E-1,-1.249135971E0,-2.331746966E-1
5.442861875E0,-3.850950599E-1,-1.250968575E0,-2.197356820E-1
5.447701562E0,-4.186926186E-1,-1.265629292E0,-2.075183839E-1
5.452542083E0,-4.474032521E-1,-1.288842201E0,-1.995771378E-1
5.457383437E0,-4.742813110E-1,-1.323661447E0,-1.922467649E-1
5.462223906E0,-4.987159073E-1,-1.366422057E0,-1.873598397E-1
5.467063646E0,-5.182635784E-1,-1.415291190E0,-1.830837876E-1
5.471904166E0,-5.378112793E-1,-1.465382099E0,-1.812511981E-1
5.476745468E0,-5.543045998E-1,-1.512418628E0,-1.806403399E-1
5.481585989E0,-5.653001666E-1,-1.557011843E0,-1.855272502E-1
5.486425729E0,-5.732414126E-1,-1.591220260E0,-1.904141754E-1
5.491266250E0,-5.744631290E-1,-1.616265655E0,-1.965228170E-1
5.496107552E0,-5.738523006E-1,-1.630926490E0,-2.050749213E-1
5.500948073E0,-5.665219426E-1,-1.630926490E0,-2.124052942E-1
5.505787812E0,-5.591915250E-1,-1.618098259E0,-2.191248089E-1
5.510628333E0,-5.481959581E-1,-1.587555051E0,-2.282877862E-1
5.515469635E0,-5.347569585E-1,-1.545405388E0,-2.392833531E-1
5.520310156E0,-5.194853544E-1,-1.492260098E0,-2.508897781E-1
5.525149896E0,-5.017702579E-1,-1.433006287E0,-2.643288076E-1
5.529990416E0,-4.828334153E-1,-1.367643714E0,-2.759352326E-1
5.534831718E0,-4.620640278E-1,-1.301670313E0,-2.863199413E-1
5.539672239E0,-4.370185733E-1,-1.234475255E0,-2.973155081E-1
5.544511979E0,-4.101405144E-1,-1.172777891E0,-3.083110750E-1
5.549352500E0,-3.802081347E-1,-1.117800117E0,-3.193066418E-1
5.554193802E0,-3.502757847E-1,-1.070763469E0,-3.284696043E-1
5.559034323E0,-3.203434050E-1,-1.036555052E0,-3.364108503E-1
5.563874062E0,-2.898001671E-1,-1.013953090E0,-3.437412381E-1
5.568714583E0,-2.629221082E-1,-1.003568411E0,-3.492390215E-1
5.573555885E0,-2.360440791E-1,-1.002346635E0,-3.516824841E-1
5.578396406E0,-2.122203559E-1,-1.007844448E0,-3.480172753E-1
5.583236146E0,-1.932835579E-1,-1.016396523E0,-3.400760293E-1
5.588076666E0,-1.841205806E-1,-1.023115993E0,-3.241935670E-1
5.592917968E0,-1.841205806E-1,-1.031057239E0,-3.040350080E-1
5.597758489E0,-1.963378787E-1,-1.042663693E0,-2.838764787E-1
5.602598229E0,-2.201616019E-1,-1.066487432E0,-2.618853450E-1
5.607438750E0,-2.525374293E-1,-1.107415318E0,-2.350073010E-1
5.612280052E0,-2.934653461E-1,-1.170945287E0,-2.093509734E-1
5.617120573E0,-3.423345387E-1,-1.259520650E0,-1.843055189E-1
5.621960312E0,-3.991449475E-1,-1.385358810E0,-1.629252583E-1
5.626800833E0,-4.663400650E-1,-1.552735806E0,-1.458210498E-1
5.631642135E0,-5.445308089E-1,-1.765316725E0,-1.336037517E-1
5.636482656E0,-6.318844557E-1,-2.023712397E0,-1.256625056E-1
5.641322396E0,-7.265684605E-1,-2.321814537E0,-1.256625056E-1
5.646162916E0,-8.249176741E-1,-2.646183491E0,-1.366580725E-1
5.651004218E0,-9.220451713E-1,-2.982159138E0,-1.525405496E-1
5.655844739E0,-1.010620594E0,-3.308361053E0,-1.733099520E-1
5.660684479E0,-1.076593995E0,-3.604630470E0,-1.922467649E-1
5.665525000E0,-1.108969808E0,-3.850808859E0,-2.075183839E-1
5.670366302E0,-1.096141577E0,-4.031013966E0,-2.185139507E-1
5.675206823E0,-1.034444332E0,-4.128141880E0,-2.252334505E-1
5.680046510E0,-9.208234549E-1,-4.118367672E0,-2.362290174E-1
5.684887031E0,-7.558899522E-1,-3.979701281E0,-2.441702634E-1
5.689728385E0,-5.494176745E-1,-3.699314356E0,-2.490571886E-1
5.694568906E0,-3.124021590E-1,-3.282093763E0,-2.417268008E-1
5.699408593E0,-6.255850196E-2,-2.752474070E0,-2.160704881E-1
5.704249114E0,1.836199760E-1,-2.144663572E0,-1.739208251E-1
5.709090468E0,4.010878205E-1,-1.504477382E0,-1.110017598E-1
5.713930989E0,5.782385468E-1,-8.636803627E-1,-3.891972452E-2
5.718770677E0,7.089636326E-1,-2.460961193E-1,3.866009414E-2
5.723611198E0,7.908195257E-1,3.262841105E-1,1.125747189E-1
5.728452500E0,8.274713755E-1,8.223062754E-1,1.797698587E-1
5.733293021E0,8.274713755E-1,1.212037921E0,2.384128720E-1
5.738132760E0,7.932629585E-1,1.458216429E0,2.823951244E-1
5.742973281E0,7.266787291E-1,1.532131076E0,3.104948997E-1
5.747814583E0,6.289403439E-1,1.416066766E0,3.166035414E-1
5.752655104E0,5.043239594E-1,1.104525805E0,3.013319075E-1
5.757494843E0,3.534403741E-1,5.975080729E-1,2.701778114E-1
5.762335364E0,1.878960282E-1,-5.184114724E-2,2.243629843E-1
5.767176666E0,5.106233805E-2,-7.525029778E-1,1.669416875E-1
5.772017187E0,-4.301083088E-2,-1.433006287E0,9.363792092E-2
5.776856927E0,-9.065827727E-2,-2.032875538E0,6.284263916E-3
5.781697448E0,-8.943654597E-2,-2.530119419E0,-7.618246973E-2
5.786538750E0,-4.545428976E-2,-2.922294378E0,-1.409341246E-1
5.791379271E0,2.907120809E-2,-3.206957340E0,-1.824729294E-1
5.796219010E0,1.274204254E-1,-3.392660379E0,-2.007988691E-1
5.801059531E0,2.331000268E-1,-3.501394272E0,-2.044640630E-1
5.805900833E0,3.393904865E-1,-3.542322159E0,-2.044640630E-1
5.810741354E0,4.334636629E-1,-3.536213398E0,-2.124052942E-1
5.815581093E0,5.085999966E-1,-3.493453026E0,-2.270660549E-1
5.820421614E0,5.672429800E-1,-3.417094946E0,-2.411159426E-1
5.825262916E0,6.112252474E-1,-3.307749987E0,-2.472245842E-1
5.830103437E0,6.472662687E-1,-3.158088207E0,-2.417268008E-1
5.834943177E0,6.839181781E-1,-2.963222504E0,-2.234008610E-1
5.839783698E0,7.181265950E-1,-2.728039503E0,-1.953010857E-1
5.844625000E0,7.492806911E-1,-2.462924242E0,-1.653687209E-1
5.849465521E0,7.761587501E-1,-2.178261280E0,-1.397123933E-1
5.854305260E0,7.987607121E-1,-1.874050617E0,-1.152778193E-1
5.859145781E0,8.128105998E-1,-1.552124858E0,-9.023236483E-2
5.863987083E0,8.207518458E-1,-1.221036196E0,-6.763036549E-2
5.868827604E0,8.195301294E-1,-8.954452872E-1,-4.930442572E-2
5.873667343E0,7.993716002E-1,-5.839043260E-1,-3.464367241E-2
5.878507864E0,7.608871460E-1,-3.010739684E-1,-2.425897121E-2
5.883349166E0,7.034658194E-1,-6.100411713E-2,-1.326340623E-2
5.888189687E0,6.350489855E-1,1.253096163E-1,-4.352470860E-4
5.893029427E0,5.586909056E-1,2.542020679E-1,1.361464057E-2
5.897869948E0,4.853871763E-1,3.287275732E-1,3.010798991E-2
5.902711250E0,4.224680960E-1,3.635468483E-1,4.782306403E-2
5.907551771E0,3.699337244E-1,3.580490649E-1,6.370554864E-2
5.912391510E0,3.290058076E-1,3.128450811E-1,7.653370500E-2
5.917232031E0,3.021277487E-1,2.279348969E-1,8.508581668E-2
5.922073333E0,2.868561447E-1,1.143140569E-1,8.569667488E-2
5.926913854E0,2.874670029E-1,-1.641099527E-2,7.775543630E-2
5.931753593E0,3.045712113E-1,-1.569098830E-1,6.126208603E-2
5.936594114E0,3.387796283E-1,-2.955761850E-1,3.927095979E-2
5.941435416E0,3.778749704E-1,-4.397402704E-1,1.239291299E-2
5.946275937E0,4.139159918E-1,-5.906237960E-1,-1.265254151E-2
5.951115677E0,4.426266253E-1,-7.500594854E-1,-3.036761843E-2
5.955956198E0,4.597308338E-1,-9.131603837E-1,-4.625010118E-2
5.960797500E0,4.670612216E-1,-1.068320036E0,-5.785652995E-2
5.965638021E0,4.688938260E-1,-1.213705778E0,-6.396517903E-2
5.970477760E0,4.633960426E-1,-1.343819976E0,-6.396517903E-2
5.975318281E0,4.511787295E-1,-1.462327719E0,-5.724566802E-2
5.980159583E0,4.304093421E-1,-1.577170372E0,-4.136318341E-2
5.985000104E0,4.053638875E-1,-1.688347697E0,-1.753946021E-2
5.989839843E0,3.778749704E-1,-1.784253478E0,1.239291299E-2
5.994680364E0,3.589381576E-1,-1.853892088E0,4.476874322E-2
5.999521666E0,3.479425907E-1,-1.894819975E0,8.264235407E-2
6.004362187E0,3.467208743E-1,-1.913145900E0,1.223485544E-1
6.009201927E0,3.571055830E-1,-1.908259034E0,1.626656353E-1
6.014042448E0,3.797075748E-1,-1.878937483E0,2.048153132E-1
6.018883750E0,4.133051336E-1,-1.818461895E0,2.487975508E-1
6.023724271E0,4.578982592E-1,-1.731108308E0,2.952232659E-1
6.028564010E0,5.098217130E-1,-1.626650333E0,3.459250331E-1
6.033404531E0,5.660212636E-1,-1.520359874E0,3.996811509E-1
6.038245833E0,6.234425902E-1,-1.422621608E0,4.558807015E-1
6.043086354E0,6.790312529E-1,-1.336489677E0,5.145236850E-1
6.047926093E0,7.285112739E-1,-1.272348881E0,5.774427652E-1
6.052766614E0,7.712718248E-1,-1.224701405E0,6.391401291E-1
6.057607916E0,8.042585254E-1,-1.183773518E0,6.977831125E-1
6.062448437E0,8.238061666E-1,-1.151397586E0,7.484849095E-1
6.067288177E0,8.238061666E-1,-1.147121549E0,7.906345725E-1
6.072128698E0,8.036476374E-1,-1.158728004E0,8.187343478E-1
6.076970000E0,7.621088624E-1,-1.188049555E0,8.327842355E-1
6.081810521E0,7.028549910E-1,-1.223479629E0,8.327842355E-1
6.086650260E0,6.258860230E-1,-1.267461896E0,8.162908554E-1
6.091490781E0,5.391432047E-1,-1.323050618E0,7.863585353E-1
6.096332083E0,4.517896175E-1,-1.374974132E0,7.423762679E-1
6.101172604E0,3.748206496E-1,-1.412236810E0,6.873984337E-1
6.106012343E0,3.088472486E-1,-1.445834398E0,6.287553906E-1
6.110852864E0,2.526476979E-1,-1.477599382E0,5.701124072E-1
6.115694166E0,2.117197514E-1,-1.493481874E0,5.145236850E-1
6.120534687E0,1.909503490E-1,-1.483708024E0,4.626002014E-1
6.125374427E0,1.866742969E-1,-1.465992928E0,4.131201506E-1
6.130214948E0,1.885069013E-1,-1.448888779E0,3.703596294E-1
6.135056250E0,1.946155429E-1,-1.431784511E0,3.324860036E-1
6.139896771E0,2.062219679E-1,-1.403073907E0,2.940015495E-1
6.144736510E0,2.239370495E-1,-1.369476318E0,2.573496699E-1
6.149577031E0,2.440955788E-1,-1.329159260E0,2.243629843E-1
6.154418333E0,2.721953690E-1,-1.257077217E0,1.895436943E-1
6.159258854E0,2.990734279E-1,-1.170945287E0,1.553352624E-1
6.164098593E0,3.167884946E-1,-1.104361057E0,1.266246289E-1
6.168939114E0,3.186210990E-1,-1.067709208E0,1.076878086E-1
6.173780416E0,3.106798530E-1,-1.056713581E0,9.241618961E-2
6.178620937E0,3.002951443E-1,-1.059157014E0,8.080975711E-2
6.183460677E0,2.929647863E-1,-1.069541812E0,6.981419772E-2
6.188301198E0,2.874670029E-1,-1.090921998E0,6.065122038E-2
6.193142500E0,2.862452567E-1,-1.125130415E0,5.454257876E-2
6.197983021E0,2.880778611E-1,-1.177053928E0,4.843392968E-2
6.202822760E0,2.966299653E-1,-1.231420875E0,4.232528061E-2
6.207663281E0,3.125124574E-1,-1.281511784E0,3.377317637E-2
6.212504583E0,3.375579119E-1,-1.303502917E0,1.972328871E-2
6.217345156E0,3.632142246E-1,-1.311444163E0,4.451670684E-3
6.222184843E0,3.723771870E-1,-1.332213640E0,-4.100435413E-3
6.227025364E0,3.681011498E-1,-1.350539565E0,-7.154759020E-3
6.231866718E0,3.540512621E-1,-1.345652580E0,-5.933029577E-3
6.236707239E0,3.308383822E-1,-1.319996238E0,2.619077452E-3
6.241546927E0,3.039603531E-1,-1.287620425E0,1.666896418E-2
6.246387448E0,2.935756445E-1,-1.241805553E0,3.071885183E-2
6.251228802E0,2.972408235E-1,-1.184995174E0,4.782306403E-2
6.256069323E0,3.204537034E-1,-1.128795624E0,7.042505592E-2
6.260909062E0,3.662685454E-1,-1.057324409E0,8.997272700E-2
6.265749583E0,4.450700879E-1,-9.565317631E-1,9.974656254E-2
6.270590885E0,5.684647560E-1,-8.331370950E-1,9.852483869E-2
6.275431406E0,7.413394451E-1,-7.146293521E-1,7.775543630E-2
6.280271146E0,9.612507820E-1,-6.394929886E-1,2.705366537E-2
6.285111666E0,1.203764081E0,-6.211670637E-1,-5.785652995E-2
6.289952968E0,1.430394888E0,-6.291083097E-1,-1.610926688E-1
6.294793489E0,1.601436973E0,-6.095606089E-1,-2.588310242E-1
6.299633229E0,1.658247352E0,-5.099896789E-1,-3.339673877E-1
6.304473750E0,1.554400444E0,-2.949653268E-1,-3.791713715E-1
6.309315052E0,1.302113295E0,1.963002421E-2,-3.987190425E-1
6.314155573E0,9.832418561E-1,3.837053776E-1,-4.091037512E-1
6.318995312E0,6.826964617E-1,7.679393291E-1,-4.109363556E-1
6.323835833E0,4.517896175E-1,1.130792975E0,-3.913886845E-1
6.328677135E0,2.935756445E-1,1.455772996E0,-3.400760293E-1
6.333517656E0,1.909503490E-1,1.755096674E0,-2.667722702E-1
6.338357396E0,1.213117689E-1,2.051366091E0,-1.867489815E-1
6.343197916E0,7.671865821E-2,2.352522373E0,-1.189430058E-1
6.348039218E0,5.472752824E-2,2.626189709E0,-6.885209680E-2
6.352879739E0,4.495368898E-2,2.825942516E0,-4.441750795E-2
6.357719479E0,3.334726021E-2,2.924291849E0,-4.197404906E-2
6.362560000E0,1.868650690E-2,2.913296223E0,-6.213258579E-2
6.367401302E0,-3.304623067E-3,2.790512323E0,-1.091691703E-1
6.372241823E0,-2.896094136E-2,2.557772875E0,-1.928576231E-1
6.377081562E0,-5.706071854E-2,2.243788481E0,-3.168631792E-1
6.381922083E0,-8.332790434E-2,1.926138878E0,-4.854618311E-1
6.386763385E0,-9.615606070E-2,1.697064519E0,-6.876580715E-1
6.391603906E0,-7.966271043E-2,1.584054589E0,-9.014607072E-1
6.396443646E0,-2.896094136E-2,1.551678777E0,-1.107322097E0
6.401284166E0,4.800801352E-2,1.551678777E0,-1.283861995E0
6.406125468E0,1.378051192E-1,1.544959307E0,-1.402369738E0
6.410965989E0,2.202718556E-1,1.502198696E0,-1.433523774E0
6.415805729E0,2.941865027E-1,1.397740841E0,-1.366939545E0
6.420646250E0,3.601599038E-1,1.231585622E0,-1.205060482E0
6.425487552E0,4.041421711E-1,9.573073983E-1,-9.649906754E-1
6.430328073E0,4.047530293E-1,5.913994312E-1,-6.736081839E-1
6.435167812E0,3.454991579E-1,2.273240238E-1,-3.529042006E-1
6.440008333E0,2.013350576E-1,-1.165928096E-1,-2.364810556E-2
6.444849687E0,-2.502994612E-4,-4.727269709E-1,2.683452368E-1
6.449690208E0,-2.562026083E-1,-8.331370950E-1,4.931434393E-1
6.454529948E0,-5.372003913E-1,-1.145899892E0,6.452487707E-1
6.459370416E0,-8.188090324E-1,-1.377417564E0,7.258828878E-1
6.464211771E0,-1.088811278E0,-1.518527269E0,7.423762679E-1
6.469052291E0,-1.327659369E0,-1.571061730E0,7.124438882E-1
6.473892031E0,-1.529855609E0,-1.543572783E0,6.611312628E-1
6.478732552E0,-1.689902186E0,-1.434227943E0,6.177598238E-1
6.483573854E0,-1.807188153E0,-1.247303367E0,6.049317122E-1
6.488414375E0,-1.881102800E0,-1.006011844E0,6.250902414E-1
6.493254114E0,-1.919587255E0,-7.396748066E-1,6.678507328E-1
6.498094635E0,-1.925085068E0,-4.733378291E-1,7.240502834E-1
6.502935937E0,-1.909202576E0,-2.210506797E-1,7.808607221E-1
6.507776458E0,-1.884768009E0,6.801864598E-3,8.291190267E-1
6.512616198E0,-1.864609480E0,2.053329051E-1,8.676035404E-1
6.517456718E0,-1.854835629E0,3.696554899E-1,8.926489949E-1
6.522298021E0,-1.860333443E0,4.924392998E-1,9.079205990E-1
6.527138541E0,-1.871328950E0,5.736843348E-1,9.091423154E-1
6.531978281E0,-1.881102800E0,6.158339977E-1,8.975358605E-1
6.536818802E0,-1.881713629E0,6.237752438E-1,8.712686896E-1
6.541660104E0,-1.860333443E0,5.975080729E-1,8.321733475E-1
6.546500625E0,-1.811464190E0,5.413085222E-1,7.851367593E-1
6.551340364E0,-1.733884454E0,4.649503827E-1,7.332132459E-1
6.556180885E0,-1.630037427E0,3.916466236E-1,6.825115085E-1
6.561022187E0,-1.507864475E0,3.427774608E-1,6.293662786E-1
6.565862708E0,-1.376528502E0,3.104016185E-1,5.707232356E-1
6.570702448E0,-1.238473058E0,2.743605971E-1,5.139128566E-1
6.575542968E0,-1.099195957E0,2.352652699E-1,4.619893432E-1
6.580384323E0,-9.684709311E-1,2.004459798E-1,4.210613966E-1
6.585224843E0,-8.536283374E-1,1.711244732E-1,3.880746961E-1
6.590064583E0,-7.503921986E-1,1.589071751E-1,3.581423461E-1
6.594905104E0,-6.691471934E-1,1.778439879E-1,3.251556456E-1
6.599746406E0,-6.092824340E-1,2.303783596E-1,2.885037661E-1
6.604586927E0,-5.701870918E-1,3.018495142E-1,2.536844611E-1
6.609426666E0,-5.549154878E-1,3.892031610E-1,2.188652009E-1
6.614267187E0,-5.628567338E-1,4.979370832E-1,1.822133064E-1
6.619108489E0,-5.903456211E-1,6.164448857E-1,1.418962330E-1
6.623949010E0,-6.300518513E-1,7.196810246E-1,1.034117565E-1
6.628788750E0,-6.636493802E-1,7.874869704E-1,6.431641430E-2
6.633629271E0,-6.801427603E-1,8.198628426E-1,2.949712425E-2
6.638470573E0,-6.801427603E-1,8.308584094E-1,-5.933029577E-3
6.643311093E0,-6.612059474E-1,8.106998801E-1,-4.441750795E-2
6.648150833E0,-6.306627393E-1,7.569437623E-1,-8.534544706E-2
6.652991354E0,-5.927891135E-1,6.763095856E-1,-1.232190579E-1
6.657832656E0,-5.604132414E-1,5.828472972E-1,-1.531514227E-1
6.662673177E0,-5.359786749E-1,4.893849790E-1,-1.714773625E-1
6.667512916E0,-5.249831080E-1,4.050856531E-1,-1.775860041E-1
6.672353437E0,-5.249831080E-1,3.391122520E-1,-1.714773625E-1
6.677194739E0,-5.390329957E-1,2.951299846E-1,-1.568166167E-1
6.682035260E0,-5.665219426E-1,2.731388807E-1,-1.378798038E-1
6.686875000E0,-6.037846804E-1,2.682519555E-1,-1.177212745E-1
6.691715521E0,-6.495994925E-1,2.774149179E-1,-9.756273776E-2
6.696556823E0,-6.984686852E-1,2.932974100E-1,-8.168025315E-2
6.701397396E0,-7.473378778E-1,3.097907603E-1,-7.190641761E-2
6.706237135E0,-7.907092571E-1,3.177320063E-1,-6.885209680E-2
6.711077656E0,-8.285828829E-1,3.128450811E-1,-7.251728326E-2
6.715918958E0,-8.621804118E-1,2.908539474E-1,-8.106938750E-2
6.720759479E0,-8.884476423E-1,2.560346723E-1,-8.778890222E-2
6.725599218E0,-9.092170000E-1,2.083872259E-1,-9.267581999E-2
6.730439739E0,-9.238777757E-1,1.540202647E-1,-9.328668565E-2
6.735281041E0,-9.312081337E-1,9.598811716E-2,-9.145408869E-2
6.740121562E0,-9.354842305E-1,3.978855908E-2,-8.412371576E-2
6.744961302E0,-9.342624545E-1,-9.691482410E-3,-7.312814891E-2
6.749801823E0,-9.312081337E-1,-4.878682643E-2,-6.029999256E-2
6.754643125E0,-9.281538129E-1,-7.749746740E-2,-4.502837360E-2
6.759483646E0,-9.250994921E-1,-8.971475810E-2,-2.731329575E-2
6.764323385E0,-9.208234549E-1,-7.688660175E-2,-1.143081207E-2
6.769163906E0,-9.134930968E-1,-3.718039393E-2,8.116859011E-3
6.774005208E0,-9.031083584E-1,3.367991373E-2,2.888625860E-2
6.778845729E0,-8.866150379E-1,1.283639371E-1,4.782306403E-2
6.783685468E0,-8.652347922E-1,2.462608367E-1,6.492727995E-2
6.788525989E0,-8.353024125E-1,3.739315569E-1,7.897716761E-2
6.793367291E0,-7.955961823E-1,5.003805757E-1,8.997272700E-2
6.798207812E0,-7.479487658E-1,6.176666021E-1,9.608137608E-2
6.803047552E0,-6.935817599E-1,7.123506069E-1,9.547051042E-2
6.807888073E0,-6.324952841E-1,7.801566124E-1,9.180532396E-2
6.812729427E0,-5.683544874E-1,8.235279918E-1,8.630754054E-2
6.817569948E0,-4.999376237E-1,8.424648046E-1,8.264235407E-2
6.822409687E0,-4.302990437E-1,8.424648046E-1,7.531198114E-2
6.827250208E0,-3.600496054E-1,8.259714842E-1,6.553814560E-2
6.832091510E0,-2.934653461E-1,8.009260297E-1,5.148825049E-2
6.836932031E0,-2.348223627E-1,7.679393291E-1,3.132971749E-2
6.841771771E0,-1.890075058E-1,7.282330990E-1,1.056031790E-2
6.846612291E0,-1.596859992E-1,6.842508316E-1,-1.143081207E-2
6.851453593E0,-1.468578428E-1,6.341599226E-1,-3.281107917E-2
6.856294114E0,-1.438035071E-1,5.816255808E-1,-5.052615702E-2
6.861133854E0,-1.468578428E-1,5.431411266E-1,-5.907826126E-2
6.865974375E0,-1.578533947E-1,5.272586346E-1,-6.091085449E-2
6.870815677E0,-1.786227971E-1,5.333672762E-1,-6.152172014E-2
6.875656198E0,-2.048899829E-1,5.529149175E-1,-5.785652995E-2
6.880495937E0,-2.293245792E-1,5.767386556E-1,-4.686096683E-2
6.885336458E0,-2.476505190E-1,6.036167145E-1,-3.281107917E-2
6.890177760E0,-2.586460710E-1,6.341599226E-1,-1.998291910E-2
6.895018333E0,-2.592569292E-1,6.659249067E-1,-1.692859456E-2
6.899858021E0,-2.482613772E-1,6.879160404E-1,-3.220021352E-2
6.904698593E0,-2.207724601E-1,6.921920776E-1,-6.518691033E-2
6.909539896E0,-1.767902076E-1,6.860834360E-1,-1.067257077E-1
6.914380416E0,-1.108168215E-1,6.732552648E-1,-1.507079601E-1
6.919220156E0,-2.712834626E-2,6.524859071E-1,-1.898033023E-1
6.924060677E0,7.183173299E-2,6.213318110E-1,-2.203465402E-1
6.928901979E0,1.769004613E-1,5.785712600E-1,-2.386724800E-1
6.933742500E0,2.807474732E-1,5.187065005E-1,-2.496680468E-1
6.938582239E0,3.735989332E-1,4.374614656E-1,-2.557767034E-1
6.943422760E0,4.456809461E-1,3.446100354E-1,-2.649396658E-1
6.948264062E0,4.951610267E-1,2.645867765E-1,-2.777678370E-1
6.953104583E0,5.183738470E-1,2.138850093E-1,-2.881525457E-1
6.957944323E0,5.299802423E-1,2.041111737E-1,-2.930394709E-1
6.962784843E0,5.360888839E-1,2.230479717E-1,-2.881525457E-1
6.967626146E0,5.458627343E-1,2.505368888E-1,-2.747135162E-1
6.972466718E0,5.660212636E-1,2.645867765E-1,-2.563875616E-1
6.977306406E0,5.904558897E-1,2.517586052E-1,-2.350073010E-1
6.982146927E0,6.197773814E-1,2.083872259E-1,-2.099618465E-1
6.986988281E0,6.533749104E-1,1.363051832E-1,-1.794186085E-1
6.991828802E0,6.912485361E-1,4.467547685E-2,-1.403232664E-1
6.996668541E0,7.248461246E-1,-6.039325148E-2,-9.206495434E-2
7.001509062E0,7.474480867E-1,-1.819553375E-1,-3.830885887E-2
7.006350364E0,7.517241240E-1,-3.108478189E-1,1.789069176E-2
7.011190885E0,7.315655947E-1,-4.372968078E-1,6.920333207E-2
7.016030625E0,6.912485361E-1,-5.545827746E-1,1.113530025E-1
7.020871146E0,6.387141943E-1,-6.620950103E-1,1.412853748E-1
7.025712448E0,5.849580765E-1,-7.586116195E-1,1.553352624E-1
7.030552968E0,5.434193015E-1,-8.392457366E-1,1.553352624E-1
7.035392708E0,5.220389962E-1,-9.094951749E-1,1.418962330E-1
7.040233229E0,5.354780555E-1,-9.864641428E-1,1.162399128E-1
7.045074531E0,5.812928677E-1,-1.073206902E0,7.897716761E-2
7.049915052E0,6.680356860E-1,-1.164836645E0,3.560576960E-2
7.054754791E0,7.883760333E-1,-1.249135971E0,-1.387427095E-2
7.059595312E0,9.392596483E-1,-1.317552805E0,-6.824123114E-2
7.064436666E0,1.113966942E0,-1.363978505E0,-1.232190579E-1
7.069277187E0,1.305778503E0,-1.389024019E0,-1.781968772E-1
7.074116927E0,1.501865983E0,-1.387802243E0,-2.313421071E-1
7.078957448E0,1.688790679E0,-1.362756848E0,-2.783786952E-1
7.083798750E0,1.860443592E0,-1.316941977E0,-3.162523210E-1
7.088639271E0,2.009494781E0,-1.247914314E0,-3.412977755E-1
7.093479010E0,2.128002405E0,-1.163004041E0,-3.559585214E-1
7.098319531E0,2.212301731E0,-1.065876603E0,-3.571802378E-1
7.103160833E0,2.263614416E0,-9.620295763E-1,-3.480172753E-1
7.108001354E0,2.277053595E0,-8.575717211E-1,-3.278587461E-1
7.112841093E0,2.258727551E0,-7.543355823E-1,-3.040350080E-1
7.117681614E0,2.211080074E0,-6.547645926E-1,-2.808221579E-1
7.122522916E0,2.139608860E0,-5.564153790E-1,-2.588310242E-1
7.127363437E0,2.049201012E0,-4.519575536E-1,-2.411159426E-1
7.132203177E0,1.952073336E0,-3.420019150E-1,-2.301203758E-1
7.137043698E0,1.850058913E0,-2.247158587E-1,-2.276769131E-1
7.141885052E0,1.753542304E0,-9.460167587E-2,-2.325638384E-1
7.146725573E0,1.658247352E0,2.573867142E-2,-2.429485321E-1
7.151565312E0,1.550735235E0,9.171205759E-2,-2.527223825E-1
7.156405833E0,1.429783940E0,8.743600547E-2,-2.637179494E-1
7.161247135E0,1.297226310E0,1.657569967E-2,-2.832656205E-1
7.166087656E0,1.174442530E0,-8.299525082E-2,-3.070893586E-1
7.170927396E0,1.079758525E0,-1.782901436E-1,-3.284696043E-1
7.175767916E0,1.007676482E0,-2.686981261E-1,-3.455738127E-1
7.180609218E0,9.429247975E-1,-3.768211901E-1,-3.565693796E-1
7.185449739E0,8.781731725E-1,-5.215960741E-1,-3.614563048E-1
7.190289479E0,8.152540922E-1,-6.859186888E-1,-3.614563048E-1
7.195130000E0,7.645522952E-1,-8.447435498E-1,-3.565693796E-1
7.199971302E0,7.217918038E-1,-9.950162172E-1,-3.529042006E-1
7.204811823E0,6.753660440E-1,-1.147121549E0,-3.486281335E-1
7.209651562E0,6.295512319E-1,-1.298005223E0,-3.419086337E-1
7.214492083E0,5.898450017E-1,-1.435449719E0,-3.351891339E-1
7.219333385E0,5.635778308E-1,-1.545405388E0,-3.284696043E-1
7.224173958E0,5.483062267E-1,-1.629704714E0,-3.168631792E-1
7.229013698E0,5.385323763E-1,-1.694456339E0,-3.009806871E-1
7.233854218E0,5.348671675E-1,-1.730497360E0,-2.820439041E-1
7.238695521E0,5.366997719E-1,-1.731719136E0,-2.612744868E-1
7.243536041E0,5.440301299E-1,-1.701786757E0,-2.386724800E-1
7.248375781E0,5.580800176E-1,-1.644976377E0,-2.130161673E-1
7.253216302E0,5.757951140E-1,-1.569229126E0,-1.788077354E-1
7.258057604E0,5.935102105E-1,-1.472712517E0,-1.348254830E-1
7.262898125E0,6.045057774E-1,-1.368865490E0,-8.168025315E-2
7.267737864E0,6.069492102E-1,-1.277846575E0,-1.998291910E-2
7.272578385E0,6.014514565E-1,-1.206986308E0,5.026652664E-2
7.277419739E0,5.874015689E-1,-1.155673742E0,1.229594275E-1
7.282260260E0,5.635778308E-1,-1.122076154E0,1.913762838E-1
7.287100000E0,5.250933170E-1,-1.110469699E0,2.542953193E-1
7.291940521E0,4.780567884E-1,-1.109247923E0,3.074405789E-1
7.296781823E0,4.261332750E-1,-1.108026266E0,3.459250331E-1
7.301622343E0,3.693228662E-1,-1.104361057E0,3.728030920E-1
7.306462083E0,3.131233156E-1,-1.087867737E0,3.868529797E-1
7.311302604E0,2.550911605E-1,-1.056713581E0,3.923507631E-1
7.316143906E0,2.001133263E-1,-1.009066105E0,3.923507631E-1
7.320984427E0,1.439137757E-1,-9.479796886E-1,3.911290169E-1
7.325824166E0,8.832508326E-2,-8.789519668E-1,3.899073005E-1
7.330664687E0,3.029293567E-2,-7.989286780E-1,3.911290169E-1
7.335505989E0,-2.590661868E-2,-7.146293521E-1,3.935724795E-1
7.340346510E0,-8.210617304E-2,-6.199453473E-1,3.978485465E-1
7.345186250E0,-1.401383281E-1,-5.222069621E-1,4.051789045E-1
7.350026771E0,-1.957270205E-1,-4.195817113E-1,4.106766880E-1
7.354868125E0,-2.482613772E-1,-3.248977065E-1,4.088441133E-1
7.359708646E0,-2.922436297E-1,-2.424309403E-1,3.990702629E-1
7.364548385E0,-3.240085840E-1,-1.740140915E-1,3.789117336E-1
7.369388906E0,-3.398910761E-1,-1.196471304E-1,3.514228165E-1
7.374230208E0,-3.405019343E-1,-8.482784033E-2,3.178252578E-1
7.379070729E0,-3.288955092E-1,-7.505400479E-2,2.823951244E-1
7.383910468E0,-3.007957339E-1,-9.399081767E-2,2.426889092E-1
7.388750989E0,-2.653655708E-1,-1.373622119E-1,2.005392462E-1
7.393592291E0,-2.213833332E-1,-2.021138668E-1,1.565569937E-1
7.398432812E0,-1.774010658E-1,-2.894675434E-1,1.107421294E-1
7.403272552E0,-1.407491863E-1,-3.963688612E-1,6.859246641E-2
7.408113073E0,-1.169254631E-1,-5.167092085E-1,3.194058314E-2
7.412954427E0,-1.053190380E-1,-6.449908018E-1,3.229941241E-3
7.417794896E0,-1.040973067E-1,-7.726615071E-1,-2.120464668E-2
7.422634687E0,-1.095950902E-1,-8.862823248E-1,-3.891972452E-2
7.427475208E0,-1.175363213E-1,-9.803555012E-1,-4.869356006E-2
7.432316510E0,-1.254775673E-1,-1.049994111E0,-5.113701895E-2
7.437157031E0,-1.364731342E-1,-1.098863244E0,-4.380664229E-2
7.441996771E0,-1.480795592E-1,-1.126352191E0,-2.853502333E-2
7.446837291E0,-1.615185887E-1,-1.134293437E0,-8.376488462E-3
7.451678593E0,-1.761793494E-1,-1.124519587E0,1.422550622E-2
7.456519114E0,-1.969487369E-1,-1.097030640E0,3.743836284E-2
7.461358854E0,-2.232159227E-1,-1.054270148E0,5.881863087E-2
7.466199375E0,-2.519265711E-1,-9.931836724E-1,7.897716761E-2
7.471040677E0,-2.788046002E-1,-9.265994430E-1,9.608137608E-2
7.475881250E0,-3.050717711E-1,-8.661237955E-1,1.113530025E-1
7.480720937E0,-3.264520466E-1,-8.105351329E-1,1.247920170E-1
7.485561458E0,-3.405019343E-1,-7.610550523E-1,1.400636435E-1
7.490402812E0,-3.441671133E-1,-7.097424269E-1,1.565569937E-1
7.495243333E0,-3.398910761E-1,-6.529320478E-1,1.730503440E-1
7.500083073E0,-3.276737928E-1,-5.839043260E-1,1.962631941E-1
7.504923593E0,-3.105695546E-1,-5.093787909E-1,2.261955738E-1
7.509764896E0,-2.922436297E-1,-4.324098825E-1,2.616257071E-1
7.514605416E0,-2.739176750E-1,-3.572735190E-1,3.037753701E-1
7.519445156E0,-2.519265711E-1,-2.858023643E-1,3.502011001E-1
7.524285677E0,-2.281028479E-1,-2.198289484E-1,3.954050839E-1
7.529126979E0,-2.000030726E-1,-1.556881517E-1,4.338895679E-1
7.533967500E0,-1.682381034E-1,-9.521254152E-2,4.607675970E-1
7.538807239E0,-1.340296715E-1,-4.023471847E-2,4.748174846E-1
7.543647760E0,-1.016538441E-1,5.580135155E-3,4.772609472E-1
7.548489114E0,-6.866714358E-2,4.895152897E-2,4.699305892E-1
7.553329635E0,-3.568045422E-2,8.865773678E-2,4.546589553E-1
7.558169375E0,-1.472028904E-3,1.332508624E-1,4.320569634E-1
7.563009896E0,3.334726021E-2,1.839526296E-1,4.039571881E-1
7.567851198E0,6.144703552E-2,2.316000760E-1,3.770791292E-1
7.572691718E0,7.183173299E-2,2.529803514E-1,3.587532043E-1
7.577531458E0,6.511221826E-2,2.389304638E-1,3.526445627E-1
7.582371979E0,4.984060675E-2,2.035003006E-1,3.520336747E-1
7.587213281E0,3.395812586E-2,1.558528543E-1,3.526445627E-1
7.592053802E0,2.540601790E-2,1.088162735E-1,3.532554209E-1
7.596893541E0,2.357342467E-2,6.483401358E-2,3.526445627E-1
7.601734114E0,2.846034244E-2,1.718656532E-2,3.538662791E-1
7.606575416E0,3.945590928E-2,-2.801742405E-2,3.563097417E-1
7.611415937E0,4.739714786E-2,-7.505400479E-2,3.611966670E-1
7.616255677E0,5.228406563E-2,-1.202580035E-1,3.673053086E-1
7.621096198E0,5.167319998E-2,-1.550772935E-1,3.709704876E-1
7.625937500E0,4.739714786E-2,-1.715706289E-1,3.715813458E-1
7.630778021E0,4.067763686E-2,-1.703488976E-1,3.673053086E-1
7.635617760E0,2.540601790E-2,-1.556881517E-1,3.599749207E-1
7.640458281E0,5.247483030E-3,-1.318644285E-1,3.502011001E-1
7.645299583E0,-1.491105277E-2,-9.521254152E-2,3.367620707E-1
7.650140104E0,-3.323699534E-2,-4.634336382E-2,3.190470040E-1
7.654979843E0,-4.667601734E-2,6.190999877E-3,2.964450121E-1
7.659820364E0,-5.095207319E-2,5.994709581E-2,2.726212740E-1
7.664661718E0,-4.667601734E-2,1.112597287E-1,2.500192821E-1
7.669502239E0,-2.957180515E-2,1.589071751E-1,2.286390364E-1
7.674341979E0,9.714299813E-4,2.083872259E-1,2.029827088E-1
7.679182500E0,4.312109575E-2,2.584781051E-1,1.712177396E-1
7.684023802E0,9.932065010E-2,2.939082682E-1,1.309006810E-1
7.688864323E0,1.762896031E-1,2.884104848E-1,7.409024984E-2
7.693704062E0,2.728062570E-1,2.169393301E-1,3.840805031E-3
7.698544583E0,3.931466043E-1,7.094266266E-2,-7.434988022E-2
7.703385885E0,5.440301299E-1,-1.324752867E-1,-1.574274749E-1
7.708226406E0,7.340090871E-1,-3.743777275E-1,-2.405050695E-1
7.713066146E0,9.636942148E-1,-6.413255930E-1,-3.156414628E-1
7.717906666E0,1.204985738E0,-8.954452872E-1,-3.718410134E-1
7.722748021E0,1.379082203E0,-1.057935357E0,-4.036059678E-1
7.727588541E0,1.406571150E0,-1.051826715E0,-4.072711468E-1
7.732428281E0,1.259963632E0,-8.508521914E-1,-3.846691549E-1
7.737268802E0,9.979026318E-1,-4.763921499E-1,-3.388543129E-1
7.742110104E0,7.022441030E-1,3.062558919E-2,-2.679940164E-1
7.746950625E0,4.469026923E-1,6.133905649E-1,-1.641469896E-1
7.751790364E0,2.654758692E-1,1.238305211E0,-4.197404906E-2
7.756630885E0,1.604071110E-1,1.876658797E0,7.836630195E-2
7.761472187E0,1.268095523E-1,2.480193138E0,1.871002316E-1
7.766312708E0,1.445246339E-1,3.001871586E0,2.946124077E-1
7.771152448E0,1.964481324E-1,3.405653238E0,3.947942257E-1
7.775992968E0,2.624215484E-1,3.668935776E0,4.766500890E-1
7.780834323E0,3.216754198E-1,3.799660921E0,5.273518562E-1
7.785674843E0,3.626033664E-1,3.819819450E0,5.322387815E-1
7.790514583E0,3.766532540E-1,3.765452623E0,4.900891185E-1
7.795355104E0,3.681011498E-1,3.668935776E0,4.082332551E-1
7.800196406E0,3.400013745E-1,3.540043354E0,2.970558703E-1
7.805036927E0,2.783040106E-1,3.376942635E0,1.651090980E-1
7.809876666E0,1.854525656E-1,3.166805029E0,2.888625860E-2
7.814717187E0,5.594925210E-2,2.882752895E0,-1.164995432E-1
7.819558489E0,-1.077624857E-1,2.537614346E0,-2.838764787E-1
7.824399062E0,-2.855241001E-1,2.161932707E0,-4.738554060E-1
7.829238750E0,-4.504576027E-1,1.779531360E0,-6.839928627E-1
7.834079323E0,-5.732414126E-1,1.400795221E0,-9.008498788E-1
7.838920625E0,-6.331061721E-1,1.030611157E0,-1.101824284E0
7.843761146E0,-6.300518513E-1,6.775313616E-1,-1.260649085E0
7.848600885E0,-5.811826587E-1,3.421665728E-1,-1.350446224E0
7.853441406E0,-5.036028624E-1,2.879299596E-2,-1.354111433E0
7.858282708E0,-4.101405144E-1,-2.741959095E-1,-1.273477316E0
7.863123229E0,-3.136238754E-1,-5.875694752E-1,-1.120150208E0
7.867962968E0,-2.452070564E-1,-9.314863086E-1,-9.069585204E-1
7.872803489E0,-2.219941914E-1,-1.290674806E0,-6.534496546E-1
7.877644843E0,-2.488722503E-1,-1.624206901E0,-3.767279387E-1
7.882485364E0,-3.343932927E-1,-1.869774580E0,-9.634100646E-2
7.887325104E0,-4.736704528E-1,-1.974232435E0,1.590004563E-1
7.892165625E0,-6.587625146E-1,-1.947354317E0,3.642509878E-1
7.897006927E0,-8.811172247E-1,-1.816018462E0,4.986411929E-1
7.901847448E0,-1.125463128E0,-1.601604939E0,5.560625196E-1
7.906687187E0,-1.371641636E0,-1.324272394E0,5.536190271E-1
7.911527708E0,-1.611711502E0,-9.962379932E-1,5.206323266E-1
7.916369010E0,-1.827957511E0,-6.327734590E-1,4.876456857E-1
7.921209531E0,-2.011216879E0,-2.509830594E-1,4.748174846E-1
7.926049271E0,-2.145606995E0,1.271422058E-1,4.919217229E-1
7.930889791E0,-2.231128216E0,4.930501580E-1,5.365148187E-1
7.935731146E0,-2.269001722E0,8.473517299E-1,5.914926529E-1
7.940571666E0,-2.265336514E0,1.189435959E0,6.434161663E-1
7.945411406E0,-2.225630283E0,1.511361718E0,6.892310381E-1
7.950251927E0,-2.149883270E0,1.789916039E0,7.234394550E-1
7.955093229E0,-2.039316654E0,2.006772995E0,7.442088127E-1
7.959933750E0,-1.893320084E0,2.151547909E0,7.497066259E-1
7.964773489E0,-1.705173731E0,2.218132257E0,7.393219471E-1
7.969614010E0,-1.476099491E0,2.211412668E0,7.173308134E-1
7.974455312E0,-1.213427663E0,2.146661043E0,6.819006205E-1
7.979295833E0,-9.281538129E-1,2.045868397E0,6.360858083E-1
7.984135573E0,-6.349387765E-1,1.929803967E0,5.829405785E-1
7.988976146E0,-3.478323221E-1,1.804576755E0,5.218541026E-1
7.993817448E0,-7.966271043E-2,1.670797348E0,4.577132761E-1
7.998657968E0,1.542984694E-1,1.532741904E0,3.941833675E-1
8.003497708E0,3.497751951E-1,1.401406050E0,3.324860036E-1
8.008338229E0,5.018804669E-1,1.283509135E0,2.720104158E-1
8.013179531E0,6.106144190E-1,1.188825130E0,2.066479027E-1
8.018020052E0,6.778095365E-1,1.116132259E0,1.376201808E-1
8.022859791E0,7.083527446E-1,1.068484783E0,7.042505592E-2
8.027700312E0,7.083527446E-1,1.039163232E0,7.505995221E-3
8.032541614E0,6.790312529E-1,1.023280740E0,-4.502837360E-2
8.037382187E0,6.277186275E-1,1.015950441E0,-8.534544706E-2
8.042221927E0,5.574691892E-1,1.015339494E0,-1.189430058E-1
8.047062448E0,4.725590050E-1,1.019615531E0,-1.427667141E-1
8.051903750E0,3.772641122E-1,1.022669911E0,-1.586492062E-1
8.056744271E0,2.721953690E-1,1.030611157E0,-1.696447730E-1
8.061584010E0,1.616288424E-1,1.043439269E0,-1.806403399E-1
8.066424531E0,5.045147240E-2,1.038552403E0,-1.922467649E-1
8.071265833E0,-4.606515542E-2,9.902940989E-1,-2.044640630E-1
8.076106354E0,-1.248667091E-1,8.974426389E-1,-2.111835629E-1
8.080946093E0,-1.816771179E-1,7.722153664E-1,-2.130161673E-1
8.085786614E0,-2.226050645E-1,6.231643558E-1,-2.056857795E-1
8.090627968E0,-2.562026083E-1,4.557874203E-1,-1.910250336E-1
8.095468489E0,-2.867458463E-1,2.865778804E-1,-1.690338999E-1
8.100308229E0,-3.166782260E-1,1.350834519E-1,-1.391015351E-1
8.105148750E0,-3.557735682E-1,1.657569967E-2,-1.012279242E-1
8.109990052E0,-4.083079100E-1,-6.344757974E-2,-5.541307479E-2
8.114830573E0,-4.724487066E-1,-9.215822071E-2,-6.543894298E-3
8.119670312E0,-5.420873165E-1,-6.344757974E-2,3.804922849E-2
8.124510833E0,-6.105041504E-1,1.901915856E-2,7.775543630E-2
8.129352135E0,-6.734232306E-1,1.466898918E-1,1.082986742E-1
8.134192708E0,-7.253467441E-1,3.091798723E-1,1.345658600E-1
8.139032448E0,-7.638311982E-1,4.985479414E-1,1.559461206E-1
8.143872968E0,-7.870441079E-1,6.983007193E-1,1.699960232E-1
8.148714271E0,-7.949852943E-1,8.980535269E-1,1.797698587E-1
8.153554791E0,-7.919309735E-1,1.080702066E0,1.816024482E-1
8.158394531E0,-7.791028619E-1,1.232196569E0,1.828241795E-1
8.163235052E0,-7.626094818E-1,1.339708686E0,1.864893585E-1
8.168076354E0,-7.461161613E-1,1.400184274E0,1.895436943E-1
8.172916875E0,-7.284010649E-1,1.411790729E0,1.932088733E-1
8.177756614E0,-7.082425356E-1,1.381247520E0,1.907654107E-1
8.182597135E0,-6.862514019E-1,1.312830687E0,1.822133064E-1
8.187438489E0,-6.648711562E-1,1.214481473E0,1.663308293E-1
8.192279010E0,-6.404365301E-1,1.089865088E0,1.406745166E-1
8.197118750E0,-6.098933220E-1,9.548639059E-1,1.064660773E-1
8.201959271E0,-5.701870918E-1,8.235279918E-1,6.309468299E-2
8.206800573E0,-5.170418620E-1,7.092962861E-1,1.483637188E-2
8.211641093E0,-4.571771026E-1,6.274404526E-1,-3.647626564E-2
8.216480833E0,-3.924254477E-1,5.810146928E-1,-8.839976788E-2
8.221321354E0,-3.313389719E-1,5.657430887E-1,-1.391015351E-1
8.226162656E0,-2.763611376E-1,5.712409019E-1,-1.843055189E-1
8.231003229E0,-2.281028479E-1,5.895668268E-1,-2.234008610E-1
8.235842916E0,-1.871749014E-1,6.170557141E-1,-2.539440989E-1
8.240683489E0,-1.596859992E-1,6.463772655E-1,-2.777678370E-1
8.245524791E0,-1.401383281E-1,6.781421900E-1,-2.979263663E-1
8.250365312E0,-1.279210299E-1,7.123506069E-1,-3.229718208E-1
8.255205052E0,-1.242558360E-1,7.502242327E-1,-3.516824841E-1
8.260045573E0,-1.193689257E-1,7.929847836E-1,-3.767279387E-1
8.264886875E0,-1.157037318E-1,8.418539762E-1,-3.956647217E-1
8.269727396E0,-1.102059484E-1,8.962209225E-1,-4.023842514E-1
8.274567135E0,-1.010429859E-1,9.548639059E-1,-3.968864679E-1
8.279407708E0,-8.943654597E-2,1.017172098E0,-3.816148341E-1
8.284249010E0,-7.721924782E-2,1.082534671E0,-3.553476632E-1
8.289089531E0,-6.683455408E-2,1.154005885E0,-3.229718208E-1
8.293929271E0,-6.011504307E-2,1.229753017E0,-2.832656205E-1
8.298769791E0,-5.461725965E-2,1.310387254E0,-2.398942113E-1
8.303611093E0,-5.278466642E-2,1.393464804E0,-1.953010857E-1
8.308451614E0,-5.522812530E-2,1.481429338E0,-1.531514227E-1
8.313291354E0,-5.828244612E-2,1.568172097E0,-1.195538715E-1
8.318131875E0,-6.622368842E-2,1.653082252E0,-9.145408869E-2
8.322973177E0,-7.416492701E-2,1.733716488E0,-7.312814891E-2
8.327813750E0,-8.393876255E-2,1.807020187E0,-6.335431337E-2
8.332653489E0,-9.676691890E-2,1.867495775E0,-6.029999256E-2
8.337494010E0,-1.059298962E-1,1.912699819E0,-6.640863419E-2
8.342335312E0,-1.089842170E-1,1.936523557E0,-7.312814891E-2
8.347175833E0,-1.053190380E-1,1.937745214E0,-7.129555196E-2
8.352015573E0,-9.310173988E-2,1.916365027E0,-5.602393672E-2
8.356856093E0,-7.233233750E-2,1.869328380E0,-2.364810556E-2
8.361697396E0,-4.423255846E-2,1.803965926E0,1.911242306E-2
8.366537968E0,-1.002413500E-2,1.728829503E0,5.820776522E-2
8.371377708E0,2.662774920E-2,1.652471423E0,8.875100315E-2
8.376218229E0,6.205790117E-2,1.579167724E0,1.076878086E-1
8.381059531E0,9.626632929E-2,1.507085681E0,1.156290546E-1
8.385900052E0,1.286421567E-1,1.432560086E0,1.150181815E-1
8.390739791E0,1.573527902E-1,1.357423782E0,1.095203981E-1
8.395580312E0,1.817873865E-1,1.280454874E0,9.913570434E-2
8.400421614E0,2.031676471E-1,1.198598981E0,8.691840619E-2
8.405262135E0,2.245479077E-1,1.108801842E0,8.080975711E-2
8.410101875E0,2.434847206E-1,1.012285233E0,8.019889146E-2
8.414942396E0,2.654758692E-1,9.169903398E-1,8.814013749E-2
8.419783750E0,2.892995775E-1,8.278040886E-1,1.040226221E-1
8.424624271E0,3.100689948E-1,7.532785535E-1,1.272354871E-1
8.429464010E0,3.283949196E-1,7.062419653E-1,1.541135311E-1
8.434304531E0,3.430556953E-1,7.001333237E-1,1.852676421E-1
8.439145833E0,3.497751951E-1,7.404503822E-1,2.170325965E-1
8.443986354E0,3.497751951E-1,8.271932006E-1,2.463541180E-1
8.448826093E0,3.442774117E-1,9.493661523E-1,2.659017742E-1
8.453666614E0,3.345035911E-1,1.088643312E0,2.732321322E-1
8.458507916E0,3.204537034E-1,1.223033547E0,2.683452368E-1
8.463348489E0,3.082363904E-1,1.332378268E0,2.549062073E-1
8.468188229E0,3.002951443E-1,1.407514691E0,2.353585511E-1
8.473028750E0,3.009060323E-1,1.445388317E0,2.078696340E-1
8.477870052E0,3.106798530E-1,1.447220922E0,1.754937917E-1
8.482710573E0,3.338927031E-1,1.416677713E0,1.376201808E-1
8.487550312E0,3.699337244E-1,1.350093365E0,9.852483869E-2
8.492390833E0,4.175811708E-1,1.251744151E0,6.248381734E-2
8.497232135E0,4.798893929E-1,1.124073505E0,2.949712425E-2
8.502072656E0,5.586909056E-1,9.762442112E-1,-1.046111807E-3
8.506912396E0,6.515423656E-1,8.119215965E-1,-2.975675464E-2
8.511752968E0,7.566110492E-1,6.457663774E-1,-6.091085449E-2
8.516594271E0,8.720645308E-1,4.887741208E-1,-9.267581999E-2
8.521434791E0,9.972918034E-1,3.513295650E-1,-1.244407892E-1
8.526274531E0,1.127406001E0,2.383195907E-1,-1.610926688E-1
8.531115052E0,1.260574460E0,1.473007500E-1,-2.044640630E-1
8.535956354E0,1.390077829E0,7.766216993E-2,-2.527223825E-1
8.540796875E0,1.515305042E0,3.245818242E-2,-3.046458960E-1
8.545636614E0,1.635034561E0,1.413224079E-2,-3.571802378E-1
8.550477187E0,1.746822834E0,2.573867142E-2,-4.091037512E-1
8.555318489E0,1.847004652E0,7.399698347E-2,-4.561403394E-1
8.560159010E0,1.928860426E0,1.582963169E-1,-4.989008605E-1
8.564998750E0,1.988725185E0,2.682519555E-1,-5.337201357E-1
8.569839271E0,2.024155378E0,3.916466236E-1,-5.605981946E-1
8.574680573E0,2.038816214E0,5.254260302E-1,-5.825893283E-1
8.579521093E0,2.031485796E0,6.665357947E-1,-5.990827084E-1
8.584360833E0,2.005218744E0,8.149759173E-1,-6.143543124E-1
8.589201354E0,1.965512395E0,9.707463980E-1,-6.332911253E-1
8.594042708E0,1.917864919E0,1.138734221E0,-6.546713710E-1
8.598883229E0,1.869606614E0,1.320771933E0,-6.797168255E-1
8.603722968E0,1.828678608E0,1.516248584E0,-7.102600336E-1
8.608563489E0,1.796913743E0,1.727607846E0,-7.426359057E-1
8.613404791E0,1.775533438E0,1.947519064E0,-7.719573975E-1
8.618245312E0,1.766981363E0,2.169262886E0,-7.939485312E-1
8.623085052E0,1.764537811E0,2.377567768E0,-8.043332100E-1
8.627925573E0,1.754153132E0,2.532116652E0,-8.012788892E-1
8.632766875E0,1.724220753E0,2.595035791E0,-7.780660391E-1
8.637607448E0,1.675962448E0,2.582818508E0,-7.469119430E-1
8.642447187E0,1.614265084E0,2.499740839E0,-7.151469588E-1
8.647287708E0,1.548902631E0,2.367183208E0,-6.962101460E-1
8.652129010E0,1.481707454E0,2.188199759E0,-6.901015043E-1
8.656969531E0,1.415123224E0,1.961568952E0,-6.882689595E-1
8.661809271E0,1.350982428E0,1.702562332E0,-6.894906759E-1
8.666649791E0,1.291117668E0,1.416066766E0,-6.949884295E-1
8.671491093E0,1.225755215E0,1.103914976E0,-7.010970712E-1
8.676331666E0,1.153062224E0,7.862652540E-1,-7.041513920E-1
8.681171354E0,1.073649883E0,4.924392998E-1,-7.084274888E-1
8.686011927E0,9.807984233E-1,2.334326804E-1,-7.041513920E-1
8.690853229E0,8.757296801E-1,2.879299596E-2,-6.894906759E-1
8.695693750E0,7.578328252E-1,-1.202580035E-1,-6.589474082E-1
8.700533489E0,6.295512319E-1,-2.070007920E-1,-6.192412376E-1
8.705374010E0,4.945501387E-1,-2.253267318E-1,-5.715937614E-1
8.710215312E0,3.644359410E-1,-1.819553375E-1,-5.178377032E-1
8.715055833E0,2.392086685E-1,-8.238438517E-2,-4.634707272E-1
8.719895573E0,1.213117689E-1,6.239055470E-2,-4.133798182E-1
8.724736093E0,1.257785968E-2,2.407630533E-1,-3.651214838E-1
8.729577448E0,-8.699308336E-2,4.392940700E-1,-3.199175000E-1
8.734417968E0,-1.725141555E-1,6.390468478E-1,-2.759352326E-1
8.739257708E0,-2.421527356E-1,8.357453346E-1,-2.380616218E-1
8.744098229E0,-2.898001671E-1,1.022059083E0,-2.105727047E-1
8.748939531E0,-3.197325468E-1,1.194322944E0,-1.910250336E-1
8.753780052E0,-3.331715763E-1,1.342763066E0,-1.769751459E-1
8.758619791E0,-3.368367553E-1,1.463103414E0,-1.635361165E-1
8.763460312E0,-3.405019343E-1,1.549235344E0,-1.464319080E-1
8.768301666E0,-3.484431803E-1,1.601769686E0,-1.274951100E-1
8.773142187E0,-3.631039262E-1,1.624982476E0,-1.055039838E-1
8.777981927E0,-3.869276643E-1,1.631091118E0,-8.229111880E-2
8.782822448E0,-4.138056934E-1,1.626815081E0,-5.846739560E-2
8.787663750E0,-4.437380731E-1,1.617041230E0,-3.342194110E-2
8.792504271E0,-4.718378484E-1,1.604823947E0,-1.204167679E-2
8.797344010E0,-4.962724447E-1,1.588941455E0,7.505995221E-3
8.802184531E0,-5.231505036E-1,1.563285232E0,2.522107214E-2
8.807025885E0,-5.494176745E-1,1.526022434E0,4.110355303E-2
8.811866406E0,-5.775175095E-1,1.472266316E0,5.820776522E-2
8.816706146E0,-6.092824340E-1,1.402016878E0,7.409024984E-2
8.821546666E0,-6.398257017E-1,1.322604537E0,8.630754054E-2
8.826387968E0,-6.685363054E-1,1.239526868E0,9.363792092E-2
8.831228489E0,-6.905274391E-1,1.152784109E0,9.791397303E-2
8.836068229E0,-7.015230060E-1,1.064208746E0,9.913570434E-2
8.840908750E0,-7.051882148E-1,9.786876440E-1,9.791397303E-2
8.845750052E0,-7.015230060E-1,8.992752433E-1,9.302705526E-2
8.850590625E0,-6.941926479E-1,8.296366334E-1,8.875100315E-2
8.855430364E0,-6.850296855E-1,7.777131796E-1,8.569667488E-2
8.860270885E0,-6.715906262E-1,7.441155910E-1,7.897716761E-2
8.865112187E0,-6.575407386E-1,7.392286658E-1,7.714457065E-2
8.869952708E0,-6.416582465E-1,7.648850083E-1,7.653370500E-2
8.874792448E0,-6.233323216E-1,8.235279918E-1,7.897716761E-2
8.879632968E0,-6.025629044E-1,9.096599221E-1,8.203148842E-2
8.884474323E0,-5.775175095E-1,1.017172098E0,8.264235407E-2
8.889314843E0,-5.518611670E-1,1.133236408E0,7.958803326E-2
8.894154583E0,-5.243722200E-1,1.252355099E0,7.103592157E-2
8.898995104E0,-4.956615865E-1,1.364143252E0,6.004036218E-2
8.903836406E0,-4.675618112E-1,1.458827376E0,4.782306403E-2
8.908676927E0,-4.327425063E-1,1.524189830E0,3.560576960E-2
8.913516666E0,-3.960906267E-1,1.559009194E0,2.399934083E-2
8.918357187E0,-3.496648967E-1,1.561452627E0,1.239291299E-2
8.923198489E0,-2.946870923E-1,1.534574509E0,3.229941241E-3
8.928039062E0,-2.299354374E-1,1.482040167E0,-9.598217905E-3
8.932878802E0,-1.566316783E-1,1.404460311E0,-2.242637798E-2
8.937719323E0,-7.416492701E-2,1.304278493E0,-3.647626564E-2
8.942560625E0,1.502131857E-2,1.187603354E0,-5.480220914E-2
8.947401146E0,1.103162169E-1,1.061765194E0,-7.312814891E-2
8.952240885E0,2.104980201E-1,9.371488690E-1,-8.962149918E-2
8.957081406E0,3.100689948E-1,8.247497678E-1,-1.042822525E-1
8.961922708E0,4.035312831E-1,7.312874198E-1,-1.152778193E-1
8.966763281E0,4.884414971E-1,6.653140783E-1,-1.226081923E-1
8.971602968E0,5.641886592E-1,6.304947734E-1,-1.281059682E-1
8.976443541E0,6.289403439E-1,6.231643558E-1,-1.317711622E-1
8.981284843E0,6.802529693E-1,6.427120566E-1,-1.348254830E-1
8.986125364E0,7.205700278E-1,6.836400032E-1,-1.366580725E-1
8.990965104E0,7.529459000E-1,7.386178374E-1,-1.378798038E-1
8.995805625E0,7.737152576E-1,8.003151417E-1,-1.378798038E-1
9.000646927E0,7.865434289E-1,8.620125055E-1,-1.354363412E-1
9.005487500E0,7.932629585E-1,9.145468473E-1,-1.274951100E-1
9.010327187E0,7.932629585E-1,9.542530775E-1,-1.152778193E-1
9.015167760E0,7.895977497E-1,9.774659276E-1,-9.634100646E-2
9.020009062E0,7.834891081E-1,9.835745692E-1,-7.496074587E-2
9.024849583E0,7.724935412E-1,9.731898904E-1,-5.358047783E-2
9.029689323E0,7.584436536E-1,9.536421895E-1,-3.281107917E-2
9.034529843E0,7.395068407E-1,9.298184514E-1,-1.326340623E-2
9.039371146E0,7.144613862E-1,9.102708101E-1,3.229941241E-3
9.044211718E0,6.851398945E-1,9.023295641E-1,2.155588195E-2
9.049051458E0,6.503205895E-1,9.157685637E-1,3.804922849E-2
9.053891979E0,6.075600982E-1,9.499769807E-1,5.393171310E-2
9.058733281E0,5.586909056E-1,1.001900434E0,7.042505592E-2
9.063573802E0,4.982153475E-1,1.064819574E0,8.630754054E-2
9.068413541E0,4.279658794E-1,1.132014751E0,1.015791595E-1
9.073254062E0,3.516077995E-1,1.197988033E0,1.150181815E-1
9.078095364E0,2.715845108E-1,1.250522494E0,1.247920170E-1
9.082935885E0,1.903394908E-1,1.283509135E0,1.296789497E-1
9.087775677E0,1.109270751E-1,1.290839553E0,1.315115392E-1
9.092616198E0,3.884504363E-2,1.271291852E0,1.309006810E-1
9.097457500E0,-2.346315980E-2,1.223644376E0,1.315115392E-1
9.102298021E0,-7.111060619E-2,1.154005885E0,1.345658600E-1
9.107137760E0,-1.022647023E-1,1.059932709E0,1.394527853E-1
9.111978281E0,-1.175363213E-1,9.499769807E-1,1.467831582E-1
9.116819583E0,-1.169254631E-1,8.333018422E-1,1.528917998E-1
9.121660104E0,-9.676691890E-2,7.227353454E-1,1.553352624E-1
9.126499896E0,-6.011504307E-2,6.280512810E-1,1.547244042E-1
9.131340416E0,-1.185672916E-2,5.578018427E-1,1.528917998E-1
9.136181718E0,4.189936444E-2,5.193173885E-1,1.522809416E-1
9.141022239E0,9.565545619E-2,5.174847841E-1,1.565569937E-1
9.145861979E0,1.457463652E-1,5.492497683E-1,1.644982398E-1
9.150702500E0,1.848417073E-1,6.140013933E-1,1.779372543E-1
9.155543802E0,2.086654305E-1,7.068528533E-1,1.974849254E-1
9.160384375E0,2.147740722E-1,8.235279918E-1,2.249738425E-1
9.165224062E0,2.037785202E-1,9.579182267E-1,2.524627447E-1
9.170064635E0,1.769004613E-1,1.097806215E0,2.787299156E-1
9.174905937E0,1.335290670E-1,1.238916039E0,3.001101911E-1
9.179746458E0,8.221644163E-2,1.378193140E0,3.166035414E-1
9.184586198E0,2.784947678E-2,1.512583375E0,3.257665038E-1
9.189426718E0,-2.163056470E-2,1.640864968E0,3.282099664E-1
9.194268021E0,-6.011504307E-2,1.757540226E0,3.257665038E-1
9.199108593E0,-7.966271043E-2,1.852835059E0,3.208795786E-1
9.203948281E0,-7.844097912E-2,1.917586684E0,3.202687204E-1
9.208788854E0,-5.767158419E-2,1.948130012E0,3.269882202E-1
9.213630156E0,-2.346315980E-2,1.942632198E0,3.416489959E-1
9.218470677E0,2.479515597E-2,1.909645438E0,3.611966670E-1
9.223310416E0,8.038383722E-2,1.855278492E0,3.801334798E-1
9.228150937E0,1.378051192E-1,1.790526867E0,3.911290169E-1
9.232992239E0,1.952264011E-1,1.721499205E0,3.892964423E-1
9.237832760E0,2.483716458E-1,1.657358408E0,3.715813458E-1
9.242672500E0,2.966299653E-1,1.609100103E0,3.343186080E-1
9.247513073E0,3.467208743E-1,1.584665418E0,2.775081992E-1
9.252354375E0,4.029204249E-1,1.585276365E0,1.993175298E-1
9.257194896E0,4.664503634E-1,1.613376141E0,1.009682938E-1
9.262034635E0,5.312020183E-1,1.664688706E0,-1.570686512E-2
9.266875156E0,5.819037557E-1,1.736159921E0,-1.403232664E-1
9.271716458E0,6.014514565E-1,1.821681023E0,-2.521115243E-1
9.276556979E0,5.806820393E-1,1.917586684E0,-3.364108503E-1
9.281396771E0,5.373106599E-1,2.009216547E0,-3.889452219E-1
9.286237291E0,5.055456758E-1,2.078244209E0,-3.999407887E-1
9.291078593E0,5.043239594E-1,2.125280619E0,-3.565693796E-1
9.295919114E0,5.342563391E-1,2.155213118E0,-2.673831284E-1
9.300758854E0,5.898450017E-1,2.168652058E0,-1.672013104E-1
9.305599375E0,6.625379324E-1,2.171706438E0,-7.740420103E-2
9.310440677E0,7.358416915E-1,2.178426027E0,-7.154759020E-3
9.315281250E0,8.012042046E-1,2.197973728E0,4.415787756E-2
9.320120989E0,8.531277180E-1,2.248064518E0,7.775543630E-2
9.324961510E0,8.891687393E-1,2.329309464E0,9.241618961E-2
9.329802812E0,9.093272686E-1,2.441708565E0,8.569667488E-2
9.334643333E0,9.044403434E-1,2.566324949E0,5.576431006E-2
9.339483073E0,8.708427548E-1,2.678113222E0,5.673400126E-3
9.344323593E0,8.152540922E-1,2.750806093E0,-6.335431337E-2
9.349164896E0,7.443937659E-1,2.767299652E0,-1.452101767E-1
9.354005468E0,6.655922532E-1,2.730036736E0,-2.288986444E-1
9.358845208E0,5.904558897E-1,2.647570133E0,-3.077002168E-1
9.363685729E0,5.244824886E-1,2.525397062E0,-3.828365803E-1
9.368527031E0,4.707264006E-1,2.378178835E0,-4.567511976E-1
9.373367552E0,4.407940507E-1,2.220575571E0,-5.294440985E-1
9.378207291E0,4.383505881E-1,2.034261942E0,-5.954174995E-1
9.383047812E0,4.462918341E-1,1.769757509E0,-6.491736174E-1
9.387889166E0,4.676720798E-1,1.424618840E0,-6.791059375E-1
9.392729687E0,5.006587505E-1,1.014117837E0,-6.809385419E-1
9.397569427E0,5.275368094E-1,5.510823727E-1,-6.546713710E-1
9.402409948E0,5.330345631E-1,6.116882712E-2,-6.045804620E-1
9.407251250E0,5.122652054E-1,-3.872058988E-1,-5.404396653E-1
9.412091771E0,4.621742964E-1,-7.622768283E-1,-4.628598392E-1
9.416931510E0,3.742097914E-1,-1.038387656E0,-3.706192672E-1
9.421772031E0,2.410412580E-1,-1.198434234E0,-2.679940164E-1
9.426613385E0,4.739714786E-2,-1.237529516E0,-1.635361165E-1
9.431453906E0,-2.042791247E-1,-1.158728004E0,-6.518691033E-2
9.436293646E0,-5.048245788E-1,-9.779120684E-1,2.338847518E-2
9.441134166E0,-8.383567333E-1,-7.225705981E-1,9.730310738E-2
9.445975468E0,-1.186549664E0,-4.128622115E-1,1.614439040E-1
9.450815989E0,-1.523746967E0,-4.267817736E-2,2.109239548E-1
9.455655729E0,-1.820627213E0,3.947009444E-1,2.402454466E-1
9.460496250E0,-2.051533937E0,8.876687884E-1,2.597931027E-1
9.465337604E0,-2.204250097E0,1.413012505E0,2.775081992E-1
9.470178125E0,-2.277553797E0,1.945686460E0,2.994993329E-1
9.475017864E0,-2.275110483E0,2.460645437E0,3.324860036E-1
9.479858385E0,-2.210358858E0,2.932233095E0,3.783008754E-1
9.484699687E0,-2.099792242E0,3.324408293E0,4.332787097E-1
9.489540208E0,-1.941578388E0,3.604794979E0,4.931434393E-1
9.494379948E0,-1.733273506E0,3.764841557E0,5.481212735E-1
9.499220468E0,-1.469380021E0,3.795995712E0,5.878274441E-1
9.504061823E0,-1.156006336E0,3.712918043E0,6.134837866E-1
9.508902343E0,-8.090351820E-1,3.546152115E0,6.257010698E-1
9.513742083E0,-4.474032521E-1,3.329905987E0,6.263119578E-1
9.518582604E0,-8.821481466E-2,3.098999023E0,6.165381074E-1
9.523423906E0,2.526476979E-1,2.888250828E0,5.951578617E-1
9.528264427E0,5.580800176E-1,2.709267378E0,5.597276688E-1
9.533104166E0,8.158649206E-1,2.567546844E0,5.126910806E-1
9.537944739E0,1.016228557E0,2.456980228E0,4.589350224E-1
9.542786041E0,1.156116605E0,2.376956940E0,4.009028673E-1
9.547626562E0,1.234307289E0,2.329920530E0,3.373729289E-1
9.552466302E0,1.256298423E0,2.308540106E0,2.695669532E-1
9.557306823E0,1.231863856E0,2.298155546E0,1.974849254E-1
9.562148125E0,1.168333888E0,2.292046785E0,1.284572184E-1
9.566988698E0,1.068762898E0,2.290825129E0,6.492727995E-2
9.571828437E0,9.533095360E-1,2.274942636E0,9.949454106E-3
9.576668958E0,8.317474127E-1,2.237068892E0,-3.342194110E-2
9.581510260E0,7.114070654E-1,2.175982475E0,-6.701949984E-2
9.586350781E0,5.916776061E-1,2.097791910E0,-9.878446907E-2
9.591190521E0,4.768350720E-1,1.999442577E0,-1.293276995E-1
9.596031041E0,3.760423660E-1,1.872993588E0,-1.507079601E-1
9.600872343E0,2.899104655E-1,1.716001391E0,-1.610926688E-1
9.605712916E0,2.184392661E-1,1.538850546E0,-1.592600644E-1
9.610552656E0,1.536876112E-1,1.361699820E0,-1.513188332E-1
9.615393177E0,9.565545619E-2,1.207151055E0,-1.403232664E-1
9.620234479E0,4.373196140E-2,1.096584558E0,-1.287168413E-1
9.625075000E0,-5.748081952E-3,1.034887195E0,-1.158886775E-1
9.629914739E0,-6.927801669E-2,9.951810241E-1,-1.000062004E-1
9.634755260E0,-1.462469697E-1,9.860180020E-1,-8.290198445E-2
9.639596614E0,-2.281028479E-1,1.020837307E0,-6.029999256E-2
9.644437135E0,-3.099586964E-1,1.103304029E0,-3.891972452E-2
9.649276875E0,-3.875385225E-1,1.223033547E0,-1.631772891E-2
9.654117396E0,-4.590097070E-1,1.372084498E0,9.338588454E-3
9.658958698E0,-5.176527500E-1,1.542515755E0,3.743836284E-2
9.663799218E0,-5.585806966E-1,1.728829503E0,6.675986946E-2
9.668638958E0,-5.824043751E-1,1.923084497E0,9.608137608E-2
9.673479479E0,-5.854586959E-1,2.114285231E0,1.266246289E-1
9.678320833E0,-5.714088082E-1,2.292046785E0,1.638873667E-1
9.683161354E0,-5.402547121E-1,2.444762945E0,2.072587609E-1
9.688001093E0,-4.913855195E-1,2.567546844E0,2.567387819E-1
9.692841614E0,-4.272447228E-1,2.651235342E0,3.068296909E-1
9.697682916E0,-3.490540385E-1,2.698271751E0,3.532554209E-1
9.702523437E0,-2.592569292E-1,2.704380512E0,3.929616213E-1
9.707363177E0,-1.657946408E-1,2.667728662E0,4.222831428E-1
9.712203698E0,-6.988887489E-2,2.595035791E0,4.393873513E-1
9.717045052E0,2.235169336E-2,2.493021250E0,4.442742467E-1
9.721885573E0,1.066510230E-1,2.369626522E0,4.369438887E-1
9.726725312E0,1.744570136E-1,2.230349541E0,4.235048592E-1
9.731565833E0,2.282131016E-1,2.084352732E0,4.015137255E-1
9.736407135E0,2.673084736E-1,1.946908236E0,3.764682710E-1
9.741247656E0,2.935756445E-1,1.825957060E0,3.471467793E-1
9.746087396E0,3.076255322E-1,1.730051279E0,3.159926832E-1
9.750927968E0,3.131233156E-1,1.661023498E0,2.854494452E-1
9.755769271E0,3.112907112E-1,1.615819573E0,2.585713863E-1
9.760609791E0,3.057929277E-1,1.590774059E0,2.329150885E-1
9.765449531E0,2.947973609E-1,1.584665418E0,2.035935819E-1
9.770290052E0,2.801366150E-1,1.598715305E0,1.681634188E-1
9.775131354E0,2.581454813E-1,1.629869461E0,1.278463453E-1
9.779971927E0,2.282131016E-1,1.672019124E0,8.569667488E-2
9.784811666E0,1.891177595E-1,1.716612220E0,4.415787756E-2
9.789652187E0,1.390268505E-1,1.760594487E0,5.673400126E-3
