"Time (s)","Acceleration x (m/s^2)","Acceleration y (m/s^2)","Acceleration z (m/s^2)"
0.000000000E0,1.460418701E-1,-1.187530518E0,9.034515381E0
4.974366000E-3,9.815979004E-2,-1.085769653E0,9.232040405E0
9.887696000E-3,4.309082031E-2,-9.708557129E-1,9.197326660E0
1.483154300E-2,2.394104004E-2,-8.523406982E-1,9.540893555E0
1.980590900E-2,-2.395629883E-3,-8.631134033E-1,1.048181152E1
2.474975600E-2,-6.225585938E-2,-7.745208740E-1,1.063264465E1
2.969360400E-2,-1.963195801E-1,-6.715698242E-1,1.031422424E1
3.463745200E-2,-1.819610596E-1,-5.949554443E-1,1.021725464E1
3.955078200E-2,-6.225585938E-2,-5.829925537E-1,1.020648193E1
4.449462900E-2,2.549896240E-1,-7.637481689E-1,1.020648193E1
4.943847700E-2,6.787567139E-1,-1.102523804E0,9.469070435E0
5.438232500E-2,1.043869019E0,-1.412582397E0,8.735244751E0
5.929565500E-2,1.363494873E0,-1.699890137E0,9.234436035E0
6.423950200E-2,1.425750732E0,-1.885437012E0,9.812637329E0
6.918335000E-2,1.379058838E0,-1.926132202E0,9.949111938E0
7.406616200E-2,1.095352173E0,-1.947677612E0,1.086608887E1
7.904052800E-2,8.164215088E-1,-2.065002441E0,1.257434082E1
8.325195300E-2,1.562210083E0,-2.492370605E0,1.025915527E1
8.782959000E-2,1.294067383E0,-2.462432861E0,1.024359131E1
9.262085000E-2,5.063781738E-1,-2.360687256E0,1.139639282E1
9.750366200E-2,3.782806396E-1,-2.260131836E0,1.029626465E1
1.024169930E-1,4.201812744E-1,-2.173934937E0,9.034515381E0
1.073608400E-1,4.524993896E-1,-2.103302002E0,8.173797607E0
1.123352050E-1,5.291137695E-1,-1.947677612E0,7.553710938E0
1.173095710E-1,8.439636230E-1,-1.951278687E0,7.252029419E0
1.222839360E-1,1.261749268E0,-2.001556396E0,7.195770264E0
1.272583010E-1,1.596939087E0,-2.061401367E0,7.386108398E0
1.322326660E-1,1.717834473E0,-2.013519287E0,7.716506958E0
1.372070320E-1,1.709457397E0,-2.013519287E0,8.011001587E0
1.421813970E-1,1.663970947E0,-2.098510742E0,8.316253662E0
1.471557620E-1,1.604110718E0,-2.061401367E0,8.854949951E0
1.521301270E-1,1.484405518E0,-2.020706177E0,9.628280640E0
1.571044930E-1,1.185134888E0,-1.950073242E0,1.030224609E1
1.620788580E-1,1.051055908E0,-1.880645752E0,1.174954224E1
1.670532230E-1,1.171966553E0,-2.126052856E0,1.787391663E1
1.720275880E-1,1.054641724E0,-1.872268677E0,1.157476807E1
1.770019530E-1,9.169769287E-1,-1.338363647E0,8.439559937E0
1.819763190E-1,2.573699951E-1,-8.307952881E-1,1.024240112E1
1.869506840E-1,1.903381348E-1,-9.445190430E-1,1.042196655E1
1.919250490E-1,5.327148438E-1,-1.397018433E0,1.009873962E1
1.968994140E-1,9.074096680E-1,-1.751358032E0,1.051773071E1
2.018737800E-1,9.492950439E-1,-1.713058472E0,1.093312073E1
2.068481450E-1,9.193725586E-1,-1.571792603E0,1.119409180E1
2.118225100E-1,7.972717285E-1,-1.398208618E0,1.140597534E1
2.167968750E-1,7.338256836E-1,-1.280899048E0,1.148857117E1
2.217712410E-1,7.122802734E-1,-1.199493408E0,1.156518555E1
2.267456060E-1,8.283996582E-1,-1.103729248E0,1.180940247E1
2.317199710E-1,1.069015503E0,-1.011550903E0,1.220204163E1
2.366943360E-1,1.259353638E0,-1.057037354E0,1.220564270E1
2.416687020E-1,1.479614258E0,-1.227035522E0,1.150054932E1
2.466430670E-1,1.742980957E0,-1.474822998E0,1.100494385E1
2.516174320E-1,2.188293457E0,-1.930923462E0,1.083854675E1
2.565612800E-1,2.377441406E0,-1.962051392E0,1.055125427E1
2.615051270E-1,2.220626831E0,-1.862686157E0,1.049018860E1
2.664489750E-1,2.117675781E0,-1.868667603E0,1.040519714E1
2.713928230E-1,2.254135132E0,-1.996765137E0,1.020767212E1
2.763061530E-1,2.369064331E0,-2.090133667E0,1.001374817E1
2.812500000E-1,2.422927856E0,-2.182312012E0,9.750381470E0
2.861633300E-1,2.582153320E0,-2.303222656E0,9.375686646E0
2.911071780E-1,2.832336426E0,-2.451660156E0,9.011779785E0
2.960510260E-1,3.262100220E0,-2.624038696E0,8.728057861E0
3.009643560E-1,3.943252563E0,-2.774887085E0,8.645462036E0
3.059082030E-1,4.617218018E0,-2.815582275E0,8.609542847E0
3.108215340E-1,5.127182007E0,-2.701858521E0,8.485046387E0
3.157653810E-1,5.473144531E0,-2.460037231E0,8.256408691E0
3.207092290E-1,5.613204956E0,-2.117675781E0,8.052902222E0
3.256225590E-1,5.562927246E0,-1.727416992E0,7.885299683E0
3.305664070E-1,5.273223877E0,-1.349136353E0,7.451950073E0
3.354797370E-1,4.806365967E0,-9.756317139E-1,6.946777344E0
3.404235840E-1,4.174285889E0,-6.895294189E-1,7.077255249E0
3.453674320E-1,3.730163574E0,-4.728546143E-1,7.362167358E0
3.502807620E-1,3.415328979E0,-4.524993896E-1,7.732070923E0
3.552551270E-1,3.178298950E0,-7.146759033E-1,8.352172852E0
3.594665530E-1,2.964019775E0,-1.199493408E0,8.735244751E0
3.640441900E-1,2.857482910E0,-1.798049927E0,8.592788696E0
3.688354500E-1,2.828750610E0,-2.464828491E0,8.517379761E0
3.737182620E-1,3.083724976E0,-3.003524780E0,8.522155762E0
3.786315920E-1,3.654754639E0,-3.149566650E0,8.825027466E0
3.835754400E-1,4.135986328E0,-3.070556641E0,9.351745605E0
3.885498050E-1,4.335891724E0,-2.985565186E0,9.745605469E0
3.935241700E-1,4.490325928E0,-2.905364990E0,9.671371460E0
3.984985360E-1,4.686645508E0,-2.762908936E0,9.235626221E0
4.034729010E-1,4.940429688E0,-2.506729126E0,9.008178711E0
4.084472660E-1,5.248092651E0,-2.302032471E0,8.853759766E0
4.134216310E-1,5.704193115E0,-2.316390991E0,8.570037842E0
4.183959960E-1,5.829879761E0,-2.475601196E0,8.541320801E0
4.233703620E-1,5.714965820E0,-2.767700195E0,8.671798706E0
4.283447270E-1,5.203796387E0,-3.119644165E0,8.455123901E0
4.333190920E-1,4.383789062E0,-3.743331909E0,8.155853271E0
4.382934570E-1,3.558975220E0,-4.333511353E0,7.692565918E0
4.432678230E-1,2.670730591E0,-4.469970703E0,6.962341309E0
4.482421880E-1,1.756149292E0,-4.247314453E0,6.161483765E0
4.532165530E-1,9.481048584E-1,-3.738540649E0,5.467163086E0
4.581909180E-1,1.747741699E-1,-3.143585205E0,4.821914673E0
4.631652840E-1,-6.787567139E-1,-2.534255981E0,4.407730103E0
4.681396490E-1,-1.047470093E0,-2.062606812E0,4.538208008E0
4.731140140E-1,-9.253540039E-1,-1.974014282E0,5.462371826E0
4.780883790E-1,-5.434875488E-1,-2.104507446E0,6.029800415E0
4.830627450E-1,4.548645020E-2,-2.348709106E0,6.181823730E0
4.880371100E-1,6.272735596E-1,-2.657562256E0,6.466735840E0
4.930114750E-1,1.260543823E0,-3.015502930E0,6.792343140E0
4.979858400E-1,1.934509277E0,-3.408142090E0,7.061691284E0
5.029602050E-1,2.614471436E0,-3.794815063E0,7.216125488E0
5.079345710E-1,3.145980835E0,-4.101272583E0,7.078460693E0
5.129089360E-1,3.473983765E0,-4.277236938E0,6.799530029E0
5.178833010E-1,3.766082764E0,-4.378997803E0,6.405685425E0
5.228576660E-1,3.916915894E0,-4.522644043E0,6.147109985E0
5.278320320E-1,3.997116089E0,-4.697418213E0,6.149505615E0
5.327758790E-1,4.091690063E0,-5.005081177E0,6.434417725E0
5.377197270E-1,4.220977783E0,-5.245697021E0,6.745666504E0
5.426635750E-1,4.356246948E0,-5.124786377E0,6.707351685E0
5.475769050E-1,4.416107178E0,-4.758468628E0,6.527786255E0
5.525207520E-1,4.443634033E0,-4.377792358E0,6.222534180E0
5.574340820E-1,4.438842773E0,-4.036621094E0,5.895721436E0
5.623779300E-1,4.491516113E0,-3.822341919E0,5.685028076E0
5.673217780E-1,4.795593262E0,-3.724182129E0,5.528213501E0
5.722351080E-1,5.297164917E0,-3.683486938E0,5.416885376E0
5.771789550E-1,5.773620605E0,-3.594894409E0,5.439620972E0
5.821228030E-1,6.318298340E0,-3.757705688E0,5.706573486E0
5.870361330E-1,6.843826294E0,-4.078521729E0,5.989089966E0
5.919799810E-1,7.299926758E0,-4.265274048E0,6.301544189E0
5.968933110E-1,7.887695312E0,-4.394561768E0,6.776794434E0
6.018371590E-1,8.488647461E0,-4.560958862E0,7.536941528E0
6.067810060E-1,9.038116455E0,-4.659118652E0,8.066070557E0
6.116943360E-1,9.660598755E0,-4.821914673E0,8.550888062E0
6.166381840E-1,1.022683716E1,-5.033813477E0,8.780731201E0
6.215820320E-1,1.060153198E1,-5.222946167E0,8.538925171E0
6.264953620E-1,1.060990906E1,-5.222946167E0,8.125915527E0
6.314697270E-1,1.034295654E1,-5.025436401E0,7.777557373E0
6.356811530E-1,9.970657349E0,-4.789596558E0,7.365768433E0
6.402893070E-1,9.634262085E0,-4.541793823E0,7.052124023E0
6.450805670E-1,9.327804565E0,-4.280838013E0,6.767211914E0
6.499633790E-1,9.113525391E0,-3.995925903E0,6.563705444E0
6.548767090E-1,8.999801636E0,-3.655944824E0,6.446380615E0
6.598205570E-1,8.997406006E0,-3.399765015E0,6.445190430E0
6.647949220E-1,9.005783081E0,-3.227386475E0,6.487091064E0
6.697692870E-1,9.131484985E0,-3.050216675E0,6.521804810E0
6.747436530E-1,9.408020020E0,-3.013107300E0,6.702560425E0
6.797180180E-1,9.603149414E0,-3.039443970E0,7.141906738E0
6.846923830E-1,9.792282104E0,-3.033447266E0,7.801513672E0
6.896667480E-1,1.026394653E1,-3.323150635E0,8.388092041E0
6.946411140E-1,1.101571655E1,-3.791213989E0,9.095565796E0
6.996154790E-1,1.167771912E1,-4.182662964E0,9.864105225E0
7.045898440E-1,1.216255188E1,-4.367019653E0,1.026753235E1
7.095642090E-1,1.255639648E1,-4.454406738E0,1.044470215E1
7.145385750E-1,1.297418213E1,-4.539413452E0,1.038246155E1
7.195129400E-1,1.334648132E1,-4.647140503E0,1.007121277E1
7.244873050E-1,1.367089844E1,-4.948822021E0,9.973052979E0
7.294616700E-1,1.414375305E1,-5.287597656E0,9.945510864E0
7.344360360E-1,1.430894470E1,-5.287597656E0,9.725250244E0
7.394104010E-1,1.390312195E1,-4.921279907E0,9.308654785E0
7.443847660E-1,1.308670044E1,-4.375396729E0,8.276748657E0
7.493591310E-1,1.197579956E1,-3.594894409E0,7.290344238E0
7.543334960E-1,1.082537842E1,-2.815582275E0,7.025787354E0
7.593078620E-1,9.925155640E0,-2.270904541E0,7.155075073E0
7.642822270E-1,9.447525024E0,-2.029083252E0,7.532165527E0
7.692565920E-1,9.278732300E0,-1.856704712E0,7.920013428E0
7.742309570E-1,9.264358521E0,-1.674743652E0,7.930786133E0
7.792053230E-1,9.332595825E0,-1.635238647E0,8.079238892E0
7.841796880E-1,9.539703369E0,-1.729812622E0,8.371322632E0
7.891540530E-1,9.684539795E0,-1.788467407E0,8.672988892E0
7.941284180E-1,9.589981079E0,-1.705871582E0,9.076416016E0
7.991027840E-1,9.266754150E0,-1.617279053E0,9.398437500E0
8.040466310E-1,8.870513916E0,-1.572998047E0,9.382873535E0
8.089904790E-1,8.565261841E0,-1.607711792E0,9.159011841E0
8.139343270E-1,8.287536621E0,-1.716644287E0,8.941146851E0
8.188476570E-1,8.204925537E0,-1.980010986E0,9.016571045E0
8.237915040E-1,8.401260376E0,-2.579757690E0,9.319427490E0
8.287353520E-1,8.701721191E0,-3.150772095E0,9.081207275E0
8.336486820E-1,8.741226196E0,-3.390182495E0,8.415618896E0
8.385925300E-1,8.720886230E0,-3.458419800E0,7.831436157E0
8.435058600E-1,8.584411621E0,-3.393783569E0,7.037750244E0
8.484497070E-1,8.531738281E0,-3.293228149E0,6.111206055E0
8.533935550E-1,8.634689331E0,-3.284851074E0,5.369003296E0
8.583068850E-1,8.856155396E0,-3.438079834E0,4.928466797E0
8.632507330E-1,9.036911011E0,-3.623626709E0,4.601654053E0
8.681945800E-1,9.250000000E0,-3.843887329E0,4.356246948E0
8.731079110E-1,9.351745605E0,-3.987548828E0,4.252105713E0
8.780517580E-1,9.506179810E0,-4.187454224E0,4.158721924E0
8.829650880E-1,9.690536499E0,-4.327514648E0,4.074935913E0
8.879089360E-1,9.775527954E0,-4.351455688E0,4.046203613E0
8.928527840E-1,9.543289185E0,-4.295196533E0,4.256896973E0
8.977661140E-1,9.174575806E0,-4.237731934E0,4.638763428E0
9.027099610E-1,8.784332275E0,-4.131195068E0,4.961990356E0
9.076843270E-1,8.339004517E0,-3.951629639E0,5.176269531E0
9.118957520E-1,7.763198853E0,-3.616439819E0,5.117599487E0
9.164733890E-1,7.016204834E0,-3.202239990E0,5.167877197E0
9.212646490E-1,6.381744385E0,-2.881423950E0,5.363006592E0
9.261474610E-1,5.974731445E0,-2.712631226E0,5.346252441E0
9.310607910E-1,5.750869751E0,-2.729385376E0,5.190628052E0
9.360046390E-1,5.725738525E0,-2.989166260E0,4.890151978E0
9.409790040E-1,5.916076660E0,-3.377014160E0,4.444839478E0
9.459533700E-1,5.956771851E0,-3.787628174E0,4.084503174E0
9.509277350E-1,6.096832275E0,-4.323928833E0,3.974380493E0
9.559021000E-1,6.268020630E0,-4.721359253E0,3.912124634E0
9.608764650E-1,6.582855225E0,-4.945220947E0,3.910934448E0
9.658508300E-1,7.053314209E0,-5.044586182E0,3.793609619E0
9.708251960E-1,7.536941528E0,-5.017044067E0,3.586517334E0
9.757995610E-1,7.787139893E0,-4.821914673E0,3.359069824E0
9.807739260E-1,7.972686768E0,-4.599258423E0,3.254913330E0
9.857482910E-1,8.088806152E0,-4.224563599E0,3.361465454E0
9.907226570E-1,8.030151367E0,-3.933670044E0,3.381805420E0
9.956970220E-1,7.880508423E0,-3.708618164E0,3.491943359E0
1.000671387E0,7.720108032E0,-3.582916260E0,3.574539185E0
1.005645752E0,7.826644897E0,-3.570953369E0,3.590103149E0
1.010620118E0,8.003814697E0,-3.521865845E0,3.721786499E0
1.015594483E0,7.923614502E0,-3.529052734E0,3.732559204E0
1.020568848E0,7.839813232E0,-3.191467285E0,3.369842529E0
1.025543213E0,7.674606323E0,-2.907760620E0,2.515106201E0
1.030517578E0,7.533355713E0,-2.975997925E0,2.166748047E0
1.035491944E0,7.644683838E0,-3.257308960E0,1.880645752E0
1.040466309E0,7.867340088E0,-3.666717529E0,1.462860107E0
1.045440674E0,8.090011597E0,-4.050994873E0,1.195907593E0
1.050415039E0,8.207321167E0,-4.244918823E0,1.150421143E0
1.055389405E0,8.289916992E0,-4.314346313E0,1.052246094E0
1.060363770E0,8.317459106E0,-4.355056763E0,9.062042236E-1
1.065338135E0,8.339004517E0,-4.279632568E0,8.583221436E-1
1.070312500E0,8.052902222E0,-4.078521729E0,1.086975098E0
1.075286866E0,7.657852173E0,-3.921707153E0,1.242584229E0
1.080261231E0,7.376541138E0,-3.950439453E0,1.235412598E0
1.085205078E0,7.248443604E0,-4.059371948E0,1.266525269E0
1.090148926E0,7.348999023E0,-4.143173218E0,1.260543823E0
1.095062256E0,7.381317139E0,-4.078521729E0,1.073806763E0
1.100006104E0,7.473495483E0,-3.897766113E0,9.684600830E-1
1.104919434E0,7.754821777E0,-3.763687134E0,1.054641724E0
1.109863282E0,8.001419067E0,-3.766082764E0,1.162384033E0
1.114776612E0,8.024169922E0,-3.784042358E0,1.142028809E0
1.119720459E0,7.752426147E0,-3.731369019E0,9.085998535E-1
1.124664307E0,7.596801758E0,-3.807983398E0,9.935913086E-1
1.129577637E0,7.629119873E0,-4.016265869E0,1.095352173E0
1.134521485E0,7.807495117E0,-4.125213623E0,1.120483398E0
1.139465332E0,8.002624512E0,-4.214996338E0,1.183929443E0
1.144378662E0,8.173797607E0,-4.343078613E0,1.286880493E0
1.149322510E0,8.289916992E0,-4.442443848E0,1.551437378E0
1.154266358E0,8.426391602E0,-4.593276978E0,1.868667603E0
1.159179688E0,8.468292236E0,-4.647140503E0,1.926132202E0
1.164123536E0,8.432373047E0,-4.604049683E0,1.981201172E0
1.169036866E0,8.300689697E0,-4.513076782E0,1.964447021E0
1.173980713E0,8.263580322E0,-4.575317383E0,1.650802612E0
1.178894043E0,8.306686401E0,-4.648345947E0,1.424545288E0
1.183837891E0,8.401260376E0,-4.803970337E0,1.468841553E0
1.188781739E0,8.408432007E0,-4.988311768E0,1.600524902E0
1.193695069E0,8.262390137E0,-5.037399292E0,1.684326172E0
1.198638916E0,7.975082397E0,-4.930862427E0,1.820785522E0
1.203582764E0,7.635116577E0,-4.805160522E0,2.011123657E0
1.208496094E0,7.456741333E0,-4.647140503E0,2.229003906E0
1.213439942E0,7.353790283E0,-4.568130493E0,2.318786621E0
1.218383789E0,7.368148804E0,-4.665100098E0,2.280471802E0
1.223297120E0,7.551315308E0,-4.916488647E0,2.208648682E0
1.228240967E0,7.893676758E0,-5.288787842E0,2.398986816E0
1.233154297E0,8.246826172E0,-5.616790771E0,2.681503296E0
1.238098145E0,8.547302246E0,-5.804748535E0,2.789245605E0
1.243041993E0,8.734054565E0,-5.861007690E0,2.597702026E0
1.247955323E0,8.869323730E0,-5.877761841E0,2.342727661E0
1.252899170E0,8.919601440E0,-5.661087036E0,2.087738037E0
1.257812500E0,8.774749756E0,-5.050567627E0,1.482009888E0
1.262756348E0,8.403640747E0,-4.357452393E0,7.338256836E-1
1.267700196E0,8.033737183E0,-3.916915894E0,2.178649902E-1
1.272613526E0,7.852981567E0,-3.750518799E0,1.951293945E-1
1.277557373E0,7.797912598E0,-3.636795044E0,4.369354248E-1
1.282501221E0,7.801513672E0,-3.586517334E0,6.763610840E-1
1.287475586E0,7.852981567E0,-3.580535889E0,7.398071289E-1
1.291656495E0,8.003814697E0,-3.519470215E0,7.637481689E-1
1.296234131E0,8.046905518E0,-3.296813965E0,8.271942139E-1
1.301025391E0,8.167816162E0,-3.210617065E0,7.493896484E-1
1.305908203E0,8.306686401E0,-3.202239990E0,5.997467041E-1
1.310821534E0,8.413223267E0,-3.203445435E0,3.926544189E-1
1.315765381E0,8.738830566E0,-3.270477295E0,-7.901000977E-2
1.320739746E0,9.163803101E0,-3.445251465E0,-6.512298584E-1
1.325714112E0,9.665390015E0,-3.602081299E0,-1.306030273E0
1.330688477E0,1.012028503E1,-3.776855469E0,-1.920150757E0
1.335662842E0,1.064820862E1,-4.073730469E0,-2.343917847E0
1.340637207E0,1.136407471E1,-4.369415283E0,-2.644393921E0
1.345611573E0,1.219726562E1,-4.571731567E0,-3.017898560E0
1.350585938E0,1.278144836E1,-4.748901367E0,-3.379409790E0
1.355560303E0,1.314895630E1,-4.805160522E0,-3.539825439E0
1.360534668E0,1.337281799E1,-4.647140503E0,-3.302795410E0
1.365509034E0,1.335006714E1,-4.332305908E0,-2.790435791E0
1.370483399E0,1.314297485E1,-3.933670044E0,-2.084152222E0
1.375457764E0,1.294784546E1,-3.611648560E0,-1.343139648E0
1.380432129E0,1.286404419E1,-3.406951904E0,-5.686187744E-1
1.385406495E0,1.281735229E1,-3.178298950E0,-3.950500488E-2
1.390380860E0,1.290115356E1,-3.088516235E0,3.411712646E-1
1.395355225E0,1.294305420E1,-3.111267090E0,5.566558838E-1
1.400329590E0,1.287242126E1,-3.144790649E0,5.542602539E-1
1.405303955E0,1.291313171E1,-3.246536255E0,2.178649902E-1
1.410278321E0,1.301727295E1,-3.391387939E0,-1.759796143E-1
1.415252686E0,1.302206421E1,-3.558975220E0,-4.632720947E-1
1.420227051E0,1.286643982E1,-3.701431274E0,-7.170562744E-1
1.425201416E0,1.266772461E1,-3.784042358E0,-8.643035889E-1
1.430175782E0,1.242471313E1,-3.872619629E0,-8.511352539E-1
1.435150147E0,1.203445435E1,-3.807983398E0,-7.960662842E-1
1.440124512E0,1.165496826E1,-3.586517334E0,-7.230529785E-1
1.445098877E0,1.131619263E1,-3.335128784E0,-5.841827393E-1
1.450073243E0,1.081101990E1,-3.213012695E0,-2.322387695E-1
1.455047608E0,1.052850342E1,-3.306396484E0,5.686187744E-1
1.460021973E0,1.046505737E1,-3.380615234E0,1.225830078E0
1.464965821E0,1.036450195E1,-3.394973755E0,1.438919067E0
1.469909668E0,1.001733398E1,-3.284851074E0,1.496383667E0
1.474853516E0,9.234436035E0,-3.081344604E0,2.388214111E0
1.479766846E0,8.401260376E0,-2.784454346E0,3.003524780E0
1.484710694E0,7.521377563E0,-2.451660156E0,4.001907349E0
1.489624024E0,6.285980225E0,-2.023101807E0,5.730514526E0
1.494567871E0,5.474334717E0,-1.606506348E0,6.611587524E0
1.499511719E0,5.646728516E0,-1.402999878E0,6.716934204E0
1.504455567E0,6.180633545E0,-1.432922363E0,5.313934326E0
1.509368897E0,6.566101074E0,-1.685516357E0,3.090911865E0
1.514312745E0,6.339843750E0,-2.194290161E0,2.499542236E0
1.519226075E0,5.697006226E0,-2.601303101E0,3.289627075E0
1.524169922E0,5.244491577E0,-2.641998291E0,3.922897339E0
1.529113770E0,5.524627686E0,-2.589324951E0,3.523071289E0
1.534027100E0,5.671859741E0,-2.615661621E0,2.601303101E0
1.538970948E0,5.992691040E0,-2.711441040E0,1.197097778E0
1.543884278E0,6.454772949E0,-2.958038330E0,-1.197052002E-1
1.548828125E0,7.055709839E0,-3.412933350E0,-9.289550781E-1
1.553771973E0,7.436386108E0,-3.897766113E0,-1.294067383E0
1.558685303E0,7.720108032E0,-4.220977783E0,-1.163589478E0
1.563659668E0,8.136688232E0,-4.401733398E0,-9.624633789E-1
1.567871094E0,8.755599976E0,-4.544189453E0,-9.085998535E-1
1.572448731E0,9.272735596E0,-4.611236572E0,-3.962402344E-1
1.577239991E0,9.542083740E0,-4.458007812E0,3.471374512E-2
1.582122803E0,9.429565430E0,-4.062957764E0,9.217834473E-2
1.587036133E0,9.120712280E0,-3.632003784E0,8.224029541E-1
1.591979981E0,8.902832031E0,-3.353073120E0,1.392227173E0
1.596954346E0,8.661026001E0,-2.845504761E0,1.345535278E0
1.601928711E0,8.431182861E0,-2.185913086E0,1.355117798E0
1.606903077E0,8.226470947E0,-1.796844482E0,1.435317993E0
1.611877442E0,7.627929688E0,-1.747772217E0,1.695098877E0
1.616851807E0,7.505828857E0,-1.535873413E0,1.756149292E0
1.621826172E0,7.376541138E0,-1.304840088E0,8.212127686E-1
1.626800537E0,7.028182983E0,-1.382644653E0,-5.506896973E-2
1.631774903E0,6.789962769E0,-1.497573853E0,-3.878631592E-1
1.636749268E0,6.612777710E0,-1.624465942E0,-5.027770996E-1
1.641723633E0,6.851013184E0,-1.543060303E0,-6.584014893E-1
1.646697998E0,6.736083984E0,-1.587356567E0,-6.572113037E-1
1.651672364E0,6.442794800E0,-1.717834473E0,-7.864990234E-1
1.656646729E0,6.351821899E0,-1.823181152E0,-1.085769653E0
1.661621094E0,6.185424805E0,-1.984786987E0,-1.750167847E0
1.666595459E0,6.016632080E0,-2.208648682E0,-2.764099121E0
1.671569825E0,5.922058105E0,-2.255340576E0,-3.088516235E0
1.676544190E0,5.804748535E0,-2.236190796E0,-3.174713135E0
1.681518555E0,5.675460815E0,-2.267303467E0,-2.839523315E0
1.686492920E0,5.463562012E0,-2.115280151E0,-1.934509277E0
1.691467286E0,5.307937622E0,-1.686721802E0,-1.309631348E0
1.696441651E0,5.744888306E0,-1.865081787E0,-5.877838135E-1
1.701416016E0,6.005859375E0,-1.898605347E0,1.556396484E-2
1.706390381E0,6.309921265E0,-1.996765137E0,2.992248535E-2
1.711364746E0,6.434417725E0,-2.068588257E0,1.268920898E-1
1.716339112E0,6.344635010E0,-1.920150757E0,6.871337891E-1
1.721313477E0,6.358993530E0,-1.850723267E0,1.067810059E0
1.726287842E0,5.892135620E0,-1.811218262E0,1.174362183E0
1.731262207E0,4.780029297E0,-1.561019897E0,2.361877441E0
1.736206055E0,4.723754883E0,-2.165557861E0,1.339553833E0
1.741149903E0,6.001068115E0,-4.479553223E0,-4.764404297E-1
1.746093750E0,6.143524170E0,-4.039016724E0,-2.598907471E0
1.751037598E0,7.588424683E0,-1.306030273E0,-1.411376953E0
1.755981446E0,1.152330017E1,-4.134780884E0,3.020278931E0
1.760925293E0,1.142393494E1,-5.602432251E0,3.682281494E0
1.765838623E0,1.293586731E1,-7.563278198E0,3.684677124E0
1.770782471E0,1.480455017E1,-9.782714844E0,2.087738037E0
1.775726319E0,1.601242065E1,-1.195783997E1,1.614883423E0
1.780639649E0,1.561976624E1,-1.277186584E1,1.742980957E0
1.785583496E0,1.357272339E1,-1.124916077E1,1.285690308E0
1.790496827E0,1.099777222E1,-9.421188354E0,1.025909424E0
1.795440674E0,1.015380859E1,-9.720458984E0,6.344604492E-1
1.800384522E0,9.988616943E0,-9.326614380E0,-2.908935547E-1
1.805297852E0,9.885665894E0,-8.829818726E0,-8.859252930E-2
1.810241700E0,9.507369995E0,-8.801086426E0,5.578460693E-1
1.815185547E0,8.919601440E0,-9.003402710E0,4.405364990E-1
1.820098877E0,8.756790161E0,-9.732437134E0,-3.112487793E-1
1.825042725E0,8.371322632E0,-9.809051514E0,-3.231811523E-2
1.829956055E0,8.019378662E0,-9.674972534E0,3.663177490E-1
1.834899903E0,8.094802856E0,-9.483428955E0,3.722991943E-1
1.839874268E0,8.044525146E0,-8.856155396E0,6.033325195E-1
1.844085694E0,7.942764282E0,-8.118743896E0,9.373321533E-1
1.848663330E0,8.045715332E0,-7.513000488E0,1.041473389E0
1.853454590E0,8.060073853E0,-7.030578613E0,1.001968384E0
1.858337403E0,7.581237793E0,-6.545745850E0,9.349365234E-1
1.863250733E0,7.428009033E0,-5.714965820E0,3.986358643E-1
1.868194580E0,7.303512573E0,-4.411315918E0,4.177856445E-1
1.873168946E0,7.353790283E0,-3.949234009E0,1.119293213E0
1.878143311E0,7.400482178E0,-4.459197998E0,1.029510498E0
1.883117676E0,7.072479248E0,-4.729751587E0,6.296691895E-1
1.888092041E0,7.095214844E0,-5.383361816E0,3.986358643E-1
1.893066407E0,7.360977173E0,-5.755661011E0,2.274475098E-1
1.898040772E0,7.281967163E0,-6.090850830E0,3.268127441E-1
1.903015137E0,7.252029419E0,-6.212951660E0,2.418212891E-1
1.907989502E0,7.030578613E0,-6.005859375E0,4.369354248E-1
1.912963868E0,7.147888184E0,-5.808334351E0,3.028717041E-1
1.917938233E0,7.356185913E0,-6.101623535E0,3.387756348E-1
1.922912598E0,6.965927124E0,-6.175842285E0,-1.388702393E-1
1.927886963E0,7.143096924E0,-6.327880859E0,-2.585754395E-1
1.932861328E0,7.766784668E0,-7.125137329E0,4.764404297E-1
1.937835694E0,7.339431763E0,-7.617156982E0,7.146759033E-1
1.942810059E0,6.653488159E0,-7.542938232E0,4.884185791E-1
1.947784424E0,6.704956055E0,-7.412445068E0,4.070129395E-1
1.952758789E0,6.933609009E0,-7.198165894E0,6.823425293E-1
1.957733155E0,7.092819214E0,-7.067687988E0,1.109710693E0
1.962707520E0,6.663070679E0,-6.985076904E0,6.512298584E-1
1.967681885E0,6.272811890E0,-7.023391724E0,-2.166748047E-1
1.972656250E0,5.815521240E0,-6.524200439E0,-5.937652588E-1
1.977630616E0,6.040573120E0,-5.677856445E0,1.057037354E0
1.982604981E0,6.630737305E0,-5.428848267E0,1.011550903E0
1.987579346E0,6.859390259E0,-5.683837891E0,2.861022949E-1
1.992553711E0,7.165847778E0,-5.990295410E0,-1.963195801E-1
1.997528077E0,6.916854858E0,-5.747283936E0,-2.873229980E-2
2.002502442E0,7.182601929E0,-6.105209351E0,8.403625488E-1
2.007476807E0,7.305908203E0,-6.599609375E0,9.816284180E-1
2.012451172E0,7.117965698E0,-6.936004639E0,7.553710938E-1
2.017395020E0,6.865371704E0,-7.088027954E0,4.489135742E-1
2.022338868E0,6.724121094E0,-7.179016113E0,5.997467041E-1
2.027252198E0,6.545745850E0,-7.163452148E0,5.710144043E-1
2.032196045E0,6.501449585E0,-7.003036499E0,3.603210449E-1
2.037109375E0,6.543350220E0,-6.810302734E0,1.185150146E-1
2.042053223E0,6.381744385E0,-6.627151489E0,-7.661437988E-2
2.046997071E0,6.135147095E0,-6.315902710E0,-4.908752441E-2
2.051910401E0,6.001068115E0,-6.227325439E0,-4.791259766E-3
2.056854248E0,6.074096680E0,-6.339843750E0,-1.460418701E-1
2.061798096E0,6.307525635E0,-6.957550049E0,-2.094879150E-1
2.066711426E0,6.442794800E0,-7.782348633E0,2.035064697E-1
2.071655274E0,6.256042480E0,-8.283935547E0,5.410919189E-1
2.076568604E0,6.180633545E0,-8.407241821E0,5.841827393E-1
2.081512452E0,5.991485596E0,-8.353363037E0,8.846588135E-1
2.086456299E0,6.157882690E0,-8.324645996E0,1.268920898E0
2.091369629E0,6.157882690E0,-8.208526611E0,9.265594482E-1
2.096313477E0,5.455184937E0,-8.062469482E0,1.891479492E-1
2.101257325E0,5.050567627E0,-8.220489502E0,-1.017608643E-1
2.106170655E0,5.044586182E0,-8.092407227E0,1.843566895E-1
2.111114502E0,5.140350342E0,-7.848190308E0,4.620819092E-1
2.116088868E0,5.434844971E0,-8.002624512E0,3.351898193E-1
2.120300293E0,5.404907227E0,-8.185775757E0,1.149291992E-1
2.124877930E0,5.359420776E0,-8.633483887E0,1.257019043E-1
2.129669190E0,5.090072632E0,-8.269577026E0,5.937652588E-1
2.134552002E0,5.398925781E0,-6.909667969E0,8.499450684E-1
2.139465332E0,5.972335815E0,-5.142745972E0,9.768371582E-1
2.144409180E0,6.004653931E0,-2.415756226E0,1.103729248E0
2.149383545E0,5.762847900E0,2.920989990E-1,1.140838623E0
2.154357911E0,5.045776367E0,2.533065796E0,8.403625488E-1
2.159332276E0,5.114013672E0,1.790863037E0,-3.411712646E-1
2.164306641E0,4.929656982E0,7.457885742E-1,5.986022949E-2
2.169281006E0,4.220977783E0,-1.009155273E0,1.257019043E-1
2.174255371E0,3.705032349E0,-3.198654175E0,5.146789551E-2
2.179229737E0,3.547012329E0,-5.702987671E0,-3.758850098E-1
2.184204102E0,3.847488403E0,-7.767990112E0,-8.236083984E-1
2.189178467E0,4.454406738E0,-8.725662231E0,-1.411376953E0
2.194152832E0,4.906921387E0,-8.859741211E0,-1.889022827E0
2.199127198E0,4.862625122E0,-8.175003052E0,-1.198303223E0
2.204101563E0,4.450820923E0,-6.101623535E0,7.063293457E-2
2.209075928E0,4.128799438E0,-3.846282959E0,2.287658691E0
2.214050293E0,5.051773071E0,-3.587707520E0,2.841918945E0
2.219024659E0,6.233306885E0,-4.565750122E0,2.373855591E0
2.223999024E0,6.851013184E0,-5.404907227E0,1.079788208E0
2.228973389E0,6.800735474E0,-6.026199341E0,-9.002227783E-1
2.233947754E0,5.884948730E0,-5.458786011E0,-1.590942383E0
2.238922120E0,4.606445312E0,-4.507080078E0,-1.225830078E0
2.243896485E0,3.497924805E0,-4.144363403E0,-7.817077637E-1
2.248870850E0,1.962051392E0,-2.984375000E0,-4.261627197E-1
2.253845215E0,1.092956543E0,-2.703048706E0,1.652069092E-1
2.258819580E0,8.762817383E-1,-3.215408325E0,8.152313232E-1
2.263793946E0,3.830718994E-1,-3.596084595E0,4.788360596E-1
2.268768311E0,2.968750000E-1,-4.715377808E0,-8.379669189E-1
2.273742676E0,4.405364990E-1,-6.100433350E0,-2.571365356E0
2.278717041E0,-3.292083740E-1,-6.181823730E0,-3.500320435E0
2.283691407E0,-1.041473389E0,-6.003463745E0,-2.749740601E0
2.288635254E0,-1.412582397E0,-6.393722534E0,-1.314422607E0
2.293579102E0,-5.817871094E-1,-7.935577393E0,-1.661575317E0
2.298522950E0,4.752502441E-1,-9.767150879E0,-1.203079224E0
2.303466797E0,7.254486084E-1,-1.042315674E1,-3.172302246E-1
2.308410645E0,1.526306152E0,-1.051174927E1,1.094146729E0
2.313323975E0,2.433700562E0,-1.058955383E1,2.697067261E0
2.318267823E0,2.179916382E0,-9.961074829E0,2.910156250E0
2.323181153E0,1.969238281E0,-9.618698120E0,2.716217041E0
2.328125000E0,2.103302002E0,-9.193740845E0,3.380615234E0
2.333068848E0,1.637634277E0,-8.577224731E0,3.157958984E0
2.337982178E0,1.027114868E0,-8.040924072E0,1.966842651E0
2.342926026E0,6.919250488E-1,-7.790725708E0,1.203079224E0
2.347869873E0,3.603210449E-1,-7.572860718E0,6.584014893E-1
2.352783203E0,-3.831481934E-2,-7.043746948E0,2.142791748E-1
2.357727051E0,-5.626373291E-1,-6.475112915E0,1.080978394E0
2.362640381E0,-1.181533813E0,-6.556518555E0,9.325408936E-1
2.367584229E0,-1.578979492E0,-6.682220459E0,1.363494873E0
2.372497559E0,-1.666366577E0,-6.823471069E0,1.089355469E0
2.377441407E0,-1.561019897E0,-6.861785889E0,-2.418212891E-1
2.382385254E0,-1.274917603E0,-6.370971680E0,-4.133590698E0
2.387298584E0,-1.124084473E0,-6.185424805E0,-2.783264160E0
2.392272950E0,-7.781219482E-1,-6.002258301E0,-2.816772461E0
2.396484375E0,-4.333496094E-1,-5.914871216E0,-3.274078369E0
2.401062012E0,2.621612549E-1,-6.208160400E0,-2.840713501E0
2.405853272E0,8.978271484E-1,-7.132324219E0,-1.570602417E0
2.410736084E0,-1.340759277E0,-1.248455811E1,-2.831146240E0
2.415649414E0,-6.363784790E0,-2.416827393E1,-3.961212158E0
2.420593262E0,-1.261744690E1,-3.713526917E1,-3.901351929E0
2.425567627E0,-1.261624146E1,-3.922540283E1,-3.660736084E0
2.430541993E0,-1.832763672E0,-3.912484741E1,-1.373077393E0
2.435516358E0,7.951141357E0,-3.915597534E1,-6.112396240E0
2.440490723E0,1.338238525E1,-3.774937439E1,-7.122756958E0
2.445465088E0,1.584243774E1,-3.074514771E1,-3.499130249E0
2.450439453E0,1.424070740E1,-2.258091736E1,-1.492782593E0
2.455413819E0,1.104086304E1,-1.591186523E1,6.093292236E-1
2.460388184E0,7.644683838E0,-1.084333801E1,2.586929321E0
2.465362549E0,5.225341797E0,-7.586029053E0,4.612426758E0
2.470336914E0,3.446456909E0,-5.574905396E0,6.168655396E0
2.475311280E0,1.728607178E0,-4.607635498E0,7.139511108E0
2.480285645E0,2.861022949E-1,-4.685455322E0,8.295913696E0
2.485260010E0,-1.133651733E0,-5.294784546E0,9.279922485E0
2.490234375E0,-2.564193726E0,-6.135147095E0,9.023742676E0
2.495208741E0,-3.757705688E0,-7.187393188E0,7.693771362E0
2.500183106E0,-4.447235107E0,-8.396469116E0,5.863403320E0
2.505157471E0,-4.584899902E0,-9.493011475E0,3.968383789E0
2.510131836E0,-4.469970703E0,-1.016578674E1,1.972824097E0
2.515106202E0,-4.039016724E0,-1.044590759E1,8.020019531E-2
2.520080567E0,-3.751708984E0,-1.055723572E1,-1.164779663E0
2.525054932E0,-3.622421265E0,-1.045428467E1,-1.592147827E0
2.530029297E0,-3.501525879E0,-1.010592651E1,-1.602920532E0
2.535003662E0,-3.490753174E0,-9.713272095E0,-1.529891968E0
2.539978028E0,-3.544616699E0,-9.372100830E0,-1.242584229E0
2.544952393E0,-3.588912964E0,-9.075225830E0,-1.134857178E0
2.549926758E0,-3.614044189E0,-8.826217651E0,-1.393432617E0
2.554901123E0,-3.682281494E0,-8.649047852E0,-1.765716553E0
2.559875489E0,-3.593704224E0,-8.700531006E0,-1.951278687E0
2.564849854E0,-3.392578125E0,-8.932769775E0,-2.321182251E0
2.569793702E0,-3.215408325E0,-9.263168335E0,-2.572570801E0
2.574737549E0,-2.975997925E0,-9.618698120E0,-2.576156616E0
2.579681397E0,-2.658767700E0,-9.895233154E0,-2.431304932E0
2.584594727E0,-2.449264526E0,-9.998184204E0,-2.354690552E0
2.589538575E0,-2.369064331E0,-9.937133789E0,-2.190689087E0
2.594482422E0,-2.425323486E0,-9.770736694E0,-1.802841187E0
2.599395752E0,-2.701858521E0,-9.489425659E0,-1.386245728E0
2.604339600E0,-3.028671265E0,-9.111129761E0,-9.852142334E-1
2.609252930E0,-2.967605591E0,-8.907623291E0,-6.763610840E-1
2.614196778E0,-2.503143311E0,-8.966278076E0,-4.417266846E-1
2.619140625E0,-2.116470337E0,-9.159011841E0,-2.837066650E-1
2.624053955E0,-1.866287231E0,-9.351745605E0,-1.376647949E-1
2.628997803E0,-1.680725098E0,-9.471466064E0,-5.027770996E-2
2.633941651E0,-1.496383667E0,-9.580398560E0,8.140563965E-2
2.638854981E0,-1.398208618E0,-9.597152710E0,2.274475098E-1
2.643798828E0,-1.332366943E0,-9.647430420E0,3.579406738E-1
2.648712159E0,-1.223434448E0,-9.688140869E0,5.374908447E-1
2.653656006E0,-1.151611328E0,-9.706100464E0,7.685394287E-1
2.658569336E0,-1.095352173E0,-9.677368164E0,9.528961182E-1
2.663513184E0,-1.037887573E0,-9.668991089E0,1.143234253E0
2.668487549E0,-9.888000488E-1,-9.660598755E0,1.274917603E0
2.672698975E0,-9.301452637E-1,-9.645034790E0,1.407791138E0
2.677276612E0,-9.361267090E-1,-9.643844604E0,1.450881958E0
2.682067871E0,-9.373321533E-1,-9.613922119E0,1.332366943E0
2.686950684E0,-9.516906738E-1,-9.572021484E0,1.144424438E0
2.691864014E0,-1.043869019E0,-9.527725220E0,1.054641724E0
2.696807862E0,-1.139633179E0,-9.542083740E0,8.547363281E-1
2.701782227E0,-1.236602783E0,-9.509765625E0,5.686187744E-1
2.706756592E0,-1.270126343E0,-9.440338135E0,2.968750000E-1
2.711730957E0,-1.297653198E0,-9.422378540E0,1.197814941E-2
2.716705323E0,-1.308425903E0,-9.388854980E0,-1.963195801E-1
2.721679688E0,-1.343139648E0,-9.387664795E0,-3.471527100E-1
2.726654053E0,-1.325195312E0,-9.382873535E0,-4.393310547E-1
2.731628418E0,-1.326385498E0,-9.361328125E0,-4.944000244E-1
2.736602784E0,-1.322799683E0,-9.326614380E0,-4.812316895E-1
2.741577149E0,-1.320404053E0,-9.303863525E0,-4.153900146E-1
2.746551514E0,-1.284484863E0,-9.290695190E0,-3.615264893E-1
2.751525879E0,-1.298858643E0,-9.267959595E0,-3.016662598E-1
2.756500245E0,-1.283294678E0,-9.273941040E0,-2.046966553E-1
2.761474610E0,-1.272521973E0,-9.270355225E0,-1.077423096E-1
2.766448975E0,-1.323989868E0,-9.288299561E0,-3.231811523E-2
2.771423340E0,-1.315612793E0,-9.306259155E0,8.499145508E-2
2.776397705E0,-1.325195312E0,-9.337387085E0,1.484375000E-1
2.781372071E0,-1.329986572E0,-9.361328125E0,1.807556152E-1
2.786346436E0,-1.295257568E0,-9.366119385E0,2.070922852E-1
2.791320801E0,-1.229415894E0,-9.357742310E0,1.795654297E-1
2.796295166E0,-1.243789673E0,-9.366119385E0,1.652069092E-1
2.801269532E0,-1.241394043E0,-9.388854980E0,1.508331299E-1
2.806243897E0,-1.212661743E0,-9.342178345E0,7.421875000E-2
2.811218262E0,-1.193511963E0,-9.350555420E0,4.908752441E-2
2.816192627E0,-1.238998413E0,-9.351745605E0,9.582519531E-3
2.821166993E0,-1.237808228E0,-9.329010010E0,-1.556396484E-2
2.826141358E0,-1.248580933E0,-9.317031860E0,-5.986022949E-2
2.831115723E0,-1.289276123E0,-9.355346680E0,-6.584167480E-2
2.836090088E0,-1.308425903E0,-9.369705200E0,-5.146789551E-2
2.841064453E0,-1.339553833E0,-9.349365234E0,-2.752685547E-2
2.846008301E0,-1.350326538E0,-9.318237305E0,-1.190185547E-3
2.850952149E0,-1.359909058E0,-9.276336670E0,5.267333984E-2
2.855865479E0,-1.385040283E0,-9.252395630E0,6.105041504E-2
2.860809327E0,-1.387435913E0,-9.273941040E0,1.065368652E-1
2.865753174E0,-1.436523438E0,-9.300277710E0,1.675872803E-1
2.870666504E0,-1.422149658E0,-9.312240601E0,1.628112793E-1
2.875610352E0,-1.440109253E0,-9.333801270E0,1.580200195E-1
2.880523682E0,-1.458068848E0,-9.363723755E0,2.046966553E-1
2.885467530E0,-1.502365112E0,-9.345764160E0,1.927337646E-1
2.890411377E0,-1.503555298E0,-9.354141235E0,2.035064697E-1
2.895324707E0,-1.533493042E0,-9.390060425E0,2.178649902E-1
2.900268555E0,-1.549041748E0,-9.380477905E0,2.035064697E-1
2.905212403E0,-1.553833008E0,-9.379287720E0,1.652069092E-1
2.910125733E0,-1.598129272E0,-9.370910645E0,1.041412354E-1
2.915069580E0,-1.593338013E0,-9.415191650E0,8.259582520E-2
2.920013428E0,-1.587356567E0,-9.379287720E0,3.591918945E-2
2.924926758E0,-1.611297607E0,-9.344573975E0,9.582519531E-3
2.929870606E0,-1.620880127E0,-9.375686646E0,-4.669189453E-2
2.934783936E0,-1.638824463E0,-9.429565430E0,-6.703186035E-2
2.939727784E0,-1.634048462E0,-9.435546875E0,-7.780456543E-2
2.944702149E0,-1.586151123E0,-9.483428955E0,-8.140563965E-2
2.948913575E0,-1.540664673E0,-9.532516479E0,-7.063293457E-2
2.953491211E0,-1.521514893E0,-9.542083740E0,-4.548645020E-2
2.958282471E0,-1.501159668E0,-9.548080444E0,9.582519531E-3
2.963165284E0,-1.438919067E0,-9.574417114E0,5.267333984E-2
2.968078614E0,-1.391036987E0,-9.558853149E0,1.017608643E-1
2.973022461E0,-1.375473022E0,-9.579208374E0,1.460418701E-1
2.977996827E0,-1.370681763E0,-9.583984375E0,1.819610596E-1
2.982971192E0,-1.316818237E0,-9.572021484E0,2.561798096E-1
2.987945557E0,-1.289276123E0,-9.572021484E0,2.346343994E-1
2.992919922E0,-1.279693604E0,-9.521743774E0,2.525939941E-1
2.997894287E0,-1.203079224E0,-9.540893555E0,2.968750000E-1
3.002868653E0,-1.194702148E0,-9.534912109E0,3.519439697E-1
3.007843018E0,-1.258148193E0,-9.483428955E0,3.639221191E-1
3.012817383E0,-1.250976562E0,-9.478637695E0,3.519439697E-1
3.017791748E0,-1.221038818E0,-9.484634399E0,3.423767090E-1
3.022766114E0,-1.206680298E0,-9.460693359E0,3.100433350E-1
3.027740479E0,-1.209075928E0,-9.471466064E0,2.430114746E-1
3.032714844E0,-1.169570923E0,-9.431961060E0,1.328735352E-1
3.037689209E0,-1.148025513E0,-9.458297729E0,3.352355957E-2
3.042663575E0,-1.134857178E0,-9.440338135E0,-4.788208008E-2
3.047637940E0,-1.124084473E0,-9.418792725E0,-1.137237549E-1
3.052612305E0,-1.061828613E0,-9.434356689E0,-1.867523193E-1
3.057586670E0,-1.017532349E0,-9.419982910E0,-2.202606201E-1
3.062561036E0,-9.528961182E-1,-9.424774170E0,-2.442016602E-1
3.067535401E0,-8.870544434E-1,-9.429565430E0,-2.597656250E-1
3.072509766E0,-8.152313232E-1,-9.461883545E0,-2.561798096E-1
3.077484131E0,-7.793121338E-1,-9.484634399E0,-2.118835449E-1
3.082458496E0,-7.386169434E-1,-9.538497925E0,-1.819610596E-1
3.087432862E0,-6.931152344E-1,-9.588775635E0,-1.161193848E-1
3.092407227E0,-6.907196045E-1,-9.684539795E0,-3.471374512E-2
3.097381592E0,-6.751708984E-1,-9.763549805E0,6.703186035E-2
3.102355957E0,-7.015075684E-1,-9.832992554E0,1.987152100E-1
3.107330323E0,-7.266387939E-1,-9.937133789E0,2.813262939E-1
3.112304688E0,-7.194519043E-1,-1.003889465E1,4.489135742E-1
3.117248536E0,-7.290344238E-1,-1.008557129E1,5.985565186E-1
3.122192383E0,-7.110748291E-1,-1.011190796E1,7.254486084E-1
3.127136231E0,-6.631927490E-1,-1.007958984E1,8.355712891E-1
3.132080078E0,-5.793914795E-1,-9.973052979E0,9.900054932E-1
3.137023926E0,-5.243377686E-1,-9.862915039E0,1.054641724E0
3.141937256E0,-4.417266846E-1,-9.759963989E0,1.114501953E0
3.146881104E0,-3.926544189E-1,-9.645034790E0,1.131256104E0
3.151824952E0,-3.639221191E-1,-9.610321045E0,1.091751099E0
3.156738282E0,-3.471527100E-1,-9.561248779E0,9.708557129E-1
3.161682129E0,-3.962402344E-1,-9.537307739E0,8.367767334E-1
3.166595459E0,-4.944000244E-1,-9.477447510E0,6.536102295E-1
3.171539307E0,-5.482788086E-1,-9.442733765E0,4.596862793E-1
3.176483155E0,-6.296691895E-1,-9.417587280E0,2.489929199E-1
3.181396485E0,-7.577667236E-1,-9.446319580E0,7.302856445E-2
3.186340332E0,-8.391723633E-1,-9.455902100E0,-9.815979004E-2
3.191284180E0,-9.696502686E-1,-9.493011475E0,-1.783752441E-1
3.196197510E0,-1.102523804E0,-9.522933960E0,-2.178649902E-1
3.201141358E0,-1.231811523E0,-9.528915405E0,-2.142791748E-1
3.206054688E0,-1.319198608E0,-9.546875000E0,-1.891479492E-1
3.210998536E0,-1.381454468E0,-9.647430420E0,-5.146789551E-2
3.215942383E0,-1.461654663E0,-9.749191284E0,1.221008301E-1
3.220916748E0,-1.541870117E0,-9.781509399E0,3.040618896E-1
3.225128174E0,-1.588546753E0,-9.865310669E0,5.099639893E-1
3.229705811E0,-1.623275757E0,-9.935943604E0,7.493896484E-1
3.234497071E0,-1.663970947E0,-9.998184204E0,1.030700684E0
3.239379883E0,-1.729812622E0,-9.994598389E0,1.302444458E0
3.244293213E0,-1.733398438E0,-9.947906494E0,1.619674683E0
3.249237061E0,-1.716644287E0,-9.939529419E0,1.880645752E0
3.254211426E0,-1.719039917E0,-9.876083374E0,2.108093262E0
3.259185791E0,-1.702270508E0,-9.774322510E0,2.376251221E0
3.264160157E0,-1.666366577E0,-9.742004395E0,2.501937866E0
3.269134522E0,-1.616088867E0,-9.678558350E0,2.610870361E0
3.274108887E0,-1.608901978E0,-9.611526489E0,2.664749146E0
3.279083252E0,-1.595733643E0,-9.601943970E0,2.572570801E0
3.284057618E0,-1.577774048E0,-9.606735229E0,2.424133301E0
3.289031983E0,-1.544265747E0,-9.598358154E0,2.221817017E0
3.294006348E0,-1.533493042E0,-9.562438965E0,1.956069946E0
3.298980713E0,-1.537078857E0,-9.537307739E0,1.684326172E0
3.303955078E0,-1.577774048E0,-9.504974365E0,1.470046997E0
3.308929444E0,-1.568206787E0,-9.516952515E0,1.307235718E0
3.313903809E0,-1.559829712E0,-9.534912109E0,1.206680298E0
3.318878174E0,-1.557434082E0,-9.518142700E0,1.133651733E0
3.323852539E0,-1.547851562E0,-9.459487915E0,1.112106323E0
3.328826905E0,-1.514328003E0,-9.414001465E0,1.168365479E0
3.333801270E0,-1.477218628E0,-9.349365234E0,1.304840088E0
3.338775635E0,-1.443710327E0,-9.284713745E0,1.474822998E0
3.343750000E0,-1.434127808E0,-9.222457886E0,1.667556763E0
3.348724366E0,-1.397018433E0,-9.198516846E0,1.885437012E0
3.353698731E0,-1.355117798E0,-9.144653320E0,2.036270142E0
3.358673096E0,-1.338363647E0,-9.127899170E0,2.225418091E0
3.363647461E0,-1.297653198E0,-9.168594360E0,2.385818481E0
3.368621827E0,-1.236602783E0,-9.248794556E0,2.476806641E0
3.373596192E0,-1.171966553E0,-9.326614380E0,2.613265991E0
3.378570557E0,-1.146820068E0,-9.454696655E0,2.717422485E0
3.383544922E0,-1.036682129E0,-9.572021484E0,2.843109131E0
3.388519287E0,-7.146759033E-1,-9.769546509E0,2.697067261E0
3.393463135E0,-3.244171143E-1,-9.969451904E0,1.959655762E0
3.398406983E0,1.257019043E-1,-1.029626465E1,9.349365234E-1
3.403350830E0,5.937652588E-1,-1.063385010E1,7.302246094E-1
3.408294678E0,1.039077759E0,-1.102648926E1,1.325195312E0
3.413208008E0,1.200698853E0,-1.126472473E1,2.396591187E0
3.418151856E0,1.277313232E0,-1.151730347E1,3.250122070E0
3.423095703E0,1.365890503E0,-1.175672913E1,3.582916260E0
3.428009034E0,1.483215332E0,-1.182975769E1,3.598480225E0
3.432952881E0,1.643615723E0,-1.187882996E1,3.151962280E0
3.437896729E0,1.635238647E0,-1.188481140E1,2.589324951E0
3.442810059E0,1.632843018E0,-1.181658936E1,2.261322021E0
3.447753907E0,1.704666138E0,-1.177348328E1,2.213439941E0
3.452667237E0,1.710662842E0,-1.179383850E1,1.499969482E0
3.457611084E0,1.531097412E0,-1.169328308E1,8.200073242E-1
3.462524414E0,8.942413330E-1,-1.124916077E1,7.757263184E-1
3.467468262E0,1.747741699E-1,-1.068412781E1,5.386352539E-2
3.472412110E0,-2.023162842E-1,-1.040280151E1,-6.907196045E-1
3.477325440E0,-6.631927490E-1,-1.007121277E1,-1.450881958E0
3.482269287E0,-1.041473389E0,-9.894042969E0,-1.588546753E0
3.487213135E0,-1.623275757E0,-9.534912109E0,-1.229415894E0
3.492126465E0,-2.348709106E0,-8.937561035E0,-7.685394287E-1
3.497070313E0,-2.789245605E0,-8.406036377E0,-6.212921143E-1
3.502044678E0,-2.669540405E0,-8.016983032E0,-1.221008301E-1
3.506225586E0,-2.668334961E0,-7.558502197E0,2.741394043E-1
3.510803223E0,-2.561798096E0,-7.173034668E0,6.356658936E-1
3.515594483E0,-2.212249756E0,-6.919250488E0,1.100128174E0
3.520477295E0,-1.776504517E0,-6.896499634E0,1.686721802E0
3.525390625E0,-1.497573853E0,-6.938400269E0,1.905776978E0
3.530334473E0,-1.286880493E0,-7.071273804E0,2.017120361E0
3.535308838E0,-1.104919434E0,-7.249649048E0,2.130844116E0
3.540283203E0,-9.995727539E-1,-7.530960083E0,2.094924927E0
3.545257569E0,-8.583221436E-1,-7.839813232E0,2.036270142E0
3.550231934E0,-7.230529785E-1,-8.106765747E0,2.021896362E0
3.555206299E0,-6.428375244E-1,-8.367736816E0,2.105697632E0
3.560180664E0,-7.015075684E-1,-8.571243286E0,2.193084717E0
3.565155030E0,-5.159454346E-1,-9.003402710E0,2.069793701E0
3.570129395E0,-4.417266846E-1,-9.168594360E0,1.994369507E0
3.575103760E0,-5.087738037E-1,-9.244018555E0,2.065002441E0
3.580078125E0,-4.776458740E-1,-9.301467896E0,2.036270142E0
3.585052491E0,-3.770904541E-1,-9.343368530E0,2.021896362E0
3.590026856E0,-2.322387695E-1,-9.358932495E0,1.980010986E0
3.595001221E0,-7.421875000E-2,-9.457092285E0,1.974014282E0
3.599975586E0,1.435852051E-2,-9.542083740E0,2.027893066E0
3.604949952E0,1.592102051E-1,-9.578002930E0,2.055419922E0
3.609924317E0,2.465972900E-1,-9.552871704E0,2.220626831E0
3.614898682E0,3.495483398E-1,-9.534912109E0,2.345123291E0
3.619873047E0,4.058227539E-1,-9.495407104E0,2.351104736E0
3.624847412E0,3.268127441E-1,-9.396041870E0,2.419342041E0
3.629821778E0,6.463623047E-2,-9.260772705E0,2.372650146E0
3.634796143E0,-8.499145508E-2,-9.125503540E0,2.329559326E0
3.639770508E0,-1.819610596E-1,-9.003402710E0,2.426528931E0
3.644744873E0,-3.220214844E-1,-8.889663696E0,2.590530396E0
3.649719239E0,-3.316040039E-1,-8.807067871E0,2.795227051E0
3.654693604E0,-3.244171143E-1,-8.772354126E0,2.950851440E0
3.659667969E0,-3.471527100E-1,-8.772354126E0,3.087326050E0
3.664642334E0,-3.639221191E-1,-8.774749756E0,3.138793945E0
3.669616700E0,-3.244171143E-1,-8.797500610E0,3.177108765E0
3.674591065E0,-3.770904541E-1,-8.815444946E0,3.411743164E0
3.679534912E0,-2.226562500E-1,-8.823837280E0,3.584121704E0
3.684478760E0,-5.506896973E-2,-8.874114990E0,3.654754639E0
3.689422608E0,5.267333984E-2,-8.927978516E0,3.707427979E0
3.694366455E0,6.344604492E-2,-8.949523926E0,3.633193970E0
3.699279786E0,1.197814941E-2,-8.938751221E0,3.591308594E0
3.704223633E0,1.149291992E-1,-8.907623291E0,3.518280029E0
3.709167481E0,8.499145508E-2,-8.844177246E0,3.588912964E0
3.714080811E0,6.703186035E-2,-8.828613281E0,3.648757935E0
3.719024659E0,1.699829102E-1,-8.749603271E0,3.597290039E0
3.723937989E0,2.274475098E-1,-8.702926636E0,3.430892944E0
3.728881836E0,2.956848145E-1,-8.595184326E0,3.347091675E0
3.733825684E0,3.232116699E-1,-8.401260376E0,3.386596680E0
3.738739014E0,3.758850098E-1,-8.325836182E0,3.312377930E0
3.743682862E0,4.537048340E-1,-8.203735352E0,3.252517700E0
3.748596192E0,4.465179443E-1,-8.062469482E0,3.260910034E0
3.753540039E0,4.369354248E-1,-7.999023438E0,3.265686035E0
3.758483887E0,3.639221191E-1,-7.949951172E0,3.191467285E0
3.763397217E0,3.303985596E-1,-7.887695312E0,3.105285645E0
3.768341065E0,2.765350342E-1,-7.831436157E0,3.046615601E0
3.773284912E0,2.166748047E-1,-7.716506958E0,3.021484375E0
3.778259278E0,1.843566895E-1,-7.686584473E0,3.059783936E0
3.782440186E0,2.046966553E-1,-7.674606323E0,3.064575195E0
3.787017823E0,1.520385742E-1,-7.644683838E0,3.081344604E0
3.791809082E0,6.823730469E-2,-7.657852173E0,3.186676025E0
3.796691895E0,3.352355957E-2,-7.627929688E0,3.259704590E0
3.801605225E0,2.992248535E-2,-7.630325317E0,3.252517700E0
3.806549073E0,3.585815430E-3,-7.623138428E0,3.302795410E0
3.811523438E0,-1.190185547E-3,-7.631515503E0,3.383010864E0
3.816497803E0,-4.548645020E-2,-7.576446533E0,3.423706055E0
3.821472168E0,-5.146789551E-2,-7.530960083E0,3.353073120E0
3.826446534E0,-2.395629883E-3,-7.448364258E0,3.491943359E0
3.831420899E0,8.859252930E-2,-7.420822144E0,3.773254395E0
3.836395264E0,2.011108398E-1,-7.340621948E0,4.060562134E0
3.841369629E0,3.758850098E-1,-7.382522583E0,4.225769043E0
3.846343995E0,4.788360596E-1,-7.370544434E0,4.205413818E0
3.851318360E0,5.386962891E-1,-7.337036133E0,4.094085693E0
3.856292725E0,4.357452393E-1,-7.267593384E0,3.961212158E0
3.861267090E0,3.136444092E-1,-7.174224854E0,3.690658569E0
3.866241455E0,1.795654297E-1,-7.127532959E0,3.462020874E0
3.871215821E0,-7.186889648E-3,-7.082046509E0,3.234573364E0
3.876190186E0,-3.148345947E-1,-7.000640869E0,3.072952271E0
3.881164551E0,-5.315093994E-1,-6.938400269E0,3.051406860E0
3.886138916E0,-7.194519043E-1,-6.860580444E0,3.060989380E0
3.891113282E0,-7.673492432E-1,-6.856994629E0,3.013107300E0
3.896087647E0,-7.469940186E-1,-6.785171509E0,3.074157715E0
3.901062012E0,-7.338256836E-1,-6.696578979E0,3.224990845E0
3.906036377E0,-7.110748291E-1,-6.654678345E0,3.451248169E0
3.911010743E0,-4.680633545E-1,-6.706161499E0,3.454833984E0
3.915985108E0,-3.076477051E-1,-6.781570435E0,3.663131714E0
3.920959473E0,-1.484375000E-1,-6.841430664E0,3.736145020E0
3.925933838E0,1.190185547E-3,-6.922836304E0,3.766082764E0
3.930908203E0,1.460418701E-1,-7.094024658E0,3.870223999E0
3.935882569E0,2.729339600E-1,-7.208938599E0,4.015075684E0
3.940856934E0,5.315093994E-1,-7.496246338E0,4.021057129E0
3.945831299E0,7.661437988E-1,-7.993041992E0,4.082107544E0
3.950775147E0,6.572113037E-1,-8.479064941E0,4.153945923E0
3.955749512E0,3.890533447E-1,-8.658630371E0,4.195831299E0
3.960693360E0,4.752502441E-1,-9.528915405E0,4.228164673E0
3.965637207E0,-1.029510498E-1,-1.087565613E1,4.459197998E0
3.970550537E0,-1.225830078E0,-1.263540649E1,4.369415283E0
3.975494385E0,-2.300827026E0,-1.492425537E1,3.821151733E0
3.980438233E0,-3.070556641E0,-1.747767639E1,3.345901489E0
3.985351563E0,-3.017898560E0,-1.970547485E1,3.691864014E0
3.990295411E0,-2.475601196E0,-2.133952332E1,4.893753052E0
3.995239258E0,-1.868667603E0,-2.249472046E1,6.279983521E0
4.000152588E0,-1.458068848E0,-2.311361694E1,7.146697998E0
4.005096436E0,-6.739654541E-1,-2.314355469E1,7.874526978E0
4.010040284E0,4.740447998E-1,-2.252464294E1,8.510192871E0
4.014953614E0,1.735794067E0,-2.116235352E1,8.676589966E0
4.019897461E0,2.622848511E0,-1.914283752E1,8.392868042E0
4.024810791E0,2.631225586E0,-1.676539612E1,7.592010498E0
4.029754639E0,1.572998047E0,-1.408389282E1,6.229705811E0
4.034698487E0,7.182312012E-2,-1.122880554E1,4.388565063E0
4.039611817E0,-1.270126343E0,-8.412033081E0,2.546234131E0
4.044555664E0,-2.398986816E0,-5.896911621E0,4.800415039E-1
4.049468995E0,-3.141189575E0,-3.969589233E0,-1.660385132E0
4.054443360E0,-3.491943359E0,-2.448074341E0,-3.518280029E0
4.058654786E0,-3.843887329E0,-1.112106323E0,-4.964370728E0
4.063232422E0,-4.291610718E0,1.388702393E-1,-5.759246826E0
4.068023682E0,-4.720169067E0,1.134857178E0,-5.657501221E0
4.072906495E0,-5.145141602E0,1.731002808E0,-4.923675537E0
4.077819825E0,-5.503067017E0,1.830368042E0,-3.833114624E0
4.082763672E0,-5.711364746E0,1.504760742E0,-2.561798096E0
4.087738037E0,-5.687423706E0,7.828979492E-1,-1.414978027E0
4.092712403E0,-5.456390381E0,-1.268920898E-1,-4.668731689E-1
4.097686768E0,-5.218170166E0,-1.465255737E0,3.831481934E-2
4.102661133E0,-4.821914673E0,-3.165130615E0,3.184356689E-1
4.107635498E0,-4.335891724E0,-5.090072632E0,2.262573242E-1
4.112609864E0,-3.763687134E0,-7.188583374E0,-4.213867188E-1
4.117584229E0,-3.216613770E0,-9.296691895E0,-1.455673218E0
4.122558594E0,-2.522293091E0,-1.111149597E1,-2.329559326E0
4.127532959E0,-1.610107422E0,-1.262461853E1,-3.001129150E0
4.132507325E0,-1.023513794E0,-1.375228882E1,-3.363845825E0
4.137481690E0,-6.799468994E-1,-1.438914490E1,-3.304000854E0
4.142456055E0,-3.232116699E-1,-1.473152161E1,-2.410964966E0
4.147430420E0,3.998260498E-1,-1.505593872E1,-1.185134888E0
4.152404786E0,1.112106323E0,-1.524867249E1,4.309539795E-1
4.157379151E0,2.062606812E0,-1.536718750E1,1.760940552E0
4.162353516E0,2.968811035E0,-1.516607666E1,2.299636841E0
4.167327881E0,3.102890015E0,-1.436880493E1,2.640808105E0
4.172302246E0,2.823959351E0,-1.333091736E1,2.422927856E0
4.177276612E0,2.438491821E0,-1.234809875E1,1.616088867E0
4.182250977E0,2.181121826E0,-1.159512329E1,6.787567139E-1
4.187225342E0,1.742980957E0,-1.087925720E1,-1.663970947E-1
4.192199707E0,1.164779663E0,-1.030584717E1,-5.805969238E-1
4.197174073E0,6.153106689E-1,-9.896438599E0,-8.164215088E-1
4.202148438E0,3.447723389E-1,-9.679763794E0,-1.122879028E0
4.207122803E0,2.202606201E-1,-9.442733765E0,-1.009155273E0
4.212097168E0,7.421875000E-2,-9.390060425E0,-4.070129395E-1
4.217071534E0,1.436462402E-1,-9.606735229E0,4.764404297E-1
4.222045899E0,1.855468750E-1,-9.666595459E0,1.199493408E0
4.227020264E0,-8.140563965E-2,-9.519348145E0,1.592147827E0
4.231964112E0,-4.129943848E-1,-9.417587280E0,2.081756592E0
4.236907959E0,-6.440429688E-1,-9.445129395E0,2.527084351E0
4.241851807E0,-9.385223389E-1,-9.583984375E0,2.839523315E0
4.246765137E0,-1.108520508E0,-9.774322510E0,2.881423950E0
4.251708985E0,-1.091751099E0,-1.012507629E1,2.902969360E0
4.256652832E0,-1.222244263E0,-1.029745483E1,2.784454346E0
4.261566162E0,-1.386245728E0,-1.034056091E1,2.454055786E0
4.266510010E0,-1.430541992E0,-1.029745483E1,2.149993896E0
4.271423340E0,-1.476028442E0,-1.014901733E1,1.851913452E0
4.276367188E0,-1.571792603E0,-1.000656128E1,1.432922363E0
4.281311036E0,-1.623275757E0,-9.895233154E0,9.947967529E-1
4.286224366E0,-1.648406982E0,-9.801864624E0,7.242431641E-1
4.291168213E0,-1.642425537E0,-9.721649170E0,5.051727295E-1
4.296112061E0,-1.622070312E0,-9.588775635E0,3.507537842E-1
4.301025391E0,-1.616088867E0,-9.391250610E0,3.423767090E-1
4.305969239E0,-1.617279053E0,-9.178176880E0,2.849121094E-1
4.310882569E0,-1.661575317E0,-9.023742676E0,1.903381348E-1
4.315826416E0,-1.657989502E0,-8.939956665E0,1.352691650E-1
4.320770264E0,-1.613693237E0,-8.895660400E0,1.280822754E-1
4.325683594E0,-1.556228638E0,-8.810668945E0,8.140563965E-2
4.330657959E0,-1.412582397E0,-8.766372681E0,1.675415039E-2
4.334838868E0,-1.346740723E0,-8.717285156E0,-5.267333984E-2
4.339416504E0,-1.283294678E0,-8.668212891E0,-1.819610596E-1
4.344207764E0,-1.201889038E0,-8.696945190E0,-3.710937500E-1
4.349090577E0,-1.090560913E0,-8.696945190E0,-5.853881836E-1
4.354003907E0,-1.028305054E0,-8.725662231E0,-8.511352539E-1
4.358947754E0,-9.564819336E-1,-8.850173950E0,-1.186325073E0
4.363922120E0,-8.247985840E-1,-8.942337036E0,-1.541870117E0
4.368896485E0,-6.416473389E-1,-9.075225830E0,-1.897399902E0
4.373870850E0,-5.207366943E-1,-9.239227295E0,-2.251739502E0
4.378845215E0,-4.896087646E-1,-9.403228760E0,-2.523483276E0
4.383819580E0,-4.584960938E-1,-9.544479370E0,-2.753326416E0
4.388793946E0,-4.656677246E-1,-9.544479370E0,-2.893386841E0
4.393768311E0,-4.333496094E-1,-9.501388550E0,-2.902969360E0
4.398742676E0,-4.237670898E-1,-9.545684814E0,-2.780868530E0
4.403717041E0,-4.908142090E-1,-9.566040039E0,-2.523483276E0
4.408691407E0,-5.590515137E-1,-9.575607300E0,-2.104507446E0
4.413665772E0,-7.589569092E-1,-9.512161255E0,-1.695098877E0
4.418640137E0,-9.995727539E-1,-9.351745605E0,-1.314422607E0
4.423614502E0,-1.057037354E0,-9.294296265E0,-9.014129639E-1
4.428588868E0,-1.018737793E0,-9.196121216E0,-4.740447998E-1
4.433563233E0,-7.781219482E-1,-9.315841675E0,-1.053466797E-1
4.438537598E0,-5.159454346E-1,-9.437942505E0,1.831512451E-1
4.443511963E0,-4.812316895E-1,-9.435546875E0,4.465179443E-1
4.448486328E0,-4.501037598E-1,-9.327804565E0,5.398864746E-1
4.453460694E0,-2.238616943E-1,-9.307464600E0,6.105194092E-1
4.458435059E0,3.471374512E-2,-9.343368530E0,6.332702637E-1
4.463409424E0,2.118835449E-1,-9.317031860E0,6.105194092E-1
4.468383789E0,1.628112793E-1,-9.278732300E0,5.686187744E-1
4.473358155E0,-3.231811523E-2,-9.199722290E0,4.824371338E-1
4.478332520E0,-2.406158447E-1,-9.054870605E0,4.046173096E-1
4.483306885E0,-3.974304199E-1,-8.943542480E0,3.076477051E-1
4.488281250E0,-5.566558838E-1,-8.872909546E0,3.339843750E-1
4.493255616E0,-6.991119385E-1,-8.825027466E0,3.016662598E-1
4.498229981E0,-8.774719238E-1,-8.808273315E0,2.238616943E-1
4.503204346E0,-1.042678833E0,-8.768768311E0,1.065368652E-1
4.508148194E0,-1.204284668E0,-8.719680786E0,2.275085449E-2
4.513092041E0,-1.389831543E0,-8.746017456E0,-3.352355957E-2
4.518035889E0,-1.538269043E0,-8.753204346E0,2.752685547E-2
4.522979737E0,-1.678329468E0,-8.732849121E0,1.257019043E-1
4.527923584E0,-1.813613892E0,-8.667007446E0,2.669525146E-1
4.532836914E0,-1.883041382E0,-8.634689331E0,3.746948242E-1
4.537780762E0,-1.885437012E0,-8.707717896E0,4.357452393E-1
4.542724610E0,-1.851913452E0,-8.694549561E0,4.632720947E-1
4.547637940E0,-1.823181152E0,-8.700531006E0,4.860229492E-1
4.552581787E0,-1.835159302E0,-8.750808716E0,4.824371338E-1
4.557495118E0,-1.777694702E0,-8.882492065E0,4.369354248E-1
4.562438965E0,-1.643615723E0,-9.028533936E0,3.950500488E-1
4.567382813E0,-1.529891968E0,-9.132675171E0,4.082183838E-1
4.572296143E0,-1.443710327E0,-9.197326660E0,4.213867188E-1
4.577239991E0,-1.219848633E0,-9.332595825E0,5.386962891E-1
4.582183838E0,-9.612731934E-1,-9.484634399E0,6.488342285E-1
4.587097168E0,-7.158660889E-1,-9.641448975E0,8.583221436E-1
4.592041016E0,-5.027770996E-1,-9.750381470E0,1.007965088E0
4.596954346E0,-2.837066650E-1,-9.853332520E0,1.148025513E0
4.601898194E0,-1.376647949E-1,-9.883270264E0,1.285690308E0
4.606872559E0,5.986022949E-2,-9.821014404E0,1.326385498E0
4.611053467E0,2.861022949E-1,-9.734817505E0,1.235412598E0
4.615631104E0,4.776458740E-1,-9.678558350E0,1.249771118E0
4.620422364E0,6.141052246E-1,-9.664199829E0,1.130065918E0
4.625305176E0,7.529754639E-1,-9.727645874E0,1.080978394E0
4.630218506E0,8.523406982E-1,-9.803054810E0,9.540863037E-1
4.635162354E0,9.133911133E-1,-1.000656128E1,7.876892090E-1
4.640136719E0,1.028305054E0,-1.029745483E1,5.841827393E-1
4.645111084E0,1.212661743E0,-1.056680298E1,3.579406738E-1
4.650085450E0,1.346740723E0,-1.079785156E1,1.233062744E-1
4.655059815E0,1.284484863E0,-1.091516113E1,-1.185150146E-1
4.660034180E0,1.006759644E0,-1.093910217E1,-2.082977295E-1
4.665008545E0,7.230529785E-1,-1.089840698E1,-3.100433350E-1
4.669982911E0,4.692687988E-1,-1.083375549E1,-4.321594238E-1
4.674957276E0,2.765350342E-1,-1.078468323E1,-5.698242188E-1
4.679931641E0,1.891479492E-1,-1.075236511E1,-6.332702637E-1
4.684906006E0,1.915435791E-1,-1.072242737E1,-5.698242188E-1
4.689880371E0,3.423767090E-1,-1.066377258E1,-4.094085693E-1
4.694854737E0,5.243377686E-1,-1.060272217E1,-1.771697998E-1
4.699829102E0,5.458831787E-1,-1.052252197E1,7.182312012E-2
4.704803467E0,6.272735596E-1,-1.048779297E1,3.196258545E-1
4.709777832E0,7.326202393E-1,-1.053448486E1,5.183410645E-1
4.714752198E0,8.116302490E-1,-1.059434509E1,7.589569092E-1
4.719726563E0,8.918457031E-1,-1.080503845E1,1.036682129E0
4.724700928E0,1.065414429E0,-1.102050781E1,1.359909058E0
4.729675293E0,1.055847168E0,-1.118450928E1,1.781280518E0
4.734649659E0,8.858489990E-1,-1.126232910E1,2.127243042E0
4.739624024E0,1.181533813E0,-1.188481140E1,2.151184082E0
4.744598389E0,1.654388428E0,-1.299572754E1,1.877059937E0
4.749572754E0,2.070983887E0,-1.391510010E1,1.340759277E0
4.754547120E0,2.598907471E0,-1.417965698E1,1.047470093E0
4.759521485E0,3.294418335E0,-1.392347717E1,1.356307983E0
4.764495850E0,3.636795044E0,-1.328422546E1,1.616088867E0
4.769470215E0,4.138381958E0,-1.295024109E1,1.826782227E0
4.774444580E0,4.708190918E0,-1.300170898E1,1.482009888E0
4.779418946E0,5.220550537E0,-1.340393066E1,3.710937500E-1
4.784362793E0,5.676651001E0,-1.387440491E1,-1.100128174E0
4.789306641E0,5.845443726E0,-1.424070740E1,-2.398986816E0
4.794250489E0,5.638351440E0,-1.425866699E1,-3.295623779E0
4.799194336E0,5.129577637E0,-1.394383240E1,-3.507507324E0
4.804107666E0,3.986343384E0,-1.322796631E1,-3.101684570E0
4.809051514E0,2.553421021E0,-1.241273499E1,-1.690307617E0
4.813995362E0,1.614883423E0,-1.197938538E1,1.185134888E0
4.818908692E0,8.571166992E-1,-1.178904724E1,4.098876953E0
4.823852539E0,-5.231323242E-1,-1.126591492E1,5.552154541E0
4.828796387E0,-2.147598267E0,-1.072961426E1,5.811920166E0
4.833709717E0,-3.549407959E0,-1.038246155E1,5.395339966E0
4.838653565E0,-4.990707397E0,-1.015501404E1,5.005081177E0
4.843566895E0,-6.573287964E0,-9.927551270E0,4.557357788E0
4.848510743E0,-7.935577393E0,-9.668991089E0,4.177886963E0
4.853454590E0,-9.064453125E0,-9.691726685E0,3.903747559E0
4.858367920E0,-9.503784180E0,-1.006163025E1,3.421310425E0
4.863311768E0,-9.245208740E0,-1.070686340E1,3.093307495E0
4.868225098E0,-8.495819092E0,-1.132817078E1,2.912551880E0
4.873168946E0,-7.867340088E0,-1.175193787E1,2.744949341E0
4.878112793E0,-7.375335693E0,-1.198657227E1,2.396591187E0
4.883087159E0,-6.586456299E0,-1.213142395E1,1.538269043E0
4.887268067E0,-5.801147461E0,-1.242231750E1,1.029510498E0
4.891845703E0,-5.208587646E0,-1.261505127E1,5.746154785E-1
4.896636963E0,-4.693832397E0,-1.250132751E1,3.591918945E-2
4.901519776E0,-4.374206543E0,-1.226071167E1,-3.651123047E-1
4.906433106E0,-4.242523193E0,-1.204403687E1,-5.267181396E-1
4.911376953E0,-3.976776123E0,-1.165975952E1,-9.624633789E-1
4.916351319E0,-3.096893311E0,-1.129943848E1,-1.927337646E0
4.921325684E0,-1.490386963E0,-1.112466431E1,-3.411743164E0
4.926300049E0,-2.190704346E-1,-1.113423157E1,-4.163513184E0
4.931274414E0,1.400604248E-1,-1.106838989E1,-3.563766479E0
4.936248780E0,6.967163086E-1,-1.084214783E1,-3.648757935E0
4.941223145E0,1.224639893E0,-1.081221008E1,-4.410125732E0
4.946197510E0,1.534683228E0,-1.106959534E1,-4.582504272E0
4.951171875E0,1.788467407E0,-1.132817078E1,-4.065353394E0
4.956146241E0,2.128448486E0,-1.153646851E1,-3.661926270E0
4.961120606E0,2.236190796E0,-1.163581848E1,-3.228576660E0
4.966094971E0,2.015914917E0,-1.161068726E1,-2.618057251E0
4.971069336E0,1.644821167E0,-1.132456970E1,-1.731002808E0
4.976043702E0,1.364700317E0,-1.092115784E1,-3.675079346E-1
4.981018067E0,1.522705078E0,-1.077989197E1,7.457885742E-1
4.985992432E0,2.092529297E0,-1.113304138E1,-1.133651733E0
4.990966797E0,2.552215576E0,-1.151969910E1,-3.687072754E0
4.995941162E0,1.486801147E0,-1.103607178E1,-3.851074219E0
5.000915528E0,2.609710693E-1,-1.042196655E1,-1.734603882E0
5.005889893E0,-2.633666992E-1,-1.001853943E1,3.722991943E-1
5.010864258E0,-5.315093994E-1,-9.715667725E0,1.441314697E0
5.015838623E0,-6.811523438E-1,-9.649826050E0,1.345535278E0
5.020812989E0,-9.947967529E-1,-9.352951050E0,9.433135986E-1
5.025787354E0,-1.150421143E0,-8.955505371E0,6.643981934E-1
5.030761719E0,-1.290481567E0,-8.603561401E0,2.274475098E-1
5.035736084E0,-1.302444458E0,-8.334213257E0,-4.333496094E-1
5.040710450E0,-1.316818237E0,-8.110351562E0,-6.512298584E-1
5.045684815E0,-1.450881958E0,-7.793121338E0,-4.357452393E-1
5.050659180E0,-1.450881958E0,-7.632720947E0,-3.088531494E-1
5.055633545E0,-1.073806763E0,-7.660247803E0,-2.645568848E-1
5.060577393E0,-6.727752686E-1,-7.693771362E0,-3.627166748E-1
5.065521241E0,-4.058227539E-1,-7.711730957E0,-3.831481934E-2
5.070465088E0,-4.524993896E-1,-7.589614868E0,2.801208496E-1
5.075408936E0,-7.158660889E-1,-7.333435059E0,7.122802734E-1
5.080322266E0,-1.212661743E0,-6.933609009E0,1.310821533E0
5.085266114E0,-2.043457031E0,-6.240493774E0,2.149993896E0
5.090179444E0,-2.139221191E0,-6.357803345E0,-4.177856445E-1
5.095123291E0,-1.725021362E0,-7.024581909E0,-1.120483398E0
5.100067139E0,-1.974014282E0,-7.031768799E0,-2.418212891E-1
5.104980469E0,-2.147598267E0,-6.934799194E0,1.675415039E-2
5.109924317E0,-2.167953491E0,-6.868957520E0,-5.063781738E-1
5.114868164E0,-2.248153687E0,-6.661865234E0,-6.620025635E-1
5.119781495E0,-2.173934937E0,-6.631942749E0,-5.877838135E-1
5.124725342E0,-2.044647217E0,-6.618774414E0,-6.631927490E-1
5.129638672E0,-1.837554932E0,-6.658279419E0,-9.349365234E-1
5.134582520E0,-1.759735107E0,-6.592437744E0,-1.094146729E0
5.139495850E0,-1.892623901E0,-6.470336914E0,-9.085998535E-1
5.144439698E0,-1.914169312E0,-6.285980225E0,-6.799468994E-1
5.149383545E0,-1.890228271E0,-6.050140381E0,-5.291137695E-1
5.154327393E0,-1.970428467E0,-5.799957275E0,-3.998260498E-1
5.159301758E0,-2.189498901E0,-5.256469727E0,-1.412506104E-1
5.163482666E0,-1.848327637E0,-5.256469727E0,-1.735839844E-1
5.168060303E0,-1.914169312E0,-4.948822021E0,1.352691650E-1
5.172821045E0,-2.042251587E0,-4.714187622E0,2.465972900E-1
5.177703858E0,-2.127243042E0,-4.588485718E0,2.549896240E-1
5.182617188E0,-2.244567871E0,-4.405334473E0,2.178649902E-1
5.187561036E0,-2.409759521E0,-4.158721924E0,3.363800049E-1
5.192535401E0,-2.439697266E0,-3.904937744E0,4.524993896E-1
5.197509766E0,-2.460037231E0,-3.655944824E0,6.607971191E-1
5.202484131E0,-2.475601196E0,-3.497924805E0,8.679046631E-1
5.207458496E0,-2.377441406E0,-3.444061279E0,9.145812988E-1
5.212432862E0,-2.207458496E0,-3.460815430E0,9.888000488E-1
5.217407227E0,-2.096130371E0,-3.544616699E0,1.128860474E0
5.222381592E0,-2.008728027E0,-3.564971924E0,1.464050293E0
5.227355957E0,-1.833953857E0,-3.676300049E0,2.015914917E0
5.232330323E0,-1.565811157E0,-3.889373779E0,2.531875610E0
5.237304688E0,-1.238998413E0,-4.135986328E0,3.122039795E0
5.242279053E0,-9.792327881E-1,-4.423294067E0,3.709808350E0
5.247253418E0,-7.553710938E-1,-4.784805298E0,4.119216919E0
5.252227784E0,-6.069335938E-1,-5.175064087E0,4.531021118E0
5.257202149E0,-5.410919189E-1,-5.744888306E0,4.966766357E0
5.262176514E0,-5.949554443E-1,-6.436813354E0,5.564117432E0
5.267150879E0,-5.578460693E-1,-7.371749878E0,6.312316895E0
5.272125245E0,-1.855468750E-1,-8.841781616E0,7.186203003E0
5.277099610E0,3.615264893E-1,-1.069131470E1,8.377319336E0
5.282073975E0,1.628051758E0,-1.312860107E1,9.491806030E0
5.287048340E0,3.452438354E0,-1.604953003E1,1.085411072E1
5.292022705E0,5.483917236E0,-1.920149231E1,1.245822144E1
5.296997071E0,6.817489624E0,-2.194285583E1,1.418923950E1
5.301971436E0,8.201339722E0,-2.413714600E1,1.524746704E1
5.306945801E0,8.961502075E0,-2.518222046E1,1.574188232E1
5.311920166E0,8.831008911E0,-2.480752563E1,1.557788086E1
5.316894532E0,7.398086548E0,-2.264196777E1,1.423114014E1
5.321868897E0,5.139160156E0,-1.929846191E1,1.218170166E1
5.326843262E0,3.582916260E0,-1.643380737E1,9.864105225E0
5.331817627E0,2.343917847E0,-1.429219055E1,8.022964478E0
5.336791993E0,1.052246094E0,-1.236605835E1,6.833053589E0
5.341735840E0,-6.105041504E-2,-1.062666321E1,5.930435181E0
5.346679688E0,-1.071411133E0,-9.010574341E0,5.178665161E0
5.351593018E0,-1.849517822E0,-7.594406128E0,4.315551758E0
5.356536866E0,-2.524688721E0,-6.396102905E0,3.639190674E0
5.361480713E0,-2.964019775E0,-5.294784546E0,3.172317505E0
5.366394043E0,-3.240554810E0,-4.316741943E0,2.924514771E0
5.371337891E0,-3.610458374E0,-3.600875854E0,2.905364990E0
5.376251221E0,-4.308364868E0,-3.430892944E0,4.035430908E0
5.381195069E0,-5.580886841E0,-3.944442749E0,5.224151611E0
5.386138916E0,-6.701370239E0,-5.242111206E0,4.927261353E0
5.391052246E0,-7.208938599E0,-6.993469238E0,4.560958862E0
5.395996094E0,-6.910858154E0,-8.628707886E0,4.912902832E0
5.400939942E0,-6.643905640E0,-9.838973999E0,5.297164917E0
5.405853272E0,-6.963531494E0,-1.139878845E1,5.352233887E0
5.410797120E0,-7.074859619E0,-1.354998779E1,5.325897217E0
5.415740967E0,-6.930023193E0,-1.616804504E1,5.125991821E0
5.420654297E0,-6.065704346E0,-1.916319275E1,5.221755981E0
5.425598145E0,-3.950439453E0,-2.274012756E1,7.167037964E0
5.430511475E0,-6.105041504E-2,-2.575323486E1,8.243240356E0
5.435485840E0,4.416107178E0,-2.719334412E1,7.182601929E0
5.439666748E0,7.292739868E0,-2.721130371E1,6.856994629E0
5.444244385E0,6.467941284E0,-2.517263794E1,7.474700928E0
5.449035645E0,4.593276978E0,-2.154661560E1,7.044937134E0
5.453918457E0,2.112884521E0,-1.616445923E1,2.620452881E0
5.458831787E0,-1.684326172E0,-9.572021484E0,-7.647079468E0
5.463775635E0,-5.731719971E0,-3.427307129E0,-1.598368835E1
5.468750000E0,-7.457931519E0,1.077423096E-1,-1.631648254E1
5.473724366E0,-7.153869629E0,1.996765137E0,-1.261624146E1
5.478698731E0,-6.564895630E0,3.739746094E0,-9.425979614E0
5.483673096E0,-5.864593506E0,5.276824951E0,-7.061691284E0
5.488647461E0,-5.595245361E0,6.530181885E0,-5.354629517E0
5.493621827E0,-5.835861206E0,7.026977539E0,-4.130004883E0
5.498596192E0,-6.121978760E0,6.561309814E0,-3.491943359E0
5.503570557E0,-5.899307251E0,5.283996582E0,-2.833541870E0
5.508544922E0,-5.524627686E0,3.586517334E0,-2.333145142E0
5.513519287E0,-5.062545776E0,1.617279053E0,-2.323577881E0
5.518493653E0,-4.651931763E0,-4.082183838E-1,-2.655166626E0
5.523468018E0,-4.153945923E0,-2.487579346E0,-3.645172119E0
5.528442383E0,-3.383010864E0,-4.850646973E0,-5.768829346E0
5.533416748E0,-2.369064331E0,-7.454345703E0,-9.066848755E0
5.538391114E0,-1.557434082E0,-9.624694824E0,-1.091036987E1
5.543365479E0,-9.648590088E-1,-1.109353638E1,-1.059793091E1
5.548339844E0,-9.792327881E-1,-1.205720520E1,-1.080383301E1
5.553314209E0,-1.274917603E0,-1.313339233E1,-1.000177002E1
5.558288575E0,-1.590942383E0,-1.484884644E1,-8.208526611E0
5.563262940E0,-1.912963867E0,-1.725740051E1,-6.856994629E0
5.568237305E0,-1.546661377E0,-1.985272217E1,-4.849456787E0
5.573211670E0,-4.680633545E-1,-2.348233032E1,-3.839096069E0
5.578186036E0,7.398071289E-1,-2.627157593E1,-2.404968262E0
5.583160401E0,1.282089233E0,-2.760873413E1,-5.865783691E-1
5.588134766E0,1.723831177E0,-2.685696411E1,4.190063477E-2
5.593109131E0,2.614471436E0,-2.433467102E1,4.908142090E-1
5.598083496E0,3.574539185E0,-2.098995972E1,1.339553833E0
5.603057862E0,4.290405273E0,-1.775419617E1,2.561798096E0
5.608032227E0,4.448425293E0,-1.458068848E1,4.944030762E0
5.612976075E0,4.134780884E0,-1.161187744E1,8.107971191E0
5.617919922E0,3.214218140E0,-8.766372681E0,1.060153198E1
5.622863770E0,1.769317627E0,-6.454772949E0,1.048541260E1
5.627807618E0,7.074890137E-1,-5.562927246E0,9.246414185E0
5.632751465E0,3.471374512E-2,-5.980712891E0,7.775177002E0
5.637664795E0,-5.470733643E-1,-6.921630859E0,6.330276489E0
5.642608643E0,-9.325408936E-1,-7.782348633E0,5.373779297E0
5.647521973E0,-1.277313232E0,-8.450332642E0,4.411315918E0
5.652465821E0,-1.553833008E0,-8.389282227E0,3.207031250E0
5.657409668E0,-1.280899048E0,-8.113952637E0,2.075775146E0
5.662322998E0,-7.541809082E-1,-7.903259277E0,1.296463013E0
5.667266846E0,-5.003814697E-1,-7.851791382E0,8.894500732E-1
5.672210694E0,-4.369354248E-1,-7.898468018E0,7.517852783E-1
5.677124024E0,-3.687133789E-1,-8.073242188E0,5.470733643E-1
5.682067871E0,-3.292083740E-1,-8.367736816E0,2.944793701E-1
5.687011719E0,-2.513885498E-1,-8.494628906E0,-1.280822754E-1
5.691925049E0,-1.460418701E-1,-8.592788696E0,-6.991119385E-1
5.696868897E0,-6.463623047E-2,-8.586807251E0,-1.280899048E0
5.701782227E0,-4.908752441E-2,-8.438369751E0,-1.904586792E0
5.706726075E0,-1.484375000E-1,-8.356964111E0,-2.470809937E0
5.711639405E0,-1.999206543E-1,-8.394073486E0,-2.855087280E0
5.716613770E0,-2.274475098E-1,-8.433578491E0,-3.058593750E0
5.720825196E0,-1.987152100E-1,-8.346191406E0,-3.090911865E0
5.725402832E0,-2.418212891E-1,-8.298309326E0,-2.965225220E0
5.730194092E0,-5.147552490E-1,-8.283935547E0,-2.452865601E0
5.735076905E0,-8.439636230E-1,-8.373718262E0,-1.905776978E0
5.739990235E0,-9.768371582E-1,-8.444351196E0,-1.404205322E0
5.744934082E0,-7.445983887E-1,-8.406036377E0,-9.612731934E-1
5.749908448E0,-4.189910889E-1,-8.289916992E0,-6.871337891E-1
5.754882813E0,-3.316040039E-1,-8.147460938E0,-5.506591797E-1
5.759857178E0,-4.967956543E-1,-8.073242188E0,-4.848327637E-1
5.764831543E0,-1.187530518E0,-7.954742432E0,-4.249725342E-1
5.769805909E0,-1.723831177E0,-7.989456177E0,-4.836273193E-1
5.774780274E0,-1.772903442E0,-8.246826172E0,-6.560058594E-1
5.779754639E0,-1.618484497E0,-8.493423462E0,-1.045074463E0
5.784729004E0,-1.672348022E0,-8.524551392E0,-1.254562378E0
5.789703370E0,-1.752548218E0,-8.423995972E0,-1.066619873E0
5.794677735E0,-1.851913452E0,-8.395263672E0,-8.631134033E-1
5.799652100E0,-1.872268677E0,-8.276748657E0,-7.050933838E-1
5.804626465E0,-1.668762207E0,-8.333023071E0,-3.579406738E-1
5.809600830E0,-1.608901978E0,-8.456314087E0,2.394104004E-2
5.814575196E0,-1.854309082E0,-8.597579956E0,4.561004639E-1
5.819549561E0,-1.827972412E0,-8.772354126E0,8.200073242E-1
5.824523926E0,-1.538269043E0,-9.044097900E0,1.000778198E0
5.829498291E0,-1.303649902E0,-9.421188354E0,1.104919434E0
5.834472657E0,-1.072601318E0,-9.835388184E0,1.096542358E0
5.839447022E0,-9.445190430E-1,-1.017416382E1,1.045074463E0
5.844421387E0,-8.080444336E-1,-1.049497986E1,1.025909424E0
5.849395752E0,-7.374114990E-1,-1.079664612E1,9.876098633E-1
5.854370118E0,-6.775665283E-1,-1.097502136E1,9.014129639E-1
5.859344483E0,-6.344604492E-1,-1.097981262E1,8.056488037E-1
5.864318848E0,-6.392517090E-1,-1.070686340E1,7.888946533E-1
5.869293213E0,-6.380615234E-1,-1.022923279E1,9.947967529E-1
5.874267578E0,-6.799468994E-1,-9.728836060E0,1.453277588E0
5.879241944E0,-8.032531738E-1,-9.150634766E0,2.243362427E0
5.884216309E0,-8.595123291E-1,-8.692153931E0,3.326736450E0
5.889160157E0,-9.385223389E-1,-8.714889526E0,4.405334473E0
5.894134522E0,-5.195465088E-1,-9.091979980E0,5.717346191E0
5.899078370E0,1.663970947E-1,-9.491806030E0,6.546951294E0
5.904022217E0,1.095352173E0,-1.024000549E1,6.789962769E0
5.908935547E0,1.920150757E0,-1.095587158E1,6.544555664E0
5.913879395E0,2.398986816E0,-1.136407471E1,5.922058105E0
5.918823243E0,2.755722046E0,-1.154244995E1,4.994308472E0
5.923736573E0,3.032257080E0,-1.152330017E1,3.861846924E0
5.928680420E0,3.116058350E0,-1.137724304E1,2.670730591E0
5.933624268E0,2.910156250E0,-1.111149597E1,1.428146362E0
5.938537598E0,2.785659790E0,-1.108874512E1,4.967956543E-1
5.943481446E0,2.602493286E0,-1.117971802E1,-1.125335693E-1
5.948394776E0,2.437301636E0,-1.129583740E1,-4.692687988E-1
5.953338623E0,2.470809937E0,-1.145983887E1,-4.537048340E-1
5.958282471E0,2.674316406E0,-1.166215515E1,-4.069519043E-2
5.963195801E0,2.983169556E0,-1.189678955E1,5.769958496E-1
5.968139649E0,3.388992310E0,-1.223916626E1,1.230621338E0
5.973052979E0,3.860656738E0,-1.267849731E1,1.766921997E0
5.977996827E0,4.352661133E0,-1.317887878E1,2.221817017E0
5.982940674E0,4.782424927E0,-1.377264404E1,2.245758057E0
5.987854004E0,5.179855347E0,-1.449809265E1,1.793258667E0
5.992828370E0,5.528213501E0,-1.506312561E1,1.210266113E0
5.997039795E0,5.832275391E0,-1.508346558E1,1.234207153E0
6.001617432E0,6.089645386E0,-1.444781494E1,1.786071777E0
6.006408692E0,6.197387695E0,-1.369842529E1,2.625244141E0
6.011291504E0,6.190216064E0,-1.311663818E1,3.468002319E0
6.016204834E0,6.244079590E0,-1.264378357E1,3.828323364E0
6.021148682E0,6.233306885E0,-1.228225708E1,2.998733521E0
6.026123047E0,6.210556030E0,-1.226310730E1,1.559829712E0
6.031097412E0,5.901702881E0,-1.247259521E1,1.783752441E-1
6.036071778E0,4.507080078E0,-1.247738647E1,-4.956054688E-1
6.041046143E0,2.024291992E0,-1.239477539E1,2.597656250E-1
6.046020508E0,-9.768371582E-1,-1.257913208E1,2.427719116E0
6.050994873E0,-3.813964844E0,-1.270722961E1,4.337097168E0
6.055969239E0,-6.184219360E0,-1.310466003E1,5.137954712E0
6.060943604E0,-7.444763184E0,-1.370680237E1,4.680664062E0
6.065917969E0,-8.299499512E0,-1.406593323E1,3.468002319E0
6.070892334E0,-8.376113892E0,-1.442147827E1,2.415756226E0
6.075866700E0,-8.467086792E0,-1.448971558E1,2.158370972E0
6.080841065E0,-8.465896606E0,-1.491946411E1,1.546661377E0
6.085815430E0,-8.497024536E0,-1.562934875E1,2.310333252E-1
6.090789795E0,-8.313858032E0,-1.592742920E1,-1.327590942E0
6.095764161E0,-7.374145508E0,-1.643141174E1,2.873229980E-2
6.100738526E0,-7.510604858E0,-1.659660339E1,1.072601318E0
6.105712891E0,-7.854171753E0,-1.628895569E1,5.981445312E-3
6.110687256E0,-7.841003418E0,-1.606748962E1,-1.257019043E-1
6.115661621E0,-7.833831787E0,-1.570237732E1,2.035064697E-1
6.120635987E0,-7.359771729E0,-1.548449707E1,-3.770904541E-1
6.125610352E0,-6.301544189E0,-1.530374146E1,-9.085998535E-1
6.130584717E0,-5.345062256E0,-1.501403809E1,-1.681930542E0
6.135559082E0,-4.569335938E0,-1.423353577E1,-2.401382446E0
6.140533448E0,-3.684677124E0,-1.316691589E1,-3.281250000E0
6.145507813E0,-3.151962280E0,-1.205360413E1,-4.911697388E0
6.150482178E0,-3.468002319E0,-1.071405029E1,-5.250488281E0
6.155456543E0,-3.331527710E0,-1.028668213E1,-5.169082642E0
6.160430909E0,-2.177520752E0,-1.030224609E1,-7.092819214E0
6.165374756E0,-6.416473389E-1,-1.041477966E1,-6.306320190E0
6.170318604E0,7.386169434E-1,-1.113304138E1,-6.060928345E0
6.175262452E0,2.450469971E0,-1.181777954E1,-5.456390381E0
6.180206299E0,3.147171021E0,-1.177827454E1,-2.698272705E0
6.185150147E0,4.232955933E0,-1.217451477E1,-1.173156738E0
6.190093995E0,5.239715576E0,-1.279461670E1,-3.191467285E0
6.195007325E0,6.611587524E0,-1.325909424E1,-4.083312988E0
6.199951172E0,6.311111450E0,-1.253364563E1,-1.320404053E0
6.204895020E0,4.276046753E0,-1.093193054E1,3.195068359E0
6.209808350E0,2.948455811E0,-9.646240234E0,5.056549072E0
6.214752198E0,1.984786987E0,-8.651443481E0,4.793197632E0
6.219696045E0,7.457885742E-1,-7.803894043E0,3.851074219E0
6.224609375E0,-3.231811523E-2,-7.320266724E0,1.999160767E0
6.229553223E0,-4.980010986E-1,-7.280761719E0,-3.280029297E-1
6.234466553E0,-1.273712158E0,-7.116760254E0,-1.873458862E0
6.239410401E0,-2.120071411E0,-6.785171509E0,-2.536651611E0
6.244354248E0,-2.641998291E0,-6.361389160E0,-2.792831421E0
6.249267578E0,-2.669540405E0,-6.130355835E0,-3.193862915E0
6.254211426E0,-2.552215576E0,-5.899307251E0,-3.071762085E0
6.259155274E0,-2.370254517E0,-5.662292480E0,-2.372650146E0
6.264068604E0,-2.515106201E0,-5.203796387E0,-1.713058472E0
6.269042969E0,-2.408569336E0,-4.915298462E0,-1.125274658E0
6.273223877E0,-1.635238647E0,-5.195419312E0,-1.215057373E0
6.277801514E0,-7.936706543E-1,-5.880157471E0,-1.734603882E0
6.282562256E0,-7.888946533E-1,-5.859802246E0,-1.375473022E0
6.287445069E0,-1.273712158E0,-5.359420776E0,-1.039077759E0
6.292358399E0,-1.485595703E0,-5.143936157E0,-1.006759644E0
6.297302246E0,-1.764526367E0,-4.897338867E0,-1.380264282E0
6.302276612E0,-2.017120361E0,-4.577713013E0,-1.444900513E0
6.307250977E0,-2.278076172E0,-4.147949219E0,-1.508346558E0
6.312225342E0,-2.850296021E0,-3.938461304E0,-1.754943848E0
6.317199707E0,-3.299209595E0,-3.867828369E0,-1.886627197E0
6.322174073E0,-3.311187744E0,-3.849868774E0,-1.869873047E0
6.327148438E0,-3.209426880E0,-3.960006714E0,-1.934509277E0
6.332122803E0,-3.456024170E0,-3.769668579E0,-1.867477417E0
6.337097168E0,-3.526657104E0,-3.731369019E0,-1.754943848E0
6.342071534E0,-3.463211060E0,-3.778045654E0,-1.590942383E0
6.347045899E0,-3.495529175E0,-3.724182129E0,-1.449691772E0
6.352020264E0,-3.487152100E0,-3.727767944E0,-1.362304688E0
6.356994629E0,-3.332733154E0,-3.737350464E0,-1.213867188E0
6.361968995E0,-3.202239990E0,-3.798400879E0,-1.137252808E0
6.366943360E0,-3.086120605E0,-3.829528809E0,-9.744415283E-1
6.371917725E0,-3.047821045E0,-3.892974854E0,-9.481048584E-1
6.376892090E0,-3.011901855E0,-3.857055664E0,-9.840240479E-1
6.381866455E0,-2.905364990E0,-3.903747559E0,-1.007965088E0
6.386840821E0,-2.728195190E0,-4.022262573E0,-9.097900391E-1
6.391815186E0,-2.468429565E0,-4.197036743E0,-8.415679932E-1
6.396789551E0,-2.122467041E0,-4.434066772E0,-5.542602539E-1
6.401763916E0,-1.763336182E0,-4.626800537E0,-6.584167480E-2
6.406738282E0,-1.543060303E0,-4.684249878E0,3.746948242E-1
6.411712647E0,-1.347930908E0,-4.829101562E0,6.883392334E-1
6.416687012E0,-1.121688843E0,-4.976348877E0,1.052246094E0
6.421661377E0,-9.253540039E-1,-5.060150146E0,1.634048462E0
6.426635743E0,-8.260040283E-1,-5.128387451E0,2.354690552E0
6.431610108E0,-7.481842041E-1,-5.319915771E0,3.412933350E0
6.436584473E0,-8.583221436E-1,-5.591659546E0,5.029022217E0
6.441558838E0,-1.331176758E0,-6.039367676E0,6.914459229E0
6.446533203E0,-2.402587891E0,-6.676239014E0,9.100357056E0
6.451477051E0,-3.416519165E0,-7.651870728E0,1.193031311E1
6.456420899E0,-3.513488770E0,-9.170989990E0,1.384925842E1
6.461364746E0,-3.002334595E0,-1.135450745E1,1.327584839E1
6.466308594E0,-1.632843018E0,-1.458547974E1,1.211346436E1
6.471221924E0,1.110916138E0,-1.838027954E1,1.322676086E1
6.476165772E0,4.396957397E0,-2.197158813E1,1.609980774E1
6.481079102E0,8.276748657E0,-2.552099609E1,1.933438110E1
6.486022950E0,1.103607178E1,-2.756205750E1,2.008016968E1
6.490966797E0,1.183453369E1,-2.719334412E1,1.727177429E1
6.495880127E0,9.847351074E0,-2.419819641E1,1.360983276E1
6.500823975E0,6.436813354E0,-1.980842590E1,1.164540100E1
6.505737305E0,4.685455322E0,-1.656907654E1,9.473861694E0
6.510681153E0,3.009506226E0,-1.414973450E1,7.299926758E0
6.515625000E0,1.249771118E0,-1.210269165E1,6.051345825E0
6.520538330E0,-1.316833496E-2,-1.032978821E1,5.267242432E0
6.525482178E0,-7.553710938E-1,-8.798690796E0,4.730941772E0
6.530426026E0,-1.308425903E0,-7.337036133E0,4.047393799E0
6.535339356E0,-1.692703247E0,-5.992691040E0,3.282455444E0
6.540283203E0,-2.227798462E0,-4.748901367E0,2.937683105E0
6.545227051E0,-3.210617065E0,-3.870223999E0,4.182662964E0
6.550201416E0,-5.103240967E0,-3.734954834E0,6.220138550E0
6.554412842E0,-7.339431763E0,-4.750091553E0,6.619964600E0
6.558990479E0,-8.370132446E0,-6.594833374E0,6.444000244E0
6.563781739E0,-7.557296753E0,-8.206130981E0,7.153869629E0
6.568664551E0,-6.608001709E0,-8.841781616E0,8.230072021E0
6.573577881E0,-6.997055054E0,-9.527725220E0,8.820236206E0
6.578521729E0,-8.452728271E0,-1.112705994E1,8.669403076E0
6.583496094E0,-9.914382935E0,-1.337281799E1,9.021347046E0
6.588470459E0,-9.593566895E0,-1.658583069E1,9.479843140E0
6.593444825E0,-7.431594849E0,-2.025254822E1,1.027590942E1
6.598419190E0,-1.592147827E0,-2.459922791E1,9.774322510E0
6.603393555E0,5.631164551E0,-2.789843750E1,4.776428223E0
6.608367920E0,8.141479492E0,-2.872682190E1,1.796844482E0
6.613342286E0,6.117187500E0,-2.747825623E1,2.291244507E0
6.618316651E0,4.394561768E0,-2.385581970E1,2.604888916E0
6.623291016E0,3.922897339E0,-1.844612122E1,-1.334762573E0
6.628265381E0,2.074569702E0,-1.200093079E1,-9.044097900E0
6.633239746E0,-1.473632812E0,-6.153091431E0,-1.488475037E1
6.638214112E0,-3.068176270E0,-2.977188110E0,-1.431253052E1
6.643188477E0,-3.719390869E0,-6.452331543E-1,-1.093791199E1
6.648162842E0,-4.349060059E0,1.777694702E0,-8.564056396E0
6.653137207E0,-4.344284058E0,3.503921509E0,-6.988677979E0
6.658111573E0,-4.449630737E0,4.657913208E0,-5.861007690E0
6.663085938E0,-5.287597656E0,5.439620972E0,-4.947616577E0
6.668060303E0,-6.481109619E0,5.578491211E0,-3.754104614E0
6.673034668E0,-7.079650879E0,4.994308472E0,-2.122467041E0
6.678009034E0,-7.053314209E0,4.043807983E0,-9.014129639E-1
6.682983399E0,-6.702560425E0,2.898178101E0,-4.201812744E-1
6.687957764E0,-6.233306885E0,1.509536743E0,-1.675872803E-1
6.692932129E0,-5.766433716E0,-9.217834473E-2,-5.602416992E-1
6.697906495E0,-5.339065552E0,-2.126052856E0,-1.898605347E0
6.702880860E0,-4.472366333E0,-4.426879883E0,-3.719390869E0
6.707855225E0,-3.173507690E0,-6.330276489E0,-5.586868286E0
6.712829590E0,-2.200271606E0,-7.699752808E0,-7.103591919E0
6.717803955E0,-1.999160767E0,-8.822631836E0,-8.678985596E0
6.722747803E0,-2.051834106E0,-9.874877930E0,-1.040040588E1
6.727691651E0,-2.207458496E0,-1.087805176E1,-1.201170349E1
6.732635498E0,-2.601303101E0,-1.238400269E1,-1.250491333E1
6.737579346E0,-3.557785034E0,-1.449809265E1,-1.115338135E1
6.742492676E0,-3.884597778E0,-1.662294006E1,-8.701721191E0
6.747436524E0,-2.680313110E0,-1.957020569E1,-6.642715454E0
6.752380371E0,-9.133911133E-1,-2.268865967E1,-5.820297241E0
6.757293702E0,6.548156738E-1,-2.554852295E1,-5.900512695E0
6.762237549E0,1.823181152E0,-2.741839600E1,-4.884170532E0
6.767150879E0,2.630035400E0,-2.736572266E1,-3.818756104E0
6.772094727E0,3.335128784E0,-2.497750854E1,-2.841918945E0
6.777038575E0,4.127609253E0,-2.179202271E1,-1.600524902E0
6.781951905E0,4.882980347E0,-1.859815979E1,-2.358245850E-1
6.786895752E0,5.061340332E0,-1.542225647E1,1.968032837E0
6.791839600E0,4.643554688E0,-1.239118958E1,4.246124268E0
6.796752930E0,4.338287354E0,-9.920379639E0,6.678619385E0
6.801696778E0,4.307174683E0,-8.106765747E0,9.679763794E0
6.806610108E0,4.186264038E0,-7.058105469E0,1.196263123E1
6.811553955E0,3.973175049E0,-6.842620850E0,1.311184692E1
6.816497803E0,3.476379395E0,-7.327453613E0,1.265934753E1
6.821411133E0,2.826354980E0,-8.267181396E0,1.075953674E1
6.826385498E0,2.169143677E0,-9.232040405E0,8.265975952E0
6.830596924E0,1.556228638E0,-9.742004395E0,6.301544189E0
6.835174561E0,7.003021240E-1,-9.417587280E0,4.639968872E0
6.839965821E0,-1.819610596E-1,-8.854949951E0,3.172317505E0
6.844848633E0,-7.266387939E-1,-8.626312256E0,1.697494507E0
6.849761963E0,-1.171966553E0,-8.532928467E0,2.046966553E-1
6.854705811E0,-1.066619873E0,-8.538925171E0,-1.161193848E0
6.859680176E0,-5.027770996E-1,-8.863342285E0,-2.193084717E0
6.864654541E0,-2.394256592E-1,-9.214080811E0,-2.682708740E0
6.869628907E0,-2.059020996E-1,-9.317031860E0,-2.747344971E0
6.874603272E0,-1.879425049E-1,-9.121902466E0,-2.636016846E0
6.879577637E0,-1.137237549E-1,-8.823837280E0,-2.358291626E0
6.884552002E0,-1.556243896E-1,-8.462310791E0,-1.953674316E0
6.889526368E0,-2.310333252E-1,-8.075637817E0,-1.540664673E0
6.894500733E0,-5.075683594E-1,-7.684188843E0,-1.162384033E0
6.899475098E0,-9.133911133E-1,-7.400482178E0,-6.356658936E-1
6.904449463E0,-1.355117798E0,-7.311889648E0,5.986022949E-2
6.909423828E0,-1.680725098E0,-7.317871094E0,7.661437988E-1
6.914398194E0,-1.820785522E0,-7.280761719E0,1.279693604E0
6.919372559E0,-1.939300537E0,-7.358581543E0,1.533493042E0
6.924346924E0,-1.917755127E0,-7.673416138E0,1.736999512E0
6.929321289E0,-1.842330933E0,-8.090011597E0,1.881835938E0
6.934295655E0,-1.980010986E0,-8.467086792E0,1.651992798E0
6.939270020E0,-2.020706177E0,-8.646652222E0,1.018737793E0
6.944244385E0,-1.836349487E0,-8.535324097E0,3.914489746E-1
6.949218750E0,-1.786071777E0,-8.234863281E0,-5.746459961E-2
6.954193116E0,-1.993179321E0,-8.005020142E0,-4.153900146E-1
6.959167481E0,-2.099716187E0,-7.830230713E0,-7.433929443E-1
6.964141846E0,-2.138015747E0,-7.694961548E0,-1.132461548E0
6.969116211E0,-2.134429932E0,-7.739257812E0,-1.543060303E0
6.974090577E0,-2.027893066E0,-7.924804688E0,-1.847122192E0
6.979064942E0,-1.903396606E0,-8.152252197E0,-2.069793701E0
6.984039307E0,-1.760940552E0,-8.349777222E0,-2.298431396E0
6.989013672E0,-1.600524902E0,-8.669403076E0,-2.457641602E0
6.993988037E0,-1.543060303E0,-8.977066040E0,-2.572570801E0
6.998962403E0,-1.628051758E0,-9.113525391E0,-2.750930786E0
7.003906250E0,-1.644821167E0,-9.306259155E0,-2.974792480E0
7.008850098E0,-1.580169678E0,-9.501388550E0,-3.205841064E0
7.013793946E0,-1.483215332E0,-9.574417114E0,-3.350692749E0
7.018707276E0,-1.440109253E0,-9.414001465E0,-3.357864380E0
7.023651123E0,-1.401809692E0,-9.054870605E0,-3.143585205E0
7.028564453E0,-1.419754028E0,-8.735244751E0,-2.632431030E0
7.033508301E0,-1.577774048E0,-8.553283691E0,-1.669952393E0
7.038452149E0,-1.595733643E0,-8.544906616E0,-1.280822754E-1
7.043365479E0,-1.380264282E0,-8.664611816E0,2.090133667E0
7.048309327E0,-9.253540039E-1,-9.147048950E0,4.673477173E0
7.053253174E0,-4.669189453E-2,-9.944320679E0,7.044937134E0
7.058166504E0,9.588775635E-1,-1.062068176E1,8.868118286E0
7.063110352E0,1.965637207E0,-1.123599243E1,1.000776672E1
7.068023682E0,2.713821411E0,-1.171003723E1,1.050814819E1
7.072967530E0,3.232177734E0,-1.202487183E1,1.018972778E1
7.077911377E0,3.481170654E0,-1.216972351E1,9.042892456E0
7.082824707E0,3.526657104E0,-1.230738831E1,7.278366089E0
7.087768555E0,3.460815430E0,-1.247138977E1,5.058944702E0
7.092681885E0,3.259704590E0,-1.255160522E1,2.419342041E0
7.097625733E0,3.259704590E0,-1.257196045E1,-4.309539795E-1
7.102600098E0,3.362655640E0,-1.232295227E1,-2.717422485E0
7.106811524E0,3.262100220E0,-1.189918518E1,-4.247314453E0
7.111389161E0,2.973602295E0,-1.153646851E1,-4.880584717E0
7.116180420E0,2.615661621E0,-1.133773804E1,-4.768051147E0
7.121063233E0,2.408569336E0,-1.141316223E1,-4.080917358E0
7.125976563E0,2.379837036E0,-1.163102722E1,-2.771286011E0
7.130920411E0,2.545043945E0,-1.187763977E1,-9.313507080E-1
7.135894776E0,2.747344971E0,-1.215176392E1,1.061828613E0
7.140869141E0,2.856277466E0,-1.264378357E1,2.760513306E0
7.145843506E0,2.823959351E0,-1.325909424E1,3.708618164E0
7.150817871E0,2.869445801E0,-1.358111572E1,4.460403442E0
7.155792237E0,3.033447266E0,-1.340872192E1,5.481521606E0
7.160766602E0,3.423706055E0,-1.304600525E1,6.400894165E0
7.165740967E0,3.845092773E0,-1.292030334E1,6.396102905E0
7.170715332E0,4.331115723E0,-1.308909607E1,5.227737427E0
7.175689698E0,4.909317017E0,-1.351167297E1,3.464416504E0
7.180664063E0,5.322311401E0,-1.382650757E1,1.165969849E0
7.185638428E0,5.179855347E0,-1.369244385E1,-1.145629883E0
7.190612793E0,5.006271362E0,-1.334288025E1,-2.318786621E0
7.195587159E0,4.742919922E0,-1.308311462E1,-2.341522217E0
7.200561524E0,4.256896973E0,-1.306275940E1,-1.515533447E0
7.205535889E0,3.711013794E0,-1.324832153E1,-3.699035645E-1
7.210510254E0,2.756927490E0,-1.328662109E1,1.225830078E0
7.215484620E0,1.132461548E0,-1.306515503E1,3.505111694E0
7.220458985E0,-1.018737793E0,-1.258750916E1,4.892547607E0
7.225433350E0,-3.430892944E0,-1.211585999E1,4.979934692E0
7.230407715E0,-5.538986206E0,-1.191593933E1,4.334701538E0
7.235382080E0,-7.076065063E0,-1.196382141E1,3.513488770E0
7.240356446E0,-7.460327148E0,-1.246421814E1,2.564193726E0
7.245330811E0,-7.182601929E0,-1.306515503E1,1.443710327E0
7.250305176E0,-7.254425049E0,-1.340274048E1,5.662231445E-1
7.255279541E0,-7.565673828E0,-1.366610718E1,3.902587891E-1
7.260253907E0,-7.892486572E0,-1.390672302E1,5.279235840E-1
7.265228272E0,-7.929595947E0,-1.431613159E1,5.171508789E-1
7.270202637E0,-7.881713867E0,-1.470997620E1,5.470733643E-1
7.275177002E0,-7.778762817E0,-1.493981934E1,-7.780456543E-2
7.280120850E0,-7.158660889E0,-1.485243225E1,-4.848327637E-1
7.285064698E0,-6.762420654E0,-1.535401917E1,3.101684570E0
7.289978028E0,-7.609970093E0,-1.561499023E1,3.621231079E0
7.294921875E0,-8.134307861E0,-1.534204102E1,1.865081787E0
7.299835205E0,-8.275558472E0,-1.462377930E1,9.684600830E-1
7.304779053E0,-7.621948242E0,-1.373793030E1,-3.818817139E-1
7.309722901E0,-6.345825195E0,-1.267610168E1,-2.138015747E0
7.314636231E0,-5.598846436E0,-1.156639099E1,-2.184707642E0
7.319580078E0,-5.628768921E0,-1.031301880E1,-1.719039917E0
7.324523926E0,-4.690246582E0,-9.404418945E0,-2.949661255E0
7.329437256E0,-2.926910400E0,-9.022552490E0,-4.827911377E0
7.334381104E0,-1.353927612E0,-9.181762695E0,-6.926422119E0
7.339294434E0,2.190704346E-1,-9.609130859E0,-8.674194336E0
7.344238282E0,1.446090698E0,-9.853332520E0,-7.620742798E0
7.349182129E0,3.130416870E0,-1.062547302E1,-8.206130981E0
7.354095459E0,4.820724487E0,-1.163102722E1,-1.038125610E1
7.359039307E0,5.376174927E0,-1.214817810E1,-8.791503906E0
7.363983155E0,5.342666626E0,-1.184890747E1,-5.698242188E-1
7.368896485E0,4.520248413E0,-1.089720154E1,5.544967651E0
7.373840332E0,3.435684204E0,-1.011788940E1,7.147888184E0
7.378814698E0,3.072952271E0,-9.641448975E0,5.906494141E0
7.383026123E0,2.817977905E0,-9.465469360E0,4.484344482E0
7.387603760E0,2.389419556E0,-9.619903564E0,3.694259644E0
7.392395020E0,2.055419922E0,-9.809051514E0,2.090133667E0
7.397277832E0,1.367095947E0,-9.568420410E0,1.125335693E-1
7.402191162E0,9.241638184E-1,-9.490615845E0,-1.926132202E0
7.407135010E0,2.322387695E-1,-9.245208740E0,-2.913742065E0
7.412109375E0,-5.662231445E-1,-8.726867676E0,-3.263290405E0
7.417083741E0,-9.911956787E-1,-8.257598877E0,-3.435684204E0
7.422058106E0,-9.720458984E-1,-8.056488037E0,-3.404556274E0
7.427032471E0,-1.375473022E0,-7.516601562E0,-2.270904541E0
7.432006836E0,-1.601715088E0,-6.979095459E0,-1.808822632E0
7.436981202E0,-1.885437012E0,-6.459548950E0,-1.563415527E0
7.441955567E0,-2.378646851E0,-5.963958740E0,-7.038879395E-1
7.446929932E0,-2.437301636E0,-6.124374390E0,-7.074890137E-1
7.451904297E0,-2.474411011E0,-6.135147095E0,-7.841033936E-1
7.456878662E0,-2.481582642E0,-6.166259766E0,-6.057281494E-1
7.461853028E0,-2.738967896E0,-5.931640625E0,-5.003814697E-1
7.466827393E0,-2.614471436E0,-5.935226440E0,-5.758056641E-1
7.471801758E0,-2.811996460E0,-5.748474121E0,-9.385223389E-1
7.476776123E0,-3.398574829E0,-4.918884277E0,2.489929199E-1
7.481750489E0,-3.465606689E0,-4.228164673E0,-1.532287598E-1
7.486724854E0,-2.966415405E0,-4.691436768E0,-2.522293091E0
7.491699219E0,-3.128021240E0,-4.563354492E0,-1.684326172E0
7.496673584E0,-3.256118774E0,-4.163513184E0,-1.519119263E0
7.501647950E0,-2.894592285E0,-4.097671509E0,-2.032684326E0
7.506622315E0,-2.487579346E0,-4.122817993E0,-1.742980957E0
7.511596680E0,-2.336746216E0,-4.164718628E0,-1.472427368E0
7.516571045E0,-2.218231201E0,-4.198226929E0,-1.523910522E0
7.521545411E0,-2.151184082E0,-4.210205078E0,-1.363494873E0
7.526519776E0,-2.145202637E0,-4.241333008E0,-1.173156738E0
7.531494141E0,-2.111679077E0,-4.249710083E0,-1.083374023E0
7.536468506E0,-2.100906372E0,-4.237731934E0,-9.852142334E-1
7.541442871E0,-2.246963501E0,-4.158721924E0,-9.648590088E-1
7.546417237E0,-2.300827026E0,-4.094085693E0,-8.475494385E-1
7.551361084E0,-2.387023926E0,-4.021057129E0,-4.896087646E-1
7.556304932E0,-2.519897461E0,-3.903747559E0,-2.549896240E-1
7.561248780E0,-2.585739136E0,-3.798400879E0,-8.140563965E-2
7.566192627E0,-2.518707275E0,-3.793609619E0,5.746459961E-2
7.571136475E0,-2.401382446E0,-3.840301514E0,2.011108398E-1
7.576049805E0,-2.188293457E0,-3.858261108E0,3.495483398E-1
7.580993653E0,-2.008728027E0,-3.863037109E0,5.315093994E-1
7.585906983E0,-1.860290527E0,-3.816360474E0,8.738861084E-1
7.590850830E0,-1.643615723E0,-3.800796509E0,1.264144897E0
7.595794678E0,-1.393432617E0,-3.836715698E0,1.698684692E0
7.600708008E0,-1.198303223E0,-3.969589233E0,2.267303467E0
7.605651856E0,-1.112106323E0,-4.054580688E0,3.184295654E0
7.610565186E0,-1.255752563E0,-4.097671509E0,4.208999634E0
7.615509034E0,-1.684326172E0,-4.181472778E0,5.098449707E0
7.620452881E0,-2.426528931E0,-4.405334473E0,6.005859375E0
7.625366211E0,-3.186676025E0,-4.799179077E0,7.141906738E0
7.630310059E0,-3.825927734E0,-5.513839722E0,8.779541016E0
7.635253907E0,-4.273651123E0,-6.733688354E0,1.074636841E1
7.640167237E0,-3.919311523E0,-8.707717896E0,1.243309021E1
7.645111084E0,-2.211044312E0,-1.197340393E1,1.346139526E1
7.650054932E0,1.177947998E0,-1.679412842E1,1.416290283E1
7.655029297E0,6.139923096E0,-2.274012756E1,1.596693420E1
7.659210205E0,1.019689941E1,-2.796307373E1,2.042134094E1
7.663787842E0,1.353442383E1,-3.155557251E1,2.231755066E1
7.668579102E0,1.457110596E1,-3.207991028E1,1.996046448E1
7.673461914E0,1.314895630E1,-2.958155823E1,1.458547974E1
7.678375245E0,9.119506836E0,-2.486857605E1,1.104565430E1
7.683319092E0,6.253662109E0,-2.046443176E1,9.302673340E0
7.688293457E0,4.393356323E0,-1.708502197E1,6.891708374E0
7.693267823E0,1.981201172E0,-1.427542114E1,5.400115967E0
7.698242188E0,-7.182312012E-2,-1.211465454E1,4.728546143E0
7.703216553E0,-1.382644653E0,-1.048062134E1,4.090499878E0
7.708190918E0,-2.384628296E0,-9.161407471E0,3.280059814E0
7.713165284E0,-3.558975220E0,-8.005020142E0,2.165557861E0
7.718139649E0,-5.366607666E0,-6.939590454E0,2.524688721E0
7.723114014E0,-7.503433228E0,-6.454772949E0,5.571304321E0
7.728088379E0,-9.234436035E0,-6.879745483E0,8.445541382E0
7.733062745E0,-9.593566895E0,-7.867340088E0,8.787918091E0
7.738037110E0,-8.082824707E0,-8.368927002E0,8.874114990E0
7.743011475E0,-6.864181519E0,-8.175003052E0,9.658203125E0
7.747985840E0,-8.146270752E0,-8.407241821E0,1.023042297E1
7.752960205E0,-1.024240112E1,-9.786300659E0,9.940719604E0
7.757934571E0,-1.072482300E1,-1.214338684E1,9.226058960E0
7.762908936E0,-1.004966736E1,-1.484284973E1,8.529342651E0
7.767883301E0,-6.470336914E0,-1.866400146E1,9.085998535E0
7.772857666E0,7.422027588E-1,-2.316030884E1,7.790725708E0
7.777832032E0,7.400482178E0,-2.643676758E1,4.390960693E0
7.782806397E0,8.342590332E0,-2.697666931E1,2.613265991E0
7.787780762E0,5.424057007E0,-2.436578369E1,1.668762207E0
7.792755127E0,3.985153198E0,-1.955464172E1,-1.777694702E0
7.797729493E0,2.899383545E0,-1.337879944E1,-1.013945007E1
7.802703858E0,-5.981445312E-3,-7.346603394E0,-1.910453796E1
7.807678223E0,-2.154785156E0,-3.511093140E0,-1.978569031E1
7.812652588E0,-2.930496216E0,-9.768371582E-1,-1.483088684E1
7.817626953E0,-3.648757935E0,1.655593872E0,-1.101692200E1
7.822601319E0,-4.246124268E0,3.744537354E0,-8.251617432E0
7.827575684E0,-5.137954712E0,5.239715576E0,-6.594833374E0
7.832519532E0,-5.585678101E0,5.815521240E0,-5.440826416E0
7.837463379E0,-5.809524536E0,5.492294312E0,-3.669113159E0
7.842407227E0,-5.849029541E0,4.642364502E0,-1.999160767E0
7.847320557E0,-5.430053711E0,3.265686035E0,-1.199493408E0
7.852264405E0,-4.865020752E0,1.555038452E0,-1.124084473E0
7.857208252E0,-4.195831299E0,-4.453277588E-1,-1.533493042E0
7.862121582E0,-3.547012329E0,-2.413360596E0,-2.184707642E0
7.867065430E0,-2.598907471E0,-4.390960693E0,-3.020278931E0
7.871978760E0,-1.918945312E0,-5.959167480E0,-3.790023804E0
7.876922608E0,-1.765716553E0,-7.123947144E0,-5.378570557E0
7.881866455E0,-1.793258667E0,-8.012191772E0,-7.435195923E0
7.886779786E0,-1.843536377E0,-9.075225830E0,-8.805877686E0
7.891723633E0,-2.136825562E0,-1.012747192E1,-9.430755615E0
7.896636963E0,-2.665939331E0,-1.139161682E1,-9.430755615E0
7.901580811E0,-3.630813599E0,-1.318846130E1,-8.267181396E0
7.906524659E0,-4.126403809E0,-1.553477478E1,-6.874954224E0
7.911468506E0,-3.531448364E0,-1.839465332E1,-5.713760376E0
7.916381836E0,-2.164352417E0,-2.200630188E1,-5.149932861E0
7.921325684E0,-2.395629883E-3,-2.573048401E1,-4.630386353E0
7.926239014E0,1.881835938E0,-2.883337402E1,-4.207809448E0
7.931213379E0,2.746154785E0,-2.936846924E1,-3.149566650E0
7.935394287E0,2.934097290E0,-2.675401306E1,-2.911346436E0
7.939971924E0,3.252517700E0,-2.283709717E1,-2.729385376E0
7.944763184E0,3.149566650E0,-1.888786316E1,-2.264907837E0
7.949645996E0,2.536651611E0,-1.499249268E1,-1.535873413E0
7.954559327E0,2.175125122E0,-1.171601868E1,-4.046173096E-1
7.959503174E0,2.117675781E0,-9.223663330E0,9.241638184E-1
7.964477539E0,2.290054321E0,-7.665039062E0,2.239776611E0
7.969451905E0,2.229003906E0,-6.805511475E0,3.773254395E0
7.974426270E0,2.036270142E0,-6.509841919E0,5.620391846E0
7.979400635E0,1.996765137E0,-6.740875244E0,8.054092407E0
7.984375000E0,1.898605347E0,-7.293930054E0,1.037886047E1
7.989349366E0,1.895004272E0,-7.927200317E0,1.157237244E1
7.994323731E0,2.060211182E0,-8.504211426E0,1.113543701E1
7.999298096E0,1.891418457E0,-8.755599976E0,9.617507935E0
8.004272461E0,1.562210083E0,-8.664611816E0,7.717712402E0
8.009246827E0,1.025909424E0,-8.611938477E0,5.857421875E0
8.014221192E0,3.435668945E-1,-8.595184326E0,4.272445679E0
8.019195557E0,-3.483581543E-1,-8.325836182E0,2.697067261E0
8.024169922E0,-8.523406982E-1,-8.127120972E0,9.540863037E-1
8.029144287E0,-8.319854736E-1,-8.425201416E0,-8.463439941E-1
8.034118653E0,-4.070129395E-1,-9.074020386E0,-2.286468506E0
8.039093018E0,-2.023162842E-1,-9.601943970E0,-3.423706055E0
8.044067383E0,1.185150146E-1,-9.979034424E0,-3.973175049E0
8.049041748E0,2.394256592E-1,-9.928756714E0,-3.922897339E0
8.054016114E0,-1.041412354E-1,-9.278732300E0,-3.526657104E0
8.058990479E0,-6.500244141E-1,-8.462310791E0,-2.925720215E0
8.063964844E0,-1.120483398E0,-7.970291138E0,-2.117675781E0
8.068939209E0,-1.607711792E0,-7.722503662E0,-1.170761108E0
8.073913575E0,-1.991973877E0,-7.498641968E0,-3.327941895E-1
8.078887940E0,-2.074569702E0,-7.274780273E0,2.968750000E-1
8.083862305E0,-2.045852661E0,-7.177810669E0,7.170562744E-1
8.088836670E0,-1.985992432E0,-7.259216309E0,9.636688232E-1
8.093811036E0,-2.053024292E0,-7.413650513E0,1.205474854E0
8.098785401E0,-2.331954956E0,-7.606384277E0,1.295257568E0
8.103729248E0,-2.304412842E0,-7.796722412E0,1.102523804E0
8.108703614E0,-2.068588257E0,-7.812286377E0,7.170562744E-1
8.113647461E0,-1.861495972E0,-7.722503662E0,3.950500488E-1
8.118591309E0,-1.742980957E0,-7.688980103E0,4.429626465E-2
8.123535157E0,-1.740585327E0,-7.641098022E0,-2.849121094E-1
8.128479004E0,-1.788467407E0,-7.618347168E0,-6.500244141E-1
8.133392334E0,-1.622070312E0,-7.659057617E0,-9.433135986E-1
8.138336182E0,-1.343139648E0,-7.795516968E0,-1.253372192E0
8.143280030E0,-1.084579468E0,-8.036132812E0,-1.606506348E0
8.148193360E0,-8.954315186E-1,-8.232467651E0,-1.884231567E0
8.153137207E0,-7.577667236E-1,-8.529342651E0,-2.030288696E0
8.158081055E0,-7.122802734E-1,-8.726867676E0,-2.160766602E0
8.162994385E0,-7.529754639E-1,-8.972274780E0,-2.191894531E0
8.167938233E0,-9.121856689E-1,-9.263168335E0,-2.185913086E0
8.172851563E0,-9.217681885E-1,-9.643844604E0,-2.175125122E0
8.177795411E0,-8.559265137E-1,-1.010592651E1,-2.041061401E0
8.182739258E0,-7.948760986E-1,-1.034414673E1,-1.855499268E0
8.187652588E0,-7.529754639E-1,-1.045907593E1,-1.675933838E0
8.192596436E0,-6.919250488E-1,-1.038963318E1,-1.589752197E0
8.197509766E0,-5.793914795E-1,-1.019331360E1,-1.568206787E0
8.202453614E0,-4.692687988E-1,-9.919174194E0,-1.258148193E0
8.207427979E0,-4.967956543E-1,-9.649826050E0,-8.068389893E-1
8.212371827E0,-7.649536133E-1,-9.315841675E0,-9.815979004E-2
8.217346192E0,-1.069015503E0,-9.279922485E0,1.297653198E0
8.222320557E0,-1.237808228E0,-9.440338135E0,3.116058350E0
8.227294922E0,-9.995727539E-1,-9.740814209E0,5.062545776E0
8.232269287E0,-3.567352295E-1,-1.019929504E1,6.751647949E0
8.237243653E0,2.465972900E-1,-1.046505737E1,8.175003052E0
8.242218018E0,1.021133423E0,-1.070327759E1,9.202117920E0
8.247192383E0,1.622070312E0,-1.076792908E1,9.475051880E0
8.252166748E0,2.163162231E0,-1.096783447E1,8.706512451E0
8.257141114E0,2.913742065E0,-1.139401245E1,6.983886719E0
8.262115479E0,3.464416504E0,-1.163223267E1,4.232955933E0
8.267089844E0,3.908538818E0,-1.166336060E1,1.385040283E0
8.272064209E0,4.395751953E0,-1.173876953E1,-8.343811035E-1
8.277038575E0,4.472366333E0,-1.160708618E1,-2.318786621E0
8.282012940E0,4.258087158E0,-1.150413513E1,-3.028671265E0
8.286987305E0,3.994720459E0,-1.166336060E1,-3.271682739E0
8.291961670E0,3.800796509E0,-1.201290894E1,-3.022674561E0
8.296936036E0,3.563766479E0,-1.233372498E1,-2.431304932E0
8.301910401E0,3.348297119E0,-1.262821960E1,-1.486801147E0
8.306884766E0,3.293228149E0,-1.307234192E1,-4.465179443E-1
8.311859131E0,3.160339355E0,-1.359428406E1,2.334289551E-1
8.316833496E0,3.086120605E0,-1.421078491E1,5.135498047E-1
8.321807862E0,3.246536255E0,-1.448371887E1,1.064224243E0
8.326782227E0,3.712203979E0,-1.437359619E1,2.008728027E0
8.331756592E0,4.126403809E0,-1.397615051E1,2.801208496E0
8.336730957E0,4.514266968E0,-1.376306152E1,3.173507690E0
8.341705323E0,4.759674072E0,-1.369961548E1,2.772491455E0
8.346679688E0,5.193023682E0,-1.395579529E1,2.075775146E0
8.351654053E0,5.385757446E0,-1.414375305E1,1.098937988E0
8.356628418E0,5.154708862E0,-1.413775635E1,2.752685547E-2
8.361602784E0,4.678268433E0,-1.409347534E1,-2.334289551E-1
8.366577149E0,3.690658569E0,-1.375708008E1,5.625915527E-2
8.371551514E0,2.541442871E0,-1.336563110E1,6.931152344E-1
8.375732422E0,1.088165283E0,-1.295503235E1,1.571792603E0
8.380310059E0,-5.386962891E-1,-1.256477356E1,2.043457031E0
8.385101319E0,-2.286468506E0,-1.236126709E1,2.928115845E0
8.389953614E0,-3.898956299E0,-1.219247437E1,3.877410889E0
8.394836426E0,-5.456390381E0,-1.202009583E1,4.362228394E0
8.399749756E0,-6.829467773E0,-1.202009583E1,4.462799072E0
8.404663086E0,-7.498641968E0,-1.196621704E1,4.155136108E0
8.409606934E0,-7.654266357E0,-1.201290894E1,3.854660034E0
8.414550782E0,-7.632720947E0,-1.207635498E1,3.343505859E0
8.419464112E0,-7.653060913E0,-1.201770020E1,2.122467041E0
8.424407959E0,-7.174224854E0,-1.252526855E1,1.452087402E0
8.429351807E0,-6.762420654E0,-1.331295776E1,1.420959473E0
8.434265137E0,-6.540954590E0,-1.381333923E1,1.106124878E0
8.439208985E0,-6.464340210E0,-1.402642822E1,-8.499145508E-2
8.444152832E0,-6.193801880E0,-1.413177490E1,-1.453277588E0
8.449066162E0,-5.440826416E0,-1.418205261E1,-2.038665771E0
8.454010010E0,-5.131973267E0,-1.381214905E1,-2.480392456E0
8.458923340E0,-4.645950317E0,-1.366371155E1,3.938446045E-1
8.463867188E0,-5.040985107E0,-1.359547424E1,2.628829956E0
8.468811036E0,-5.533004761E0,-1.326626587E1,2.336746216E0
8.473724366E0,-5.640731812E0,-1.299691772E1,1.866287231E0
8.478668213E0,-5.009872437E0,-1.288679504E1,3.076477051E-1
8.483581543E0,-4.832702637E0,-1.210987854E1,-8.523406982E-1
8.488555909E0,-4.362228394E0,-1.154244995E1,-1.977615356E0
8.492767334E0,-3.155563354E0,-1.112585449E1,-3.706222534E0
8.497375489E0,-2.304412842E0,-1.059313965E1,-5.357025146E0
8.502166748E0,-1.343139648E0,-1.031901550E1,-5.317520142E0
8.507049561E0,2.011108398E-1,-1.046385193E1,-4.240127563E0
8.511962891E0,1.227035522E0,-1.048420715E1,-4.404129028E0
8.516906739E0,2.620452881E0,-1.066018677E1,-4.604049683E0
8.521881104E0,3.535034180E0,-1.072123718E1,-2.443283081E0
8.526855469E0,3.696640015E0,-1.093432617E1,-1.715438843E0
8.531829834E0,4.589691162E0,-1.182615662E1,-3.957611084E0
8.536804200E0,3.939651489E0,-1.185369873E1,-3.993530273E0
8.541778565E0,3.007110596E0,-1.128387451E1,-1.060638428E0
8.546752930E0,3.290832520E0,-1.101931763E1,1.316818237E0
8.551727295E0,2.615661621E0,-1.040759277E1,1.679534912E0
8.556701661E0,1.814804077E0,-1.007958984E1,7.493896484E-1
8.561676026E0,9.097900391E-1,-9.436752319E0,6.248931885E-1
8.566650391E0,6.835479736E-1,-9.289505005E0,-1.915435791E-1
8.571624756E0,2.789306641E-1,-9.028533936E0,-1.237808228E0
8.576599121E0,-5.351104736E-1,-8.409637451E0,-1.740585327E0
8.581573487E0,-1.377868652E0,-7.748840332E0,-1.625656128E0
8.586547852E0,-1.426940918E0,-7.857772827E0,-1.783676147E0
8.591522217E0,-1.254562378E0,-8.106765747E0,-2.181121826E0
8.596496582E0,-1.288085938E0,-7.922409058E0,-2.011123657E0
8.601470948E0,-1.414978027E0,-7.574050903E0,-1.604110718E0
8.606445313E0,-1.477218628E0,-7.163452148E0,-1.191116333E0
8.611419678E0,-1.253372192E0,-7.006637573E0,-7.266387939E-1
8.616394043E0,-1.073806763E0,-7.175415039E0,-6.536102295E-1
8.621368409E0,-1.163589478E0,-7.019805908E0,-3.651123047E-1
8.626342774E0,-1.101333618E0,-6.749252319E0,-8.738708496E-2
8.631317139E0,-1.167175293E0,-6.538558960E0,5.146789551E-2
8.636291504E0,-1.334762573E0,-6.254852295E0,-2.525939941E-1
8.641265870E0,-1.468841553E0,-6.015426636E0,-6.691741943E-1
8.646240235E0,-1.521514893E0,-5.770019531E0,-6.033325195E-1
8.651214600E0,-1.653198242E0,-5.449203491E0,-5.566558838E-1
8.656188965E0,-1.839950562E0,-5.086486816E0,-5.746154785E-1
8.661132813E0,-2.018310547E0,-4.861419678E0,-7.565612793E-1
8.666076661E0,-2.152389526E0,-4.753692627E0,-1.046264648E0
8.671020508E0,-2.121261597E0,-4.732147217E0,-1.389831543E0
8.675964356E0,-2.091339111E0,-4.662704468E0,-1.744171143E0
8.680877686E0,-1.952468872E0,-4.691436768E0,-1.945281982E0
8.685821534E0,-1.963241577E0,-4.714187622E0,-2.037460327E0
8.690765381E0,-1.996765137E0,-4.695022583E0,-1.872268677E0
8.695678711E0,-1.889022827E0,-4.795593262E0,-1.783676147E0
8.700622559E0,-1.750167847E0,-4.890151978E0,-1.763336182E0
8.705535889E0,-1.702270508E0,-4.944030762E0,-1.719039917E0
8.710479737E0,-1.942901611E0,-4.890151978E0,-1.479614258E0
8.715423584E0,-2.049438477E0,-4.778823853E0,-1.318008423E0
8.720316845E0,-2.251739502E0,-4.662704468E0,-1.101333618E0
8.725260693E0,-2.139221191E0,-4.811141968E0,-1.046264648E0
8.730204541E0,-2.274490356E0,-4.690246582E0,-9.780273438E-1
8.735117871E0,-2.455261230E0,-4.466384888E0,-8.583221436E-1
8.740061718E0,-2.390609741E0,-4.418502808E0,-6.524200439E-1
8.744975049E0,-2.229003906E0,-4.387374878E0,-4.967956543E-1
8.749918896E0,-1.959655762E0,-4.382583618E0,-4.656677246E-1
8.754832226E0,-1.685516357E0,-4.350265503E0,-9.815979004E-2
8.759776074E0,-1.492782593E0,-4.284423828E0,3.770904541E-1
8.764750439E0,-1.303649902E0,-4.274841309E0,8.762817383E-1
8.768961865E0,-1.248580933E0,-4.205413818E0,1.230621338E0
8.773570019E0,-1.201889038E0,-4.317947388E0,1.717834473E0
8.778361279E0,-1.321594238E0,-4.413711548E0,2.523483276E0
8.783244092E0,-1.553833008E0,-4.608840942E0,3.475189209E0
8.788157422E0,-1.787277222E0,-5.017044067E0,4.240127563E0
8.793101269E0,-2.232589722E0,-5.497085571E0,4.944030762E0
8.798075634E0,-2.721008301E0,-6.112396240E0,6.089645386E0
8.803050000E0,-3.015502930E0,-7.061691284E0,7.824249268E0
8.808024365E0,-3.156753540E0,-8.365341187E0,1.006163025E1
8.812998730E0,-2.410964966E0,-1.042315674E1,1.234091187E1
8.817973095E0,-7.302246094E-1,-1.343505859E1,1.426704407E1
8.822947461E0,2.412155151E0,-1.767041016E1,1.589271545E1
8.827921826E0,6.495468140E0,-2.235945129E1,1.701559448E1
8.832896191E0,9.036911011E0,-2.554972839E1,1.762969971E1
8.837870556E0,9.970657349E0,-2.709637451E1,1.818037415E1
8.842844922E0,1.048899841E1,-2.721728516E1,1.711256409E1
8.847819287E0,1.090798950E1,-2.608242798E1,1.409347534E1
8.852793652E0,7.922409058E0,-2.217749023E1,1.209071350E1
8.857768017E0,4.800369263E0,-1.804270935E1,1.078347778E1
8.862742383E0,3.422515869E0,-1.533126831E1,8.511383057E0
8.867716748E0,1.987182617E0,-1.313339233E1,6.816299438E0
8.872691113E0,5.303192139E-1,-1.113183594E1,5.880157471E0
8.877665478E0,-5.973510742E-1,-9.411605835E0,5.050567627E0
8.882639843E0,-1.638824463E0,-7.867340088E0,4.346679688E0
8.887614209E0,-2.535461426E0,-6.563705444E0,3.665527344E0
8.892588574E0,-3.110061646E0,-5.396530151E0,3.057388306E0
8.897562939E0,-3.357864380E0,-4.369415283E0,2.855087280E0
8.902537304E0,-3.606857300E0,-3.406951904E0,3.219009399E0
8.907511670E0,-4.292800903E0,-2.949661255E0,5.349838257E0
8.912486035E0,-5.697006226E0,-3.535034180E0,7.157470703E0
8.917460400E0,-7.269989014E0,-5.157104492E0,6.208160400E0
8.922434765E0,-7.578842163E0,-7.360977173E0,4.463989258E0
8.927409131E0,-6.294357300E0,-8.962692261E0,4.101272583E0
8.932383496E0,-5.183441162E0,-9.755172729E0,4.647140503E0
8.937327343E0,-5.357025146E0,-1.094030762E1,5.510253906E0
8.942271191E0,-5.980712891E0,-1.284489441E1,6.645111084E0
8.947215039E0,-5.492294312E0,-1.556231689E1,8.560470581E0
8.952158886E0,-2.414550781E0,-1.888665771E1,1.103488159E1
8.957072217E0,2.552215576E0,-2.182075500E1,9.874877930E0
8.962016064E0,5.876571655E0,-2.346676636E1,3.462020874E0
8.966929394E0,5.475540161E0,-2.351943970E1,-1.901000977E0
8.971873242E0,2.682708740E0,-2.223495483E1,-1.735794067E0
8.976817090E0,1.344345093E0,-2.056977844E1,1.748962402E0
8.981730420E0,1.266525269E0,-1.791102600E1,3.161544800E0
8.986674267E0,3.447723389E-1,-1.354998779E1,-2.036270142E0
8.991587597E0,-2.139221191E0,-8.674194336E0,-7.715316772E0
8.996531445E0,-4.539413452E0,-4.800369263E0,-9.914382935E0
9.001475293E0,-6.238098145E0,-2.033874512E0,-9.617507935E0
9.006388623E0,-6.754043579E0,-2.633666992E-1,-8.209716797E0
9.011332470E0,-6.472717285E0,9.397277832E-1,-7.034164429E0
9.016276318E0,-5.784393311E0,2.000350952E0,-5.610809326E0
9.021189648E0,-5.607223511E0,2.946060181E0,-4.328720093E0
9.026133496E0,-5.790374756E0,3.481170654E0,-3.253723145E0
9.031046826E0,-5.735305786E0,3.178298950E0,-2.329559326E0
9.035990674E0,-5.292388916E0,2.100906372E0,-1.393432617E0
9.040965039E0,-4.917694092E0,9.481048584E-1,-7.781219482E-1
9.045176465E0,-4.358642578E0,-3.818817139E-1,-9.301452637E-1
9.049784619E0,-3.730163574E0,-2.055419922E0,-1.381454468E0
9.054575879E0,-3.344696045E0,-3.770874023E0,-1.895004272E0
9.059458691E0,-3.028671265E0,-5.565322876E0,-2.834732056E0
9.064372021E0,-2.692276001E0,-7.133529663E0,-4.370620728E0
9.069315869E0,-2.535461426E0,-7.989456177E0,-6.058532715E0
9.074290234E0,-2.612075806E0,-8.734054565E0,-7.571655273E0
9.079264599E0,-2.981979370E0,-9.747985840E0,-8.608352661E0
9.084238965E0,-4.047393799E0,-1.132456970E1,-9.658203125E0
9.089213330E0,-4.764465332E0,-1.324592590E1,-9.952697754E0
9.094187695E0,-4.607635498E0,-1.555154419E1,-9.250000000E0
9.099162060E0,-3.918106079E0,-1.836112976E1,-8.333023071E0
9.104136426E0,-2.203857422E0,-2.141134644E1,-7.241256714E0
9.109110791E0,3.387756348E-1,-2.409165955E1,-5.530609131E0
9.114085156E0,2.560592651E0,-2.597349548E1,-3.640380859E0
9.119059521E0,3.991134644E0,-2.636135864E1,-2.621658325E0
9.124033886E0,3.800796509E0,-2.410601807E1,-2.281677246E0
9.129008252E0,3.558975220E0,-2.068829346E1,-1.922546387E0
9.133982617E0,3.672698975E0,-1.767520142E1,-1.181533813E0
9.138956982E0,3.574539185E0,-1.491348267E1,-2.585754395E-1
9.143931347E0,2.956832886E0,-1.213859558E1,3.962402344E-1
9.148905713E0,2.309204102E0,-9.759963989E0,7.517852783E-1
9.153880078E0,2.142807007E0,-8.109161377E0,1.077392578E0
9.158854443E0,2.319976807E0,-7.052124023E0,1.657989502E0
9.163828808E0,2.614471436E0,-6.566101074E0,2.632431030E0
9.168803174E0,2.895782471E0,-6.724121094E0,3.955215454E0
9.173777539E0,2.974792480E0,-7.196975708E0,5.258865356E0
9.178751904E0,2.632431030E0,-7.659057617E0,6.277603149E0
9.183726269E0,2.109298706E0,-8.191757202E0,7.158660889E0
9.188700634E0,1.581375122E0,-8.410827637E0,7.696166992E0
9.193675000E0,1.063018799E0,-8.389282227E0,7.629119873E0
9.198649365E0,5.710144043E-1,-8.227676392E0,6.919250488E0
9.203623730E0,2.142791748E-1,-8.128311157E0,5.881362915E0
9.208598095E0,-7.901000977E-2,-8.350982666E0,4.770446777E0
9.213541943E0,-4.453277588E-1,-8.659820557E0,3.703826904E0
9.218485791E0,-1.079788208E0,-8.755599976E0,2.153579712E0
9.223429638E0,-1.334762573E0,-9.068038940E0,6.188964844E-1
9.228342968E0,-1.004364014E0,-9.500198364E0,-7.601623535E-1
9.233286816E0,-5.303192139E-1,-9.826995850E0,-2.066192627E0
9.238230664E0,-3.208160400E-1,-9.952697754E0,-2.868255615E0
9.243143994E0,-4.393310547E-1,-9.706100464E0,-3.080139160E0
9.248087842E0,-6.763610840E-1,-9.332595825E0,-2.721008301E0
9.253001172E0,-9.492950439E-1,-8.944732666E0,-2.172744751E0
9.257945019E0,-1.104919434E0,-8.549697876E0,-1.410186768E0
9.262888867E0,-1.144424438E0,-8.281539917E0,-6.296691895E-1
9.267802197E0,-1.273712158E0,-8.007400513E0,-3.352355957E-2
9.272746045E0,-1.306030273E0,-7.860168457E0,5.566558838E-1
9.277689892E0,-1.345535278E0,-7.769180298E0,1.102523804E0
9.282603222E0,-1.460464478E0,-7.735671997E0,1.417373657E0
9.287547070E0,-1.486801147E0,-7.770385742E0,1.570602417E0
9.292460400E0,-1.434127808E0,-7.836227417E0,1.660385132E0
9.297404248E0,-1.470046997E0,-7.911636353E0,1.444900513E0
9.302348095E0,-1.260543823E0,-8.081634521E0,1.158798218E0
9.307261426E0,-1.012741089E0,-8.091201782E0,9.636688232E-1
9.312205273E0,-9.277496338E-1,-7.958328247E0,6.596069336E-1
9.317179638E0,-9.169769287E-1,-7.868545532E0,3.471527100E-1
9.321391064E0,-9.265594482E-1,-7.876922607E0,9.582519531E-3
9.325968701E0,-9.181823730E-1,-7.957122803E0,-3.830718994E-1
9.330759961E0,-7.649536133E-1,-8.121139526E0,-7.457885742E-1
9.335642773E0,-6.739654541E-1,-8.304290771E0,-1.025909424E0
9.340556103E0,-6.799468994E-1,-8.512588501E0,-1.259353638E0
9.345499951E0,-6.201019287E-1,-8.799880981E0,-1.455673218E0
9.350474316E0,-5.374908447E-1,-9.230850220E0,-1.612487793E0
9.355448681E0,-5.135498047E-1,-9.615112305E0,-1.826782227E0
9.360423047E0,-4.010314941E-1,-9.974243164E0,-1.980010986E0
9.365397412E0,-3.112487793E-1,-1.016816711E1,-2.043457031E0
9.370371777E0,-3.244171143E-1,-1.017416382E1,-2.117675781E0
9.375346142E0,-3.986358643E-1,-1.001853943E1,-2.190689087E0
9.380320508E0,-4.082183838E-1,-9.817428589E0,-1.989578247E0
9.385294873E0,-3.555450439E-1,-9.591171265E0,-1.590942383E0
9.390269238E0,-3.387756348E-1,-9.400833130E0,-9.241638184E-1
9.395243603E0,-3.160400391E-1,-9.392456055E0,-4.069519043E-2
9.400217968E0,-2.478027344E-1,-9.429565430E0,1.228225708E0
9.405192334E0,-7.901000977E-2,-9.636657715E0,3.060989380E0
9.410166699E0,1.233062744E-1,-9.871292114E0,4.988311768E0
9.415141064E0,3.627166748E-1,-1.001016235E1,6.746856689E0
9.420115429E0,6.691741943E-1,-1.006163025E1,8.064865112E0
9.425089795E0,8.607177734E-1,-1.006283569E1,8.921997070E0
9.430064160E0,1.139633179E0,-1.017774963E1,9.126693726E0
9.435038525E0,1.404205322E0,-1.038365173E1,8.422805786E0
9.440012890E0,1.595733643E0,-1.062905884E1,6.889312744E0
9.444987256E0,1.895004272E0,-1.092474365E1,4.654327393E0
9.449961621E0,2.275695801E0,-1.121324158E1,2.437301636E0
9.454935986E0,2.281677246E0,-1.107916260E1,5.147552490E-1
9.459910351E0,2.318786621E0,-1.091516113E1,-9.445190430E-1
9.464884717E0,2.537857056E0,-1.091995239E1,-2.014724731E0
9.469859082E0,2.598907471E0,-1.109593201E1,-2.846710205E0
9.474833447E0,2.710235596E0,-1.164659119E1,-3.405746460E0
9.479807812E0,3.026275635E0,-1.240316772E1,-3.609252930E0
9.484782177E0,3.381805420E0,-1.308790588E1,-3.558975220E0
9.489726025E0,3.780441284E0,-1.348533630E1,-3.434478760E0
9.494669873E0,4.052185059E0,-1.366969299E1,-3.205841064E0
9.499613720E0,4.199432373E0,-1.398094177E1,-2.925720215E0
9.504557568E0,4.357452393E0,-1.444421387E1,-2.365478516E0
9.509470898E0,4.237731934E0,-1.467405701E1,-1.016342163E0
9.514414746E0,3.857055664E0,-1.441787720E1,1.502365112E0
9.519358593E0,3.606857300E0,-1.401086426E1,5.057754517E0
9.524302441E0,3.448852539E0,-1.358709717E1,8.500610352E0
9.529215771E0,3.454833984E0,-1.331535339E1,1.049977112E1
9.534159619E0,3.707427979E0,-1.339077759E1,1.054885864E1
9.539072949E0,3.524261475E0,-1.339915466E1,8.578430176E0
9.544016797E0,3.233367920E0,-1.342549133E1,5.851425171E0
9.548960644E0,2.815582275E0,-1.344343567E1,3.266891479E0
9.553873974E0,2.300827026E0,-1.333570862E1,1.073806763E0
9.558817822E0,1.935714722E0,-1.312142944E1,-4.429626465E-2
9.563731152E0,8.906402588E-1,-1.277186584E1,-3.004760742E-1
9.568675000E0,-2.418212891E-1,-1.261744690E1,2.537841797E-1
9.573618847E0,-1.034301758E0,-1.262821960E1,1.246185303E0
9.578532177E0,-1.590942383E0,-1.291073608E1,2.580947876E0
9.583476025E0,-2.677917480E0,-1.280418396E1,3.410537720E0
9.588389355E0,-4.329910278E0,-1.230380249E1,3.508697510E0
9.593363720E0,-5.556945801E0,-1.245703125E1,3.763687134E0
9.597575146E0,-6.288375854E0,-1.255279541E1,3.531448364E0
9.602152783E0,-7.044937134E0,-1.265095520E1,2.638412476E0
9.606944043E0,-7.074859619E0,-1.332731628E1,9.361267090E-1
9.611826855E0,-6.906082153E0,-1.409706116E1,-7.182312012E-2
9.616740185E0,-6.816299438E0,-1.460583496E1,-6.715698242E-1
9.621684033E0,-6.858184814E0,-1.482369995E1,-1.642425537E0
9.626658398E0,-7.186203003E0,-1.472554016E1,-1.885437012E0
9.631632763E0,-7.507019043E0,-1.428979492E1,-1.808822632E0
9.636607129E0,-6.823471069E0,-1.416169739E1,4.261627197E-1
9.641581494E0,-6.064514160E0,-1.444181824E1,3.023880005E0
9.646555859E0,-6.208160400E0,-1.440231323E1,2.898178101E0
9.651530224E0,-6.178237915E0,-1.453639221E1,2.525878906E0
9.656504590E0,-6.658279419E0,-1.424191284E1,8.319854736E-1
9.661478955E0,-6.509841919E0,-1.354519653E1,-2.402587891E0
9.666453320E0,-5.561737061E0,-1.288439941E1,-4.546585083E0
9.671427685E0,-4.509475708E0,-1.227148438E1,-4.653137207E0
9.676402051E0,-3.572143555E0,-1.166455078E1,-5.215774536E0
9.681376416E0,-2.645599365E0,-1.112466431E1,-5.146331787E0
9.686350781E0,-1.489196777E0,-1.073080444E1,-3.247741699E0
9.691325146E0,4.357452393E-1,-1.080264282E1,-3.072952271E0
9.696299511E0,2.122467041E0,-1.091036987E1,-2.585739136E0
9.701273877E0,2.685104370E0,-1.072003174E1,-2.467224121E0
9.706248242E0,4.642364502E0,-1.157476807E1,-4.923675537E0
9.711222607E0,5.898117065E0,-1.204881287E1,-4.437652588E0
9.716196972E0,5.414489746E0,-1.210508728E1,-4.246124268E0
9.721171338E0,5.668273926E0,-1.265216064E1,-3.021484375E0
9.726145703E0,4.778823853E0,-1.147779846E1,2.139221191E0
9.731120068E0,4.056976318E0,-1.058715820E1,3.561370850E0
9.736094433E0,3.186676025E0,-9.901214600E0,2.664749146E0
9.741068799E0,2.456451416E0,-9.160217285E0,2.110488892E0
9.746043164E0,1.764526367E0,-8.725662231E0,1.292861938E0
9.751017529E0,1.011550903E0,-8.717285156E0,-8.056488037E-1
9.755991894E0,-5.625915527E-2,-8.249221802E0,-2.082962036E0
9.760966259E0,-8.738861084E-1,-7.702148438E0,-2.533065796E0
9.765940625E0,-1.496383667E0,-7.261611938E0,-2.673126221E0
9.770884472E0,-1.895004272E0,-6.760025024E0,-2.312805176E0
9.775828320E0,-1.958450317E0,-6.594833374E0,-2.201461792E0
9.780772168E0,-1.476028442E0,-7.077255249E0,-2.313995361E0
9.785716015E0,-1.539474487E0,-6.946777344E0,-1.464050293E0
9.790629345E0,-1.447296143E0,-6.550537109E0,-8.906402588E-1
9.795542676E0,-9.361267090E-1,-6.742065430E0,-9.026184082E-1
9.800486523E0,-7.218475342E-1,-6.846221924E0,-9.074096680E-1
9.805430371E0,-5.925598145E-1,-6.770797729E0,-7.314300537E-1
9.810343701E0,-8.056488037E-1,-6.382934570E0,-9.205780029E-1
9.815287549E0,-9.337310791E-1,-6.101623535E0,-1.303649902E0
9.820231396E0,-1.066619873E0,-5.906494141E0,-1.715438843E0
9.825144726E0,-1.533493042E0,-5.463562012E0,-1.531097412E0
9.830088574E0,-1.753753662E0,-5.172668457E0,-1.363494873E0
9.835032422E0,-2.128448486E0,-4.906921387E0,-8.391723633E-1
9.839945752E0,-2.930496216E0,-4.047393799E0,1.987152100E-1
9.844889599E0,-3.001129150E0,-3.974380493E0,-1.793258667E0
9.849833447E0,-2.719818115E0,-4.683059692E0,-1.802841187E0
9.854746777E0,-3.321960449E0,-4.314346313E0,-1.480819702E0
9.859690625E0,-3.433288574E0,-4.162322998E0,-1.996765137E0
9.864603955E0,-3.246536255E0,-4.022262573E0,-2.020706177E0
9.869578320E0,-3.181900024E0,-3.835510254E0,-1.709457397E0
9.873789746E0,-3.151962280E0,-3.593704224E0,-1.522705078E0
9.878367383E0,-2.743759155E0,-3.647567749E0,-1.162384033E0
9.883158642E0,-2.426528931E0,-3.800796509E0,-1.021133423E0
9.888041455E0,-2.540252686E0,-3.666717529E0,-8.930358887E-1
9.892954785E0,-2.671936035E0,-3.661926270E0,-8.559265137E-1
9.897898633E0,-2.768890381E0,-3.657150269E0,-9.708557129E-1
9.902872998E0,-2.798828125E0,-3.730163574E0,-1.049850464E0
9.907847363E0,-2.705444336E0,-3.871429443E0,-1.043869019E0
9.912821728E0,-2.602493286E0,-3.977966309E0,-9.828186035E-1
9.917796093E0,-2.337936401E0,-4.067749023E0,-8.056488037E-1
9.922770459E0,-2.009933472E0,-4.144363403E0,-5.734100342E-1
9.927744824E0,-1.698684692E0,-4.125213623E0,-3.651123047E-1
9.932719189E0,-1.349136353E0,-4.125213623E0,-9.576416016E-2
9.937693554E0,-1.121688843E0,-4.040222168E0,4.956054688E-1
9.942667920E0,-8.870544434E-1,-4.003112793E0,1.004364014E0
9.947642285E0,-9.074096680E-1,-3.937271118E0,1.371871948E0
9.952616650E0,-1.027114868E0,-3.877410889E0,2.118865967E0
9.957591015E0,-1.095352173E0,-3.916915894E0,3.155563354E0
9.962565381E0,-1.352722168E0,-4.109649658E0,4.389770508E0
9.967539746E0,-1.750167847E0,-4.463989258E0,5.505462646E0
9.972514111E0,-2.191894531E0,-5.058944702E0,6.530181885E0
9.977488476E0,-2.765304565E0,-5.820297241E0,7.752426147E0
9.982462842E0,-3.487152100E0,-6.781570435E0,9.148239136E0
9.987437207E0,-3.603271484E0,-8.280349731E0,1.102410889E1
9.992411572E0,-1.338363647E0,-1.161427307E1,1.319085693E1
9.997385937E0,2.067398071E0,-1.596333313E1,1.534922791E1
1.000236030E1,6.149505615E0,-2.110368347E1,1.691264343E1
1.000733467E1,1.013105774E1,-2.616981506E1,1.879808044E1
1.001230903E1,1.319564819E1,-2.968569946E1,1.999757385E1
1.001728340E1,1.436282349E1,-3.079063416E1,1.900996399E1
1.002225776E1,1.352723694E1,-2.934692383E1,1.626501465E1
1.002723213E1,1.009155273E1,-2.549105835E1,1.336204529E1
1.003220649E1,6.131546021E0,-2.113841248E1,1.100494385E1
1.003718086E1,4.310760498E0,-1.777694702E1,8.376113892E0
1.004215522E1,2.620452881E0,-1.477700806E1,6.233306885E0
1.004709907E1,6.751708984E-1,-1.221162415E1,4.958389282E0
1.005204292E1,-7.374114990E-1,-1.027111816E1,4.569335938E0
1.005698677E1,-1.461654663E0,-8.811859131E0,4.356246948E0
1.006190010E1,-1.857894897E0,-7.547714233E0,3.630813599E0
1.006684394E1,-2.160766602E0,-6.448776245E0,2.533065796E0
1.007175728E1,-2.768890381E0,-5.433639526E0,2.390609741E0
1.007670112E1,-4.320343018E0,-4.847061157E0,5.085281372E0
1.008164497E1,-6.192596436E0,-5.453994751E0,7.614761353E0
1.008655830E1,-7.457931519E0,-7.174224854E0,7.242462158E0
1.009150215E1,-7.199371338E0,-8.769958496E0,6.331466675E0
1.009644600E1,-6.118377686E0,-9.259582520E0,6.773193359E0
1.010135933E1,-6.262039185E0,-9.361328125E0,7.344207764E0
