"Time (s)","Gyroscope x (rad/s)","Gyroscope y (rad/s)","Gyroscope z (rad/s)"
1.272583000E-2,-3.982849121E-1,-1.317047119E0,-6.988677979E-1
1.770019600E-2,-3.950805664E-1,-1.368179321E0,-6.967315674E-1
2.264404300E-2,-3.663177490E-1,-1.625976562E0,-6.519927979E-1
2.758789100E-2,-3.684539795E-1,-2.008407593E0,-5.838165283E-1
3.253173900E-2,-4.344940186E-1,-2.456878662E0,-5.081787109E-1
3.744506900E-2,-5.527343750E-1,-2.990585327E0,-4.218902588E-1
4.238891600E-2,-7.040100098E-1,-3.573272705E0,-3.377380371E-1
4.733276400E-2,-8.723144531E-1,-4.122955322E0,-2.631683350E-1
5.227661200E-2,-1.098159790E0,-4.545867920E0,-2.099151611E-1
5.718994200E-2,-1.382583618E0,-4.867568970E0,-1.694335938E-1
6.213378900E-2,-1.685119629E0,-5.253204346E0,-1.438598633E-1
6.707763700E-2,-1.995117188E0,-5.745346069E0,-1.321411133E-1
7.196045000E-2,-2.278472900E0,-6.195953369E0,-1.278839111E-1
7.693481500E-2,-2.272079468E0,-5.932830811E0,-1.289520264E-1
8.114624100E-2,-1.985519409E0,-4.936813354E0,-1.481170654E-1
8.572387700E-2,-1.922668457E0,-4.471298218E0,-1.992645264E-1
9.051513700E-2,-1.828933716E0,-4.215637207E0,-2.440032959E-1
9.539795000E-2,-1.603088379E0,-3.837463379E0,-2.674407959E-1
1.003112800E-1,-1.388977051E0,-3.436920166E0,-3.057861328E-1
1.052551270E-1,-1.176986694E0,-2.919204712E0,-3.611755371E-1
1.102294930E-1,-9.628753662E-1,-2.321594238E0,-4.187011719E-1
1.152038580E-1,-7.444915771E-1,-1.714385986E0,-4.868774414E-1
1.201782230E-1,-5.165252686E-1,-1.114654541E0,-5.699615479E-1
1.251525880E-1,-2.747039795E-1,-5.213012695E-1,-6.796875000E-1
1.301269530E-1,-2.650451660E-2,4.968261719E-2,-8.085937500E-1
1.351013190E-1,2.185058594E-1,5.567474365E-1,-9.374847412E-1
1.400756840E-1,4.315643311E-1,9.668731689E-1,-1.061050415E0
1.450500490E-1,5.998687744E-1,1.263015747E0,-1.171844482E0
1.500244140E-1,7.383575439E-1,1.443054199E0,-1.267715454E0
1.549987800E-1,8.661956787E-1,1.522949219E0,-1.340148926E0
1.599731450E-1,9.727172852E-1,1.539993286E0,-1.359329224E0
1.649475100E-1,1.087768555E0,1.309890747E0,-1.327377319E0
1.699218750E-1,1.191101074E0,8.251953125E-1,-1.229370117E0
1.748962410E-1,1.139968872E0,8.624877930E-1,-1.044006348E0
1.798706060E-1,1.089889526E0,1.116012573E0,-7.617187500E-1
1.848449710E-1,1.089889526E0,1.185256958E0,-4.165649414E-1
1.898193360E-1,1.033432007E0,1.059555054E0,-1.033782959E-1
1.947937020E-1,8.960113525E-1,7.495727539E-1,1.235198975E-1
1.997680670E-1,7.053375244E-1,2.819213867E-1,2.662658691E-1
2.047424320E-1,5.082550049E-1,-2.208862305E-1,3.568115234E-1
2.097167970E-1,3.367614746E-1,-6.683044434E-1,4.143371582E-1
2.146911620E-1,2.078552246E-1,-1.041137695E0,4.590759277E-1
2.196655280E-1,1.343536377E-1,-1.313858032E0,4.963531494E-1
2.246398930E-1,1.173095703E-1,-1.505599976E0,5.400390625E-1
2.296142580E-1,1.588592529E-1,-1.657928467E0,5.815887451E-1
2.345886230E-1,2.557983398E-1,-1.781509399E0,6.167297363E-1
2.395629890E-1,3.633880615E-1,-1.874176025E0,6.486968994E-1
2.445373540E-1,4.326324463E-1,-1.946624756E0,6.689300537E-1
2.495117190E-1,4.432830811E-1,-2.036102295E0,6.763916016E-1
2.544555670E-1,3.974761963E-1,-2.154342651E0,6.593475342E-1
2.593994140E-1,3.367614746E-1,-2.271530151E0,6.508178711E-1
2.643432620E-1,2.845611572E-1,-2.372726440E0,6.668090820E-1
2.692871100E-1,2.600555420E-1,-2.438766479E0,6.923675537E-1
2.742004400E-1,2.621917725E-1,-2.470733643E0,7.136688232E-1
2.791442870E-1,3.005371094E-1,-2.465408325E0,7.296600342E-1
2.840576180E-1,3.665771484E-1,-2.420654297E0,7.488250732E-1
2.890014650E-1,4.613952637E-1,-2.341827393E0,7.605438232E-1
2.939453130E-1,5.615234375E-1,-2.240631104E0,7.594757080E-1
2.988586430E-1,6.552734375E-1,-2.092559814E0,7.221984863E-1
3.038024910E-1,7.490081787E-1,-1.892288208E0,6.433715820E-1
3.087158210E-1,8.352966309E-1,-1.678176880E0,5.304565430E-1
3.136596680E-1,8.949584961E-1,-1.461929321E0,4.004821777E-1
3.186035160E-1,9.194488525E-1,-1.244613647E0,2.747802734E-1
3.235168460E-1,9.066772461E-1,-1.041137695E0,1.799774170E-1
3.284606940E-1,8.693847656E-1,-8.046569824E-1,1.341705322E-1
3.333740240E-1,8.278350830E-1,-4.776153564E-1,1.384277344E-1
3.383178710E-1,7.948150635E-1,-7.707214355E-2,1.927642822E-1
3.432617190E-1,7.767028809E-1,3.000183105E-1,2.875671387E-1
3.481750490E-1,7.649841309E-1,5.897827148E-1,4.090118408E-1
3.531494140E-1,7.660522461E-1,7.442321777E-1,5.421600342E-1
3.573608400E-1,7.617950439E-1,7.431793213E-1,6.646728516E-1
3.619384770E-1,7.372894287E-1,6.696777344E-1,7.658691406E-1
3.667297370E-1,6.819000244E-1,6.046905518E-1,8.415069580E-1
3.716125490E-1,6.041412354E-1,5.673980713E-1,8.787841797E-1
3.765258790E-1,5.295715332E-1,5.439758301E-1,8.873138428E-1
3.814697270E-1,4.848327637E-1,4.747314453E-1,8.734588623E-1
3.864440920E-1,4.763031006E-1,3.511505127E-1,8.425750732E-1
3.914184570E-1,4.997406006E-1,1.966857910E-1,8.010253906E-1
3.963928230E-1,5.316925049E-1,5.714416504E-2,7.328491211E-1
4.013671880E-1,5.647277832E-1,-3.446960449E-2,6.465606689E-1
4.063415530E-1,6.020050049E-1,-9.732055664E-2,5.549468994E-1
4.113159180E-1,6.286315918E-1,-1.676330566E-1,4.697265625E-1
4.162902840E-1,6.318359375E-1,-2.571105957E-1,3.866424561E-1
4.212646490E-1,6.201171875E-1,-3.625640869E-1,2.971496582E-1
4.262390140E-1,5.934753418E-1,-4.680328369E-1,1.970214844E-1
4.312133790E-1,5.466156006E-1,-5.255584717E-1,1.032714844E-1
4.361877450E-1,4.869537354E-1,-5.244903564E-1,2.075195312E-3
4.411621100E-1,4.177093506E-1,-4.595031738E-1,-9.486389160E-2
4.461364750E-1,3.314208984E-1,-3.338012695E-1,-1.662292480E-1
4.511108400E-1,2.238311768E-1,-1.921234131E-1,-1.981964111E-1
4.560852050E-1,9.600830078E-2,-6.748962402E-2,-1.832733154E-1
4.610595710E-1,-5.845642090E-2,4.649353027E-2,-1.140289307E-1
4.660339360E-1,-2.278289795E-1,1.498260498E-1,6.332397461E-3
4.710083010E-1,-3.950805664E-1,2.190704346E-1,1.544036865E-1
4.759826660E-1,-5.250396729E-1,2.499542236E-1,2.971496582E-1
4.809570320E-1,-6.092071533E-1,3.021545410E-1,4.281768799E-1
4.859313970E-1,-6.528778076E-1,3.671417236E-1,5.357818604E-1
4.909057620E-1,-6.805725098E-1,3.948364258E-1,6.092834473E-1
4.958801270E-1,-7.061462402E-1,3.841857910E-1,6.465606689E-1
5.008544930E-1,-7.306365967E-1,3.522186279E-1,6.486968994E-1
5.058288580E-1,-7.498168945E-1,3.202667236E-1,6.252593994E-1
5.108032230E-1,-7.668609619E-1,3.128051758E-1,5.922393799E-1
5.157775880E-1,-7.902984619E-1,3.202667236E-1,5.506896973E-1
5.207519530E-1,-8.275756836E-1,3.341064453E-1,5.006256104E-1
5.257263190E-1,-8.755187988E-1,3.564758301E-1,4.548187256E-1
5.306701660E-1,-9.277191162E-1,3.618164062E-1,4.143371582E-1
5.356140140E-1,-9.831085205E-1,3.181304932E-1,3.802490234E-1
5.405578620E-1,-1.035308838E0,2.286529541E-1,3.568115234E-1
5.454711920E-1,-1.087509155E0,1.242523193E-1,3.568115234E-1
5.504150390E-1,-1.149291992E0,1.347351074E-2,3.845062256E-1
5.553283700E-1,-1.229187012E0,-1.069030762E-1,4.303131104E-1
5.602722170E-1,-1.341033936E0,-2.507171631E-1,4.899749756E-1
5.652160650E-1,-1.484848022E0,-4.307403564E-1,5.602722168E-1
5.701293950E-1,-1.659545898E0,-6.512603760E-1,6.263275146E-1
5.750732430E-1,-1.850234985E0,-8.696289062E-1,6.806488037E-1
5.800170900E-1,-2.035583496E0,-1.052856445E0,7.307128906E-1
5.849304200E-1,-2.193252563E0,-1.179626465E0,7.637481689E-1
5.898742680E-1,-2.321075439E0,-1.236083984E0,7.807922363E-1
5.947875980E-1,-2.426544189E0,-1.246734619E0,7.797241211E-1
5.997314460E-1,-2.501113892E0,-1.232894897E0,7.573547363E-1
6.046752930E-1,-2.529876709E0,-1.209457397E0,7.158050537E-1
6.095886230E-1,-2.517089844E0,-1.179626465E0,6.550903320E-1
6.145324710E-1,-2.473419189E0,-1.182830811E0,5.741271973E-1
6.194763190E-1,-2.426544189E0,-1.214782715E0,4.739837646E-1
6.243896490E-1,-2.396713257E0,-1.249938965E0,3.642730713E-1
6.293640140E-1,-2.375411987E0,-1.255264282E0,2.726593018E-1
6.335754400E-1,-2.356231689E0,-1.239288330E0,2.119293213E-1
6.381835940E-1,-2.359436035E0,-1.213714600E0,1.789093018E-1
6.429748540E-1,-2.383926392E0,-1.204132080E0,1.693267822E-1
6.478576660E-1,-2.426544189E0,-1.198806763E0,1.725158691E-1
6.527709960E-1,-2.484069824E0,-1.199874878E0,1.906280518E-1
6.577148440E-1,-2.554367065E0,-1.203063965E0,2.087402344E-1
6.626892090E-1,-2.626815796E0,-1.207321167E0,2.257843018E-1
6.676635750E-1,-2.696060181E0,-1.233963013E0,2.396392822E-1
6.726379400E-1,-2.754638672E0,-1.256332397E0,2.481536865E-1
6.776123050E-1,-2.787673950E0,-1.255264282E0,2.513427734E-1
6.825866700E-1,-2.782333374E0,-1.258453369E0,2.620086670E-1
6.875610360E-1,-2.743988037E0,-1.301071167E0,2.811737061E-1
6.925354010E-1,-2.690734863E0,-1.390548706E0,2.801055908E-1
6.975097660E-1,-2.624679565E0,-1.533294678E0,2.449645996E-1
7.024841310E-1,-2.541595459E0,-1.688827515E0,1.799774170E-1
7.074584960E-1,-2.437194824E0,-1.842224121E0,9.689331055E-2
7.124328620E-1,-2.333862305E0,-1.999877930E0,2.075195312E-3
7.174072270E-1,-2.246505737E0,-2.149017334E0,-1.055145264E-1
7.223815920E-1,-2.180465698E0,-2.272583008E0,-2.365417480E-1
7.273559570E-1,-2.132522583E0,-2.400421143E0,-3.910064697E-1
7.323303230E-1,-2.086715698E0,-2.503753662E0,-5.625152588E-1
7.373046880E-1,-2.036651611E0,-2.585784912E0,-7.233734131E-1
7.422790530E-1,-1.981262207E0,-2.624130249E0,-8.511962891E-1
7.472534180E-1,-1.936523438E0,-2.555953979E0,-9.342956543E-1
7.522277840E-1,-1.898178101E0,-2.432373047E0,-9.598541260E-1
7.572021490E-1,-1.867279053E0,-2.349288940E0,-9.332275391E-1
7.621765140E-1,-1.844909668E0,-2.299224854E0,-8.895416260E-1
7.671508790E-1,-1.822540283E0,-2.269393921E0,-8.416137695E-1
7.721252450E-1,-1.800170898E0,-2.276855469E0,-7.989959717E-1
7.770996100E-1,-1.770339966E0,-2.271530151E0,-7.649078369E-1
7.820739750E-1,-1.714950562E0,-2.237442017E0,-7.489318848E-1
7.870483400E-1,-1.638244629E0,-2.207611084E0,-7.521362305E-1
7.920227050E-1,-1.544509888E0,-2.185241699E0,-7.702331543E-1
7.969970710E-1,-1.420928955E0,-2.171386719E0,-7.702331543E-1
8.019409180E-1,-1.277114868E0,-2.162872314E0,-7.425384521E-1
8.068847660E-1,-1.127990723E0,-2.142623901E0,-6.988677979E-1
8.118286140E-1,-9.873657227E-1,-2.115997314E0,-6.477355957E-1
8.167419440E-1,-8.616638184E-1,-2.107467651E0,-6.008605957E-1
8.216857910E-1,-7.583312988E-1,-2.164993286E0,-5.699615479E-1
8.266296390E-1,-6.763153076E-1,-2.280044556E0,-5.742340088E-1
8.315429690E-1,-5.985412598E-1,-2.387634277E0,-5.880737305E-1
8.364868170E-1,-5.282440186E-1,-2.466461182E0,-6.029968262E-1
8.414001470E-1,-4.728393555E-1,-2.531448364E0,-6.136474609E-1
8.463439950E-1,-4.440917969E-1,-2.570861816E0,-6.125793457E-1
8.512878420E-1,-4.536743164E-1,-2.581512451E0,-6.083221436E-1
8.562011720E-1,-4.930877686E-1,-2.582580566E0,-6.136474609E-1
8.611450200E-1,-5.495452881E-1,-2.568740845E0,-6.285552979E-1
8.660888680E-1,-6.006774902E-1,-2.522933960E0,-6.573181152E-1
8.710021980E-1,-6.432952881E-1,-2.431320190E0,-7.031250000E-1
8.759460450E-1,-6.592712402E-1,-2.293899536E0,-7.649078369E-1
8.808593750E-1,-6.518096924E-1,-2.106414795E0,-8.437347412E-1
8.858032230E-1,-6.198577881E-1,-1.879501343E0,-9.396209717E-1
8.907470710E-1,-5.783081055E-1,-1.649414062E0,-1.047210693E0
8.956604010E-1,-5.346374512E-1,-1.461929321E0,-1.150543213E0
9.006042480E-1,-4.984130859E-1,-1.333023071E0,-1.242156982E0
9.055786140E-1,-4.728393555E-1,-1.264846802E0,-1.312454224E0
9.097900390E-1,-4.547424316E-1,-1.232894897E0,-1.358261108E0
9.143676760E-1,-4.387512207E-1,-1.223297119E0,-1.364654541E0
9.191589360E-1,-4.217071533E-1,-1.237152100E0,-1.324172974E0
9.240417480E-1,-3.929443359E-1,-1.264846802E0,-1.244277954E0
9.289550780E-1,-3.492736816E-1,-1.289352417E0,-1.134552002E0
9.338989260E-1,-2.906799316E-1,-1.292541504E0,-9.907531738E-1
9.388732910E-1,-2.161254883E-1,-1.260589600E0,-8.352203369E-1
9.438476570E-1,-1.394195557E-1,-1.178558350E0,-6.839447021E-1
9.488220220E-1,-8.082580566E-2,-1.084823608E0,-5.550537109E-1
9.537963870E-1,-4.566955566E-2,-1.012374878E0,-4.570465088E-1
9.587707520E-1,-2.330017090E-2,-9.697723389E-1,-3.835449219E-1
9.637451180E-1,-3.067016602E-3,-9.346160889E-1,-3.260192871E-1
9.687194830E-1,2.676391602E-2,-8.717651367E-1,-2.876739502E-1
9.736938480E-1,7.150268555E-2,-7.737579346E-1,-2.653045654E-1
9.786682130E-1,1.194458008E-1,-6.565856934E-1,-2.578430176E-1
9.836425780E-1,1.609802246E-1,-5.575103760E-1,-2.738189697E-1
9.886169440E-1,1.972045898E-1,-5.063781738E-1,-3.089752197E-1
9.935913090E-1,2.312927246E-1,-4.658966064E-1,-3.451995850E-1
9.985656740E-1,2.749633789E-1,-4.169006348E-1,-3.803558350E-1
1.003540039E0,3.324890137E-1,-3.615112305E-1,-4.197692871E-1
1.008514405E0,3.985443115E-1,-3.157043457E-1,-4.740905762E-1
1.013488770E0,4.741668701E-1,-3.018493652E-1,-5.454711914E-1
1.018463135E0,5.455474854E-1,-3.284759521E-1,-6.189727783E-1
1.023437500E0,5.732421875E-1,-4.051818848E-1,-6.839447021E-1
1.028411866E0,5.604553223E-1,-4.392700195E-1,-7.297515869E-1
1.033386231E0,5.274353027E-1,-4.637756348E-1,-7.734375000E-1
1.038360596E0,4.731140137E-1,-4.765472412E-1,-8.256378174E-1
1.043334961E0,4.038696289E-1,-4.563140869E-1,-8.810272217E-1
1.048309327E0,3.250427246E-1,-4.211578369E-1,-9.215087891E-1
1.053283692E0,2.366180420E-1,-3.966522217E-1,-9.321594238E-1
1.058258057E0,1.428833008E-1,-3.764190674E-1,-9.236297607E-1
1.063232422E0,5.020141602E-2,-3.625640869E-1,-8.959350586E-1
1.068206787E0,-3.182983398E-2,-3.678894043E-1,-8.437347412E-1
1.073181153E0,-9.680175781E-2,-4.190368652E-1,-7.510681152E-1
1.078155518E0,-1.468811035E-1,-5.042572021E-1,-6.168365479E-1
1.083099366E0,-1.990814209E-1,-6.022491455E-1,-4.623718262E-1
1.088043213E0,-2.523345947E-1,-7.023925781E-1,-3.121795654E-1
1.092956543E0,-3.034667969E-1,-7.716369629E-1,-1.736907959E-1
1.097900391E0,-3.450164795E-1,-7.908020020E-1,-4.692077637E-2
1.102813721E0,-3.631286621E-1,-7.695007324E-1,5.427551270E-2
1.107757569E0,-3.567352295E-1,-7.268981934E-1,1.160583496E-1
1.112670899E0,-3.386230469E-1,-6.842803955E-1,1.331024170E-1
1.117614746E0,-3.354339600E-1,-6.374053955E-1,1.331024170E-1
1.122558594E0,-3.556671143E-1,-5.777587891E-1,1.373596191E-1
1.127471924E0,-3.876190186E-1,-5.330200195E-1,1.331024170E-1
1.132415772E0,-4.078674316E-1,-4.776153564E-1,1.181945801E-1
1.137359620E0,-4.036102295E-1,-4.041137695E-1,8.622741699E-2
1.142272950E0,-3.865661621E-1,-3.284759521E-1,4.681396484E-2
1.147216797E0,-3.684539795E-1,-2.666931152E-1,1.379394531E-2
1.152160645E0,-3.503417969E-1,-2.496490479E-1,-7.507324219E-3
1.157073975E0,-3.311614990E-1,-2.666931152E-1,-7.507324219E-3
1.162017823E0,-3.066711426E-1,-2.880096436E-1,1.167297363E-2
1.166931153E0,-2.789611816E-1,-3.146362305E-1,4.576110840E-2
1.171875000E0,-2.640533447E-1,-3.476562500E-1,9.368896484E-2
1.176788330E0,-2.651214600E-1,-3.572387695E-1,1.469573975E-1
1.181732178E0,-2.715148926E-1,-3.476562500E-1,1.970214844E-1
1.186676026E0,-2.747039795E-1,-3.348693848E-1,2.342987061E-1
1.191589356E0,-2.704467773E-1,-3.327484131E-1,2.630615234E-1
1.196533203E0,-2.587280273E-1,-3.306121826E-1,2.971496582E-1
1.201477051E0,-2.438201904E-1,-3.380737305E-1,3.419036865E-1
1.206390381E0,-2.235717773E-1,-3.625640869E-1,3.983612061E-1
1.211334229E0,-1.969451904E-1,-4.009246826E-1,4.526824951E-1
1.216278077E0,-1.671142578E-1,-4.371337891E-1,4.984893799E-1
1.221191407E0,-1.319580078E-1,-4.488525391E-1,5.261840820E-1
1.226135254E0,-8.508300781E-2,-4.318084717E-1,5.315093994E-1
1.231048584E0,-1.264953613E-2,-4.030456543E-1,5.038146973E-1
1.235992432E0,8.641052246E-2,-3.742828369E-1,4.558868408E-1
1.240936280E0,2.025299072E-1,-3.316802979E-1,3.919677734E-1
1.245849610E0,3.143768311E-1,-2.848052979E-1,3.152618408E-1
1.250793457E0,4.134521484E-1,-2.432556152E-1,2.364349365E-1
1.255706787E0,4.880218506E-1,-2.198181152E-1,1.629333496E-1
1.260650635E0,5.167846680E-1,-2.091674805E-1,1.149902344E-1
1.265594483E0,4.965362549E-1,-2.027740479E-1,1.032714844E-1
1.270507813E0,4.454040527E-1,-2.038421631E-1,1.192626953E-1
1.275451661E0,3.846893311E-1,-2.294158936E-1,1.458892822E-1
1.280395508E0,3.399505615E-1,-2.730865479E-1,1.778411865E-1
1.285369873E0,3.186492920E-1,-3.039855957E-1,2.129974365E-1
1.289550782E0,3.186492920E-1,-3.082427979E-1,2.481536865E-1
1.294128418E0,3.431396484E-1,-2.848052979E-1,2.833099365E-1
1.298919678E0,3.868255615E-1,-2.389984131E-1,3.248596191E-1
1.303802491E0,4.507446289E-1,-1.708221436E-1,3.578796387E-1
1.308715821E0,5.061340332E-1,-1.079711914E-1,3.877105713E-1
1.313659668E0,5.252990723E-1,-7.069396973E-2,4.217987061E-1
1.318634034E0,5.125274658E-1,-4.193115234E-2,4.452209473E-1
1.323608399E0,4.752349854E-1,-7.843017578E-3,4.569396973E-1
1.328582764E0,4.166564941E-1,4.435729980E-2,4.580078125E-1
1.333557129E0,3.420867920E-1,1.178588867E-1,4.473571777E-1
1.338531495E0,2.440795898E-1,1.828460693E-1,4.122009277E-1
1.343505860E0,1.258392334E-1,2.339782715E-1,3.482818604E-1
1.348480225E0,-6.256103516E-3,2.925720215E-1,2.577362061E-1
1.353454590E0,-1.458129883E-1,3.586120605E-1,1.490783691E-1
1.358428955E0,-2.843017578E-1,4.289245605E-1,3.616333008E-2
1.363403321E0,-4.142608643E-1,4.789886475E-1,-7.249450684E-2
1.368377686E0,-5.271759033E-1,4.971008301E-1,-1.523895264E-1
1.373352051E0,-6.134643555E-1,4.853820801E-1,-2.120361328E-1
1.378326416E0,-6.688537598E-1,4.353179932E-1,-2.621002197E-1
1.383300782E0,-6.933593750E-1,3.554229736E-1,-2.993927002E-1
1.388275147E0,-7.082672119E-1,2.542114258E-1,-3.356170654E-1
1.393249512E0,-7.146606445E-1,1.381072998E-1,-3.782196045E-1
1.398223877E0,-7.104034424E-1,1.452636719E-2,-4.250946045E-1
1.403198243E0,-7.125244141E-1,-1.143646240E-1,-4.645080566E-1
1.408172608E0,-7.295684814E-1,-2.411346436E-1,-5.081787109E-1
1.413146973E0,-7.743225098E-1,-3.572387695E-1,-5.625152588E-1
1.418121338E0,-8.329010010E-1,-4.531250000E-1,-6.232299805E-1
1.423095703E0,-9.053497314E-1,-5.244903564E-1,-6.860809326E-1
1.428070069E0,-9.841766357E-1,-5.862731934E-1,-7.542572021E-1
1.433044434E0,-1.057678223E0,-6.278228760E-1,-8.298950195E-1
1.438018799E0,-1.123718262E0,-6.555175781E-1,-9.023284912E-1
1.442993164E0,-1.192962646E0,-6.693725586E-1,-9.779663086E-1
1.447967530E0,-1.261138916E0,-6.640472412E-1,-1.049331665E0
1.452941895E0,-1.306945801E0,-6.406097412E-1,-1.115386963E0
1.457916260E0,-1.328247070E0,-6.470031738E-1,-1.183563232E0
1.462860108E0,-1.318664551E0,-6.714935303E-1,-1.252807617E0
1.467803955E0,-1.286712646E0,-6.693725586E-1,-1.316726685E0
1.472747803E0,-1.230255127E0,-6.555175781E-1,-1.365722656E0
1.477661133E0,-1.118392944E0,-6.416625977E-1,-1.374237061E0
1.482604981E0,-9.788513184E-1,-6.161041260E-1,-1.338027954E0
1.487518311E0,-7.945556641E-1,-6.512603760E-1,-1.244277954E0
1.492462159E0,-5.356903076E-1,-6.928100586E-1,-1.094085693E0
1.497406006E0,-2.342224121E-1,-7.535247803E-1,-9.279022217E-1
1.502349854E0,3.422546387E-2,-8.451385498E-1,-7.936706543E-1
1.507263184E0,1.950683594E-1,-8.781585693E-1,-7.063293457E-1
1.512207032E0,2.536621094E-1,-8.334197998E-1,-6.413421631E-1
1.517120362E0,3.016052246E-1,-7.673645020E-1,-5.582580566E-1
1.522064209E0,3.889465332E-1,-7.290191650E-1,-4.346771240E-1
1.527008057E0,4.922790527E-1,-7.247619629E-1,-3.079071045E-1
1.531921387E0,5.625915527E-1,-7.247619629E-1,-2.163085938E-1
1.536865235E0,5.892181396E-1,-6.501922607E-1,-1.481170654E-1
1.541778565E0,5.625915527E-1,-4.754943848E-1,-1.065826416E-1
1.546722412E0,4.837646484E-1,-2.475280762E-1,-9.593200684E-2
1.551666260E0,3.825531006E-1,6.866455078E-4,-1.097717285E-1
1.556579590E0,2.760314941E-1,2.446289062E-1,-1.481170654E-1
1.561553955E0,1.822967529E-1,4.534149170E-1,-2.003173828E-1
1.565765381E0,9.173583984E-2,6.174774170E-1,-2.589111328E-1
1.570343018E0,-6.256103516E-3,7.399749756E-1,-3.260192871E-1
1.575134278E0,-9.042358398E-2,8.113555908E-1,-3.878021240E-1
1.580017090E0,-1.628570557E-1,8.443756104E-1,-4.453277588E-1
1.584930420E0,-2.342224121E-1,8.401184082E-1,-4.666442871E-1
1.589874268E0,-2.704467773E-1,7.612762451E-1,-4.496002197E-1
1.594848633E0,-2.757720947E-1,6.675415039E-1,-4.112396240E-1
1.599822998E0,-2.843017578E-1,5.737915039E-1,-3.515930176E-1
1.604797364E0,-2.885589600E-1,4.651336670E-1,-2.802124023E-1
1.609771729E0,-2.864227295E-1,3.607482910E-1,-2.067108154E-1
1.614746094E0,-2.576599121E-1,2.712554932E-1,-1.108398438E-1
1.619720459E0,-2.161254883E-1,2.275848389E-1,-2.029418945E-2
1.624694825E0,-2.097320557E-1,2.254486084E-1,7.450866699E-2
1.629669190E0,-2.342224121E-1,2.499542236E-1,1.714477539E-1
1.634643555E0,-2.704467773E-1,2.733917236E-1,2.662658691E-1
1.639617920E0,-2.906799316E-1,3.064117432E-1,3.525543213E-1
1.644592286E0,-2.853546143E-1,3.905639648E-1,4.100799561E-1
1.649566651E0,-2.523345947E-1,4.971008301E-1,4.644012451E-1
1.654541016E0,-2.139892578E-1,6.238708496E-1,5.261840820E-1
1.659515381E0,-1.841583252E-1,7.644805908E-1,5.858459473E-1
1.664489746E0,-2.001342773E-1,9.029693604E-1,6.486968994E-1
1.669464112E0,-2.619171143E-1,1.062759399E0,7.168731689E-1
1.674438477E0,-3.460845947E-1,1.191650391E0,7.914428711E-1
1.679412842E0,-4.440917969E-1,1.281127930E0,8.755950928E-1
1.684387207E0,-5.261077881E-1,1.328002930E0,9.714660645E-1
1.689361573E0,-5.836334229E-1,1.309890747E0,1.083328247E0
1.694335938E0,-6.123962402E-1,1.277938843E0,1.196243286E0
1.699310303E0,-5.996093750E-1,1.247039795E0,1.287857056E0
1.704284668E0,-5.761718750E-1,1.202301025E0,1.373077393E0
1.709259034E0,-5.655212402E-1,1.147979736E0,1.450836182E0
1.714233399E0,-5.591278076E-1,1.087249756E0,1.531799316E0
1.719207764E0,-5.325012207E-1,9.977722168E-1,1.634063721E0
1.724182129E0,-4.962768555E-1,9.168090820E-1,1.753372192E0
1.729156495E0,-4.344940186E-1,8.241271973E-1,1.909973145E0
1.734100342E0,-3.407592773E-1,6.760559082E-1,2.114501953E0
1.739044190E0,-3.141174316E-1,5.652770996E-1,2.315826416E0
1.743988037E0,-3.439483643E-1,5.141448975E-1,2.476684570E0
1.748931885E0,-4.835052490E-1,4.491577148E-1,2.731292725E0
1.753875733E0,-5.697784424E-1,1.412963867E-1,2.903854370E0
1.758819580E0,-5.175933838E-1,-3.593750000E-1,2.923034668E0
1.763732911E0,-4.408874512E-1,-8.227691650E-1,2.916641235E0
1.768676758E0,-3.375549316E-1,-1.132751465E0,2.803726196E0
1.773620606E0,-2.779083252E-1,-1.347946167E0,2.581085205E0
1.778533936E0,-2.161254883E-1,-1.481094360E0,2.301986694E0
1.783477784E0,-9.574890137E-2,-1.337280273E0,2.053771973E0
1.788391114E0,4.806518555E-2,-9.836273193E-1,1.905700684E0
1.793334961E0,1.737670898E-1,-7.087860107E-1,1.852447510E0
1.798278809E0,2.653808594E-1,-4.946594238E-1,1.811965942E0
1.803192139E0,3.047943115E-1,-3.338012695E-1,1.764022827E0
1.808135987E0,3.292999268E-1,-2.422027588E-1,1.724609375E0
1.813079834E0,3.527374268E-1,-2.240905762E-1,1.678802490E0
1.817993164E0,3.655090332E-1,-2.006530762E-1,1.621276855E0
1.822937012E0,3.655090332E-1,-1.324768066E-1,1.538192749E0
1.827850342E0,3.793640137E-1,-4.512023926E-2,1.430603027E0
1.832794190E0,3.932189941E-1,4.223632812E-2,1.285720825E0
1.837768555E0,3.815002441E-1,1.189270020E-1,1.097167969E0
1.841979981E0,3.420867920E-1,1.412963867E-1,8.894500732E-1
1.846557618E0,2.824249268E-1,1.125335693E-1,6.806488037E-1
1.851348877E0,2.153167725E-1,6.672668457E-2,4.761199951E-1
1.856231690E0,1.428833008E-1,1.986694336E-2,3.003540039E-1
1.861145020E0,7.363891602E-2,-7.843017578E-3,1.821136475E-1
1.866088868E0,1.373291016E-4,4.010009766E-2,1.853027344E-1
1.871063233E0,-5.952453613E-2,6.886291504E-2,3.386993408E-1
1.876037598E0,-9.893798828E-2,1.452636719E-2,5.197906494E-1
1.881011963E0,-1.468811035E-1,-2.807617188E-2,6.636047363E-1
1.885986328E0,-2.171783447E-1,-5.577087402E-2,8.191375732E-1
1.890960694E0,-2.949523926E-1,-6.216430664E-2,9.576263428E-1
1.895935059E0,-3.695220947E-1,-5.897521973E-2,1.020477295E0
1.900909424E0,-4.195861816E-1,-2.275085449E-2,1.026855469E0
1.905883789E0,-4.440917969E-1,9.201049805E-3,1.033248901E0
1.910858155E0,-4.440917969E-1,3.051757812E-2,1.056686401E0
1.915832520E0,-4.249114990E-1,6.140136719E-2,1.052429199E0
1.920806885E0,-3.908233643E-1,1.008148193E-1,9.810485840E-1
1.925781250E0,-3.748474121E-1,2.084045410E-1,9.331207275E-1
1.930755616E0,-3.716430664E-1,2.851104736E-1,8.638763428E-1
1.935729981E0,-3.545989990E-1,2.393035889E-1,6.827850342E-1
1.940704346E0,-3.375549316E-1,1.625976562E-1,5.112762451E-1
1.945678711E0,-3.332977295E-1,1.072082520E-1,4.260559082E-1
1.950653077E0,-3.322296143E-1,3.477478027E-2,4.079437256E-1
1.955627442E0,-3.077239990E-1,-9.838867188E-2,4.324493408E-1
1.960601807E0,-2.470092773E-1,-2.666931152E-1,4.963531494E-1
1.965576172E0,-1.926879883E-1,-3.796081543E-1,6.231231689E-1
1.970550537E0,-1.596527100E-1,-3.583068848E-1,7.882385254E-1
1.975524903E0,-1.010742188E-1,-2.869415283E-1,1.003433228E0
1.980499268E0,-1.690673828E-2,-2.943878174E-1,1.233520508E0
1.985473633E0,3.422546387E-2,-3.071746826E-1,1.419952393E0
1.990447998E0,4.060363770E-2,-2.485809326E-1,1.546707153E0
1.995422364E0,2.569580078E-2,-1.111755371E-1,1.618087769E0
2.000396729E0,-7.324218750E-3,-5.151367188E-2,1.662826538E0
2.005371094E0,-3.608703613E-2,-8.773803711E-2,1.647918701E0
2.010345459E0,-5.845642090E-2,-1.260833740E-1,1.578674316E0
2.015289307E0,-8.508300781E-2,-1.612396240E-1,1.501968384E0
2.020233155E0,-1.021423340E-1,-2.049102783E-1,1.418884277E0
2.025146485E0,-7.870483398E-2,-2.549743652E-1,1.334716797E0
2.030090332E0,-3.182983398E-2,-2.826690674E-1,1.277206421E0
2.035003662E0,1.290893555E-2,-2.837371826E-1,1.261215210E0
2.039947510E0,3.634643555E-2,-2.762908936E-1,1.288909912E0
2.044891358E0,4.699707031E-2,-2.347412109E-1,1.353897095E0
2.049804688E0,6.192016602E-2,-1.420593262E-1,1.466812134E0
2.054748536E0,6.724548340E-2,-3.340148926E-2,1.621276855E0
2.059692383E0,5.552673340E-2,7.312011719E-2,1.777877808E0
2.064605713E0,1.078796387E-2,1.476898193E-1,1.879074097E0
2.069549561E0,-7.656860352E-2,1.274566650E-1,1.912094116E0
2.074462891E0,-1.852264404E-1,5.821228027E-2,1.888656616E0
2.079406739E0,-2.757720947E-1,-3.570556641E-3,1.822616577E0
2.084350586E0,-3.023986816E-1,-8.453369141E-2,1.713958740E0
2.089263916E0,-2.608642578E-1,-1.729583740E-1,1.569076538E0
2.094207764E0,-1.894836426E-1,-1.846771240E-1,1.442321777E0
2.099151612E0,-1.351623535E-1,-1.186218262E-1,1.370941162E0
2.104064942E0,-8.828735352E-2,-7.814025879E-2,1.314483643E0
2.109008789E0,-2.650451660E-2,-1.473846436E-1,1.256958008E0
2.113983155E0,6.510925293E-2,-2.283477783E-1,1.160018921E0
2.118194580E0,1.673736572E-1,-2.666931152E-1,1.035385132E0
2.122772217E0,2.515258789E-1,-2.773437500E-1,8.990325928E-1
2.127563477E0,3.101196289E-1,-2.986602783E-1,7.520294189E-1
2.132446289E0,3.495330811E-1,-3.753509521E-1,6.593475342E-1
2.137359620E0,3.719024658E-1,-4.989318848E-1,6.018218994E-1
2.142303467E0,3.751068115E-1,-6.896057129E-1,5.698699951E-1
2.147277832E0,3.580627441E-1,-9.026641846E-1,5.922393799E-1
2.152252198E0,3.538055420E-1,-1.011322021E0,6.731872559E-1
2.157226563E0,3.878936768E-1,-8.632507324E-1,7.839813232E-1
2.162200928E0,4.464721680E-1,-5.596466064E-1,8.383178711E-1
2.167175293E0,4.912109375E-1,-3.412628174E-1,8.574829102E-1
2.172149659E0,4.794921875E-1,-2.336730957E-1,8.436431885E-1
2.177124024E0,4.102630615E-1,-1.505889893E-1,7.424316406E-1
2.182098389E0,2.962799072E-1,-9.306335449E-2,5.602722168E-1
2.187072754E0,1.439361572E-1,2.519226074E-2,3.227233887E-1
2.192047120E0,-3.076171875E-2,2.190704346E-1,6.813049316E-2
2.197021485E0,-2.012023926E-1,4.544830322E-1,-1.523895264E-1
2.201995850E0,-2.949523926E-1,6.110839844E-1,-2.557220459E-1
2.206970215E0,-2.661895752E-1,5.887145996E-1,-1.736907959E-1
2.211944580E0,-8.189392090E-2,3.724670410E-1,3.936767578E-2
2.216918946E0,1.769714355E-1,9.123229980E-2,2.012786865E-1
2.221893311E0,3.665771484E-1,-1.867980957E-1,2.502899170E-1
2.226867676E0,4.304962158E-1,-3.370056152E-1,2.268524170E-1
2.231842041E0,3.538055420E-1,-3.231506348E-1,1.789093018E-1
2.236816407E0,2.185058594E-1,-2.592468262E-1,2.193908691E-1
2.241790772E0,9.068298340E-2,-2.102355957E-1,3.504180908E-1
2.246765137E0,1.290893555E-2,-1.569671631E-1,5.475006104E-1
2.251739502E0,-1.085205078E-1,-1.740112305E-1,8.819885254E-1
2.256713868E0,-2.597961426E-1,-2.837371826E-1,1.226074219E0
2.261688233E0,-3.620605469E-1,-3.881378174E-1,1.499847412E0
2.266662598E0,-4.621887207E-1,-3.870697021E-1,1.739517212E0
2.271636963E0,-5.761718750E-1,-2.432556152E-1,1.914230347E0
2.276611328E0,-7.146606445E-1,6.011962891E-3,2.051651001E0
2.281585694E0,-7.870941162E-1,3.628692627E-1,2.270019531E0
2.286529541E0,-7.104034424E-1,7.197418213E-1,2.564041138E0
2.291473389E0,-5.751190186E-1,1.006301880E0,2.856979370E0
2.296417237E0,-5.282440186E-1,1.212951660E0,2.973098755E0
2.301361084E0,-5.090637207E-1,1.290725708E0,2.944335938E0
2.306304932E0,-4.760437012E-1,1.302444458E0,2.868698120E0
2.311218262E0,-3.492736816E-1,1.217224121E0,2.734481812E0
2.316162110E0,-2.171783447E-1,9.349212646E-1,2.592803955E0
2.321075440E0,-1.639251709E-1,5.493011475E-1,2.552322388E0
2.326019287E0,-7.656860352E-2,2.073516846E-1,2.580017090E0
2.330963135E0,3.422546387E-2,-1.335449219E-1,2.636474609E0
2.335876465E0,1.577911377E-1,-3.668365479E-1,2.744064331E0
2.340820313E0,2.323608398E-1,-5.127716064E-1,2.887878418E0
2.345764161E0,2.909545898E-1,-5.734863281E-1,3.031692505E0
2.350677491E0,3.175811768E-1,-5.873413086E-1,3.184020996E0
2.355621338E0,2.962799072E-1,-6.800231934E-1,3.372573853E0
2.360534668E0,2.866821289E-1,-9.239654541E-1,3.613327026E0
2.365478516E0,2.451477051E-1,-1.253128052E0,3.855133057E0
2.370391846E0,2.014617920E-1,-1.586563110E0,4.063934326E0
2.375335694E0,1.833496094E-1,-1.719711304E0,4.206680298E0
2.380279541E0,1.354217529E-1,-1.417175293E0,4.273788452E0
2.385192871E0,6.192016602E-2,-7.151794434E-1,4.275924683E0
2.390167237E0,8.322143555E-2,-1.686859131E-1,4.250350952E0
2.394378662E0,1.109161377E-1,3.884429932E-1,4.229049683E0
2.398956299E0,1.237030029E-1,9.008331299E-1,4.172592163E0
2.403747559E0,9.068298340E-2,1.193786621E0,4.046890259E0
2.408630371E0,1.066589355E-1,1.427078247E0,3.961669922E0
2.413543702E0,9.494018555E-2,1.988464355E0,4.278045654E0
2.418487549E0,1.407470703E-1,2.662780762E0,5.219741821E0
2.423461914E0,2.760314941E-1,3.476638794E0,6.651458740E0
2.428436280E0,4.858856201E-1,4.130722046E0,7.722045898E0
2.433410645E0,5.977478027E-1,4.552566528E0,7.617660522E0
2.438385010E0,3.388824463E-1,5.248184204E0,6.619506836E0
2.443359375E0,-4.994201660E-2,5.704116821E0,5.119613647E0
2.448333741E0,-3.737792969E-1,5.671081543E0,3.456726074E0
2.453308106E0,-6.635284424E-1,5.394119263E0,1.978149414E0
2.458282471E0,-9.010772705E-1,4.877471924E0,8.042297363E-1
2.463256836E0,-1.060867310E0,4.167999268E0,-5.012512207E-2
2.468231202E0,-1.130111694E0,3.320053101E0,-6.594543457E-1
2.473205567E0,-1.105621338E0,2.418838501E0,-1.052536011E0
2.478179932E0,-9.916381836E-1,1.501647949E0,-1.259201050E0
2.483154297E0,-7.785797119E-1,5.173339844E-1,-1.322052002E0
2.488128662E0,-4.962768555E-1,-5.085144043E-1,-1.258132935E0
2.493103028E0,-2.246398926E-1,-1.445938110E0,-1.084487915E0
2.498077393E0,-1.052856445E-2,-2.196960449E0,-8.533325195E-1
2.503051758E0,1.386108398E-1,-2.686981201E0,-6.200408936E-1
2.508026123E0,2.344818115E-1,-2.886184692E0,-4.240264893E-1
2.513000489E0,2.792358398E-1,-2.776458740E0,-2.844848633E-1
2.517974854E0,2.909545898E-1,-2.395095825E0,-2.024536133E-1
2.522949219E0,3.229064941E-1,-1.833694458E0,-1.609039307E-1
2.527923584E0,3.995971680E-1,-1.212646484E0,-1.321411133E-1
2.532897950E0,5.072021484E-1,-6.192932129E-1,-1.065826416E-1
2.537872315E0,6.275787354E-1,-9.945678711E-2,-6.929016113E-2
2.542846680E0,7.436828613E-1,3.032226562E-1,-2.029418945E-2
2.547821045E0,8.267822266E-1,5.588836670E-1,4.469299316E-2
2.552795411E0,8.299713135E-1,6.281280518E-1,1.224517822E-1
2.557769776E0,7.692565918E-1,5.546264648E-1,1.970214844E-1
2.562744141E0,6.723175049E-1,4.395751953E-1,2.577362061E-1
2.567687989E0,5.551300049E-1,3.351745605E-1,2.928924561E-1
2.572631836E0,4.294281006E-1,2.520904541E-1,2.992858887E-1
2.577575684E0,3.197174072E-1,2.041473389E-1,2.715911865E-1
2.582489014E0,2.259674072E-1,1.924285889E-1,2.108764648E-1
2.587432862E0,1.439361572E-1,2.147979736E-1,1.384277344E-1
2.592376709E0,6.617736816E-2,2.361145020E-1,6.066894531E-2
2.597290039E0,-1.998901367E-3,2.478332520E-1,3.143310547E-3
2.602233887E0,-5.633544922E-2,2.467651367E-1,-1.283264160E-2
2.607147217E0,-9.574890137E-2,2.371673584E-1,1.593017578E-2
2.612091065E0,-1.149139404E-1,2.424926758E-1,6.492614746E-2
2.617034912E0,-1.138458252E-1,2.606048584E-1,9.582519531E-2
2.621948243E0,-1.031951904E-1,2.915039062E-1,1.096649170E-1
2.626892090E0,-9.042358398E-2,3.234558105E-1,1.192626953E-1
2.631835938E0,-8.296203613E-2,3.468933105E-1,1.224517822E-1
2.636749268E0,-7.763671875E-2,3.564758301E-1,1.235198975E-1
2.641693116E0,-7.550048828E-2,3.522186279E-1,1.235198975E-1
2.646606446E0,-7.017517090E-2,3.330535889E-1,1.235198975E-1
2.651550293E0,-6.271362305E-2,2.989654541E-1,1.181945801E-1
2.656463623E0,-5.099487305E-2,2.563476562E-1,1.149902344E-1
2.661407471E0,-3.076171875E-2,1.977539062E-1,1.086120605E-1
2.666381836E0,-5.203247070E-3,1.231842041E-1,9.901428223E-2
2.670593262E0,2.462768555E-2,3.370666504E-2,8.303833008E-2
2.675170899E0,5.659484863E-2,-6.536865234E-2,6.492614746E-2
2.679962159E0,8.747863770E-2,-1.740112305E-1,4.681396484E-2
2.684844971E0,1.130523682E-1,-2.784118652E-1,2.658081055E-2
2.689758301E0,1.322174072E-1,-3.710937500E-1,7.400512695E-3
2.694702149E0,1.439361572E-1,-4.488525391E-1,-7.507324219E-3
2.699676514E0,1.567230225E-1,-5.085144043E-1,-1.922607422E-2
2.704650879E0,1.673736572E-1,-5.330200195E-1,-2.455139160E-2
2.709625245E0,1.759033203E-1,-5.287475586E-1,-2.987670898E-2
2.714599610E0,1.790924072E-1,-5.031890869E-1,-3.201293945E-2
2.719573975E0,1.769714355E-1,-4.669647217E-1,-3.413391113E-2
2.724548340E0,1.684417725E-1,-4.296875000E-1,-3.201293945E-2
2.729522705E0,1.513977051E-1,-3.934631348E-1,-3.733825684E-2
2.734497071E0,1.332855225E-1,-3.561859131E-1,-3.947448730E-2
2.739471436E0,1.173095703E-1,-3.220977783E-1,-4.159545898E-2
2.744445801E0,1.002655029E-1,-2.922668457E-1,-4.159545898E-2
2.749420166E0,8.428955078E-2,-2.592468262E-1,-4.052734375E-2
2.754394532E0,7.363891602E-2,-2.294158936E-1,-3.627014160E-2
2.759368897E0,6.724548340E-2,-2.059783936E-1,-3.413391113E-2
2.764343262E0,5.871582031E-2,-1.889343262E-1,-3.308105469E-2
2.769317627E0,5.020141602E-2,-1.804046631E-1,-2.880859375E-2
2.774291993E0,4.380798340E-2,-1.761474609E-1,-2.348327637E-2
2.779266358E0,4.060363770E-2,-1.782836914E-1,-1.496887207E-2
2.784240723E0,3.955078125E-2,-1.889343262E-1,-1.071166992E-2
2.789215088E0,3.848266602E-2,-1.921234131E-1,-5.386352539E-3
2.794189453E0,3.741455078E-2,-1.974487305E-1,-3.250122070E-3
2.799163819E0,3.527832031E-2,-2.049102783E-1,-1.113891602E-3
2.804138184E0,2.890014648E-2,-2.102355957E-1,-4.577636719E-5
2.809112549E0,2.462768555E-2,-2.155609131E-1,-4.577636719E-5
2.814086914E0,1.930236816E-2,-2.219543457E-1,3.143310547E-3
2.819061280E0,9.719848633E-3,-2.262115479E-1,1.007080078E-3
2.824035645E0,-3.067016602E-3,-2.230224609E-1,-4.577636719E-5
2.829010010E0,-1.371765137E-2,-2.198181152E-1,-4.577636719E-5
2.833984375E0,-2.011108398E-2,-2.102355957E-1,-1.113891602E-3
2.838958741E0,-2.862548828E-2,-1.931915283E-1,-3.250122070E-3
2.843902588E0,-3.182983398E-2,-1.782836914E-1,-1.113891602E-3
2.848846436E0,-3.076171875E-2,-1.601715088E-1,-4.577636719E-5
2.853759766E0,-2.757263184E-2,-1.356658936E-1,-2.182006836E-3
2.858703614E0,-2.117919922E-2,-1.175537109E-1,-1.113891602E-3
2.863647461E0,-1.264953613E-2,-1.037139893E-1,-4.577636719E-5
2.868560791E0,-6.256103516E-3,-9.306335449E-2,1.007080078E-3
2.873504639E0,-4.135131836E-3,-8.453369141E-2,2.075195312E-3
2.878417969E0,-3.067016602E-3,-8.346557617E-2,3.143310547E-3
2.883361817E0,-4.135131836E-3,-8.879089355E-2,6.332397461E-3
2.888305664E0,-4.135131836E-3,-9.413146973E-2,3.143310547E-3
2.893218995E0,-3.067016602E-3,-1.015777588E-1,2.075195312E-3
2.898162842E0,-1.998901367E-3,-1.079711914E-1,4.211425781E-3
2.903106690E0,-4.135131836E-3,-1.175537109E-1,5.279541016E-3
2.908020020E0,-1.998901367E-3,-1.292724609E-1,4.211425781E-3
2.912963868E0,-1.998901367E-3,-1.324768066E-1,6.332397461E-3
2.917907715E0,-3.067016602E-3,-1.324768066E-1,1.060485840E-2
2.922821045E0,-3.067016602E-3,-1.303405762E-1,1.167297363E-2
2.927764893E0,-5.203247070E-3,-1.250152588E-1,1.486206055E-2
2.932678223E0,-8.392333984E-3,-1.186218262E-1,2.018737793E-2
2.937622071E0,-1.264953613E-2,-1.111755371E-1,2.232360840E-2
2.942596436E0,-1.797485352E-2,-9.732055664E-2,2.232360840E-2
2.946807862E0,-2.011108398E-2,-8.134460449E-2,2.337646484E-2
2.951385498E0,-1.904296875E-2,-6.642150879E-2,2.551269531E-2
2.956176758E0,-1.690673828E-2,-5.151367188E-2,2.444458008E-2
2.961059571E0,-1.264953613E-2,-3.979492188E-2,2.018737793E-2
2.965972901E0,-8.392333984E-3,-3.446960449E-2,2.018737793E-2
2.970916748E0,-6.256103516E-3,-3.021240234E-2,1.805114746E-2
2.975891114E0,-6.256103516E-3,-3.340148926E-2,1.593017578E-2
2.980865479E0,-4.135131836E-3,-4.298400879E-2,1.272583008E-2
2.985839844E0,1.373291016E-4,-5.151367188E-2,1.060485840E-2
2.990814209E0,2.258300781E-3,-5.683898926E-2,1.060485840E-2
2.995788575E0,5.462646484E-3,-6.109619141E-2,1.060485840E-2
3.000762940E0,1.397705078E-2,-7.069396973E-2,5.279541016E-3
3.005737305E0,2.037048340E-2,-8.453369141E-2,3.143310547E-3
3.010711670E0,2.995300293E-2,-1.026458740E-1,5.279541016E-3
3.015686036E0,4.167175293E-2,-1.175537109E-1,8.468627930E-3
3.020660401E0,5.126953125E-2,-1.271514893E-1,1.060485840E-2
3.025634766E0,6.617736816E-2,-1.282196045E-1,1.486206055E-2
3.030609131E0,8.003234863E-2,-1.207580566E-1,1.805114746E-2
3.035583496E0,9.600830078E-2,-1.005096436E-1,2.125549316E-2
3.040557862E0,1.109161377E-1,-7.174682617E-2,2.764892578E-2
3.045532227E0,1.226348877E-1,-4.193115234E-2,3.404235840E-2
3.050506592E0,1.300964355E-1,-7.843017578E-3,3.723144531E-2
3.055480957E0,1.332855225E-1,2.838134766E-2,4.042053223E-2
3.060455323E0,1.343536377E-1,6.672668457E-2,4.255676270E-2
3.065429688E0,1.343536377E-1,1.018829346E-1,4.255676270E-2
3.070404053E0,1.332855225E-1,1.338500977E-1,4.042053223E-2
3.075378418E0,1.237030029E-1,1.679382324E-1,3.509521484E-2
3.080352784E0,1.141204834E-1,1.924285889E-1,3.190612793E-2
3.085327149E0,1.002655029E-1,2.137451172E-1,2.871704102E-2
3.090301514E0,8.428955078E-2,2.286529541E-1,2.125549316E-2
3.095275879E0,6.404113770E-2,2.361145020E-1,1.593017578E-2
3.100250245E0,4.699707031E-2,2.403717041E-1,1.593017578E-2
3.105224610E0,2.995300293E-2,2.403717041E-1,1.486206055E-2
3.110198975E0,1.504516602E-2,2.350463867E-1,1.593017578E-2
3.115142823E0,7.583618164E-3,2.265167236E-1,1.593017578E-2
3.120086670E0,5.462646484E-3,2.180023193E-1,1.593017578E-2
3.125030518E0,1.078796387E-2,2.094726562E-1,1.805114746E-2
3.129974366E0,2.676391602E-2,1.998901367E-1,2.018737793E-2
3.134918213E0,5.126953125E-2,1.956329346E-1,2.018737793E-2
3.139831543E0,8.535766602E-2,1.924285889E-1,2.125549316E-2
3.144775391E0,1.215667725E-1,1.892395020E-1,1.699829102E-2
3.149719239E0,1.620483398E-1,1.849822998E-1,1.060485840E-2
3.154632569E0,1.993408203E-1,1.764526367E-1,4.211425781E-3
3.159576416E0,2.312927246E-1,1.689910889E-1,-2.182006836E-3
3.164489746E0,2.579193115E-1,1.647338867E-1,-1.071166992E-2
3.169433594E0,2.749633789E-1,1.625976562E-1,-1.815795898E-2
3.174377442E0,2.845611572E-1,1.647338867E-1,-2.243041992E-2
3.179290772E0,2.888183594E-1,1.764526367E-1,-2.880859375E-2
3.184234620E0,2.888183594E-1,2.009582520E-1,-3.627014160E-2
3.189178467E0,2.781677246E-1,2.339782715E-1,-3.947448730E-2
3.194091797E0,2.621917725E-1,2.755279541E-1,-4.266357422E-2
3.199035645E0,2.408752441E-1,3.181304932E-1,-4.159545898E-2
3.203948975E0,2.163848877E-1,3.628692627E-1,-3.947448730E-2
3.208892823E0,1.940155029E-1,4.097442627E-1,-3.627014160E-2
3.213836670E0,1.684417725E-1,4.566192627E-1,-3.627014160E-2
3.218811036E0,1.450042725E-1,4.885711670E-1,-3.840637207E-2
3.223022461E0,1.258392334E-1,5.205383301E-1,-3.520202637E-2
3.227600098E0,1.119842529E-1,5.439758301E-1,-3.627014160E-2
3.232391358E0,9.919738770E-2,5.567474365E-1,-3.733825684E-2
3.237274170E0,9.707641602E-2,5.546264648E-1,-3.733825684E-2
3.242187500E0,9.919738770E-2,5.429077148E-1,-3.520202637E-2
3.247131348E0,1.151733398E-1,5.184020996E-1,-3.308105469E-2
3.252105713E0,1.428833008E-1,4.811248779E-1,-3.201293945E-2
3.257080078E0,1.790924072E-1,4.374389648E-1,-2.987670898E-2
3.262054444E0,2.259674072E-1,3.916320801E-1,-2.668762207E-2
3.267028809E0,2.802886963E-1,3.351745605E-1,-2.880859375E-2
3.272003174E0,3.378143311E-1,2.776489258E-1,-2.561950684E-2
3.276977539E0,3.995971680E-1,2.222595215E-1,-2.348327637E-2
3.281951905E0,4.581909180E-1,1.743164062E-1,-1.922607422E-2
3.286926270E0,5.103912354E-1,1.359710693E-1,-1.708984375E-2
3.291900635E0,5.583343506E-1,1.104125977E-1,-1.603698730E-2
3.296875000E0,5.966796875E-1,9.548950195E-2,-1.815795898E-2
3.301849366E0,6.233062744E-1,8.270263672E-2,-1.815795898E-2
3.306823731E0,6.392822266E-1,7.312011719E-2,-1.815795898E-2
3.311798096E0,6.478118896E-1,6.779479980E-2,-2.348327637E-2
3.316772461E0,6.467437744E-1,6.565856934E-2,-2.561950684E-2
3.321746827E0,6.467437744E-1,6.993103027E-2,-2.775573730E-2
3.326721192E0,6.435546875E-1,8.058166504E-2,-3.308105469E-2
3.331695557E0,6.371612549E-1,9.762573242E-2,-4.159545898E-2
3.336669922E0,6.382293701E-1,1.199951172E-1,-4.798889160E-2
3.341644287E0,6.488800049E-1,1.434326172E-1,-5.545043945E-2
3.346618653E0,6.680450439E-1,1.615447998E-1,-6.396484375E-2
3.351593018E0,6.936187744E-1,1.732635498E-1,-6.929016113E-2
3.356567383E0,7.202453613E-1,1.764526367E-1,-7.461547852E-2
3.361541748E0,7.426147461E-1,1.721954346E-1,-7.994079590E-2
3.366516114E0,7.639312744E-1,1.519470215E-1,-8.847045898E-2
3.371490479E0,7.799072266E-1,1.253204346E-1,-9.165954590E-2
3.376464844E0,7.926940918E-1,8.590698242E-2,-1.001892090E-1
3.381439209E0,8.044128418E-1,3.691101074E-2,-1.087036133E-1
3.386413575E0,8.118591309E-1,-1.210021973E-2,-1.161651611E-1
3.391357422E0,8.097381592E-1,-3.979492188E-2,-1.417388916E-1
3.396301270E0,7.809753418E-1,-1.210021973E-2,-1.811523438E-1
3.401245118E0,7.170562744E-1,5.288696289E-2,-2.365417480E-1
3.406188965E0,6.414184570E-1,8.377075195E-2,-3.047180176E-1
3.411102295E0,5.860290527E-1,5.395507812E-2,-3.782196045E-1
3.416046143E0,5.668487549E-1,-3.340148926E-2,-4.496002197E-1
3.420989991E0,5.700531006E-1,-1.452636719E-1,-5.188293457E-1
3.425903321E0,5.924224854E-1,-2.496490479E-1,-5.923461914E-1
3.430847168E0,6.339569092E-1,-3.135681152E-1,-6.679687500E-1
3.435791016E0,6.712493896E-1,-3.348693848E-1,-7.521362305E-1
3.440704346E0,6.989440918E-1,-3.199615479E-1,-8.298950195E-1
3.445648194E0,7.298431396E-1,-2.848052979E-1,-8.948822021E-1
3.450561524E0,7.724456787E-1,-2.453918457E-1,-9.619903564E-1
3.455505371E0,8.139953613E-1,-1.516418457E-1,-1.035491943E0
3.460418702E0,8.235778809E-1,-6.642150879E-2,-1.088760376E0
3.465362549E0,8.161163330E-1,-4.638671875E-3,-1.095138550E0
3.470306397E0,7.863006592E-1,8.164978027E-2,-1.067443848E0
3.475219727E0,7.234497070E-1,1.871032715E-1,-1.038681030E0
3.480163575E0,6.329040527E-1,3.415679932E-1,-9.928741455E-1
3.485107422E0,5.743103027E-1,5.247955322E-1,-9.555969238E-1
3.490020752E0,5.753784180E-1,7.325286865E-1,-9.108581543E-1
3.494964600E0,5.902862549E-1,9.200134277E-1,-8.458709717E-1
3.499938965E0,5.774993896E-1,1.073410034E0,-7.617187500E-1
3.504119873E0,5.551300049E-1,1.170349121E0,-6.871490479E-1
3.508697510E0,5.231781006E-1,1.223602295E0,-6.040649414E-1
3.513488770E0,4.858856201E-1,1.232131958E0,-5.156402588E-1
3.518371582E0,4.475402832E-1,1.192718506E0,-4.336090088E-1
3.523284912E0,4.059906006E-1,1.103240967E0,-3.633117676E-1
3.528228760E0,3.612518311E-1,9.924468994E-1,-3.015289307E-1
3.533203125E0,3.090515137E-1,8.827209473E-1,-2.535858154E-1
3.538177491E0,2.589874268E-1,7.666168213E-1,-2.152404785E-1
3.543151856E0,2.142486572E-1,6.622161865E-1,-1.918029785E-1
3.548126221E0,1.726989746E-1,5.769958496E-1,-1.864776611E-1
3.553100586E0,1.396789551E-1,5.088195801E-1,-1.960601807E-1
3.558074952E0,1.215667725E-1,4.608764648E-1,-2.141723633E-1
3.563049317E0,1.173095703E-1,4.278564453E-1,-2.290802002E-1
3.568023682E0,8.215332031E-2,3.788604736E-1,-2.589111328E-1
3.572998047E0,4.806518555E-2,3.394317627E-1,-2.908630371E-1
3.577972412E0,2.995300293E-2,3.213348389E-1,-3.153686523E-1
3.582946778E0,1.823425293E-2,3.170623779E-1,-3.302917480E-1
3.587921143E0,1.290893555E-2,3.319854736E-1,-3.430633545E-1
3.592895508E0,1.185607910E-2,3.596801758E-1,-3.526611328E-1
3.597869873E0,9.719848633E-3,3.916320801E-1,-3.697052002E-1
3.602844239E0,3.326416016E-3,4.225311279E-1,-3.856811523E-1
3.607818604E0,-4.135131836E-3,4.480895996E-1,-3.984680176E-1
3.612792969E0,-5.203247070E-3,4.725952148E-1,-4.080505371E-1
3.617767334E0,-4.135131836E-3,4.971008301E-1,-4.218902588E-1
3.622741700E0,1.190185547E-3,5.279846191E-1,-4.368133545E-1
3.627716065E0,1.397705078E-2,5.578155518E-1,-4.463958740E-1
3.632690430E0,2.462768555E-2,5.887145996E-1,-4.432067871E-1
3.637664795E0,3.102111816E-2,6.164093018E-1,-4.400024414E-1
3.642639161E0,3.102111816E-2,6.302490234E-1,-4.325561523E-1
3.647613526E0,3.315734863E-2,6.323852539E-1,-4.218902588E-1
3.652587891E0,3.741455078E-2,6.259918213E-1,-4.101867676E-1
3.657562256E0,3.315734863E-2,6.174774170E-1,-3.899383545E-1
3.662536621E0,3.315734863E-2,6.100158691E-1,-3.675689697E-1
3.667510987E0,3.527832031E-2,6.078796387E-1,-3.494567871E-1
3.672485352E0,3.955078125E-2,6.036224365E-1,-3.281555176E-1
3.677429200E0,5.232238770E-2,5.780639648E-1,-3.004608154E-1
3.682373047E0,6.617736816E-2,5.429077148E-1,-2.780914307E-1
3.687316895E0,7.789611816E-2,5.066833496E-1,-2.631683350E-1
3.692260743E0,8.747863770E-2,4.843139648E-1,-2.557220459E-1
3.697174073E0,9.919738770E-2,4.725952148E-1,-2.514495850E-1
3.702117920E0,1.098480225E-1,4.672698975E-1,-2.482604980E-1
3.707061768E0,1.194458008E-1,4.672698975E-1,-2.535858154E-1
3.711975098E0,1.343536377E-1,4.544830322E-1,-2.482604980E-1
3.716918946E0,1.513977051E-1,4.342498779E-1,-2.429351807E-1
3.721832276E0,1.663055420E-1,4.193267822E-1,-2.429351807E-1
3.726776123E0,1.737670898E-1,4.129486084E-1,-2.407989502E-1
3.731719971E0,1.790924072E-1,4.086761475E-1,-2.376098633E-1
3.736633301E0,1.833496094E-1,4.001617432E-1,-2.280120850E-1
3.741577149E0,1.865539551E-1,3.916320801E-1,-2.194976807E-1
3.746490479E0,1.897430420E-1,3.852386475E-1,-2.109680176E-1
3.751434327E0,1.929473877E-1,3.745880127E-1,-2.013854980E-1
3.756378174E0,1.950683594E-1,3.703308105E-1,-1.896667480E-1
3.761291504E0,1.993408203E-1,3.756561279E-1,-1.736907959E-1
3.766235352E0,2.003936768E-1,3.863067627E-1,-1.619720459E-1
3.771179200E0,1.993408203E-1,4.033508301E-1,-1.449279785E-1
3.776153565E0,1.972045898E-1,4.225311279E-1,-1.257476807E-1
3.780334473E0,1.961364746E-1,4.491577148E-1,-1.055145264E-1
3.784912110E0,1.993408203E-1,4.917755127E-1,-9.060668945E-2
3.789703370E0,2.035980225E-1,5.386505127E-1,-7.356262207E-2
3.794586182E0,2.110595703E-1,5.876464844E-1,-5.651855469E-2
3.799499512E0,2.227783203E-1,6.430358887E-1,-3.840637207E-2
3.804443360E0,2.312927246E-1,6.909790039E-1,-1.708984375E-2
3.809417725E0,2.376861572E-1,7.325286865E-1,2.075195312E-3
3.814392090E0,2.398223877E-1,7.698059082E-1,1.805114746E-2
3.819366455E0,2.334289551E-1,7.996368408E-1,3.404235840E-2
3.824340821E0,2.185058594E-1,8.220062256E-1,5.534362793E-2
3.829315186E0,1.929473877E-1,8.241271973E-1,7.557678223E-2
3.834289551E0,1.588592529E-1,7.975006104E-1,9.368896484E-2
3.839263916E0,1.162414551E-1,7.399749756E-1,1.128692627E-1
3.844238282E0,7.363891602E-2,6.728668213E-1,1.192626953E-1
3.849212647E0,3.422546387E-2,6.121520996E-1,1.213836670E-1
3.854187012E0,-1.998901367E-3,5.610198975E-1,1.139373779E-1
3.859161377E0,-3.501892090E-2,5.226593018E-1,1.043395996E-1
3.864135743E0,-6.803894043E-2,5.045471191E-1,9.155273438E-2
3.869110108E0,-1.021423340E-1,5.120086670E-1,7.238769531E-2
3.874084473E0,-1.362304688E-1,5.322570801E-1,5.746459961E-2
3.879058838E0,-1.735076904E-1,5.535583496E-1,4.148864746E-2
3.884033203E0,-2.044067383E-1,5.791168213E-1,3.190612793E-2
3.889007569E0,-2.321014404E-1,6.164093018E-1,2.976989746E-2
3.893981934E0,-2.608642578E-1,6.515655518E-1,2.871704102E-2
3.898956299E0,-2.843017578E-1,6.739349365E-1,2.764892578E-2
3.903930664E0,-3.013458252E-1,6.941680908E-1,3.404235840E-2
3.908905030E0,-3.173217773E-1,7.069549561E-1,4.469299316E-2
3.913879395E0,-3.396911621E-1,7.133483887E-1,4.895019531E-2
3.918853760E0,-3.631286621E-1,7.058868408E-1,5.746459961E-2
3.923828125E0,-3.854980469E-1,6.941680908E-1,6.918334961E-2
3.928802491E0,-4.131927490E-1,6.760559082E-1,7.878112793E-2
3.933776856E0,-4.440917969E-1,6.568908691E-1,8.836364746E-2
3.938751221E0,-4.728393555E-1,6.472930908E-1,9.368896484E-2
3.943725586E0,-4.994812012E-1,6.536865234E-1,9.368896484E-2
3.948669434E0,-5.282440186E-1,6.547546387E-1,7.345581055E-2
3.953643799E0,-5.495452881E-1,6.387786865E-1,7.557678223E-2
3.958587647E0,-5.655212402E-1,5.919036865E-1,1.139373779E-1
3.963531495E0,-5.857696533E-1,5.066833496E-1,1.458892822E-1
3.968444825E0,-5.985412598E-1,3.927001953E-1,2.002105713E-1
3.973388672E0,-6.145324707E-1,3.064117432E-1,2.928924561E-1
3.978332520E0,-6.518096924E-1,2.872467041E-1,4.154052734E-1
3.983245850E0,-6.891021729E-1,3.415679932E-1,5.485534668E-1
3.988189698E0,-6.582031250E-1,4.459686279E-1,6.305847168E-1
3.993133545E0,-5.239868164E-1,5.237274170E-1,6.231231689E-1
3.998046875E0,-3.013458252E-1,5.439758301E-1,5.421600342E-1
4.002990723E0,-2.862548828E-2,5.098876953E-1,4.249877930E-1
4.007934571E0,2.802886963E-1,3.863067627E-1,2.790527344E-1
4.012847901E0,5.838928223E-1,1.594085693E-1,1.160583496E-1
4.017791748E0,8.299713135E-1,-1.420593262E-1,-6.822204590E-2
4.022705078E0,1.016387939E0,-4.136962891E-1,-2.482604980E-1
4.027648926E0,1.134643555E0,-5.575103760E-1,-3.867492676E-1
4.032592774E0,1.164459229E0,-5.639038086E-1,-4.421386719E-1
4.037506104E0,1.112274170E0,-4.967956543E-1,-4.250946045E-1
4.042449952E0,1.014266968E0,-4.414062500E-1,-3.718261719E-1
4.047363282E0,8.811035156E-1,-3.881378174E-1,-3.015289307E-1
4.052337647E0,7.266387939E-1,-2.880096436E-1,-2.450561523E-1
4.056549073E0,5.466156006E-1,-1.378021240E-1,-2.301483154E-1
4.061126709E0,3.207702637E-1,5.075073242E-2,-2.344055176E-1
4.065917969E0,7.896423340E-2,2.563476562E-1,-2.418670654E-1
4.070800782E0,-1.575317383E-1,4.374389648E-1,-2.376098633E-1
4.075714112E0,-3.908233643E-1,5.450286865E-1,-1.981964111E-1
4.080657959E0,-6.006774902E-1,5.706024170E-1,-1.246948242E-1
4.085632325E0,-7.870941162E-1,4.907073975E-1,-1.283264160E-2
4.090606690E0,-9.468841553E-1,3.096160889E-1,1.256561279E-1
4.095581055E0,-1.085372925E0,4.968261719E-2,2.779846191E-1
4.100555420E0,-1.199356079E0,-2.698974609E-1,4.494934082E-1
4.105529786E0,-1.268600464E0,-6.171722412E-1,6.348419189E-1
4.110504151E0,-1.293106079E0,-9.516601562E-1,8.170013428E-1
4.115478516E0,-1.297363281E0,-1.211593628E0,9.821166992E-1
4.120452881E0,-1.290969849E0,-1.344741821E0,1.120605469E0
4.125427246E0,-1.274993896E0,-1.371368408E0,1.220733643E0
4.130401612E0,-1.261138916E0,-1.329833984E0,1.277206421E0
4.135375977E0,-1.262207031E0,-1.252059937E0,1.326202393E0
4.140350342E0,-1.270736694E0,-1.173233032E0,1.399703979E0
4.145324707E0,-1.276062012E0,-1.141281128E0,1.485992432E0
4.150299073E0,-1.261138916E0,-1.147674561E0,1.557357788E0
4.155273438E0,-1.197219849E0,-1.179626465E0,1.599975586E0
4.160247803E0,-1.089630127E0,-1.187088013E0,1.573348999E0
4.165222168E0,-9.596710205E-1,-1.134887695E0,1.475341797E0
4.170196534E0,-8.158569336E-1,-1.039016724E0,1.347503662E0
4.175170899E0,-6.816406250E-1,-8.739013672E-1,1.214355469E0
4.180145264E0,-5.612640381E-1,-6.182403564E-1,1.069473267E0
4.185119629E0,-4.611358643E-1,-3.029174805E-1,9.096832275E-1
4.190093995E0,-3.822937012E-1,3.051757812E-2,7.562866211E-1
4.195068360E0,-3.332977295E-1,3.362426758E-1,6.241912842E-1
4.200042725E0,-3.141174316E-1,5.961608887E-1,5.048828125E-1
4.205017090E0,-3.311614990E-1,8.049621582E-1,3.972930908E-1
4.209991455E0,-3.652496338E-1,9.530334473E-1,3.003540039E-1
4.214965821E0,-3.929443359E-1,1.029724121E0,2.044830322E-1
4.219940186E0,-4.036102295E-1,1.019073486E0,9.475708008E-2
4.224914551E0,-4.036102295E-1,9.455718994E-1,-1.283264160E-2
4.229858399E0,-4.057312012E-1,8.177490234E-1,-9.593200684E-2
4.234802246E0,-4.100036621E-1,6.270599365E-1,-1.534576416E-1
4.239746094E0,-4.142608643E-1,3.767242432E-1,-1.949920654E-1
4.244659424E0,-4.121246338E-1,8.909606934E-2,-2.258911133E-1
4.249603272E0,-4.100036621E-1,-2.081146240E-1,-2.589111328E-1
4.254547120E0,-4.174499512E-1,-5.053100586E-1,-3.025817871E-1
4.259460450E0,-4.174499512E-1,-7.556457520E-1,-3.324127197E-1
4.264404297E0,-4.153289795E-1,-9.548645020E-1,-3.515930176E-1
4.269317627E0,-4.078674316E-1,-1.105056763E0,-3.654327393E-1
4.274261475E0,-3.972167969E-1,-1.207321167E0,-3.739624023E-1
4.279205323E0,-3.812408447E-1,-1.249938965E0,-3.750305176E-1
4.284118653E0,-3.620605469E-1,-1.225433350E0,-3.665008545E-1
4.289062500E0,-3.386230469E-1,-1.150863647E0,-3.537139893E-1
4.294006348E0,-3.034667969E-1,-1.049667358E0,-3.430633545E-1
4.298919678E0,-2.587280273E-1,-9.324798584E-1,-3.334808350E-1
4.303863526E0,-2.075958252E-1,-8.195648193E-1,-3.164367676E-1
4.308776856E0,-1.553955078E-1,-7.077178955E-1,-2.866058350E-1
4.313720703E0,-1.127929688E-1,-6.182403564E-1,-2.482604980E-1
4.318664551E0,-8.082580566E-2,-5.649719238E-1,-2.045898438E-1
4.323577881E0,-6.166076660E-2,-5.521850586E-1,-1.641082764E-1
4.328552246E0,-5.099487305E-2,-5.724334717E-1,-1.300201416E-1
4.332733155E0,-4.887390137E-2,-6.182403564E-1,-1.065826416E-1
4.337310791E0,-4.780578613E-2,-6.587066650E-1,-8.421325684E-2
4.342102051E0,-3.608703613E-2,-6.778869629E-1,-5.863952637E-2
4.346984864E0,-2.757263184E-2,-6.906738281E-1,-4.479980469E-2
4.351898194E0,-2.224731445E-2,-6.970672607E-1,-3.413391113E-2
4.356842041E0,-2.117919922E-2,-6.906738281E-1,-1.708984375E-2
4.361816407E0,-4.034423828E-2,-6.704254150E-1,-4.318237305E-3
4.366790772E0,-8.082580566E-2,-6.448669434E-1,-1.113891602E-3
4.371765137E0,-1.500701904E-1,-6.171722412E-1,-9.643554688E-3
4.376739502E0,-2.502136230E-1,-5.926666260E-1,-3.413391113E-2
4.381713868E0,-3.748474121E-1,-5.489959717E-1,-5.863952637E-2
4.386688233E0,-4.994812012E-1,-4.765472412E-1,-7.994079590E-2
4.391662598E0,-6.209259033E-1,-3.796081543E-1,-9.593200684E-2
4.396636963E0,-7.551422119E-1,-2.880096436E-1,-1.172332764E-1
4.401611328E0,-8.968200684E-1,-2.251586914E-1,-1.438598633E-1
4.406585694E0,-1.041702271E0,-1.953277588E-1,-1.715545654E-1
4.411560059E0,-1.183380127E0,-1.995849609E-1,-2.003173828E-1
4.416534424E0,-1.305877686E0,-2.208862305E-1,-2.131042480E-1
4.421508789E0,-1.397491455E0,-2.368621826E-1,-1.992645264E-1
4.426483155E0,-1.468872070E0,-2.762908936E-1,-1.811523438E-1
4.431457520E0,-1.524261475E0,-3.444671631E-1,-1.577148438E-1
4.436431885E0,-1.578598022E0,-4.605712891E-1,-1.523895264E-1
4.441406250E0,-1.631851196E0,-6.139678955E-1,-1.587829590E-1
4.446380616E0,-1.659545898E0,-7.428741455E-1,-1.502532959E-1
4.451354981E0,-1.651031494E0,-8.217010498E-1,-1.246948242E-1
4.456329346E0,-1.631851196E0,-8.770904541E-1,-1.150970459E-1
4.461303711E0,-1.611618042E0,-9.250335693E-1,-1.289520264E-1
4.466278077E0,-1.593505859E0,-9.633789062E-1,-1.491851807E-1
4.471252442E0,-1.578598022E0,-9.932098389E-1,-1.705017090E-1
4.476226807E0,-1.559417725E0,-1.016647339E0,-1.790161133E-1
4.481201172E0,-1.539169312E0,-1.027297974E0,-1.736907959E-1
4.486175537E0,-1.515747070E0,-1.023040771E0,-1.577148438E-1
4.491149903E0,-1.483779907E0,-1.011322021E0,-1.438598633E-1
4.496124268E0,-1.451828003E0,-9.953308105E-1,-1.332092285E-1
4.501098633E0,-1.423065186E0,-9.633789062E-1,-1.183013916E-1
4.506042481E0,-1.397491455E0,-9.143829346E-1,-9.805297852E-2
4.510986328E0,-1.375122070E0,-8.568572998E-1,-7.035827637E-2
4.515930176E0,-1.351684570E0,-7.886810303E-1,-3.627014160E-2
4.520874024E0,-1.322921753E0,-7.194366455E-1,-4.577636719E-5
4.525817871E0,-1.289901733E0,-6.608428955E-1,4.042053223E-2
4.530731202E0,-1.252624512E0,-6.203613281E-1,8.197021484E-2
4.535675049E0,-1.205749512E0,-5.809478760E-1,1.224517822E-1
4.540618897E0,-1.155685425E0,-5.404663086E-1,1.618652344E-1
4.545532227E0,-1.106674194E0,-5.063781738E-1,2.002105713E-1
4.550476075E0,-1.058746338E0,-4.829406738E-1,2.375030518E-1
4.555389405E0,-1.019332886E0,-4.584503174E-1,2.811737061E-1
4.560333252E0,-9.820404053E-1,-4.296875000E-1,3.237915039E-1
4.565277100E0,-9.490203857E-1,-3.934631348E-1,3.589477539E-1
4.570190430E0,-9.223937988E-1,-3.625640869E-1,3.972930908E-1
4.575134278E0,-9.021453857E-1,-3.380737305E-1,4.377746582E-1
4.580078125E0,-8.819122314E-1,-3.284759521E-1,4.697265625E-1
4.584991455E0,-8.605957031E-1,-3.380737305E-1,4.953002930E-1
4.589935303E0,-8.382263184E-1,-3.764190674E-1,5.166015625E-1
4.594848633E0,-8.105316162E-1,-4.307403564E-1,5.357818604E-1
4.599792481E0,-7.785797119E-1,-5.042572021E-1,5.475006104E-1
4.604766846E0,-7.391662598E-1,-5.862731934E-1,5.645446777E-1
4.608947754E0,-6.954803467E-1,-6.672363281E-1,5.773162842E-1
4.613525391E0,-6.507415771E-1,-7.428741455E-1,5.794525146E-1
4.618316651E0,-6.092071533E-1,-8.163757324E-1,5.805206299E-1
4.623199463E0,-5.687255859E-1,-8.739013672E-1,5.762481689E-1
4.628112793E0,-5.303649902E-1,-9.197082520E-1,5.666656494E-1
4.633056641E0,-4.866943359E-1,-9.463348389E-1,5.506896973E-1
4.638031006E0,-4.462127686E-1,-9.601898193E-1,5.293884277E-1
4.643005371E0,-4.195861816E-1,-9.750976562E-1,4.995574951E-1
4.647979737E0,-4.046630859E-1,-9.953308105E-1,4.537506104E-1
4.652954102E0,-4.057312012E-1,-1.021972656E0,3.940887451E-1
4.657928467E0,-4.206542969E-1,-1.061386108E0,3.323059082E-1
4.662902832E0,-4.334259033E-1,-1.090148926E0,2.822418213E-1
4.667877198E0,-4.376983643E-1,-1.086944580E0,2.449645996E-1
4.672851563E0,-4.323730469E-1,-1.048599243E0,2.204589844E-1
4.677825928E0,-4.217071533E-1,-9.814910889E-1,2.055511475E-1
4.682800293E0,-4.089355469E-1,-9.005279541E-1,1.948852539E-1
4.687774659E0,-3.908233643E-1,-8.217010498E-1,1.906280518E-1
4.692749024E0,-3.684539795E-1,-7.599182129E-1,1.853027344E-1
4.697723389E0,-3.439483643E-1,-7.077178955E-1,1.842346191E-1
4.702697754E0,-3.183898926E-1,-6.789550781E-1,1.842346191E-1
4.707672120E0,-2.992095947E-1,-6.683044434E-1,1.831665039E-1
4.712646485E0,-2.810974121E-1,-6.714935303E-1,1.778411865E-1
4.717620850E0,-2.672576904E-1,-6.768188477E-1,1.714477539E-1
4.722595215E0,-2.384948730E-1,-6.885375977E-1,1.544036865E-1
4.727569580E0,-1.926879883E-1,-6.959991455E-1,1.373596191E-1
4.732543946E0,-1.010742188E-1,-6.693725586E-1,1.384277344E-1
4.737518311E0,3.315734863E-2,-5.948028564E-1,1.544036865E-1
4.742492676E0,1.865539551E-1,-4.722900391E-1,1.501464844E-1
4.747467041E0,3.229064941E-1,-3.220977783E-1,1.149902344E-1
4.752441407E0,4.358215332E-1,-1.378021240E-1,7.771301270E-2
4.757415772E0,5.487365723E-1,3.051757812E-2,2.976989746E-2
4.762390137E0,6.925506592E-1,1.370391846E-1,-2.880859375E-2
4.767364502E0,8.779144287E-1,2.062835693E-1,-6.077575684E-2
4.772338868E0,1.090957642E0,2.286529541E-1,-9.805297852E-2
4.777313233E0,1.280578613E0,2.574157715E-1,-1.449279785E-1
4.782257080E0,1.416931152E0,3.447723389E-1,-2.067108154E-1
4.787200928E0,1.490432739E0,5.247955322E-1,-2.951354980E-1
4.792144776E0,1.519195557E0,7.857818604E-1,-4.123077393E-1
4.797088623E0,1.511734009E0,1.108566284E0,-5.433349609E-1
4.802001953E0,1.480850220E0,1.440917969E0,-6.722412109E-1
4.806945801E0,1.448883057E0,1.753051758E0,-7.393493652E-1
4.811889649E0,1.460601807E0,1.961837769E0,-7.553253174E-1
4.816802979E0,1.547958374E0,1.953308105E0,-8.053894043E-1
4.821746827E0,1.696029663E0,1.742385864E0,-8.959350586E-1
4.826690674E0,1.879257202E0,1.452636719E0,-9.534606934E-1
4.831604004E0,2.063552856E0,1.170349121E0,-9.662475586E-1
4.836547852E0,2.227600098E0,9.136199951E-1,-9.609222412E-1
4.841461182E0,2.378860474E0,6.686096191E-1,-9.449462891E-1
4.846405030E0,2.501373291E0,4.704589844E-1,-8.938140869E-1
4.851348877E0,2.606826782E0,3.149414062E-1,-8.096466064E-1
4.856262207E0,2.710159302E0,1.998901367E-1,-6.924743652E-1
4.861206055E0,2.799652100E0,1.253204346E-1,-5.870056152E-1
4.866119385E0,2.884872437E0,5.714416504E-2,-5.081787109E-1
4.871063233E0,2.972213745E0,-9.963989258E-3,-4.613189697E-1
4.876007080E0,3.053176880E0,-7.495117188E-2,-4.197692871E-1
4.880981446E0,3.102188110E0,-1.537780762E-1,-3.803558350E-1
4.885162354E0,3.098983765E0,-2.422027588E-1,-3.611755371E-1
4.889739991E0,3.055313110E0,-3.806762695E-1,-3.526611328E-1
4.894531250E0,2.964767456E0,-6.043853760E-1,-3.366699219E-1
4.899414063E0,2.837997437E0,-8.866882324E-1,-3.057861328E-1
4.904327393E0,2.712295532E0,-1.172164917E0,-2.471923828E-1
4.909271241E0,2.626007080E0,-1.407592773E0,-1.555786133E-1
4.914245606E0,2.564224243E0,-1.542877197E0,-4.479980469E-2
4.919219971E0,2.487518311E0,-1.549270630E0,4.042053223E-2
4.924194336E0,2.398040771E0,-1.379898071E0,6.173706055E-2
4.929168702E0,2.327728271E0,-1.116775513E0,5.641174316E-2
4.934143067E0,2.287246704E0,-8.504638672E-1,6.706237793E-2
4.939117432E0,2.238250732E0,-5.617675781E-1,8.410644531E-2
4.944091797E0,2.151962280E0,-2.443237305E-1,9.475708008E-2
4.949066162E0,2.058227539E0,5.500793457E-2,9.155273438E-2
4.954040528E0,1.973007202E0,3.287811279E-1,7.238769531E-2
4.959014893E0,1.885650635E0,5.908355713E-1,2.871704102E-2
4.963989258E0,1.804687500E0,8.347930908E-1,-3.094482422E-2
4.968963623E0,1.731185913E0,1.011627197E0,-8.207702637E-2
4.973937989E0,1.655548096E0,1.057434082E0,-1.214904785E-1
4.978912354E0,1.609741211E0,9.711456299E-1,-1.609039307E-1
4.983886719E0,1.575653076E0,8.656768799E-1,-2.226867676E-1
4.988861084E0,1.473388672E0,9.327850342E-1,-3.451995850E-1
4.993835450E0,1.324249268E0,1.186325073E0,-5.049896240E-1
4.998809815E0,1.224121094E0,1.454772949E0,-6.200408936E-1
5.003784180E0,1.202819824E0,1.573013306E0,-6.764984131E-1
5.008758545E0,1.242233276E0,1.570877075E0,-7.159118652E-1
5.013732911E0,1.300811768E0,1.499511719E0,-7.606506348E-1
5.018707276E0,1.325317383E0,1.395111084E0,-8.128509521E-1
5.023681641E0,1.325317383E0,1.299240112E0,-8.565216064E-1
5.028656006E0,1.313598633E0,1.226806641E0,-8.991394043E-1
5.033630371E0,1.279510498E0,1.192718506E0,-9.310913086E-1
5.038604737E0,1.233703613E0,1.214019775E0,-9.747619629E-1
5.043579102E0,1.183639526E0,1.237457275E0,-1.019515991E0
5.048553467E0,1.127182007E0,1.229995728E0,-1.049331665E0
5.053527832E0,1.064331055E0,1.209762573E0,-1.078094482E0
5.058471680E0,9.918975830E-1,1.175674438E0,-1.121780396E0
5.063415528E0,9.045410156E-1,1.141586304E0,-1.175033569E0
5.068359375E0,8.278350830E-1,1.104293823E0,-1.228302002E0
5.073303223E0,7.532653809E-1,1.056365967E0,-1.267715454E0
5.078216553E0,6.712493896E-1,9.519653320E-1,-1.281570435E0
5.083160401E0,5.870971680E-1,7.666168213E-1,-1.258132935E0
5.088073731E0,5.135955811E-1,5.982971191E-1,-1.194213867E0
5.093017578E0,4.464721680E-1,7.037658691E-1,-1.160125732E0
5.097961426E0,3.793640137E-1,8.273315430E-1,-1.177169800E0
5.102874756E0,3.143768311E-1,8.390502930E-1,-1.182495117E0
5.107818604E0,2.515258789E-1,8.358459473E-1,-1.168640137E0
5.112762452E0,2.046661377E-1,8.880462646E-1,-1.146270752E0
5.117675782E0,1.652526855E-1,9.487762451E-1,-1.113250732E0
5.122619629E0,1.290283203E-1,1.002029419E0,-1.085556030E0
5.127532959E0,8.961486816E-2,1.065948486E0,-1.066375732E0
5.132476807E0,5.126953125E-2,1.153305054E0,-1.051467896E0
5.137390137E0,1.718139648E-2,1.261962891E0,-1.030166626E0
5.142333985E0,-2.862548828E-2,1.314163208E0,-9.981994629E-1
5.147277832E0,-8.403015137E-2,1.312026978E0,-9.619903564E-1
5.152221680E0,-1.394195557E-1,1.296051025E0,-9.193725586E-1
5.157196045E0,-1.884155273E-1,1.266220093E0,-8.586578369E-1
5.161376953E0,-2.374267578E-1,1.211883545E0,-7.830200195E-1
5.165954590E0,-3.077239990E-1,1.140518188E0,-7.382812500E-1
5.170715332E0,-3.759002686E-1,1.075531006E0,-7.095184326E-1
5.175598145E0,-4.600677490E-1,1.008422852E0,-6.839447021E-1
5.180511475E0,-5.495452881E-1,9.572906494E-1,-6.583862305E-1
5.185455323E0,-6.432952881E-1,9.221343994E-1,-6.296234131E-1
5.190429688E0,-7.444915771E-1,8.731384277E-1,-5.859527588E-1
5.195404053E0,-8.531494141E-1,8.145446777E-1,-5.326843262E-1
5.200378418E0,-9.639282227E-1,7.453002930E-1,-4.719696045E-1
5.205352784E0,-1.076858521E0,6.803283691E-1,-4.037933350E-1
5.210327149E0,-1.187637329E0,6.270599365E-1,-3.419952393E-1
5.215301514E0,-1.296295166E0,5.887145996E-1,-2.876739502E-1
5.220275879E0,-1.399627686E0,5.599517822E-1,-2.322845459E-1
5.225250245E0,-1.492309570E0,5.418395996E-1,-1.747589111E-1
5.230224610E0,-1.567932129E0,5.258636475E-1,-1.214904785E-1
5.235198975E0,-1.629730225E0,5.173339844E-1,-7.781982422E-2
5.240173340E0,-1.682983398E0,5.002899170E-1,-4.373168945E-2
5.245147705E0,-1.728790283E0,4.736633301E-1,-1.815795898E-2
5.250122071E0,-1.766082764E0,4.555511475E-1,7.400512695E-3
5.255096436E0,-1.799102783E0,4.491577148E-1,3.190612793E-2
5.260070801E0,-1.820404053E0,4.694061279E-1,5.641174316E-2
5.265045166E0,-1.821472168E0,5.194702148E-1,9.689331055E-2
5.270019532E0,-1.799102783E0,6.036224365E-1,1.458892822E-1
5.274993897E0,-1.743713379E0,7.176055908E-1,2.012786865E-1
5.279968262E0,-1.654220581E0,8.539581299E-1,2.545471191E-1
5.284942627E0,-1.526397705E0,1.003097534E0,2.822418213E-1
5.289916993E0,-1.358078003E0,1.113891602E0,2.598724365E-1
5.294891358E0,-1.145034790E0,1.106430054E0,1.831665039E-1
5.299865723E0,-8.648681641E-1,1.008422852E0,7.771301270E-2
5.304840088E0,-4.962768555E-1,9.519653320E-1,-6.503295898E-2
5.309814453E0,-6.378173828E-2,9.061584473E-1,-2.503967285E-1
5.314788819E0,3.708496094E-1,8.507690430E-1,-4.666442871E-1
5.319763184E0,7.660522461E-1,8.560943604E-1,-6.296234131E-1
5.324737549E0,1.074981689E0,9.019012451E-1,-7.137756348E-1
5.329711914E0,1.272048950E0,9.849853516E-1,-7.585144043E-1
5.334686280E0,1.371124268E0,1.090454102E0,-7.776947021E-1
5.339630127E0,1.399887085E0,1.196975708E0,-7.670440674E-1
5.344573975E0,1.374328613E0,1.298171997E0,-7.297515869E-1
5.349487305E0,1.310409546E0,1.386596680E0,-6.669006348E-1
5.354431153E0,1.204940796E0,1.456893921E0,-6.008605957E-1
5.359375000E0,1.077117920E0,1.486724854E0,-5.337524414E-1
5.364288330E0,9.482116699E-1,1.483535767E0,-4.687652588E-1
5.369232178E0,8.182525635E-1,1.452636719E0,-4.144439697E-1
5.374145508E0,6.957550049E-1,1.406829834E0,-3.622436523E-1
5.379089356E0,6.371612549E-1,1.339721680E0,-2.844848633E-1
5.384033203E0,6.254425049E-1,1.238525391E0,-1.310729980E-1
5.388946534E0,5.892181396E-1,1.112823486E0,1.000823975E-1
5.393890381E0,5.125274658E-1,9.849853516E-1,3.600006104E-1
5.398834229E0,4.337005615E-1,8.869781494E-1,5.805206299E-1
5.403747559E0,3.697814941E-1,8.369140625E-1,7.616119385E-1
5.408691407E0,3.314208984E-1,8.305206299E-1,9.256591797E-1
5.413635254E0,3.218383789E-1,8.582153320E-1,1.062011719E0
5.418548584E0,3.207702637E-1,9.082946777E-1,1.174926758E0
5.423492432E0,3.985443115E-1,8.528900146E-1,1.244171143E0
5.428405762E0,6.254425049E-1,4.630126953E-1,1.220733643E0
5.433380127E0,9.663238525E-1,-3.828125000E-1,1.064147949E0
5.437561036E0,1.353012085E0,-1.522644043E0,7.743988037E-1
5.442138672E0,1.754623413E0,-2.666732788E0,4.217987061E-1
5.446929932E0,2.117874146E0,-3.409225464E0,1.213836670E-1
5.451812745E0,2.356491089E0,-3.538116455E0,-1.236267090E-1
5.456726075E0,2.342651367E0,-3.202560425E0,-2.876739502E-1
5.461669922E0,1.994308472E0,-2.416397095E0,-2.951354980E-1
5.466644287E0,1.507476807E0,-1.271240234E0,-1.651611328E-1
5.471618653E0,1.100555420E0,-2.560424805E-1,-5.545043945E-2
5.476593018E0,8.289031982E-1,4.395751953E-1,-2.029418945E-2
5.481567383E0,6.265106201E-1,9.572906494E-1,-1.815795898E-2
5.486541748E0,4.304962158E-1,1.380203247E0,-2.029418945E-2
5.491516114E0,2.046661377E-1,1.659301758E0,2.764892578E-2
5.496490479E0,-7.124328613E-2,1.695526123E0,1.778411865E-1
5.501464844E0,-3.492736816E-1,1.534667969E0,4.324493408E-1
5.506439209E0,-5.655212402E-1,1.253433228E0,7.456359863E-1
5.511413575E0,-7.018737793E-1,8.997650146E-1,1.086517334E0
5.516387940E0,-7.604675293E-1,5.226593018E-1,1.429534912E0
5.521362305E0,-7.551422119E-1,1.679382324E-1,1.748046875E0
5.526336670E0,-7.626037598E-1,-1.441955566E-1,2.014358521E0
5.531311036E0,-8.520812988E-1,-3.306121826E-1,2.196517944E0
5.536285401E0,-1.061935425E0,-3.252868652E-1,2.278549194E0
5.541259766E0,-1.313339233E0,-2.432556152E-1,2.286010742E0
5.546234131E0,-1.532791138E0,-1.378021240E-1,2.266830444E0
5.551208496E0,-1.720275879E0,-1.103210449E-2,2.272155762E0
5.556182862E0,-1.875793457E0,9.201049805E-3,2.290267944E0
5.561157227E0,-2.003631592E0,-9.199523926E-2,2.299850464E0
5.566131592E0,-2.132522583E0,-3.018493652E-1,2.282806396E0
5.571105957E0,-2.328536987E0,-6.406097412E-1,2.165634155E0
5.576080323E0,-2.671554565E0,-1.026229858E0,1.881210327E0
5.581054688E0,-3.094467163E0,-1.460861206E0,1.474273682E0
5.586029053E0,-3.499267578E0,-1.891220093E0,1.064147949E0
5.591003418E0,-3.833755493E0,-2.149017334E0,7.211303711E-1
5.595977784E0,-4.037216187E0,-2.184173584E0,4.122009277E-1
5.600952149E0,-4.099014282E0,-2.079772949E0,1.011505127E-1
5.605926514E0,-4.061721802E0,-1.983901978E0,-2.163085938E-1
5.610870362E0,-3.934951782E0,-2.108535767E0,-5.188293457E-1
5.615814209E0,-3.698471069E0,-2.471801758E0,-7.702331543E-1
5.620758057E0,-3.372497559E0,-2.839309692E0,-9.002075195E-1
5.625701905E0,-3.016693115E0,-2.936248779E0,-8.820953369E-1
5.630645752E0,-2.643859863E0,-2.704025269E0,-7.787628174E-1
5.635559082E0,-2.275268555E0,-2.253417969E0,-6.658477783E-1
5.640502930E0,-1.917343140E0,-1.733566284E0,-5.806274414E-1
5.645416260E0,-1.581787109E0,-1.261657715E0,-5.358734131E-1
5.650360108E0,-1.298431396E0,-8.781585693E-1,-5.113830566E-1
5.655303955E0,-1.086441040E0,-5.969238281E-1,-4.879455566E-1
5.660217286E0,-9.426269531E-1,-4.424591064E-1,-4.709014893E-1
5.665161133E0,-8.382263184E-1,-4.073181152E-1,-4.655761719E-1
5.670104981E0,-7.391662598E-1,-4.701690674E-1,-4.591827393E-1
5.675018311E0,-6.411590576E-1,-6.129150391E-1,-4.453277588E-1
5.679962159E0,-5.356903076E-1,-7.801513672E-1,-4.261627197E-1
5.684906006E0,-4.281005859E-1,-9.228973389E-1,-4.027252197E-1
5.689819336E0,-3.343658447E-1,-1.014511108E0,-3.878021240E-1
5.694763184E0,-2.704467773E-1,-1.042205811E0,-3.814239502E-1
5.699676514E0,-2.459411621E-1,-1.004928589E0,-3.771514893E-1
5.704620362E0,-2.683105469E-1,-9.228973389E-1,-3.686370850E-1
5.709533692E0,-3.364868164E-1,-7.908020020E-1,-3.494567871E-1
5.714508057E0,-4.504699707E-1,-6.320800781E-1,-3.292236328E-1
5.718719483E0,-5.825653076E-1,-4.658966064E-1,-3.089752197E-1
5.723297120E0,-7.285156250E-1,-3.093109131E-1,-2.993927002E-1
5.728088379E0,-8.840332031E-1,-2.144927979E-1,-2.908630371E-1
5.732971192E0,-1.044891357E0,-2.422027588E-1,-2.780914307E-1
5.737884522E0,-1.200424194E0,-3.647003174E-1,-2.440032959E-1
5.742828370E0,-1.341033936E0,-5.457916260E-1,-1.981964111E-1
5.747802735E0,-1.462478638E0,-7.418060303E-1,-1.672973633E-1
5.752777100E0,-1.554092407E0,-9.197082520E-1,-1.534576416E-1
5.757751465E0,-1.622268677E0,-1.070968628E0,-1.427917480E-1
5.762725830E0,-1.692581177E0,-1.228637695E0,-1.257476807E-1
5.767700196E0,-1.769271851E0,-1.388427734E0,-7.568359375E-2
5.772674561E0,-1.851303101E0,-1.537551880E0,-1.176452637E-2
5.777648926E0,-1.917343140E0,-1.605728149E0,4.042053223E-2
5.782623291E0,-1.958892822E0,-1.538619995E0,8.517456055E-2
5.787597657E0,-1.974868774E0,-1.394805908E0,1.299133301E-1
5.792572022E0,-1.969543457E0,-1.225433350E0,1.799774170E-1
5.797546387E0,-1.945037842E0,-1.036880493E0,2.396392822E-1
5.802520752E0,-1.900299072E0,-8.217010498E-1,3.056793213E-1
5.807495118E0,-1.839584351E0,-6.406097412E-1,3.578796387E-1
5.812469483E0,-1.783126831E0,-5.298156738E-1,4.122009277E-1
5.817443848E0,-1.722396851E0,-4.584503174E-1,4.825134277E-1
5.822418213E0,-1.655288696E0,-4.158325195E-1,5.475006104E-1
5.827392578E0,-1.590316772E0,-4.105072021E-1,5.986328125E-1
5.832366944E0,-1.535980225E0,-4.286193848E-1,6.316528320E-1
5.837341309E0,-1.496566772E0,-4.637756348E-1,6.582794189E-1
5.842315674E0,-1.463546753E0,-5.149078369E-1,6.721343994E-1
5.847290039E0,-1.440109253E0,-5.713653564E-1,6.742553711E-1
5.852264405E0,-1.424133301E0,-6.235656738E-1,6.678619385E-1
5.857238770E0,-1.419860840E0,-6.512603760E-1,6.550903320E-1
5.862213135E0,-1.419860840E0,-6.299591064E-1,6.380462646E-1
5.867187500E0,-1.417739868E0,-5.553894043E-1,6.210021973E-1
5.872161866E0,-1.411346436E0,-4.392700195E-1,5.943603516E-1
5.877136231E0,-1.386840820E0,-3.029174805E-1,5.751953125E-1
5.882110596E0,-1.328247070E0,-1.708221436E-1,5.741271973E-1
5.887054444E0,-1.229187012E0,-7.707214355E-2,5.943603516E-1
5.892028809E0,-1.068328857E0,-4.937744141E-2,6.454925537E-1
5.896972657E0,-8.297119141E-1,-9.625244141E-2,6.987609863E-1
5.901916504E0,-6.028137207E-1,-2.730865479E-1,7.200622559E-1
5.906829834E0,-4.195861816E-1,-5.734863281E-1,6.902313232E-1
5.911773682E0,-2.651214600E-1,-9.143829346E-1,6.295166016E-1
5.916717530E0,-1.319580078E-1,-1.235015869E0,5.624084473E-1
5.921630860E0,-1.904296875E-2,-1.493881226E0,4.953002930E-1
5.926574707E0,6.617736816E-2,-1.679244995E0,4.196624756E-1
5.931518555E0,1.194458008E-1,-1.748474121E0,3.578796387E-1
5.936431885E0,1.556549072E-1,-1.689895630E0,3.195343018E-1
5.941375733E0,1.844177246E-1,-1.541824341E0,2.843780518E-1
5.946289063E0,2.078552246E-1,-1.339416504E0,2.577362061E-1
5.951232911E0,2.355499268E-1,-1.103988647E0,2.492218018E-1
5.956176758E0,2.770996094E-1,-8.760223389E-1,2.449645996E-1
5.961090088E0,3.239746094E-1,-7.066497803E-1,2.289733887E-1
5.966033936E0,3.815002441E-1,-6.150360107E-1,1.853027344E-1
5.970947266E0,4.592590332E-1,-5.809478760E-1,1.107330322E-1
5.975891114E0,5.625915527E-1,-5.692291260E-1,1.272583008E-2
5.980834961E0,6.872253418E-1,-5.607147217E-1,-1.065826416E-1
5.985748291E0,8.139953613E-1,-5.053100586E-1,-2.418670654E-1
5.990722657E0,9.098663330E-1,-3.710937500E-1,-3.910064697E-1
5.994934082E0,9.822998047E-1,-1.580352783E-1,-5.486602783E-1
5.999511719E0,1.083511353E0,9.655761719E-2,-6.988677979E-1
6.004302979E0,1.250747681E0,3.490295410E-1,-8.213653564E-1
6.009185791E0,1.487243652E0,5.567474365E-1,-9.151153564E-1
6.014099121E0,1.753555298E0,6.611480713E-1,-9.832916260E-1
6.019042969E0,2.003890991E0,6.856536865E-1,-1.031234741E0
6.024017334E0,2.209487915E0,7.463684082E-1,-1.059997559E0
6.028991700E0,2.352233887E0,8.784637451E-1,-1.095138550E0
6.033966065E0,2.457702637E0,1.118148804E0,-1.157989502E0
6.038940430E0,2.562088013E0,1.481399536E0,-1.199539185E0
6.043914795E0,2.713363647E0,1.842529297E0,-1.196350098E0
6.048889161E0,2.910430908E0,2.036407471E0,-1.162261963E0
6.053863526E0,3.101119995E0,2.011901855E0,-1.116455078E0
6.058837891E0,3.255584717E0,1.871292114E0,-1.080230713E0
6.063812256E0,3.328018188E0,1.717895508E0,-1.064254761E0
6.068786621E0,3.301391602E0,1.543182373E0,-1.061050415E0
6.073760987E0,3.215103149E0,1.285400391E0,-1.074905396E0
6.078735352E0,3.130935669E0,9.508972168E-1,-1.064254761E0
6.083709717E0,3.078750610E0,6.632843018E-1,-1.030166626E0
6.088684082E0,3.014831543E0,5.045471191E-1,-9.566650391E-1
6.093658448E0,2.900848389E0,3.799133301E-1,-8.799591064E-1
6.098632813E0,2.843322754E0,1.773071289E-2,-9.012603760E-1
6.103607178E0,2.820953369E0,-4.296875000E-1,-9.236297607E-1
6.108581543E0,2.782608032E0,-7.918701172E-1,-8.938140869E-1
6.113555909E0,2.778335571E0,-1.166839600E0,-8.426818848E-1
6.118530274E0,2.817749023E0,-1.524780273E0,-7.734375000E-1
6.123504639E0,2.873153687E0,-1.747421265E0,-6.999359131E-1
6.128479004E0,2.911499023E0,-1.866729736E0,-6.530609131E-1
6.133453370E0,2.902969360E0,-1.897613525E0,-6.125793457E-1
6.138427735E0,2.852905273E0,-1.790023804E0,-5.720977783E-1
6.143402100E0,2.760223389E0,-1.487487793E0,-5.305480957E-1
6.148376465E0,2.613220215E0,-1.018768311E0,-4.527893066E-1
6.153350830E0,2.476867676E0,-5.266265869E-1,-3.089752197E-1
6.158325196E0,2.325607300E0,-2.168273926E-2,-1.385345459E-1
6.163269043E0,2.143447876E0,5.578155518E-1,2.075195312E-3
6.168212891E0,1.991104126E0,1.101104736E0,8.517456055E-2
6.173156739E0,1.847305298E0,1.609237671E0,8.517456055E-2
6.178100586E0,1.716278076E0,1.943725586E0,1.805114746E-2
6.183044434E0,1.622528076E0,2.023620605E0,-7.142639160E-2
6.187988282E0,1.538375854E0,2.028945923E0,-2.216339111E-1
6.192901612E0,1.364730835E0,2.141860962E0,-4.517211914E-1
6.197845459E0,1.197494507E0,2.273956299E0,-7.446746826E-1
6.202789307E0,1.181503296E0,2.244125366E0,-9.641113281E-1
6.207702637E0,1.308273315E0,1.940536499E0,-1.048278809E0
6.212646485E0,1.480850220E0,1.527206421E0,-1.059997559E0
6.217590332E0,1.620391846E0,1.127731323E0,-1.033355713E0
6.222503662E0,1.707748413E0,8.241271973E-1,-9.768981934E-1
6.227447510E0,1.734375000E0,7.005615234E-1,-9.342956543E-1
6.232360840E0,1.697097778E0,7.485046387E-1,-9.246978760E-1
6.237304688E0,1.626785278E0,8.816528320E-1,-9.279022217E-1
6.242248536E0,1.554351807E0,1.051040649E0,-9.161834717E-1
6.247161866E0,1.481918335E0,1.239593506E0,-8.970031738E-1
6.252105713E0,1.403091431E0,1.447311401E0,-8.820953369E-1
6.257049561E0,1.328521729E0,1.614562988E0,-8.650512695E-1
6.261962891E0,1.269927979E0,1.711502075E0,-8.458709717E-1
6.266937256E0,1.221984863E0,1.746658325E0,-8.032684326E-1
6.271118164E0,1.163406372E0,1.720016479E0,-7.638397217E-1
6.275695801E0,1.062194824E0,1.684860229E0,-7.830200195E-1
6.280456543E0,9.300994873E-1,1.652908325E0,-8.501281738E-1
6.285339356E0,8.129272461E-1,1.594314575E0,-8.991394043E-1
6.290252686E0,7.149200439E-1,1.510162354E0,-9.119262695E-1
6.295196534E0,6.126556396E-1,1.416427612E0,-9.279022217E-1
6.300170899E0,4.986724854E-1,1.347183228E0,-9.385528564E-1
6.305145264E0,3.953399658E-1,1.289657593E0,-9.481353760E-1
6.310119629E0,3.058624268E-1,1.254501343E0,-9.374847412E-1
6.315093995E0,2.099914551E-1,1.223602295E0,-8.906097412E-1
6.320068360E0,1.087951660E-1,1.182067871E0,-8.256378174E-1
6.325042725E0,1.718139648E-2,1.147979736E0,-7.691802979E-1
6.330017090E0,-7.975769043E-2,1.131988525E0,-7.372131348E-1
6.334991455E0,-1.756439209E-1,1.113891602E0,-6.988677979E-1
6.339965821E0,-2.821655273E-1,1.058486938E0,-6.637115479E-1
6.344940186E0,-3.801727295E-1,9.999084473E-1,-6.328125000E-1
6.349914551E0,-4.717864990E-1,9.562225342E-1,-5.966033936E-1
6.354888916E0,-5.612640381E-1,9.136199951E-1,-5.593109131E-1
6.359863282E0,-6.518096924E-1,8.710021973E-1,-5.305480957E-1
6.364837647E0,-7.508850098E-1,8.220062256E-1,-5.017852783E-1
6.369812012E0,-8.584747314E-1,7.698059082E-1,-4.783630371E-1
6.374786377E0,-9.607391357E-1,7.367858887E-1,-4.517211914E-1
6.379760743E0,-1.064071655E0,7.250671387E-1,-4.208374023E-1
6.384735108E0,-1.179122925E0,7.154846191E-1,-3.867492676E-1
6.389709473E0,-1.296295166E0,7.037658691E-1,-3.569183350E-1
6.394683838E0,-1.424133301E0,6.845855713E-1,-3.334808350E-1
6.399658203E0,-1.554092407E0,6.334533691E-1,-3.228302002E-1
6.404632569E0,-1.675537109E0,5.620727539E-1,-3.228302002E-1
6.409606934E0,-1.792709351E0,4.757995605E-1,-3.206939697E-1
6.414581299E0,-1.918411255E0,3.820495605E-1,-3.185729980E-1
6.419555664E0,-2.041976929E0,2.872467041E-1,-3.260192871E-1
6.424530030E0,-2.153839111E0,1.849822998E-1,-3.345489502E-1
6.429504395E0,-2.244384766E0,8.697509766E-2,-3.515930176E-1
6.434478760E0,-2.293380737E0,1.879882812E-2,-3.771514893E-1
6.439453125E0,-2.292312622E0,-1.423645020E-2,-3.963317871E-1
6.444427491E0,-2.236923218E0,-5.258178711E-2,-3.888702393E-1
6.449371338E0,-2.105895996E0,-1.612396240E-1,-3.206939697E-1
6.454315186E0,-1.886459351E0,-2.848052979E-1,-1.822052002E-1
6.459259034E0,-1.622268677E0,-2.379302979E-1,-9.643554688E-3
6.464202881E0,-1.400695801E0,7.844543457E-2,1.735839844E-1
6.469116211E0,-1.234512329E0,4.725952148E-1,3.088684082E-1
6.474060059E0,-1.038497925E0,6.728668213E-1,3.514862061E-1
6.478973389E0,-7.306365967E-1,5.727386475E-1,2.950286865E-1
6.483917237E0,-3.013458252E-1,2.499542236E-1,1.213836670E-1
6.488861084E0,1.322174072E-1,-9.413146973E-2,-1.161651611E-1
6.493774414E0,4.997406006E-1,-2.262115479E-1,-3.345489502E-1
6.498718262E0,8.012084961E-1,-1.718902588E-1,-4.421386719E-1
6.503631592E0,1.040893555E0,-1.175537109E-1,-4.954071045E-1
6.508575440E0,1.210266113E0,6.779479980E-2,-5.710296631E-1
6.513519287E0,1.293365479E0,3.959045410E-1,-6.242980957E-1
6.518432618E0,1.285903931E0,7.527618408E-1,-6.306915283E-1
6.523376465E0,1.217727661E0,1.068084717E0,-6.008605957E-1
6.528320313E0,1.114395142E0,1.305633545E0,-5.550537109E-1
6.533233643E0,9.865722656E-1,1.437728882E0,-4.996643066E-1
6.538177491E0,8.257141113E-1,1.447311401E0,-4.527893066E-1
6.543121338E0,6.307678223E-1,1.266220093E0,-4.229583740E-1
6.548095703E0,4.603271484E-1,9.136199951E-1,-3.824768066E-1
6.552307129E0,3.953399658E-1,6.068267822E-1,-2.429351807E-1
6.556884766E0,3.782958984E-1,4.491577148E-1,3.083801270E-2
6.561676026E0,3.260955811E-1,3.191986084E-1,3.472290039E-1
6.566558838E0,2.525939941E-1,1.764526367E-1,5.762481689E-1
6.571472168E0,2.163848877E-1,5.714416504E-2,7.243347168E-1
6.576416016E0,2.430114746E-1,7.080078125E-3,8.308563232E-1
6.581390381E0,3.335571289E-1,1.423645020E-1,9.448394775E-1
6.586364746E0,4.763031006E-1,4.427642822E-1,1.085449219E0
6.591339112E0,6.808319092E-1,7.112121582E-1,1.220733643E0
6.596313477E0,9.705810547E-1,6.803283691E-1,1.303833008E0
6.601287842E0,1.227310181E0,1.530151367E-1,1.152557373E0
6.606262207E0,1.365798950E0,-7.428741455E-1,7.957000732E-1
6.611236573E0,1.563934326E0,-1.643020630E0,4.825134277E-1
6.616210938E0,1.803619385E0,-2.235305786E0,3.152618408E-1
6.621185303E0,1.951690674E0,-2.408950806E0,2.140655518E-1
6.626159668E0,1.889907837E0,-2.294967651E0,1.096649170E-1
6.631134034E0,1.608673096E0,-1.853942871E0,8.303833008E-2
6.636108399E0,1.234771729E0,-1.166839600E0,1.405639648E-1
6.641082764E0,9.120025635E-1,-6.512603760E-1,1.331024170E-1
6.646057129E0,6.723175049E-1,-3.721618652E-1,7.984924316E-2
6.651031495E0,4.731140137E-1,-1.505889893E-1,3.083801270E-2
6.656005860E0,2.739105225E-1,8.697509766E-2,-2.880859375E-2
6.660980225E0,5.020141602E-2,3.554229736E-1,-7.781982422E-2
6.665954590E0,-1.894836426E-1,6.142730713E-1,-5.651855469E-2
6.670928955E0,-3.908233643E-1,7.069549561E-1,7.345581055E-2
6.675903321E0,-5.218505859E-1,5.524902344E-1,3.110046387E-1
6.680877686E0,-6.028137207E-1,2.297210693E-1,6.188659668E-1
6.685852051E0,-6.326293945E-1,-1.772155762E-1,9.459075928E-1
6.690826416E0,-6.166534424E-1,-6.363372803E-1,1.274002075E0
6.695800782E0,-5.964202881E-1,-1.093338013E0,1.594650269E0
6.700775147E0,-6.241149902E-1,-1.499206543E0,1.880142212E0
6.705749512E0,-7.189178467E-1,-1.797485352E0,2.091064453E0
6.710723877E0,-8.520812988E-1,-1.915725708E0,2.201843262E0
6.715698243E0,-1.011871338E0,-1.882705688E0,2.257247925E0
6.720642090E0,-1.206817627E0,-1.741027832E0,2.317962646E0
6.725585938E0,-1.453948975E0,-1.514114380E0,2.398925781E0
6.730529786E0,-1.751159668E0,-1.253128052E0,2.492660522E0
6.735473633E0,-2.038787842E0,-1.027297974E0,2.627960205E0
6.740386963E0,-2.242248535E0,-9.228973389E-1,2.811187744E0
6.745330811E0,-2.324279785E0,-9.420776367E-1,2.949661255E0
6.750274659E0,-2.346649170E0,-1.030487061E0,2.924102783E0
6.755187989E0,-2.476608276E0,-1.126358032E0,2.703582764E0
6.760131836E0,-2.800445557E0,-1.209457397E0,2.311569214E0
6.765045166E0,-3.234008789E0,-1.298934937E0,1.829010010E0
6.769989014E0,-3.667572021E0,-1.346878052E0,1.360290527E0
6.774932862E0,-4.043609619E0,-1.334091187E0,9.512329102E-1
6.779846192E0,-4.310989380E0,-1.266983032E0,5.762481689E-1
6.784790039E0,-4.454803467E0,-1.204132080E0,2.289733887E-1
6.789733887E0,-4.460128784E0,-1.221176147E0,-5.545043945E-2
6.794647217E0,-4.357864380E0,-1.306396484E0,-2.365417480E-1
6.799591065E0,-4.168243408E0,-1.504531860E0,-3.377380371E-1
6.804504395E0,-3.855056763E0,-1.790023804E0,-3.760833740E-1
6.809448243E0,-3.417236328E0,-2.054214478E0,-3.675689697E-1
6.814392090E0,-2.878219604E0,-2.232116699E0,-3.441314697E-1
6.819305420E0,-2.316818237E0,-2.265136719E0,-3.324127197E-1
6.824279786E0,-1.803359985E0,-2.133041382E0,-3.473358154E-1
6.828491211E0,-1.369796753E0,-1.881637573E0,-3.910064697E-1
6.833068848E0,-1.020385742E0,-1.643020630E0,-4.442749023E-1
6.837860108E0,-7.572784424E-1,-1.482162476E0,-4.474639893E-1
6.842742920E0,-5.772399902E-1,-1.404403687E0,-4.080505371E-1
6.847656250E0,-4.962768555E-1,-1.428894043E0,-3.579864502E-1
6.852600098E0,-5.111999512E-1,-1.522644043E0,-3.025817871E-1
6.857574463E0,-5.516815186E-1,-1.524780273E0,-2.610473633E-1
6.862548828E0,-5.793762207E-1,-1.374572754E0,-2.589111328E-1
6.867523194E0,-5.878906250E-1,-1.128494263E0,-2.855377197E-1
6.872497559E0,-5.836334229E-1,-8.419342041E-1,-3.281555176E-1
6.877471924E0,-5.825653076E-1,-5.649719238E-1,-3.760833740E-1
6.882446289E0,-5.942840576E-1,-3.338012695E-1,-4.218902588E-1
6.887420655E0,-6.305084229E-1,-1.900024414E-1,-4.570465088E-1
6.892395020E0,-6.944274902E-1,-1.228790283E-1,-4.709014893E-1
6.897369385E0,-7.689971924E-1,-1.058349609E-1,-4.602508545E-1
6.902343750E0,-8.307800293E-1,-1.388702393E-1,-4.144439697E-1
6.907318116E0,-8.659362793E-1,-2.166290283E-1,-3.345489502E-1
6.912292481E0,-8.755187988E-1,-3.391418457E-1,-2.407989502E-1
6.917266846E0,-8.712615967E-1,-5.010528564E-1,-1.438598633E-1
6.922241211E0,-8.638000488E-1,-6.949310303E-1,-5.117797852E-2
6.927215577E0,-8.563385010E-1,-9.207763672E-1,1.699829102E-2
6.932189942E0,-8.563385010E-1,-1.178558350E0,6.280517578E-2
6.937164307E0,-8.659362793E-1,-1.407592773E0,1.086120605E-1
6.942138672E0,-8.914947510E-1,-1.560989380E0,1.490783691E-1
6.947113037E0,-9.234466553E-1,-1.628097534E0,1.682586670E-1
6.952087403E0,-9.575347900E-1,-1.647277832E0,1.799774170E-1
6.957061768E0,-9.916381836E-1,-1.636627197E0,2.055511475E-1
6.962036133E0,-1.039566040E0,-1.610000610E0,2.492218018E-1
6.967010498E0,-1.104553223E0,-1.586563110E0,3.035430908E-1
6.971984864E0,-1.186569214E0,-1.571640015E0,3.610687256E-1
6.976959229E0,-1.280319214E0,-1.556732178E0,4.175262451E-1
6.981933594E0,-1.365539551E0,-1.518386841E0,4.707946777E-1
6.986907959E0,-1.442230225E0,-1.437423706E0,5.187377930E-1
6.991882325E0,-1.501892090E0,-1.322372437E0,5.538787842E-1
6.996856690E0,-1.555160522E0,-1.189208984E0,5.847778320E-1
7.001800537E0,-1.603088379E0,-9.985351562E-1,6.177978516E-1
7.006744385E0,-1.642501831E0,-7.364807129E-1,6.497650146E-1
7.011688233E0,-1.692581177E0,-4.424591064E-1,6.636047363E-1
7.016601563E0,-1.760757446E0,-1.271514893E-1,6.518859863E-1
7.021545411E0,-1.832122803E0,2.180023193E-1,6.295166016E-1
7.026458741E0,-1.899230957E0,5.748596191E-1,6.082153320E-1
7.031402588E0,-1.954635620E0,9.200134277E-1,5.964965820E-1
7.036346436E0,-1.988723755E0,1.205505371E0,6.146087646E-1
7.041259766E0,-1.988723755E0,1.369552612E0,6.593475342E-1
7.046203614E0,-1.921600342E0,1.366348267E0,7.221984863E-1
7.051147461E0,-1.777801514E0,1.182067871E0,7.818450928E-1
7.056060791E0,-1.579650879E0,8.294677734E-1,8.138122559E-1
7.061004639E0,-1.330383301E0,3.820495605E-1,8.095550537E-1
7.065917969E0,-1.010803223E0,-6.642150879E-2,7.711944580E-1
7.070861817E0,-6.528778076E-1,-4.957275391E-1,7.019500732E-1
7.075805664E0,-3.002777100E-1,-8.834838867E-1,6.231231689E-1
7.080718995E0,2.037048340E-2,-1.205200195E0,5.592041016E-1
7.085662842E0,2.898864746E-1,-1.436355591E0,5.091400146E-1
7.090576172E0,4.880218506E-1,-1.552474976E0,4.686584473E-1
7.095520020E0,5.902862549E-1,-1.514114380E0,4.345703125E-1
7.100494385E0,5.870971680E-1,-1.350067139E0,3.823699951E-1
7.104705811E0,4.784393311E-1,-1.150863647E0,3.110046387E-1
7.109283448E0,2.962799072E-1,-9.697723389E-1,2.364349365E-1
7.114074707E0,8.322143555E-2,-8.227691650E-1,1.693267822E-1
7.118957520E0,-1.213073730E-1,-6.821441650E-1,1.107330322E-1
7.123870850E0,-2.821655273E-1,-5.393981934E-1,6.173706055E-2
7.128814698E0,-3.705749512E-1,-3.934631348E-1,8.468627930E-3
7.133789063E0,-3.609924316E-1,-2.379302979E-1,-4.798889160E-2
7.138763428E0,-2.544708252E-1,-9.413146973E-2,-1.119079590E-1
7.143737793E0,-1.000061035E-1,8.148193359E-3,-1.811523438E-1
7.148712159E0,5.552673340E-2,9.762573242E-2,-2.397308350E-1
7.153686524E0,2.344818115E-1,1.743164062E-1,-3.025817871E-1
7.158660889E0,4.752349854E-1,2.137451172E-1,-3.665008545E-1
7.163635254E0,7.884216309E-1,2.020263672E-1,-4.304199219E-1
7.168609620E0,1.135696411E0,2.041473389E-1,-4.847412109E-1
7.173583985E0,1.458480835E0,2.584838867E-1,-5.486602783E-1
7.178558350E0,1.714141846E0,3.628692627E-1,-6.413421631E-1
7.183532715E0,1.861145020E0,5.429077148E-1,-7.500000000E-1
7.188507080E0,1.911209106E0,8.209381104E-1,-8.256378174E-1
7.193481446E0,1.931457520E0,1.162887573E0,-8.874206543E-1
7.198455811E0,1.959152222E0,1.522949219E0,-9.353485107E-1
7.203430176E0,2.002822876E0,1.814834595E0,-9.843597412E-1
7.208404541E0,2.056091309E0,1.958633423E0,-1.059997559E0
7.213378907E0,2.121078491E0,1.902175903E0,-1.168640137E0
7.218353272E0,2.233993530E0,1.675277710E0,-1.282623291E0
7.223327637E0,2.388458252E0,1.405761719E0,-1.354003906E0
7.228302002E0,2.550369263E0,1.199111938E0,-1.356140137E0
7.233276368E0,2.700576782E0,1.082992554E0,-1.302871704E0
7.238250733E0,2.827346802E0,1.015884399E0,-1.233627319E0
7.243225098E0,2.900848389E0,9.583587646E-1,-1.205932617E0
7.248199463E0,2.936004639E0,9.530334473E-1,-1.214447021E0
7.253173828E0,2.956237793E0,9.903106689E-1,-1.219787598E0
7.258148194E0,2.965820312E0,1.006301880E0,-1.200607300E0
7.263122559E0,2.948776245E0,9.541015625E-1,-1.160125732E0
7.268096924E0,2.910430908E0,8.379821777E-1,-1.105804443E0
7.273071289E0,2.856109619E0,6.632843018E-1,-1.029098511E0
7.278015137E0,2.757034302E0,5.141448975E-1,-9.119262695E-1
7.282958985E0,2.726135254E0,2.840423584E-1,-8.320312500E-1
7.287872315E0,2.879547119E0,-2.666931152E-1,-8.128509521E-1
7.292816162E0,2.992462158E0,-8.557891846E-1,-7.649078369E-1
7.297729493E0,3.009506226E0,-1.310653687E0,-6.764984131E-1
7.302673340E0,2.970092773E0,-1.641952515E0,-5.550537109E-1
7.307617188E0,2.865692139E0,-1.784698486E0,-4.496002197E-1
7.312530518E0,2.745315552E0,-1.717590332E0,-3.782196045E-1
7.317474366E0,2.694183350E0,-1.519454956E0,-2.770233154E-1
7.322418213E0,2.689926147E0,-1.235015869E0,-1.055145264E-1
7.327331543E0,2.686721802E0,-8.142395020E-1,6.813049316E-2
7.332275391E0,2.637725830E0,-2.560424805E-1,1.821136475E-1
7.337188721E0,2.508834839E0,4.385070801E-1,2.385711670E-1
7.342132569E0,2.323471069E0,1.145843506E0,2.481536865E-1
7.347076416E0,2.095504761E0,1.664627075E0,2.236480713E-1
7.351989746E0,1.765274048E0,2.113098145E0,1.181945801E-1
7.356933594E0,1.396697998E0,2.641479492E0,-7.461547852E-2
7.361877442E0,1.214538574E0,3.005798340E0,-2.983245850E-1
7.366790772E0,1.309341431E0,2.914184570E0,-4.890136719E-1
7.371734620E0,1.541564941E0,2.495529175E0,-5.689086914E-1
7.376708985E0,1.737579346E0,1.996994019E0,-5.699615479E-1
7.380920411E0,1.820663452E0,1.549575806E0,-5.795593262E-1
7.385498047E0,1.829193115E0,1.150100708E0,-6.147155762E-1
7.390289307E0,1.819595337E0,8.230743408E-1,-6.871490479E-1
7.395172120E0,1.803619385E0,6.611480713E-1,-7.904815674E-1
7.400085450E0,1.769531250E0,6.750030518E-1,-8.991394043E-1
7.405029297E0,1.690704346E0,8.102874756E-1,-1.018447876E0
7.410003662E0,1.582046509E0,9.562225342E-1,-1.117507935E0
7.414978028E0,1.474456787E0,1.096847534E0,-1.198471069E0
7.419952393E0,1.370056152E0,1.250244141E0,-1.271972656E0
7.424926758E0,1.267791748E0,1.380203247E0,-1.355072021E0
7.429901123E0,1.191101074E0,1.450515747E0,-1.411529541E0
7.434875489E0,1.120788574E0,1.504837036E0,-1.423248291E0
7.439849854E0,1.051544189E0,1.508041382E0,-1.398742676E0
7.444824219E0,9.759063721E-1,1.449447632E0,-1.363586426E0
7.449798584E0,9.013519287E-1,1.423873901E0,-1.333770752E0
7.454772950E0,8.225097656E-1,1.423873901E0,-1.310333252E0
7.459747315E0,7.511444092E-1,1.408966064E0,-1.290084839E0
7.464721680E0,7.021331787E-1,1.381271362E0,-1.242156982E0
7.469696045E0,6.265106201E-1,1.326934814E0,-1.209121704E0
7.474670411E0,5.295715332E-1,1.255569458E0,-1.163314819E0
7.479644776E0,4.400787354E-1,1.027603149E0,-1.075973511E0
7.484619141E0,3.580627441E-1,9.732666016E-1,-9.832916260E-1
7.489593506E0,2.568664551E-1,1.069137573E0,-9.300231934E-1
7.494567871E0,1.556549072E-1,1.044647217E0,-8.767700195E-1
7.499542237E0,5.552673340E-2,1.000961304E0,-8.160400391E-1
7.504516602E0,-4.566955566E-2,1.010559082E0,-7.702331543E-1
7.509490967E0,-1.404876709E-1,1.006301880E0,-7.372131348E-1
7.514465332E0,-2.427520752E-1,9.828643799E-1,-7.084503174E-1
7.519439698E0,-3.535308838E-1,9.690093994E-1,-6.850128174E-1
7.524414063E0,-4.557952881E-1,9.445037842E-1,-6.605224609E-1
7.529388428E0,-5.623321533E-1,9.019012451E-1,-6.392059326E-1
7.534362793E0,-6.688537598E-1,8.635559082E-1,-6.232299805E-1
7.539337159E0,-7.860412598E-1,8.220062256E-1,-6.093902588E-1
7.544311524E0,-9.053497314E-1,7.889862061E-1,-5.912780762E-1
7.549255371E0,-1.024658203E0,7.570190430E-1,-5.678405762E-1
7.554199219E0,-1.141830444E0,7.101440430E-1,-5.380096436E-1
7.559143067E0,-1.257949829E0,6.568908691E-1,-5.017852783E-1
7.564086914E0,-1.383651733E0,6.014862061E-1,-4.581146240E-1
7.569030762E0,-1.513610840E0,5.493011475E-1,-4.165649414E-1
7.573944092E0,-1.645706177E0,5.056152344E-1,-3.814239502E-1
7.578887940E0,-1.774597168E0,4.619445801E-1,-3.558502197E-1
7.583801270E0,-1.898178101E0,4.321136475E-1,-3.324127197E-1
7.588745118E0,-2.023864746E0,4.044189453E-1,-3.057861328E-1
7.593688965E0,-2.138916016E0,3.618164062E-1,-2.844848633E-1
7.598602295E0,-2.249710083E0,3.085479736E-1,-2.706298828E-1
7.603546143E0,-2.353042603E0,2.446289062E-1,-2.631683350E-1
7.608459473E0,-2.437194824E0,1.615447998E-1,-2.589111328E-1
7.613403321E0,-2.496856689E0,7.951354980E-2,-2.525177002E-1
7.618347168E0,-2.538391113E0,1.773071289E-2,-2.258911133E-1
7.623260498E0,-2.539459229E0,-1.210021973E-2,-1.715545654E-1
7.628204346E0,-2.495788574E0,-2.275085449E-2,-9.272766113E-2
7.633148194E0,-2.395645142E0,-6.774902344E-3,2.871704102E-2
7.638061524E0,-2.234786987E0,7.099914551E-2,2.236480713E-1
7.643005371E0,-2.031326294E0,2.275848389E-1,4.782562256E-1
7.647949219E0,-1.809753418E0,4.427642822E-1,7.019500732E-1
7.652923584E0,-1.577529907E0,6.259918213E-1,7.829132080E-1
7.657104493E0,-1.270736694E0,5.706024170E-1,6.838531494E-1
7.661682129E0,-8.041381836E-1,1.551513672E-1,4.569396973E-1
7.666473389E0,-2.225036621E-1,-3.103790283E-1,1.448211670E-1
7.671356202E0,3.591308594E-1,-5.127716064E-1,-1.534576416E-1
7.676269532E0,8.129272461E-1,-3.902740479E-1,-3.728942871E-1
7.681213379E0,1.130371094E0,-2.666931152E-1,-5.198974609E-1
7.686187745E0,1.358337402E0,-8.027648926E-2,-6.764984131E-1
7.691162110E0,1.488311768E0,3.085479736E-1,-8.085937500E-1
7.696136475E0,1.530914307E0,7.847137451E-1,-8.607788086E-1
7.701110840E0,1.506408691E0,1.249176025E0,-8.426818848E-1
7.706085205E0,1.425460815E0,1.627349854E0,-7.947387695E-1
7.711059571E0,1.308273315E0,1.889404297E0,-7.382812500E-1
7.716033936E0,1.141021729E0,1.998062134E0,-6.690368652E-1
7.721008301E0,9.418182373E-1,1.860641479E0,-5.497283936E-1
7.725982666E0,8.459472656E-1,1.527206421E0,-3.388061523E-1
7.730957032E0,8.406219482E-1,1.136260986E0,-3.201293945E-2
7.735931397E0,8.246459961E-1,7.389068604E-1,2.886352539E-1
7.740905762E0,8.044128418E-1,3.468933105E-1,4.910278320E-1
7.745880127E0,8.097381592E-1,-3.233337402E-2,5.922393799E-1
7.750854493E0,8.587341309E-1,-3.125000000E-1,7.232666016E-1
7.755828858E0,9.535369873E-1,-3.444671631E-1,8.958282471E-1
7.760803223E0,1.067520142E0,-1.420593262E-1,1.066284180E0
7.765777588E0,1.245422363E0,1.040191650E-1,1.235656738E0
7.770751953E0,1.491500854E0,7.080078125E-3,1.254821777E0
7.775726319E0,1.670471191E0,-6.800231934E-1,9.853210449E-1
7.780700684E0,1.863281250E0,-1.700546265E0,5.645446777E-1
7.785675049E0,2.153030396E0,-2.647567749E0,2.897033691E-1
7.790649414E0,2.355422974E0,-3.272872925E0,2.257843018E-1
7.795623780E0,2.362884521E0,-3.384719849E0,1.991577148E-1
7.800598145E0,2.113616943E0,-2.873397827E0,1.767883301E-1
7.805572510E0,1.666198730E0,-1.783630371E0,2.044830322E-1
7.810546875E0,1.214538574E0,-7.758941650E-1,1.693267822E-1
7.815521241E0,8.757781982E-1,-1.441955566E-1,7.557678223E-2
7.820495606E0,6.158599854E-1,3.138732910E-1,2.551269531E-2
7.825469971E0,3.932189941E-1,7.399749756E-1,5.320739746E-2
7.830413819E0,1.503295898E-1,1.165023804E0,1.490783691E-1
7.835357666E0,-1.202392578E-1,1.477142334E0,2.928924561E-1
7.840301514E0,-3.396911621E-1,1.532531738E0,4.963531494E-1
7.845214844E0,-4.739074707E-1,1.351440430E0,7.562866211E-1
7.850158692E0,-5.452880859E-1,1.044647217E0,1.043899536E0
7.855102539E0,-5.783081055E-1,6.856536865E-1,1.323013306E0
7.860015870E0,-5.772399902E-1,3.277282715E-1,1.560562134E0
7.864959717E0,-5.559387207E-1,-5.706787109E-3,1.745910645E0
7.869873047E0,-5.506134033E-1,-3.061065674E-1,1.850311279E0
7.874816895E0,-6.060028076E-1,-5.830841064E-1,1.888656616E0
7.879760743E0,-7.498168945E-1,-7.641754150E-1,1.905700684E0
7.884674073E0,-9.671325684E-1,-8.227691650E-1,1.945114136E0
7.889617920E0,-1.216400146E0,-8.046569824E-1,2.015426636E0
7.894531250E0,-1.473129272E0,-7.886810303E-1,2.119827271E0
7.899475098E0,-1.724533081E0,-8.483276367E-1,2.271087646E0
7.904418946E0,-1.917343140E0,-1.004928589E0,2.469223022E0
7.909362793E0,-2.006820679E0,-1.195602417E0,2.662048340E0
7.914276123E0,-2.040908813E0,-1.378829956E0,2.750457764E0
7.919219971E0,-2.092056274E0,-1.557800293E0,2.654586792E0
7.924133301E0,-2.244384766E0,-1.771911621E0,2.294525146E0
7.929107666E0,-2.602310181E0,-2.090423584E0,1.726745605E0
7.933288575E0,-3.124282837E0,-2.477127075E0,1.128067017E0
7.937866211E0,-3.710189819E0,-2.762603760E0,6.156768799E-1
7.942657471E0,-4.205535889E0,-2.856353760E0,1.948852539E-1
7.947540284E0,-4.505935669E0,-2.721069336E0,-1.076507568E-1
7.952453614E0,-4.601806641E0,-2.416397095E0,-2.674407959E-1
7.957397461E0,-4.563461304E0,-2.093627930E0,-3.334808350E-1
7.962371827E0,-4.475051880E0,-1.857131958E0,-3.611755371E-1
7.967346192E0,-4.369583130E0,-1.709060669E0,-3.760833740E-1
7.972320557E0,-4.224700928E0,-1.605728149E0,-3.675689697E-1
7.977294922E0,-3.980758667E0,-1.529037476E0,-3.313446045E-1
7.982269287E0,-3.607925415E0,-1.531158447E0,-2.855377197E-1
7.987243653E0,-3.095535278E0,-1.599349976E0,-2.461242676E-1
7.992218018E0,-2.490463257E0,-1.660064697E0,-2.429351807E-1
7.997192383E0,-1.893905640E0,-1.673904419E0,-3.004608154E-1
8.002166748E0,-1.352752686E0,-1.632369995E0,-3.750305176E-1
8.007141114E0,-9.010772705E-1,-1.583358765E0,-4.368133545E-1
8.012115479E0,-5.484771729E-1,-1.565246582E0,-4.719696045E-1
8.017089844E0,-2.928161621E-1,-1.607864380E0,-4.655761719E-1
8.022064209E0,-1.372833252E-1,-1.730377197E0,-4.091186523E-1
8.027038575E0,-8.403015137E-2,-1.872055054E0,-3.270874023E-1
8.032012940E0,-9.468078613E-2,-1.885894775E0,-2.684936523E-1
8.036987305E0,-1.543273926E-1,-1.771911621E0,-2.684936523E-1
8.041961670E0,-2.715148926E-1,-1.565246582E0,-3.057861328E-1
8.046936036E0,-4.291687012E-1,-1.318115234E0,-3.665008545E-1
8.051910401E0,-5.836334229E-1,-1.045410156E0,-4.229583740E-1
8.056884766E0,-7.008209229E-1,-7.407379150E-1,-4.463958740E-1
8.061859131E0,-7.913665771E-1,-4.658966064E-1,-4.336090088E-1
8.066833496E0,-8.542175293E-1,-2.666931152E-1,-3.888702393E-1
8.071807862E0,-8.765869141E-1,-1.378021240E-1,-3.175048828E-1
8.076782227E0,-8.584747314E-1,-6.323242188E-2,-2.322845459E-1
8.081756592E0,-8.179931641E-1,-3.553771973E-2,-1.459960938E-1
8.086730957E0,-7.721862793E-1,-6.002807617E-2,-6.289672852E-2
8.091705323E0,-7.476806641E-1,-1.559143066E-1,1.486206055E-2
8.096679688E0,-7.466125488E-1,-3.220977783E-1,9.262084961E-2
8.101623536E0,-7.657928467E-1,-5.266265869E-1,1.842346191E-1
8.106597901E0,-8.094635010E-1,-7.322235107E-1,2.705230713E-1
8.111541748E0,-8.723144531E-1,-9.101104736E-1,3.344421387E-1
8.116485596E0,-9.351654053E-1,-1.039016724E0,3.781127930E-1
8.121429444E0,-9.926910400E-1,-1.117843628E0,4.196624756E-1
8.126373291E0,-1.042770386E0,-1.164718628E0,4.771881104E-1
8.131286621E0,-1.087509155E0,-1.192413330E0,5.453643799E-1
8.136230469E0,-1.134368896E0,-1.207321167E0,6.050109863E-1
8.141174317E0,-1.182312012E0,-1.203063965E0,6.529541016E-1
8.146087647E0,-1.233444214E0,-1.165786743E0,6.881103516E-1
8.151031495E0,-1.285644531E0,-1.102935791E0,7.126159668E-1
8.155975342E0,-1.333587646E0,-1.021972656E0,7.307128906E-1
8.160888672E0,-1.381515503E0,-9.197082520E-1,7.477569580E-1
8.165832520E0,-1.423065186E0,-7.886810303E-1,7.711944580E-1
8.170745850E0,-1.460342407E0,-6.395416260E-1,8.031616211E-1
8.175689698E0,-1.501892090E0,-4.978637695E-1,8.372497559E-1
8.180633545E0,-1.545562744E0,-3.860015869E-1,8.596191406E-1
8.185546875E0,-1.590316772E0,-3.071746826E-1,8.713378906E-1
8.190490723E0,-1.647827148E0,-2.422027588E-1,8.692016602E-1
8.195404053E0,-1.719207764E0,-1.740112305E-1,8.479003906E-1
8.200347901E0,-1.798034668E0,-7.388305664E-2,8.116760254E-1
8.205322266E0,-1.861953735E0,5.500793457E-2,7.605438232E-1
8.210266114E0,-1.920547485E0,2.137451172E-1,7.104797363E-1
8.215240479E0,-1.959960938E0,3.586120605E-1,6.891784668E-1
8.220214844E0,-1.946105957E0,4.299926758E-1,6.923675537E-1
8.225189209E0,-1.861953735E0,3.937683105E-1,7.168731689E-1
8.230163575E0,-1.686187744E0,2.733917236E-1,7.413787842E-1
8.235137940E0,-1.436904907E0,8.909606934E-2,7.530822754E-1
8.240112305E0,-1.140762329E0,-1.804046631E-1,7.552185059E-1
8.245086670E0,-8.084106445E-1,-5.255584717E-1,7.339172363E-1
8.250061036E0,-4.408874512E-1,-8.696289062E-1,7.115478516E-1
8.255035401E0,-8.296203613E-2,-1.147674561E0,6.827850342E-1
8.260009766E0,2.174377441E-1,-1.328765869E0,6.433715820E-1
8.264984131E0,4.113159180E-1,-1.331954956E0,6.039581299E-1
8.269958496E0,4.858856201E-1,-1.183883667E0,5.475006104E-1
8.274932862E0,4.592590332E-1,-9.836273193E-1,4.558868408E-1
8.279907227E0,3.697814941E-1,-8.035888672E-1,3.674621582E-1
8.284881592E0,2.430114746E-1,-6.704254150E-1,2.822418213E-1
8.289855957E0,1.077270508E-1,-5.884094238E-1,1.895599365E-1
8.294830323E0,-1.158142090E-2,-5.298156738E-1,9.049987793E-2
8.299804688E0,-9.254455566E-2,-4.765472412E-1,-1.113891602E-3
8.304779053E0,-1.106567383E-1,-4.264831543E-1,-8.953857422E-2
8.309753418E0,-7.124328613E-2,-3.678894043E-1,-1.800842285E-1
8.314727784E0,-5.203247070E-3,-2.624359131E-1,-2.525177002E-1
8.319702149E0,7.043457031E-2,-1.303405762E-1,-3.153686523E-1
8.324676514E0,1.748352051E-1,-1.956176758E-2,-3.984680176E-1
8.329650879E0,3.229064941E-1,3.584289551E-2,-5.060577393E-1
8.334625245E0,5.199737549E-1,7.099914551E-2,-6.083221436E-1
8.339599610E0,7.415618896E-1,1.146697998E-1,-6.999359131E-1
8.344573975E0,9.546051025E-1,2.222595215E-1,-7.670440674E-1
8.349548340E0,1.141021729E0,3.777923584E-1,-8.554534912E-1
8.354522705E0,1.281646729E0,5.844421387E-1,-9.428100586E-1
8.359497071E0,1.368988037E0,8.209381104E-1,-1.031234741E0
8.364471436E0,1.426513672E0,1.031860352E0,-1.128173828E0
8.369445801E0,1.505355835E0,1.241714478E0,-1.203796387E0
8.373626709E0,1.636383057E0,1.481399536E0,-1.247482300E0
8.378204346E0,1.804687500E0,1.695526123E0,-1.251739502E0
8.382995606E0,1.977264404E0,1.824417114E0,-1.214447021E0
8.387847901E0,2.163681030E0,1.816955566E0,-1.150543213E0
8.392730713E0,2.359695435E0,1.692321777E0,-1.087692261E0
8.397644043E0,2.562088013E0,1.538925171E0,-1.025909424E0
8.402557373E0,2.752777100E0,1.384460449E0,-9.587860107E-1
8.407501221E0,2.906173706E0,1.224670410E0,-9.002075195E-1
8.412445069E0,3.025482178E0,1.019073486E0,-8.671722412E-1
8.417358399E0,3.106445312E0,8.134765625E-1,-8.575897217E-1
8.422302246E0,3.133071899E0,6.899108887E-1,-8.480072021E-1
8.427246094E0,3.135208130E0,5.791168213E-1,-8.586578369E-1
8.432159424E0,3.117095947E0,4.438323975E-1,-8.767700195E-1
8.437103272E0,3.075546265E0,3.074798584E-1,-8.724975586E-1
8.442047120E0,2.992462158E0,1.988220215E-1,-8.405456543E-1
8.446960450E0,2.891265869E0,1.530151367E-1,-8.043212891E-1
8.451904297E0,2.783660889E0,1.370391846E-1,-7.776947021E-1
8.456817627E0,2.700576782E0,9.655761719E-2,-7.308197021E-1
8.461761475E0,2.757034302E0,-2.347412109E-1,-7.265625000E-1
8.466705323E0,2.875274658E0,-7.364807129E-1,-7.201690674E-1
8.471618653E0,2.962631226E0,-1.167907715E0,-6.679687500E-1
8.476562500E0,2.992462158E0,-1.460861206E0,-5.933990479E-1
8.481475830E0,2.930679321E0,-1.578033447E0,-5.145721436E-1
8.486450196E0,2.817749023E0,-1.556732178E0,-4.197692871E-1
8.490661621E0,2.683532715E0,-1.380966187E0,-3.270874023E-1
8.495269776E0,2.525878906E0,-1.020904541E0,-2.631683350E-1
8.500061036E0,2.383132935E0,-5.276794434E-1,-1.971282959E-1
8.504943848E0,2.296844482E0,-3.128051758E-2,-1.609039307E-1
8.509857178E0,2.230789185E0,3.437042236E-1,-1.630401611E-1
8.514801026E0,2.117874146E0,6.568908691E-1,-1.800842285E-1
8.519775391E0,2.006027222E0,9.178771973E-1,-2.450561523E-1
8.524749756E0,1.938919067E0,9.988403320E-1,-3.132476807E-1
8.529724121E0,1.833450317E0,1.013748169E0,-3.856811523E-1
8.534698487E0,1.665145874E0,1.166076660E0,-5.209655762E-1
8.539672852E0,1.579910278E0,1.387664795E0,-6.488037109E-1
8.544647217E0,1.618270874E0,1.451568604E0,-7.467956543E-1
8.549621582E0,1.684310913E0,1.309890747E0,-8.362884521E-1
8.554595948E0,1.727996826E0,1.144775391E0,-8.874206543E-1
8.559570313E0,1.741836548E0,1.027603149E0,-9.108581543E-1
8.564544678E0,1.738647461E0,9.221343994E-1,-9.129791260E-1
8.569519043E0,1.713073730E0,8.997650146E-1,-9.374847412E-1
8.574493409E0,1.664077759E0,9.732666016E-1,-9.694366455E-1
8.579467774E0,1.607620239E0,1.082992554E0,-9.737091064E-1
8.584442139E0,1.551162720E0,1.196975708E0,-9.641113281E-1
8.589416504E0,1.479782104E0,1.331207275E0,-9.822235107E-1
8.594390870E0,1.390304565E0,1.471817017E0,-1.019515991E0
8.599365235E0,1.290161133E0,1.577270508E0,-1.053604126E0
8.604339600E0,1.200683594E0,1.642257690E0,-1.072769165E0
8.609313965E0,1.133575439E0,1.677413940E0,-1.078094482E0
8.614288330E0,1.073913574E0,1.688064575E0,-1.089813232E0
8.619262696E0,1.017456055E0,1.691253662E0,-1.101531982E0
8.624237061E0,9.567413330E-1,1.647583008E0,-1.108993530E0
8.629211426E0,9.024047852E-1,1.583663940E0,-1.116455078E0
8.634185791E0,8.534088135E-1,1.516555786E0,-1.113250732E0
8.639160157E0,8.022766113E-1,1.490982056E0,-1.094085693E0
8.644134522E0,7.362213135E-1,1.467559814E0,-1.074905396E0
8.649108887E0,6.563262939E-1,1.403640747E0,-1.056793213E0
8.654083252E0,5.828247070E-1,1.328002930E0,-1.026962280E0
8.659027100E0,4.976043701E-1,1.234268188E0,-9.790344238E-1
8.663970948E0,3.995971680E-1,1.144775391E0,-9.183044434E-1
8.668914795E0,2.845611572E-1,1.070205688E0,-8.607788086E-1
8.673858643E0,1.620483398E-1,1.023345947E0,-8.085937500E-1
8.678771973E0,4.167175293E-2,1.008422852E0,-7.649078369E-1
8.683715821E0,-6.803894043E-2,1.020141602E0,-7.404174805E-1
8.688659668E0,-1.766967773E-1,1.037185669E0,-7.169799805E-1
8.693572998E0,-2.779083252E-1,1.044647217E0,-6.956634521E-1
8.698516846E0,-3.812408447E-1,1.039321899E0,-6.903381348E-1
8.703430176E0,-4.835052490E-1,1.023345947E0,-6.977996826E-1
8.708374024E0,-5.772399902E-1,1.010559082E0,-7.041931152E-1
8.713317871E0,-6.699218750E-1,9.913787842E-1,-6.999359131E-1
8.718211133E0,-7.647247314E-1,9.679412842E-1,-6.796875000E-1
8.723154980E0,-8.520812988E-1,9.466400146E-1,-6.530609131E-1
8.728098828E0,-9.596710205E-1,9.146881104E-1,-6.360168457E-1
8.733012158E0,-1.082183838E0,8.869781494E-1,-6.189727783E-1
8.737956006E0,-1.215332031E0,8.656768799E-1,-5.902099609E-1
8.742869336E0,-1.346359253E0,8.486328125E-1,-5.593109131E-1
8.747813183E0,-1.474197388E0,8.475646973E-1,-5.305480957E-1
8.752726513E0,-1.607360840E0,8.486328125E-1,-5.039215088E-1
8.757670361E0,-1.742645264E0,8.220062256E-1,-4.751586914E-1
8.762644726E0,-1.874740601E0,7.559509277E-1,-4.527893066E-1
8.766856152E0,-1.999374390E0,6.835174561E-1,-4.357452393E-1
8.771464306E0,-2.115478516E0,6.270599365E-1,-4.112396240E-1
8.776255566E0,-2.214553833E0,5.823211670E-1,-3.846130371E-1
8.781138379E0,-2.282730103E0,5.503540039E-1,-3.473358154E-1
8.786051709E0,-2.330673218E0,5.258636475E-1,-2.983245850E-1
8.790995556E0,-2.370086670E0,5.184020996E-1,-2.482604980E-1
8.795969922E0,-2.397781372E0,5.301208496E-1,-1.800842285E-1
8.800944287E0,-2.395645142E0,5.482330322E-1,-8.953857422E-2
8.805918652E0,-2.335998535E0,5.663452148E-1,3.616333008E-2
8.810893017E0,-2.202835083E0,5.535583496E-1,2.044830322E-1
8.815867383E0,-1.998306274E0,5.184020996E-1,3.823699951E-1
8.820841748E0,-1.717071533E0,4.917755127E-1,5.070190430E-1
8.825816113E0,-1.379379272E0,4.470367432E-1,4.910278320E-1
8.830790478E0,-1.047027588E0,2.691345215E-1,3.035430908E-1
8.835764843E0,-6.827087402E-1,2.412414551E-2,6.492614746E-2
8.840739209E0,-2.384948730E-1,-1.516418457E-1,-1.459960938E-1
8.845713574E0,2.174377441E-1,-1.250152588E-1,-3.697052002E-1
8.850687939E0,6.073303223E-1,1.125335693E-1,-6.125793457E-1
8.855662304E0,8.970794678E-1,2.744598389E-1,-7.500000000E-1
8.860636670E0,1.093093872E0,3.852386475E-1,-8.160400391E-1
8.865611035E0,1.191101074E0,5.929718018E-1,-8.618469238E-1
8.870585400E0,1.207077026E0,8.337249756E-1,-8.639831543E-1
8.875559765E0,1.176177979E0,1.054229736E0,-8.139190674E-1
8.880534131E0,1.115463257E0,1.236389160E0,-7.265625000E-1
8.885508496E0,1.038757324E0,1.381271362E0,-6.242980957E-1
8.890482861E0,9.482116699E-1,1.492050171E0,-5.220336914E-1
8.895457226E0,8.395538330E-1,1.548507690E0,-4.400024414E-1
8.900431592E0,7.106628418E-1,1.520812988E0,-3.846130371E-1
8.905405957E0,5.807037354E-1,1.397247314E0,-3.505249023E-1
8.910380322E0,5.466156006E-1,1.173538208E0,-2.855377197E-1
8.915354687E0,5.849609375E-1,8.997650146E-1,-1.055145264E-1
8.920329052E0,5.636596680E-1,6.824493408E-1,2.023468018E-1
8.925303418E0,4.432830811E-1,5.972290039E-1,5.208587646E-1
8.930277783E0,2.984008789E-1,6.100158691E-1,7.307128906E-1
8.935221631E0,1.769714355E-1,6.355895996E-1,8.553619385E-1
8.940165478E0,9.173583984E-2,6.984252930E-1,9.661407471E-1
8.945109326E0,9.494018555E-2,8.124237061E-1,1.076934814E0
8.950053174E0,2.621917725E-1,7.431793213E-1,1.152557373E0
8.954966504E0,5.913543701E-1,1.988220215E-1,1.114212036E0
8.959910351E0,9.045410156E-1,-7.279510498E-1,9.331207275E-1
8.964823681E0,1.056869507E0,-1.680297852E0,6.859741211E-1
8.969767529E0,1.141021729E0,-2.504821777E0,4.867706299E-1
8.974711377E0,1.228378296E0,-3.097106934E0,3.504180908E-1
8.979624707E0,1.346618652E0,-3.327194214E0,1.767883301E-1
8.984568554E0,1.443557739E0,-3.247299194E0,-3.201293945E-2
8.989481884E0,1.361541748E0,-2.803085327E0,-1.705017090E-1
8.994425732E0,1.127182007E0,-1.983901978E0,-1.705017090E-1
8.999369580E0,8.821716309E-1,-1.035812378E0,-7.035827637E-2
9.004282910E0,6.914825439E-1,-2.880096436E-1,5.213928223E-2
9.009226758E0,5.146484375E-1,2.531585693E-1,1.363067627E-1
9.014170605E0,3.335571289E-1,7.506256104E-1,1.735839844E-1
9.019083935E0,1.503295898E-1,1.192718506E0,1.895599365E-1
9.024027783E0,-3.395080566E-2,1.449447632E0,2.438964844E-1
9.028941113E0,-2.075958252E-1,1.461166382E0,3.802490234E-1
9.033884961E0,-3.492736816E-1,1.258758545E0,5.815887451E-1
9.038859326E0,-4.366302490E-1,8.944396973E-1,8.116760254E-1
9.043070752E0,-4.611358643E-1,4.640808105E-1,1.055618286E0
9.047678906E0,-4.249114990E-1,7.844543457E-2,1.278259277E0
9.052470166E0,-3.492736816E-1,-2.560424805E-1,1.466812134E0
9.057352978E0,-2.928161621E-1,-5.862731934E-1,1.619155884E0
9.062266308E0,-3.087921143E-1,-9.058532715E-1,1.722473145E0
9.067210156E0,-4.036102295E-1,-1.161514282E0,1.793853760E0
9.072184521E0,-5.570068359E-1,-1.295745850E0,1.882263184E0
9.077158886E0,-7.498168945E-1,-1.298934937E0,2.003707886E0
9.082133252E0,-9.713897705E-1,-1.220108032E0,2.162429810E0
9.087107617E0,-1.218536377E0,-1.073104858E0,2.404251099E0
9.092081982E0,-1.446502686E0,-8.898773193E-1,2.684417725E0
9.097056347E0,-1.602020264E0,-6.789550781E-1,2.929428101E0
9.102030713E0,-1.700027466E0,-4.627075195E-1,3.078567505E0
9.107005078E0,-1.749038696E0,-2.975921631E-1,3.018905640E0
9.111979443E0,-1.762878418E0,-2.581787109E-1,2.695068359E0
9.116953808E0,-1.876861572E0,-4.275512695E-1,2.148590088E0
9.121928174E0,-2.222015381E0,-7.865447998E-1,1.523269653E0
9.126902539E0,-2.737594604E0,-1.195602417E0,1.000228882E0
9.131876904E0,-3.268096924E0,-1.580169678E0,5.943603516E-1
9.136851269E0,-3.687820435E0,-1.880569458E0,2.492218018E-1
9.141825634E0,-3.914718628E0,-2.022247314E0,-1.496887207E-2
9.146800000E0,-3.963714600E0,-1.967926025E0,-1.534576416E-1
9.151774365E0,-3.918975830E0,-1.765518188E0,-1.896667480E-1
9.156748730E0,-3.843338013E0,-1.510925293E0,-1.843414307E-1
9.161723095E0,-3.757049561E0,-1.286148071E0,-1.726226807E-1
9.166697461E0,-3.626022339E0,-1.127426147E0,-1.854095459E-1
9.171671826E0,-3.419372559E0,-1.043273926E0,-2.269592285E-1
9.176646191E0,-3.126419067E0,-9.921417236E-1,-2.812805176E-1
9.181620556E0,-2.756774902E0,-9.612426758E-1,-3.334808350E-1
9.186594922E0,-2.340255737E0,-9.996032715E-1,-3.792877197E-1
9.191569287E0,-1.912017822E0,-1.101867676E0,-4.176330566E-1
9.196543652E0,-1.509353638E0,-1.236083984E0,-4.368133545E-1
9.201518017E0,-1.151412964E0,-1.342620850E0,-4.389343262E-1
9.206492383E0,-8.424987793E-1,-1.398010254E0,-4.357452393E-1
9.211436230E0,-6.070709229E-1,-1.471511841E0,-4.357452393E-1
9.216380078E0,-4.568634033E-1,-1.602539062E0,-4.261627197E-1
9.221323926E0,-3.791046143E-1,-1.702667236E0,-3.760833740E-1
9.226237256E0,-3.663177490E-1,-1.744216919E0,-3.292236328E-1
9.231181103E0,-4.217071533E-1,-1.715454102E0,-3.270874023E-1
9.236124951E0,-5.442199707E-1,-1.608932495E0,-3.569183350E-1
9.241038281E0,-6.891021729E-1,-1.418243408E0,-3.846130371E-1
9.245982129E0,-8.126678467E-1,-1.152999878E0,-3.920745850E-1
9.250895459E0,-9.021453857E-1,-8.760223389E-1,-3.782196045E-1
9.255839306E0,-9.564819336E-1,-6.214294434E-1,-3.398742676E-1
9.260783154E0,-9.841766357E-1,-4.243621826E-1,-3.004608154E-1
9.265696484E0,-9.916381836E-1,-2.965240479E-1,-2.567749023E-1
9.270640332E0,-9.682006836E-1,-2.134399414E-1,-1.960601807E-1
9.275584179E0,-9.309082031E-1,-1.942596436E-1,-1.353454590E-1
9.280497509E0,-8.819122314E-1,-2.400665283E-1,-6.929016113E-2
9.285441357E0,-8.329010010E-1,-3.263549805E-1,8.468627930E-3
9.290354687E0,-7.934875488E-1,-4.531250000E-1,7.878112793E-2
9.295298535E0,-7.689971924E-1,-6.182403564E-1,1.448211670E-1
9.300242383E0,-7.732543945E-1,-7.876129150E-1,2.119293213E-1
9.305155713E0,-8.137359619E-1,-9.644470215E-1,2.598724365E-1
9.310099560E0,-8.605957031E-1,-1.128494263E0,2.886352539E-1
9.315073926E0,-9.053497314E-1,-1.248870850E0,3.152618408E-1
9.319285351E0,-9.500885010E-1,-1.325576782E0,3.450927734E-1
9.323862988E0,-9.916381836E-1,-1.374572754E0,3.877105713E-1
9.328654248E0,-1.038497925E0,-1.406524658E0,4.335174561E-1
9.333537060E0,-1.094955444E0,-1.429962158E0,4.729309082E-1
9.338450390E0,-1.146087646E0,-1.431030273E0,5.123443604E-1
9.343394238E0,-1.195098877E0,-1.402267456E0,5.528259277E-1
9.348368603E0,-1.235580444E0,-1.342620850E0,5.901031494E-1
9.353342968E0,-1.272857666E0,-1.245681763E0,6.231231689E-1
9.358317334E0,-1.310150146E0,-1.106124878E0,6.486968994E-1
9.363291699E0,-1.349563599E0,-9.346160889E-1,6.636047363E-1
9.368266064E0,-1.398559570E0,-7.535247803E-1,6.668090820E-1
9.373240429E0,-1.468872070E0,-5.607147217E-1,6.625366211E-1
9.378214795E0,-1.554092407E0,-3.540496826E-1,6.604156494E-1
9.383189160E0,-1.646774292E0,-1.441955566E-1,6.497650146E-1
9.388163525E0,-1.731994629E0,5.928039551E-2,6.337738037E-1
9.393137890E0,-1.798034668E0,2.446289062E-1,6.177978516E-1
9.398112256E0,-1.843841553E0,3.905639648E-1,6.135406494E-1
9.403086621E0,-1.844909668E0,4.672698975E-1,6.146087646E-1
9.408060986E0,-1.777801514E0,4.214630127E-1,6.039581299E-1
9.413035351E0,-1.646774292E0,2.499542236E-1,5.922393799E-1
9.418009717E0,-1.428390503E0,1.240539551E-2,5.794525146E-1
9.422984082E0,-1.126922607E0,-2.496490479E-1,5.688018799E-1
9.427958447E0,-7.753753662E-1,-5.447235107E-1,5.624084473E-1
9.432932812E0,-4.174499512E-1,-8.525848389E-1,5.411071777E-1
9.437907177E0,-8.189392090E-2,-1.115707397E0,5.187377930E-1
9.442881543E0,1.940155029E-1,-1.263778687E0,5.006256104E-1
9.447855908E0,3.815002441E-1,-1.278701782E0,4.761199951E-1
9.452830273E0,4.912109375E-1,-1.170043945E0,4.388427734E-1
9.457804638E0,5.519409180E-1,-9.474029541E-1,4.111328125E-1
9.462779004E0,5.615234375E-1,-7.205047607E-1,3.887634277E-1
9.467753369E0,5.125274658E-1,-5.468597412E-1,3.632049561E-1
9.472727734E0,4.038696289E-1,-4.392700195E-1,3.333740234E-1
9.477702099E0,2.547302246E-1,-4.009246826E-1,2.779846191E-1
9.482676465E0,9.600830078E-2,-4.179687500E-1,1.821136475E-1
9.487620312E0,-5.099487305E-2,-4.552459717E-1,6.492614746E-2
9.492564160E0,-1.671142578E-1,-4.339447021E-1,-6.184387207E-2
9.497508008E0,-2.576599121E-1,-3.306121826E-1,-1.854095459E-1
9.502451855E0,-3.450164795E-1,-1.473846436E-1,-3.164367676E-1
9.507365185E0,-4.291687012E-1,8.058166504E-2,-4.581146240E-1
9.512309033E0,-4.600677490E-1,3.223876953E-1,-5.795593262E-1
9.517252881E0,-3.716430664E-1,5.013580322E-1,-6.722412109E-1
9.522196728E0,-1.202392578E-1,5.343780518E-1,-7.521362305E-1
9.527110058E0,2.866821289E-1,4.512939453E-1,-8.043212891E-1
9.532053906E0,7.767028809E-1,2.946929932E-1,-8.416137695E-1
9.536967236E0,1.239028931E0,1.253204346E-1,-8.991394043E-1
9.541911084E0,1.595901489E0,6.886291504E-2,-9.481353760E-1
9.546854931E0,1.846237183E0,1.668701172E-1,-1.009918213E0
9.551768261E0,2.027328491E0,4.438323975E-1,-1.058929443E0
9.556712109E0,2.174331665E0,8.433074951E-1,-1.080230713E0
9.561625439E0,2.294708252E0,1.240646362E0,-1.082366943E0
9.566569287E0,2.415084839E0,1.609237671E0,-1.039749146E0
9.571513134E0,2.547180176E0,1.877685547E0,-9.683837891E-1
9.576426465E0,2.666488647E0,1.920288086E0,-9.257659912E-1
9.581370312E0,2.765563965E0,1.712570190E0,-9.619903564E-1
9.586283642E0,2.848648071E0,1.428146362E0,-1.023773193E0
9.591258008E0,2.937057495E0,1.206558228E0,-1.049331665E0
9.595469433E0,3.029739380E0,9.967041016E-1,-1.062118530E0
9.600047070E0,3.113891602E0,7.879180908E-1,-1.065322876E0
9.604838330E0,3.178878784E0,6.632843018E-1,-1.046142578E0
9.609721142E0,3.194854736E0,6.366424561E-1,-1.047210693E0
9.614634472E0,3.179946899E0,6.046905518E-1,-1.096206665E0
9.619578320E0,3.141601562E0,6.185455322E-1,-1.134552002E0
9.624552685E0,3.049987793E0,6.110839844E-1,-1.123901367E0
9.629527051E0,2.932800293E0,5.130767822E-1,-1.054656982E0
9.634501416E0,2.830535889E0,3.756561279E-1,-9.097900391E-1
9.639475781E0,2.856109619E0,9.201049805E-3,-8.171081543E-1
9.644450146E0,2.981811523E0,-5.671081543E-1,-7.808837891E-1
9.649424511E0,3.098983765E0,-1.086944580E0,-7.254943848E-1
9.654398877E0,3.169296265E0,-1.540756226E0,-6.679687500E-1
9.659373242E0,3.122421265E0,-1.803878784E0,-5.731658936E-1
9.664347607E0,2.947723389E0,-1.735702515E0,-4.613189697E-1
9.669321972E0,2.753845215E0,-1.433166504E0,-3.739624023E-1
9.674296338E0,2.602569580E0,-1.003860474E0,-2.962036133E-1
9.679270703E0,2.477935791E0,-4.669647217E-1,-2.141723633E-1
9.684245068E0,2.404434204E0,5.928039551E-2,-1.225585938E-1
9.689219433E0,2.358627319E0,4.140014648E-1,-4.373168945E-2
9.694193799E0,2.269149780E0,6.664733887E-1,-3.308105469E-2
9.699168164E0,2.162612915E0,7.921752930E-1,-4.479980469E-2
9.704142529E0,2.002822876E0,8.944396973E-1,-4.905700684E-2
9.709116894E0,1.794036865E0,1.111755371E0,-1.427917480E-1
9.714091259E0,1.651290894E0,1.355697632E0,-2.962036133E-1
9.719065625E0,1.549026489E0,1.653976440E0,-4.794158936E-1
9.724039990E0,1.529846191E0,1.736007690E0,-6.818237305E-1
9.729014355E0,1.629989624E0,1.475006104E0,-8.032684326E-1
9.733988720E0,1.739700317E0,1.134124756E0,-8.682403564E-1
9.738963086E0,1.787643433E0,8.230743408E-1,-9.023284912E-1
9.743937451E0,1.813217163E0,5.801849365E-1,-9.279022217E-1
9.748911816E0,1.827056885E0,5.162658691E-1,-9.566650391E-1
9.753886181E0,1.806823730E0,6.504974365E-1,-9.886169434E-1
9.758860547E0,1.767410278E0,8.497009277E-1,-1.004592896E0
9.763834912E0,1.712005615E0,1.046768188E0,-1.001403809E0
9.768778759E0,1.642761230E0,1.222549438E0,-9.896850586E-1
9.773722607E0,1.573532104E0,1.356765747E0,-9.747619629E-1
9.778666455E0,1.485107422E0,1.468612671E0,-9.726409912E-1
9.783610302E0,1.382843018E0,1.547454834E0,-9.950103760E-1
9.788523633E0,1.298690796E0,1.566619873E0,-1.003524780E0
9.793436963E0,1.224121094E0,1.550643921E0,-1.007797241E0
9.798380810E0,1.126113892E0,1.516555786E0,-1.022705078E0
9.803324658E0,1.016387939E0,1.459030151E0,-1.041885376E0
9.808237988E0,9.034729004E-1,1.383392334E0,-1.070648193E0
9.813181836E0,7.969512939E-1,1.339721680E0,-1.093017578E0
9.818125683E0,6.904144287E-1,1.338653564E0,-1.113250732E0
9.823039013E0,5.956115723E-1,1.368484497E0,-1.135620117E0
9.827982861E0,5.061340332E-1,1.374877930E0,-1.138824463E0
9.832926709E0,4.198455811E-1,1.361022949E0,-1.129226685E0
9.837840039E0,3.250427246E-1,1.237457275E0,-1.097274780E0
9.842783886E0,2.494049072E-1,1.114944458E0,-1.018447876E0
9.847727734E0,1.577911377E-1,1.161819458E0,-9.747619629E-1
9.852641064E0,4.060363770E-2,1.138381958E0,-9.662475586E-1
9.857584912E0,-5.952453613E-2,1.113891602E0,-9.161834717E-1
9.862498242E0,-1.660461426E-1,1.122406006E0,-8.650512695E-1
9.867472607E0,-2.789611816E-1,1.110687256E0,-8.171081543E-1
9.871684033E0,-3.822937012E-1,1.067016602E0,-7.670440674E-1
9.876261670E0,-4.792327881E-1,1.006301880E0,-7.052612305E-1
9.881052929E0,-5.878906250E-1,9.114837646E-1,-6.711730957E-1
9.885935742E0,-6.965484619E-1,8.241271973E-1,-6.605224609E-1
9.890849072E0,-8.062744141E-1,7.431793213E-1,-6.381530762E-1
9.895792920E0,-9.245147705E-1,6.696777344E-1,-6.125793457E-1
9.900767285E0,-1.040634155E0,6.206665039E-1,-5.816802979E-1
