"Time (s)","Acceleration x (m/s^2)","Acceleration y (m/s^2)","Acceleration z (m/s^2)"
0.000000000E0,-8.463503122E-1,5.170278549E0,7.933187485E0
9.921905000E-3,-7.745242715E-1,5.088875771E0,7.947552681E0
2.004179900E-2,-7.026981711E-1,5.060145378E0,7.923610687E0
3.010880400E-2,-6.069301367E-1,4.959589005E0,7.765593052E0
4.023187800E-2,-6.404489279E-1,4.973954201E0,7.803900242E0
5.020437900E-2,-7.218518257E-1,4.983530998E0,7.842207432E0
6.034494100E-2,-9.708487988E-1,5.002684593E0,7.937975883E0
7.045219000E-2,-9.469067454E-1,5.045780182E0,8.000225067E0
8.044453700E-2,-9.229647517E-1,5.017049789E0,7.952341080E0
9.051020700E-2,-8.607155085E-1,5.031414986E0,7.851784706E0
1.005795760E-1,-7.314286232E-1,5.040991783E0,7.703343868E0
1.106262690E-1,-6.931213737E-1,5.031414986E0,7.712920666E0
1.207287910E-1,-6.739677787E-1,4.997896194E0,7.712920666E0
1.308244150E-1,-6.931213737E-1,4.930858612E0,7.952341080E0
1.409084610E-1,-7.457938194E-1,4.926070213E0,8.019378662E0
1.509763930E-1,-7.793126702E-1,4.911705017E0,8.158242226E0
1.611270250E-1,-8.511387110E-1,4.897339344E0,8.182184219E0
1.711838600E-1,-9.564836025E-1,4.935647011E0,8.225279808E0
1.813310790E-1,-9.421183467E-1,4.969165802E0,8.196549416E0
1.912553910E-1,-9.181763530E-1,5.021838188E0,8.057685852E0
2.014556290E-1,-7.841010690E-1,5.084087372E0,7.717709064E0
2.114342860E-1,-7.170634270E-1,5.131971359E0,7.550115108E0
2.215352390E-1,-7.218518257E-1,5.184643745E0,7.502231121E0
2.315592490E-1,-7.745242715E-1,5.218162537E0,7.483077526E0
2.416253830E-1,-8.942343593E-1,5.151124954E0,7.602787495E0
2.516911510E-1,-9.421183467E-1,5.103240967E0,7.684190273E0
2.618384790E-1,-9.804255962E-1,5.088875771E0,7.717709064E0
2.719025600E-1,-9.947907925E-1,5.103240967E0,7.708132267E0
2.820591860E-1,-7.888894677E-1,5.117606163E0,7.665036678E0
2.920614700E-1,-8.367735147E-1,5.026626587E0,7.641094685E0
3.021757240E-1,-6.883329749E-1,4.950012207E0,7.602787495E0
3.121285800E-1,-6.500257850E-1,4.873397350E0,7.679401875E0
3.223355970E-1,-7.074866295E-1,4.772840977E0,7.736862659E0
3.322906100E-1,-7.553706169E-1,4.720168591E0,7.717709064E0
3.423400790E-1,-8.702923059E-1,4.744110584E0,7.578845501E0
3.524283980E-1,-9.277531505E-1,4.839878559E0,7.645883083E0
3.625838760E-1,-8.511387110E-1,4.964377403E0,7.372944355E0
3.725716950E-1,-7.505822182E-1,5.055356979E0,6.649895191E0
3.826540670E-1,-7.745242715E-1,5.045780182E0,6.702567577E0
3.927123050E-1,-7.888894677E-1,5.007472992E0,6.836642742E0
4.029525600E-1,-9.277531505E-1,4.863820553E0,6.764816761E0
4.128933700E-1,-1.234210968E0,4.945223808E0,6.760028362E0
4.229452290E-1,-1.411381960E0,4.945223808E0,6.831854343E0
4.330804050E-1,-1.502361536E0,4.868608952E0,6.894104004E0
4.431052850E-1,-1.617283225E0,4.624400616E0,6.721721172E0
4.531576200E-1,-1.487996340E0,4.758475780E0,6.443994045E0
4.633073930E-1,-1.315613866E0,4.897339344E0,5.989095688E0
4.733847820E-1,-1.267729759E0,5.007472992E0,5.601234913E0
4.833945990E-1,-1.392228246E0,5.376179695E0,5.438429356E0
4.934490340E-1,-1.741781712E0,5.433640957E0,5.534197330E0
5.035486860E-1,-2.019509077E0,5.448006153E0,5.941211700E0
5.135983380E-1,-3.302801132E0,5.309142113E0,6.185420036E0
5.237594790E-1,-4.198232651E0,5.380968094E0,7.071274757E0
5.337698380E-1,-4.356249809E0,5.591658115E0,8.158242226E0
5.438336860E-1,-4.552574635E0,5.414487362E0,8.383296967E0
5.538814700E-1,-3.537432909E0,4.940435410E0,7.483077526E0
5.639611220E-1,-2.483984232E0,5.031414986E0,6.827065945E0
5.740924900E-1,-2.129642487E0,5.179855347E0,6.046556473E0
5.841143390E-1,-2.488772631E0,5.242104530E0,5.950788498E0
5.941846320E-1,-2.483984232E0,5.060145378E0,6.113594055E0
6.042768650E-1,-2.297236443E0,4.859032154E0,6.314706802E0
6.143434260E-1,-2.263717651E0,4.499902248E0,6.582857609E0
6.243927180E-1,-2.732981205E0,3.963600874E0,7.947552681E0
6.344713290E-1,-3.207033157E0,3.743334293E0,8.196549416E0
6.445610070E-1,-3.623624325E0,3.642777920E0,8.526948929E0
6.546272820E-1,-4.217386246E0,3.436876535E0,7.119158745E0
6.646960030E-1,-4.384980202E0,4.389768600E0,5.931634903E0
6.748365120E-1,-3.609259129E0,4.705803394E0,5.515043736E0
6.848414040E-1,-3.298012733E0,4.064157486E0,4.557363033E0
6.949430230E-1,-2.115277290E0,3.958812475E0,4.361038208E0
7.050136550E-1,-2.747346401E0,3.752911091E0,4.758475780E0
7.150930140E-1,-3.954024076E0,3.561375141E0,5.649118900E0
7.251934110E-1,-3.977966070E0,3.379415751E0,7.353790283E0
7.352031380E-1,-3.757699490E0,2.814383984E0,7.923610687E0
7.452657250E-1,-3.815160513E0,2.670732021E0,7.392097950E0
7.554096300E-1,-4.135983467E0,3.092111588E0,3.614047527E0
7.654341790E-1,-4.246116638E0,3.197456360E0,2.536656618E0
7.755057940E-1,-4.150348663E0,2.934094191E0,3.139995575E0
7.855567040E-1,-3.575740337E0,2.737769604E0,4.322731018E0
7.956563400E-1,-2.488772631E0,1.272518158E0,2.402581453E0
8.057850850E-1,-7.085639954E0,3.292027414E-1,1.066616893E0
8.157889270E-1,-8.024167061E0,-1.042674899E0,-1.847126603E0
8.258783630E-1,-5.194220543E0,-7.888894677E-1,1.521515131E0
8.359533020E-1,-3.029862165E0,1.376665980E-1,2.833537817E0
8.460235970E-1,-5.829881430E-1,1.449689150E0,3.786429882E0
8.561303370E-1,1.387439847E0,2.737769604E0,5.146336555E0
8.661784260E-1,1.425747156E0,1.885433793E0,7.291541100E0
8.762527540E-1,-1.376665980E-1,3.818751574E-1,7.799111843E0
8.863289130E-1,-1.329979062E0,-5.781996846E-1,8.392873764E0
8.963764770E-1,-2.862268209E0,-1.899798989E0,9.216479301E0
9.064916260E-1,-4.021061897E0,-3.168725967E0,9.139864922E0
9.165596470E-1,-5.390544891E0,-4.399345398E0,8.383296967E0
9.266124820E-1,-6.764816761E0,-5.131971359E0,6.946776390E0
9.367343310E-1,-8.541314125E0,-5.443217754E0,3.499125719E0
9.468094820E-1,-9.235632896E0,-6.755239964E0,-2.436100245E0
9.568146690E-1,-9.460687637E0,-7.655459881E0,-4.452018261E0
9.668671820E-1,-5.831078053E0,-7.296329498E0,-5.159504414E-1
9.769395710E-1,-3.111265182E0,-6.099228859E0,3.676296711E0
9.870829640E-1,-3.579331636E-1,-4.911705017E0,7.416039944E0
9.971661850E-1,1.148019671E0,-4.801571369E0,1.150533581E1
1.007158039E0,-6.405686855E0,-6.463147640E0,1.579574585E1
1.017254343E0,-9.154230118E0,-8.325836182E0,1.400967121E1
1.027304908E0,-8.871714592E0,-8.842984200E0,1.220444298E1
1.037377083E0,-7.047332764E0,-9.034520149E0,9.082404137E0
1.047431393E0,-7.262810707E0,-9.671378136E0,7.511807919E0
1.057558246E0,-8.081627846E0,-1.049977112E1,6.151901245E0
1.067656420E0,-9.206902504E0,-1.071525002E1,5.452794552E0
1.077673327E0,-9.063250542E0,-1.037048435E1,7.181407928E0
1.087724209E0,-7.861361504E0,-1.020289040E1,8.910021782E0
1.097804999E0,-7.080851555E0,-9.934740067E0,1.032738876E1
1.107907204E0,-6.860584736E0,-9.115922928E0,1.157237434E1
1.118001975E0,-6.769605160E0,-8.675390244E0,1.174954510E1
1.128006081E0,-6.496666431E0,-8.378508568E0,1.167771912E1
1.138161906E0,-5.998672485E0,-8.258798599E0,1.139041424E1
1.148239218E0,-4.222174644E0,-7.832630634E0,1.025556278E1
1.158283145E0,-4.083311081E0,-7.856573105E0,1.012148762E1
1.168301478E0,-3.915716887E0,-8.057685852E0,9.757569313E0
1.178452515E0,-3.345896959E0,-9.039308548E0,8.435969353E0
1.188579427E0,-3.374627352E0,-9.350554466E0,7.487865925E0
1.198625869E0,-3.901351690E0,-9.374496460E0,6.525396824E0
1.208676158E0,-5.572504520E0,-9.757569313E0,6.190208435E0
1.218739384E0,-6.319495201E0,-9.786299706E0,6.266822815E0
1.228880465E0,-6.515820026E0,-1.009275723E1,6.353013992E0
1.238911375E0,-6.573280811E0,-1.077271080E1,7.037755966E0
1.248983810E0,-4.801571369E0,-1.199375343E1,7.511807919E0
1.259073566E0,-4.557363033E0,-1.205121422E1,7.454347134E0
1.269090646E0,-5.428852558E0,-1.236724854E1,7.186196327E0
1.279224339E0,-7.507019520E0,-1.262103462E1,5.912481308E0
1.289287290E0,-8.919598579E0,-1.256836224E1,4.988319397E0
1.299289802E0,-1.024598598E1,-1.264018822E1,4.485537052E0
1.309344701E0,-1.014064121E1,-1.254442024E1,4.356249809E0
1.319599890E0,-7.832630634E0,-1.156279755E1,4.988319397E0
1.329536779E0,-7.018602371E0,-1.177827549E1,6.204573631E0
1.339669710E0,-6.295553207E0,-1.208952141E1,7.243657112E0
1.349755674E0,-6.467936039E0,-1.201769543E1,8.005013466E0
1.359780940E0,-6.611588001E0,-1.098818874E1,7.612364292E0
1.369831700E0,-5.802347660E0,-1.096424675E1,6.587646008E0
1.380043613E0,-5.912481308E0,-1.148139381E1,5.045780182E0
1.390044102E0,-7.310694695E0,-1.109353352E1,2.100912094E0
1.400203355E0,-6.582857609E0,-1.123718548E1,2.426523447E0
1.410199343E0,-6.099228859E0,-1.100255394E1,1.114500880E0
1.420237642E0,-4.399345398E0,-1.201290703E1,-1.520318091E-1
1.430343715E0,-5.754463673E0,-1.260666943E1,3.531447649E-1
1.440437128E0,-6.233304024E0,-1.130901146E1,-1.205480576E0
1.450444174E0,-5.428852558E0,-1.108874512E1,-3.962403834E-1
1.460564677E0,-6.755239964E0,-8.129511833E0,2.047042400E-1
1.470649620E0,-6.142324448E0,-7.167042732E0,1.057040095E0
1.480755169E0,-1.329979062E0,-8.651448250E0,6.548141837E-1
1.490734228E0,1.109712481E0,-1.076313400E1,-2.382230759E-1
1.500901881E0,-2.621650994E-1,-1.053328991E1,-6.381744862E0
1.510943024E0,-1.224634171E0,-9.408015251E0,-8.464699745E0
1.521088122E0,-2.196680069E0,-1.023162079E1,-7.047332764E0
1.531032224E0,-4.873397350E0,-8.306682587E0,-7.143100739E0
1.541153662E0,-5.515043736E0,-7.243657112E0,-3.925293684E0
1.551176656E0,-5.179855347E0,-6.353013992E0,-5.638344884E-1
1.561281362E0,-2.551021814E0,-5.548562527E0,4.073734283E0
1.571424416E0,-1.363497853E0,-5.275623322E0,4.212597847E0
1.581512869E0,-7.697358727E-1,-5.275623322E0,3.254917145E0
1.591557763E0,-1.080982089E0,-6.228515625E0,-3.232172132E-2
1.601708710E0,-1.368286252E0,-6.501454830E0,-1.899798989E0
1.611675440E0,-1.650802016E0,-6.127959251E0,-2.498349428E0
1.621723709E0,-1.957259893E0,-5.864596844E0,-2.340332270E0
1.631812512E0,-1.914164305E0,-5.783194065E0,-1.176750183E0
1.641946583E0,-1.923741102E0,-5.993884087E0,-6.739677787E-1
1.652028990E0,-2.383427858E0,-6.190208435E0,2.274491638E-2
1.662093413E0,-3.910928488E0,-6.424840450E0,2.115277290E0
1.672239110E0,-4.131195068E0,-6.956353188E0,2.651578426E0
1.682265814E0,-3.915716887E0,-7.420828342E0,2.766499996E0
1.692383922E0,-4.226963043E0,-7.894880295E0,2.632424831E0
1.702321403E0,-3.882198095E0,-8.033743858E0,1.011669922E1
1.712369092E0,-4.930858612E0,-8.412027359E0,1.267729759E0
1.722462992E0,-5.414487362E0,-8.752004623E0,-4.010287821E-1
1.732535722E0,-5.084087372E0,-9.934740067E0,-3.144783974E0
1.742622141E0,-4.734533787E0,-1.016937160E1,-3.101688385E0
1.752662133E0,-4.255693436E0,-1.006402683E1,-2.709039211E0
1.762835772E0,-3.915716887E0,-9.724050522E0,-1.909375906E0
1.772955516E0,-3.044227362E0,-9.690531731E0,-1.109712481E0
1.782912747E0,-2.857479811E0,-9.709685326E0,-9.900023937E-1
1.793028435E0,-2.766499996E0,-9.570821762E0,-9.516952038E-1
1.803208428E0,-1.947683096E0,-9.513360023E0,-1.473631144E0
1.813191756E0,-1.674744129E0,-9.709685326E0,-1.933317900E0
1.823211020E0,-1.942894697E0,-9.862914085E0,-2.436100245E0
1.833264891E0,-2.752134800E0,-9.982624054E0,-2.263717651E0
1.843416935E0,-4.815936565E0,-1.034654236E1,3.962403834E-1
1.853463875E0,-4.820724964E0,-9.910798073E0,2.096123695E0
1.863485861E0,-4.859032154E0,-9.398438454E0,2.613271236E0
1.873542924E0,-2.742558002E0,-8.435969353E0,8.607155085E-1
1.883688412E0,-1.938106298E0,-8.325836182E0,-1.999158412E-1
1.893716852E0,-1.545457244E0,-8.689755440E0,-9.756371975E-1
1.903785064E0,-3.417722940E0,-9.695320129E0,-1.521515131E0
1.913855812E0,-4.040215492E0,-1.069609642E1,-9.325415492E-1
1.923936866E0,-3.796006680E0,-1.059554005E1,-1.799242616E0
1.934002213E0,-4.226963043E0,-1.040879154E1,-1.875856996E0
1.944076309E0,-2.234987259E0,-9.532513618E0,-3.483563364E-1
1.954150923E0,-2.819172382E0,-9.484629631E0,5.446808934E-1
1.964249899E0,-4.255693436E0,-9.633070946E0,-4.153940082E-1
1.974333915E0,-4.586093426E0,-9.551667213E0,-1.109712481E0
1.984408830E0,-3.580528736E0,-9.369708061E0,-7.266402245E-1
1.994458213E0,-4.006696701E0,-9.657012939E0,-7.505822182E-1
2.004544170E0,-3.815160513E0,-9.671378136E0,-1.286883354E0
2.014612431E0,-3.661931515E0,-9.422380447E0,-2.043451071E0
2.024682965E0,-3.470395327E0,-9.317035675E0,-1.478419542E0
2.034744841E0,-3.920505285E0,-9.293093681E0,-5.626374111E-2
2.044835081E0,-4.806359768E0,-9.647436142E0,5.973533392E-1
2.055040291E0,-3.532644510E0,-1.004008484E1,-1.454477549E0
2.064988780E0,-3.331531763E0,-9.800664902E0,-2.685097218E0
2.075042959E0,-3.154360771E0,-9.953893661E0,-2.330755472E0
2.085141322E0,-3.183091164E0,-9.542090416E0,-1.080982089E0
2.095205264E0,-2.986766577E0,-9.072827339E0,-5.542576909E-1
2.105269704E0,-2.981978178E0,-8.694543839E0,-9.612720013E-1
2.115338820E0,-3.049015760E0,-9.125499725E0,-5.686228871E-1
2.125420168E0,-2.723404408E0,-8.943540573E0,-4.441244006E-1
2.135470294E0,-2.981978178E0,-9.388861656E0,-7.457938194E-1
2.145547032E0,-3.274070740E0,-9.743204117E0,-1.425747156E0
2.155671072E0,-3.264493942E0,-9.580398560E0,-2.033874273E0
2.165718726E0,-3.149572372E0,-9.494206429E0,-1.813607812E0
2.175770684E0,-2.924517393E0,-9.202114105E0,-1.301248670E0
2.185871390E0,-2.469619036E0,-9.044096947E0,-8.080430627E-1
2.195929786E0,-2.536656618E0,-9.293093681E0,-1.344344258E0
2.206021166E0,-3.173514366E0,-9.829395294E0,-2.364274263E0
2.216156829E0,-3.446453333E0,-1.018373680E1,-1.875856996E0
2.226186646E0,-3.427299738E0,-1.044231033E1,-1.028309584E0
2.236230360E0,-3.202244759E0,-1.019331360E1,-1.353921056E0
2.246330295E0,-3.092111588E0,-9.838972092E0,-1.344344258E0
2.256379991E0,-2.685097218E0,-8.886079788E0,-8.894459605E-1
2.266450778E0,-2.756923199E0,-8.795100212E0,-5.494692922E-1
2.276528572E0,-2.661155224E0,-8.814253807E0,-7.026981711E-1
2.286741416E0,-2.819172382E0,-9.168595314E0,-1.023521185E0
2.296692459E0,-2.819172382E0,-9.709685326E0,-1.238999367E0
2.306878438E0,-2.929305792E0,-9.771934509E0,-1.382651448E0
2.316844901E0,-2.642001629E0,-9.886856079E0,-1.349132657E0
2.326999493E0,-2.914940596E0,-9.867702484E0,-1.464054346E0
2.337130664E0,-3.005920172E0,-9.791088104E0,-1.684320927E0
2.347178942E0,-2.953247786E0,-9.791088104E0,-1.914164305E0
2.357299167E0,-2.981978178E0,-9.795876503E0,-1.444900751E0
2.367408245E0,-2.938882589E0,-9.556455612E0,-5.734112859E-1
2.377387381E0,-2.948459387E0,-9.269151688E0,-4.058171809E-1
2.387540876E0,-3.245340347E0,-9.005789757E0,3.914519846E-1
2.397560986E0,-2.579752445E0,-9.283516884E0,-1.042674899E0
2.407594787E0,-2.646790028E0,-9.767146111E0,-2.072181463E0
2.417769509E0,-2.474407434E0,-1.030823517E1,-3.063380957E0
2.427720641E0,-3.685873508E0,-1.069130802E1,-1.444900751E0
2.437786942E0,-3.039438963E0,-1.003529644E1,-1.013944387E0
2.447959771E0,-3.278859138E0,-1.019810200E1,-6.596025825E-1
2.457934956E0,-2.871845007E0,-1.035133076E1,2.274491638E-2
2.467998976E0,-3.135207176E0,-9.187748909E0,-2.956839204E-1
2.478155691E0,-1.823184609E0,-8.335412979E0,-2.525882721E-1
2.488317060E0,-2.531868219E0,-8.220491409E0,-4.776432514E-1
2.498300012E0,-3.331531763E0,-9.436745644E0,-1.646013618E0
2.508368586E0,-2.761711597E0,-9.666589737E0,-1.057040095E0
2.518439449E0,-3.034650564E0,-9.776722908E0,-2.450465441E0
2.528477825E0,-1.962048292E0,-9.556455612E0,-2.268506050E0
2.538583391E0,-3.159149170E0,-9.154230118E0,-1.181538582E0
2.548693060E0,-2.527079821E0,-8.196549416E0,-9.181763530E-1
2.558731380E0,-2.234987259E0,-7.679401875E0,-5.877765417E-1
2.568831511E0,-1.914164305E0,-9.168595314E0,-1.104924083E0
2.578883524E0,-1.856703401E0,-1.023640919E1,-1.497573137E0
2.588932509E0,-2.009932280E0,-1.084453678E1,-1.808819413E0
2.598949648E0,-2.431311846E0,-1.110789871E1,-1.578976035E0
2.609112490E0,-3.283647537E0,-1.044231033E1,-4.632780254E-1
2.619234116E0,-3.786429882E0,-1.020767879E1,-1.076193690E0
2.629274290E0,-2.847903013E0,-9.369708061E0,-8.080430627E-1
2.639314354E0,-3.192667961E0,-9.398438454E0,-1.128866076E0
2.649415586E0,-4.744110584E0,-1.025077438E1,-1.990778685E0
2.659537687E0,-5.017049789E0,-1.040400314E1,-2.057816267E0
2.669551227E0,-2.685097218E0,-1.016458321E1,-2.814383984E0
2.679562561E0,-2.450465441E0,-1.031781197E1,-1.200692177E0
2.689654804E0,-2.809595585E0,-1.072961521E1,-1.871068597E0
2.699770262E0,-2.742558002E0,-1.072961521E1,-6.883329749E-1
2.709886062E0,-2.905363798E0,-1.079665279E1,-1.531091928E0
2.719937407E0,-2.795230389E0,-1.128506947E1,-1.717839718E0
2.729957727E0,-2.728192806E0,-1.158195114E1,-1.205480576E0
2.740008420E0,-3.077746391E0,-1.149575901E1,-2.345120668E0
2.750207510E0,-2.924517393E0,-1.076792240E1,-1.832761407E0
2.760212903E0,-2.637213230E0,-1.026992798E1,-8.702923059E-1
2.770363141E0,-4.083311081E0,-1.063863564E1,-9.325415492E-1
2.780405527E0,-3.192667961E0,-1.029386997E1,-2.142810524E-1
2.790441023E0,-4.006696701E0,-1.023162079E1,4.872200489E-1
2.800428544E0,-5.744886875E0,-1.101213074E1,-1.286883354E0
2.810562621E0,-4.715380192E0,-1.071525002E1,-3.004723191E-1
2.820697803E0,-1.230021095E1,-1.170644951E1,-1.248695850E1
2.830647029E0,-6.338648796E0,-7.162254333E0,-2.364393806E1
2.840820970E0,6.175843239E0,-9.618705750E0,9.235632896E0
2.850814976E0,-2.096123695E0,-4.183867455E0,-5.973533392E-1
2.860992043E0,-1.971625090E0,-5.084087372E0,-1.092593956E1
2.871011335E0,4.920084476E-1,-7.349001884E0,-2.268506050E0
2.881097771E0,2.479195833E0,-7.483077526E0,1.066616893E0
2.891111425E0,5.494692922E-1,-7.507019520E0,-2.570175409E0
2.901214229E0,-2.766499996E0,-8.019378662E0,-8.224082589E-1
2.911233012E0,-2.416946650E0,-7.727285862E0,-7.505822182E-1
2.921297194E0,-4.776432514E-1,-6.616376400E0,-5.734112859E-1
2.931457122E0,1.037886381E0,-5.979518890E0,-1.646013618E0
2.941474144E0,3.700238705E0,-4.868608952E0,-2.239775658E0
2.951703386E0,6.108805656E0,-6.161478043E0,9.229647517E-1
2.961698123E0,6.443994045E0,-6.846219540E0,1.425747156E0
2.971664163E0,6.400898457E0,-7.483077526E0,6.931213737E-1
2.981732362E0,5.973533392E-1,-9.340977669E0,-3.010708570E0
2.991885772E0,-4.289212227E0,-1.366969490E1,-4.806359768E0
3.001983835E0,-1.540668845E0,-1.315733528E1,-2.685097218E0
3.012042927E0,-5.950788498E0,-1.401924801E1,-3.106476784E0
3.022125446E0,-1.566167068E1,-1.488594913E1,-1.741781712E0
3.032214025E0,-1.113184071E1,-1.306635571E1,-1.665167332E0
3.042288509E0,-6.716932774E0,-1.219965458E1,-3.724180698E0
3.052262304E0,-4.485537052E0,-1.170166111E1,-8.846575022E-1
3.062469514E0,-1.602918029E0,-9.920374870E0,-1.914164305E0
3.072552434E0,-1.607706428E0,-1.027950478E1,-2.488772631E0
3.082495443E0,-1.545457244E0,-9.652224541E0,-3.135207176E0
3.092543789E0,-1.444900751E0,-8.981847763E0,-2.847903013E0
3.102606889E0,-1.918952703E0,-8.933963776E0,-2.498349428E0
3.112693571E0,-2.148796082E0,-9.010578156E0,-2.278082848E0
3.122802132E0,-2.938882589E0,-9.589975357E0,-2.134430885E0
3.132820729E0,-2.766499996E0,-9.575610161E0,-2.024297476E0
3.142892816E0,-1.234210968E0,-9.484629631E0,-2.225410461E0
3.153016958E0,-4.680664241E-1,-1.040400314E1,-1.957259893E0
3.163062101E0,-1.119289279E0,-9.503783226E0,-2.239775658E0
3.173119783E0,-1.071405292E0,-9.657012939E0,-1.526303530E0
3.183183881E0,-6.883329749E-1,-1.020289040E1,-1.411381960E0
3.193336482E0,-1.511938334E0,-1.127070427E1,-1.904587507E0
3.203417999E0,-1.253364563E0,-1.208473301E1,-2.234987259E0
3.213424881E0,-5.925649405E-1,-1.161068153E1,-1.942894697E0
3.223485752E0,-1.061828494E0,-1.179264069E1,-2.062604666E0
3.233607120E0,-2.867056608E0,-1.276468658E1,-6.069301367E-1
3.243712948E0,-2.094926536E-1,-1.136168385E1,3.962403834E-1
3.253764069E0,-1.555034041E0,-9.111134529E0,-1.655590534E0
3.263839722E0,-1.315613866E0,-1.055244446E1,-1.823184609E0
3.273871796E0,-9.900023937E-1,-1.040879154E1,-1.588552833E0
3.283990167E0,-9.181763530E-1,-1.109353352E1,-1.535880446E0
3.294003518E0,-9.804255962E-1,-1.095466995E1,-1.085770488E0
3.304067277E0,-1.684320927E0,-9.278728485E0,-8.702923059E-1
3.314201879E0,-1.420958757E0,-1.008796883E1,-1.033097982E0
3.324305326E0,-1.406593442E0,-1.074398041E1,-1.416170359E0
3.334312942E0,-1.430535555E0,-1.077271080E1,-1.564610839E0
3.344431641E0,-1.310825467E0,-1.140477943E1,-1.420958757E0
3.354509961E0,-4.824316502E-1,-1.145745182E1,-1.487996340E0
3.364528088E0,-1.210268974E0,-1.138562584E1,-2.014720678E0
3.374575996E0,-6.500257850E-1,-9.901221275E0,-1.171961784E0
3.384640159E0,-1.358709455E0,-1.019331360E1,-9.564836025E-1
3.394776662E0,-2.287659645E0,-1.094509315E1,-3.339911401E-1
3.404915138E0,-2.426523447E0,-1.025556278E1,-1.564610839E0
3.414878564E0,-5.159504414E-1,-8.704120636E0,-2.790441990E0
3.424954096E0,5.328295708E0,-5.414487362E0,-4.308365822E0
3.435045774E0,5.446808934E-1,-6.099228859E0,2.238578647E-1
3.445126496E0,-3.339911401E-1,-8.072051048E0,-1.665167332E0
3.455170916E0,-8.271966577E-1,-1.004008484E1,-1.784877419E0
3.465246779E0,-1.100135684E0,-1.160589314E1,-1.459265947E0
3.475341614E0,-7.505822182E-1,-1.228105736E1,-1.909375906E0
3.485466151E0,-3.292027414E-1,-1.185967827E1,-2.230198860E0
3.495472957E0,9.935937077E-2,-1.012627602E1,-2.014720678E0
3.505536313E0,3.292027414E-1,-9.221267700E0,-1.962048292E0
3.515651524E0,7.541735470E-2,-9.762357712E0,-1.262941360E0
3.525737161E0,0.000000000E0,-9.776722908E0,-1.152808070E0
3.535787200E0,2.334346622E-1,-9.791088104E0,-1.306037068E0
3.545848101E0,4.728548229E-1,-1.012627602E1,-1.430535555E0
3.555930889E0,5.973533392E-1,-9.973047256E0,-1.320402265E0
3.566094262E0,6.596025825E-1,-9.910798073E0,-1.507149935E0
3.576110792E0,4.776432514E-1,-9.719262123E0,-1.272518158E0
3.586163427E0,3.627215624E-1,-9.384073257E0,-1.291671872E0
3.596236592E0,2.956839204E-1,-9.202114105E0,-9.947907925E-1
3.606333243E0,3.866635859E-1,-9.254786491E0,-1.157596469E0
3.616384185E0,3.339911401E-1,-1.002571964E1,-1.392228246E0
3.626503947E0,4.967968464E-1,-1.015500641E1,-1.349132657E0
3.636604411E0,2.621650994E-1,-1.004487324E1,-1.248576164E0
3.646629702E0,3.722983599E-1,-9.896432877E0,-1.047463298E0
3.656713179E0,3.196259141E-1,-1.017416000E1,-1.090558887E0
3.666870329E0,3.244143426E-1,-1.012148762E1,-9.277531505E-1
3.676889217E0,1.616086215E-1,-9.302670479E0,-8.978256583E-2
3.686982920E0,5.626374111E-2,-8.483853340E0,-4.153940082E-1
3.696988205E0,3.387795389E-1,-8.498218536E0,-1.191115379E0
3.707066083E0,-1.316810958E-2,-9.230844498E0,-9.421183467E-1
3.717211188E0,5.159504414E-1,-8.086416245E0,-2.525882721E-1
3.727236993E0,5.207388401E-1,-7.478289127E0,-8.846575022E-1
3.737332556E0,4.249708056E-1,-7.286752701E0,-1.085770488E0
3.747478316E0,3.196259141E-1,-6.807912350E0,-3.004723191E-1
3.757522747E0,-1.253364563E0,-7.401674747E0,-8.702923059E-1
3.767642030E0,-1.746570110E0,-7.885303497E0,-1.999158412E-1
3.777604624E0,-2.369062662E0,-8.503006935E0,1.280897856E-1
3.787726048E0,-1.195903778E0,-1.090678596E1,-3.387795389E-1
3.797801464E0,-6.069301367E-1,-1.147181702E1,-3.579331636E-1
3.807891302E0,8.032546639E-1,-1.155322075E1,-2.094926536E-1
3.817951282E0,1.137245819E-1,-1.207515621E1,8.499415964E-2
3.827950798E0,2.094926536E-1,-1.201769543E1,1.376665980E-1
3.838097683E0,1.109712481E0,-1.163462353E1,-3.591302549E-3
3.848228771E0,1.258152962E0,-1.222838497E1,7.541735470E-2
3.858252206E0,-4.010287821E-1,-1.153885555E1,-8.499415964E-2
3.868311571E0,-2.430114746E-1,-1.124676228E1,1.616086215E-1
3.878328777E0,7.888894677E-1,-1.114620590E1,-8.020575345E-2
3.888471215E0,-5.255272985E-1,-1.027950478E1,-4.189852998E-2
3.898478422E0,-1.238999367E0,-9.336189270E0,3.531447649E-1
3.908543772E0,-6.356605291E-1,-9.532513618E0,4.189852998E-2
3.918702711E0,-4.920084476E-1,-1.005923843E1,-1.280897856E-1
3.928759248E0,2.190694511E-1,-1.106480312E1,-4.010287821E-1
3.938771017E0,-3.591302549E-3,-1.126591587E1,-3.675099611E-1
3.948903594E0,-1.191115379E0,-1.085411358E1,-3.052607179E-1
3.958955820E0,-7.122750282E-1,-1.047582912E1,-2.669534981E-1
3.969082955E0,-1.622071624E0,-9.307458878E0,4.393360019E-1
3.979153614E0,-3.339911401E-1,-9.551667213E0,2.047042400E-1
3.989242980E0,-5.686228871E-1,-9.757569313E0,1.233013868E-1
3.999247803E0,-1.424549967E-1,-1.087805557E1,-1.520318091E-1
4.009384853E0,-3.244143426E-1,-1.104564953E1,-6.105214357E-2
4.019431673E0,-2.861070931E-1,-1.150533581E1,3.711012751E-2
4.029514537E0,-1.191115379E0,-1.008796883E1,-2.286462635E-1
4.039583947E0,-9.660604000E-1,-9.642647743E0,2.190694511E-1
4.049728208E0,-8.894459605E-1,-9.819818497E0,3.914519846E-1
4.059726588E0,-7.314286232E-1,-9.719262123E0,6.260837317E-1
4.069748544E0,-2.956839204E-1,-9.513360023E0,6.021417379E-1
4.079847972E0,1.440112352E0,-1.123718548E1,1.424549967E-1
4.089926829E0,-7.505822182E-1,-1.079665279E1,1.568202078E-1
4.099993791E0,-4.632780254E-1,-1.048540592E1,2.274491638E-2
4.110048916E0,-7.266402245E-1,-1.082059479E1,6.105214357E-2
4.120153896E0,-7.026981711E-1,-1.085411358E1,2.861070931E-1
4.130255150E0,-7.266402245E-1,-1.109353352E1,6.979097724E-1
4.140368599E0,-7.122750282E-1,-1.137604904E1,6.739677787E-1
4.150399775E0,-8.176198602E-1,-1.109832191E1,5.207388401E-1
4.160496640E0,-5.686228871E-1,-1.097382355E1,-8.020575345E-2
4.170607361E0,7.553706169E-1,-1.078228760E1,-4.058171809E-1
4.180646148E0,-9.229647517E-1,-1.063863564E1,1.807622313E-1
4.190657927E0,-1.224634171E0,-1.050455952E1,4.920084476E-1
4.200726033E0,-7.984662652E-1,-9.475052834E0,3.052607179E-1
4.210864118E0,-1.042674899E0,-7.243657112E0,1.780089021E0
4.220943097E0,-2.565387011E0,-8.881291389E0,4.345476031E-1
4.230951899E0,-1.387439847E0,-9.628282547E0,-8.319851160E-1
4.241026868E0,-1.176750183E0,-1.010233402E1,2.286462635E-1
4.251190492E0,-1.282094955E0,-1.008318043E1,4.668693244E-2
4.261222689E0,-1.095347285E0,-1.004487324E1,-1.424549967E-1
4.271297403E0,-1.013944387E0,-1.007360363E1,-2.908954918E-1
4.281363164E0,-8.128314614E-1,-1.002571964E1,-3.914519846E-1
4.291508520E0,-7.457938194E-1,-1.005923843E1,-3.483563364E-1
4.301491450E0,-7.745242715E-1,-1.011191082E1,-3.435679376E-1
4.311578470E0,-7.026981711E-1,-1.010233402E1,-4.058171809E-1
4.321674754E0,-8.463503122E-1,-1.012627602E1,-3.914519846E-1
4.331656332E0,-8.511387110E-1,-1.010233402E1,-5.398924947E-1
4.341738891E0,-8.128314614E-1,-1.014064121E1,-5.925649405E-1
4.351805057E0,-8.894459605E-1,-1.019331360E1,-6.500257850E-1
4.361873608E0,-6.835445762E-1,-1.013585281E1,-6.308721304E-1
4.372015566E0,-7.505822182E-1,-1.022204399E1,-6.787561774E-1
4.382020382E0,-6.739677787E-1,-1.011191082E1,-5.542576909E-1
4.392151147E0,-7.888894677E-1,-1.020767879E1,-5.063736439E-1
4.402220684E0,-8.224082589E-1,-1.020289040E1,-6.165069342E-1
4.412379811E0,-7.601590157E-1,-1.013106441E1,-6.596025825E-1
4.422411237E0,-5.734112859E-1,-9.958682060E0,-7.505822182E-1
4.432416831E0,-5.734112859E-1,-9.862914085E0,-7.074866295E-1
4.442478364E0,-4.967968464E-1,-9.776722908E0,-6.117185354E-1
4.452633558E0,-5.781996846E-1,-9.767146111E0,-5.111620426E-1
4.462653348E0,-5.159504414E-1,-9.862914085E0,-5.111620426E-1
4.472722952E0,-5.446808934E-1,-1.002571964E1,-4.584896266E-1
4.482780822E0,-6.308721304E-1,-1.014064121E1,-4.967968464E-1
4.492860842E0,-6.931213737E-1,-1.013106441E1,-5.734112859E-1
4.502967873E0,-7.314286232E-1,-1.008796883E1,-6.212953329E-1
4.512997365E0,-6.787561774E-1,-1.001135445E1,-6.452373862E-1
4.523098046E0,-6.021417379E-1,-9.776722908E0,-7.314286232E-1
4.533162972E0,-5.781996846E-1,-9.556455612E0,-7.457938194E-1
4.543302994E0,-6.212953329E-1,-9.273940086E0,-7.745242715E-1
4.553311339E0,-7.888894677E-1,-9.192537308E0,-7.074866295E-1
4.563384328E0,-1.052251697E0,-9.355342865E0,-4.776432514E-1
4.573443085E0,-1.047463298E0,-9.460687637E0,-4.201824069E-1
4.583573571E0,-1.152808070E0,-9.537302017E0,-4.537012279E-1
4.593590738E0,-1.306037068E0,-9.968258858E0,-8.080430627E-1
4.603659684E0,-6.691793799E-1,-9.795876503E0,-3.722983599E-1
4.613748086E0,-1.224634171E0,-9.805453300E0,-4.668693244E-2
4.623809063E0,-1.080982089E0,-9.867702484E0,-1.089361757E-1
4.633874859E0,-9.325415492E-1,-1.002093124E1,-1.520318091E-1
4.643944164E0,-8.607155085E-1,-1.005923843E1,-1.137245819E-1
4.654039275E0,-8.798691034E-1,-1.015979481E1,7.062894851E-2
4.664120738E0,-1.109712481E0,-1.042315674E1,5.398924947E-1
4.674175606E0,-1.200692177E0,-1.057159805E1,5.542576909E-1
4.684250327E0,-1.282094955E0,-1.072482681E1,5.207388401E-1
4.694321208E0,-1.363497853E0,-1.094030476E1,4.872200489E-1
4.704463216E0,-1.301248670E0,-1.087326717E1,5.590460896E-1
4.714495349E0,-1.148019671E0,-1.066257763E1,6.021417379E-1
4.724547832E0,-1.114500880E0,-1.038963795E1,5.015852451E-1
4.734670738E0,-1.080982089E0,-1.001614285E1,3.435679376E-1
4.744693890E0,-9.421183467E-1,-9.819818497E0,7.541735470E-2
4.754755827E0,-7.649474144E-1,-9.685743332E0,1.041477770E-1
4.764849138E0,-7.314286232E-1,-9.680954933E0,4.189852998E-2
4.774928246E0,-6.165069342E-1,-9.642647743E0,-1.999158412E-1
4.785044407E0,-6.308721304E-1,-9.623494148E0,-1.185129806E-1
4.795069595E0,-8.176198602E-1,-9.771934509E0,-4.189852998E-2
4.805126184E0,-8.463503122E-1,-9.968258858E0,2.238578647E-1
4.815230282E0,-9.277531505E-1,-1.004487324E1,3.675099611E-1
4.825290787E0,-8.702923059E-1,-1.002571964E1,2.286462635E-1
4.835365175E0,-1.018732786E0,-1.036090755E1,3.627215624E-1
4.845446768E0,-8.128314614E-1,-1.079186440E1,2.286462635E-1
4.855528710E0,-6.691793799E-1,-1.102170753E1,1.520318091E-1
4.865648506E0,-6.787561774E-1,-1.129464626E1,-1.376665980E-1
4.875676796E0,-6.117185354E-1,-1.117972469E1,-5.207388401E-1
4.885736716E0,-5.973533392E-1,-1.093551636E1,-5.351040959E-1
4.895832341E0,-6.883329749E-1,-1.061948204E1,-4.824316502E-1
4.905864971E0,-7.218518257E-1,-1.005445004E1,-9.852139950E-1
4.915937538E0,-8.559271097E-1,-9.709685326E0,-1.042674899E0
4.926015182E0,-9.421183467E-1,-9.704896927E0,-1.272518158E0
4.936088424E0,-1.085770488E0,-9.522936821E0,-1.119289279E0
4.946153249E0,-1.028309584E0,-9.446322441E0,-1.205480576E0
4.956234958E0,-1.076193690E0,-9.130288124E0,-9.038111567E-1
4.966356011E0,-1.100135684E0,-9.388861656E0,-8.942343593E-1
4.976402948E0,-1.047463298E0,-9.599552155E0,-1.171961784E0
4.986477353E0,-1.090558887E0,-9.599552155E0,-1.286883354E0
4.996529857E0,-1.037886381E0,-9.633070946E0,-1.397016644E0
5.006696578E0,-1.076193690E0,-9.676166534E0,-1.459265947E0
5.016847006E0,-1.138442874E0,-9.709685326E0,-1.622071624E0
5.026851633E0,-1.339555860E0,-9.637859344E0,-1.416170359E0
5.036823812E0,-1.540668845E0,-1.015021801E1,-1.617283225E0
5.046919263E0,-1.555034041E0,-9.724050522E0,-1.406593442E0
5.057000594E0,-1.545457244E0,-1.005923843E1,-1.497573137E0
5.067158780E0,-1.521515131E0,-1.022204399E1,-1.454477549E0
5.077168267E0,-1.382651448E0,-1.029386997E1,-1.377863050E0
5.087245238E0,-1.085770488E0,-1.035133076E1,-1.090558887E0
5.097277262E0,-8.559271097E-1,-1.035611916E1,-9.756371975E-1
5.107400632E0,-6.931213737E-1,-1.035133076E1,-9.038111567E-1
5.117473661E0,-3.531447649E-1,-1.033217716E1,-8.607155085E-1
5.127508216E0,-2.286462635E-1,-1.026513958E1,-8.559271097E-1
5.137557873E0,-7.541735470E-2,-1.015500641E1,-8.463503122E-1
5.147700099E0,3.711012751E-2,-9.992200851E0,-7.553706169E-1
5.157720372E0,-1.137245819E-1,-1.001135445E1,-8.271966577E-1
5.167807435E0,-1.280897856E-1,-1.001135445E1,-8.176198602E-1
5.177925961E0,-2.621650994E-1,-1.001614285E1,-8.607155085E-1
5.187932078E0,-4.393360019E-1,-1.001135445E1,-6.691793799E-1
5.198057255E0,-4.632780254E-1,-1.002093124E1,-7.074866295E-1
5.208165102E0,-5.111620426E-1,-1.007360363E1,-7.457938194E-1
5.218281599E0,-5.734112859E-1,-1.011191082E1,-8.032546639E-1
5.228276052E0,-5.542576909E-1,-1.005445004E1,-7.410054207E-1
5.238345861E0,-5.734112859E-1,-9.958682060E0,-7.841010690E-1
5.248424095E0,-7.026981711E-1,-9.834183693E0,-7.793126702E-1
5.258450176E0,-7.122750282E-1,-9.762357712E0,-7.553706169E-1
5.268601848E0,-7.122750282E-1,-9.805453300E0,-8.942343593E-1
5.278649340E0,-7.697358727E-1,-9.858125687E0,-9.421183467E-1
5.288738288E0,-7.936778665E-1,-1.006402683E1,-1.023521185E0
5.298846350E0,-7.936778665E-1,-1.013106441E1,-1.047463298E0
5.308856866E0,-8.367735147E-1,-1.017416000E1,-1.052251697E0
5.319001776E0,-7.697358727E-1,-1.018373680E1,-1.009155989E0
5.329034088E0,-6.691793799E-1,-1.013106441E1,-9.852139950E-1
5.339079222E0,-6.691793799E-1,-1.010233402E1,-9.947907925E-1
5.349086014E0,-6.165069342E-1,-1.009754562E1,-1.090558887E0
5.359272672E0,-6.021417379E-1,-1.005923843E1,-1.128866076E0
5.369373020E0,-5.829881430E-1,-9.996989250E0,-1.210268974E0
5.379364304E0,-5.734112859E-1,-9.973047256E0,-1.128866076E0
5.389450318E0,-5.973533392E-1,-9.992200851E0,-1.057040095E0
5.399559142E0,-6.500257850E-1,-1.000656605E1,-1.205480576E0
5.409543132E0,-6.643909812E-1,-9.982624054E0,-1.181538582E0
5.419606395E0,-7.074866295E-1,-9.968258858E0,-1.200692177E0
5.429661437E0,-6.979097724E-1,-9.906009674E0,-1.157596469E0
5.439879307E0,-7.074866295E-1,-9.872490883E0,-1.152808070E0
5.449950289E0,-7.170634270E-1,-9.906009674E0,-1.171961784E0
5.459906868E0,-6.787561774E-1,-9.949105263E0,-1.215057373E0
5.469967915E0,-6.117185354E-1,-9.958682060E0,-1.186326981E0
5.480142039E0,-5.686228871E-1,-9.987412453E0,-1.219845772E0
5.490182655E0,-5.494692922E-1,-9.982624054E0,-1.219845772E0
5.500237896E0,-5.398924947E-1,-1.004008484E1,-1.229422569E0
5.510318619E0,-5.494692922E-1,-1.005923843E1,-1.219845772E0
5.520335181E0,-5.542576909E-1,-1.008796883E1,-1.219845772E0
5.530457306E0,-5.973533392E-1,-1.012627602E1,-1.277306557E0
5.540546100E0,-5.590460896E-1,-1.008318043E1,-1.296460271E0
5.550671615E0,-5.015852451E-1,-1.001135445E1,-1.301248670E0
5.560645452E0,-4.776432514E-1,-9.987412453E0,-1.243787766E0
5.570729498E0,-5.207388401E-1,-9.973047256E0,-1.344344258E0
5.580849084E0,-5.255272985E-1,-9.982624054E0,-1.301248670E0
5.590918865E0,-5.351040959E-1,-9.963470459E0,-1.243787766E0
5.600998898E0,-5.303156972E-1,-9.939528465E0,-1.195903778E0
5.611089972E0,-5.446808934E-1,-9.891644478E0,-1.229422569E0
5.621072164E0,-5.111620426E-1,-9.896432877E0,-1.200692177E0
5.631136001E0,-5.686228871E-1,-9.939528465E0,-1.057040095E0
5.641221245E0,-5.446808934E-1,-9.939528465E0,-1.195903778E0
5.651307942E0,-4.728548229E-1,-9.925163269E0,-1.148019671E0
5.661355394E0,-4.537012279E-1,-9.953893661E0,-1.104924083E0
5.671500487E0,-4.632780254E-1,-1.000656605E1,-1.109712481E0
5.681649568E0,-4.489128292E-1,-9.963470459E0,-1.037886381E0
5.691685077E0,-4.297592044E-1,-9.944316864E0,-1.013944387E0
5.701661682E0,-4.201824069E-1,-9.958682060E0,-9.852139950E-1
5.711719511E0,-4.106055796E-1,-1.006881523E1,-1.013944387E0
5.721802574E0,-4.393360019E-1,-1.011669922E1,-9.947907925E-1
5.731866018E0,-4.680664241E-1,-1.013106441E1,-9.947907925E-1
5.742045841E0,-5.111620426E-1,-1.013106441E1,-1.047463298E0
5.752078954E0,-3.818751574E-1,-9.982624054E0,-9.947907925E-1
5.762090935E0,-3.339911401E-1,-9.953893661E0,-1.042674899E0
5.772190518E0,-3.148375154E-1,-9.977835655E0,-1.009155989E0
5.782235489E0,-3.292027414E-1,-1.003050804E1,-9.947907925E-1
5.792306527E0,-3.148375154E-1,-1.004008484E1,-9.469067454E-1
5.802379588E0,-3.627215624E-1,-1.008796883E1,-9.660604000E-1
5.812472286E0,-4.584896266E-1,-1.008796883E1,-9.469067454E-1
5.822619037E0,-5.111620426E-1,-1.007839203E1,-9.469067454E-1
5.832676441E0,-5.638344884E-1,-1.002571964E1,-9.181763530E-1
5.842762376E0,-5.925649405E-1,-9.977835655E0,-8.702923059E-1
5.852828857E0,-5.590460896E-1,-9.934740067E0,-8.798691034E-1
5.862832466E0,-5.303156972E-1,-9.939528465E0,-8.798691034E-1
5.872936112E0,-4.967968464E-1,-9.963470459E0,-9.133879542E-1
5.882977383E0,-4.537012279E-1,-1.000656605E1,-9.947907925E-1
5.893061042E0,-4.680664241E-1,-1.000177765E1,-1.061828494E0
5.903133516E0,-4.776432514E-1,-9.973047256E0,-9.900023937E-1
5.913214009E0,-4.632780254E-1,-1.000177765E1,-9.373299479E-1
5.923262088E0,-4.345476031E-1,-1.003050804E1,-9.660604000E-1
5.933353057E0,-4.201824069E-1,-1.001135445E1,-9.421183467E-1
5.943412063E0,-4.489128292E-1,-1.002093124E1,-8.894459605E-1
5.953475310E0,-4.489128292E-1,-1.002093124E1,-9.469067454E-1
5.963555818E0,-4.537012279E-1,-1.006881523E1,-9.564836025E-1
5.973644089E0,-4.967968464E-1,-1.008796883E1,-9.516952038E-1
5.983750883E0,-5.111620426E-1,-1.009754562E1,-9.133879542E-1
5.993777995E0,-5.877765417E-1,-1.007360363E1,-8.990227580E-1
6.003847447E0,-5.925649405E-1,-1.002571964E1,-9.133879542E-1
6.013949993E0,-6.212953329E-1,-9.987412453E0,-9.277531505E-1
6.024028476E0,-6.165069342E-1,-9.929951668E0,-9.277531505E-1
6.034067591E0,-6.021417379E-1,-9.949105263E0,-9.564836025E-1
6.044151523E0,-5.351040959E-1,-9.963470459E0,-9.612720013E-1
6.054231000E0,-4.632780254E-1,-1.000177765E1,-9.038111567E-1
6.064283917E0,-4.489128292E-1,-9.996989250E0,-9.277531505E-1
6.074347549E0,-4.393360019E-1,-9.987412453E0,-9.038111567E-1
6.084424060E0,-4.153940082E-1,-9.982624054E0,-9.133879542E-1
6.094503571E0,-4.584896266E-1,-1.001135445E1,-9.229647517E-1
6.104560500E0,-4.441244006E-1,-1.002093124E1,-8.942343593E-1
6.114619758E0,-4.537012279E-1,-1.001614285E1,-9.085995555E-1
6.124752283E0,-4.584896266E-1,-9.996989250E0,-9.229647517E-1
6.134765567E0,-4.393360019E-1,-1.000177765E1,-9.469067454E-1
6.144846746E0,-4.489128292E-1,-9.992200851E0,-9.516952038E-1
6.154927676E0,-4.489128292E-1,-1.000177765E1,-9.708487988E-1
6.164998069E0,-4.967968464E-1,-9.949105263E0,-1.018732786E0
6.175106380E0,-4.824316502E-1,-9.929951668E0,-9.660604000E-1
6.185145086E0,-4.776432514E-1,-9.920374870E0,-9.133879542E-1
6.195229387E0,-4.967968464E-1,-9.963470459E0,-9.421183467E-1
6.205288710E0,-4.967968464E-1,-9.968258858E0,-9.277531505E-1
6.215362510E0,-4.824316502E-1,-9.939528465E0,-9.229647517E-1
6.225423476E0,-4.920084476E-1,-9.906009674E0,-8.750807047E-1
6.235486239E0,-4.584896266E-1,-9.862914085E0,-9.229647517E-1
6.245562314E0,-4.393360019E-1,-9.882067680E0,-8.750807047E-1
6.255660268E0,-4.345476031E-1,-9.891644478E0,-9.085995555E-1
6.265698903E0,-3.866635859E-1,-1.009275723E1,-8.224082589E-1
6.275770989E0,-4.201824069E-1,-1.015021801E1,-8.319851160E-1
6.285839206E0,-4.058171809E-1,-1.020767879E1,-7.793126702E-1
6.295926216E0,-4.153940082E-1,-1.021725559E1,-8.224082589E-1
6.305984022E0,-3.531447649E-1,-1.011669922E1,-9.038111567E-1
6.316052076E0,-2.813186944E-1,-1.000656605E1,-9.133879542E-1
6.326122824E0,-2.956839204E-1,-9.901221275E0,-8.463503122E-1
6.336213032E0,-3.196259141E-1,-9.858125687E0,-9.229647517E-1
6.346266779E0,-3.531447649E-1,-9.867702484E0,-8.702923059E-1
6.356340559E0,-3.675099611E-1,-9.939528465E0,-9.038111567E-1
6.366471769E0,-3.531447649E-1,-9.996989250E0,-9.469067454E-1
6.376520761E0,-3.962403834E-1,-1.004008484E1,-9.277531505E-1
6.386567852E0,-3.866635859E-1,-1.003529644E1,-8.894459605E-1
6.396758869E0,-3.339911401E-1,-1.000177765E1,-9.229647517E-1
6.406805111E0,-3.962403834E-1,-9.977835655E0,-1.018732786E0
6.416869504E0,-3.627215624E-1,-9.953893661E0,-9.804255962E-1
6.426961849E0,-3.675099611E-1,-9.958682060E0,-9.804255962E-1
6.437000304E0,-3.339911401E-1,-9.992200851E0,-9.660604000E-1
6.447080635E0,-3.196259141E-1,-1.005445004E1,-9.708487988E-1
6.457160647E0,-3.100491166E-1,-1.006402683E1,-9.564836025E-1
6.467305184E0,-3.004723191E-1,-1.000656605E1,-9.995791912E-1
6.477299862E0,-2.286462635E-1,-9.987412453E0,-1.109712481E0
6.487419354E0,-2.190694511E-1,-9.953893661E0,-1.057040095E0
6.497515910E0,-2.621650994E-1,-9.939528465E0,-1.057040095E0
6.507535423E0,-2.861070931E-1,-9.953893661E0,-1.028309584E0
6.517566724E0,-2.861070931E-1,-1.000177765E1,-1.018732786E0
6.527580898E0,-2.956839204E-1,-1.004008484E1,-9.516952038E-1
6.537710101E0,-2.861070931E-1,-1.004966164E1,-9.564836025E-1
6.547740812E0,-1.903390288E-1,-1.005923843E1,-9.085995555E-1
6.557882107E0,-1.855506301E-1,-1.003050804E1,-9.995791912E-1
6.567926760E0,-1.855506301E-1,-9.977835655E0,-1.033097982E0
6.577995385E0,-7.541735470E-2,-9.862914085E0,-1.037886381E0
6.588114381E0,-1.568202078E-1,-9.891644478E0,-1.090558887E0
6.598216235E0,-1.903390288E-1,-9.939528465E0,-1.124077678E0
6.608223452E0,-2.477998734E-1,-9.977835655E0,-1.090558887E0
6.618298247E0,-1.855506301E-1,-1.002093124E1,-1.004367590E0
6.628312105E0,-4.584896266E-1,-1.004487324E1,-1.100135684E0
6.638482115E0,5.626374111E-2,-9.906009674E0,-9.900023937E-1
6.648559831E0,-1.711854190E-1,-9.829395294E0,-1.205480576E0
6.658609938E0,-7.541735470E-2,-9.838972092E0,-1.152808070E0
6.668625415E0,-3.591302549E-3,-9.791088104E0,-1.148019671E0
6.678710980E0,8.379706182E-3,-9.757569313E0,-1.109712481E0
6.688787582E0,8.379706182E-3,-9.877279282E0,-9.995791912E-1
6.698855448E0,4.189852998E-2,-9.963470459E0,-9.947907925E-1
6.708930520E0,7.062894851E-2,-1.004966164E1,-1.037886381E0
6.719059869E0,1.137245819E-1,-1.000656605E1,-1.066616893E0
6.729075541E0,1.951274425E-1,-9.877279282E0,-1.018732786E0
6.739133977E0,2.382230759E-1,-9.786299706E0,-1.023521185E0
6.749177227E0,3.292027414E-1,-9.714473724E0,-1.076193690E0
6.759285866E0,3.818751574E-1,-9.815030098E0,-1.119289279E0
6.769360794E0,3.675099611E-1,-9.915586472E0,-1.143231273E0
6.779490849E0,3.483563364E-1,-1.007839203E1,-1.286883354E0
6.789522946E0,3.579331636E-1,-1.027471638E1,-1.358709455E0
6.799538850E0,3.531447649E-1,-1.029865837E1,-1.267729759E0
6.809602690E0,2.334346622E-1,-1.029386997E1,-1.143231273E0
6.819784904E0,1.855506301E-1,-1.017894840E1,-9.947907925E-1
6.829762713E0,-8.379706182E-3,-1.008318043E1,-7.122750282E-1
6.839892485E0,-1.795651205E-2,-1.010233402E1,-6.452373862E-1
6.850015853E0,-2.274491638E-2,-1.008796883E1,-5.925649405E-1
6.860092313E0,9.935937077E-2,-1.008796883E1,-6.787561774E-1
6.870122105E0,2.142810524E-1,-1.006402683E1,-7.266402245E-1
6.880159662E0,2.621650994E-1,-1.005923843E1,-7.793126702E-1
6.890240247E0,3.435679376E-1,-9.992200851E0,-8.367735147E-1
6.900318953E0,5.159504414E-1,-9.800664902E0,-7.936778665E-1
6.910382231E0,5.638344884E-1,-9.743204117E0,-7.745242715E-1
6.920444915E0,5.973533392E-1,-9.747992516E0,-7.841010690E-1
6.930588706E0,5.781996846E-1,-9.834183693E0,-6.835445762E-1
6.940602045E0,5.351040959E-1,-9.944316864E0,-5.925649405E-1
6.950660501E0,4.824316502E-1,-9.968258858E0,-6.117185354E-1
6.960786548E0,4.537012279E-1,-9.953893661E0,-5.686228871E-1
6.970825013E0,4.680664241E-1,-9.906009674E0,-4.872200489E-1
6.980937506E0,5.063736439E-1,-9.886856079E0,-4.680664241E-1
6.991011862E0,5.063736439E-1,-9.882067680E0,-4.680664241E-1
7.001068892E0,5.781996846E-1,-9.843760490E0,-4.584896266E-1
7.011151458E0,5.877765417E-1,-9.834183693E0,-4.776432514E-1
7.021227163E0,5.973533392E-1,-9.824606895E0,-3.962403834E-1
7.031294773E0,5.398924947E-1,-9.872490883E0,-3.148375154E-1
7.041387742E0,5.590460896E-1,-9.886856079E0,-2.621650994E-1
7.051442688E0,5.398924947E-1,-9.920374870E0,-1.999158412E-1
7.061538936E0,4.967968464E-1,-9.963470459E0,-1.520318091E-1
7.071595805E0,5.494692922E-1,-1.002093124E1,-8.978256583E-2
7.081665154E0,6.883329749E-1,-1.000177765E1,-1.520318091E-1
7.091723610E0,7.793126702E-1,-9.953893661E0,-1.807622313E-1
7.101784647E0,7.218518257E-1,-9.781511307E0,-1.759738177E-1
7.111854669E0,6.787561774E-1,-9.767146111E0,-1.807622313E-1
7.121985862E0,6.500257850E-1,-9.733627319E0,-3.004723191E-1
7.132071510E0,6.165069342E-1,-9.690531731E0,-4.010287821E-1
7.142186364E0,4.680664241E-1,-9.618705750E0,-3.483563364E-1
7.152198589E0,4.153940082E-1,-9.642647743E0,-3.244143426E-1
7.162328508E0,3.483563364E-1,-9.767146111E0,-2.908954918E-1
7.172333474E0,4.297592044E-1,-9.795876503E0,-2.573766708E-1
7.182447668E0,4.632780254E-1,-9.982624054E0,-4.249708056E-1
7.192459000E0,5.686228871E-1,-9.819818497E0,-1.568202078E-1
7.202540680E0,6.356605291E-1,-9.676166534E0,-5.015852451E-1
7.212621509E0,5.686228871E-1,-1.074398041E1,-7.074866295E-1
7.222719275E0,9.708487988E-1,-9.580398560E0,-4.249708056E-1
7.232766839E0,8.080430627E-1,-9.498994827E0,-5.829881430E-1
7.242833336E0,5.111620426E-1,-9.752780914E0,-4.537012279E-1
7.252907001E0,8.128314614E-1,-9.508571625E0,-5.829881430E-1
7.263081541E0,6.212953329E-1,-9.786299706E0,-4.824316502E-1
7.273135472E0,9.947907925E-1,-1.027950478E1,-8.702923059E-1
7.283167699E0,1.373074651E0,-9.451110840E0,-4.489128292E-1
7.293226739E0,1.516726732E0,-9.795876503E0,-6.404489279E-1
7.303288275E0,1.607706428E0,-1.041836834E1,-6.739677787E-1
7.313327669E0,1.942894697E0,-1.072003841E1,-8.176198602E-1
7.323410020E0,1.938106298E0,-1.083974838E1,-9.660604000E-1
7.333550494E0,1.957259893E0,-1.105043793E1,-1.076193690E0
7.343666898E0,2.124854088E0,-1.143829823E1,-1.085770488E0
7.353688093E0,2.124854088E0,-1.199375343E1,-1.066616893E0
7.363710319E0,1.966836691E0,-1.210388660E1,-1.009155989E0
7.373804098E0,1.804031014E0,-1.204163742E1,-1.358709455E0
7.383955282E0,1.435323954E0,-1.187883186E1,-1.736993313E0
7.393957778E0,1.262941360E0,-1.185967827E1,-1.804031014E0
7.404036259E0,1.085770488E0,-1.185488987E1,-1.899798989E0
7.414109126E0,4.632780254E-1,-1.181658268E1,-2.297236443E0
7.424185056E0,1.807622313E-1,-1.171602631E1,-2.416946650E0
7.434320338E0,-1.328781992E-1,-1.183573627E1,-2.579752445E0
7.444362715E0,8.499415964E-2,-1.128028107E1,-2.450465441E0
7.454431009E0,-8.559271097E-1,-1.076792240E1,-2.450465441E0
7.464509576E0,-1.181538582E0,-1.062905884E1,-3.025073767E0
7.474546825E0,-1.593341231E0,-1.052850151E1,-3.250128746E0
7.484617507E0,-2.067393064E0,-9.838972092E0,-3.163937569E0
7.494715252E0,-2.268506050E0,-9.436745644E0,-2.943670988E0
7.504771698E0,-2.349909067E0,-9.068038940E0,-2.718616009E0
7.514905869E0,-2.369062662E0,-8.819042206E0,-2.522291422E0
7.524924291E0,-2.278082848E0,-8.713697433E0,-1.808819413E0
7.535011058E0,-1.880645394E0,-8.708909035E0,-1.511938334E0
7.545050413E0,-1.784877419E0,-9.063250542E0,-1.622071624E0
7.555150724E0,-1.152808070E0,-9.704896927E0,-1.674744129E0
7.565184309E0,-7.505822182E-1,-9.934740067E0,-1.483207941E0
7.575274635E0,-2.238578647E-1,-1.029865837E1,-9.947907925E-1
7.585337831E0,4.189852998E-2,-1.077271080E1,-6.739677787E-1
7.595449282E0,5.590460896E-1,-1.104564953E1,-8.463503122E-1
7.605477119E0,7.697358727E-1,-1.073440361E1,-8.224082589E-1
7.615560177E0,6.404489279E-1,-1.058117485E1,-8.128314614E-1
7.625614905E0,6.069301367E-1,-9.786299706E0,-1.057040095E0
7.635676669E0,5.111620426E-1,-9.451110840E0,-1.033097982E0
7.645760866E0,3.052607179E-1,-9.269151688E0,-8.990227580E-1
7.655843563E0,2.573766708E-1,-9.168595314E0,-7.601590157E-1
7.665913032E0,8.379706182E-3,-8.938752174E0,-3.531447649E-1
7.675980782E0,-1.855506301E-1,-8.972270966E0,-2.382230759E-1
7.686054934E0,-4.345476031E-1,-8.924386978E0,-4.189852998E-2
7.696151894E0,-7.218518257E-1,-8.972270966E0,5.147533491E-2
7.706229212E0,-6.979097724E-1,-9.044096947E0,1.137245819E-1
7.716340504E0,-6.548141837E-1,-9.091980934E0,1.424549967E-1
7.726449292E0,-5.398924947E-1,-9.163806915E0,2.047042400E-1
7.736447838E0,-5.542576909E-1,-9.178172112E0,3.818751574E-1
7.746563186E0,-6.117185354E-1,-9.312247276E0,3.866635859E-1
7.756576365E0,-5.877765417E-1,-9.269151688E0,4.010287821E-1
7.766627521E0,-6.404489279E-1,-8.933963776E0,4.106055796E-1
7.776789150E0,-6.500257850E-1,-8.847772598E0,4.920084476E-1
7.786844422E0,-5.111620426E-1,-8.517372131E0,6.691793799E-1
7.796952978E0,-3.914519846E-1,-8.139088631E0,7.218518257E-1
7.806925269E0,-1.137245819E-1,-8.373720169E0,7.649474144E-1
7.817012393E0,-3.591302549E-3,-8.474276543E0,8.176198602E-1
7.827148952E0,1.568202078E-1,-8.493430138E0,8.559271097E-1
7.837287692E0,2.047042400E-1,-8.517372131E0,1.061828494E0
7.847306677E0,1.855506301E-1,-8.550890923E0,8.894459605E-1
7.857383400E0,-4.189852998E-2,-8.761581421E0,1.061828494E0
7.867444178E0,-3.866635859E-1,-9.345766068E0,1.775300503E0
7.877563722E0,-4.824316502E-1,-9.484629631E0,1.895010591E0
7.887596358E0,-4.824316502E-1,-9.556455612E0,1.646013618E0
7.897682442E0,-4.249708056E-1,-9.580398560E0,1.042674899E0
7.907683217E0,-3.100491166E-1,-9.724050522E0,-7.936778665E-1
7.917854227E0,-4.489128292E-1,-1.004487324E1,-1.353921056E0
7.927877401E0,-6.643909812E-1,-1.050934792E1,-1.344344258E0
7.937958015E0,-1.052251697E0,-1.129943466E1,-5.015852451E-1
7.948057921E0,-1.186326981E0,-1.153885555E1,-8.020575345E-2
7.958149862E0,-1.262941360E0,-1.171602631E1,4.297592044E-1
7.968216933E0,-1.272518158E0,-1.181179428E1,8.846575022E-1
7.978221531E0,-7.745242715E-1,-1.170166111E1,1.813607812E0
7.988314646E0,-8.271966577E-1,-1.191235065E1,2.297236443E0
7.998381023E0,-1.066616893E0,-1.223796177E1,2.282871246E0
8.008458101E0,-1.607706428E0,-1.287481976E1,1.468842745E0
8.018602530E0,-1.765723705E0,-1.282214737E1,9.229647517E-1
8.028697008E0,-1.698686123E0,-1.259230423E1,4.872200489E-1
8.038747322E0,-1.612494826E0,-1.229063416E1,2.274491638E-2
8.048815298E0,-1.430535555E0,-1.142872143E1,-7.218518257E-1
8.058873137E0,-1.277306557E0,-1.122282028E1,-5.973533392E-1
8.068860359E0,-1.205480576E0,-1.144787502E1,-3.483563364E-1
8.078933093E0,-1.310825467E0,-1.228584576E1,-1.373074651E0
8.089005393E0,-1.574187636E0,-1.282214737E1,-1.914164305E0
8.099113786E0,-1.617283225E0,-1.288918495E1,-2.072181463E0
8.109171435E0,-1.890222192E0,-1.230499935E1,-2.177526474E0
8.119231875E0,-2.397793055E0,-1.034175396E1,-1.598129630E0
8.129347359E0,-2.713827610E0,-9.178172112E0,-1.224634171E0
8.139451741E0,-2.345120668E0,-8.383296967E0,-1.162384868E0
8.149503139E0,-5.638344884E-1,-7.612364292E0,-1.540668845E0
8.159622059E0,-4.189852998E-2,-7.540538311E0,-1.713051319E0
8.169603031E0,3.244143426E-1,-7.526173115E0,-2.081758261E0
8.179695147E0,3.244143426E-1,-7.751227856E0,-2.761711597E0
8.189739451E0,6.105214357E-2,-8.967482567E0,-3.901351690E0
8.199925364E0,-1.616086215E-1,-9.647436142E0,-4.025850296E0
8.209898418E0,-2.956839204E-1,-1.020289040E1,-3.954024076E0
8.219989883E0,-3.483563364E-1,-1.064821243E1,-2.718616009E0
8.230150740E0,-3.914519846E-1,-1.058117485E1,-1.899798989E0
8.240177022E0,-4.824316502E-1,-1.042794514E1,-1.277306557E0
8.250347836E0,-6.596025825E-1,-1.023162079E1,-9.469067454E-1
8.260355364E0,-1.104924083E0,-9.470264435E0,-8.559271097E-1
8.270365059E0,-1.267729759E0,-9.029731750E0,-1.167173386E0
8.280397363E0,-1.272518158E0,-8.775946617E0,-1.353921056E0
8.290475417E0,-1.109712481E0,-8.469488144E0,-1.636436820E0
8.300623095E0,-1.057040095E0,-8.656236649E0,-1.717839718E0
8.310633357E0,-8.032546639E-1,-8.728062630E0,-1.789665818E0
8.320704182E0,-2.669534981E-1,-9.096769333E0,-1.392228246E0
8.330819128E0,-1.663970202E-1,-9.360131264E0,-1.497573137E0
8.340865991E0,-6.105214357E-2,-9.527725220E0,-1.521515131E0
8.350994145E0,-1.711854190E-1,-9.293093681E0,-1.306037068E0
8.361041218E0,-9.935937077E-2,-9.364919662E0,-1.219845772E0
8.371055003E0,1.316810958E-2,-9.139864922E0,-1.090558887E0
8.381147757E0,3.244143426E-1,-8.919598579E0,-1.018732786E0
8.391225759E0,3.914519846E-1,-9.542090416E0,-7.841010690E-1
8.401326591E0,5.686228871E-1,-9.637859344E0,-7.362170219E-1
8.411403850E0,7.362170219E-1,-9.494206429E0,-2.813186944E-1
8.421509932E0,8.942343593E-1,-9.403226852E0,-5.446808934E-1
8.431608535E0,6.069301367E-1,-9.714473724E0,-4.728548229E-1
8.441650629E0,8.894459605E-1,-9.427168846E0,2.274491638E-2
8.451669883E0,8.990227580E-1,-9.235632896E0,7.062894851E-2
8.461727112E0,9.469067454E-1,-9.197325706E0,1.903390288E-1
8.471793115E0,1.052251697E0,-9.312247276E0,2.956839204E-1
8.481912875E0,1.080982089E0,-9.340977669E0,2.142810524E-1
8.492052969E0,1.004367590E0,-9.364919662E0,-1.520318091E-1
8.502055897E0,9.469067454E-1,-9.522936821E0,-4.967968464E-1
8.512075787E0,8.990227580E-1,-9.537302017E0,-6.404489279E-1
8.522202653E0,8.271966577E-1,-9.570821762E0,-6.787561774E-1
8.532264014E0,3.339911401E-1,-9.460687637E0,-2.669534981E-1
8.542315473E0,2.908954918E-1,-1.029865837E1,-1.616086215E-1
8.552366654E0,3.866635859E-1,-1.059075165E1,-3.711012751E-2
8.562498261E0,3.770867586E-1,-1.049498272E1,-3.914519846E-1
8.572566514E0,4.297592044E-1,-1.056202126E1,-3.339911401E-1
8.582615421E0,6.165069342E-1,-1.055723286E1,-1.855506301E-1
8.592645008E0,9.564836025E-1,-1.024598598E1,2.274491638E-2
8.602721238E0,1.100135684E0,-1.063863564E1,3.196259141E-1
8.612847906E0,8.894459605E-1,-1.051413631E1,2.908954918E-1
8.622984523E0,3.962403834E-1,-1.052850151E1,3.914519846E-1
8.632981699E0,1.181538582E0,-1.113662910E1,4.153940082E-1
8.643019005E0,8.080430627E-1,-1.146702862E1,1.568202078E-1
8.653166619E0,1.478419542E0,-1.173517990E1,6.584054977E-2
8.663203707E0,1.641225219E0,-1.249653530E1,-8.978256583E-2
8.673263629E0,1.535880446E0,-1.141914463E1,-2.477998734E-1
8.683349652E0,1.253364563E0,-1.145266342E1,-3.818751574E-1
8.693416940E0,1.373074651E0,-1.130422306E1,-1.037886381E0
8.703510480E0,8.990227580E-1,-1.088763237E1,-5.925649405E-1
8.713517985E0,9.421183467E-1,-1.103607273E1,-1.856703401E0
8.723575091E0,1.004367590E0,-1.100734234E1,-2.005143881E0
8.733696421E0,7.601590157E-1,-1.093551636E1,-2.139219284E0
8.743754117E0,3.292027414E-1,-1.103128433E1,-3.163937569E0
8.753829027E0,-2.753331885E-2,-1.104086113E1,-3.321954966E0
8.763865068E0,-4.153940082E-1,-1.097382355E1,-3.676296711E0
8.773992304E0,-7.697358727E-1,-1.083495998E1,-4.418499470E0
8.784085012E0,-1.626860023E0,-1.016458321E1,-3.992331266E0
8.794100525E0,-2.067393064E0,-9.901221275E0,-3.690661907E0
8.804163227E0,-2.498349428E0,-9.661801338E0,-3.590105534E0
8.814289152E0,-2.752134800E0,-9.441534042E0,-3.302801132E0
8.824349234E0,-2.938882589E0,-9.484629631E0,-2.632424831E0
8.834415842E0,-2.766499996E0,-9.604340553E0,-2.464830637E0
8.844514726E0,-2.225410461E0,-1.007839203E1,-2.598906040E0
8.854544990E0,-1.880645394E0,-1.043273354E1,-2.809595585E0
8.864636376E0,-1.291671872E0,-1.078228760E1,-2.469619036E0
8.874694114E0,-7.984662652E-1,-1.128506947E1,-1.837549806E0
8.884747118E0,-3.591302549E-3,-1.204163742E1,-1.080982089E0
8.894884644E0,4.537012279E-1,-1.185967827E1,-8.990227580E-1
8.904925955E0,7.505822182E-1,-1.142872143E1,-9.038111567E-1
8.914977672E0,8.559271097E-1,-1.047104073E1,-1.358709455E0
8.925051749E0,8.942343593E-1,-1.013585281E1,-1.535880446E0
8.935131299E0,8.415619135E-1,-9.920374870E0,-1.679532528E0
8.945231452E0,7.457938194E-1,-9.647436142E0,-1.689109325E0
8.955278294E0,6.739677787E-1,-9.087192535E0,-1.238999367E0
8.965328601E0,7.170634270E-1,-8.756793022E0,-1.224634171E0
8.975466275E0,5.446808934E-1,-8.661025047E0,-9.612720013E-1
8.985511443E0,2.477998734E-1,-8.412027359E0,-5.925649405E-1
8.995565460E0,1.328781992E-1,-8.359354973E0,-4.728548229E-1
9.005699476E0,-4.189852998E-2,-8.335412979E0,-3.196259141E-1
9.015777911E0,-2.094926536E-1,-8.340201378E0,-1.759738177E-1
9.025784522E0,-5.207388401E-1,-8.464699745E0,2.753331885E-2
9.035839933E0,-6.117185354E-1,-8.560467720E0,-6.105214357E-2
9.045900989E0,-7.457938194E-1,-8.593987465E0,-3.232172132E-2
9.055969613E0,-9.181763530E-1,-8.555679321E0,3.232172132E-2
9.066120437E0,-8.319851160E-1,-8.354566574E0,8.020575345E-2
9.076154402E0,-8.367735147E-1,-8.239645004E0,1.137245819E-1
9.086228679E0,-6.021417379E-1,-8.325836182E0,2.047042400E-1
9.096265600E0,-4.189852998E-2,-8.325836182E0,6.356605291E-1
9.106349978E0,1.280897856E-1,-8.297105789E0,7.697358727E-1
9.116419046E0,1.999158412E-1,-8.311470985E0,7.697358727E-1
9.126474774E0,2.286462635E-1,-8.474276543E0,6.356605291E-1
9.136539802E0,1.041477770E-1,-8.584410667E0,5.063736439E-1
9.146692648E0,-1.951274425E-1,-8.871714592E0,5.494692922E-1
9.156712576E0,-6.356605291E-1,-9.221267700E0,6.596025825E-1
9.166777413E0,-1.104924083E0,-9.757569313E0,8.415619135E-1
9.176880164E0,-1.076193690E0,-9.853337288E0,6.931213737E-1
9.186929263E0,-9.038111567E-1,-9.810241699E0,6.105214357E-2
9.197070588E0,-5.781996846E-1,-9.604340553E0,-1.756146908E0
9.207149993E0,-6.212953329E-1,-9.719262123E0,-2.330755472E0
9.217189618E0,-6.883329749E-1,-1.008318043E1,-2.148796082E0
9.227307078E0,-9.181763530E-1,-1.062427044E1,-1.229422569E0
9.237323642E0,-1.272518158E0,-1.173996830E1,9.229647517E-1
9.247372341E0,-1.387439847E0,-1.209430981E1,1.162384868E0
9.257476637E0,-1.602918029E0,-1.238161373E1,9.900023937E-1
9.267523389E0,-1.990778685E0,-1.328183365E1,1.052251697E0
9.277639439E0,-2.254140854E0,-1.397615242E1,1.243787766E0
9.287709255E0,-2.445677042E0,-1.442626190E1,9.612720013E-1
9.297822790E0,-1.923741102E0,-1.433528233E1,-2.334346622E-1
9.307893183E0,-1.578976035E0,-1.362181091E1,-4.106055796E-1
9.317897365E0,-1.655590534E0,-1.300889492E1,-4.824316502E-1
9.328024452E0,-9.181763530E-1,-1.177348709E1,-7.505822182E-1
9.338062270E0,-1.041477770E-1,-1.010712242E1,-8.655039072E-1
9.348170749E0,1.855506301E-1,-9.987412453E0,-9.804255962E-1
9.358195876E0,7.062894851E-2,-1.019810200E1,-9.181763530E-1
9.368269846E0,-5.063736439E-1,-1.075355721E1,-8.607155085E-1
9.378413721E0,-9.900023937E-1,-1.076792240E1,-1.114500880E0
9.388405253E0,-1.238999367E0,-1.057638645E1,-1.339555860E0
9.398550109E0,-1.152808070E0,-1.013106441E1,-1.669955730E0
9.408610910E0,-5.015852451E-1,-8.972270966E0,-2.421735048E0
9.418653600E0,-9.457096457E-2,-8.507795334E0,-2.689885616E0
9.428836821E0,4.010287821E-1,-8.115146637E0,-3.015496969E0
9.438867082E0,7.314286232E-1,-8.277952194E0,-3.245340347E0
9.448852745E0,7.888894677E-1,-8.507795334E0,-3.125630379E0
9.458940684E0,8.511387110E-1,-8.752004623E0,-2.800018787E0
9.469091259E0,6.979097724E-1,-9.096769333E0,-2.570175409E0
9.479168696E0,2.717418969E-1,-9.575610161E0,-2.287659645E0
9.489235317E0,1.855506301E-1,-9.633070946E0,-2.120065689E0
9.499418250E0,5.147533491E-2,-9.728838921E0,-1.947683096E0
9.509472029E0,-2.238578647E-1,-9.872490883E0,-1.009155989E0
9.519478348E0,-4.393360019E-1,-9.815030098E0,-5.542576909E-1
9.529534397E0,-5.686228871E-1,-9.757569313E0,-4.058171809E-1
9.539627235E0,-8.176198602E-1,-9.671378136E0,-4.153940082E-1
9.549763598E0,-9.469067454E-1,-9.431957245E0,-7.170634270E-1
9.559726006E0,-7.649474144E-1,-9.326612473E0,-9.612720013E-1
9.569760364E0,-7.553706169E-1,-9.369708061E0,-1.066616893E0
9.579926479E0,-6.979097724E-1,-9.345766068E0,-1.574187636E0
9.589984675E0,-3.866635859E-1,-9.149441719E0,-1.703474522E0
9.600047917E0,-3.818751574E-1,-8.957905769E0,-1.449689150E0
9.610091082E0,-3.531447649E-1,-8.943540573E0,-1.626860023E0
9.620280881E0,-1.855506301E-1,-8.704120636E0,-1.770512104E0
9.630302613E0,7.541735470E-2,-8.641871452E0,-1.459265947E0
9.640312445E0,7.541735470E-2,-8.622717857E0,-1.818396211E0
9.650351533E0,3.244143426E-1,-8.632294655E0,-1.746570110E0
9.660575967E0,2.286462635E-1,-8.464699745E0,-1.669955730E0
9.670657583E0,-1.520318091E-1,-8.785523415E0,-1.746570110E0
9.680671093E0,2.094926536E-1,-9.187748909E0,-1.775300503E0
9.690666152E0,4.668693244E-2,-9.431957245E0,-1.449689150E0
9.700746565E0,-1.807622313E-1,-9.441534042E0,-1.435323954E0
9.710796488E0,-1.376665980E-1,-9.532513618E0,-1.234210968E0
9.720870069E0,-3.711012751E-2,-9.886856079E0,-7.410054207E-1
9.730965313E0,6.105214357E-2,-9.925163269E0,-4.872200489E-1
9.741040812E0,2.861070931E-1,-9.896432877E0,-4.249708056E-1
9.751187275E0,5.015852451E-1,-9.642647743E0,-8.080430627E-1
9.761309933E0,2.956839204E-1,-9.575610161E0,-9.325415492E-1
9.771261872E0,3.962403834E-1,-9.652224541E0,-9.612720013E-1
9.781410921E0,4.824316502E-1,-9.546878815E0,-9.756371975E-1
9.791461165E0,9.804255962E-1,-9.953893661E0,-1.004367590E0
9.801566031E0,7.936778665E-1,-9.901221275E0,-9.708487988E-1
9.811550496E0,6.548141837E-1,-9.743204117E0,-7.649474144E-1
9.821616339E0,4.537012279E-1,-9.906009674E0,-6.548141837E-1
9.831761287E0,7.888894677E-1,-1.038006115E1,-6.308721304E-1
9.841777372E0,6.787561774E-1,-1.025556278E1,-7.793126702E-1
9.851838321E0,7.793126702E-1,-1.025077438E1,-8.607155085E-1
9.861978404E0,1.152808070E0,-1.023162079E1,-7.745242715E-1
9.872096365E0,1.042674899E0,-1.060511684E1,-6.069301367E-1
9.882134289E0,1.181538582E0,-1.044709873E1,-6.021417379E-1
9.892139077E0,8.080430627E-1,-1.070088482E1,-4.728548229E-1
9.902231712E0,6.548141837E-1,-1.065300083E1,-4.345476031E-1
9.912398743E0,3.866635859E-1,-1.055244446E1,-2.525882721E-1
9.922397060E0,9.947907925E-1,-1.083017159E1,-4.201824069E-1
9.932528986E0,8.367735147E-1,-1.053807831E1,-3.770867586E-1
9.942545130E0,7.026981711E-1,-9.843760490E0,5.626374111E-2
9.952662366E0,1.339555860E0,-1.045188713E1,-6.356605291E-1
9.962755522E0,1.492784739E0,-1.117014790E1,-7.122750282E-1
9.972807128E0,1.502361536E0,-1.107916832E1,-6.883329749E-1
9.982908223E0,1.325190663E0,-1.112705231E1,-9.229647517E-1
9.992906344E0,1.593341231E0,-1.096424675E1,-1.521515131E0
1.000305721E1,1.406593442E0,-1.165377712E1,-2.388216257E0
1.001305741E1,1.234210968E0,-1.173996830E1,-2.254140854E0
1.002314402E1,1.167173386E0,-1.197459984E1,-2.665943623E0
1.003321997E1,7.410054207E-1,-1.203684902E1,-3.566163540E0
1.004329250E1,3.770867586E-1,-1.171123791E1,-3.877409697E0
1.005334938E1,-5.626374111E-2,-1.127070427E1,-4.088099480E0
1.006345100E1,-5.734112859E-1,-1.081101799E1,-4.212597847E0
1.007349694E1,-6.883329749E-1,-1.011669922E1,-4.557363033E0
1.008357431E1,-1.114500880E0,-9.791088104E0,-4.399345398E0
1.009363634E1,-1.464054346E0,-9.498994827E0,-4.183867455E0
1.010373138E1,-1.655590534E0,-9.216479301E0,-3.585317135E0
1.011378138E1,-1.622071624E0,-9.264363289E0,-3.312378168E0
1.012388028E1,-1.622071624E0,-9.460687637E0,-2.867056608E0
1.013394432E1,-1.669955730E0,-1.003050804E1,-2.148796082E0
1.014402482E1,-1.377863050E0,-1.022204399E1,-2.124854088E0
1.015407517E1,-1.167173386E0,-1.042315674E1,-2.067393064E0
1.016419407E1,-6.787561774E-1,-1.060990524E1,-2.072181463E0
1.017422790E1,3.435679376E-1,-1.088763237E1,-2.287659645E0
1.018431867E1,5.973533392E-1,-1.084453678E1,-2.354697466E0
1.019436629E1,7.362170219E-1,-1.057159805E1,-2.321178436E0
1.020450501E1,8.655039072E-1,-9.910798073E0,-1.923741102E0
1.021457223E1,7.218518257E-1,-9.618705750E0,-1.780089021E0
1.022462912E1,5.925649405E-1,-9.460687637E0,-1.818396211E0
1.023470957E1,4.920084476E-1,-9.470264435E0,-1.966836691E0
1.024476580E1,2.094926536E-1,-9.633070946E0,-2.019509077E0
1.025483378E1,1.424549967E-1,-9.690531731E0,-1.875856996E0
1.026492727E1,1.233013868E-1,-9.580398560E0,-1.698686123E0
1.027503656E1,1.280897856E-1,-9.451110840E0,-1.454477549E0
1.028509232E1,9.457096457E-2,-9.412803650E0,-1.425747156E0
1.029517875E1,1.041477770E-1,-9.321824074E0,-1.449689150E0
1.030523493E1,9.935937077E-2,-9.278728485E0,-1.392228246E0
1.031528927E1,1.280897856E-1,-9.283516884E0,-1.286883354E0
1.032537114E1,1.759738177E-1,-9.206902504E0,-1.301248670E0
1.033547896E1,1.795651205E-2,-9.230844498E0,-1.459265947E0
1.034554767E1,-3.711012751E-2,-9.230844498E0,-1.818396211E0
1.035559964E1,-9.457096457E-2,-9.249998093E0,-1.861491799E0
1.036567774E1,-1.711854190E-1,-9.264363289E0,-1.851915002E0
1.037576805E1,-2.765302956E-1,-9.312247276E0,-1.808819413E0
1.038585198E1,-3.052607179E-1,-9.144653320E0,-1.502361536E0
1.039596073E1,-3.722983599E-1,-9.072827339E0,-1.253364563E0
1.040605778E1,-2.765302956E-1,-8.910021782E0,-1.109712481E0
1.041605800E1,-2.717418969E-1,-8.435969353E0,-8.367735147E-1
1.042616351E1,-2.765302956E-1,-8.325836182E0,-8.846575022E-1
1.043623406E1,-3.292027414E-1,-8.368931770E0,-1.109712481E0
1.044630105E1,-1.711854190E-1,-8.565256119E0,-1.325190663E0
1.045636443E1,-3.292027414E-1,-8.847772598E0,-1.358709455E0
1.046650553E1,-3.770867586E-1,-8.953117371E0,-1.080982089E0
1.047655269E1,-3.244143426E-1,-9.029731750E0,-6.691793799E-1
1.048667935E1,2.753331885E-2,-9.259574890E0,-9.995791912E-1
1.049677184E1,1.376665980E-1,-9.326612473E0,-1.459265947E0
1.050678887E1,0.000000000E0,-9.321824074E0,-1.976413488E0
1.051682909E1,-6.500257850E-1,-9.532513618E0,-1.904587507E0
1.052699752E1,-1.646013618E0,-1.048061752E1,0.000000000E0
1.053699838E1,-1.425747156E0,-1.073440361E1,1.280897856E-1
1.054714329E1,-7.745242715E-1,-1.066736603E1,-2.334346622E-1
1.055720472E1,-5.255272985E-1,-1.055723286E1,-1.037886381E0
1.056720691E1,-5.734112859E-1,-1.046625233E1,-1.037886381E0
1.057739564E1,-5.494692922E-1,-1.040400314E1,-8.319851160E-1
1.058744087E1,-3.914519846E-1,-1.023162079E1,-8.798691034E-1
1.059742146E1,-4.967968464E-1,-1.022683239E1,-1.339555860E0
1.060749395E1,-8.271966577E-1,-1.049498272E1,-1.890222192E0
1.061757722E1,-1.229422569E0,-1.111268711E1,-1.770512104E0
1.062768867E1,-1.813607812E0,-1.308072090E1,-1.526303530E0
1.063779778E1,-2.278082848E0,-1.367927170E1,-1.411381960E0
1.064791655E1,-2.043451071E0,-1.367927170E1,-1.545457244E0
1.065800498E1,-1.789665818E0,-1.281735897E1,-1.535880446E0
1.066804485E1,-1.713051319E0,-1.205600262E1,-1.167173386E0
1.067816104E1,-1.440112352E0,-1.107916832E1,-5.734112859E-1
1.068822436E1,-6.979097724E-1,-1.007360363E1,1.999158412E-1
1.069832333E1,1.751358509E0,-8.996212959E0,3.100491166E-1
1.070829902E1,2.354697466E0,-8.617929459E0,-6.931213737E-1
1.071840176E1,1.315613866E0,-8.752004623E0,-1.210268974E0
1.072856539E1,5.303156972E-1,-9.283516884E0,-2.225410461E0
1.073867704E1,8.020575345E-2,-9.446322441E0,-2.632424831E0
1.074871317E1,-4.776432514E-1,-9.652224541E0,-2.551021814E0
1.075873823E1,-6.979097724E-1,-9.848548889E0,-2.306813240E0
1.076875602E1,-1.472434103E-1,-1.000656605E1,-2.048239470E0
1.077894758E1,3.627215624E-1,-9.815030098E0,-2.622848034E0
1.078896369E1,7.888894677E-1,-9.709685326E0,-3.274070740E0
1.079893623E1,1.071405292E0,-9.589975357E0,-4.068945885E0
1.080908294E1,1.243787766E0,-9.446322441E0,-3.920505285E0
1.081915541E1,1.401805043E0,-9.259574890E0,-3.599682331E0
1.082917214E1,1.377863050E0,-8.957905769E0,-3.063380957E0
1.083929805E1,1.219845772E0,-8.507795334E0,-2.407369852E0
1.084936207E1,1.066616893E0,-8.517372131E0,-2.325966835E0
1.085951067E1,8.942343593E-1,-8.728062630E0,-2.431311846E0
1.086948002E1,1.424549967E-1,-9.470264435E0,-2.479195833E0
1.087960960E1,1.795651205E-2,-9.767146111E0,-2.053027868E0
1.088969419E1,9.935937077E-2,-1.000177765E1,-1.895010591E0
1.089977306E1,-5.147533491E-2,-1.021246719E1,-1.847126603E0
1.090986723E1,-4.584896266E-1,-1.043752193E1,-2.187103271E0
1.091990405E1,-4.680664241E-1,-1.035611916E1,-2.445677042E0
1.093002030E1,-7.074866295E-1,-1.017416000E1,-2.474407434E0
1.094015543E1,-7.457938194E-1,-9.700108528E0,-3.053804159E0
1.095016718E1,-8.511387110E-1,-9.412803650E0,-2.823961020E0
1.096021780E1,-6.165069342E-1,-8.842984200E0,-2.718616009E0
1.097025583E1,-6.021417379E-1,-8.335412979E0,-2.622848034E0
1.098034196E1,-2.717418969E-1,-8.124723434E0,-2.665943623E0
1.099046204E1,-1.999158412E-1,-8.019378662E0,-2.914940596E0
1.100044756E1,1.185129806E-1,-8.316259384E0,-2.800018787E0
1.101062086E1,1.233013868E-1,-8.775946617E0,-2.378639460E0
1.102059652E1,1.089361757E-1,-8.852560997E0,-2.105700493E0
1.103067197E1,-8.499415964E-2,-8.694543839E0,-1.952471495E0
1.104085712E1,-4.537012279E-1,-8.890868187E0,-1.808819413E0
1.105083109E1,-4.489128292E-1,-9.211690903E0,-1.851915002E0
1.106088693E1,-7.122750282E-1,-9.427168846E0,-2.230198860E0
1.107098779E1,-8.176198602E-1,-9.216479301E0,-2.282871246E0
1.108112383E1,-4.010287821E-1,-9.106346130E0,-1.119289279E0
1.109111446E1,-1.903390288E-1,-9.163806915E0,-8.702923059E-1
1.110120025E1,6.105214357E-2,-9.364919662E0,-9.612720013E-1
1.111126271E1,1.137245819E-1,-9.589975357E0,-8.655039072E-1
1.112132972E1,5.734112859E-1,-9.719262123E0,-8.271966577E-1
1.113145371E1,7.553706169E-1,-1.034175396E1,-8.128314614E-1
1.114163288E1,8.559271097E-1,-1.007360363E1,-5.638344884E-1
1.115159526E1,1.280897856E-1,-9.431957245E0,-8.798691034E-1
1.116169044E1,1.316810958E-2,-9.752780914E0,-8.176198602E-1
1.117176999E1,2.430114746E-1,-9.618705750E0,-9.564836025E-1
1.118178787E1,2.956839204E-1,-9.949105263E0,-8.942343593E-1
1.119201632E1,7.984662652E-1,-9.973047256E0,-1.157596469E0
1.120196957E1,1.128866076E0,-1.008318043E1,-1.368286252E0
1.121203920E1,1.425747156E0,-1.003050804E1,-1.325190663E0
1.122213058E1,1.760935307E0,-1.070088482E1,-9.373299479E-1
1.123217156E1,1.952471495E0,-1.095945835E1,-7.601590157E-1
1.124234867E1,2.005143881E0,-1.094030476E1,-7.984662652E-1
1.125236147E1,1.871068597E0,-1.127070427E1,-6.584054977E-2
1.126246414E1,2.067393064E0,-1.139041424E1,-3.579331636E-1
1.127252079E1,2.273294449E0,-1.198896503E1,-4.776432514E-1
1.128255768E1,1.875856996E0,-1.213740540E1,2.525882721E-1
1.129260874E1,1.851915002E0,-1.209909821E1,-8.128314614E-1
1.130269573E1,2.206256866E0,-1.236724854E1,-1.406593442E0
1.131274777E1,1.971625090E0,-1.241034412E1,-9.325415492E-1
1.132282940E1,2.033874273E0,-1.247738171E1,-2.244564056E0
1.133291633E1,1.847126603E0,-1.250611305E1,-2.689885616E0
1.134300890E1,1.669955730E0,-1.220444298E1,-2.962824583E0
1.135307205E1,1.444900751E0,-1.193629265E1,-3.441664934E0
1.136311756E1,7.266402245E-1,-1.132337666E1,-4.485537052E0
1.137320228E1,2.669534981E-1,-1.091636276E1,-4.662707806E0
1.138329703E1,-3.052607179E-1,-1.032738876E1,-4.763264179E0
1.139334952E1,-8.511387110E-1,-9.551667213E0,-4.413711071E0
1.140342918E1,-1.262941360E0,-9.340977669E0,-4.327519417E0
1.141362127E1,-1.732204914E0,-9.235632896E0,-3.805583715E0
1.142357962E1,-1.674744129E0,-9.700108528E0,-3.240551949E0
1.143364114E1,-1.871068597E0,-1.015979481E1,-3.063380957E0
1.144372026E1,-1.751358509E0,-1.057159805E1,-2.977189779E0
1.145379966E1,-1.732204914E0,-1.072961521E1,-2.838326216E0
1.146400929E1,-9.564836025E-1,-1.104086113E1,-2.388216257E0
1.147407763E1,-2.908954918E-1,-1.109832191E1,-2.397793055E0
1.148409823E1,3.770867586E-1,-1.108874512E1,-2.460042238E0
1.149411843E1,1.301248670E0,-1.067694283E1,-2.340332270E0
1.150422414E1,1.483207941E0,-1.026035118E1,-2.325966835E0
1.151433622E1,1.588552833E0,-9.834183693E0,-2.278082848E0
1.152435525E1,1.559822440E0,-9.475052834E0,-2.254140854E0
1.153442069E1,1.124077678E0,-9.101557732E0,-2.144007683E0
1.154450307E1,9.612720013E-1,-9.149441719E0,-2.206256866E0
1.155454827E1,8.080430627E-1,-9.221267700E0,-2.110488892E0
1.156460791E1,4.537012279E-1,-9.278728485E0,-1.732204914E0
1.157471580E1,2.525882721E-1,-9.283516884E0,-1.631648421E0
1.158478748E1,1.807622313E-1,-9.307458878E0,-1.693897724E0
1.159483596E1,1.185129806E-1,-9.230844498E0,-1.727416515E0
1.160491520E1,1.041477770E-1,-9.058462143E0,-1.736993313E0
1.161499803E1,1.999158412E-1,-8.996212959E0,-1.789665818E0
1.162510627E1,2.717418969E-1,-8.819042206E0,-1.813607812E0
1.163522308E1,3.100491166E-1,-8.603564262E0,-1.861491799E0
1.164529544E1,2.238578647E-1,-8.541314125E0,-1.880645394E0
1.165530606E1,1.137245819E-1,-8.661025047E0,-2.009932280E0
1.166538296E1,-5.626374111E-2,-8.680178642E0,-2.139219284E0
1.167545469E1,-5.303156972E-1,-8.632294655E0,-2.249352455E0
1.168553196E1,-6.835445762E-1,-8.598775864E0,-2.364274263E0
1.169561076E1,-7.074866295E-1,-8.464699745E0,-2.364274263E0
1.170569766E1,-7.841010690E-1,-8.321047783E0,-2.316390038E0
1.171574414E1,-6.021417379E-1,-8.081627846E0,-2.244564056E0
1.172587110E1,-6.356605291E-1,-8.081627846E0,-2.273294449E0
1.173592404E1,-6.643909812E-1,-8.215703011E0,-2.177526474E0
1.174601309E1,-8.511387110E-1,-8.694543839E0,-1.880645394E0
1.175605695E1,-8.990227580E-1,-8.957905769E0,-1.674744129E0
1.176614033E1,-9.516952038E-1,-8.981847763E0,-1.401805043E0
1.177621944E1,-9.852139950E-1,-8.704120636E0,-1.646013618E0
1.178631334E1,-1.133654475E0,-8.459911346E0,-2.330755472E0
1.179636090E1,-1.756146908E0,-8.459911346E0,-2.517503023E0
1.180647553E1,-2.584540844E0,-8.704120636E0,-1.756146908E0
1.181656065E1,-3.551798105E0,-9.379284859E0,-7.841010690E-1
1.182661002E1,-3.068169594E0,-9.446322441E0,-1.162384868E0
1.183666022E1,-2.273294449E0,-9.163806915E0,-1.928529501E0
1.184688435E1,-1.693897724E0,-8.957905769E0,-3.412934542E0
1.185682928E1,-1.904587507E0,-9.312247276E0,-2.977189779E0
1.186706775E1,-1.952471495E0,-9.690531731E0,-2.201468468E0
1.187707012E1,-1.990778685E0,-1.022683239E1,-6.069301367E-1
1.188718929E1,-1.914164305E0,-1.045188713E1,3.232172132E-2
1.189725070E1,-1.895010591E0,-1.079186440E1,6.308721304E-1
1.190730413E1,-1.674744129E0,-1.106959152E1,7.697358727E-1
1.191734419E1,-1.665167332E0,-1.159152794E1,-1.807622313E-1
1.192740843E1,-2.096123695E0,-1.222359657E1,-6.117185354E-1
1.193754428E1,-2.416946650E0,-1.256836224E1,-1.200692177E0
1.194760250E1,-2.464830637E0,-1.270243740E1,-2.881421804E0
1.195762471E1,-2.287659645E0,-1.289397335E1,-3.456030130E0
1.196778633E1,-1.933317900E0,-1.321000767E1,-3.642777920E0
1.197777005E1,-1.176750183E0,-1.342548561E1,-3.489548922E0
1.198778151E1,3.052607179E-1,-1.294185734E1,-3.494337320E0
1.199781588E1,4.106055796E-1,-1.276468658E1,-2.579752445E0
1.200805081E1,4.776432514E-1,-1.237203693E1,-2.215833664E0
1.201806140E1,-3.387795389E-1,-1.146702862E1,-1.995567083E0
1.202813734E1,-8.990227580E-1,-1.079186440E1,-1.588552833E0
1.203818193E1,-9.133879542E-1,-9.906009674E0,-1.693897724E0
1.204833433E1,-6.691793799E-1,-9.068038940E0,-1.947683096E0
1.205836131E1,0.000000000E0,-7.583633900E0,-2.436100245E0
1.206845181E1,1.759738177E-1,-7.176619530E0,-2.809595585E0
1.207845400E1,3.004723191E-1,-7.052121162E0,-3.331531763E0
1.208849594E1,3.004723191E-1,-7.597999096E0,-3.949235678E0
1.209857510E1,8.020575345E-2,-8.234856606E0,-4.088099480E0
1.210867186E1,-1.855506301E-1,-8.962694168E0,-4.188655853E0
1.211880582E1,-4.345476031E-1,-9.494206429E0,-4.035427094E0
1.212886039E1,-8.750807047E-1,-9.973047256E0,-3.269282341E0
1.213902372E1,-8.655039072E-1,-9.963470459E0,-2.670732021E0
1.214899262E1,-8.559271097E-1,-9.915586472E0,-2.081758261E0
1.215904552E1,-1.100135684E0,-9.724050522E0,-1.813607812E0
1.216920509E1,-1.377863050E0,-9.542090416E0,-1.875856996E0
1.217926643E1,-1.487996340E0,-9.312247276E0,-1.962048292E0
1.218928101E1,-1.655590534E0,-9.077615738E0,-1.957259893E0
1.219940405E1,-1.507149935E0,-8.694543839E0,-2.206256866E0
1.220943817E1,-1.569399238E0,-8.565256119E0,-2.278082848E0
1.221950431E1,-1.440112352E0,-8.622717857E0,-2.488772631E0
1.222966202E1,-1.243787766E0,-8.761581421E0,-2.321178436E0
1.223977418E1,-1.200692177E0,-9.082404137E0,-2.215833664E0
1.224978817E1,-8.798691034E-1,-9.163806915E0,-2.354697466E0
1.225986711E1,-6.787561774E-1,-9.532513618E0,-2.211045265E0
1.226990900E1,-5.351040959E-1,-9.494206429E0,-2.139219284E0
1.227996625E1,-3.579331636E-1,-9.273940086E0,-2.163161278E0
1.229011739E1,-2.908954918E-1,-8.924386978E0,-2.072181463E0
1.230023471E1,5.147533491E-2,-9.058462143E0,-2.134430885E0
1.231032212E1,1.663970202E-1,-8.991424561E0,-1.866280198E0
1.232035816E1,2.908954918E-1,-9.240421295E0,-1.789665818E0
1.233037713E1,4.537012279E-1,-9.690531731E0,-1.751358509E0
1.234058753E1,3.387795389E-1,-9.781511307E0,-1.827973008E0
1.235063432E1,5.686228871E-1,-9.503783226E0,-1.952471495E0
1.236066772E1,4.489128292E-1,-9.953893661E0,-1.775300503E0
1.237066244E1,5.781996846E-1,-9.489418030E0,-1.296460271E0
1.238079972E1,5.255272985E-1,-9.331400871E0,-1.047463298E0
1.239098678E1,3.435679376E-1,-9.211690903E0,-9.181763530E-1
1.240090661E1,1.280897856E-1,-9.144653320E0,-7.697358727E-1
1.241111025E1,3.591302549E-3,-9.034520149E0,-6.596025825E-1
1.242112262E1,-6.584054977E-2,-9.096769333E0,-6.643909812E-1
1.243120423E1,6.105214357E-2,-8.871714592E0,-4.537012279E-1
1.244125550E1,1.424549967E-1,-1.030344677E1,-3.579331636E-1
1.245134114E1,2.765302956E-1,-1.018852520E1,-4.489128292E-1
1.246134409E1,3.148375154E-1,-1.025556278E1,-6.691793799E-1
1.247150116E1,8.942343593E-1,-1.020289040E1,-8.367735147E-1
1.248147895E1,1.018732786E0,-1.019810200E1,-9.564836025E-1
1.249163609E1,1.200692177E0,-9.925163269E0,-9.373299479E-1
1.250180237E1,9.421183467E-1,-9.929951668E0,-8.942343593E-1
1.251179333E1,7.936778665E-1,-9.451110840E0,-7.410054207E-1
1.252180874E1,4.058171809E-1,-1.019810200E1,-9.756371975E-1
1.253184049E1,6.165069342E-1,-1.056202126E1,-7.601590157E-1
1.254209201E1,6.787561774E-1,-1.025556278E1,-9.660604000E-1
1.255212152E1,8.032546639E-1,-1.023162079E1,-7.026981711E-1
1.256215137E1,8.128314614E-1,-1.026513958E1,-5.111620426E-1
1.257224852E1,6.883329749E-1,-1.033696556E1,-4.680664241E-1
1.258229575E1,4.680664241E-1,-1.072961521E1,-2.573766708E-1
1.259238343E1,1.759738177E-1,-1.086847878E1,1.328781992E-1
1.260238247E1,5.111620426E-1,-1.094030476E1,9.935937077E-2
1.261243543E1,4.872200489E-1,-1.064342403E1,-4.668693244E-2
1.262260357E1,1.100135684E0,-1.103128433E1,-8.020575345E-2
1.263265119E1,1.435323954E0,-1.181658268E1,-3.711012751E-2
1.264268952E1,1.492784739E0,-1.153406715E1,-7.541735470E-2
1.265274382E1,1.578976035E0,-1.130901146E1,-1.033097982E0
1.266281758E1,1.492784739E0,-1.088284397E1,-6.500257850E-1
1.267291759E1,1.598129630E0,-1.060032845E1,-1.181538582E0
1.268296843E1,1.535880446E0,-1.113662910E1,-1.722628117E0
1.269311428E1,1.430535555E0,-1.128506947E1,-2.258929253E0
1.270327166E1,1.368286252E0,-1.131379986E1,-2.800018787E0
1.271327939E1,8.032546639E-1,-1.143829823E1,-3.331531763E0
1.272327258E1,2.861070931E-1,-1.154364395E1,-3.614047527E0
1.273333448E1,-2.286462635E-1,-1.143350983E1,-3.805583715E0
1.274340767E1,-1.195903778E0,-1.101691914E1,-4.035427094E0
1.275351289E1,-1.430535555E0,-1.077749920E1,-4.701014996E0
1.276356091E1,-2.129642487E0,-1.057638645E1,-4.782417774E0
1.277363518E1,-2.507926226E0,-1.028429317E1,-4.490325451E0
1.278372561E1,-3.264493942E0,-9.733627319E0,-3.877409697E0
1.279388892E1,-3.609259129E0,-9.599552155E0,-3.408146143E0
1.280386977E1,-4.030638695E0,-9.518148422E0,-3.072957993E0
1.281393138E1,-3.685873508E0,-9.570821762E0,-2.699462414E0
1.282401210E1,-3.135207176E0,-9.743204117E0,-2.728192806E0
1.283418327E1,-2.613271236E0,-9.862914085E0,-2.996343374E0
1.284417354E1,-1.914164305E0,-1.012627602E1,-3.197456360E0
1.285424107E1,-8.990227580E-1,-1.111747551E1,-2.661155224E0
1.286434192E1,-5.159504414E-1,-1.149575901E1,-2.014720678E0
1.287448751E1,-3.196259141E-1,-1.153406715E1,-1.813607812E0
1.288449309E1,-4.189852998E-2,-1.126591587E1,-1.789665818E0
1.289459021E1,3.435679376E-1,-1.021246719E1,-1.411381960E0
1.290463200E1,3.962403834E-1,-9.747992516E0,-1.502361536E0
1.291471506E1,3.770867586E-1,-9.364919662E0,-1.708262920E0
1.292477461E1,2.956839204E-1,-9.115922928E0,-1.631648421E0
1.293485329E1,1.807622313E-1,-9.082404137E0,-1.665167332E0
1.294496217E1,8.020575345E-2,-9.029731750E0,-1.329979062E0
1.295502691E1,-1.316810958E-2,-9.015366554E0,-1.090558887E0
1.296509631E1,-3.100491166E-1,-8.895656586E0,-1.167173386E0
1.297517773E1,-3.579331636E-1,-8.780735016E0,-1.363497853E0
1.298525239E1,-4.537012279E-1,-8.670601845E0,-1.325190663E0
1.299541137E1,-4.680664241E-1,-8.503006935E0,-1.128866076E0
1.300541037E1,-5.494692922E-1,-8.445546150E0,-9.181763530E-1
1.301546736E1,-4.872200489E-1,-8.431180954E0,-7.649474144E-1
1.302556451E1,-5.446808934E-1,-8.354566574E0,-6.404489279E-1
1.303565748E1,-7.984662652E-1,-8.349778175E0,-5.351040959E-1
1.304571234E1,-8.990227580E-1,-8.225279808E0,-4.345476031E-1
1.305586508E1,-8.559271097E-1,-7.985859871E0,-2.908954918E-1
1.306586909E1,-6.356605291E-1,-8.282740593E0,-1.903390288E-1
1.307603241E1,-4.967968464E-1,-8.354566574E0,-1.137245819E-1
1.308600802E1,-3.196259141E-1,-8.378508568E0,-4.189852998E-2
1.309609685E1,-5.626374111E-2,-8.412027359E0,-3.675099611E-1
1.310618550E1,2.274491638E-2,-8.435969353E0,-6.117185354E-1
1.311624402E1,-8.020575345E-2,-8.584410667E0,-6.356605291E-1
1.312629151E1,-1.999158412E-1,-8.862137794E0,-4.584896266E-1
1.313637459E1,-4.728548229E-1,-9.498994827E0,4.584896266E-1
1.314647337E1,-7.362170219E-1,-9.829395294E0,9.516952038E-1
1.315664825E1,-9.947907925E-1,-1.004008484E1,1.238999367E0
1.316660780E1,-1.152808070E0,-9.977835655E0,5.925649405E-1
1.317680251E1,-8.990227580E-1,-9.671378136E0,-1.376665980E-1
1.318691087E1,-7.074866295E-1,-9.465476036E0,-9.325415492E-1
1.319685910E1,-6.979097724E-1,-9.326612473E0,-1.425747156E0
1.320695987E1,-9.852139950E-1,-9.685743332E0,-1.368286252E0
1.321710111E1,-1.080982089E0,-9.977835655E0,-1.104924083E0
1.322712580E1,-1.028309584E0,-1.036090755E1,-8.846575022E-1
1.323726549E1,-8.319851160E-1,-1.093072796E1,-1.200692177E0
1.324731686E1,-1.061828494E0,-1.117493629E1,-3.339911401E-1
1.325742017E1,-1.124077678E0,-1.152927876E1,7.505822182E-1
1.326745095E1,-9.325415492E-1,-1.176869869E1,1.315613866E0
1.327751056E1,-1.191115379E0,-1.226669216E1,9.421183467E-1
1.328758939E1,-1.808819413E0,-1.282214737E1,6.931213737E-1
1.329764594E1,-2.278082848E0,-1.310466290E1,2.477998734E-1
1.330780671E1,-2.986766577E0,-1.325789165E1,-1.349132657E0
1.331774948E1,-3.005920172E0,-1.328662205E1,-2.000355482E0
1.332789816E1,-2.838326216E0,-1.343985081E1,-2.445677042E0
1.333797506E1,-2.498349428E0,-1.347815800E1,-3.096899986E0
1.334812030E1,-1.540668845E0,-1.322437286E1,-4.126406670E0
1.335817998E1,-1.339555860E0,-1.296101093E1,-3.518279314E0
1.336820032E1,-1.013944387E0,-1.223796177E1,-2.598906040E0
1.337825694E1,-4.824316502E-1,-1.040400314E1,-1.009155989E0
1.338843057E1,-4.010287821E-1,-9.657012939E0,-5.446808934E-1
1.339835388E1,-5.446808934E-1,-8.900444984E0,-5.734112859E-1
1.340844897E1,-7.218518257E-1,-8.076839447E0,-1.171961784E0
1.341853637E1,-1.376665980E-1,-7.234080315E0,-2.756923199E0
1.342865894E1,8.499415964E-2,-7.253233910E0,-2.948459387E0
1.343878286E1,3.866635859E-1,-7.334636688E0,-3.039438963E0
1.344880131E1,5.829881430E-1,-8.263586998E0,-3.925293684E0
1.345885818E1,2.765302956E-1,-9.115922928E0,-4.303577423E0
1.346890778E1,-2.094926536E-1,-9.973047256E0,-4.475960255E0
1.347908528E1,-7.170634270E-1,-1.068173122E1,-4.389768600E0
1.348909480E1,-1.090558887E0,-1.108874512E1,-3.503914118E0
1.349915741E1,-1.210268974E0,-1.088284397E1,-2.761711597E0
1.350934728E1,-1.368286252E0,-1.058117485E1,-2.086546898E0
1.351939931E1,-1.679532528E0,-9.829395294E0,-1.636436820E0
1.352939142E1,-1.918952703E0,-9.350554466E0,-1.722628117E0
1.353940021E1,-2.062604666E0,-8.962694168E0,-1.885433793E0
1.354954593E1,-1.837549806E0,-8.397662163E0,-2.072181463E0
1.355969345E1,-1.650802016E0,-8.230068207E0,-2.182314873E0
1.356965207E1,-1.626860023E0,-8.282740593E0,-2.349909067E0
1.357969031E1,-1.617283225E0,-8.483853340E0,-2.282871246E0
1.358984939E1,-1.210268974E0,-8.881291389E0,-2.594117641E0
1.359984437E1,-1.143231273E0,-9.264363289E0,-2.847903013E0
1.360998053E1,-8.655039072E-1,-9.384073257E0,-2.661155224E0
1.362009891E1,-5.686228871E-1,-9.522936821E0,-2.646790028E0
1.363015768E1,-3.866635859E-1,-9.498994827E0,-2.637213230E0
1.364026635E1,-2.669534981E-1,-9.149441719E0,-2.297236443E0
1.365028723E1,-2.142810524E-1,-9.082404137E0,-2.469619036E0
1.366029484E1,3.591302549E-3,-9.115922928E0,-2.091335297E0
1.367043875E1,5.147533491E-2,-9.077615738E0,-1.923741102E0
1.368049136E1,8.978256583E-2,-9.379284859E0,-1.942894697E0
1.369056616E1,3.292027414E-1,-9.767146111E0,-1.765723705E0
1.370065408E1,2.094926536E-1,-9.910798073E0,-1.727416515E0
1.371079287E1,3.244143426E-1,-1.009275723E1,-1.540668845E0
1.372090138E1,3.435679376E-1,-1.023162079E1,-1.574187636E0
1.373083418E1,3.052607179E-1,-9.977835655E0,-1.301248670E0
1.374098091E1,2.956839204E-1,-9.853337288E0,-1.167173386E0
1.375101729E1,2.717418969E-1,-9.791088104E0,-1.090558887E0
1.376105038E1,2.477998734E-1,-9.781511307E0,-8.367735147E-1
1.377113215E1,2.142810524E-1,-9.532513618E0,-6.931213737E-1
1.378120485E1,1.280897856E-1,-9.192537308E0,-6.787561774E-1
1.379130303E1,1.089361757E-1,-9.858125687E0,-8.080430627E-1
1.380149713E1,4.010287821E-1,-9.336189270E0,-7.362170219E-1
1.381151904E1,2.669534981E-1,-9.422380447E0,-5.877765417E-1
1.382159714E1,2.477998734E-1,-9.556455612E0,-4.393360019E-1
1.383168332E1,6.021417379E-1,-9.920374870E0,-4.967968464E-1
1.384172691E1,6.212953329E-1,-1.024598598E1,-6.835445762E-1
1.385174691E1,6.691793799E-1,-1.020767879E1,-3.531447649E-1
1.386188684E1,6.404489279E-1,-1.005923843E1,-4.728548229E-1
1.387188409E1,6.021417379E-1,-1.007360363E1,-4.201824069E-1
1.388195734E1,4.249708056E-1,-1.003050804E1,-2.765302956E-1
1.389214335E1,3.100491166E-1,-1.003050804E1,-3.579331636E-1
1.390211940E1,6.105214357E-2,-1.019810200E1,-1.328781992E-1
1.391225999E1,5.147533491E-2,-1.017894840E1,-5.147533491E-2
1.392238110E1,2.430114746E-1,-9.934740067E0,-8.020575345E-2
1.393237938E1,4.537012279E-1,-1.038006115E1,-8.020575345E-2
1.394243003E1,4.632780254E-1,-1.003050804E1,-1.711854190E-1
1.395257784E1,3.818751574E-1,-9.824606895E0,-3.232172132E-2
1.396270436E1,3.914519846E-1,-9.384073257E0,1.616086215E-1
1.397282333E1,8.942343593E-1,-1.063863564E1,9.935937077E-2
1.398282206E1,8.080430627E-1,-1.059554005E1,9.457096457E-2
1.399285440E1,6.404489279E-1,-1.061948204E1,-1.999158412E-1
1.400291104E1,6.931213737E-1,-1.138562584E1,-7.553706169E-1
1.401301418E1,8.798691034E-1,-1.165856552E1,-5.877765417E-1
1.402303379E1,5.159504414E-1,-1.124676228E1,-9.325415492E-1
1.403311048E1,2.669534981E-1,-1.094509315E1,-1.358709455E0
1.404324489E1,-2.334346622E-1,-1.125155067E1,-2.024297476E0
1.405329337E1,-2.286462635E-1,-1.113184071E1,-2.517503023E0
1.406334647E1,-3.579331636E-1,-1.092593956E1,-3.020285368E0
1.407351737E1,-1.037886381E0,-1.074876881E1,-3.633201122E0
1.408350520E1,-9.421183467E-1,-1.086847878E1,-4.073734283E0
1.409361067E1,-9.469067454E-1,-1.098340034E1,-4.246116638E0
1.410366886E1,-1.066616893E0,-1.083495998E1,-4.068945885E0
1.411376199E1,-1.502361536E0,-1.049019432E1,-3.738545895E0
1.412380976E1,-1.871068597E0,-1.033217716E1,-3.647566319E0
1.413388828E1,-2.177526474E0,-1.015979481E1,-3.566163540E0
1.414396054E1,-3.025073767E0,-9.934740067E0,-3.556586742E0
1.415406176E1,-3.422511339E0,-9.925163269E0,-3.456030130E0
1.416417289E1,-3.743334293E0,-1.004008484E1,-3.187879562E0
1.417432336E1,-3.968389273E0,-1.014542961E1,-3.211821556E0
1.418431043E1,-3.312378168E0,-1.005445004E1,-3.532644510E0
1.419439257E1,-2.713827610E0,-9.987412453E0,-3.647566319E0
1.420444354E1,-2.091335297E0,-9.973047256E0,-3.657143116E0
1.421451335E1,-1.502361536E0,-1.034175396E1,-3.575740337E0
1.422459513E1,-1.238999367E0,-1.054286766E1,-2.819172382E0
1.423469021E1,-1.061828494E0,-1.073919201E1,-2.503137827E0
1.424475044E1,-7.601590157E-1,-1.063863564E1,-2.910152197E0
1.425487485E1,-1.795651205E-2,-9.963470459E0,-2.704250813E0
1.426496890E1,-4.668693244E-2,-9.704896927E0,-2.345120668E0
1.427498991E1,-1.424549967E-1,-9.599552155E0,-2.316390038E0
1.428503610E1,-2.238578647E-1,-9.412803650E0,-2.426523447E0
1.429517666E1,-2.047042400E-1,-9.230844498E0,-2.349909067E0
1.430519958E1,-1.663970202E-1,-8.977059364E0,-2.029085875E0
1.431529382E1,-2.430114746E-1,-8.862137794E0,-1.555034041E0
1.432541590E1,-2.765302956E-1,-8.708909035E0,-1.363497853E0
1.433549769E1,-4.153940082E-1,-8.656236649E0,-1.315613866E0
1.434554953E1,-6.165069342E-1,-8.550890923E0,-1.267729759E0
1.435563224E1,-9.133879542E-1,-8.613141060E0,-9.469067454E-1
1.436563726E1,-1.061828494E0,-8.732851028E0,-7.888894677E-1
1.437570550E1,-1.076193690E0,-8.799888611E0,-7.122750282E-1
1.438581335E1,-1.148019671E0,-9.010578156E0,-7.888894677E-1
1.439586945E1,-1.210268974E0,-9.269151688E0,-9.900023937E-1
1.440592584E1,-1.320402265E0,-9.417592049E0,-9.995791912E-1
1.441598440E1,-1.368286252E0,-9.513360023E0,-9.756371975E-1
1.442604805E1,-1.148019671E0,-9.479841232E0,-1.171961784E0
1.443611866E1,-1.080982089E0,-9.513360023E0,-1.258152962E0
1.444619154E1,-8.367735147E-1,-9.379284859E0,-1.435323954E0
1.445628269E1,-4.776432514E-1,-9.221267700E0,-1.511938334E0
1.446634825E1,-3.866635859E-1,-9.278728485E0,-1.435323954E0
1.447645894E1,-3.627215624E-1,-9.522936821E0,-1.171961784E0
1.448650538E1,-3.818751574E-1,-9.743204117E0,-8.176198602E-1
1.449657981E1,-4.441244006E-1,-1.004008484E1,-5.398924947E-1
1.450676753E1,-4.920084476E-1,-1.009754562E1,-4.920084476E-1
1.451672817E1,-5.207388401E-1,-1.007839203E1,-4.106055796E-1
1.452687801E1,-6.212953329E-1,-9.848548889E0,-2.382230759E-1
1.453696908E1,-5.781996846E-1,-9.575610161E0,-2.669534981E-1
1.454704519E1,-5.494692922E-1,-9.293093681E0,-3.052607179E-1
1.455706071E1,-5.207388401E-1,-9.125499725E0,-4.153940082E-1
1.456719520E1,-7.362170219E-1,-9.048885345E0,-4.920084476E-1
1.457725656E1,-8.702923059E-1,-9.077615738E0,-6.165069342E-1
1.458737633E1,-9.133879542E-1,-9.130288124E0,-7.410054207E-1
1.459737531E1,-1.095347285E0,-9.412803650E0,-1.152808070E0
1.460747173E1,-1.047463298E0,-9.566033363E0,-1.186326981E0
1.461760873E1,-1.090558887E0,-9.810241699E0,-1.090558887E0
1.462765719E1,-1.076193690E0,-9.968258858E0,-9.852139950E-1
1.463772834E1,-8.798691034E-1,-1.002093124E1,-8.224082589E-1
1.464778260E1,-8.655039072E-1,-1.001614285E1,-6.691793799E-1
1.465786963E1,-9.995791912E-1,-1.008796883E1,-4.393360019E-1
1.466789128E1,-9.373299479E-1,-1.009754562E1,-1.316810958E-2
1.467803394E1,-1.138442874E0,-1.027471638E1,1.137245819E-1
1.468810564E1,-1.262941360E0,-1.042794514E1,4.189852998E-2
1.469830980E1,-1.286883354E0,-1.048540592E1,-3.711012751E-2
1.470825298E1,-1.708262920E0,-1.063384724E1,-6.165069342E-1
1.471829144E1,-1.856703401E0,-1.068173122E1,-8.655039072E-1
1.472843295E1,-1.918952703E0,-1.075834560E1,-9.612720013E-1
1.473849448E1,-1.918952703E0,-1.123718548E1,-1.315613866E0
1.474858085E1,-2.110488892E0,-1.148618221E1,-1.420958757E0
1.475867652E1,-2.086546898E0,-1.158195114E1,-1.502361536E0
1.476867601E1,-1.842338204E0,-1.167293072E1,-1.363497853E0
1.477873801E1,-1.827973008E0,-1.161546993E1,-1.138442874E0
1.478896149E1,-1.765723705E0,-1.155322075E1,-8.798691034E-1
1.479900359E1,-1.832761407E0,-1.152449036E1,-6.883329749E-1
1.480896972E1,-1.780089021E0,-1.156758595E1,-6.021417379E-1
1.481903590E1,-1.531091928E0,-1.135210705E1,-5.973533392E-1
1.482917227E1,-1.344344258E0,-1.107437992E1,-7.936778665E-1
1.483928589E1,-1.387439847E0,-1.074876881E1,-1.009155989E0
1.484926748E1,-1.468842745E0,-1.057159805E1,-9.325415492E-1
1.485947411E1,-1.459265947E0,-1.032260036E1,-8.798691034E-1
1.486952837E1,-1.420958757E0,-9.977835655E0,-9.085995555E-1
1.487950997E1,-1.262941360E0,-9.388861656E0,-1.243787766E0
1.488969510E1,-1.301248670E0,-9.072827339E0,-1.583764434E0
1.489978385E1,-1.306037068E0,-8.862137794E0,-1.904587507E0
1.490979399E1,-1.550245643E0,-8.785523415E0,-2.450465441E0
1.491983150E1,-1.478419542E0,-8.732851028E0,-2.986766577E0
1.492985371E1,-1.325190663E0,-8.728062630E0,-3.657143116E0
1.493998382E1,-1.401805043E0,-8.766369820E0,-4.092887878E0
1.495000468E1,-1.607706428E0,-9.068038940E0,-4.241328239E0
1.496009752E1,-1.420958757E0,-9.211690903E0,-4.169502258E0
1.497014892E1,-1.248576164E0,-9.379284859E0,-3.848679304E0
1.498022751E1,-1.033097982E0,-9.618705750E0,-3.451241732E0
1.499041286E1,-8.415619135E-1,-9.628282547E0,-3.561375141E0
1.500046796E1,-9.469067454E-1,-9.757569313E0,-3.355473757E0
1.501052619E1,-1.076193690E0,-9.963470459E0,-3.274070740E0
1.502059026E1,-8.942343593E-1,-1.023162079E1,-3.278859138E0
1.503072099E1,-8.894459605E-1,-1.045667553E1,-3.178302765E0
1.504076761E1,-8.415619135E-1,-1.057159805E1,-3.154360771E0
1.505080051E1,-7.888894677E-1,-1.044709873E1,-3.130418777E0
1.506088478E1,-7.457938194E-1,-1.014542961E1,-3.168725967E0
1.507091014E1,-7.697358727E-1,-9.781511307E0,-3.264493942E0
1.508099780E1,-8.319851160E-1,-9.408015251E0,-3.503914118E0
1.509105910E1,-7.314286232E-1,-8.886079788E0,-3.714603901E0
1.510117509E1,-7.314286232E-1,-8.852560997E0,-3.695450306E0
1.511122345E1,-8.367735147E-1,-8.962694168E0,-3.728969097E0
1.512131238E1,-5.207388401E-1,-9.010578156E0,-3.398569345E0
1.513141742E1,-5.159504414E-1,-9.077615738E0,-3.221398354E0
1.514154647E1,-4.058171809E-1,-9.149441719E0,-3.288435936E0
1.515163533E1,-5.015852451E-1,-9.532513618E0,-3.269282341E0
1.516158272E1,-3.244143426E-1,-9.556455612E0,-3.111265182E0
1.517176720E1,-2.525882721E-1,-9.714473724E0,-3.159149170E0
1.518179606E1,-1.316810958E-2,-9.838972092E0,-2.981978178E0
1.519186757E1,5.255272985E-1,-9.906009674E0,-2.723404408E0
1.520191777E1,1.033097982E0,-9.944316864E0,-2.297236443E0
1.521197445E1,1.353921056E0,-9.786299706E0,-1.966836691E0
1.522217296E1,1.928529501E0,-9.709685326E0,-1.770512104E0
1.523222816E1,1.818396211E0,-9.896432877E0,-1.698686123E0
1.524224338E1,2.455253839E0,-9.637859344E0,-1.368286252E0
1.525229382E1,2.359485865E0,-9.317035675E0,-1.622071624E0
1.526236534E1,2.766499996E0,-9.762357712E0,-9.325415492E-1
1.527255927E1,2.804807186E0,-9.877279282E0,-8.607155085E-1
1.528257020E1,2.843114614E0,-9.834183693E0,-5.877765417E-1
1.529273945E1,2.139219284E0,-1.041357994E1,-1.568202078E-1
1.530273036E1,1.890222192E0,-1.071046162E1,-1.855506301E-1
1.531276451E1,1.760935307E0,-1.045667553E1,-6.584054977E-2
1.532285724E1,1.564610839E0,-1.027950478E1,-1.185129806E-1
1.533291968E1,1.334767461E0,-9.743204117E0,-1.185129806E-1
1.534308370E1,1.114500880E0,-1.032738876E1,-1.520318091E-1
1.535316578E1,1.516726732E0,-1.021725559E1,2.190694511E-1
1.536319099E1,1.157596469E0,-1.033696556E1,-3.292027414E-1
1.537322958E1,7.745242715E-1,-1.033217716E1,-2.190694511E-1
1.538330168E1,4.872200489E-1,-1.016937160E1,-1.855506301E-1
1.539338220E1,2.753331885E-2,-9.977835655E0,2.142810524E-1
1.540347427E1,-3.962403834E-1,-9.728838921E0,4.345476031E-1
1.541353491E1,-9.947907925E-1,-9.556455612E0,5.686228871E-1
1.542367471E1,-1.148019671E0,-9.479841232E0,4.153940082E-1
1.543377870E1,-1.052251697E0,-9.326612473E0,3.818751574E-1
1.544386352E1,-7.745242715E-1,-9.388861656E0,2.142810524E-1
1.545395025E1,-5.303156972E-1,-8.943540573E0,3.435679376E-1
1.546394426E1,-5.063736439E-1,-9.317035675E0,-3.591302549E-3
1.547406883E1,0.000000000E0,-9.441534042E0,4.584896266E-1
1.548408101E1,1.903390288E-1,-9.522936821E0,4.632780254E-1
1.549419182E1,1.807622313E-1,-9.230844498E0,3.962403834E-1
1.550423242E1,1.071405292E0,-1.093072796E1,5.638344884E-1
1.551437315E1,9.612720013E-1,-1.099776554E1,4.297592044E-1
1.552450105E1,1.047463298E0,-1.117972469E1,-5.626374111E-2
1.553448737E1,1.420958757E0,-1.144308662E1,-1.951274425E-1
1.554452773E1,1.732204914E0,-1.171123791E1,-6.404489279E-1
1.555462687E1,1.823184609E0,-1.128028107E1,-1.176750183E0
1.556469288E1,1.478419542E0,-1.138562584E1,-1.703474522E0
1.557475414E1,2.067393064E0,-1.118451309E1,-2.373851061E0
1.558483215E1,1.765723705E0,-1.114141750E1,-2.752134800E0
1.559492421E1,1.210268974E0,-1.128985786E1,-2.905363798E0
1.560501726E1,5.207388401E-1,-1.177827549E1,-3.341108561E0
1.561504907E1,2.334346622E-1,-1.198417664E1,-3.590105534E0
1.562513068E1,-1.759738177E-1,-1.187883186E1,-4.001908302E0
1.563523687E1,-6.739677787E-1,-1.154364395E1,-4.059369087E0
1.564528779E1,-1.626860023E0,-1.095466995E1,-4.078522682E0
1.565536552E1,-1.995567083E0,-1.098818874E1,-3.987542868E0
1.566545887E1,-2.732981205E0,-1.043752193E1,-3.192667961E0
1.567552925E1,-2.752134800E0,-9.733627319E0,-2.809595585E0
1.568560419E1,-2.900575399E0,-9.403226852E0,-2.814383984E0
1.569566036E1,-2.718616009E0,-9.001001358E0,-3.259705544E0
1.570572942E1,-2.158372879E0,-8.598775864E0,-3.642777920E0
1.571582415E1,-8.415619135E-1,-8.464699745E0,-3.240551949E0
1.572593403E1,-5.207388401E-1,-8.584410667E0,-3.259705544E0
1.573595497E1,-2.956839204E-1,-9.072827339E0,-3.302801132E0
1.574603491E1,4.920084476E-1,-9.953893661E0,-1.918952703E0
1.575612627E1,1.316810958E-2,-1.049019432E1,-1.918952703E0
1.576621880E1,-2.238578647E-1,-1.088763237E1,-1.890222192E0
1.577627604E1,-3.675099611E-1,-1.115099430E1,-2.187103271E0
1.578653028E1,-3.770867586E-1,-1.096424675E1,-2.651578426E0
1.579644935E1,-3.004723191E-1,-1.071046162E1,-2.335543871E0
1.580659115E1,-1.041477770E-1,-1.046625233E1,-1.895010591E0
1.581656635E1,3.722983599E-1,-1.011669922E1,-1.320402265E0
1.582663108E1,5.829881430E-1,-9.925163269E0,-1.272518158E0
1.583680675E1,7.841010690E-1,-9.690531731E0,-1.229422569E0
1.584688777E1,9.277531505E-1,-9.321824074E0,-1.262941360E0
1.585686399E1,7.026981711E-1,-9.001001358E0,-9.181763530E-1
1.586702166E1,5.015852451E-1,-8.938752174E0,-6.452373862E-1
1.587711006E1,3.675099611E-1,-8.905233383E0,-4.249708056E-1
1.588724268E1,1.233013868E-1,-8.775946617E0,-4.189852998E-2
1.589725792E1,-1.568202078E-1,-8.833407402E0,1.472434103E-1
1.590726479E1,-5.255272985E-1,-9.010578156E0,3.292027414E-1
1.591739817E1,-8.080430627E-1,-9.101557732E0,4.010287821E-1
1.592749387E1,-1.018732786E0,-9.024943352E0,4.106055796E-1
1.593747421E1,-9.756371975E-1,-8.933963776E0,4.345476031E-1
1.594764352E1,-8.176198602E-1,-8.814253807E0,4.489128292E-1
1.595779053E1,-4.393360019E-1,-8.206126213E0,4.632780254E-1
1.596779160E1,-2.190694511E-1,-8.287528992E0,2.621650994E-1
1.597782954E1,-6.105214357E-2,-8.407238960E0,-7.062894851E-2
1.598792885E1,1.089361757E-1,-8.268375397E0,-8.499415964E-2
1.599806011E1,1.137245819E-1,-8.412027359E0,7.505822182E-1
1.600814619E1,1.185129806E-1,-8.637083054E0,1.387439847E0
1.601807577E1,1.999158412E-1,-8.862137794E0,1.713051319E0
1.602813456E1,1.424549967E-1,-9.249998093E0,1.569399238E0
1.603822041E1,-8.978256583E-2,-9.403226852E0,1.507149935E0
1.604841764E1,-3.100491166E-1,-9.503783226E0,1.459265947E0
1.605843770E1,-4.010287821E-1,-9.465476036E0,7.074866295E-1
1.606848748E1,-3.914519846E-1,-9.398438454E0,1.233013868E-1
1.607852777E1,-4.967968464E-1,-9.475052834E0,-3.004723191E-1
1.608857159E1,-6.069301367E-1,-9.599552155E0,-6.212953329E-1
1.609864697E1,-1.128866076E0,-1.033696556E1,-1.277306557E0
1.610876504E1,-1.401805043E0,-1.067215443E1,-1.004367590E0
1.611881635E1,-1.674744129E0,-1.085411358E1,-5.446808934E-1
1.612887470E1,-2.234987259E0,-1.155800915E1,4.297592044E-1
1.613895710E1,-2.369062662E0,-1.186925507E1,5.781996846E-1
1.614906444E1,-2.479195833E0,-1.211346340E1,4.776432514E-1
1.615911215E1,-2.479195833E0,-1.230021095E1,3.627215624E-1
1.616925170E1,-2.742558002E0,-1.335365963E1,4.297592044E-1
1.617934880E1,-3.044227362E0,-1.357392693E1,7.553706169E-1
1.618936802E1,-3.216609955E0,-1.336323643E1,7.266402245E-1
1.619945713E1,-2.709039211E0,-1.271201420E1,3.483563364E-1
1.620957038E1,-2.062604666E0,-1.228584576E1,-1.185129806E-1
1.621953086E1,-1.693897724E0,-1.172560310E1,-2.861070931E-1
1.622966960E1,-1.334767461E0,-1.107916832E1,-7.314286232E-1
1.623980114E1,-8.750807047E-1,-1.035611916E1,-1.511938334E0
1.624983374E1,-9.229647517E-1,-1.033696556E1,-1.655590534E0
1.625986274E1,-1.205480576E0,-1.073440361E1,-1.253364563E0
1.626991221E1,-9.516952038E-1,-1.087805557E1,-1.315613866E0
1.628001101E1,-1.258152962E0,-1.061948204E1,-1.784877419E0
1.629018854E1,-1.679532528E0,-1.033696556E1,-1.741781712E0
1.630016767E1,-1.636436820E0,-9.963470459E0,-1.756146908E0
1.631023271E1,-8.176198602E-1,-9.101557732E0,-2.206256866E0
1.632030623E1,-4.680664241E-1,-8.890868187E0,-2.369062662E0
1.633040327E1,-1.280897856E-1,-8.708909035E0,-2.555810213E0
1.634050073E1,8.379706182E-3,-8.641871452E0,-3.211821556E0
1.635060030E1,1.089361757E-1,-8.819042206E0,-3.479972124E0
1.636075465E1,2.334346622E-1,-9.034520149E0,-3.614047527E0
1.637083728E1,3.531447649E-1,-9.245209694E0,-3.556586742E0
1.638083663E1,3.435679376E-1,-9.589975357E0,-3.283647537E0
1.639082311E1,2.142810524E-1,-9.657012939E0,-2.977189779E0
1.640105868E1,9.457096457E-2,-9.690531731E0,-2.555810213E0
1.641100868E1,-2.717418969E-1,-9.652224541E0,-1.588552833E0
1.642106072E1,-5.638344884E-1,-9.594763756E0,-1.229422569E0
1.643113329E1,-8.655039072E-1,-9.479841232E0,-1.061828494E0
1.644136243E1,-1.167173386E0,-9.111134529E0,-1.229422569E0
1.645143129E1,-1.282094955E0,-8.986636162E0,-1.397016644E0
1.646141666E1,-1.358709455E0,-8.957905769E0,-1.325190663E0
1.647146821E1,-1.377863050E0,-8.986636162E0,-1.229422569E0
1.648153209E1,-1.301248670E0,-9.240421295E0,-1.306037068E0
1.649165616E1,-1.080982089E0,-9.254786491E0,-1.387439847E0
1.650170673E1,-9.564836025E-1,-9.336189270E0,-1.353921056E0
1.651174770E1,-6.643909812E-1,-9.106346130E0,-1.205480576E0
1.652188274E1,-5.781996846E-1,-9.020154953E0,-1.315613866E0
1.653187501E1,-3.818751574E-1,-8.991424561E0,-1.272518158E0
1.654207230E1,-2.382230759E-1,-8.957905769E0,-1.535880446E0
1.655202587E1,2.334346622E-1,-9.173383713E0,-1.578976035E0
1.656217962E1,5.303156972E-1,-8.819042206E0,-1.689109325E0
1.657227229E1,6.931213737E-1,-8.780735016E0,-1.689109325E0
1.658233861E1,7.026981711E-1,-9.637859344E0,-1.497573137E0
1.659231814E1,7.122750282E-1,-9.719262123E0,-1.229422569E0
1.660247822E1,4.345476031E-1,-9.709685326E0,-8.894459605E-1
1.661250390E1,3.675099611E-1,-9.719262123E0,-8.798691034E-1
1.662260681E1,3.148375154E-1,-9.944316864E0,-1.215057373E0
1.663270758E1,1.328781992E-1,-9.570821762E0,-4.632780254E-1
1.664279699E1,-1.328781992E-1,-9.436745644E0,-5.734112859E-1
1.665287916E1,1.711854190E-1,-9.182960510E0,-4.249708056E-1
1.666288839E1,2.382230759E-1,-9.436745644E0,-3.435679376E-1
1.667297039E1,4.967968464E-1,-9.767146111E0,-3.579331636E-1
1.668313268E1,4.201824069E-1,-9.503783226E0,-4.824316502E-1
1.669313787E1,2.669534981E-1,-9.106346130E0,-9.133879542E-1
1.670320872E1,-2.753331885E-2,-8.838195801E0,-7.745242715E-1
1.671329669E1,1.759738177E-1,-9.206902504E0,-8.702923059E-1
1.672339357E1,3.627215624E-1,-1.006402683E1,-7.601590157E-1
1.673351137E1,-8.379706182E-3,-9.963470459E0,-8.032546639E-1
1.674359669E1,-3.711012751E-2,-9.925163269E0,-8.224082589E-1
1.675363446E1,1.759738177E-1,-1.004966164E1,-8.176198602E-1
1.676370328E1,3.962403834E-1,-9.929951668E0,-7.362170219E-1
1.677385620E1,8.750807047E-1,-1.103128433E1,-7.266402245E-1
1.678384632E1,1.301248670E0,-1.138562584E1,-5.734112859E-1
1.679391625E1,1.080982089E0,-1.106959152E1,-4.489128292E-1
1.680410201E1,1.210268974E0,-1.099297714E1,-3.675099611E-1
1.681410942E1,1.535880446E0,-1.113184071E1,-5.925649405E-1
1.682423002E1,1.047463298E0,-1.109353352E1,-1.233013868E-1
1.683424176E1,1.598129630E0,-1.109353352E1,-6.452373862E-1
1.684432683E1,1.727416515E0,-1.192671585E1,-7.170634270E-1
1.685438646E1,1.842338204E0,-1.159152794E1,-9.421183467E-1
1.686445729E1,1.478419542E0,-1.106001472E1,-8.319851160E-1
1.687454173E1,1.430535555E0,-1.125155067E1,-1.100135684E0
1.688463384E1,1.080982089E0,-1.086369038E1,-6.404489279E-1
1.689469310E1,1.042674899E0,-1.125633907E1,-1.526303530E0
1.690479534E1,7.745242715E-1,-1.133774185E1,-1.392228246E0
1.691484289E1,6.979097724E-1,-1.157716274E1,-1.660378933E0
1.692494753E1,7.314286232E-1,-1.177348709E1,-2.455253839E0
1.693501275E1,1.185129806E-1,-1.162025833E1,-2.761711597E0
1.694511357E1,-1.711854190E-1,-1.138083744E1,-3.230975151E0
1.695515789E1,-5.255272985E-1,-1.103128433E1,-3.580528736E0
1.696524393E1,-8.080430627E-1,-1.042794514E1,-4.423287868E0
1.697533355E1,-1.617283225E0,-1.019810200E1,-3.949235678E0
1.698541450E1,-2.086546898E0,-9.791088104E0,-3.973177671E0
1.699552677E1,-1.976413488E0,-9.513360023E0,-3.872621298E0
1.700558536E1,-2.570175409E0,-9.216479301E0,-3.154360771E0
1.701562907E1,-2.685097218E0,-9.077615738E0,-2.752134800E0
1.702569578E1,-2.297236443E0,-9.187748909E0,-2.416946650E0
1.703576930E1,-1.990778685E0,-9.455899239E0,-2.091335297E0
1.704592818E1,-1.818396211E0,-9.642647743E0,-2.105700493E0
1.705596200E1,-1.521515131E0,-9.848548889E0,-2.062604666E0
1.706602775E1,-1.104924083E0,-1.016458321E1,-1.918952703E0
1.707619212E1,-5.542576909E-1,-1.100255394E1,-1.918952703E0
1.708618169E1,-3.579331636E-1,-1.125155067E1,-2.057816267E0
1.709625032E1,-2.286462635E-1,-1.128985786E1,-2.024297476E0
1.710629225E1,-1.376665980E-1,-1.075834560E1,-1.674744129E0
1.711636804E1,-5.626374111E-2,-1.033696556E1,-1.598129630E0
1.712650404E1,2.274491638E-2,-9.939528465E0,-1.492784739E0
1.713659365E1,9.935937077E-2,-9.575610161E0,-1.339555860E0
1.714665280E1,-1.795651205E-2,-9.273940086E0,-1.215057373E0
1.715671438E1,-1.376665980E-1,-9.182960510E0,-1.234210968E0
1.716687222E1,-1.759738177E-1,-9.159018517E0,-1.248576164E0
1.717682450E1,-4.584896266E-1,-8.938752174E0,-9.852139950E-1
1.718700466E1,-5.542576909E-1,-8.914810181E0,-9.373299479E-1
1.719703232E1,-6.691793799E-1,-8.871714592E0,-8.271966577E-1
1.720713458E1,-7.601590157E-1,-8.828619003E0,-6.931213737E-1
1.721714981E1,-9.325415492E-1,-8.833407402E0,-5.303156972E-1
1.722718690E1,-1.023521185E0,-8.900444984E0,-5.638344884E-1
1.723735632E1,-1.114500880E0,-8.871714592E0,-5.542576909E-1
1.724750800E1,-1.224634171E0,-8.847772598E0,-4.058171809E-1
1.725753738E1,-1.219845772E0,-8.790311813E0,-4.537012279E-1
1.726756979E1,-1.133654475E0,-8.699332237E0,-5.159504414E-1
1.727765199E1,-9.277531505E-1,-8.292317390E0,-2.573766708E-1
1.728783346E1,-8.367735147E-1,-8.172607422E0,-5.147533491E-2
1.729784342E1,-7.170634270E-1,-7.990648270E0,5.147533491E-2
1.730784001E1,-4.920084476E-1,-8.091204643E0,5.147533491E-2
1.731795238E1,2.753331885E-2,-8.282740593E0,3.232172132E-2
1.732798569E1,1.520318091E-1,-8.311470985E0,1.089361757E-1
1.733813111E1,1.520318091E-1,-8.488641739E0,2.334346622E-1
1.734820778E1,2.286462635E-1,-8.833407402E0,0.000000000E0
1.735817754E1,5.626374111E-2,-9.020154953E0,-2.430114746E-1
1.736835037E1,-4.249708056E-1,-9.350554466E0,-2.238578647E-1
1.737841384E1,-9.181763530E-1,-9.752780914E0,8.379706182E-3
1.738848600E1,-1.602918029E0,-1.071525002E1,5.494692922E-1
1.739849595E1,-1.521515131E0,-1.094509315E1,4.249708056E-1
1.740858686E1,-1.301248670E0,-1.085890198E1,-5.147533491E-2
1.741868762E1,-1.286883354E0,-1.045667553E1,-9.325415492E-1
1.742879883E1,-1.401805043E0,-1.029865837E1,-1.195903778E0
1.743897803E1,-1.607706428E0,-1.026513958E1,-1.071405292E0
1.744890675E1,-1.804031014E0,-1.035133076E1,-5.734112859E-1
1.745907493E1,-1.780089021E0,-1.082538319E1,7.745242715E-1
1.746924370E1,-1.545457244E0,-1.110311031E1,1.095347285E0
1.747924102E1,-1.411381960E0,-1.130901146E1,1.066616893E0
1.748922271E1,-1.727416515E0,-1.201769543E1,7.457938194E-1
1.749928467E1,-1.832761407E0,-1.271680260E1,7.793126702E-1
1.750942015E1,-1.962048292E0,-1.339675522E1,7.457938194E-1
1.751951614E1,-2.072181463E0,-1.386123085E1,2.573766708E-1
1.752965678E1,-2.005143881E0,-1.340633202E1,-1.215057373E0
1.753962789E1,-2.067393064E0,-1.303283691E1,-1.104924083E0
1.754980654E1,-1.981201887E0,-1.268328381E1,-4.920084476E-1
1.755976959E1,-6.260837317E-1,-1.115578270E1,-5.590460896E-1
1.756981751E1,2.573766708E-1,-1.103607273E1,-8.702923059E-1
1.757996914E1,4.441244006E-1,-1.095945835E1,-1.238999367E0
1.759013622E1,1.280897856E-1,-1.096903515E1,-1.555034041E0
1.760015290E1,-9.660604000E-1,-1.097382355E1,-9.660604000E-1
1.761015089E1,-1.066616893E0,-1.070088482E1,-1.205480576E0
1.762023262E1,-1.052251697E0,-1.017894840E1,-1.540668845E0
1.763043850E1,-4.584896266E-1,-8.646659851E0,-2.292448044E0
1.764045608E1,-1.903390288E-1,-8.076839447E0,-2.742558002E0
1.765044416E1,-2.047042400E-1,-7.870938301E0,-3.077746391E0
1.766052068E1,-5.147533491E-2,-7.846996307E0,-3.494337320E0
1.767061638E1,4.728548229E-1,-8.091204643E0,-3.341108561E0
1.768069867E1,6.739677787E-1,-8.402450562E0,-2.991554976E0
1.769074789E1,6.117185354E-1,-8.780735016E0,-2.800018787E0
1.770092656E1,1.807622313E-1,-9.412803650E0,-2.723404408E0
1.771096625E1,1.316810958E-2,-9.613917351E0,-2.531868219E0
1.772114080E1,-1.759738177E-1,-9.743204117E0,-2.234987259E0
1.773107048E1,-5.925649405E-1,-1.000177765E1,-1.540668845E0
1.774114969E1,-8.224082589E-1,-9.977835655E0,-1.377863050E0
1.775130956E1,-9.516952038E-1,-9.738415718E0,-1.157596469E0
1.776131801E1,-1.100135684E0,-9.403226852E0,-1.176750183E0
1.777139182E1,-1.387439847E0,-8.857349396E0,-1.224634171E0
1.778153932E1,-1.397016644E0,-8.742427826E0,-1.210268974E0
1.779154856E1,-1.550245643E0,-8.656236649E0,-1.449689150E0
1.780175272E1,-1.420958757E0,-8.747216225E0,-1.310825467E0
1.781176448E1,-1.301248670E0,-8.890868187E0,-1.344344258E0
1.782183248E1,-1.272518158E0,-8.804677010E0,-1.291671872E0
1.783189267E1,-1.076193690E0,-8.617929459E0,-1.291671872E0
1.784197710E1,-4.153940082E-1,-8.517372131E0,-1.234210968E0
1.785198358E1,-2.717418969E-1,-8.325836182E0,-1.186326981E0
1.786207525E1,8.499415964E-2,-8.670601845E0,-1.310825467E0
1.787219518E1,4.584896266E-1,-9.154230118E0,-1.195903778E0
1.788236629E1,6.404489279E-1,-9.240421295E0,-1.200692177E0
1.789235512E1,7.601590157E-1,-9.714473724E0,-1.238999367E0
1.790238267E1,8.319851160E-1,-9.872490883E0,-1.234210968E0
1.791244182E1,7.266402245E-1,-1.009275723E1,-1.464054346E0
1.792260330E1,6.308721304E-1,-1.025077438E1,-1.363497853E0
1.793260542E1,6.069301367E-1,-1.028908157E1,-1.219845772E0
1.794266584E1,4.345476031E-1,-1.005923843E1,-8.128314614E-1
1.795278468E1,5.351040959E-1,-9.853337288E0,-6.883329749E-1
1.796290101E1,5.015852451E-1,-9.570821762E0,-5.446808934E-1
1.797296881E1,3.914519846E-1,-9.312247276E0,-3.579331636E-1
1.798297182E1,3.004723191E-1,-9.082404137E0,-2.142810524E-1
1.799304065E1,-3.591302549E-3,-9.216479301E0,-2.573766708E-1
1.800324691E1,2.334346622E-1,-9.781511307E0,-5.542576909E-1
1.801328041E1,2.142810524E-1,-1.007839203E1,-6.117185354E-1
1.802331558E1,-2.238578647E-1,-9.771934509E0,-6.356605291E-1
1.803336474E1,-2.753331885E-2,-9.350554466E0,-1.061828494E0
1.804343644E1,4.345476031E-1,-9.652224541E0,-9.804255962E-1
1.805350401E1,5.877765417E-1,-1.017894840E1,-1.100135684E0
1.806359380E1,7.793126702E-1,-1.025556278E1,-1.023521185E0
1.807374489E1,7.505822182E-1,-1.018852520E1,-1.148019671E0
1.808376223E1,9.421183467E-1,-1.049977112E1,-9.469067454E-1
1.809383706E1,9.804255962E-1,-1.067215443E1,-7.984662652E-1
1.810392787E1,1.009155989E0,-1.044231033E1,-5.207388401E-1
1.811397843E1,9.995791912E-1,-1.095466995E1,-5.398924947E-1
1.812405623E1,1.272518158E0,-1.074876881E1,-8.271966577E-1
1.813413663E1,1.325190663E0,-1.082538319E1,-7.553706169E-1
1.814419209E1,1.128866076E0,-1.104086113E1,-6.308721304E-1
1.815434900E1,1.741781712E0,-1.165377712E1,-9.181763530E-1
1.816441807E1,1.818396211E0,-1.139999104E1,-9.421183467E-1
1.817442146E1,1.813607812E0,-1.158673954E1,-1.143231273E0
1.818451612E1,1.411381960E0,-1.125633907E1,-7.457938194E-1
1.819456871E1,1.329979062E0,-1.114141750E1,-1.191115379E0
1.820465794E1,8.415619135E-1,-1.151491261E1,-1.401805043E0
1.821474521E1,9.133879542E-1,-1.149097061E1,-1.866280198E0
1.822485002E1,4.297592044E-1,-1.168729591E1,-2.302024841E0
1.823487478E1,2.382230759E-1,-1.185488987E1,-2.948459387E0
1.824496766E1,-8.379706182E-3,-1.200333023E1,-3.211821556E0
1.825510454E1,-9.325415492E-1,-1.159631634E1,-3.910928488E0
1.826515413E1,-8.655039072E-1,-1.135210705E1,-4.169502258E0
1.827518634E1,-1.368286252E0,-1.109832191E1,-4.159925461E0
1.828528086E1,-2.081758261E0,-1.054286766E1,-4.332307816E0
1.829534886E1,-2.254140854E0,-9.752780914E0,-4.356249809E0
1.830542147E1,-2.536656618E0,-9.479841232E0,-3.977966070E0
1.831549376E1,-2.766499996E0,-9.226056099E0,-3.503914118E0
1.832558886E1,-2.493561029E0,-9.197325706E0,-2.862268209E0
1.833564342E1,-2.134430885E0,-9.326612473E0,-2.685097218E0
1.834571854E1,-2.033874273E0,-9.546878815E0,-2.584540844E0
1.835597794E1,-1.713051319E0,-9.853337288E0,-2.608482838E0
1.836590877E1,-1.435323954E0,-1.058117485E1,-2.546233416E0
1.837596349E1,-1.171961784E0,-1.106001472E1,-2.517503023E0
1.838603980E1,-9.516952038E-1,-1.146224022E1,-2.460042238E0
1.839611360E1,-5.590460896E-1,-1.146224022E1,-1.990778685E0
1.840620431E1,-3.292027414E-1,-1.106480312E1,-1.564610839E0
1.841629116E1,-1.233013868E-1,-1.056680965E1,-1.401805043E0
1.842641229E1,1.316810958E-2,-1.008796883E1,-1.641225219E0
1.843649820E1,1.089361757E-1,-9.340977669E0,-1.909375906E0
1.844653621E1,8.379706182E-3,-9.125499725E0,-1.871068597E0
1.845664594E1,1.316810958E-2,-8.924386978E0,-1.756146908E0
1.846668321E1,-2.190694511E-1,-8.742427826E0,-1.569399238E0
1.847682846E1,-4.249708056E-1,-8.684967041E0,-1.430535555E0
1.848690014E1,-4.967968464E-1,-8.656236649E0,-1.215057373E0
1.849702468E1,-6.260837317E-1,-8.627506256E0,-9.947907925E-1
1.850706578E1,-7.649474144E-1,-8.646659851E0,-8.128314614E-1
1.851713194E1,-8.750807047E-1,-8.680178642E0,-7.697358727E-1
1.852721775E1,-9.516952038E-1,-8.632294655E0,-8.415619135E-1
1.853732781E1,-1.171961784E0,-8.646659851E0,-9.852139950E-1
1.854732900E1,-1.200692177E0,-8.498218536E0,-7.888894677E-1
1.855741629E1,-1.248576164E0,-8.301894188E0,-4.680664241E-1
1.856756663E1,-1.286883354E0,-8.048109055E0,-1.376665980E-1
1.857756395E1,-1.033097982E0,-7.803900242E0,-1.041477770E-1
1.858770047E1,-8.990227580E-1,-7.765593052E0,3.591302549E-3
1.859778269E1,-5.973533392E-1,-7.813477039E0,8.020575345E-2
1.860780775E1,-8.020575345E-2,-7.799111843E0,4.189852998E-2
1.861800903E1,1.137245819E-1,-7.890091896E0,6.105214357E-2
1.862803201E1,1.424549967E-1,-7.990648270E0,-5.147533491E-2
1.863812402E1,7.062894851E-2,-8.416815758E0,-3.770867586E-1
1.864813148E1,-7.062894851E-2,-8.718485832E0,-3.435679376E-1
1.865832449E1,-4.776432514E-1,-9.297882080E0,-3.232172132E-2
1.866833066E1,-9.995791912E-1,-9.944316864E0,5.686228871E-1
1.867832985E1,-1.626860023E0,-1.056202126E1,6.883329749E-1
1.868849480E1,-1.607706428E0,-1.048540592E1,1.472434103E-1
1.869856951E1,-1.622071624E0,-1.031781197E1,-7.553706169E-1
1.870857957E1,-1.669955730E0,-1.004966164E1,-2.134430885E0
1.871871819E1,-1.727416515E0,-1.012627602E1,-2.177526474E0
1.872883232E1,-1.837549806E0,-1.026992798E1,-1.689109325E0
1.873896833E1,-1.875856996E0,-1.044709873E1,-9.947907925E-1
1.874897130E1,-1.899798989E0,-1.093072796E1,1.185129806E-1
1.875895898E1,-1.818396211E0,-1.123239708E1,5.063736439E-1
1.876915156E1,-1.593341231E0,-1.145266342E1,7.457938194E-1
1.877922266E1,-1.286883354E0,-1.207036781E1,1.143231273E0
1.878924740E1,-1.363497853E0,-1.238640213E1,1.095347285E0
1.879936007E1,-1.741781712E0,-1.292749214E1,1.009155989E0
1.880944230E1,-2.005143881E0,-1.334408283E1,6.979097724E-1
1.881959224E1,-2.335543871E0,-1.292270374E1,-5.351040959E-1
1.882969158E1,-2.086546898E0,-1.267849541E1,-1.143231273E0
1.883975118E1,-2.191891670E0,-1.205600262E1,-1.071405292E0
1.884978454E1,-2.167949677E0,-1.180221748E1,-5.207388401E-1
1.885982640E1,-1.454477549E0,-1.155800915E1,-5.590460896E-1
1.886992090E1,-7.936778665E-1,-1.157237434E1,-1.037886381E0
1.888002938E1,-3.292027414E-1,-1.182615948E1,-1.487996340E0
1.889007365E1,-8.176198602E-1,-1.198896503E1,-2.273294449E0
1.890020662E1,-1.344344258E0,-1.180221748E1,-2.321178436E0
1.891021673E1,-2.014720678E0,-1.121803188E1,-1.789665818E0
1.892024201E1,-1.736993313E0,-9.226056099E0,-1.454477549E0
1.893037864E1,-9.229647517E-1,-9.005789757E0,-1.660378933E0
1.894043710E1,-5.494692922E-1,-8.689755440E0,-1.832761407E0
1.895050317E1,1.759738177E-1,-7.957129478E0,-2.340332270E0
1.896051341E1,3.196259141E-1,-7.794323444E0,-2.852691412E0
1.897068836E1,4.776432514E-1,-7.736862659E0,-3.374627352E0
1.898080089E1,4.967968464E-1,-8.000225067E0,-3.719392300E0
1.899090999E1,2.382230759E-1,-8.953117371E0,-3.886986494E0
1.900080490E1,2.753331885E-2,-9.436745644E0,-3.676296711E0
1.901088908E1,-1.376665980E-1,-9.738415718E0,-3.312378168E0
1.902102254E1,-2.813186944E-1,-9.929951668E0,-2.412158251E0
1.903117178E1,-3.962403834E-1,-9.872490883E0,-1.933317900E0
1.904111110E1,-6.691793799E-1,-9.862914085E0,-1.593341231E0
1.905134573E1,-9.229647517E-1,-9.781511307E0,-1.306037068E0
1.906132839E1,-1.478419542E0,-9.470264435E0,-1.191115379E0
1.907140982E1,-1.526303530E0,-9.254786491E0,-1.262941360E0
1.908139898E1,-1.593341231E0,-9.154230118E0,-1.238999367E0
1.909148479E1,-1.291671872E0,-9.144653320E0,-1.540668845E0
1.910152432E1,-1.224634171E0,-9.149441719E0,-1.550245643E0
1.911160907E1,-9.804255962E-1,-9.044096947E0,-1.679532528E0
1.912166756E1,-8.990227580E-1,-9.063250542E0,-1.717839718E0
1.913176003E1,-7.793126702E-1,-8.967482567E0,-1.746570110E0
1.914181531E1,-7.026981711E-1,-8.924386978E0,-1.698686123E0
1.915203508E1,-6.165069342E-1,-8.933963776E0,-1.598129630E0
1.916202295E1,-1.520318091E-1,-9.001001358E0,-1.746570110E0
1.917207888E1,-1.376665980E-1,-8.761581421E0,-1.559822440E0
1.918213924E1,-1.795651205E-2,-8.665813446E0,-1.569399238E0
1.919229847E1,1.568202078E-1,-8.814253807E0,-1.483207941E0
1.920229778E1,4.153940082E-1,-9.053673744E0,-1.387439847E0
1.921247215E1,4.393360019E-1,-9.259574890E0,-1.478419542E0
1.922250853E1,3.435679376E-1,-9.384073257E0,-1.464054346E0
1.923267676E1,3.292027414E-1,-9.441534042E0,-1.267729759E0
1.924266523E1,3.579331636E-1,-9.633070946E0,-1.090558887E0
1.925271131E1,4.489128292E-1,-9.633070946E0,-8.846575022E-1
1.926276881E1,3.579331636E-1,-9.680954933E0,-8.750807047E-1
1.927288266E1,8.367735147E-1,-9.977835655E0,-4.920084476E-1
1.928290473E1,6.069301367E-1,-9.858125687E0,-4.393360019E-1
1.929299895E1,4.967968464E-1,-9.791088104E0,-4.010287821E-1
1.930312432E1,3.292027414E-1,-9.738415718E0,-2.142810524E-1
1.931319627E1,2.813186944E-1,-9.695320129E0,-1.280897856E-1
1.932327419E1,2.334346622E-1,-9.211690903E0,-3.914519846E-1
1.933332315E1,2.573766708E-1,-9.762357712E0,-8.224082589E-1
1.934334872E1,5.734112859E-1,-9.843760490E0,-1.224634171E0
1.935356570E1,3.818751574E-1,-9.580398560E0,-1.157596469E0
1.936351967E1,1.951274425E-1,-8.933963776E0,-1.157596469E0
1.937360629E1,6.835445762E-1,-1.001135445E1,-1.258152962E0
1.938366356E1,9.804255962E-1,-1.015021801E1,-1.157596469E0
1.939377099E1,7.410054207E-1,-9.882067680E0,-1.090558887E0
1.940384823E1,5.255272985E-1,-1.020289040E1,-7.984662652E-1
1.941393343E1,5.638344884E-1,-1.046146393E1,-6.691793799E-1
1.942404920E1,5.638344884E-1,-1.063384724E1,-6.165069342E-1
1.943421028E1,5.734112859E-1,-1.060990524E1,-4.393360019E-1
1.944417231E1,1.152808070E0,-1.149575901E1,-2.382230759E-1
1.945425603E1,1.148019671E0,-1.139041424E1,-3.148375154E-1
1.946434076E1,7.745242715E-1,-1.140477943E1,-2.190694511E-1
1.947438524E1,1.435323954E0,-1.189319706E1,-6.021417379E-1
1.948447655E1,1.741781712E0,-1.253963184E1,-1.328781992E-1
1.949454933E1,1.420958757E0,-1.194586945E1,-7.541735470E-2
1.950470582E1,1.535880446E0,-1.113184071E1,-2.525882721E-1
1.951476727E1,1.713051319E0,-1.092593956E1,-4.824316502E-1
1.952478051E1,1.804031014E0,-1.073440361E1,-7.026981711E-1
1.953484209E1,1.674744129E0,-1.069609642E1,-8.511387110E-1
1.954491688E1,1.550245643E0,-1.083974838E1,-1.377863050E0
1.955500126E1,1.612494826E0,-1.096903515E1,-2.172738075E0
1.956510256E1,8.798691034E-1,-1.095466995E1,-1.387439847E0
1.957516773E1,7.362170219E-1,-1.110789871E1,-2.120065689E0
1.958520933E1,-8.020575345E-2,-1.127070427E1,-2.742558002E0
1.959528409E1,-6.069301367E-1,-1.121803188E1,-3.039438963E0
1.960542611E1,-7.888894677E-1,-1.114620590E1,-3.312378168E0
1.961544616E1,-1.665167332E0,-1.065778923E1,-4.001908302E0
1.962554086E1,-1.952471495E0,-1.058117485E1,-4.279635429E0
1.963561730E1,-2.512714624E0,-1.032738876E1,-4.236539841E0
1.964568824E1,-2.546233416E0,-9.896432877E0,-3.968389273E0
1.965575238E1,-2.914940596E0,-9.053673744E0,-3.599682331E0
1.966582278E1,-3.039438963E0,-8.680178642E0,-3.350685358E0
1.967590626E1,-2.622848034E0,-8.541314125E0,-3.178302765E0
1.968600895E1,-2.177526474E0,-8.756793022E0,-2.761711597E0
1.969607148E1,-2.076969862E0,-9.091980934E0,-2.747346401E0
1.970613374E1,-1.717839718E0,-9.575610161E0,-2.665943623E0
1.971623001E1,-1.511938334E0,-1.016458321E1,-2.469619036E0
1.972631535E1,-1.124077678E0,-1.142393303E1,-2.460042238E0
1.973637692E1,-1.124077678E0,-1.183573627E1,-2.230198860E0
1.974654436E1,-3.196259141E-1,-1.208473301E1,-1.617283225E0
1.975660159E1,-4.393360019E-1,-1.142872143E1,-1.171961784E0
1.976663122E1,-3.483563364E-1,-1.082059479E1,-1.497573137E0
1.977666985E1,-3.722983599E-1,-1.039921474E1,-2.057816267E0
1.978683437E1,-6.021417379E-1,-9.949105263E0,-2.440888643E0
1.979687835E1,-3.962403834E-1,-9.685743332E0,-2.091335297E0
1.980705273E1,-3.244143426E-1,-9.465476036E0,-1.794454217E0
1.981706075E1,-2.956839204E-1,-9.398438454E0,-1.583764434E0
1.982705470E1,-4.824316502E-1,-9.269151688E0,-1.329979062E0
1.983713765E1,-6.021417379E-1,-9.211690903E0,-1.171961784E0
1.984733410E1,-7.122750282E-1,-9.202114105E0,-9.756371975E-1
1.985732539E1,-7.984662652E-1,-9.048885345E0,-6.548141837E-1
1.986748894E1,-8.367735147E-1,-9.010578156E0,-6.739677787E-1
1.987755443E1,-7.888894677E-1,-8.881291389E0,-5.734112859E-1
1.988760890E1,-7.649474144E-1,-8.713697433E0,-3.387795389E-1
1.989760004E1,-7.553706169E-1,-8.397662163E0,-4.189852998E-2
1.990769920E1,-7.218518257E-1,-8.009801865E0,1.328781992E-1
1.991773939E1,-6.643909812E-1,-7.727285862E0,3.292027414E-1
1.992783037E1,-5.494692922E-1,-7.430405140E0,7.888894677E-1
1.993795532E1,-2.573766708E-1,-7.736862659E0,8.990227580E-1
1.994798209E1,-1.795651205E-2,-7.947552681E0,8.319851160E-1
1.995806290E1,1.807622313E-1,-7.942764282E0,8.367735147E-1
1.996820565E1,4.632780254E-1,-7.827842236E0,5.734112859E-1
1.997821680E1,4.632780254E-1,-7.799111843E0,4.297592044E-1
1.998839651E1,2.813186944E-1,-7.976283073E0,3.627215624E-1
1.999841694E1,-5.734112859E-1,-8.857349396E0,8.894459605E-1
2.000844047E1,-8.607155085E-1,-9.269151688E0,9.852139950E-1
2.001861393E1,-1.023521185E0,-9.609128952E0,6.931213737E-1
2.002861285E1,-1.085770488E0,-9.834183693E0,-1.089361757E-1
2.003875158E1,-1.095347285E0,-1.017416000E1,-1.722628117E0
2.004880622E1,-1.310825467E0,-1.037048435E1,-2.225410461E0
2.005891797E1,-1.626860023E0,-1.062427044E1,-2.311601639E0
2.006888628E1,-2.024297476E0,-1.122760868E1,-1.104924083E0
2.007895821E1,-2.000355482E0,-1.150054741E1,-1.089361757E-1
2.008904178E1,-1.909375906E0,-1.172081470E1,7.218518257E-1
2.009911606E1,-1.732204914E0,-1.187404346E1,1.248576164E0
2.010917126E1,-1.262941360E0,-1.223796177E1,1.334767461E0
2.011932869E1,-1.258152962E0,-1.247259331E1,1.033097982E0
2.012946034E1,-1.655590534E0,-1.296101093E1,8.942343593E-1
2.013950365E1,-2.546233416E0,-1.355956173E1,1.137245819E-1
2.014946853E1,-2.594117641E0,-1.352125454E1,-6.117185354E-1
2.015954584E1,-2.483984232E0,-1.330098724E1,-9.660604000E-1
2.016970647E1,-2.426523447E0,-1.275989819E1,-1.076193690E0
2.017977103E1,-2.110488892E0,-1.160589314E1,-8.846575022E-1
2.018991187E1,-1.760935307E0,-1.121803188E1,-9.085995555E-1
2.019995205E1,-7.936778665E-1,-1.086847878E1,-1.550245643E0
2.021002322E1,-4.920084476E-1,-1.120845509E1,-2.009932280E0
2.022005814E1,-8.894459605E-1,-1.132816505E1,-2.167949677E0
2.023006898E1,-1.133654475E0,-1.144787502E1,-2.321178436E0
2.024015061E1,-2.096123695E0,-1.033696556E1,-1.866280198E0
2.025034316E1,-1.866280198E0,-9.886856079E0,-1.856703401E0
2.026034781E1,-1.329979062E0,-9.269151688E0,-1.938106298E0
2.027047828E1,-7.936778665E-1,-8.598775864E0,-2.086546898E0
2.028051294E1,9.935937077E-2,-7.775169849E0,-2.622848034E0
