"Time (s)","Gyroscope x (rad/s)","Gyroscope y (rad/s)","Gyroscope z (rad/s)"
0.000000000E0,2.349389344E-2,-1.504377872E-1,-1.937236786E-1
1.011000000E-2,-2.842965350E-2,-1.797593236E-1,-2.151039541E-1
1.998600000E-2,-6.996849179E-2,-1.980852783E-1,-2.328190506E-1
3.001000000E-2,-9.257049859E-2,-2.090808451E-1,-2.474798262E-1
4.001000000E-2,-8.401839435E-2,-2.176329643E-1,-2.615297139E-1
5.007800000E-2,-4.858820513E-2,-2.377915084E-1,-2.749687433E-1
6.039200000E-2,-6.438503042E-3,-2.487871051E-1,-2.816882730E-1
7.000800000E-2,3.204600886E-2,-2.579500675E-1,-2.755796313E-1
7.997800000E-2,5.403715745E-2,-2.555066049E-1,-2.603079975E-1
9.007700000E-2,4.976109788E-2,-2.329045832E-1,-2.456472218E-1
1.000180000E-1,2.593735233E-2,-2.176329643E-1,-2.419820428E-1
1.100060000E-1,-1.254715584E-2,-2.109134495E-1,-2.450363636E-1
1.199990000E-1,-6.630329788E-2,-2.066373825E-1,-2.560319304E-1
1.300060000E-1,-1.280006915E-1,-2.115243077E-1,-2.786339521E-1
1.399960000E-1,-2.281825840E-1,-2.298502624E-1,-3.494943082E-1
1.500120000E-1,-2.648344934E-1,-2.329045832E-1,-3.769832551E-1
1.600060000E-1,-2.947668731E-1,-2.255742252E-1,-3.971418142E-1
1.700120000E-1,-3.118711114E-1,-2.127460390E-1,-4.087482393E-1
1.799960000E-1,-3.143145740E-1,-2.011395991E-1,-4.075265229E-1
1.900060000E-1,-3.002646863E-1,-1.815919131E-1,-3.910331428E-1
2.000010000E-1,-2.813278735E-1,-1.596007645E-1,-3.672094047E-1
2.100100000E-1,-2.562823892E-1,-1.369987577E-1,-3.446074128E-1
2.199950000E-1,-2.269608676E-1,-1.101206914E-1,-3.287248909E-1
2.300300000E-1,-1.884763539E-1,-8.690781146E-2,-3.299466372E-1
2.400610000E-1,-1.451049149E-1,-6.858184934E-2,-3.525486588E-1
2.502050000E-1,-1.170051098E-1,-4.842329770E-2,-3.818701804E-1
2.599940000E-1,-1.066204011E-1,-2.643214725E-2,-4.063047767E-1
2.701030000E-1,-1.102855951E-1,-5.662729964E-3,-4.203546941E-1
2.800340000E-1,-1.353310645E-1,-1.482570730E-2,-4.368480444E-1
2.900550000E-1,-1.805351079E-1,-7.469050586E-2,-4.667804539E-1
3.000170000E-1,-2.410107553E-1,-1.596007645E-1,-5.113735795E-1
3.100700000E-1,-3.167580366E-1,-2.726108432E-1,-5.596319437E-1
3.199970000E-1,-3.863966763E-1,-3.886752427E-1,-5.852882862E-1
3.300900000E-1,-4.401528239E-1,-4.705311656E-1,-5.700166225E-1
3.399840000E-1,-4.804699123E-1,-4.949657619E-1,-5.187039971E-1
3.500750000E-1,-5.293391347E-1,-4.864136875E-1,-4.356263280E-1
3.600490000E-1,-6.124168634E-1,-5.248982310E-1,-3.342227042E-1
3.701110000E-1,-9.300667644E-1,-1.031916380E0,-1.546283066E-1
3.800930000E-1,-1.033913851E0,-1.400268078E0,-9.415264428E-2
3.900550000E-1,-1.029026866E0,-1.720972419E0,-4.528342187E-2
3.999990000E-1,-9.624426365E-1,-1.931110024E0,-2.451400273E-2
4.101240000E-1,-8.726454377E-1,-1.946381688E0,-1.290756278E-2
4.200320000E-1,-7.675766349E-1,-1.766176343E0,7.250990719E-3
4.301240000E-1,-6.991596818E-1,-1.442417860E0,4.145944118E-2
4.400010000E-1,-7.272595167E-1,-9.983187914E-1,1.037677005E-1
4.500750000E-1,-8.500434160E-1,-5.230656266E-1,1.960083544E-1
4.599890000E-1,-9.783251286E-1,-1.528812498E-1,3.200139999E-1
4.704090000E-1,-1.016198754E0,6.397590786E-2,4.507391453E-1
4.800180000E-1,-9.001343846E-1,1.562165618E-1,5.460341573E-1
4.900550000E-1,-6.374623179E-1,2.148596346E-1,5.625275373E-1
5.000480000E-1,-3.204232156E-1,2.533441186E-1,4.886128008E-1
5.100730000E-1,-3.881436214E-2,3.535260260E-1,3.603310883E-1
5.200660000E-1,1.297844499E-1,4.958576560E-1,2.241081297E-1
5.300660000E-1,1.047389656E-1,6.149763465E-1,9.521558136E-2
5.400210000E-1,-9.012704343E-2,6.937779784E-1,1.753203571E-3
5.500460000E-1,-3.185906410E-1,6.559042931E-1,-3.734217212E-2
5.601690000E-1,-4.658091664E-1,4.805860221E-1,-2.023794502E-2
5.704540000E-1,-5.128458142E-1,2.490680814E-1,2.007915825E-2
5.801420000E-1,-5.012393594E-1,4.748254642E-2,5.367674679E-2
5.901210000E-1,-4.682526290E-1,-1.070663556E-1,7.200270891E-2
6.000500000E-1,-4.462614655E-1,-2.267959416E-1,1.213791221E-2
6.101170000E-1,-5.452216864E-1,-3.153713942E-1,-9.720696509E-2
6.199990000E-1,-6.411275268E-1,-3.336973488E-1,-1.790629029E-1
6.302270000E-1,-7.498615384E-1,-3.898969591E-1,-2.126604915E-1
6.400530000E-1,-8.048393726E-1,-4.796941578E-1,-2.108279169E-1
6.502280000E-1,-8.182784319E-1,-5.328394771E-1,-1.912802160E-1
6.600290000E-1,-8.213327527E-1,-5.988128781E-1,-1.662347317E-1
6.700380000E-1,-8.268305659E-1,-5.780434608E-1,-1.540174335E-1
6.801330000E-1,-8.017850518E-1,-4.063903391E-1,-1.485196501E-1
6.901440000E-1,-7.083227038E-1,-1.247814521E-1,-1.399675310E-1
7.001130000E-1,-5.989778042E-1,2.038640529E-1,-1.479087770E-1
7.100740000E-1,-5.268957019E-1,4.213320911E-1,-1.967779994E-1
7.200210000E-1,-4.932980835E-1,4.830294847E-1,-2.822991312E-1
7.301770000E-1,-4.890220463E-1,4.463775456E-1,-3.989744186E-1
7.400470000E-1,-4.804699123E-1,3.089328706E-1,-5.101518631E-1
7.500760000E-1,-4.389310777E-1,1.134559885E-1,-5.895643234E-1
7.600430000E-1,-3.485230207E-1,-8.935126662E-2,-6.457639337E-1
7.702360000E-1,-2.171870172E-1,-1.999178678E-1,-6.921896935E-1
7.800350000E-1,-6.752502918E-2,-1.650985479E-1,-6.989092231E-1
7.901150000E-1,8.641301095E-2,-2.521041594E-2,-6.512617469E-1
7.999960000E-1,2.055317312E-1,1.476644427E-1,-6.274379492E-1
8.100630000E-1,2.635639608E-1,2.802222073E-1,-6.518725753E-1
8.200660000E-1,2.489031702E-1,3.107654750E-1,-6.873027682E-1
8.300830000E-1,1.939252913E-1,2.228008807E-1,-7.398371696E-1
8.400450000E-1,9.557598829E-2,3.648697212E-2,-7.300633192E-1
8.500570000E-1,8.580215275E-2,-1.082880870E-1,-7.233438492E-1
8.600200000E-1,8.519127965E-2,-6.247320026E-2,-7.551088333E-1
8.701900000E-1,1.817079931E-1,1.476644427E-1,-7.942041755E-1
8.799770000E-1,2.708943188E-1,4.879163802E-1,-7.428914905E-1
8.900810000E-1,2.434053868E-1,8.892548084E-1,-6.402661204E-1
9.000420000E-1,2.171381861E-1,1.258217454E0,-5.675731897E-1
9.100430000E-1,2.739486694E-1,1.540437222E0,-5.406951308E-1
9.200550000E-1,4.095607400E-1,1.575867414E0,-5.712383986E-1
9.301500000E-1,6.514633298E-1,1.469576836E0,-6.518725753E-1
9.400320000E-1,9.147462845E-1,1.354734182E0,-7.099047899E-1
9.500450000E-1,1.063797355E0,1.327245235E0,-6.616464257E-1
9.600450000E-1,1.099227548E0,1.396273017E0,-5.620753765E-1
9.700760000E-1,1.065019131E0,1.418874979E0,-4.918259084E-1
9.800850000E-1,9.550634027E-1,1.266158700E0,-4.515088201E-1
9.900820000E-1,8.267816901E-1,9.546174407E-1,-4.563957453E-1
1.000015000E0,7.626408339E-1,5.697723031E-1,-5.278669596E-1
1.010077000E0,7.724146843E-1,1.953119487E-1,-6.579812169E-1
1.020072000E0,8.212838769E-1,-1.883114278E-1,-7.777108550E-1
1.030037000E0,8.823704123E-1,-5.487219691E-1,-8.278017640E-1
1.040040000E0,9.349048138E-1,-6.916643977E-1,-8.210822344E-1
1.049982000E0,9.379591346E-1,-5.389481187E-1,-7.770999670E-1
1.060058000E0,8.988637924E-1,-2.225198746E-1,-6.799724102E-1
1.070106000E0,9.355157018E-1,4.720338881E-1,-3.678202927E-1
1.080035000E0,1.019204259E0,7.762447596E-1,-2.621405721E-1
1.090088000E0,1.117553473E0,9.436218143E-1,-2.089953125E-1
1.100013000E0,1.212237597E0,9.362914562E-1,-1.876150370E-1
1.110075000E0,1.268437266E0,7.689144015E-1,-2.120496333E-1
1.120015000E0,1.245224357E0,4.421015084E-1,-3.207836449E-1
1.130067000E0,1.233007073E0,1.604926288E-1,-3.024576902E-1
1.140054000E0,1.250111341E0,7.924754173E-2,-2.151039541E-1
1.150073000E0,1.273935080E0,1.727099270E-1,-1.155329272E-1
1.159977000E0,1.291039228E0,3.504717052E-1,-2.451400273E-2
1.170102000E0,1.328302026E0,5.435050726E-1,9.093952924E-2
1.180046000E0,1.421153545E0,6.815606356E-1,1.514151990E-1
1.190082000E0,1.540272236E0,7.408145666E-1,8.116568625E-2
1.200012000E0,1.631902099E0,7.157691121E-1,-3.184438497E-2
1.210091000E0,1.646562815E0,6.455196142E-1,-9.720696509E-2
1.220115000E0,1.601358771E0,5.795461535E-1,-9.903956205E-2
1.230081000E0,1.470022798E0,4.860838056E-1,-7.888101041E-2
1.240030000E0,1.265993834E0,4.194994867E-1,-6.902590394E-4
1.250047000E0,1.051580071E0,3.455847800E-1,1.129306778E-1
1.260022000E0,8.286142945E-1,1.653795391E-1,1.422522068E-1
1.270182000E0,6.477981806E-1,-8.717054501E-3,1.282023191E-1
1.280073000E0,5.543357730E-1,-1.406639367E-1,1.587455571E-1
1.290078000E0,5.396749973E-1,-1.986961365E-1,2.326602638E-1
1.300021000E0,7.388170958E-1,-8.996213228E-2,2.699230313E-1
1.310034000E0,8.976420164E-1,-4.659070075E-2,2.070039213E-1
1.320016000E0,1.022869468E0,-6.884461269E-3,1.789041162E-1
1.330094000E0,1.096173286E0,1.999361068E-2,2.173886299E-1
1.340045000E0,1.091286302E0,8.230186254E-2,2.894707322E-1
1.350049000E0,1.050358295E0,2.124161720E-1,4.275262654E-1
1.360048000E0,1.018593311E0,3.095437288E-1,4.501282871E-1
1.370078000E0,9.733893871E-1,3.712411225E-1,3.707157969E-1
1.380109000E0,8.939768672E-1,4.249972701E-1,2.460992932E-1
1.390092000E0,7.803559303E-1,4.628709257E-1,1.544695199E-1
1.400005000E0,6.368025541E-1,4.928033054E-1,1.123198047E-1
1.410076000E0,5.323446393E-1,4.628709257E-1,1.001025066E-1
1.420029000E0,3.826826811E-1,3.083220124E-1,9.277211875E-2
1.430032000E0,2.030882686E-1,1.067364737E-1,9.826991707E-2
1.440036000E0,1.297844499E-1,-3.987118602E-2,9.765904397E-2
1.450067000E0,1.114584804E-1,-1.229488626E-1,9.704818577E-2
1.460041000E0,1.169562787E-1,-9.912510961E-2,8.055482060E-2
1.470073000E0,1.603277028E-1,-1.482570730E-2,5.917453766E-2
1.480084000E0,2.049208730E-1,3.098918498E-2,5.184414983E-2
1.490144000E0,2.208033651E-1,2.854572423E-2,5.795280635E-2
1.500019000E0,1.945361644E-1,-3.681685776E-2,6.283972412E-2
1.510118000E0,9.679771960E-2,-1.180619374E-1,5.123328418E-2
1.520081000E0,-3.514916822E-2,-2.231307626E-1,4.207030684E-2
1.530072000E0,-2.746083438E-1,-4.509834945E-1,1.142337918E-3
1.540176000E0,-3.381383121E-1,-6.079759002E-1,-1.301124692E-3
1.550243000E0,-3.595186174E-1,-8.199461102E-1,1.753203571E-3
1.560059000E0,-4.199942648E-1,-9.708298445E-1,1.519223675E-2
1.570160000E0,-4.725286663E-1,-1.075287819E0,3.718338907E-2
1.580067000E0,-5.110132098E-1,-1.164474130E0,5.001156032E-2
1.590029000E0,-5.427781940E-1,-1.209678173E0,7.139184326E-2
1.600004000E0,-5.867605209E-1,-1.166306734E0,7.627876103E-2
1.610125000E0,-6.130276918E-1,-1.116215825E0,5.734194070E-2
1.620011000E0,-6.081407666E-1,-1.016644716E0,3.107473254E-2
1.630017000E0,-5.788192749E-1,-8.260547519E-1,-7.939338684E-5
1.640018000E0,-5.317826271E-1,-5.963694453E-1,-2.268140763E-2
1.650083000E0,-4.835242629E-1,-3.795122504E-1,-3.978563473E-2
1.660108000E0,-4.456506073E-1,-1.986961365E-1,-4.467255622E-2
1.670030000E0,-4.102204144E-1,-6.919271499E-2,-2.329227328E-2
1.679994000E0,-3.754011095E-1,-2.032349445E-2,-4.966314882E-3
1.690028000E0,-3.363057375E-1,-4.842329770E-2,-1.412929408E-2
1.699949000E0,-3.014864028E-1,-1.027903035E-1,-3.550957888E-2
1.710006000E0,-2.965994775E-1,-1.351661533E-1,-6.605283916E-2
1.720041000E0,-3.192014992E-1,-1.357770264E-1,-7.216149569E-2
1.730108000E0,-3.595186174E-1,-1.296683699E-1,-7.155062258E-2
1.740032000E0,-4.138856232E-1,-1.235597208E-1,-6.360937655E-2
1.749997000E0,-4.914655089E-1,-1.107315496E-1,-6.605283916E-2
1.759996000E0,-5.623258948E-1,-7.346877456E-2,-7.827014476E-2
1.770038000E0,-5.739323497E-1,5.359119922E-2,-7.277235389E-2
1.780007000E0,-5.464434028E-1,1.116233990E-1,-8.621139079E-2
1.790339000E0,-5.061262846E-1,1.830946356E-1,-9.048745036E-2
1.800011000E0,-4.535918534E-1,2.191356868E-1,-1.069808081E-1
1.810020000E0,-4.035009146E-1,1.934793442E-1,-1.216415763E-1
1.820027000E0,-3.637946546E-1,1.146777198E-1,-1.350806057E-1
1.830036000E0,-3.399709165E-1,1.144149713E-2,-1.601260900E-1
1.840024000E0,-3.344731331E-1,-1.088989601E-1,-1.967779994E-1
1.849988000E0,-3.399709165E-1,-1.632659584E-1,-2.114387751E-1
1.860053000E0,-3.418035209E-1,-1.168402061E-1,-1.857824326E-1
1.870207000E0,-2.904908359E-1,-1.553247124E-1,-1.570717692E-1
1.880017000E0,-2.367347032E-1,-1.284466386E-1,-1.301936805E-1
1.890010000E0,-1.896980852E-1,1.510668918E-2,-1.369132102E-1
1.899955000E0,-1.243354976E-1,1.501079053E-1,-1.558500230E-1
1.910044000E0,-5.775118619E-2,2.429594249E-1,-1.503522396E-1
1.920090000E0,-3.331657499E-2,2.796113491E-1,-1.442435980E-1
1.930249000E0,-6.263810396E-2,2.392942458E-1,-1.558500230E-1
1.940089000E0,-1.310550123E-1,1.287276298E-1,-1.796737611E-1
1.950145000E0,-2.239065319E-1,2.793485858E-2,-1.925019324E-1
1.960005000E0,-3.350839913E-1,-2.459955029E-2,-2.059409916E-1
1.970026000E0,-4.328224361E-1,-1.971262880E-2,-2.224343419E-1
1.979996000E0,-4.823025167E-1,-7.758066058E-4,-2.334299088E-1
1.990117000E0,-4.920763671E-1,4.459228367E-4,-2.554210722E-1
2.000020000E0,-4.645874202E-1,5.542379618E-2,-3.006251156E-1
2.010069000E0,-4.413745403E-1,1.036821455E-1,-2.902403772E-1
2.020009000E0,-4.096095562E-1,1.360580027E-1,-2.566427886E-1
2.030004000E0,-3.595186174E-1,1.562165618E-1,-1.992214620E-1
2.040047000E0,-2.849930525E-1,1.904250234E-1,-1.332480162E-1
2.050296000E0,-2.049697191E-1,2.344073206E-1,-8.437879384E-2
2.060007000E0,-1.377745271E-1,2.728918195E-1,-4.589428753E-2
2.070033000E0,-9.440310299E-2,2.851091325E-1,-1.046410203E-2
2.080028000E0,-6.385983527E-2,2.612853944E-1,2.069002390E-2
2.090045000E0,-3.698176518E-2,1.995880008E-1,5.856367201E-2
2.100064000E0,-1.437975094E-2,1.391123384E-1,1.049894318E-1
2.110051000E0,-3.995042294E-3,1.195646450E-1,1.532477736E-1
2.119986000E0,2.810135484E-4,1.262841672E-1,1.929540336E-1
2.130050000E0,3.946207464E-3,1.250624359E-1,2.143343091E-1
2.140004000E0,-5.827639252E-3,9.207570553E-2,2.063930631E-1
2.150057000E0,-3.270570934E-2,4.503908753E-2,1.740171909E-1
2.160006000E0,-8.096405864E-2,1.938274503E-2,1.398087442E-1
2.170058000E0,-1.420505941E-1,1.327409409E-2,1.080437526E-1
2.180076000E0,-2.068023086E-1,-3.830133006E-3,8.971779794E-2
2.190045000E0,-2.703322768E-1,-3.864945471E-2,8.299828321E-2
2.200008000E0,-3.265318871E-1,-6.308406591E-2,7.933308929E-2
2.210107000E0,-3.692924380E-1,-6.980358064E-2,6.955924630E-2
2.219988000E0,-4.108312726E-1,-7.591223717E-2,3.962684423E-2
2.230026000E0,-4.890220463E-1,-6.858184934E-2,-8.254620433E-2
2.239990000E0,-5.213978887E-1,-6.308406591E-2,-1.320262849E-1
2.250099000E0,-5.385021567E-1,-6.186233461E-2,-1.509630978E-1
2.260085000E0,-5.476651192E-1,-5.941887200E-2,-1.454653144E-1
2.270484000E0,-5.470542908E-1,-7.163617760E-2,-1.228633076E-1
2.280041000E0,-5.311717391E-1,-9.179472923E-2,-7.765927911E-2
2.290092000E0,-4.987958670E-1,-1.315009594E-1,-2.512486838E-2
2.300017000E0,-4.505375326E-1,-1.962526739E-1,2.191175520E-2
2.310039000E0,-3.815097511E-1,-2.402349710E-1,7.627876103E-2
2.320026000E0,-3.069841862E-1,-2.597826719E-1,1.178176031E-1
2.329976000E0,-2.214630693E-1,-2.744434178E-1,1.373652816E-1
2.340003000E0,-1.084530056E-1,-2.750543058E-1,1.428630650E-1
2.350021000E0,3.021341190E-2,-2.457327545E-1,1.471391320E-1
2.360061000E0,1.682689488E-1,-1.901440322E-1,1.477499902E-1
2.370042000E0,2.934963405E-1,-1.156184748E-1,1.569129825E-1
2.380006000E0,4.010086358E-1,-4.231464863E-2,1.679085493E-1
2.390050000E0,4.773667753E-1,1.056788489E-3,1.624107659E-1
2.399984000E0,5.036339760E-1,1.266322844E-2,1.379761398E-1
2.410100000E0,4.730907381E-1,9.608902037E-3,1.037677005E-1
2.420005000E0,3.912347853E-1,-1.386672258E-3,6.711578369E-2
2.430345000E0,2.831116319E-1,-2.521041594E-2,2.863127366E-2
2.440016000E0,1.878166348E-1,-5.880800635E-2,-1.107496768E-2
2.450444000E0,1.248975247E-1,-9.729252011E-2,-6.177678332E-2
2.460015000E0,6.136753783E-2,-7.102531195E-2,-5.994418636E-2
2.470421000E0,3.143514320E-2,-2.948647551E-2,-4.894861206E-2
2.480018000E0,-8.881963789E-3,-3.498426080E-2,-2.451400273E-2
2.490109000E0,-7.363368571E-2,-7.957742363E-2,8.472722024E-3
2.499980000E0,-1.567113549E-1,-1.247814521E-1,4.451376945E-2
2.510024000E0,-2.324586511E-1,-1.675420105E-1,7.505702972E-2
2.520009000E0,-2.801061273E-1,-1.986961365E-1,9.399385005E-2
2.530015000E0,-2.862147689E-1,-2.029722035E-1,1.068220213E-1
2.540051000E0,-2.458976805E-1,-1.895331591E-1,1.056002900E-1
2.550476000E0,-1.811459661E-1,-1.669311523E-1,8.238741755E-2
2.560021000E0,-1.353310645E-1,-1.449400038E-1,3.168559819E-2
2.570282000E0,-1.084530056E-1,-9.851425141E-2,-2.268140763E-2
2.580113000E0,-7.607714087E-2,-3.742772341E-2,-4.955947772E-2
2.590197000E0,-3.698176518E-2,7.776306942E-3,-5.322466791E-2
2.600070000E0,-1.132542454E-2,2.121534199E-2,-6.116591766E-2
2.610086000E0,-1.551579684E-3,2.793485858E-2,-7.093976438E-2
2.619999000E0,1.372005045E-2,4.564995319E-2,-7.216149569E-2
2.630291000E0,4.181985185E-2,7.313888520E-2,-7.338322699E-2
2.640026000E0,7.175225019E-2,9.940609336E-2,-9.109831601E-2
2.650104000E0,1.102367491E-1,1.116233990E-1,-1.363023520E-1
2.659997000E0,1.639928967E-1,1.250624359E-1,-2.102170289E-1
2.670153000E0,2.110295147E-1,1.476644427E-1,-3.122315407E-1
2.680077000E0,2.391293198E-1,1.580491662E-1,-4.270741940E-1
2.690008000E0,2.531792223E-1,1.501079053E-1,-6.036142111E-1
2.700085000E0,2.061426044E-1,7.985840738E-2,-6.488182545E-1
2.710020000E0,1.297844499E-1,4.015216231E-2,-6.708093882E-1
2.720016000E0,4.548504576E-2,2.060447633E-2,-6.775289178E-1
2.730080000E0,-1.499061659E-2,1.667654142E-3,-6.689768434E-1
2.739989000E0,-5.652945489E-2,-3.926032037E-2,-6.628681421E-1
2.750317000E0,-1.011226177E-1,-6.980358064E-2,-6.921896935E-1
2.759980000E0,-1.389962584E-1,-8.018828928E-2,-7.551088333E-1
2.770306000E0,-1.396071315E-1,-7.407964021E-2,-8.235257268E-1
2.780001000E0,-8.829444647E-2,-6.247320026E-2,-8.705623746E-1
2.790049000E0,-5.827639252E-3,-7.163617760E-2,-9.078251123E-1
2.800054000E0,1.016846448E-1,-8.018828928E-2,-9.328706264E-1
2.810054000E0,2.397401780E-1,-7.102531195E-2,-9.347031713E-1
2.820010000E0,4.101715982E-1,-3.315166384E-2,-9.139337540E-1
2.830009000E0,5.842681527E-1,2.549139783E-2,-8.980512619E-1
2.840417000E0,7.571430206E-1,8.291272819E-2,-8.894991875E-1
2.850002000E0,9.581177235E-1,1.507187784E-1,-8.644536734E-1
2.860210000E0,1.167644501E0,1.818729043E-1,-8.430734277E-1
2.870045000E0,1.355790973E0,1.372797340E-1,-8.522363901E-1
2.880096000E0,1.538439631E0,7.252801955E-2,-8.681188822E-1
2.889994000E0,1.715590596E0,3.709783778E-2,-8.815579414E-1
2.900004000E0,1.834709287E0,2.854572423E-2,-9.212641716E-1
2.910030000E0,1.859754801E0,2.365880273E-2,-1.010450482E0
2.920007000E0,1.790727019E0,1.021976769E-2,-1.104523778E0
2.930033000E0,1.421764374E0,-2.215609141E-2,-1.102080345E0
2.939989000E0,1.188413858E0,-1.192836687E-1,-1.017170072E0
2.950119000E0,9.349048138E-1,-2.762760222E-1,-9.059925079E-1
2.960005000E0,6.746762395E-1,-4.387661815E-1,-8.039780259E-1
2.970011000E0,4.303301573E-1,-5.719348192E-1,-7.349502444E-1
2.980009000E0,2.201925069E-1,-6.611211896E-1,-7.086830735E-1
2.990280000E0,7.419571280E-2,-6.934970021E-1,-7.099047899E-1
3.000004000E0,1.005485654E-2,-6.568450928E-1,-7.196786404E-1
3.010245000E0,6.389666349E-3,-5.566632152E-1,-7.154025435E-1
3.019987000E0,3.754379228E-2,-4.454857111E-1,-6.824158430E-1
3.030012000E0,8.335869014E-2,-3.746253252E-1,-6.311031580E-1
3.040022000E0,1.377256960E-1,-3.483581245E-1,-5.645188689E-1
3.050041000E0,1.988122165E-1,-3.379734159E-1,-4.783868790E-1
3.060010000E0,2.519575059E-1,-3.227017820E-1,-3.806484342E-1
3.070011000E0,2.947180867E-1,-2.701673806E-1,-2.694709599E-1
3.080083000E0,3.038810492E-1,-2.335154712E-1,-1.870041490E-1
3.090038000E0,2.849442363E-1,-2.298502624E-1,-1.424109936E-1
3.100012000E0,2.470705658E-1,-2.292394042E-1,-9.965042770E-2
3.110125000E0,1.713232845E-1,-2.628369927E-1,-6.910716742E-2
3.120005000E0,7.480657101E-2,-3.428603411E-1,-5.017034337E-2
3.130036000E0,-8.271098137E-3,-4.247162938E-1,-8.020641282E-3
3.139995000E0,-5.897291377E-2,-4.705311656E-1,4.268117249E-2
3.150040000E0,-6.996849179E-2,-4.815267622E-1,8.238741755E-2
3.159984000E0,-4.605907947E-3,-3.544667661E-1,1.569129825E-1
3.170053000E0,6.014580652E-2,-2.591718137E-1,2.033387423E-1
3.180023000E0,1.114584804E-1,-1.919766217E-1,2.412123680E-1
3.190066000E0,1.163454056E-1,-1.840353757E-1,2.485427558E-1
3.200040000E0,6.564359367E-2,-2.445110381E-1,2.534296811E-1
3.210137000E0,-5.775118619E-2,-3.141496778E-1,2.790860236E-1
3.220154000E0,-2.575041056E-1,-3.251452446E-1,3.322312832E-1
3.230081000E0,-5.079588890E-1,-3.117062151E-1,3.737701178E-1
3.240028000E0,-7.626897097E-1,-3.000997603E-1,3.768244684E-1
3.250118000E0,-9.923750162E-1,-2.866607308E-1,3.383399546E-1
3.260059000E0,-1.175634623E0,-2.408458292E-1,2.815294862E-1
3.270119000E0,-1.290477276E0,-1.638768166E-1,2.522079349E-1
3.280012000E0,-1.325296640E0,-1.058446243E-1,2.564840019E-1
3.290073000E0,-1.279481649E0,-8.507521451E-2,2.931359112E-1
3.300022000E0,-1.192127943E0,-7.591223717E-2,3.340638876E-1
3.310038000E0,-1.106606841E0,-3.131906688E-2,3.780461848E-1
3.320018000E0,-1.018031359E0,8.413445950E-2,4.391327202E-1
3.330024000E0,-9.044104218E-1,2.130270302E-1,5.136582851E-1
3.340001000E0,-7.742961645E-1,2.930503786E-1,5.869621038E-1
3.350041000E0,-6.606752276E-1,3.321457505E-1,6.639311314E-1
3.360024000E0,-5.916474462E-1,3.309240341E-1,7.555609345E-1
3.370076000E0,-5.885931253E-1,2.930503786E-1,8.569645882E-1
3.379986000E0,-6.472361684E-1,2.588419318E-1,9.656985998E-1
3.390035000E0,-8.530977368E-1,2.020314634E-1,1.104364991E0
3.400020000E0,-9.459492564E-1,2.032531947E-1,1.120247483E0
3.410064000E0,-9.990945458E-1,2.331855893E-1,1.103754044E0
3.420038000E0,-1.011311769E0,2.771678865E-1,1.070156455E0
3.430024000E0,-9.923750162E-1,3.608564138E-1,1.026785016E0
3.440029000E0,-9.416732192E-1,4.634817839E-1,9.595899582E-1
3.450140000E0,-8.818084002E-1,5.703831911E-1,8.807883263E-1
3.460022000E0,-8.439347744E-1,6.962214112E-1,7.909911275E-1
3.470037000E0,-8.042285442E-1,8.238922358E-1,6.901983619E-1
3.480001000E0,-7.608571053E-1,9.124677181E-1,5.741339326E-1
3.490061000E0,-7.608571053E-1,9.595043063E-1,4.275262654E-1
3.500054000E0,-7.926220894E-1,1.016314864E0,2.931359112E-1
3.510134000E0,-8.414913416E-1,1.057853580E0,1.892888248E-1
3.520018000E0,-9.025778174E-1,1.054799318E0,1.306457818E-1
3.530041000E0,-9.318993688E-1,1.040749431E0,1.410304904E-1
3.539993000E0,-8.958583474E-1,1.012649655E0,2.198320925E-1
3.550066000E0,-7.877351642E-1,9.252958894E-1,3.358964920E-1
3.560024000E0,-5.953125954E-1,7.707469463E-1,4.544043541E-1
3.570062000E0,-4.444288611E-1,5.716049075E-1,5.044953227E-1
3.580019000E0,-4.316006899E-1,4.921924472E-1,4.861693084E-1
3.590049000E0,-5.177327394E-1,5.373964310E-1,4.342457950E-1
3.600061000E0,-6.197472215E-1,5.593876243E-1,3.584984839E-1
3.610069000E0,-6.637295485E-1,5.031880140E-1,2.845838070E-1
3.620053000E0,-5.079588890E-1,4.109473825E-1,1.789041162E-1
3.630274000E0,-3.344731331E-1,3.339783549E-1,1.654650867E-1
3.640074000E0,-1.151725203E-1,3.608564138E-1,1.630216241E-1
3.650098000E0,1.395582855E-1,3.987300694E-1,1.953974962E-1
3.659980000E0,3.802392185E-1,3.993409276E-1,2.625926435E-1
3.670065000E0,5.696073771E-1,3.895670772E-1,3.530007005E-1
3.680058000E0,7.455365658E-1,4.017843902E-1,4.757846296E-1
3.690028000E0,9.440677762E-1,4.103364944E-1,6.040663719E-1
3.699991000E0,1.156038046E0,4.225538075E-1,7.134112120E-1
3.710082000E0,1.367397428E0,4.616491795E-1,8.111496568E-1
3.720061000E0,1.529276729E0,4.683687091E-1,8.954491019E-1
3.730085000E0,1.587919712E0,4.085039198E-1,9.375987649E-1
3.740038000E0,1.543937445E0,3.480282426E-1,9.650877118E-1
3.750032000E0,1.454751134E0,2.930503786E-1,9.907440543E-1
3.760002000E0,1.380836487E0,2.240226120E-1,1.009069920E0
3.770066000E0,1.351514935E0,1.751533896E-1,1.029839396E0
3.780043000E0,1.350293159E0,1.519405097E-1,1.048165321E0
3.790093000E0,1.358234406E0,1.531622410E-1,1.048776150E0
3.800038000E0,1.351514935E0,1.763751209E-1,1.023119807E0
3.810060000E0,1.280654550E0,1.672121435E-1,9.559247494E-1
3.820008000E0,1.118775249E0,8.963225037E-2,8.514667749E-1
3.830074000E0,8.994746208E-1,7.165441290E-3,7.219633460E-1
3.840014000E0,6.813957691E-1,-6.002973765E-2,5.857403874E-1
3.850109000E0,3.215961456E-1,-1.461617351E-1,4.250828028E-1
3.859992000E0,1.694906801E-1,-2.151895016E-1,3.963721395E-1
3.870038000E0,3.082427755E-2,-3.269778490E-1,3.597202301E-1
3.879979000E0,-1.060095429E-1,-4.448748231E-1,3.010771573E-1
3.890113000E0,-2.568932474E-1,-4.992418587E-1,2.277733386E-1
3.900010000E0,-3.802880347E-1,-4.577029943E-1,1.605781615E-1
3.910045000E0,-3.931162059E-1,-3.422494829E-1,1.428630650E-1
3.920390000E0,-2.782735229E-1,-2.854390144E-1,1.911214292E-1
3.930096000E0,-9.562483430E-2,-2.988780439E-1,2.687013149E-1
3.940099000E0,1.065715700E-1,-2.970454395E-1,3.646071553E-1
3.950111000E0,3.008267283E-1,-2.530631423E-1,4.556260705E-1
3.960150000E0,4.553756416E-1,-1.754832566E-1,5.099931359E-1
3.970049000E0,5.665530562E-1,-7.774482667E-2,5.325950980E-1
3.980008000E0,6.594045758E-1,3.098918498E-2,5.661926866E-1
3.990109000E0,7.382062078E-1,1.317819506E-1,6.388856769E-1
4.000033000E0,8.194512725E-1,1.922576129E-1,7.085242867E-1
4.010054000E0,8.396098614E-1,1.323928237E-1,7.073025703E-1
4.020118000E0,8.102883101E-1,4.015216231E-2,6.480486393E-1
4.030064000E0,7.754690051E-1,-2.582128160E-2,5.991794467E-1
4.040100000E0,7.204911113E-1,-5.453195423E-2,5.991794467E-1
4.050043000E0,6.111462116E-1,-4.903416336E-2,6.376639605E-1
4.060023000E0,4.456017911E-1,1.755014993E-2,6.535464525E-1
4.070221000E0,4.071172774E-1,5.025771260E-1,5.771883130E-1
4.080096000E0,5.634987354E-1,4.543187916E-1,4.146980941E-1
4.090069000E0,9.819414616E-1,2.243707329E-2,8.605260402E-2
4.100046000E0,1.025923729E0,4.259562492E-2,3.229646385E-2
4.110096000E0,1.019204259E0,6.641937047E-2,7.566789538E-2
4.120061000E0,9.660589695E-1,7.802581042E-2,1.679085493E-1
4.130044000E0,8.463293314E-1,8.779965341E-2,2.705338895E-1
4.140594000E0,6.862826943E-1,1.366688758E-1,3.847657144E-1
4.150148000E0,5.164621472E-1,2.136379033E-1,4.873910844E-1
4.160030000E0,3.545828760E-1,2.851091325E-1,5.429798365E-1
4.170075000E0,2.391293198E-1,3.217610419E-1,5.539754033E-1
4.180036000E0,1.829297245E-1,3.388652802E-1,5.130474567E-1
4.190082000E0,2.012556791E-1,3.254262507E-1,4.269154072E-1
4.200122000E0,2.794464529E-1,2.991590202E-1,3.432268798E-1
4.210131000E0,3.790174723E-1,3.156524003E-1,2.925250530E-1
4.220047000E0,4.327736199E-1,2.948829830E-1,2.595383227E-1
4.230078000E0,3.918456435E-1,2.631179690E-1,2.534296811E-1
4.240035000E0,2.873876989E-1,3.113763332E-1,2.900815904E-1
4.250213000E0,1.597168446E-1,3.516934514E-1,3.175705373E-1
4.260054000E0,4.426331446E-2,3.352000713E-1,2.894707322E-1
4.270162000E0,-3.942522779E-2,3.138197958E-1,2.173886299E-1
4.280055000E0,-1.041769385E-1,3.113763332E-1,1.153741404E-1
4.290093000E0,-1.383854002E-1,3.144306540E-1,1.335964352E-2
4.300019000E0,-1.402179897E-1,2.899960577E-1,-7.093976438E-2
4.310066000E0,-1.524353027E-1,2.179139555E-1,-1.534065604E-1
4.320025000E0,-1.255572289E-1,1.152885854E-1,-2.713035643E-1
4.330211000E0,-1.804494299E-2,1.366688758E-1,-3.012359738E-1
4.340197000E0,1.438343376E-1,1.837055087E-1,-2.945164442E-1
4.350045000E0,3.106005788E-1,2.221900076E-1,-2.737470269E-1
4.360044000E0,4.682038128E-1,2.362399101E-1,-2.603079975E-1
4.370071000E0,6.154223084E-1,2.270769328E-1,-2.682492435E-1
4.380114000E0,7.540886998E-1,2.160813659E-1,-2.810774148E-1
4.390052000E0,8.719856739E-1,2.093618363E-1,-3.067337573E-1
4.400044000E0,9.587285519E-1,1.879815608E-1,-3.714854717E-1
4.410092000E0,1.024091125E0,1.281167567E-1,-4.441784322E-1
4.420064000E0,1.070516944E0,9.635176510E-2,-4.930476546E-1
4.430054000E0,1.083955884E0,1.073473394E-1,-5.187039971E-1
4.440084000E0,1.055856109E0,8.841051906E-2,-5.174822211E-1
4.450151000E0,9.923261404E-1,3.770870343E-2,-4.948802590E-1
4.460050000E0,8.860356212E-1,1.083063334E-2,-4.600609243E-1
4.470091000E0,7.430931330E-1,5.943709984E-3,-4.221872985E-1
4.480064000E0,5.818247199E-1,-3.830133006E-3,-4.142460227E-1
4.490122000E0,4.003977478E-1,-2.215609141E-2,-4.307394028E-1
4.500025000E0,2.110295147E-1,-3.498426080E-2,-4.576174617E-1
4.510157000E0,3.143514320E-2,-5.269935727E-2,-4.863281250E-1
4.520025000E0,-1.292224228E-1,-8.812954277E-2,-4.991562963E-1
4.530346000E0,-2.709431648E-1,-1.406639367E-1,-5.009889007E-1
4.540084000E0,-3.912836015E-1,-2.048047930E-1,-5.132061839E-1
4.550068000E0,-5.073480010E-1,-2.200764269E-1,-5.461928844E-1
4.560015000E0,-5.036827922E-1,-2.121351808E-1,-5.687949061E-1
4.570072000E0,-4.926872253E-1,-2.158003747E-1,-6.103337407E-1
4.580076000E0,-4.987958670E-1,-2.243524790E-1,-6.653116345E-1
4.590329000E0,-5.293391347E-1,-2.237416208E-1,-7.337285280E-1
4.599990000E0,-5.959234834E-1,-1.931983531E-1,-7.905390263E-1
4.610020000E0,-6.826663613E-1,-1.596007645E-1,-8.229148388E-1
4.619979000E0,-7.523049712E-1,-1.528812498E-1,-8.357430100E-1
4.630299000E0,-7.749069929E-1,-1.541029811E-1,-8.216931224E-1
4.639998000E0,-7.516941428E-1,-1.498269141E-1,-7.929824591E-1
4.650040000E0,-7.156530619E-1,-1.748723984E-1,-7.661044002E-1
4.660017000E0,-6.771685481E-1,-2.090808451E-1,-7.373937368E-1
4.669992000E0,-6.307427883E-1,-1.901440322E-1,-6.909679770E-1
4.679964000E0,-5.818735957E-1,-1.235597208E-1,-6.482073665E-1
4.690005000E0,-5.482760072E-1,-1.238224842E-2,-6.256054044E-1
4.700002000E0,-5.458325148E-1,1.464427263E-1,-6.036142111E-1
4.710029000E0,-5.892039537E-1,3.064894080E-1,-5.626862645E-1
4.719964000E0,-6.851097941E-1,3.962866068E-1,-5.315321684E-1
4.730193000E0,-7.962872982E-1,3.779606521E-1,-4.698347747E-1
4.739962000E0,-8.860844970E-1,3.046568334E-1,-3.446074128E-1
4.750509000E0,-9.575557113E-1,1.763751209E-1,-1.931128204E-1
4.760007000E0,-9.899315834E-1,7.165441290E-3,-3.550957888E-2
4.770036000E0,-9.697729945E-1,-1.492160559E-1,1.031568274E-1
4.780034000E0,-9.245690107E-1,-2.243524790E-1,2.228864133E-1
4.790025000E0,-7.822374105E-1,-2.335154712E-1,1.990626752E-1
4.800015000E0,-6.936619282E-1,-1.791484505E-1,9.093952924E-2
4.810053000E0,-6.087516546E-1,-5.269935727E-2,-6.910716742E-2
4.820094000E0,-5.330043435E-1,1.097908020E-1,-2.120496333E-1
4.830041000E0,-4.761938751E-1,3.009916246E-1,-2.462580800E-1
4.840075000E0,-4.181616604E-1,4.628709257E-1,-1.350806057E-1
4.850015000E0,-3.802880347E-1,5.215139389E-1,1.213791221E-2
4.859974000E0,-3.918944597E-1,4.390471876E-1,1.178176031E-1
4.870016000E0,-4.108312726E-1,2.362399101E-1,1.679085493E-1
4.879996000E0,-4.108312726E-1,-1.205054000E-1,1.465282738E-1
4.890041000E0,-3.827314973E-1,-4.552595317E-1,5.612020940E-2
4.900045000E0,-4.016683102E-1,-4.858027995E-1,-2.206017375E-1
4.910036000E0,-4.945198298E-1,-4.705311656E-1,-6.152206659E-1
4.920024000E0,-6.026430130E-1,-4.925223291E-1,-8.613993526E-1
4.930131000E0,-7.468072176E-1,-4.735855162E-1,-1.020224333E0
4.939966000E0,-9.074647427E-1,-4.509834945E-1,-1.141175747E0
4.950023000E0,-1.022918224E0,-4.827484787E-1,-1.243190169E0
4.959999000E0,-1.067511439E0,-5.371155143E-1,-1.361087203E0
4.970169000E0,-1.017420530E0,-5.743783116E-1,-1.519301295E0
4.980012000E0,-8.873062134E-1,-6.379082799E-1,-1.695841312E0
4.990057000E0,-7.516941428E-1,-7.380901575E-1,-1.861996651E0
5.000070000E0,-6.301319599E-1,-8.352177739E-1,-1.992110968E0
5.010244000E0,-5.275065899E-1,-9.421191812E-1,-2.234013557E0
5.019985000E0,-5.501086116E-1,-1.286036253E0,-2.400168896E0
5.029989000E0,-6.075299382E-1,-1.476626277E0,-2.638406277E0
5.039990000E0,-6.710599065E-1,-1.537101865E0,-2.869313478E0
5.050418000E0,-6.912184358E-1,-1.442417860E0,-3.018364429E0
5.059966000E0,-6.350188851E-1,-1.273208141E0,-3.017753601E0
5.070102000E0,-4.743612707E-1,-1.147980809E0,-2.788068295E0
5.079980000E0,-2.019153833E-1,-1.039246798E0,-2.382453680E0
5.090352000E0,1.248975247E-1,-9.402865767E-1,-1.927970171E0
5.099984000E0,4.077281356E-1,-8.706479669E-1,-1.558396697E0
5.109995000E0,6.019832492E-1,-8.431590199E-1,-1.354367733E0
5.119970000E0,6.905587316E-1,-8.425481319E-1,-1.435612798E0
5.130030000E0,6.838392019E-1,-7.857376933E-1,-1.621315837E0
5.140001000E0,6.019832492E-1,-5.969803333E-1,-1.773421288E0
5.150102000E0,5.048556924E-1,-3.159822822E-1,-1.854055405E0
5.160009000E0,4.908058345E-1,-6.430579722E-2,-1.753262639E0
5.170073000E0,5.751051903E-1,1.885924190E-1,-1.457603931E0
5.180030000E0,7.412605286E-1,5.502246022E-1,-1.001898408E0
5.190119000E0,9.904935360E-1,9.259067178E-1,-4.056939185E-1
5.200046000E0,1.283097982E0,1.172696352E0,2.650361061E-1
5.210200000E0,1.558598280E0,1.216678619E0,8.942273259E-1
5.220347000E0,1.730862260E0,1.066405773E0,1.384752035E0
5.230171000E0,1.747966409E0,9.002504349E-1,1.682243466E0
5.240067000E0,1.588530660E0,8.104532361E-1,1.757379889E0
5.250053000E0,9.892718792E-1,6.705650687E-1,1.421404004E0
5.260066000E0,6.789522767E-1,6.644564271E-1,1.152012467E0
5.270130000E0,4.633168876E-1,7.066061497E-1,9.400422573E-1
5.280044000E0,3.839043975E-1,7.915163636E-1,8.325299621E-1
5.290003000E0,4.749233425E-1,9.130785465E-1,8.453581333E-1
5.300441000E0,6.960564852E-1,1.019980073E0,9.687529206E-1
5.310066000E0,1.003932595E0,1.062740564E0,1.156899333E0
5.320078000E0,1.312419534E0,1.106722832E0,1.341991544E0
5.330019000E0,1.491403103E0,1.260050058E0,1.467829704E0
5.339981000E0,1.515226841E0,1.399327278E0,1.522196770E0
5.350187000E0,1.418099284E0,1.412766337E0,1.495318651E0
5.360090000E0,1.254998207E0,1.327245235E0,1.406132340E0
5.370043000E0,1.061964750E0,1.217900276E0,1.269298553E0
5.380026000E0,8.432750106E-1,1.154370308E0,1.118414879E0
5.390317000E0,6.930021644E-1,1.178804994E0,1.019454718E0
5.400029000E0,7.137715816E-1,1.187967896E0,1.000517845E0
5.410121000E0,8.078448772E-1,1.091451168E0,1.043889284E0
5.420013000E0,8.408315778E-1,1.043192863E0,1.030450225E0
5.430040000E0,8.438858986E-1,1.021812677E0,9.412639737E-1
5.440046000E0,8.432750106E-1,9.277393222E-1,8.203126788E-1
5.450075000E0,8.335012197E-1,7.988467813E-1,7.073025703E-1
5.459955000E0,7.907406092E-1,7.066061497E-1,6.394965649E-1
5.470091000E0,7.039977312E-1,7.011083364E-1,6.498812437E-1
5.480055000E0,5.201272964E-1,9.124677181E-1,8.917838931E-1
5.490120000E0,5.732725859E-1,9.362914562E-1,1.147125483E0
5.500067000E0,7.327084541E-1,8.226705194E-1,1.413462758E0
5.510073000E0,8.292251229E-1,6.571260095E-1,1.580839872E0
5.520031000E0,8.823704123E-1,6.473522186E-1,1.671247840E0
5.530018000E0,8.823704123E-1,6.522391438E-1,1.635817647E0
5.540158000E0,8.108991981E-1,5.905417204E-1,1.491653442E0
5.550049000E0,7.033869028E-1,4.451558292E-1,1.297398329E0
5.560049000E0,5.311229229E-1,2.802222073E-1,1.113527894E0
5.570063000E0,3.423655629E-1,2.460137606E-1,1.005404711E0
5.579997000E0,2.586770356E-1,3.064894080E-1,1.017011166E0
5.590000000E0,2.782247066E-1,3.461956680E-1,1.084817290E0
5.600059000E0,3.160983622E-1,3.101546168E-1,1.107419252E0
5.610018000E0,3.753522933E-1,2.576201856E-1,1.037169814E0
5.620013000E0,4.895840585E-1,2.221900076E-1,9.174402356E-1
5.630027000E0,6.209200621E-1,2.362399101E-1,7.769412398E-1
5.639991000E0,7.253780365E-1,3.235936463E-1,6.333878636E-1
5.650014000E0,7.766907215E-1,4.317167997E-1,5.014410019E-1
5.660028000E0,7.522560954E-1,5.276226401E-1,3.927069604E-1
5.670032000E0,6.539068222E-1,5.795461535E-1,3.291769624E-1
5.680049000E0,4.834754169E-1,5.538898110E-1,2.833620608E-1
5.690715000E0,3.167092204E-1,4.750882387E-1,2.711447775E-1
5.700038000E0,1.975904852E-1,3.993409276E-1,3.279552460E-1
5.710031000E0,7.480657101E-2,3.907888234E-1,5.008301139E-1
5.720041000E0,1.285627186E-1,4.304950535E-1,5.814643502E-1
5.730049000E0,2.085860521E-1,4.726447761E-1,6.333878636E-1
5.739996000E0,2.641748190E-1,4.903598428E-1,6.559898853E-1
5.750157000E0,2.544009686E-1,4.170560241E-1,6.120076180E-1
5.760012000E0,1.975904852E-1,3.187067211E-1,5.179343820E-1
5.770048000E0,8.458042145E-2,2.814439535E-1,4.122546315E-1
5.780100000E0,-9.440310299E-2,2.527332604E-1,2.992445827E-1
5.790047000E0,-3.039298654E-1,1.953119487E-1,2.149451673E-1
5.800035000E0,-4.847459793E-1,1.177320480E-1,1.624107659E-1
5.810087000E0,-5.647693276E-1,6.397590786E-2,1.599673033E-1
5.820047000E0,-5.696562529E-1,4.748254642E-2,2.179994881E-1
5.830048000E0,-5.507194400E-1,6.214331090E-2,3.010771573E-1
5.840008000E0,-5.159001350E-1,1.213972420E-1,3.786570430E-1
5.850040000E0,-4.737504125E-1,2.081401050E-1,4.373001158E-1
5.860011000E0,-4.664200246E-1,2.435702980E-1,4.482956827E-1
5.870030000E0,-5.036827922E-1,2.111944407E-1,3.969829977E-1
5.879969000E0,-5.568280816E-1,1.513296366E-1,3.010771573E-1
5.890147000E0,-5.354478359E-1,1.397231966E-1,1.905105710E-1
5.899987000E0,-3.644055128E-1,2.105835676E-1,8.971779794E-2
5.910018000E0,-7.546627522E-2,3.938431442E-1,8.472722024E-3
5.919958000E0,2.275228947E-1,6.833932400E-1,-4.467255622E-2
5.930049000E0,4.590408206E-1,9.197980762E-1,-7.216149569E-2
5.940014000E0,6.477981806E-1,1.011427879E0,-4.528342187E-2
5.950028000E0,6.001506448E-1,2.362399101E-1,1.337001026E-1
5.960083000E0,2.366858572E-1,-9.179472923E-2,2.766425610E-1
5.969999000E0,-9.867915511E-2,3.404351324E-2,5.161017776E-1
5.980091000E0,-2.031371146E-1,2.857199907E-1,7.793846726E-1
5.990001000E0,-1.719829887E-1,2.710592151E-1,9.272140861E-1
6.000067000E0,-1.023443490E-1,1.494970471E-1,9.284358025E-1
6.010023000E0,-5.225339532E-2,1.244515628E-1,8.386386037E-1
6.019996000E0,-7.057934999E-2,2.148596346E-1,6.956961155E-1
6.030048000E0,-7.729887217E-2,3.309240341E-1,5.533645153E-1
6.040018000E0,-2.293186449E-2,3.742954731E-1,4.311914742E-1
6.050057000E0,5.159369484E-2,3.700194061E-1,3.249008954E-1
6.059979000E0,1.261192560E-1,4.164451659E-1,2.595383227E-1
6.070042000E0,2.000339478E-1,4.775316715E-1,2.369363010E-1
6.079991000E0,2.751703858E-1,4.506536126E-1,2.375471890E-1
6.090085000E0,3.613023758E-1,3.883453608E-1,3.200139999E-1
6.100024000E0,4.083390236E-1,3.590238392E-1,4.690651000E-1
6.110089000E0,3.832935393E-1,3.211501837E-1,5.906273127E-1
6.120033000E0,3.270939291E-1,2.863308489E-1,6.486595273E-1
6.130127000E0,2.953289449E-1,2.863308489E-1,6.437726021E-1
6.140047000E0,2.776138484E-1,3.046568334E-1,5.710796118E-1
6.150093000E0,2.770029902E-1,3.352000713E-1,5.099931359E-1
6.160027000E0,2.812790275E-1,3.541369140E-1,4.965540469E-1
6.170052000E0,2.574552894E-1,3.846801817E-1,5.191560984E-1
6.180025000E0,2.427944988E-1,3.388652802E-1,6.187271476E-1
6.190060000E0,3.069353700E-1,3.150415421E-1,6.309444308E-1
6.200005000E0,4.175019860E-1,3.626890182E-1,6.963070035E-1
6.210047000E0,5.445619226E-1,4.585948586E-1,8.068736196E-1
6.220137000E0,5.207381845E-1,2.857199907E-1,8.264213204E-1
6.230028000E0,2.898311615E-1,-1.730397940E-1,6.749266982E-1
6.240003000E0,5.098282918E-2,-2.017504722E-1,5.399255157E-1
6.250032000E0,-1.127290577E-1,1.104016677E-1,4.959431589E-1
6.260008000E0,-5.103166401E-2,3.064894080E-1,5.136582851E-1
6.270073000E0,2.770029902E-1,9.757349640E-2,5.613057613E-1
6.280002000E0,7.540886998E-1,-4.497617483E-1,6.089532971E-1
6.290268000E0,1.104114532E0,-9.353996515E-1,5.802426338E-1
6.299995000E0,1.223233223E0,-1.093613744E0,4.562369287E-1
6.310064000E0,1.217735410E0,-1.060626984E0,2.839729488E-1
6.320048000E0,1.156648874E0,-9.201280475E-1,1.593564451E-1
6.330222000E0,1.082123399E0,-5.310068727E-1,1.501934528E-1
6.339997000E0,9.984347820E-1,-1.150076166E-1,2.351037264E-1
6.350101000E0,8.567140698E-1,2.930503786E-1,3.175705373E-1
6.360019000E0,7.663060427E-1,6.241393089E-1,3.829331100E-1
6.370097000E0,7.534778714E-1,7.176017165E-1,4.134763777E-1
6.380014000E0,8.273925185E-1,6.094785333E-1,4.244719446E-1
6.390092000E0,9.171897173E-1,3.981192112E-1,3.914852142E-1
6.400048000E0,9.727784395E-1,2.466246188E-1,2.955793738E-1
6.410059000E0,9.599502683E-1,3.425304592E-1,1.129306778E-1
6.420047000E0,9.538416266E-1,5.520572066E-1,7.994395494E-2
6.431072000E0,1.035086751E0,8.232814074E-1,1.251479685E-1
6.441462000E0,1.087621093E0,7.426471710E-1,2.802040800E-2
6.450122000E0,1.037530184E0,2.918286622E-1,-2.511450052E-1
6.461716000E0,9.721676111E-1,9.329743683E-2,-4.985454381E-1
6.471471000E0,8.774834871E-1,2.918286622E-1,-7.184569240E-1
6.482096000E0,7.968492508E-1,4.598166049E-1,-9.273728132E-1
6.500014000E0,7.852428555E-1,1.104016677E-1,-1.249298811E0
6.510055000E0,7.870754600E-1,-4.048205167E-2,-1.301222444E0
6.520052000E0,4.474343956E-1,3.645216227E-1,-1.163166881E0
6.530172000E0,3.099896908E-1,9.879522771E-2,-1.037328601E0
6.540079000E0,3.777957559E-1,-2.127460390E-1,-8.949969411E-1
6.550193000E0,6.135897040E-1,-2.719999850E-1,-6.482073665E-1
6.560042000E0,9.691132307E-1,-3.080410063E-1,-3.549921215E-1
6.570048000E0,1.317917347E0,-1.394422054E-1,1.824656501E-2
6.580097000E0,1.726586223E0,2.228008807E-1,5.099931359E-1
6.590089000E0,1.908624053E0,3.608564138E-1,9.064446688E-1
6.600087000E0,1.840817928E0,3.724628687E-1,1.233868361E0
6.610068000E0,1.788283587E0,7.243211865E-1,1.521585941E0
6.620152000E0,1.971543074E0,1.289982438E0,1.664528370E0
6.630044000E0,1.844483137E0,1.902680278E0,1.655365348E0
6.640076000E0,8.084557056E-1,2.420694113E0,-2.879006043E-2
6.650092000E0,1.116942644E0,1.475074649E0,-8.375756145E-1
6.660023000E0,1.236061335E0,5.001336932E-1,-9.292054176E-1
6.670121000E0,9.477329850E-1,4.353819788E-1,-6.402661204E-1
6.680163000E0,7.174367905E-1,6.687324643E-1,-3.470508456E-1
6.690066000E0,5.580009818E-1,7.389819622E-1,-1.491305232E-1
6.700061000E0,1.310061663E-1,7.383711338E-1,5.367674679E-2
6.710076000E0,-1.377745271E-1,-2.371806502E-1,-4.345082492E-2
6.720105000E0,-3.790662885E-1,-9.152411222E-1,-1.448544562E-1
6.730073000E0,-5.311717391E-1,-9.958753586E-1,-1.179763824E-1
6.740043000E0,-5.458325148E-1,-8.651501536E-1,-7.704841346E-2
6.750092000E0,-4.700852036E-1,-7.503075004E-1,-4.283995926E-2
6.760095000E0,-3.699033260E-1,-5.688804984E-1,-1.840534993E-2
6.770081000E0,-2.489520162E-1,-3.214800656E-1,-1.301124692E-3
6.780073000E0,-9.867915511E-2,-8.141002059E-2,6.029259413E-3
6.790077000E0,3.937638924E-2,9.268657118E-2,1.702483371E-2
6.800040000E0,1.114584804E-1,1.714881957E-1,1.885743067E-2
6.810100000E0,1.212323308E-1,1.653795391E-1,7.250990719E-3
6.820045000E0,9.129993618E-2,1.097908020E-1,-6.902590394E-4
6.830181000E0,3.632206097E-2,2.488053218E-2,-7.409775630E-3
6.840018000E0,-2.965138294E-2,-7.591223717E-2,-1.107496768E-2
6.850260000E0,-9.012704343E-2,-1.742615253E-1,-1.901621558E-2
6.860048000E0,-1.200594455E-1,-2.176329643E-1,-2.023794502E-2
6.870128000E0,-8.646184951E-2,-1.724289358E-1,-2.207054198E-2
6.880061000E0,-5.347512662E-2,-1.382204890E-1,-2.451400273E-2
6.890070000E0,-2.781878784E-2,-9.668164700E-2,-2.207054198E-2
6.900019000E0,-1.437975094E-2,-5.147762597E-2,-1.840534993E-2
6.910055000E0,-7.049368694E-3,-3.830133006E-3,-1.107496768E-2
6.920045000E0,-8.881963789E-3,4.259562492E-2,-8.631506935E-3
6.930165000E0,-1.743407734E-2,8.352359384E-2,-7.409775630E-3
6.940020000E0,-1.804494299E-2,1.122342646E-1,-1.229669712E-2
6.950114000E0,-5.216773599E-3,9.818436205E-2,-2.145967633E-2
6.960033000E0,-6.438503042E-3,6.275417656E-2,-2.207054198E-2
6.970069000E0,-3.453830630E-2,3.893043473E-2,-1.657275483E-2
6.980056000E0,-7.363368571E-2,3.098918498E-2,-6.188046187E-3
6.990119000E0,-1.072312742E-1,6.275417656E-2,1.213791221E-2
7.000071000E0,-1.292224228E-1,1.421666592E-1,2.679867670E-2
7.010081000E0,-1.347202063E-1,2.380725145E-1,4.145944118E-2
7.020007000E0,-1.145616472E-1,3.254262507E-1,6.650491804E-2
7.030070000E0,-6.447070092E-2,3.895670772E-1,6.955924630E-2
7.039991000E0,1.188745350E-2,4.011735320E-1,3.779425472E-2
7.050062000E0,7.358483970E-2,3.681868017E-1,5.001156032E-2
7.060026000E0,9.068906307E-2,3.358109593E-1,7.627876103E-2
7.070055000E0,6.014580652E-2,2.936612368E-1,7.688962668E-2
7.080001000E0,-1.071456075E-2,2.282986641E-1,9.643731266E-2
7.090029000E0,-7.119022310E-2,2.521224022E-1,1.202610657E-1
7.100095000E0,-6.874676049E-2,3.639107645E-1,6.894838065E-2
7.110036000E0,4.915023223E-2,4.005626738E-1,7.078097761E-2
7.120009000E0,5.281542614E-2,3.162632585E-1,7.627876103E-2
7.130095000E0,1.005485654E-2,2.374616414E-1,7.811135799E-2
7.139987000E0,-2.965138294E-2,1.830946356E-1,9.093952924E-2
7.150040000E0,-7.852060348E-2,2.032531947E-1,1.135415360E-1
7.160010000E0,-1.108964533E-1,2.154704928E-1,1.330892444E-1
7.170096000E0,-1.280006915E-1,2.289095372E-1,1.575238407E-1
7.180047000E0,-1.212811768E-1,2.478463501E-1,1.819584370E-1
7.190029000E0,-5.530772358E-2,5.053687096E-2,1.825693250E-1
7.200037000E0,-2.048840374E-2,-7.346877456E-2,1.685194075E-1
7.210056000E0,-8.881963789E-3,-8.874040097E-2,1.691302657E-1
7.220007000E0,-5.216773599E-3,-7.285790890E-2,1.825693250E-1
7.230037000E0,-1.804494299E-2,-6.247320026E-2,1.947866082E-1
7.240007000E0,-4.003609344E-2,-1.788003556E-2,1.874562502E-1
7.250031000E0,-5.286426097E-2,-1.788003556E-2,1.807367206E-1
7.260019000E0,-7.729887217E-2,-7.285790890E-2,1.697411537E-1
7.270065000E0,-1.005117446E-1,-1.150076166E-1,1.715737283E-1
7.280022000E0,-9.501396120E-2,-1.345552951E-1,1.911214292E-1
7.290048000E0,-7.363368571E-2,-7.957742363E-2,2.161669135E-1
7.300017000E0,-4.125782102E-2,-1.116051711E-2,2.522079349E-1
7.310072000E0,-2.659705654E-2,5.332846195E-3,2.803077400E-1
7.320030000E0,-5.216773599E-3,5.298033357E-2,2.803077400E-1
7.330115000E0,3.510032967E-2,9.024311602E-2,2.754208148E-1
7.340025000E0,1.029063761E-1,-4.842329770E-2,2.460992932E-1
7.352213000E0,9.924118221E-2,-1.925874949E-1,2.015061378E-1
7.370093000E0,1.372005045E-2,-3.679058254E-1,1.086546257E-1
7.380035000E0,-3.820349649E-2,-3.165931404E-1,8.177655190E-2
7.390110000E0,-3.453830630E-2,-2.255742252E-1,8.605260402E-2
7.400020000E0,-3.384176642E-3,-1.541029811E-1,1.172067299E-1
7.410085000E0,3.998725489E-2,-7.774482667E-2,1.691302657E-1
7.420071000E0,9.924118221E-2,-4.440998659E-3,2.460992932E-1
7.430087000E0,1.676580906E-1,-6.430579722E-2,3.438377380E-1
7.440022000E0,1.731558740E-1,-1.663202792E-1,4.507391453E-1
7.450065000E0,1.047389656E-1,-1.504377872E-1,5.393146276E-1
7.460034000E0,1.005485654E-2,-2.133569121E-1,6.688180566E-1
7.470146000E0,-7.607714087E-2,-3.770687878E-1,8.282539248E-1
7.480165000E0,-3.942522779E-2,-6.886100769E-1,8.251996040E-1
7.490145000E0,-4.614474624E-2,-6.061432958E-1,7.158547044E-1
7.500062000E0,-9.195964038E-2,-1.541029811E-1,5.820751786E-1
7.510082000E0,-3.820349649E-2,-1.726916991E-2,4.959431589E-1
7.520075000E0,3.937638924E-2,-1.449400038E-1,4.397435784E-1
7.530126000E0,1.102367491E-1,-3.117062151E-1,4.012590647E-1
7.540060000E0,1.627711654E-1,-3.746253252E-1,3.670506179E-1
7.550116000E0,1.743776053E-1,-3.007106483E-1,3.340638876E-1
7.560102000E0,1.316170394E-1,-1.779267192E-1,3.163487911E-1
7.570093000E0,2.724476159E-3,-3.742772341E-2,3.340638876E-1
7.580068000E0,-6.438503042E-3,-3.830133006E-3,3.609419465E-1
7.590140000E0,2.410475910E-2,-3.559512645E-2,4.030916691E-1
7.600221000E0,7.541744411E-2,-1.718180776E-1,4.208067656E-1
7.610086000E0,1.377256960E-1,-3.398060203E-1,4.214176238E-1
7.620054000E0,1.890383661E-1,-3.929512799E-1,4.134763777E-1
7.630160000E0,2.012556791E-1,-3.617971539E-1,3.847657144E-1
7.640126000E0,1.774319261E-1,-2.872715890E-1,3.383399546E-1
7.650118000E0,1.212323308E-1,-1.730397940E-1,2.894707322E-1
7.660047000E0,5.220456049E-2,-8.874040097E-2,2.473210096E-1
7.670078000E0,1.066572219E-2,-3.864945471E-2,1.996735334E-1
7.680097000E0,1.982870325E-2,-7.407964021E-2,1.795149744E-1
7.690186000E0,6.686532497E-2,-1.473834664E-1,1.795149744E-1
7.700052000E0,9.679771960E-2,-9.912510961E-2,2.057822049E-1
7.710094000E0,9.557598829E-2,-9.301646054E-2,2.051713169E-1
7.720040000E0,6.747619808E-2,-1.278357655E-1,1.776823997E-1
7.730176000E0,4.915023223E-2,-1.492160559E-1,2.027278543E-1
7.740031000E0,2.288302779E-2,-1.687637419E-1,1.831801832E-1
7.750114000E0,-1.376888715E-2,-1.883114278E-1,1.367544234E-1
7.760062000E0,-4.553388059E-2,-2.084699869E-1,9.216126055E-2
7.770109000E0,-5.775118619E-2,-2.023613304E-1,6.029259413E-3
7.780121000E0,-3.576003388E-2,-1.797593236E-1,-1.063699424E-1
7.790271000E0,-3.995042294E-3,-1.736506671E-1,-2.034975290E-1
7.800079000E0,4.670676962E-2,-1.482570730E-2,-3.818701804E-1
7.810109000E0,9.129993618E-2,1.311710924E-1,-4.246307313E-1
7.820051000E0,1.395582855E-1,2.490680814E-1,-4.246307313E-1
7.830125000E0,1.536081880E-1,2.826656699E-1,-3.623224795E-1
7.840105000E0,1.077932864E-1,1.867598295E-1,-2.859643400E-1
7.850077000E0,4.181985185E-2,4.687168449E-2,-2.816882730E-1
7.860042000E0,-1.437975094E-2,-5.086676031E-2,-3.433856666E-1
7.870103000E0,-9.867915511E-2,-2.115243077E-1,-4.209655523E-1
7.880042000E0,-2.263499945E-1,-4.344901145E-1,-5.345864892E-1
7.890261000E0,-3.222558200E-1,-6.256909966E-1,-6.873027682E-1
7.900071000E0,-3.925053179E-1,-7.606921792E-1,-7.966476679E-1
7.910302000E0,-4.615330994E-1,-8.944717050E-1,-8.088649511E-1
7.920050000E0,-4.981850088E-1,-9.873231649E-1,-7.441132665E-1
7.930140000E0,-4.749721289E-1,-1.012368679E0,-6.427096128E-1
7.940082000E0,-4.053334892E-1,-9.751058817E-1,-5.431385636E-1
7.950134000E0,-3.057624698E-1,-8.602632284E-1,-4.344045818E-1
7.960291000E0,-1.835894287E-1,-6.886100769E-1,-3.097880781E-1
7.970116000E0,-5.347512662E-2,-4.485400319E-1,-1.918910742E-1
7.980060000E0,6.381100416E-2,-1.693746150E-1,-9.354177117E-2
7.990123000E0,1.303953081E-1,3.343264759E-2,-3.612044081E-2
8.000039000E0,1.230649203E-1,7.008456439E-2,-1.290756278E-2
8.010135000E0,3.265687451E-2,-1.070663556E-1,-3.550957888E-2
8.020282000E0,-9.440310299E-2,-3.544667661E-1,-1.039264873E-1
8.030094000E0,-2.116892338E-1,-5.065722466E-1,-2.285429835E-1
8.040052000E0,-3.069841862E-1,-7.209859490E-1,-2.584753931E-1
8.050106000E0,-3.082059324E-1,-7.478640079E-1,-2.468689382E-1
8.060105000E0,-2.904908359E-1,-7.283163667E-1,-2.151039541E-1
8.070043000E0,-2.452868223E-1,-6.324104667E-1,-1.808955073E-1
8.080034000E0,-1.945849955E-1,-5.181787014E-1,-1.546283066E-1
8.090087000E0,-1.805351079E-1,-4.796941578E-1,-1.527957022E-1
8.100100000E0,-1.884763539E-1,-4.546486735E-1,-1.546283066E-1
8.110142000E0,-1.835894287E-1,-4.039468765E-1,-1.418001354E-1
8.120021000E0,-1.438831836E-1,-3.110953569E-1,-1.155329272E-1
8.130165000E0,-9.867915511E-2,-2.096917182E-1,-8.071359992E-2
8.140075000E0,-6.141637266E-2,-1.302792281E-1,-5.078120902E-2
8.150099000E0,-2.415359579E-2,-3.498426080E-2,-2.512486838E-2
8.160056000E0,1.982870325E-2,7.985840738E-2,-3.133719787E-3
8.170083000E0,2.532648668E-2,1.073473394E-1,-1.301124692E-3
8.180064000E0,-1.193629019E-2,2.671312913E-2,-5.139207095E-2
8.190207000E0,-3.148397803E-2,-1.360397600E-2,-1.051482186E-1
8.200056000E0,-4.797733948E-2,-1.665830426E-2,-1.356914788E-1
8.210150000E0,-6.202723831E-2,-3.219267353E-3,-1.301936805E-1
8.220076000E0,-6.691416353E-2,1.938274503E-2,-1.082025394E-1
8.230063000E0,-6.202723831E-2,3.954130039E-2,-8.498966694E-2
8.240044000E0,-5.103166401E-2,7.191715389E-2,-6.727457047E-2
8.250064000E0,-2.415359579E-2,1.336145550E-1,-5.627899617E-2
8.260089000E0,1.127658784E-2,2.020314634E-1,-4.894861206E-2
8.270072000E0,3.632206097E-2,2.240226120E-1,-6.605283916E-2
8.280002000E0,1.738524064E-2,1.763751209E-1,-8.743312210E-2
8.290047000E0,-1.560148224E-2,1.275058985E-1,-9.232003987E-2
8.299986000E0,-4.797733948E-2,7.924754173E-2,-9.354177117E-2
8.310097000E0,-7.302281260E-2,3.465437889E-2,-9.415264428E-2
8.319966000E0,-9.501396120E-2,4.459228367E-4,-8.987658471E-2
8.330035000E0,-1.084530056E-1,5.332846195E-3,-8.132447302E-2
8.340068000E0,-9.623569250E-2,5.786725879E-2,-6.422024220E-2
8.350079000E0,-6.630329788E-2,1.354471445E-1,-4.222909361E-2
8.360058000E0,-1.926667430E-2,2.411268353E-1,-3.062265553E-2
8.370141000E0,4.181985185E-2,3.865127563E-1,-2.329227328E-2
8.380039000E0,1.206214577E-1,5.697723031E-1,-3.744583577E-3
8.390143000E0,2.012556791E-1,7.774664760E-1,2.313348651E-2
8.400042000E0,2.825007737E-1,9.796628952E-1,5.917453766E-2
8.410353000E0,3.448090255E-1,1.151926875E0,8.788520098E-2
8.420020000E0,3.338134587E-1,1.175139785E0,9.949164838E-2
8.430077000E0,2.715052068E-1,1.078012228E0,8.666346967E-2
8.440016000E0,2.067534626E-1,9.521739483E-1,5.062242597E-2
8.450031000E0,1.548299193E-1,8.342769742E-1,1.580310240E-2
8.460033000E0,9.740857780E-2,7.261537910E-1,-5.577180535E-3
8.470047000E0,4.243071750E-2,5.923743248E-1,-1.657275483E-2
8.480008000E0,2.776994929E-2,4.421015084E-1,-2.512486838E-2
8.490035000E0,3.326774016E-2,3.199284375E-1,-2.817919478E-2
8.499992000E0,2.349389344E-2,1.965336800E-1,4.756809771E-2
8.510097000E0,3.632206097E-2,1.024604142E-1,9.521558136E-2
8.519985000E0,1.297844499E-1,1.830946356E-1,2.583166063E-1
8.530472000E0,2.379076034E-1,2.655614316E-1,3.639962971E-1
8.540023000E0,2.721160650E-1,2.545658648E-1,3.047423661E-1
8.550149000E0,3.637458384E-1,3.431413174E-1,2.296059430E-1
8.560202000E0,4.517104328E-1,4.836403430E-1,1.599673033E-1
8.570170000E0,5.237925053E-1,6.284153461E-1,1.275914311E-1
8.579984000E0,5.085209012E-1,6.827823520E-1,1.080437526E-1
8.590093000E0,3.576371968E-1,4.579840004E-1,8.910693228E-2
8.599968000E0,1.621603072E-1,1.201755106E-1,6.772664934E-2
8.610097000E0,5.892407522E-2,-1.217271313E-1,4.695723206E-2
8.619969000E0,6.503273547E-2,-1.302792281E-1,4.268117249E-2
8.630071000E0,1.193997264E-1,-4.597983509E-2,4.512463510E-2
8.639985000E0,1.621603072E-1,5.603466183E-2,4.940069467E-2
8.649991000E0,1.835405827E-1,1.397231966E-1,5.550934374E-2
8.660118000E0,1.878166348E-1,1.922576129E-1,6.467232108E-2
8.669999000E0,1.694906801E-1,1.983662695E-1,7.078097761E-2
8.680112000E0,1.499429941E-1,1.977553964E-1,7.139184326E-2
8.689983000E0,1.157345474E-1,1.672121435E-1,6.650491804E-2
8.699970000E0,7.908263803E-2,1.158994511E-1,5.978540331E-2
8.710225000E0,7.297398150E-2,1.275058985E-1,5.673107505E-2
8.719984000E0,7.969349623E-2,1.513296366E-1,5.428761244E-2
8.730072000E0,5.464802310E-2,1.666012704E-1,5.550934374E-2
8.739975000E0,4.853936657E-2,1.678230017E-1,4.451376945E-2
8.750025000E0,5.098282918E-2,1.940902174E-1,2.740954235E-2
8.760088000E0,6.564359367E-2,2.557875812E-1,5.734194070E-2
8.770012000E0,1.365039647E-1,2.075292468E-1,5.734194070E-2
8.779981000E0,1.957578957E-1,2.252443433E-1,1.702483371E-2
8.790050000E0,1.462778002E-1,2.753352821E-1,1.641396806E-2
8.800366000E0,1.200105995E-1,1.855380982E-1,6.406145543E-2
8.810185000E0,6.381100416E-2,3.431413174E-1,7.200270891E-2
8.819971000E0,2.960254624E-2,3.614673018E-1,8.849606663E-2
8.830059000E0,6.258927286E-2,2.649505734E-1,1.227045283E-1
8.839993000E0,5.953494087E-2,1.714881957E-1,1.233153865E-1
8.850121000E0,3.754379228E-2,9.757349640E-2,1.190393344E-1
8.860054000E0,3.021341190E-2,9.329743683E-2,1.184284613E-1
8.870238000E0,3.937638924E-2,1.513296366E-1,9.216126055E-2
8.880017000E0,3.448947147E-2,1.806511730E-1,7.200270891E-2
8.890035000E0,-7.049368694E-3,1.140668541E-1,4.390290380E-2
8.900015000E0,-3.698176518E-2,1.667654142E-3,2.557694912E-2
8.910090000E0,-4.980993643E-2,-2.154522575E-2,8.422001451E-2
8.920001000E0,-3.270570934E-2,3.160005063E-2,8.116568625E-2
8.930129000E0,-2.773310989E-3,5.359119922E-2,5.306588113E-2
8.940022000E0,1.494178176E-2,7.436061651E-2,4.878982902E-2
8.950023000E0,1.005485654E-2,7.436061651E-2,3.901598603E-2
8.960059000E0,2.043956891E-2,2.854572423E-2,4.817896336E-2
8.970094000E0,4.120898619E-2,6.641937047E-2,7.017011195E-2
8.979965000E0,6.197840348E-2,6.886283308E-2,9.888077527E-2
8.990132000E0,9.191079438E-2,6.214331090E-2,1.184284613E-1
8.999965000E0,1.108476222E-1,5.175860226E-2,7.627876103E-2
9.010034000E0,1.218431890E-1,8.998036385E-3,-3.550957888E-2
9.020060000E0,5.403715745E-2,4.076302797E-2,-6.971803308E-2
9.030043000E0,-2.354273014E-2,7.374975085E-2,-9.109831601E-2
9.040040000E0,-6.080551073E-2,1.085690707E-1,-1.631804109E-1
9.050020000E0,-1.926667430E-2,1.464427263E-1,-2.126604915E-1
9.060211000E0,-5.827639252E-3,3.193175793E-1,-2.383168340E-1
9.070150000E0,-7.852060348E-2,2.356290519E-1,-1.650130153E-1
9.080015000E0,2.166129649E-2,5.053687096E-2,1.030531526E-2
9.090037000E0,7.602830231E-2,5.969985202E-2,9.694449604E-3
9.099994000E0,6.869791448E-2,2.854572423E-2,9.694449604E-3
9.110091000E0,5.709148571E-2,2.976745553E-2,2.802040800E-2
9.120075000E0,7.297398150E-2,8.046927303E-2,4.573550075E-2
9.130250000E0,9.679771960E-2,9.635176510E-2,4.023770988E-2
9.140097000E0,1.029063761E-1,8.230186254E-2,1.397050917E-2
9.150097000E0,8.274781704E-2,5.725639313E-2,-1.107496768E-2
9.160093000E0,4.731763527E-2,5.359119922E-2,-4.283995926E-2
9.170080000E0,2.810135484E-4,8.413445950E-2,-3.123352118E-2
9.180038000E0,-1.551579684E-3,1.012386903E-1,9.694449604E-3
9.190100000E0,4.120898619E-2,1.281167567E-1,3.962684423E-2
9.200091000E0,5.464802310E-2,1.189537793E-1,4.451376945E-2
9.210183000E0,6.381100416E-2,9.940609336E-2,3.901598603E-2
9.220137000E0,7.236310840E-2,8.169100434E-2,2.802040800E-2
9.230132000E0,6.625446677E-2,6.336504221E-2,1.763569936E-2
9.240063000E0,4.853936657E-2,4.931514338E-2,7.861856371E-3
9.250088000E0,2.410475910E-2,4.320649058E-2,1.142337918E-3
9.260019000E0,2.810135484E-4,4.503908753E-2,2.364069223E-3
9.270089000E0,-1.682321168E-2,4.687168449E-2,2.974934876E-3
9.280076000E0,-2.293186449E-2,4.870427772E-2,6.029259413E-3
9.290007000E0,-1.987753808E-2,4.564995319E-2,9.083583951E-3
9.300021000E0,-1.254715584E-2,3.648697212E-2,1.213791221E-2
9.310074000E0,-7.049368694E-3,2.243707329E-2,1.213791221E-2
9.320050000E0,-4.605907947E-3,7.776306942E-3,7.250990719E-3
9.330102000E0,-7.660234347E-3,-1.238224842E-2,-2.522854134E-3
9.340019000E0,-1.315802149E-2,-3.315166384E-2,-1.351842843E-2
9.350152000E0,-1.743407734E-2,-4.842329770E-2,-1.962708123E-2
9.360092000E0,-2.048840374E-2,-5.758627504E-2,-2.268140763E-2
9.370116000E0,-1.926667430E-2,-6.430579722E-2,-2.268140763E-2
9.380035000E0,-1.682321168E-2,-7.652310282E-2,-2.207054198E-2
9.390524000E0,-1.804494299E-2,-9.057299793E-2,-1.962708123E-2
9.400047000E0,-2.232100070E-2,-1.034011766E-1,-1.290756278E-2
9.410151000E0,-2.598619089E-2,-1.119532809E-1,-5.577180535E-3
9.420055000E0,-3.087311238E-2,-1.217271313E-1,-1.911988482E-3
9.430040000E0,-5.408599228E-2,-1.461617351E-1,1.142337918E-3
9.440046000E0,-7.180108130E-2,-1.620442271E-1,4.807528108E-3
9.450086000E0,-8.768358082E-2,-1.773158610E-1,7.250990719E-3
9.460033000E0,-9.806828946E-2,-1.913657635E-1,1.335964352E-2
9.470098000E0,-1.017334759E-1,-2.005287409E-1,2.130088955E-2
9.480072000E0,-9.867915511E-2,-2.066373825E-1,2.679867670E-2
9.490121000E0,-9.257049859E-2,-2.017504722E-1,2.985300124E-2
9.500011000E0,-8.524011821E-2,-1.815919131E-1,3.535079211E-2
9.510085000E0,-7.729887217E-2,-1.467725933E-1,4.329203814E-2
9.519993000E0,-6.935761869E-2,-1.107315496E-1,4.817896336E-2
9.530074000E0,-6.080551073E-2,-8.202088624E-2,4.817896336E-2
9.540118000E0,-4.919907078E-2,-6.308406591E-2,4.207030684E-2
9.550069000E0,-3.270570934E-2,-5.392108858E-2,3.535079211E-2
9.560094000E0,-7.660234347E-3,-5.514281243E-2,2.985300124E-2
9.570067000E0,1.982870325E-2,-6.186233461E-2,1.763569936E-2
9.580013000E0,3.448947147E-2,-5.392108858E-2,5.418393761E-3
9.590278000E0,3.510032967E-2,-5.575367808E-2,-1.107496768E-2
9.600005000E0,3.143514320E-2,-6.613838673E-2,-1.107496768E-2
9.610297000E0,3.326774016E-2,-8.018828928E-2,-4.894861206E-2
9.620074000E0,4.120898619E-2,-8.202088624E-2,-5.750072747E-2
9.630210000E0,6.014580652E-2,-7.163617760E-2,-5.933332443E-2
9.640043000E0,9.924118221E-2,-1.177138276E-2,-5.383553356E-2
9.650175000E0,1.059606969E-1,2.793485858E-2,-4.039650038E-2
9.660092000E0,2.593735233E-2,-1.849089749E-2,-8.020641282E-3
9.670006000E0,7.611397654E-3,-9.327920154E-3,1.946829632E-2
9.680036000E0,4.487418011E-2,1.079582050E-1,3.168559819E-2
9.690091000E0,4.548504576E-2,1.904250234E-1,2.679867670E-2
9.700044000E0,2.349389344E-2,2.160813659E-1,2.863127366E-2
9.710006000E0,1.127658784E-2,2.289095372E-1,4.329203814E-2
9.720052000E0,-8.271098137E-3,1.775968522E-1,5.612020940E-2
9.730151000E0,-3.820349649E-2,1.042930111E-1,7.139184326E-2
9.740008000E0,-4.492301494E-2,1.018495485E-1,7.322443277E-2
9.750281000E0,-4.553388059E-2,9.513003379E-2,6.100713462E-2
9.760088000E0,-6.813589483E-2,-4.440998659E-3,2.007915825E-2
9.770137000E0,-7.607714087E-2,4.687168449E-2,-2.634659782E-2
9.780031000E0,-7.119022310E-2,2.282986641E-1,-2.879006043E-2
9.790414000E0,-9.990088642E-2,2.881634533E-1,-1.657275483E-2
9.799972000E0,-8.707271516E-2,1.415558010E-1,-2.940092422E-2
9.810093000E0,-4.431214929E-2,1.494970471E-1,-4.467255622E-2
9.820212000E0,-4.431214929E-2,1.360580027E-1,1.753203571E-3
9.830053000E0,-7.180108130E-2,1.378906071E-1,1.753203571E-3
9.840004000E0,-5.714032054E-2,7.069543004E-2,8.116568625E-2
9.850187000E0,-8.462925255E-2,-1.054965146E-2,1.434739530E-1
9.860011000E0,8.918792009E-4,6.703023612E-2,1.019350961E-1
9.870084000E0,1.206214577E-1,1.794294417E-1,2.802040800E-2
9.880019000E0,1.548299193E-1,2.368507832E-1,-5.577180535E-3
9.890047000E0,-6.438503042E-3,5.236946791E-2,-6.055505201E-2
9.900042000E0,-1.071456075E-2,3.954130039E-2,-7.399408519E-2
9.910126000E0,7.000532001E-3,1.067364737E-1,-8.010274172E-2
9.920009000E0,1.555264369E-2,1.892032921E-1,-8.315706253E-2
9.930133000E0,-2.773310989E-3,2.026423216E-1,-8.560052514E-2
9.940011000E0,-2.048840374E-2,1.916467547E-1,-9.659609944E-2
9.950016000E0,-3.209484369E-2,1.879815608E-1,-9.048745036E-2
9.959980000E0,-3.514916822E-2,2.350181788E-1,-8.498966694E-2
9.970071000E0,-4.614474624E-2,2.570093274E-1,-6.849630177E-2
9.980027000E0,-5.775118619E-2,2.673940361E-1,-6.238764897E-2
9.990043000E0,-5.530772358E-2,2.692266405E-1,-5.994418636E-2
1.000014200E1,-4.797733948E-2,2.790004611E-1,-5.811159313E-2
1.001009000E1,-3.881436214E-2,2.765569985E-1,-7.093976438E-2
1.002004800E1,-3.331657499E-2,2.606745064E-1,-5.688986182E-2
1.003003000E1,-3.392744064E-2,2.478463501E-1,-5.444639921E-2
1.004003800E1,-3.698176518E-2,2.362399101E-1,-4.100736231E-2
1.005010800E1,-3.637089953E-2,2.356290519E-1,-3.673130646E-2
1.006001300E1,-3.514916822E-2,2.276878059E-1,-3.367698193E-2
1.007006400E1,-2.842965350E-2,2.484572232E-1,-2.940092422E-2
1.008003300E1,-1.132542454E-2,2.796113491E-1,-4.100736231E-2
1.009007400E1,-2.162445337E-3,3.022133708E-1,-5.017034337E-2
1.010013400E1,1.677437499E-2,3.718520105E-1,-6.299851090E-2
1.011006000E1,1.616350934E-2,4.097256362E-1,-7.155062258E-2
1.012001200E1,-1.437975094E-2,3.779606521E-1,-6.910716742E-2
1.013009400E1,1.372005045E-2,4.207212031E-1,-6.483110785E-2
1.014003500E1,1.066572219E-2,4.304950535E-1,-7.338322699E-2
1.015013300E1,-4.605907947E-3,3.810149729E-1,-8.315706253E-2
1.015997800E1,-1.254715584E-2,2.606745064E-1,-8.010274172E-2
1.017004600E1,-2.109926939E-2,1.782077104E-1,-8.804398775E-2
1.018002300E1,-3.384176642E-3,2.454028875E-1,-7.521581650E-2
1.019009100E1,-2.773310989E-3,2.001988590E-1,-8.193533123E-2
1.020006700E1,2.288302779E-2,6.580850482E-2,-1.014830247E-1
1.021055000E1,8.091522753E-2,-8.141002059E-2,-6.971803308E-2
1.022013300E1,1.554407775E-1,-1.571573019E-1,-1.901621558E-2
1.023007200E1,2.000339478E-1,-1.919766217E-1,1.946829632E-2
1.024003100E1,1.743776053E-1,-2.927694023E-1,3.229646385E-2
1.025003800E1,1.413908750E-1,-3.361408114E-1,5.418393761E-3
1.026002400E1,1.303953081E-1,-3.385842741E-1,-3.734217212E-2
1.027010300E1,1.371148229E-1,-3.556885123E-1,-1.106460020E-1
1.028004900E1,1.401691586E-1,-3.117062151E-1,-1.815063655E-1
1.029013600E1,6.686532497E-2,-2.719999850E-1,-2.377059758E-1
1.030009400E1,-3.514916822E-2,-1.699854732E-1,-2.596971095E-1
1.031006300E1,-1.457157731E-1,-1.076772287E-1,-2.126604915E-1
1.032004500E1,-2.153544277E-1,-5.636454374E-2,-1.326371431E-1
1.033019400E1,-2.593367100E-1,6.554575637E-3,-6.971803308E-2
1.034003200E1,-3.308079243E-1,-1.054965146E-2,-7.888101041E-2
1.035011000E1,-4.071660936E-1,-7.591223717E-2,-1.240850389E-1
1.036011900E1,-4.212159812E-1,-2.060265243E-1,-1.705107987E-1
1.037004000E1,-3.906727433E-1,-2.652804554E-1,-1.399675310E-1
1.038010900E1,-3.393600583E-1,-2.176329643E-1,-7.888101041E-2
1.039006800E1,-2.929342985E-1,-9.118386358E-2,-2.817919478E-2
1.040008500E1,-2.605584562E-1,2.121534199E-2,-1.657275483E-2
1.041007300E1,-2.349021137E-1,1.305602193E-1,-2.207054198E-2
1.042004200E1,-2.141326964E-1,2.209682763E-1,-3.428784758E-2
1.043009000E1,-2.061914355E-1,2.741135657E-1,-2.817919478E-2
1.044004300E1,-1.958067268E-1,3.034350872E-1,1.142337918E-3
1.045009200E1,-1.567113549E-1,3.687976599E-1,3.046386689E-2
1.046006700E1,-1.029552072E-1,4.274407327E-1,5.184414983E-2
1.047009800E1,-5.286426097E-2,4.824185967E-1,6.283972412E-2
1.048009400E1,-8.271098137E-3,5.349529982E-1,7.383529842E-2
1.049011700E1,2.105043456E-2,5.874873996E-1,8.238741755E-2
1.049998700E1,3.632206097E-2,6.583477855E-1,8.422001451E-2
1.051010000E1,3.937638924E-2,7.340950370E-1,8.544173837E-2
1.052003700E1,3.510032967E-2,7.994576693E-1,8.605260402E-2
1.053007700E1,3.326774016E-2,8.550463915E-1,9.093952924E-2
1.054003500E1,3.387860581E-2,8.990286589E-1,9.643731266E-2
1.055017500E1,3.571119532E-2,9.295719266E-1,1.001025066E-1
1.056030200E1,3.143514320E-2,9.332371354E-1,9.888077527E-2
1.057010100E1,2.043956891E-2,9.088025093E-1,9.399385005E-2
1.058000100E1,1.433091611E-2,8.776484132E-1,8.666346967E-2
1.059025100E1,2.838081494E-2,8.391638994E-1,5.856367201E-2
1.060003300E1,4.059812054E-2,8.361095786E-1,4.451376945E-2
1.061004900E1,5.281542614E-2,8.397747278E-1,3.290732950E-2
1.062002100E1,6.075667217E-2,8.379421234E-1,2.618781105E-2
1.063007900E1,6.258927286E-2,8.312226534E-1,1.885743067E-2
1.064005200E1,6.564359367E-2,8.147292733E-1,1.397050917E-2
1.065007400E1,7.602830231E-2,7.957924604E-1,1.030531526E-2
1.066004000E1,8.702388406E-2,7.817425728E-1,9.694449604E-3
1.067009400E1,9.679771960E-2,7.774664760E-1,1.458137110E-2
1.068007400E1,1.029063761E-1,7.823534012E-1,2.496608347E-2
1.069008400E1,1.065715700E-1,7.884620428E-1,4.145944118E-2
1.069997600E1,1.126802117E-1,7.994576693E-1,6.100713462E-2
1.071011300E1,1.175671369E-1,8.257248402E-1,7.994395494E-2
1.072014500E1,1.163454056E-1,8.635984659E-1,9.155039489E-2
1.073003800E1,1.071824282E-1,9.057481885E-1,9.888077527E-2
1.074004800E1,9.863030910E-2,9.564499855E-1,1.019350961E-1
1.075008500E1,9.252166748E-2,1.006541014E0,1.068220213E-1
1.076002400E1,8.763474226E-2,1.053577542E0,1.062111631E-1
1.077005000E1,8.396954834E-2,1.090229511E0,1.013242379E-1
1.078003500E1,6.075667217E-2,1.114053249E0,9.704818577E-2
1.079008500E1,3.754379228E-2,1.130546570E0,8.727433532E-2
1.080013500E1,2.532648668E-2,1.140931368E0,7.139184326E-2
1.081004000E1,1.310918480E-2,1.151316047E0,5.184414983E-2
1.082006800E1,-2.476445958E-2,1.169031143E0,1.753203571E-3
1.083006800E1,-4.370128363E-2,1.179415822E0,-2.084881067E-2
1.084005300E1,-6.324896961E-2,1.184913635E0,-3.734217212E-2
1.085012300E1,-7.607714087E-2,1.177583218E0,-4.283995926E-2
1.086001200E1,-7.790973783E-2,1.164144158E0,-4.406169057E-2
1.087006400E1,-7.180108130E-2,1.141542196E0,-4.283995926E-2
1.088002500E1,-6.569243222E-2,1.103668571E0,-3.673130646E-2
1.089019500E1,-6.385983527E-2,1.058464527E0,-3.673130646E-2
1.090005600E1,-6.630329788E-2,9.973779917E-1,-3.001178987E-2
1.091005300E1,-7.302281260E-2,9.246850014E-1,-3.489871323E-2
1.092007500E1,-8.401839435E-2,8.495485783E-1,-4.283995926E-2
1.093010800E1,-9.195964038E-2,7.621948719E-1,-5.200293660E-2
1.094051500E1,-8.585098386E-2,6.668998599E-1,-6.422024220E-2
1.095008100E1,-7.119022310E-2,5.752701163E-1,-8.254620433E-2
1.096001700E1,-6.508156657E-2,4.848620594E-1,-9.537437558E-2
1.097005200E1,-6.569243222E-2,3.956757486E-1,-1.033156216E-1
1.097996700E1,-6.630329788E-2,3.089328706E-1,-1.069808081E-1
1.099010500E1,-7.119022310E-2,2.282986641E-1,-1.051482186E-1
1.100014600E1,-7.424454391E-2,1.562165618E-1,-1.033156216E-1
1.101015000E1,-7.363368571E-2,8.963225037E-2,-9.903956205E-2
1.102000900E1,-7.119022310E-2,1.938274503E-2,-9.293091297E-2
1.102997400E1,-6.752502918E-2,-6.125146896E-2,-9.048745036E-2
1.104004900E1,-6.141637266E-2,-1.382204890E-1,-8.621139079E-2
1.105010600E1,-4.797733948E-2,-2.585609257E-1,-7.338322699E-2
1.106002800E1,-4.614474624E-2,-2.988780439E-1,-6.666370481E-2
1.107004800E1,-4.675560817E-2,-3.373625576E-1,-6.238764897E-2
1.108009300E1,-4.736647382E-2,-3.746253252E-1,-5.994418636E-2
1.109006900E1,-4.858820513E-2,-4.057794511E-1,-5.933332443E-2
1.109996800E1,-5.469685793E-2,-4.186076224E-1,-5.688986182E-2
1.111003500E1,-6.996849179E-2,-4.186076224E-1,-4.772688448E-2
1.112001600E1,-8.279666305E-2,-4.198293686E-1,-4.039650038E-2
1.113009300E1,-9.379222989E-2,-4.430422485E-1,-4.283995926E-2
1.113999600E1,-9.684655815E-2,-4.937440455E-1,-6.605283916E-2
1.115002800E1,-1.078421324E-1,-5.444458723E-1,-9.965042770E-2
1.116001500E1,-1.292224228E-1,-5.303959846E-1,-1.130894646E-1
1.117015900E1,-1.365527958E-1,-5.004636049E-1,-1.124785990E-1
1.118007400E1,-1.261680871E-1,-5.090157390E-1,-1.124785990E-1
1.119023500E1,-1.078421324E-1,-5.291742682E-1,-1.124785990E-1
1.120003100E1,-9.134876728E-2,-5.242873430E-1,-1.063699424E-1
1.121003400E1,-8.462925255E-2,-5.157352090E-1,-9.415264428E-2
1.122000600E1,-8.707271516E-2,-5.316177011E-1,-9.170918167E-2
1.123000900E1,-1.011226177E-1,-5.823195577E-1,-1.075916737E-1
1.124007100E1,-1.151725203E-1,-6.220257878E-1,-1.344697475E-1
1.125005700E1,-1.011226177E-1,-6.397408843E-1,-1.595152318E-1
1.126008800E1,-3.698176518E-2,-6.434060931E-1,-1.668456197E-1
1.127002800E1,7.114137709E-2,-6.305779219E-1,-1.479087770E-1
1.128004100E1,1.688798219E-1,-5.884281993E-1,-1.228633076E-1
1.129010300E1,2.293554693E-1,-3.813448548E-1,-7.155062258E-2
1.129998800E1,1.798753887E-1,-2.524522841E-1,-7.155062258E-2
1.131002200E1,1.352822334E-1,-1.479943246E-1,3.962684423E-2
1.132036000E1,8.580215275E-2,-1.192836687E-1,1.275914311E-1
1.133005000E1,3.632206097E-2,-1.205054000E-1,2.125017047E-1
1.134004500E1,1.555264369E-2,-1.058446243E-1,2.815294862E-1
1.135014000E1,1.921783760E-2,-4.048205167E-2,3.065749407E-1
1.136002100E1,2.288302779E-2,5.847812444E-2,2.784751654E-1
1.137008800E1,3.326774016E-2,1.342254132E-1,2.008952796E-1
1.138002200E1,5.037196353E-2,1.611034870E-1,1.068220213E-1
1.139007200E1,4.915023223E-2,1.446101218E-1,2.435521781E-2
1.139998300E1,3.204600886E-2,1.549948305E-1,-4.467255622E-2
1.141019600E1,3.335341811E-3,2.637288570E-1,-7.521581650E-2
1.142006300E1,-2.354273014E-2,4.775316715E-1,-6.299851090E-2
1.143016200E1,-2.659705654E-2,7.426471710E-1,-2.268140763E-2
1.144002900E1,-6.438503042E-3,1.014482260E0,3.290732950E-2
1.145023000E1,2.288302779E-2,1.236837149E0,8.971779794E-2
1.146005000E1,3.937638924E-2,1.390164375E0,1.422522068E-1
1.147005200E1,3.387860581E-2,1.457970381E0,1.813475788E-1
1.148009000E1,2.105043456E-2,1.444531322E0,1.953974962E-1
1.149007700E1,1.005485654E-2,1.382833958E0,1.953974962E-1
1.150006100E1,-2.965138294E-2,1.284484625E0,1.721846163E-1
1.151005000E1,-5.958377942E-2,1.263715267E0,1.575238407E-1
1.152002100E1,-2.232100070E-2,1.260660887E0,1.208719239E-1
1.153008600E1,-1.315802149E-2,1.274099946E0,9.093952924E-2
1.153999700E1,-2.781878784E-2,1.201406956E0,6.833751500E-2
1.155004700E1,-4.736647382E-2,1.053577542E0,5.184414983E-2
1.156005100E1,-4.980993643E-2,9.124677181E-1,4.940069467E-2
1.157009000E1,-5.652945489E-2,7.652491927E-1,6.406145543E-2
1.158003300E1,-7.057934999E-2,6.290262341E-1,8.299828321E-2
1.159008500E1,-9.379222989E-2,5.080749393E-1,9.888077527E-2
1.160006000E1,-1.225028932E-1,3.767389059E-1,1.104872152E-1
1.161002900E1,-1.469375044E-1,2.270769328E-1,1.184284613E-1
1.162001300E1,-1.701503992E-1,7.802581042E-2,1.269805729E-1
1.163005500E1,-1.970284581E-1,-3.742772341E-2,1.355326772E-1
1.164001500E1,-2.318477780E-1,-1.363878846E-1,1.324783564E-1
1.165008400E1,-2.642236352E-1,-2.487871051E-1,1.135415360E-1
1.166005900E1,-2.904908359E-1,-3.740144670E-1,7.688962668E-2
1.167003900E1,-3.094276488E-1,-5.084048510E-1,2.374435216E-2
1.167998400E1,-3.137037158E-1,-6.153062582E-1,-4.222909361E-2
1.169013600E1,-3.033190072E-1,-6.849449277E-1,-1.112568676E-1
1.170012000E1,-2.788844109E-1,-7.325924039E-1,-1.766194403E-1
1.171014800E1,-2.501737177E-1,-7.668008208E-1,-2.346516550E-1
1.172007300E1,-2.361238450E-1,-7.918463349E-1,-2.743578851E-1
1.173009900E1,-2.312369198E-1,-8.120048642E-1,-2.932947278E-1
1.174004800E1,-2.239065319E-1,-8.260547519E-1,-3.018468320E-1
1.175016800E1,-2.165761441E-1,-8.950825334E-1,-2.963490486E-1
1.176005300E1,-2.196304798E-1,-9.573907852E-1,-2.792448103E-1
1.177045000E1,-2.171870172E-1,-1.004427433E0,-2.523667514E-1
1.178000800E1,-2.116892338E-1,-1.039246798E0,-2.181582749E-1
1.179020000E1,-2.006936520E-1,-1.062459588E0,-1.705107987E-1
1.180002900E1,-1.945849955E-1,-1.088726878E0,-1.069808081E-1
1.181011600E1,-1.903089434E-1,-1.103998423E0,-3.673130646E-2
1.182011200E1,-1.817568392E-1,-1.107052803E0,3.290732950E-2
1.183004900E1,-1.793133765E-1,-1.099722385E0,9.888077527E-2
1.184000900E1,-1.701503992E-1,-1.082618237E0,1.465282738E-1
1.185008900E1,-1.579330862E-1,-1.080785632E0,1.666868329E-1
1.186005700E1,-1.524353027E-1,-1.098500729E0,1.709628701E-1
1.187005500E1,-1.573222131E-1,-1.110718012E0,1.636324823E-1
1.187999100E1,-1.793133765E-1,-1.122935295E0,1.477499902E-1
1.189005500E1,-2.086348981E-1,-1.137596011E0,1.257588565E-1
1.190003600E1,-2.287934572E-1,-1.133319974E0,1.031568274E-1
1.191009700E1,-2.403998971E-1,-1.121713519E0,7.994395494E-2
1.191997500E1,-2.434542179E-1,-1.105831027E0,5.856367201E-2
1.193011200E1,-2.422324866E-1,-1.094835520E0,3.412906080E-2
1.194003000E1,-2.501737177E-1,-1.090559483E0,6.029259413E-3
1.195013900E1,-2.703322768E-1,-1.098500729E0,-2.879006043E-2
1.196004900E1,-2.904908359E-1,-1.121102691E0,-7.399408519E-2
1.197009200E1,-3.020972610E-1,-1.136985183E0,-1.161437929E-1
1.198013600E1,-3.216449618E-1,-1.132709146E0,-1.802846491E-1
1.199006100E1,-3.314188123E-1,-1.130876541E0,-2.096061707E-1
1.200001300E1,-3.442469835E-1,-1.132709146E0,-2.364842296E-1
1.201026700E1,-3.595186174E-1,-1.141872168E0,-2.645840347E-1
1.202006500E1,-3.717359006E-1,-1.155311108E0,-2.908512652E-1
1.203008900E1,-3.845640719E-1,-1.168139338E0,-3.134532571E-1
1.204004200E1,-4.047226310E-1,-1.185243487E0,-3.348335624E-1
1.205013800E1,-4.309898317E-1,-1.193184733E0,-3.549921215E-1
1.206004500E1,-4.590896368E-1,-1.191963077E0,-3.739289343E-1
1.207003400E1,-4.786373377E-1,-1.188297868E0,-3.934766054E-1
1.208000200E1,-4.823025167E-1,-1.174247980E0,-4.136351645E-1
1.208999800E1,-4.792481959E-1,-1.160198092E0,-4.307394028E-1
1.210003100E1,-4.694743454E-1,-1.158365488E0,-4.423458278E-1
1.211005900E1,-4.438180029E-1,-1.170582771E0,-4.502870739E-1
1.212000800E1,-4.028900266E-1,-1.187076092E0,-4.661695957E-1
1.213005500E1,-3.582968712E-1,-1.201736927E0,-4.802194834E-1
1.214001900E1,-3.173688948E-1,-1.205402136E0,-4.869390130E-1
1.215013900E1,-2.849930525E-1,-1.191963077E0,-4.765543044E-1
1.216002400E1,-2.666670978E-1,-1.157754660E0,-4.570066035E-1
1.217003500E1,-2.617801726E-1,-1.107052803E0,-4.325720072E-1
1.218003200E1,-2.678888142E-1,-1.063681364E0,-4.038613141E-1
1.219017500E1,-2.837713063E-1,-1.049020648E0,-3.757615387E-1
1.220004000E1,-3.112602532E-1,-1.060016155E0,-3.525486588E-1
1.221029300E1,-3.692924380E-1,-1.087505102E0,-2.731361687E-1
1.222004100E1,-3.246992826E-1,-1.245719194E0,-2.230452001E-1
1.223005400E1,-2.031371146E-1,-1.344679356E0,-1.692890525E-1
1.224008100E1,-6.874676049E-2,-1.366059661E0,-8.804398775E-2
1.225004300E1,2.166129649E-2,-1.263434291E0,1.152704656E-2
1.225999600E1,2.288302779E-2,-1.103387594E0,1.049894318E-1
1.226999500E1,-4.797733948E-2,-9.726624489E-1,1.605781615E-1
1.228003700E1,-6.141637266E-2,-8.865304589E-1,1.489717364E-1
1.229004500E1,5.167935044E-3,-7.814615965E-1,1.257588565E-1
1.230002800E1,1.261192560E-1,-7.038817406E-1,1.288131773E-1
1.231004700E1,2.586770356E-1,-6.666189432E-1,1.862345040E-1
1.232010000E1,4.242215157E-1,-6.195822954E-1,2.699230313E-1
1.233017000E1,6.520742178E-1,-5.273416638E-1,3.084075451E-1
1.234006500E1,8.903116584E-1,-3.984490633E-1,2.937467694E-1
1.235005800E1,1.074792981E0,-2.811629474E-1,2.564840019E-1
1.236006700E1,1.218957186E0,-1.931983531E-1,2.137234509E-1
1.237010800E1,1.376560450E0,-9.484905750E-2,1.532477736E-1
1.238000400E1,1.521946311E0,-4.781243205E-2,1.031568274E-1
1.239001900E1,1.611132622E0,-1.504377872E-1,1.379761398E-1
1.240003100E1,1.656336665E0,-2.060265243E-1,2.436558306E-1
1.241007500E1,1.653282404E0,4.687168449E-2,3.475029171E-1
1.241999200E1,1.611743569E0,5.386182070E-1,3.609419465E-1
1.242999900E1,1.527444124E0,8.764266372E-1,2.644252479E-1
1.244002100E1,1.362510443E0,7.878512144E-1,1.282023191E-1
1.245007100E1,9.501764774E-1,-6.002973765E-2,-1.485196501E-1
1.245998100E1,8.744291663E-1,-3.514124453E-1,-2.590862513E-1
1.247008500E1,8.640444279E-1,-4.589247406E-1,-2.920729816E-1
1.247998400E1,8.884790540E-1,-4.546486735E-1,-2.774122059E-1
1.249003500E1,9.287961721E-1,-3.575211167E-1,-2.505341470E-1
1.250004500E1,9.715567827E-1,-2.023613304E-1,-2.132713497E-1
1.251006000E1,1.017371655E0,-3.219267353E-3,-1.723434031E-1
1.252003400E1,1.067462564E0,1.800403148E-1,-1.375240684E-1
1.253011400E1,1.121829629E0,3.284805715E-1,-1.167546585E-1
1.254008200E1,1.112055779E0,4.628709257E-1,-1.387458146E-1
1.255008500E1,1.060743093E0,5.129618645E-1,-1.815063655E-1
1.255999900E1,9.929369688E-1,4.744773507E-1,-2.444255054E-1
1.257004300E1,9.269635677E-1,3.956757486E-1,-3.250597119E-1
1.258021500E1,8.787052035E-1,4.408797622E-1,-3.763723969E-1
1.259038200E1,8.389989734E-1,4.909707308E-1,-3.946983516E-1
1.260001400E1,7.528669834E-1,4.530970752E-1,-3.898114264E-1
1.261006700E1,6.429112554E-1,2.973264456E-1,-3.678202927E-1
1.262002200E1,5.463945270E-1,1.763751209E-1,-3.476617336E-1
1.263007100E1,4.908058345E-1,1.256732941E-1,-3.256705701E-1
1.264006100E1,4.596516788E-1,1.085690707E-1,-2.884078026E-1
1.265014200E1,4.071172774E-1,4.687168449E-2,-2.590862513E-1
1.265999700E1,3.472524881E-1,-3.254079819E-2,-2.444255054E-1
1.267006700E1,2.818899155E-1,-7.346877456E-2,-2.322081923E-1
1.268001200E1,1.615494341E-1,-8.202088624E-2,-1.607369483E-1
1.269007700E1,8.885647357E-2,-7.652310282E-2,-1.137003303E-1
1.270002200E1,1.005485654E-2,-3.376252949E-2,-3.550957888E-2
1.271058500E1,-6.019464508E-2,-1.849089749E-2,4.329203814E-2
1.272010700E1,-1.163942516E-1,-3.315166384E-2,1.080437526E-1
1.273003000E1,-1.689286679E-1,-1.046229079E-1,1.556912363E-1
1.274001200E1,-2.208522111E-1,-2.121351808E-1,1.770715415E-1
1.275004300E1,-2.446759492E-1,-3.031541109E-1,1.880671084E-1
1.276014700E1,-2.159652859E-1,-3.538559079E-1,1.941757500E-1
1.277015700E1,-1.518244296E-1,-3.776796460E-1,1.764606535E-1
1.278006100E1,-6.202723831E-2,-4.155533016E-1,1.526369154E-1
1.279015800E1,6.389666349E-3,-4.430422485E-1,1.275914311E-1
1.280001700E1,2.899168059E-2,-4.595355988E-1,1.001025066E-1
1.281020300E1,2.113610506E-3,-4.405987859E-1,7.200270891E-2
1.282013700E1,-4.675560817E-2,-3.666840792E-1,5.428761244E-2
1.283006800E1,-9.318137169E-2,-2.439001799E-1,1.824656501E-2
1.283998000E1,-1.670960635E-1,-1.186727956E-1,-1.107496768E-2
1.285008300E1,-2.184087485E-1,-1.125641540E-1,2.252262086E-2
1.285997800E1,-1.829785556E-1,-2.738325596E-1,9.155039489E-2
1.286999100E1,-1.254715584E-2,-5.285633802E-1,1.459173858E-1
1.288000100E1,3.387003839E-1,-7.289271951E-1,1.465282738E-1
1.288999200E1,6.423003674E-1,-7.857376933E-1,5.612020940E-2
1.290003600E1,6.484090090E-1,-8.003984094E-1,-7.032889128E-2
1.291004500E1,4.895840585E-1,-3.929512799E-1,-4.100736231E-2
1.292001400E1,4.156693816E-1,1.916467547E-1,1.580310240E-2
1.293004300E1,1.755993366E-1,4.830294847E-1,5.062242597E-2
1.293997700E1,-1.286115497E-1,3.608564138E-1,9.155039489E-2
1.295002500E1,-3.961705267E-1,2.130270302E-1,1.391978860E-1
1.295996500E1,-5.678237081E-1,1.953119487E-1,1.947866082E-1
1.297008100E1,-6.331862807E-1,1.947010756E-1,1.923431456E-1
1.297998200E1,-5.830953121E-1,1.604926288E-1,9.888077527E-2
1.299021800E1,-4.346550405E-1,1.189537793E-1,-3.245525062E-2
1.299999500E1,-2.568932474E-1,5.908898637E-2,-1.051482186E-1
1.301007500E1,-1.310550123E-1,3.343264759E-2,-1.149220616E-1
1.302000500E1,-1.078421324E-1,1.177320480E-1,-8.804398775E-2
1.303004400E1,-1.719829887E-1,2.906069160E-1,-2.940092422E-2
1.304003400E1,-2.373455763E-1,5.306769609E-1,4.878982902E-2
1.305005100E1,-3.271427453E-1,7.670817971E-1,1.526369154E-1
1.306004300E1,-4.645874202E-1,9.222415686E-1,2.283841968E-1
1.307013500E1,-6.282993555E-1,9.472870231E-1,2.454884350E-1
1.307996800E1,-7.633005381E-1,8.581007123E-1,2.338819802E-1
1.309003100E1,-8.353826404E-1,7.652491927E-1,2.271624804E-1
1.309999000E1,-8.109480739E-1,7.145473957E-1,2.314385176E-1
1.310996800E1,-7.003814578E-1,6.870584488E-1,2.803077400E-1
1.312003700E1,-5.953125954E-1,6.400218010E-1,3.908743560E-1
1.313004100E1,-5.250630975E-1,4.983011186E-1,5.136582851E-1
1.314007300E1,-4.566461742E-1,3.425304592E-1,7.109677792E-1
1.315004700E1,-4.969632924E-1,3.058785498E-1,7.189090252E-1
1.316000800E1,-5.720997453E-1,2.557875812E-1,6.401073933E-1
1.317005800E1,-6.704490185E-1,1.769859791E-1,5.283190608E-1
1.317998100E1,-7.602462173E-1,1.067364737E-1,4.397435784E-1
1.319000300E1,-8.366044164E-1,1.696556062E-1,3.743810058E-1
1.320002300E1,-8.421021700E-1,2.545658648E-1,3.383399546E-1
1.321003000E1,-7.718526721E-1,2.948829830E-1,2.913033068E-1
1.322003600E1,-6.881641150E-1,3.174850047E-1,2.247190177E-1
1.323005600E1,-6.240232587E-1,2.961046994E-1,1.630216241E-1
1.324000300E1,-5.947017670E-1,2.515115440E-1,1.098763570E-1
1.325006700E1,-5.904256701E-1,2.258552015E-1,6.955924630E-2
1.326001600E1,-5.977560878E-1,2.295203954E-1,3.412906080E-2
1.326999600E1,-6.087516546E-1,2.350181788E-1,-1.535102352E-2
1.328004900E1,-6.289101839E-1,2.166922241E-1,-8.376793563E-2
1.329011000E1,-6.478470564E-1,1.751533896E-1,-1.644021571E-1
1.329999500E1,-6.411275268E-1,1.238407046E-1,-2.535884678E-1
1.331032500E1,-5.769866705E-1,1.024604142E-1,-3.531595170E-1
1.332000400E1,-4.651982784E-1,1.336145550E-1,-4.447892904E-1
1.333047300E1,-3.686815798E-1,1.843163669E-1,-5.168713927E-1
1.334000700E1,-3.411926329E-1,2.258552015E-1,-5.529124141E-1
1.335012300E1,-3.656272590E-1,2.643397152E-1,-5.516906977E-1
1.336008500E1,-3.980031013E-1,2.954938412E-1,-5.309212804E-1
1.337008100E1,-4.609222412E-1,3.071002960E-1,-4.814411998E-1
1.338010900E1,-5.128458142E-1,2.637288570E-1,-4.539522827E-1
1.339013800E1,-5.641584992E-1,2.362399101E-1,-4.234090149E-1
1.340005600E1,-5.800409913E-1,2.307421267E-1,-3.892005682E-1
1.341001800E1,-5.458325148E-1,2.044749260E-1,-3.617116213E-1
1.342002900E1,-5.067371726E-1,1.250624359E-1,-3.415530622E-1
1.343009600E1,-5.061262846E-1,7.165441290E-3,-3.299466372E-1
1.344060000E1,-5.360586643E-1,-7.163617760E-2,-3.183401823E-1
1.345017300E1,-6.142494678E-1,-5.758627504E-2,-2.584753931E-1
1.345999900E1,-6.948836446E-1,-1.479943246E-1,-1.595152318E-1
1.347010400E1,-6.368514299E-1,-4.155533016E-1,-5.750072747E-2
1.348008100E1,-4.713069499E-1,-4.528160691E-1,1.080437526E-1
1.349012600E1,-2.996537983E-1,-2.109134495E-1,3.114618659E-1
1.350001300E1,-1.530461609E-1,1.266322844E-2,4.305805862E-1
1.351000600E1,2.113610506E-3,2.276878059E-1,4.513500035E-1
1.352000300E1,2.043099999E-1,3.834584355E-1,4.476848245E-1
1.353016100E1,4.651494920E-1,3.950648904E-1,4.818932712E-1
1.353998200E1,7.785233259E-1,2.899960577E-1,5.490884781E-1
1.355006300E1,1.119386077E0,1.537730992E-1,5.839077830E-1
1.356001500E1,1.441312075E0,1.693928614E-2,5.814643502E-1
1.357005500E1,1.666110516E0,-1.116051711E-2,5.545862913E-1
1.358006100E1,1.626404285E0,1.977553964E-1,5.124365687E-1
1.359003800E1,1.519502878E0,1.494970471E-1,4.171415567E-1
1.360003300E1,1.449864268E0,7.008456439E-2,2.778642774E-1
1.361006200E1,1.293482661E0,2.063075155E-1,6.772664934E-2
1.361999700E1,1.213459373E0,3.290914297E-1,-2.522854134E-3
1.363005200E1,1.167033672E0,5.099075437E-1,-6.116591766E-2
1.364002000E1,1.135879517E0,6.418544054E-1,-9.720696509E-2
1.365018200E1,1.100449324E0,6.265828013E-1,-1.173655167E-1
1.366002200E1,1.082123399E0,5.209031105E-1,-1.283610910E-1
1.367006800E1,1.098616719E0,4.188886285E-1,-1.381349415E-1
1.368002200E1,1.107779741E0,3.669650853E-1,-1.491305232E-1
1.369009500E1,1.089453697E0,2.454028875E-1,-1.418001354E-1
1.370002400E1,1.055856109E0,7.130628824E-2,-1.308045536E-1
1.371018900E1,9.990457296E-1,-9.668164700E-2,-1.149220616E-1
1.372005400E1,9.178006053E-1,-2.768868804E-1,-1.027047560E-1
1.373006800E1,8.310577273E-1,-4.735855162E-1,-1.020938903E-1
1.373999700E1,7.443148494E-1,-5.969803333E-1,-1.210307106E-1
1.375003700E1,6.758979559E-1,-6.739493608E-1,-1.546283066E-1
1.375998500E1,6.368025541E-1,-7.087686658E-1,-1.900584698E-1
1.377037400E1,6.019832492E-1,-6.501255631E-1,-2.138822377E-1
1.378005200E1,5.634987354E-1,-5.426133275E-1,-2.053301036E-1
1.379002800E1,5.396749973E-1,-4.833593667E-1,-1.833389699E-1
1.380006100E1,5.048556924E-1,-4.632007778E-1,-1.558500230E-1
1.381005400E1,4.456017911E-1,-4.851919115E-1,-1.332480162E-1
1.382006200E1,3.729088306E-1,-5.084048510E-1,-1.240850389E-1
1.383018200E1,2.965506613E-1,-4.913006127E-1,-1.027047560E-1
1.384000900E1,1.175671369E-1,-4.381553233E-1,-6.605283916E-2
1.385013400E1,1.066572219E-2,-4.118881226E-1,-3.367698193E-2
1.386037300E1,-9.990088642E-2,-3.966164887E-1,-1.168583333E-2
1.387005600E1,-2.294043154E-1,-3.880643547E-1,2.974934876E-3
1.388003900E1,-3.564642668E-1,-4.143315852E-1,2.313348651E-2
1.389007400E1,-4.407636821E-1,-4.699203074E-1,4.512463510E-2
1.390002800E1,-4.823025167E-1,-5.432241559E-1,6.894838065E-2
1.391004400E1,-4.939089715E-1,-6.372973919E-1,7.627876103E-2
1.392002300E1,-4.835242629E-1,-7.264837623E-1,5.612020940E-2
1.393004900E1,-4.450397491E-1,-7.643573880E-1,2.679867670E-2
1.393996500E1,-3.473013043E-1,-7.545835376E-1,9.083583951E-3
1.395013200E1,-2.263499945E-1,-7.209859490E-1,-2.522854134E-3
1.396000300E1,-1.353310645E-1,-6.165279746E-1,-4.355449229E-3
1.397031100E1,-9.867915511E-2,-4.381553233E-1,2.191175520E-2
1.398003100E1,-1.444940418E-1,-1.522703767E-1,6.222885847E-2
1.399010100E1,-2.055805773E-1,2.472354919E-1,8.483087271E-2
1.400014700E1,-2.746083438E-1,5.703831911E-1,1.142337918E-3
1.401010800E1,-3.460795581E-1,6.155871749E-1,-1.069808081E-1
1.402005500E1,-3.027081490E-1,5.147944689E-1,-5.566813052E-2
1.403015500E1,-1.096747369E-1,2.747244239E-1,7.017011195E-2
1.404000300E1,2.195816189E-1,-8.202088624E-2,1.569129825E-1
1.405013100E1,6.795631647E-1,-2.933802605E-1,1.159849986E-1
1.405999600E1,9.856066704E-1,-3.080410063E-1,-2.268140763E-2
1.407013000E1,8.530488610E-1,-1.993070096E-1,-6.177678332E-2
1.408003100E1,7.546995878E-1,3.724628687E-1,4.756809771E-2
1.409014400E1,6.215309501E-1,9.173546433E-1,1.025459692E-1
1.410006900E1,3.631349802E-1,1.031586409E0,4.940069467E-2
1.411003900E1,-7.660234347E-3,8.666528463E-1,-6.849630177E-2
1.412001100E1,-3.405817747E-1,6.296371222E-1,-1.582934856E-1
1.413018800E1,-5.812627077E-1,2.808330655E-1,-2.413711548E-1
1.413999100E1,-6.154711843E-1,2.549139783E-2,-3.287248909E-1
1.415007700E1,-4.896329045E-1,-1.421484165E-2,-4.252416193E-1
1.416000400E1,-3.430252373E-1,6.092157960E-2,-4.020287395E-1
1.417008100E1,-2.074131668E-1,1.494970471E-1,-2.303755879E-1
1.418000900E1,-1.457157731E-1,1.910358816E-1,-2.512486838E-2
1.419008100E1,-1.744264513E-1,2.154704928E-1,1.165958717E-1
1.420014200E1,-2.208522111E-1,3.089328706E-1,2.125017047E-1
1.421003800E1,-2.458976805E-1,4.860838056E-1,3.096292913E-1
1.422000700E1,-3.033190072E-1,6.846149564E-1,4.110329151E-1
1.423004400E1,-4.419853985E-1,7.188234329E-1,4.146980941E-1
1.424003900E1,-6.282993555E-1,5.679396987E-1,3.249008954E-1
1.425009400E1,-8.072828650E-1,4.353819788E-1,2.167777717E-1
1.425998900E1,-9.037995934E-1,3.938431442E-1,1.642433703E-1
1.427004400E1,-8.805866838E-1,4.225538075E-1,1.789041162E-1
1.428007300E1,-7.553592920E-1,4.341602623E-1,2.418232262E-1
1.429008700E1,-6.124168634E-1,4.317167997E-1,3.450594544E-1
1.430011400E1,-5.317826271E-1,4.005626738E-1,5.558080077E-1
1.431006300E1,-5.867605209E-1,3.419196010E-1,6.028446555E-1
1.432008800E1,-6.753359437E-1,3.932322860E-1,5.875729918E-1
1.433008300E1,-7.694092393E-1,4.054495990E-1,5.179343820E-1
1.434000000E1,-8.848627210E-1,3.932322860E-1,4.397435784E-1
1.435009900E1,-9.966511130E-1,3.999517858E-1,3.609419465E-1
1.436005300E1,-1.049796343E0,4.549296796E-1,2.741990983E-1
1.437008400E1,-1.038800836E0,5.276226401E-1,1.727954745E-1
1.438004700E1,-9.929859042E-1,5.832113624E-1,6.222885847E-2
1.439004400E1,-9.410623312E-1,5.978721380E-1,-3.489871323E-2
1.440006900E1,-9.129625559E-1,5.532789230E-1,-1.088134050E-1
1.441023200E1,-9.202929139E-1,4.683687091E-1,-1.631804109E-1
1.441997400E1,-9.410623312E-1,3.877345026E-1,-2.047192454E-1
1.443007300E1,-9.508361816E-1,3.419196010E-1,-2.383168340E-1
1.444002700E1,-9.373971820E-1,3.132089376E-1,-2.798556685E-1
1.445012300E1,-9.019669890E-1,2.991590202E-1,-3.384987414E-1
1.445998900E1,-8.488216996E-1,2.826656699E-1,-4.142460227E-1
1.447012200E1,-7.828482389E-1,2.661722898E-1,-5.022106171E-1
1.448004200E1,-7.046574950E-1,2.570093274E-1,-5.865100026E-1
1.449040300E1,-6.423492432E-1,2.802222073E-1,-6.463748217E-1
1.449999900E1,-6.075299382E-1,3.217610419E-1,-6.756963134E-1
1.451007900E1,-5.855387449E-1,3.419196010E-1,-6.775289178E-1
1.452006700E1,-5.714888573E-1,3.235936463E-1,-6.549268961E-1
1.453007000E1,-5.531629324E-1,2.948829830E-1,-6.176641583E-1
1.454012300E1,-4.810808003E-1,2.783896029E-1,-4.936585128E-1
1.455006000E1,-4.206051230E-1,2.735026777E-1,-4.179112315E-1
1.456006200E1,-3.375274539E-1,2.368507832E-1,-3.360552788E-1
1.457005000E1,-2.605584562E-1,1.690447330E-1,-2.505341470E-1
1.458004200E1,-2.141326964E-1,6.153244525E-2,-1.766194403E-1
1.459005000E1,-1.903089434E-1,1.266322844E-2,-1.210307106E-1
1.460003300E1,-2.159652859E-1,3.648697212E-2,-2.817919478E-2
1.461008400E1,-2.684997022E-1,-7.102531195E-2,9.093952924E-2
1.462001100E1,-2.092457712E-1,-3.404168785E-1,1.929540336E-1
1.463005300E1,-4.797733948E-2,-4.778615534E-1,3.316204250E-1
1.464002100E1,1.004629135E-1,-3.746253252E-1,4.983866513E-1
1.465003300E1,2.153055817E-1,-1.834245026E-1,6.205596924E-1
1.465998700E1,3.955108523E-1,-6.613838673E-2,6.743158698E-1
1.467012900E1,6.630697846E-1,-5.941887200E-2,6.963070035E-1
1.468005700E1,9.501764774E-1,-1.131750122E-1,7.170764208E-1
1.469007000E1,1.243391752E0,-1.828136444E-1,7.030265331E-1
1.470001200E1,1.518281102E0,-2.188546956E-1,6.376639605E-1
1.470999100E1,1.638010740E0,-9.912510961E-2,5.484775901E-1
1.472003700E1,1.699708104E0,-1.229488626E-1,3.951504230E-1
1.473015800E1,1.716201425E0,-1.168402061E-1,2.192212343E-1
1.474003900E1,1.653893232E0,1.083063334E-2,1.049894318E-1
1.475009200E1,1.539050579E0,2.356290519E-1,6.406145543E-2
1.476000300E1,1.404049277E0,4.653143883E-1,5.795280635E-2
1.477008300E1,1.196966052E0,8.471051455E-1,3.779425472E-2
1.478010800E1,1.179861784E0,9.472870231E-1,2.802040800E-2
1.478999900E1,1.177418351E0,8.733723164E-1,1.763569936E-2
1.480009700E1,1.183526993E0,6.180306673E-1,7.861856371E-3
1.481008500E1,1.126105666E0,3.009916246E-1,-1.290756278E-2
1.482003600E1,1.035697579E0,-1.360397600E-2,-3.489871323E-2
1.483009400E1,9.654481411E-1,-2.267959416E-1,-3.612044081E-2
1.484004500E1,8.854247332E-1,-3.459146619E-1,-1.301124692E-3
1.485006700E1,8.176186681E-1,-4.082229137E-1,3.412906080E-2
1.485998900E1,7.620299459E-1,-4.827484787E-1,6.406145543E-2
1.486999300E1,6.942239404E-1,-5.804869533E-1,6.161800027E-2
1.488007000E1,6.294721961E-1,-7.191533446E-1,3.412906080E-2
1.489012600E1,5.549466610E-1,-8.504893780E-1,-2.084881067E-2
1.490007100E1,4.920275509E-1,-9.512821436E-1,-9.476350248E-2
1.491006600E1,4.535430372E-1,-1.013590455E0,-1.582934856E-1
1.492006800E1,3.869587183E-1,-9.561690688E-1,-2.144930959E-1
1.493011500E1,3.295373917E-1,-9.054672718E-1,-2.578645349E-1
1.494009400E1,2.702834606E-1,-8.944717050E-1,-2.890186608E-1
1.495010400E1,2.073643357E-1,-9.189062715E-1,-3.079554737E-1
1.496002700E1,1.230649203E-1,-9.182954431E-1,-3.238379657E-1
1.497007600E1,3.571119532E-2,-8.993586302E-1,-3.342227042E-1
1.498007300E1,-4.736647382E-2,-8.529328704E-1,-3.311683536E-1
1.499006000E1,-1.396071315E-1,-7.802398801E-1,-2.981816530E-1
1.500005800E1,-3.595186174E-1,-6.983839273E-1,-1.888367534E-1
1.501019500E1,-4.548135698E-1,-6.898318529E-1,-1.289719641E-1
1.502003800E1,-5.592715740E-1,-7.130447030E-1,-8.498966694E-2
1.503011100E1,-6.313536763E-1,-7.716877460E-1,-4.772688448E-2
1.504000700E1,-6.337971091E-1,-8.199461102E-1,-8.020641282E-3
1.505013800E1,-5.757649541E-1,-8.364394903E-1,2.802040800E-2
1.506002200E1,-4.743612707E-1,-8.181135058E-1,3.779425472E-2
1.507021400E1,-3.491339087E-1,-7.356467247E-1,2.740954235E-2
1.508004800E1,-2.208522111E-1,-6.232475042E-1,2.618781105E-2
1.509013800E1,-9.073790908E-2,-5.132917762E-1,5.062242597E-2
1.510004900E1,-1.804494299E-2,-3.929512799E-1,9.643731266E-2
1.511045000E1,-1.804494299E-2,-2.109134495E-1,1.233153865E-1
1.512005600E1,-1.029552072E-1,1.794294417E-1,9.155039489E-2
1.513031100E1,-2.000827938E-1,6.186415553E-1,-1.229669712E-2
1.514005400E1,-3.558534086E-1,7.915163636E-1,-1.790629029E-1
1.515014000E1,-4.639765620E-1,6.247501969E-1,-2.517558634E-1
1.516012000E1,-3.521882296E-1,3.504717052E-1,-1.668456197E-1
1.517009600E1,-3.942522779E-2,-1.116051711E-2,-8.804398775E-2
1.518002500E1,4.700364172E-1,-3.703492880E-1,-7.460495830E-2
1.519004200E1,1.074182153E0,-4.137206972E-1,-1.570717692E-1
1.520000600E1,1.278821945E0,-3.281995654E-1,-2.609188557E-1
1.521018800E1,1.027145505E0,-5.053505301E-1,-2.230452001E-1
1.522006500E1,7.718037963E-1,-2.579500675E-1,-8.193533123E-2
1.523010800E1,3.051027954E-1,9.979888201E-1,2.313348651E-2
1.523998200E1,-7.363368571E-2,9.399566650E-1,4.451376945E-2
1.525050900E1,-4.108312726E-1,5.850439668E-1,9.216126055E-2
1.526010200E1,-6.289101839E-1,2.625071108E-1,1.300348938E-1
1.527003400E1,-7.315355539E-1,-3.437339514E-2,1.092654839E-1
1.528005900E1,-6.777794361E-1,-2.487871051E-1,-4.966314882E-3
1.529022600E1,-4.994067550E-1,-2.384023964E-1,-1.790629029E-1
1.530003100E1,-2.562823892E-1,-1.021794453E-1,-3.336118162E-1
1.531007400E1,-7.790973783E-2,-7.957742363E-2,-3.635442257E-1
1.532006000E1,-1.071456075E-2,-1.418856680E-1,-3.580464423E-1
1.533007200E1,-4.919907078E-2,-8.141002059E-2,-2.914621234E-1
1.534002100E1,-1.542678922E-1,8.657792211E-2,-1.424109936E-1
1.535009600E1,-2.746083438E-1,3.003807664E-1,5.306588113E-2
1.536007500E1,-4.169399440E-1,5.196813941E-1,2.302168012E-1
1.537014000E1,-5.947017670E-1,6.180306673E-1,2.858055234E-1
1.538009500E1,-7.999524474E-1,6.143654585E-1,2.448775768E-1
1.539011300E1,-9.599991441E-1,5.086858273E-1,2.137234509E-1
1.540007100E1,-9.838229418E-1,3.468065262E-1,2.406015098E-1
1.541011600E1,-8.873062134E-1,2.551767230E-1,3.316204250E-1
1.542007100E1,-7.205399871E-1,2.612853944E-1,4.733411372E-1
1.543009500E1,-5.617150068E-1,2.557875812E-1,5.967359543E-1
1.544005600E1,-4.847459793E-1,2.099727094E-1,6.938635707E-1
1.545009500E1,-4.914655089E-1,1.623252183E-1,7.665565014E-1
1.546002600E1,-5.421673656E-1,1.586600244E-1,7.445653677E-1
1.547011400E1,-7.058792114E-1,2.191356868E-1,6.755375862E-1
1.548018300E1,-8.030068278E-1,1.971445382E-1,5.973468423E-1
1.549008100E1,-8.989126682E-1,1.647686809E-1,4.831149876E-1
1.550008100E1,-9.465601444E-1,1.549948305E-1,3.566659093E-1
1.551008600E1,-9.380080104E-1,2.160813659E-1,2.277733386E-1
1.552009300E1,-8.897496462E-1,3.272588253E-1,1.098763570E-1
1.553008400E1,-8.335500360E-1,4.066713154E-1,1.397050917E-2
1.553999600E1,-7.981199026E-1,4.237755537E-1,-6.177678332E-2
1.555011100E1,-7.950655818E-1,3.895670772E-1,-1.295828223E-1
1.556015000E1,-8.091154695E-1,3.309240341E-1,-1.894476116E-1
1.557008900E1,-8.207218647E-1,2.686157525E-1,-2.523667514E-1
1.558005200E1,-8.146132231E-1,2.020314634E-1,-3.232271075E-1
1.559003000E1,-7.639114261E-1,1.391123384E-1,-4.001961350E-1
1.560004100E1,-6.667838693E-1,1.207863763E-1,-4.771651626E-1
1.561010000E1,-5.562172532E-1,1.287276298E-1,-5.547450185E-1
1.562003000E1,-4.774155915E-1,1.574382931E-1,-6.152206659E-1
1.563009800E1,-4.456506073E-1,2.319638580E-1,-6.451530457E-1
1.564004000E1,-4.395419657E-1,3.626890182E-1,-6.390444040E-1
1.565002500E1,-4.425962865E-1,5.209031105E-1,-6.127772331E-1
1.566000900E1,-4.572570324E-1,6.418544054E-1,-5.755144358E-1
1.567009500E1,-4.884111583E-1,6.455196142E-1,-5.144279003E-1
1.568001800E1,-5.189544559E-1,5.227357149E-1,-4.374589026E-1
1.569014200E1,-4.975741506E-1,3.694085479E-1,-3.592681587E-1
1.570006400E1,-3.112602532E-1,1.684338748E-1,-2.157148123E-1
1.571011700E1,-2.996537983E-1,2.854572423E-2,-1.613478065E-1
1.572006600E1,-3.314188123E-1,-6.613838673E-2,-1.137003303E-1
1.573011100E1,-3.717359006E-1,-9.607078880E-2,-2.879006043E-2
1.573997800E1,-3.497447670E-1,-2.603935301E-1,7.505702972E-2
1.575005700E1,-2.074131668E-1,-5.261199474E-1,1.831801832E-1
1.576004800E1,-4.675560817E-2,-5.701022148E-1,3.621636927E-1
1.577010300E1,6.442186236E-2,-4.173859060E-1,5.613057613E-1
1.578004900E1,1.438343376E-1,-3.263669908E-1,6.694289446E-1
1.579005800E1,3.209852874E-1,-3.721818626E-1,6.840897202E-1
1.580007300E1,6.404677629E-1,-4.858027995E-1,6.975287199E-1
1.581009800E1,1.011263013E0,-6.067541838E-1,7.378458381E-1
1.582003900E1,1.361899614E0,-6.916643977E-1,7.445653677E-1
1.583006400E1,1.656947494E0,-6.452386379E-1,7.005830407E-1
1.584003800E1,1.717423201E0,-2.567283511E-1,6.266683936E-1
1.585014600E1,1.676495194E0,-6.797098368E-2,5.014410019E-1
1.585999000E1,1.725364447E0,-1.418856680E-1,2.870272696E-1
1.587007100E1,1.776677132E0,-7.713396102E-2,6.772664934E-2
1.588007200E1,1.755296826E0,1.867598295E-1,-5.994418636E-2
1.589010800E1,1.642286777E0,5.037989020E-1,-1.057590768E-1
1.590004000E1,1.439479470E0,7.511993051E-1,-1.521848440E-1
1.591004000E1,1.204296350E0,9.564499855E-1,-1.998323202E-1
1.592002700E1,1.024091125E0,1.060297132E0,-2.010540664E-1
1.593012500E1,9.630045891E-1,9.271284938E-1,-8.193533123E-2
1.594002600E1,9.770544767E-1,6.534608603E-1,-1.779448614E-2
1.595017400E1,9.904935360E-1,2.967155874E-1,1.763569936E-2
1.596003400E1,1.003932595E0,-1.543657295E-2,5.367674679E-2
1.597013800E1,1.000267386E0,-2.481762171E-1,9.888077527E-2
1.598002600E1,9.703350067E-1,-3.856208920E-1,1.459173858E-1
1.599004900E1,9.184114337E-1,-4.748072326E-1,1.526369154E-1
1.600005400E1,8.396098614E-1,-6.061432958E-1,1.337001026E-1
1.601004600E1,7.559213042E-1,-7.448096871E-1,1.208719239E-1
1.602014800E1,6.716219187E-1,-7.839050889E-1,9.155039489E-2
1.603012400E1,6.447438002E-1,-7.686334252E-1,5.978540331E-2
1.604000700E1,6.166440248E-1,-6.898318529E-1,1.763569936E-2
1.605012000E1,5.396749973E-1,-6.568450928E-1,-5.750072747E-2
1.606003600E1,4.370496869E-1,-7.148773074E-1,-1.466870606E-1
1.607007300E1,3.215961456E-1,-7.582487464E-1,-2.218234837E-1
1.608006700E1,2.232468277E-1,-7.106012702E-1,-2.743578851E-1
1.609020700E1,1.621603072E-1,-6.183605790E-1,-3.189510703E-1
1.610012000E1,1.096258909E-1,-5.010744929E-1,-3.299466372E-1
1.611013200E1,3.326774016E-2,-4.143315852E-1,-3.299466372E-1
1.612006000E1,-8.218578994E-2,-3.740144670E-1,-3.232271075E-1
1.613009200E1,-2.324586511E-1,-3.550776541E-1,-2.994033694E-1
1.614005500E1,-3.900618553E-1,-3.495798707E-1,-2.578645349E-1
1.615007800E1,-5.409455895E-1,-3.556885123E-1,-2.181582749E-1
1.616003500E1,-7.028248906E-1,-4.363227189E-1,-1.356914788E-1
1.617005100E1,-6.912184358E-1,-4.638116658E-1,-9.537437558E-2
1.618004000E1,-6.282993555E-1,-4.845810831E-1,-7.888101041E-2
1.619006600E1,-5.391130447E-1,-4.980200827E-1,-8.376793563E-2
1.620003300E1,-4.218268692E-1,-5.016853213E-1,-8.743312210E-2
1.621008700E1,-2.733865976E-1,-4.638116658E-1,-6.727457047E-2
1.622005100E1,-1.426614523E-1,-4.100555182E-1,-3.734217212E-2
1.623004200E1,-9.195964038E-2,-3.300321698E-1,-6.188046187E-3
1.624004600E1,-1.261680871E-1,-1.986961365E-1,1.397050917E-2
1.625008600E1,-2.214630693E-1,1.067364737E-1,-6.188046187E-3
1.626008300E1,-3.760119677E-1,5.117401481E-1,-6.971803308E-2
1.627013700E1,-5.507194400E-1,7.750230432E-1,-2.138822377E-1
1.628009200E1,-6.282993555E-1,7.646383047E-1,-2.560319304E-1
1.629006600E1,-4.212159812E-1,5.722157955E-1,-1.356914788E-1
1.630002900E1,1.126802117E-1,3.162632585E-1,-4.589428753E-2
1.631026700E1,7.333192825E-1,8.963225037E-2,-9.048745036E-2
1.632009000E1,1.065019131E0,-1.473834664E-1,-1.888367534E-1
1.633006600E1,1.144431591E0,-3.330864906E-1,-2.285429835E-1
1.634001700E1,1.159092307E0,-1.828136444E-1,-1.479087770E-1
1.635013800E1,1.083345056E0,3.064894080E-1,-9.242372587E-3
1.636011000E1,8.426641822E-1,7.683035135E-1,1.190393344E-1
1.637030500E1,4.382714033E-1,8.965852261E-1,1.025459692E-1
1.638005300E1,-1.011226177E-1,6.235284209E-1,1.641396806E-2
1.639007700E1,-7.565810680E-1,-2.402349710E-1,2.679867670E-2
1.640003300E1,-7.926220894E-1,-4.179967642E-1,5.418393761E-3
1.641011500E1,-6.380732059E-1,-3.734036088E-1,-7.521581650E-2
1.642007400E1,-3.912836015E-1,-1.235597208E-1,-1.808955073E-1
1.643012100E1,-1.878654808E-1,5.053687096E-2,-2.004432082E-1
1.644006300E1,-1.005117446E-1,2.854572423E-2,-2.297647297E-1
1.645011600E1,-1.218920350E-1,-6.273595616E-3,-2.688601017E-1
1.646009900E1,-2.342912406E-1,6.580850482E-2,-2.505341470E-1
1.647004800E1,-3.784554303E-1,2.533441186E-1,-1.656238735E-1
1.648004400E1,-5.122349262E-1,5.050206184E-1,-3.184438497E-2
1.649016600E1,-6.386840343E-1,6.968322992E-1,2.679867670E-2
1.650003800E1,-8.042285442E-1,7.377602458E-1,-7.409775630E-3
1.651007000E1,-9.514470696E-1,6.607912183E-1,-1.301124692E-3
1.652010300E1,-1.019863963E0,6.168089509E-1,8.483087271E-2
1.653012900E1,-9.624426365E-1,5.483919978E-1,2.125017047E-1
1.654009200E1,-7.993416190E-1,4.952467680E-1,3.762135804E-1
1.655017400E1,-6.069190502E-1,4.781425595E-1,5.435907245E-1
1.656009000E1,-5.030719638E-1,4.622600675E-1,6.865331531E-1
1.657009100E1,-5.055153966E-1,3.626890182E-1,7.702217102E-1
1.658006900E1,-5.739323497E-1,2.228008807E-1,7.696108222E-1
1.659019400E1,-6.637295485E-1,1.427775323E-1,7.170764208E-1
1.660001900E1,-7.602462173E-1,1.763751209E-1,6.211705804E-1
1.661010700E1,-8.885279298E-1,2.649505734E-1,4.922780097E-1
1.662007100E1,-9.673295617E-1,2.545658648E-1,2.546513975E-1
1.663010000E1,-9.502253532E-1,2.893851995E-1,1.459173858E-1
1.664012900E1,-8.879170418E-1,3.443630636E-1,4.634636641E-2
1.665006600E1,-8.353826404E-1,3.779606521E-1,-3.978563473E-2
1.666006600E1,-8.182784319E-1,3.749063313E-1,-9.903956205E-2
1.667005700E1,-8.256087899E-1,3.370326757E-1,-1.369132102E-1
1.668009000E1,-8.262196779E-1,2.832765281E-1,-1.625695527E-1
1.669014100E1,-8.152241111E-1,2.374616414E-1,-1.845606863E-1
1.670012200E1,-8.152241111E-1,1.708773375E-1,-2.144930959E-1
1.671019900E1,-8.427130580E-1,6.275417656E-2,-2.554210722E-1
1.672011600E1,-8.720345497E-1,-3.681685776E-2,-3.085663617E-1
1.673021300E1,-8.567629457E-1,-9.545992315E-2,-3.702637255E-1
1.674002900E1,-7.730743885E-1,-1.021794453E-1,-4.362371862E-1
1.675012400E1,-6.557883024E-1,-3.620599210E-2,-4.857172668E-1
1.676007500E1,-5.653802156E-1,8.352359384E-2,-5.028215051E-1
1.677011100E1,-5.165109634E-1,2.142487615E-1,-4.802194834E-1
1.678001300E1,-4.871894419E-1,3.223719001E-1,-4.350154698E-1
1.679011700E1,-4.633657038E-1,3.785715103E-1,-3.714854717E-1
1.680003400E1,-4.664200246E-1,4.005626738E-1,-3.085663617E-1
1.681007100E1,-4.945198298E-1,3.889562190E-1,-2.670274973E-1
1.682001200E1,-4.932980835E-1,3.370326757E-1,-2.432037592E-1
1.683011300E1,-4.389310777E-1,2.527332604E-1,-2.322081923E-1
1.684000700E1,-3.754011095E-1,1.623252183E-1,-2.260995209E-1
1.685014900E1,-3.815097511E-1,7.680407912E-2,-2.022757828E-1
1.686006700E1,-5.000176430E-1,-2.603935301E-1,-3.856390342E-2
1.687007800E1,-4.022791684E-1,-4.821375906E-1,7.627876103E-2
1.688002900E1,-2.587258518E-1,-4.650333822E-1,2.613709271E-1
1.689018300E1,-1.286115497E-1,-3.330864906E-1,4.635673165E-1
1.690008500E1,8.222263306E-3,-1.846462339E-1,5.851295590E-1
1.691010400E1,1.438343376E-1,-6.273595616E-3,6.388856769E-1
1.692004500E1,3.203743994E-1,1.449582353E-2,6.523247361E-1
1.693034200E1,5.842681527E-1,-1.486051977E-1,6.614876986E-1
1.694003000E1,9.031398296E-1,-3.239235282E-1,6.877548695E-1
1.695007200E1,1.257441640E0,-4.051685929E-1,6.694289446E-1
1.696005100E1,1.611132622E0,-3.666840792E-1,5.887947083E-1
1.697008300E1,1.757129431E0,-1.788003556E-2,4.721194208E-1
1.698006400E1,1.758962035E0,1.977553964E-1,3.218465745E-1
1.699015000E1,1.793781400E0,1.446101218E-1,1.196501926E-1
1.700009600E1,1.749799013E0,2.356290519E-1,-3.489871323E-2
1.701012300E1,1.621517301E0,4.341602623E-1,-1.161437929E-1
1.702012700E1,1.444366455E0,6.522391438E-1,-1.527957022E-1
1.703018000E1,1.228120089E0,7.829642892E-1,-1.735651195E-1
1.704010600E1,1.032643318E0,8.538246751E-1,-1.912802160E-1
1.705008900E1,9.202440381E-1,8.770375252E-1,-1.912802160E-1
1.706004200E1,8.921442628E-1,8.214488029E-1,-1.723434031E-1
1.707022600E1,9.520090222E-1,6.785063148E-1,-1.430218518E-1
1.708004900E1,1.031421542E0,4.573731422E-1,-1.100351363E-1
1.709006100E1,1.014317274E0,-1.217271313E-1,-6.116591766E-2
1.710004200E1,9.685024023E-1,-3.978382051E-1,-3.489871323E-2
1.711010400E1,9.465112686E-1,-5.444458723E-1,-6.188046187E-3
1.712006400E1,9.263526797E-1,-6.195822954E-1,6.640125066E-3
1.713011900E1,8.951985836E-1,-7.222076654E-1,5.314722657E-4
1.714008600E1,8.719856739E-1,-8.413264155E-1,-4.966314882E-3
1.715015900E1,8.561031818E-1,-8.394938111E-1,-2.940092422E-2
1.716003900E1,8.005144596E-1,-7.826833725E-1,-5.872245878E-2
1.717024800E1,7.241563201E-1,-8.559871912E-1,-8.987658471E-2
1.718006300E1,6.215309501E-1,-9.060781002E-1,-1.411892623E-1
1.719008500E1,5.256251097E-1,-9.427300096E-1,-1.870041490E-1
1.720026600E1,4.401040077E-1,-9.903775454E-1,-2.377059758E-1
1.721006400E1,3.674110472E-1,-9.970970154E-1,-2.517558634E-1
1.722003100E1,2.989941239E-1,-9.604451060E-1,-2.474798262E-1
1.723009700E1,2.226359695E-1,-8.553763032E-1,-2.187691629E-1
1.724007200E1,1.456669420E-1,-7.258728743E-1,-1.729542613E-1
1.725003500E1,7.114137709E-2,-6.116410494E-1,-1.283610910E-1
1.726007900E1,-1.437975094E-2,-5.401698351E-1,-8.621139079E-2
1.727007200E1,-1.212811768E-1,-4.955766499E-1,-4.772688448E-2
1.728008200E1,-2.452868223E-1,-4.784724414E-1,-1.474015974E-2
1.729014500E1,-3.466904461E-1,-4.986309707E-1,1.885743067E-2
1.730002600E1,-3.925053179E-1,-5.377264023E-1,5.795280635E-2
1.731017000E1,-3.894509971E-1,-6.018672585E-1,8.788520098E-2
1.732003800E1,-2.581149936E-1,-7.197642326E-1,9.826991707E-2
1.733007000E1,-1.622091383E-1,-7.264837623E-1,9.643731266E-2
1.734003800E1,-7.729887217E-2,-6.904426813E-1,1.068220213E-1
1.735010800E1,-5.469685793E-2,-6.122519374E-1,1.355326772E-1
1.736006600E1,-8.707271516E-2,-5.236764550E-1,1.624107659E-1
1.737018200E1,-1.689286679E-1,-3.043758273E-1,1.654650867E-1
1.738011000E1,-2.758300602E-1,3.404351324E-2,1.056002900E-1
1.739010200E1,-4.401528239E-1,2.447920293E-1,-2.023794502E-2
1.740011000E1,-5.867605209E-1,2.600636482E-1,-1.619586945E-1
1.741005600E1,-5.342260599E-1,2.509006858E-1,-1.418001354E-1
1.742022700E1,-2.208522111E-1,1.806511730E-1,-3.612044081E-2
1.743024200E1,2.947180867E-1,-3.742772341E-2,1.946829632E-2
1.744001900E1,9.098593593E-1,-2.817738056E-1,-6.971803308E-2
1.745011500E1,1.275767684E0,-4.711420238E-1,-2.004432082E-1
1.746004200E1,1.215291977E0,-7.399227619E-1,-2.743578851E-1
1.747010600E1,9.630045891E-1,-7.283163667E-1,-2.731361687E-1
1.748007900E1,7.314866781E-1,-1.657094210E-1,-2.554210722E-1
1.749022400E1,5.854899287E-1,4.689795673E-1,-2.212126255E-1
1.750006100E1,3.356460333E-1,7.395928502E-1,-2.004432082E-1
1.751006900E1,-2.773310989E-3,6.204741001E-1,-1.711216569E-1
1.752002000E1,-2.917125523E-1,3.449739218E-1,-1.259176433E-1
1.753009000E1,-4.737504125E-1,-1.971262880E-2,-9.170918167E-2
1.754001400E1,-4.578679204E-1,-1.968635470E-1,-9.537437558E-2
1.755016100E1,-8.462925255E-2,-1.910176314E-2,-1.118677333E-1
1.756013400E1,-6.447070092E-2,-2.765387855E-2,-2.207054198E-2
1.757008000E1,-1.799242347E-1,-1.107315496E-1,7.444616407E-2
1.758000300E1,-3.534099460E-1,-1.754832566E-1,1.446956694E-1
1.759006700E1,-4.914655089E-1,-1.449400038E-1,2.027278543E-1
1.760002800E1,-5.476651192E-1,5.359119922E-2,2.827512026E-1
1.761010300E1,-5.617150068E-1,3.364218175E-1,3.584984839E-1
1.762000300E1,-6.001995206E-1,5.404507518E-1,3.554441631E-1
1.763004900E1,-6.814446449E-1,5.318986773E-1,2.638143897E-1
1.764009500E1,-7.376441956E-1,4.463775456E-1,1.440848112E-1
1.765006700E1,-6.997705698E-1,3.932322860E-1,6.894838065E-2
1.766005800E1,-6.093625426E-1,3.859018981E-1,1.080437526E-1
1.767008500E1,-5.464434028E-1,4.115582407E-1,2.271624804E-1
1.768004200E1,-4.798590541E-1,4.506536126E-1,3.621636927E-1
1.769008300E1,-4.584787786E-1,5.355638266E-1,4.831149876E-1
1.770012300E1,-5.097914934E-1,5.716049075E-1,5.802426338E-1
1.771008500E1,-6.270776391E-1,5.624419451E-1,6.401073933E-1
1.772002000E1,-7.907894850E-1,5.526680946E-1,6.443834901E-1
1.773004900E1,-9.239581227E-1,4.860838056E-1,5.942925215E-1
1.774002300E1,-1.027805209E0,4.219429493E-1,5.093822479E-1
1.775013200E1,-1.095000386E0,4.085039198E-1,4.275262654E-1
1.776002900E1,-1.098054767E0,4.518753588E-1,3.413942754E-1
1.777024100E1,-1.036968112E0,5.428942442E-1,2.485427558E-1
1.778002400E1,-9.483927488E-1,6.223067045E-1,1.465282738E-1
1.779008700E1,-8.604281545E-1,6.241393089E-1,-4.039650038E-2
1.779994700E1,-8.787540793E-1,5.697723031E-1,-1.100351363E-1
1.781014500E1,-9.172385931E-1,5.325095057E-1,-1.595152318E-1
1.782000000E1,-9.691621661E-1,5.092966557E-1,-2.010540664E-1
1.783012200E1,-1.022307396E0,4.543187916E-1,-2.407602966E-1
1.784001700E1,-1.049185514E0,3.865127563E-1,-2.871860564E-1
1.785012000E1,-1.012533545E0,3.352000713E-1,-3.519377708E-1
1.786004000E1,-8.958583474E-1,3.138197958E-1,-4.411241114E-1
1.787001800E1,-7.431420088E-1,3.315348923E-1,-5.468037724E-1
1.788002200E1,-6.154711843E-1,3.620781600E-1,-6.366009712E-1
1.789008100E1,-5.525520444E-1,4.158343077E-1,-6.836375594E-1
1.789998900E1,-5.385021567E-1,5.184596181E-1,-6.763072014E-1
1.791003800E1,-5.391130447E-1,6.473522186E-1,-6.243836284E-1
1.792001700E1,-5.543846488E-1,7.194343209E-1,-5.455820560E-1
1.793002500E1,-5.861496329E-1,6.803389192E-1,-4.472327530E-1
1.794003200E1,-6.160820127E-1,5.642745495E-1,-3.421639502E-1
1.795010500E1,-6.032538414E-1,4.262190163E-1,-2.615297139E-1
1.796000300E1,-5.207870603E-1,3.028242290E-1,-2.132713497E-1
1.797005000E1,-4.316006899E-1,1.574382931E-1,-1.906693578E-1
1.798009900E1,-3.992248476E-1,-3.498426080E-2,-1.741759777E-1
1.799008600E1,-4.065552354E-1,-2.567283511E-1,-1.356914788E-1
1.800003800E1,-3.686815798E-1,-5.297851562E-1,-7.888101041E-2
1.801009300E1,-2.623910308E-1,-7.826833725E-1,-7.939338684E-5
1.801997700E1,-9.745742381E-2,-6.996056437E-1,3.670506179E-1
1.803014300E1,2.593735233E-2,-5.829303861E-1,4.965540469E-1
1.804003600E1,1.652146280E-1,-4.027251303E-1,5.600840449E-1
1.805005200E1,3.570263386E-1,-3.355299532E-1,5.979577303E-1
1.806003200E1,6.459655762E-1,-4.613682032E-1,6.394965649E-1
1.807000600E1,9.794980288E-1,-6.006454825E-1,6.767593026E-1
1.808005400E1,1.336243272E0,-6.605103016E-1,6.645420194E-1
1.809008600E1,1.681382179E0,-5.975911617E-1,5.924599171E-1
1.810002200E1,1.853646159E0,-2.866607308E-1,4.751737416E-1
1.811010500E1,1.809663892E0,-2.887560986E-2,3.230683208E-1
1.812001400E1,1.776677132E0,-1.541029811E-1,1.196501926E-1
1.813008300E1,1.710092783E0,-1.577681750E-1,-5.688986182E-2
1.814002800E1,1.587308884E0,7.165441290E-3,-1.637912691E-1
1.815007300E1,1.403438449E0,2.301312685E-1,-2.041083872E-1
1.816000800E1,1.190246463E0,4.146125615E-1,-2.059409916E-1
1.816999600E1,9.941587448E-1,5.813787580E-1,-1.943345368E-1
1.817999100E1,8.725965619E-1,7.689144015E-1,-1.729542613E-1
1.819006000E1,8.915333748E-1,8.910874128E-1,-1.253067702E-1
1.820003900E1,9.911043644E-1,8.629876375E-1,-5.627899617E-2
1.821004100E1,1.008208632E0,6.797280312E-1,-5.577180535E-3
1.822009600E1,9.904935360E-1,3.547477722E-1,3.535079211E-2
1.823012200E1,1.004543424E0,1.055147424E-1,7.872222364E-2
1.824005700E1,1.002099991E0,-5.331022292E-2,1.214827970E-1
1.825005000E1,8.964203000E-1,-2.939911187E-1,1.465282738E-1
1.826000200E1,8.438858986E-1,-3.807339966E-1,1.275914311E-1
1.827009600E1,7.968492508E-1,-4.118881226E-1,7.200270891E-2
1.828005200E1,7.699711919E-1,-4.974092543E-1,1.580310240E-2
1.829016900E1,7.143824697E-1,-5.236764550E-1,-4.711601883E-2
1.829999500E1,6.551285386E-1,-5.291742682E-1,-1.130894646E-1
1.831014000E1,6.007615328E-1,-5.597175360E-1,-1.760085821E-1
1.832005300E1,5.146295428E-1,-6.104193330E-1,-2.352625132E-1
1.833005000E1,4.003977478E-1,-6.586776972E-1,-2.890186608E-1
1.834002200E1,3.051027954E-1,-6.947187781E-1,-3.391095996E-1
1.835008000E1,2.244685441E-1,-6.623429060E-1,-3.592681587E-1
1.836007800E1,1.517755985E-1,-5.707131028E-1,-3.549921215E-1
1.837011600E1,5.953494087E-2,-4.515943527E-1,-3.268923163E-1
1.838005300E1,-3.453830630E-2,-3.734036088E-1,-2.725252807E-1
1.839011000E1,-1.322767437E-1,-3.440820575E-1,-2.340407968E-1
1.840005300E1,-2.403998971E-1,-3.642406166E-1,-2.138822377E-1
1.841003400E1,-3.491339087E-1,-4.021142721E-1,-1.998323202E-1
1.842001300E1,-4.419853985E-1,-4.558704197E-1,-1.815063655E-1
1.843003700E1,-4.939089715E-1,-5.297851562E-1,-1.558500230E-1
1.843999500E1,-5.006284714E-1,-6.043106914E-1,-1.228633076E-1
1.845008000E1,-4.719178081E-1,-6.501255631E-1,-8.804398775E-2
1.846015300E1,-4.273246527E-1,-6.702841520E-1,-5.078120902E-2
1.847005000E1,-3.857858181E-1,-6.770036817E-1,-1.535102352E-2
1.848008100E1,-2.715540230E-1,-6.867774725E-1,1.056002900E-1
1.849013000E1,-2.153544277E-1,-6.275236011E-1,1.575238407E-1
1.850007500E1,-2.135218233E-1,-4.680877030E-1,1.679085493E-1
1.851008700E1,-2.471194118E-1,-2.206872851E-1,1.263697147E-1
1.852004200E1,-2.819387317E-1,1.452209949E-1,2.618781105E-2
1.853016200E1,-3.430252373E-1,5.520572066E-1,-1.350806057E-1
1.854001300E1,-3.839532137E-1,8.104532361E-1,-3.439965248E-1
1.855008100E1,-3.063733280E-1,7.866294980E-1,-3.904222846E-1
1.856006400E1,-1.017334759E-1,4.873055220E-1,-3.360552788E-1
1.857010900E1,1.780427992E-1,1.083063334E-2,-3.568246961E-1
1.858003000E1,5.861007571E-1,-2.836064100E-1,-4.545631409E-1
1.859009800E1,8.603792787E-1,-3.043758273E-1,-5.070975423E-1
1.860012800E1,8.561031818E-1,-3.245343864E-1,-4.643369913E-1
1.861013500E1,7.736364007E-1,-1.113424227E-1,-3.372770250E-1
1.862006700E1,6.887261271E-1,4.695904255E-1,-2.297647297E-1
1.863008500E1,4.804210961E-1,9.631695151E-1,-1.711216569E-1
1.864001500E1,3.876552358E-2,1.049301505E0,-1.943345368E-1
1.865002700E1,-4.554244578E-1,7.206560373E-1,-2.267104089E-1
1.866002400E1,-7.095444202E-1,2.319638580E-1,-1.973888576E-1
1.867006500E1,-7.303138375E-1,-1.547138393E-1,-1.344697475E-1
1.868001400E1,-5.580498576E-1,-2.842172682E-1,-5.627899617E-2
1.869007800E1,-2.599475682E-1,-9.607078880E-2,1.458137110E-2
1.870007300E1,2.349389344E-2,1.867598295E-1,4.756809771E-2
1.871006500E1,1.511647254E-1,2.661722898E-1,7.017011195E-2
1.872006500E1,4.792850092E-2,-7.835569233E-2,7.566789538E-2
1.873004800E1,-9.318137169E-2,-1.589899063E-1,1.117089465E-1
1.874000900E1,-2.245174050E-1,-1.369987577E-1,1.746280789E-1
1.875001300E1,-3.527990878E-1,-4.170378298E-2,2.467101514E-1
1.876001700E1,-4.945198298E-1,6.947369874E-2,2.357145846E-1
1.877009900E1,-6.814446449E-1,1.140668541E-1,1.257588565E-1
1.877999200E1,-8.598172665E-1,2.793485858E-2,3.412906080E-2
1.879004700E1,-9.758816957E-1,-6.002973765E-2,5.550934374E-2
1.879997900E1,-9.826011658E-1,-1.247814521E-1,1.520260572E-1
1.881014100E1,-8.677585125E-1,-2.054156661E-1,2.888598740E-1
1.882014800E1,-6.759468317E-1,-1.950309426E-1,4.550152123E-1
1.883011300E1,-4.810808003E-1,-6.858184934E-2,5.997902751E-1
1.884005100E1,-3.851749301E-1,8.779965341E-2,6.840897202E-1
1.885011400E1,-3.949487805E-1,1.293384880E-1,6.932526827E-1
1.886004100E1,-4.768047333E-1,9.940609336E-2,6.578224897E-1
1.887016500E1,-5.959234834E-1,1.018495485E-1,6.022337675E-1
1.888007800E1,-7.419202924E-1,1.250624359E-1,5.093822479E-1
1.889018300E1,-8.628715873E-1,7.619321346E-2,4.165306985E-1
1.890001900E1,-9.502253532E-1,6.703023612E-2,3.371182084E-1
1.891005500E1,-9.868772626E-1,1.482753158E-1,2.607600689E-1
1.892006600E1,-9.661078453E-1,2.936612368E-1,1.825693250E-1
1.893020700E1,-9.062430263E-1,4.414906502E-1,1.013242379E-1
1.894007300E1,-8.414913416E-1,5.355638266E-1,3.290732950E-2
1.895013100E1,-7.907894850E-1,5.728266239E-1,-6.177678332E-2
1.896006200E1,-7.920112014E-1,5.593876243E-1,-1.130894646E-1
1.897010400E1,-7.895677686E-1,5.343421102E-1,-1.717325151E-1
1.898011500E1,-8.042285442E-1,4.989119768E-1,-2.468689382E-1
1.899007200E1,-8.219436407E-1,4.359928370E-1,-3.360552788E-1
1.900007200E1,-7.981199026E-1,4.030061364E-1,-4.276850820E-1
1.901010900E1,-7.248160243E-1,4.537079334E-1,-5.070975423E-1
1.902007800E1,-6.405166388E-1,5.587767363E-1,-5.535233021E-1
1.903012500E1,-5.989778042E-1,6.907235980E-1,-5.804013610E-1
1.904006400E1,-5.873713493E-1,8.208379149E-1,-5.865100026E-1
1.905012700E1,-5.714888573E-1,9.100242257E-1,-5.584102273E-1
1.906017600E1,-5.513303280E-1,8.923091292E-1,-4.942693710E-1
1.907011500E1,-5.617150068E-1,7.921272516E-1,-3.837027848E-1
1.908010500E1,-6.081407666E-1,6.711759567E-1,-2.450363636E-1
1.909011300E1,-6.142494678E-1,5.874873996E-1,-1.308045536E-1
1.910007100E1,-5.439999104E-1,5.154052973E-1,-6.483110785E-2
1.911016700E1,-4.725286663E-1,4.042278528E-1,-2.817919478E-2
1.912005200E1,-4.621439576E-1,2.362399101E-1,-1.301124692E-3
1.913002800E1,-4.963524044E-1,6.641937047E-2,3.657252342E-2
1.914010900E1,-5.183435678E-1,-1.663202792E-1,1.007133797E-1
1.915000500E1,-4.438180029E-1,-5.701022148E-1,1.617999077E-1
1.915996800E1,-2.904908359E-1,-8.694261909E-1,2.399906516E-1
1.917016700E1,-1.536570340E-1,-7.411445379E-1,3.914852142E-1
1.918008100E1,3.998725489E-2,-2.261850834E-1,5.942925215E-1
1.919009500E1,1.865949035E-1,-1.797593236E-1,5.930708051E-1
1.920000100E1,4.834754169E-1,-3.624080122E-1,5.735231042E-1
1.921006100E1,8.732074499E-1,-5.395590067E-1,5.796317458E-1
1.922003800E1,1.281876326E0,-5.426133275E-1,5.753557086E-1
1.923008600E1,1.657558441E0,-4.442639649E-1,5.466450453E-1
1.924007100E1,1.791948795E0,-1.534921080E-1,4.934997261E-1
1.925010500E1,1.755296826E0,-3.620599210E-2,3.878200352E-1
1.926008500E1,1.733916521E0,-1.321118325E-1,2.198320925E-1
1.927007500E1,1.656336665E0,-7.102531195E-2,1.056002900E-1
1.928000700E1,1.500566006E0,1.171211824E-1,6.222885847E-2
1.929011900E1,1.330134630E0,3.315348923E-1,3.596165776E-2
1.930002200E1,1.187192202E0,5.282334685E-1,-2.522854134E-3
1.931005200E1,1.087010264E0,7.017192245E-1,-3.978563473E-2
1.932001900E1,1.050969243E0,8.471051455E-1,-5.750072747E-2
1.933002400E1,1.049136639E0,8.996395469E-1,-5.139207095E-2
1.934009400E1,1.041195393E0,7.719687223E-1,-3.978563473E-2
1.935006800E1,1.049136639E0,5.642745495E-1,-1.779448614E-2
1.936006000E1,1.066240907E0,3.883453608E-1,1.152704656E-2
1.937011600E1,1.064408302E0,1.824837774E-1,3.779425472E-2
1.938011900E1,1.008208632E0,-3.620599210E-2,5.367674679E-2
1.939013400E1,9.318504930E-1,-2.744434178E-1,6.772664934E-2
1.940011600E1,8.591575027E-1,-4.735855162E-1,6.406145543E-2
1.941023400E1,7.876862884E-1,-8.547654152E-1,3.596165776E-2
1.942003500E1,7.553104162E-1,-9.861015081E-1,-7.939338684E-5
1.943010200E1,7.296540737E-1,-1.155311108E0,-2.390313894E-2
1.944002900E1,6.923913360E-1,-1.219452024E0,-6.238764897E-2
1.945014200E1,6.539068222E-1,-1.163863301E0,-9.598523378E-2
1.946002900E1,6.215309501E-1,-1.086894274E0,-1.460761875E-1
1.947009600E1,5.799921155E-1,-1.005038261E0,-1.729542613E-1
1.948010300E1,5.176838636E-1,-9.250149727E-1,-1.900584698E-1
1.949008900E1,4.352170825E-1,-8.456024528E-1,-1.802846491E-1
1.950003100E1,3.582480550E-1,-7.808507681E-1,-1.540174335E-1
1.951006400E1,2.825007737E-1,-7.356467247E-1,-1.271393597E-1
1.952006900E1,1.725450158E-1,-7.106012702E-1,-9.232003987E-2
1.953012000E1,3.387860581E-2,-7.014382482E-1,-5.566813052E-2
1.954004800E1,-1.182268411E-1,-6.898318529E-1,-3.062265553E-2
1.955001400E1,-2.684997022E-1,-6.623429060E-1,-9.242372587E-3
1.956000300E1,-3.998357058E-1,-6.446278095E-1,1.030531526E-2
1.957013000E1,-4.896329045E-1,-6.867774725E-1,2.924213931E-2
1.958002800E1,-5.250630975E-1,-7.741312385E-1,3.718338907E-2
1.959011700E1,-4.853568375E-1,-8.724805117E-1,1.580310240E-2
1.960004400E1,-3.540208042E-1,-9.457843900E-1,-2.145967633E-2
1.961005600E1,-1.359419376E-1,-9.702189565E-1,-5.688986182E-2
1.962002500E1,6.197840348E-2,-9.091324806E-1,-7.216149569E-2
1.963000800E1,1.352822334E-1,-8.132265806E-1,-6.055505201E-2
1.964004600E1,-1.518244296E-1,-7.106012702E-1,-2.522854134E-3
1.965015700E1,-3.075950444E-1,1.238407046E-1,-2.329227328E-2
1.966002800E1,-5.091806054E-1,6.546825767E-1,-1.411892623E-1
1.967009200E1,-6.637295485E-1,8.055663109E-1,-2.285429835E-1
1.968001200E1,-5.275065899E-1,6.858367324E-1,-1.173655167E-1
1.969016300E1,-4.309041798E-2,3.504717052E-1,3.596165776E-2
1.970009000E1,6.697893143E-1,-6.491666287E-2,4.807528108E-3
1.971004500E1,1.238504887E0,-2.829955518E-1,-1.882258952E-1
1.972004300E1,1.365564823E0,-2.860498726E-1,-2.291538715E-1
1.973001200E1,1.216513753E0,-1.883114278E-1,-3.367698193E-2
1.974009300E1,1.068073392E0,3.620781600E-1,1.465282738E-1
1.975008600E1,7.632516623E-1,9.808846116E-1,1.495825946E-1
1.976011800E1,2.745595276E-1,1.075568676E0,9.460472316E-2
1.977010500E1,-7.729887217E-2,7.078278661E-1,1.410304904E-1
1.977999100E1,-3.546316922E-1,2.527332604E-1,1.960083544E-1
1.979012800E1,-5.513303280E-1,-1.461617351E-1,1.654650867E-1
1.980007700E1,-6.038647294E-1,-4.173859060E-1,6.345058978E-2
1.981020500E1,-4.981850088E-1,-4.925223291E-1,-8.010274172E-2
1.982011800E1,-3.876183927E-1,-4.100555182E-1,-1.992214620E-1
1.983010200E1,-3.784554303E-1,-3.489689827E-1,-2.004432082E-1
1.984008700E1,-4.725286663E-1,-3.984490633E-1,-2.187691629E-1
1.985016100E1,-6.173037887E-1,-3.850100338E-1,-2.157148123E-1
1.986002700E1,-6.918293238E-1,-1.553247124E-1,-1.100351363E-1
1.987007800E1,-6.796120405E-1,2.392942458E-1,1.404196024E-1
1.988000600E1,-7.297029495E-1,7.878512144E-1,1.184284613E-1
