"Time (s)","Gyroscope x (rad/s)","Gyroscope y (rad/s)","Gyroscope z (rad/s)"
0.000000000E0,-1.328596354E0,5.836735964E-1,3.461503088E-1
2.391511000E-3,-1.328596354E0,5.836735964E-1,3.461503088E-1
4.759063000E-3,-1.328596354E0,5.836735964E-1,3.461503088E-1
7.126615000E-3,-1.328596354E0,5.836735964E-1,3.461503088E-1
9.494167000E-3,-1.328596354E0,5.836735964E-1,3.461503088E-1
1.186171900E-2,-1.328596354E0,5.836735964E-1,3.461503088E-1
1.434869800E-2,-1.328596354E0,5.836735964E-1,3.461503088E-1
1.673994800E-2,-1.328596354E0,5.836735964E-1,3.461503088E-1
1.913046900E-2,-1.328596354E0,5.836735964E-1,3.461503088E-1
2.152182300E-2,-1.328596354E0,5.836735964E-1,3.461503088E-1
2.391390700E-2,-1.328596354E0,5.836735964E-1,3.461503088E-1
2.630520900E-2,-1.328596354E0,5.836735964E-1,3.461503088E-1
2.869573000E-2,-1.328596354E0,5.836735964E-1,3.461503088E-1
3.108708400E-2,-1.328596354E0,5.836735964E-1,3.461503088E-1
3.347916700E-2,-1.328596354E0,5.836735964E-1,3.461503088E-1
3.587046900E-2,-1.328596354E0,5.836735964E-1,3.461503088E-1
3.826099000E-2,-1.328596354E0,5.836735964E-1,3.461503088E-1
4.065234400E-2,-1.328596354E0,5.836735964E-1,3.461503088E-1
4.304442700E-2,-1.328596354E0,5.836735964E-1,3.461503088E-1
4.543573000E-2,-1.328596354E0,5.836735964E-1,3.461503088E-1
4.782625000E-2,-1.328596354E0,5.836735964E-1,3.461503088E-1
5.021760500E-2,-1.328596354E0,5.836735964E-1,3.461503088E-1
5.260968800E-2,-1.328596354E0,5.836735964E-1,3.461503088E-1
5.500099000E-2,-1.328596354E0,5.836735964E-1,3.461503088E-1
5.739151100E-2,-1.328596354E0,5.836735964E-1,3.461503088E-1
5.978281300E-2,-1.328596354E0,5.836735964E-1,3.461503088E-1
6.217500000E-2,-1.328596354E0,5.836735964E-1,3.461503088E-1
6.456625000E-2,-1.328596354E0,5.836735964E-1,3.461503088E-1
6.695677100E-2,-1.328596354E0,5.836735964E-1,3.461503088E-1
6.934807300E-2,-1.328596354E0,5.836735964E-1,3.461503088E-1
7.174026100E-2,-1.328596354E0,5.836735964E-1,3.461503088E-1
7.413151100E-2,-1.328596354E0,5.836735964E-1,3.461503088E-1
7.652203200E-2,-1.328596354E0,5.836735964E-1,3.461503088E-1
7.891333400E-2,-1.328596354E0,5.836735964E-1,3.461503088E-1
8.130546900E-2,-1.328596354E0,5.836735964E-1,3.461503088E-1
8.369677100E-2,-1.328596354E0,5.836735964E-1,3.461503088E-1
8.608729200E-2,-1.328596354E0,5.836735964E-1,3.461503088E-1
8.847859400E-2,-1.532926857E-1,1.865267873E0,1.751081795E-1
9.087073000E-2,-8.121065050E-2,1.826172590E0,1.641126126E-1
9.326203200E-2,-1.035033911E-2,1.782190323E0,1.543387771E-1
9.565255200E-2,5.806650966E-2,1.730877638E0,1.457866728E-1
9.804385500E-2,1.228181645E-1,1.673456311E0,1.335693747E-1
1.004359900E-1,1.839046478E-1,1.611148119E0,1.274607331E-1
1.028272920E-1,2.413259298E-1,1.543953061E0,1.176868975E-1
1.052178130E-1,2.938602865E-1,1.473092794E0,1.079130620E-1
1.076091150E-1,3.378425539E-1,1.398567200E0,9.936095774E-2
1.100012500E-1,3.732727170E-1,1.317933083E0,9.447403252E-2
1.123925520E-1,4.025942087E-1,1.238520741E0,8.714365959E-2
1.147830730E-1,4.245853424E-1,1.154221296E0,8.347848058E-2
1.171743750E-1,4.416895509E-1,1.073587179E0,7.859155536E-2
1.195665110E-1,4.502416551E-1,9.929529428E-1,7.492637634E-2
1.219577610E-1,4.539068639E-1,9.098753333E-1,7.248291373E-2
1.243483340E-1,4.490199387E-1,8.292412162E-1,7.126118243E-2
1.267396360E-1,4.368026555E-1,7.449418902E-1,7.248291373E-2
1.291317710E-1,4.196984172E-1,6.655294299E-1,7.370464504E-2
1.315230210E-1,3.952638507E-1,5.897822380E-1,7.492637634E-2
1.339135940E-1,3.659423292E-1,5.103698373E-1,7.859155536E-2
1.363048960E-1,3.305121660E-1,4.297356904E-1,7.981328666E-2
1.386970320E-1,2.963037491E-1,3.539884686E-1,8.225674927E-2
1.410882820E-1,2.572084069E-1,2.770195305E-1,8.470021188E-2
1.434788550E-1,2.181130648E-1,2.086026669E-1,8.592194319E-2
1.458701570E-1,1.777960062E-1,1.475161910E-1,8.958712220E-2
1.482622920E-1,1.399223804E-1,9.742528200E-2,8.958712220E-2
1.506535420E-1,1.008270383E-1,5.955167115E-2,8.836539090E-2
1.530441150E-1,6.417515129E-2,3.145189583E-2,8.958712220E-2
1.554354170E-1,2.874500304E-2,1.312595420E-2,9.325231612E-2
1.578275520E-1,-3.019962227E-3,2.130390611E-3,9.447403252E-2
1.602188020E-1,-3.234146908E-2,9.086630307E-4,9.447403252E-2
1.626093230E-1,-5.677605793E-2,3.352118190E-3,9.447403252E-2
1.650006770E-1,-8.121065050E-2,1.190422662E-2,9.569576383E-2
1.673928130E-1,-9.831485897E-2,2.656497993E-2,9.813922644E-2
1.697840630E-1,-1.129756197E-1,4.977783561E-2,9.813922644E-2
1.721745840E-1,-1.288580894E-1,7.543415576E-2,9.569576383E-2
1.745659380E-1,-1.398536563E-1,9.986874461E-2,9.813922644E-2
1.769580730E-1,-1.532926857E-1,1.291902512E-1,1.005826890E-1
1.793493230E-1,-1.667317003E-1,1.597334892E-1,1.030261517E-1
1.817398440E-1,-1.801707298E-1,1.866115332E-1,1.066913307E-1
1.841311980E-1,-1.936097443E-1,2.086026669E-1,1.115782559E-1
1.865233340E-1,-2.058270425E-1,2.195982188E-1,1.176868975E-1
1.889145840E-1,-2.168226093E-1,2.220416814E-1,1.299041957E-1
1.913051050E-1,-2.265964448E-1,2.208199501E-1,1.408997625E-1
1.936964590E-1,-2.351485491E-1,2.171547711E-1,1.494518667E-1
1.960885940E-1,-2.461441159E-1,2.122678459E-1,1.555605084E-1
1.984798440E-1,-2.546962202E-1,2.049374729E-1,1.616691649E-1
2.008703650E-1,-2.620266080E-1,1.902767271E-1,1.677778065E-1
2.032616670E-1,-2.754656374E-1,1.743942350E-1,1.763299108E-1
2.056538550E-1,-2.827959955E-1,1.621769518E-1,1.751081795E-1
2.080451050E-1,-2.925698459E-1,1.524031162E-1,1.726647168E-1
2.104356250E-1,-2.986784875E-1,1.377423555E-1,1.763299108E-1
2.128269270E-1,-2.999002039E-1,1.243033260E-1,1.714430004E-1
2.152191150E-1,-3.011219501E-1,1.194164157E-1,1.665560752E-1
2.176103650E-1,-3.011219501E-1,1.120860428E-1,1.567822397E-1
2.200008860E-1,-2.962350249E-1,1.071991175E-1,1.457866728E-1
2.223921880E-1,-2.876829207E-1,1.035339385E-1,1.323476583E-1
2.247843230E-1,-2.754656374E-1,1.071991175E-1,1.201303601E-1
2.271756250E-1,-2.583613992E-1,1.108643115E-1,1.054695994E-1
2.295661460E-1,-2.351485491E-1,1.157512218E-1,9.080885351E-2
2.319574480E-1,-2.082705051E-1,1.194164157E-1,7.370464504E-2
2.343495840E-1,-1.752838045E-1,1.181946844E-1,5.660043657E-2
2.367408860E-1,-1.410753876E-1,1.194164157E-1,3.949622065E-2
2.391314070E-1,-1.019800529E-1,1.194164157E-1,1.994854957E-2
2.415227090E-1,-6.410643458E-2,1.206381470E-1,-8.208492072E-4
2.439148440E-1,-2.623282187E-2,1.218598783E-1,-2.281197906E-2
2.463061460E-1,1.164079085E-2,1.230816096E-1,-4.724656790E-2
2.486966670E-1,5.317959189E-2,1.194164157E-1,-7.290288806E-2
2.510879690E-1,9.349665791E-2,1.194164157E-1,-1.022243947E-1
2.534801050E-1,1.338137388E-1,1.169729531E-1,-1.278807223E-1
2.558713550E-1,1.777960062E-1,1.047556624E-1,-1.486501098E-1
2.582619270E-1,2.242217213E-1,9.131664038E-2,-1.645326018E-1
2.606532300E-1,2.743126154E-1,7.543415576E-2,-1.791933626E-1
2.630453650E-1,3.292904496E-1,5.588648468E-2,-1.901889145E-1
2.654366150E-1,3.903769255E-1,3.389535472E-2,-1.999627501E-1
2.678271880E-1,4.490199387E-1,1.556941681E-2,-2.072931379E-1
2.702184900E-1,5.149933696E-1,-2.756527159E-3,-2.134017795E-1
2.726106250E-1,5.870754123E-1,-2.719111182E-2,-2.170669734E-1
2.750018750E-1,6.628226042E-1,-5.529089645E-2,-2.170669734E-1
2.773924480E-1,7.397915721E-1,-8.583413064E-2,-2.134017795E-1
2.797837500E-1,8.204256892E-1,-1.188208312E-1,-2.060714066E-1
2.821758860E-1,9.022815824E-1,-1.603596359E-1,-1.950758398E-1
2.845671360E-1,9.865809083E-1,-1.994549781E-1,-1.840802729E-1
2.869576570E-1,1.069658518E0,-2.446589619E-1,-1.743064374E-1
2.893490110E-1,1.152736068E0,-2.886412144E-1,-1.706412435E-1
2.917411460E-1,1.240700603E0,-3.277365565E-1,-1.730847061E-1
2.941323960E-1,1.333552122E0,-3.631666899E-1,-1.816368103E-1
2.965229170E-1,1.426403522E0,-3.839361072E-1,-1.938541085E-1
2.989142710E-1,1.520476699E0,-3.888230324E-1,-2.060714066E-1
3.013064070E-1,1.610884666E0,-3.827143610E-1,-2.182887048E-1
3.036976570E-1,1.700070858E0,-3.680536151E-1,-2.280625254E-1
3.060881770E-1,1.783148527E0,-3.570580482E-1,-2.353929132E-1
3.084795320E-1,1.861339211E0,-3.436190188E-1,-2.366146445E-1
3.108716670E-1,1.924869180E0,-3.289582729E-1,-2.353929132E-1
3.132629170E-1,1.967629671E0,-3.142975271E-1,-2.256190777E-1
3.156534380E-1,1.992064238E0,-2.971933186E-1,-2.085148543E-1
3.180447920E-1,1.992064238E0,-2.837542892E-1,-1.853020042E-1
3.204369270E-1,1.973738313E0,-2.764239013E-1,-1.608674079E-1
3.228281770E-1,1.938308120E0,-2.739804685E-1,-1.364328265E-1
3.252186980E-1,1.886995554E0,-2.776456475E-1,-1.107764989E-1
3.276100000E-1,1.828352451E0,-2.788673639E-1,-9.245055914E-2
3.300021360E-1,1.762379169E0,-2.910846770E-1,-8.023326099E-2
3.323934380E-1,1.691518784E0,-3.130758107E-1,-7.168115675E-2
3.347839590E-1,1.619436741E0,-3.546145856E-1,-6.557251513E-2
3.371752610E-1,1.541246057E0,-4.108141363E-1,-5.824213102E-2
3.395673960E-1,1.461833715E0,-4.926700294E-1,-4.602484033E-2
3.419586980E-1,1.381199479E0,-6.038474441E-1,-3.258581460E-2
3.443492190E-1,1.298121929E0,-7.394593954E-1,-1.792506129E-2
3.467405210E-1,1.216266036E0,-8.885104060E-1,-3.264307976E-3
3.491326570E-1,1.141740561E0,-1.042448163E0,5.287796259E-3
3.515239590E-1,1.075767159E0,-1.202494740E0,1.139644533E-2
3.539144800E-1,1.023232818E0,-1.355210900E0,1.139644533E-2
3.563057820E-1,9.890244007E-1,-1.487157702E0,2.844341099E-3
3.586979170E-1,9.755853415E-1,-1.598335028E0,-5.707766861E-3
3.610891670E-1,9.829157591E-1,-1.682634354E0,-1.548160240E-2
3.634797400E-1,1.017124176E0,-1.732725263E0,-2.036852017E-2
3.658710420E-1,1.075767159E0,-1.748607755E0,-2.281197906E-2
3.682631770E-1,1.151514411E0,-1.726616621E0,-2.281197906E-2
3.706544270E-1,1.245587587E0,-1.676525712E0,-2.159024961E-2
3.730450000E-1,1.356764913E0,-1.599556804E0,-1.914679073E-2
3.754363020E-1,1.476494431E0,-1.503040195E0,-1.670333184E-2
3.778284380E-1,1.602332592E0,-1.386975884E0,-1.670333184E-2
3.802196880E-1,1.730614185E0,-1.247698784E0,-2.159024961E-2
3.826102610E-1,1.855230570E0,-1.091317415E0,-3.136408702E-2
3.850015630E-1,1.970073104E0,-9.214971066E-1,-4.969002679E-2
3.873936980E-1,2.072698355E0,-7.467897534E-1,-7.290288806E-2
3.897849480E-1,2.160662889E0,-5.696390271E-1,-1.010026634E-1
3.921754690E-1,2.231523037E0,-4.034837782E-1,-1.315459013E-1
3.945668230E-1,2.284057379E0,-2.617631555E-1,-1.633108705E-1
3.969589590E-1,2.320709467E0,-1.420336813E-1,-1.938541085E-1
3.993502090E-1,2.339035273E0,-3.452149406E-2,-2.207321525E-1
4.017407300E-1,2.343922138E0,5.344302580E-2,-2.439450175E-1
4.041320840E-1,2.337813616E0,1.365206242E-1,-2.647143900E-1
4.065242190E-1,2.321931124E0,2.061592042E-1,-2.793751359E-1
4.089154690E-1,2.303605080E0,2.745760679E-1,-2.854838073E-1
4.113059900E-1,2.288944483E0,3.368842602E-1,-2.891489863E-1
4.136972920E-1,2.276727200E0,3.955272734E-1,-2.830403447E-1
4.160894800E-1,2.270618439E0,4.395095408E-1,-2.647143900E-1
4.184807300E-1,2.269396782E0,4.810483456E-1,-2.390580922E-1
4.208712500E-1,2.270618439E0,5.164784789E-1,-2.011844814E-1
4.232625520E-1,2.275505304E0,5.482434630E-1,-1.596456766E-1
4.256547400E-1,2.280392170E0,5.653476715E-1,-1.144416928E-1
4.280459900E-1,2.279170513E0,5.690128207E-1,-7.412461936E-2
4.304365110E-1,2.271840096E0,5.506868958E-1,-3.502927348E-2
4.328278130E-1,2.262066364E0,5.189219117E-1,-3.264307976E-3
4.352199480E-1,2.243740320E0,4.663875997E-1,2.361373976E-2
4.376112500E-1,2.216862440E0,3.979707360E-1,4.560486972E-2
4.400017710E-1,2.186319113E0,3.100062311E-1,7.003945112E-2
4.423930730E-1,2.153332472E0,2.037157416E-1,9.325231612E-2
4.447852090E-1,2.119123936E0,8.398626745E-2,1.189086288E-1
4.471765110E-1,2.083693743E0,-3.452149406E-2,1.408997625E-1
4.495670320E-1,2.051928759E0,-1.432554126E-1,1.653343439E-1
4.519583340E-1,2.026272535E0,-2.519893348E-1,1.885472089E-1
4.543504690E-1,2.007946730E0,-3.607232571E-1,2.019862384E-1
4.567417190E-1,1.995729446E0,-4.450225830E-1,2.154252678E-1
4.591322920E-1,1.988399029E0,-5.012221336E-1,2.325294763E-1
4.615235940E-1,1.989620805E0,-5.281001925E-1,2.471902221E-1
4.639157300E-1,1.998172879E0,-5.293219090E-1,2.642944455E-1
4.663069800E-1,2.010390043E0,-5.097742677E-1,2.789551914E-1
4.686975520E-1,2.022607327E0,-4.767875373E-1,2.911725044E-1
4.710888550E-1,2.032381296E0,-4.438008368E-1,2.972811460E-1
4.734809900E-1,2.038489819E0,-4.193662703E-1,3.046115041E-1
4.758722400E-1,2.043376684E0,-4.047054946E-1,3.082767129E-1
4.782627610E-1,2.040933371E0,-3.985968530E-1,3.119418919E-1
4.806541150E-1,2.034824610E0,-3.924882114E-1,3.131636381E-1
4.830462500E-1,2.028716087E0,-3.753840029E-1,3.119418919E-1
4.854375000E-1,2.018942118E0,-3.387321234E-1,3.094984293E-1
4.878280210E-1,2.011611700E0,-2.947498560E-1,3.033897877E-1
4.902193750E-1,2.007946730E0,-2.361068577E-1,2.887290418E-1
4.926115110E-1,2.006724834E0,-1.689117402E-1,2.691813707E-1
4.950027610E-1,1.998172879E0,-9.072105587E-2,2.459685057E-1
4.973932820E-1,1.983512163E0,-8.865172043E-3,2.129818052E-1
4.997845840E-1,1.949303746E0,4.977783561E-2,1.702212691E-1
5.021767710E-1,1.907764912E0,9.742528200E-2,1.299041957E-1
5.045680210E-1,1.863782644E0,1.511813849E-1,9.569576383E-2
5.069585420E-1,1.821022153E0,1.866115332E-1,6.515254080E-2
5.093498440E-1,1.774596453E0,1.939419061E-1,3.094411641E-2
5.117419800E-1,1.728170633E0,1.878332645E-1,-3.264307976E-3
5.141332820E-1,1.685410142E0,1.878332645E-1,-4.113792256E-2
5.165238020E-1,1.653645158E0,2.037157416E-1,-7.168115675E-2
5.189151050E-1,1.635319233E0,2.257068753E-1,-1.046678573E-1
5.213072400E-1,1.624323726E0,2.501414716E-1,-1.254372597E-1
5.236985420E-1,1.618215084E0,2.672457099E-1,-1.462066621E-1
5.260890630E-1,1.604776025E0,2.660239637E-1,-1.681977957E-1
5.284803650E-1,1.581563115E0,2.391458899E-1,-1.853020042E-1
5.308725000E-1,1.549798250E0,1.939419061E-1,-2.060714066E-1
5.332638020E-1,1.516811490E0,1.316337138E-1,-2.243973464E-1
5.356543230E-1,1.482603073E0,7.176896930E-2,-2.427232862E-1
5.380456250E-1,1.454503298E0,2.045633271E-2,-2.598274648E-1
5.404377610E-1,1.423960090E0,-2.352592535E-2,-2.732664943E-1
5.428290110E-1,1.394638538E0,-6.017781794E-2,-2.793751359E-1
5.452195840E-1,1.362873554E0,-8.705586195E-2,-2.915924489E-1
5.476108860E-1,1.327443480E0,-1.102687269E-1,-3.038097322E-1
5.500030210E-1,1.292013288E0,-1.395902336E-1,-3.148052990E-1
5.523942710E-1,1.255361438E0,-1.664682776E-1,-3.258008659E-1
5.547848440E-1,1.218709469E0,-1.982332468E-1,-3.392398953E-1
5.571761460E-1,1.182057619E0,-2.312199324E-1,-3.490137458E-1
5.595682820E-1,1.149070978E0,-2.629849017E-1,-3.539006412E-1
5.619595320E-1,1.119749427E0,-2.984150350E-1,-3.624527454E-1
5.643500520E-1,1.095314860E0,-3.338451982E-1,-3.685614169E-1
5.667414070E-1,1.073323727E0,-3.680536151E-1,-3.746700585E-1
5.691335420E-1,1.053776026E0,-4.059272408E-1,-3.807787001E-1
5.715247920E-1,1.039115310E0,-4.425791204E-1,-3.856656253E-1
5.739153130E-1,1.029341459E0,-4.792309701E-1,-3.856656253E-1
5.763066150E-1,1.024454474E0,-5.109959841E-1,-3.893308043E-1
5.786988020E-1,1.019567609E0,-5.378740430E-1,-3.881090879E-1
5.810900520E-1,1.017124176E0,-5.647521019E-1,-3.881090879E-1
5.834805730E-1,1.019567609E0,-5.879649520E-1,-3.856656253E-1
5.858718750E-1,1.020789385E0,-6.062908769E-1,-3.844438791E-1
5.882640630E-1,1.023232818E0,-6.221733689E-1,-3.807787001E-1
5.906553130E-1,1.023232818E0,-6.356123686E-1,-3.783352375E-1
5.930458340E-1,1.025676250E0,-6.453862190E-1,-3.758917749E-1
5.954371360E-1,1.025676250E0,-6.539383531E-1,-3.697831333E-1
5.978292710E-1,1.026898026E0,-6.637122035E-1,-3.624527454E-1
6.002205730E-1,1.024454474E0,-6.661556363E-1,-3.551223874E-1
6.026110940E-1,1.022011042E0,-6.673773527E-1,-3.502354622E-1
6.050023960E-1,1.015902400E0,-6.673773527E-1,-3.465702832E-1
6.073945320E-1,1.012237191E0,-6.685990691E-1,-3.429050744E-1
6.097857820E-1,1.007350326E0,-6.624904275E-1,-3.429050744E-1
6.121763550E-1,1.002463460E0,-6.551600695E-1,-3.441268206E-1
6.145676570E-1,9.975764751E-1,-6.441645026E-1,-3.502354622E-1
6.169597920E-1,9.939112663E-1,-6.331689358E-1,-3.575658500E-1
6.193510420E-1,9.951330423E-1,-6.148430109E-1,-3.648962080E-1
6.217416150E-1,9.975764751E-1,-5.989605188E-1,-3.722265959E-1
6.241329170E-1,1.003685117E0,-5.830780268E-1,-3.820004165E-1
6.265250520E-1,1.014680743E0,-5.610868931E-1,-3.905525208E-1
6.289163020E-1,1.028119683E0,-5.390957594E-1,-4.015480876E-1
6.313068750E-1,1.041558743E0,-5.158829093E-1,-4.088784754E-1
6.336981770E-1,1.056219459E0,-4.926700294E-1,-4.149871171E-1
6.360903130E-1,1.072101951E0,-4.743441045E-1,-4.223175049E-1
6.384815630E-1,1.086762786E0,-4.547964036E-1,-4.272044301E-1
6.408720840E-1,1.102645159E0,-4.376921952E-1,-4.284261465E-1
6.432634380E-1,1.114862561E0,-4.242531657E-1,-4.296478629E-1
6.456555730E-1,1.122192860E0,-4.120358825E-1,-4.320913255E-1
6.480468230E-1,1.125858068E0,-4.022620320E-1,-4.284261465E-1
6.504373440E-1,1.123414636E0,-3.961533904E-1,-4.259826839E-1
6.528286460E-1,1.118527651E0,-3.949316740E-1,-4.235392213E-1
6.552208340E-1,1.102645159E0,-4.022620320E-1,-4.198740423E-1
6.576120840E-1,1.086762786E0,-4.157010615E-1,-4.149871171E-1
6.600026050E-1,1.062328100E0,-4.328052700E-1,-4.125436544E-1
6.623939070E-1,1.036671877E0,-4.560181201E-1,-4.210957587E-1
6.647860420E-1,1.007350326E0,-4.828961790E-1,-4.247609675E-1
6.671773440E-1,9.755853415E-1,-5.085525513E-1,-4.259826839E-1
6.695678650E-1,9.401552081E-1,-5.366523266E-1,-4.296478629E-1
6.719591670E-1,9.022815824E-1,-5.598651767E-1,-4.308696091E-1
6.743513020E-1,8.619645238E-1,-5.818563104E-1,-4.296478629E-1
6.767425520E-1,8.216474652E-1,-6.001822352E-1,-4.284261465E-1
6.791331250E-1,7.801086307E-1,-6.136212945E-1,-4.235392213E-1
6.815244270E-1,7.410132885E-1,-6.185081601E-1,-4.174305797E-1
6.839165630E-1,7.006962299E-1,-6.246168613E-1,-4.113219380E-1
6.863078130E-1,6.603791714E-1,-6.331689358E-1,-4.003263712E-1
6.886983860E-1,6.176186204E-1,-6.380558610E-1,-3.856656253E-1
6.910896880E-1,5.748580694E-1,-6.453862190E-1,-3.722265959E-1
6.934818230E-1,5.345410109E-1,-6.466079354E-1,-3.563441038E-1
6.958730730E-1,4.942239225E-1,-6.527166367E-1,-3.392398953E-1
6.982636460E-1,4.539068639E-1,-6.588252783E-1,-3.196922243E-1
7.006549480E-1,4.148115218E-1,-6.624904275E-1,-3.001445532E-1
7.030470840E-1,3.781596124E-1,-6.661556363E-1,-2.793751359E-1
7.054383340E-1,3.390642703E-1,-6.698208451E-1,-2.573840320E-1
7.078289070E-1,3.085210621E-1,-6.832598448E-1,-2.341711819E-1
7.102202090E-1,2.767560780E-1,-6.942554116E-1,-2.134017795E-1
7.126123440E-1,2.510997653E-1,-7.040292621E-1,-1.926323771E-1
7.150035940E-1,2.229999900E-1,-7.125813365E-1,-1.681977957E-1
7.173941150E-1,1.949002147E-1,-7.162465453E-1,-1.437631994E-1
7.197854690E-1,1.668004394E-1,-7.199117541E-1,-1.217720658E-1
7.221776050E-1,1.399223804E-1,-7.260203958E-1,-1.046678573E-1
7.245688550E-1,1.106008738E-1,-7.382376790E-1,-9.000709653E-2
7.269593750E-1,7.761418074E-2,-7.492332458E-1,-8.023326099E-2
7.293506770E-1,4.340575635E-2,-7.614505291E-1,-7.778981328E-2
7.317428130E-1,5.532144103E-3,-7.736678123E-1,-7.656808197E-2
7.341341150E-1,-3.722838685E-2,-7.858850956E-1,-8.023326099E-2
7.365246360E-1,-8.243238181E-2,-7.993241549E-1,-8.512018621E-2
7.389159380E-1,-1.313015521E-1,-8.115414381E-1,-9.245055914E-2
7.413080730E-1,-1.801707298E-1,-8.188717961E-1,-9.733748436E-2
7.436993750E-1,-2.302616388E-1,-8.213152885E-1,-1.010026634E-1
7.460898960E-1,-2.803525329E-1,-8.225370049E-1,-1.058895886E-1
7.484811980E-1,-3.328869045E-1,-8.127631545E-1,-1.046678573E-1
7.508733340E-1,-3.793126345E-1,-7.968806624E-1,-1.034461260E-1
7.532645840E-1,-4.245166183E-1,-7.748895288E-1,-1.010026634E-1
7.556551570E-1,-4.672771394E-1,-7.541201711E-1,-9.611575305E-2
7.580464590E-1,-5.051507354E-1,-7.333507538E-1,-8.756364882E-2
7.604385940E-1,-5.393591523E-1,-7.223551869E-1,-7.901153713E-2
7.628298440E-1,-5.686806440E-1,-7.162465453E-1,-6.801597029E-2
7.652203650E-1,-5.955587029E-1,-7.211334705E-1,-5.579867586E-2
7.676117190E-1,-6.224367619E-1,-7.260203958E-1,-4.602484033E-2
7.700038550E-1,-6.480931044E-1,-7.309073210E-1,-3.747273237E-2
7.723951050E-1,-6.774145961E-1,-7.296855450E-1,-2.769889683E-2
7.747856250E-1,-7.104012966E-1,-7.223551869E-1,-2.036852017E-2
7.771769800E-1,-7.507183552E-1,-7.040292621E-1,-9.372955188E-3
7.795691150E-1,-7.947006226E-1,-6.759294868E-1,-8.208492072E-4
7.819603650E-1,-8.399046063E-1,-6.404992938E-1,8.952986449E-3
7.843508860E-1,-8.899955153E-1,-5.977388024E-1,2.605719864E-2
7.867421880E-1,-9.388647079E-1,-5.561999679E-1,4.682660103E-2
7.891343750E-1,-9.901773334E-1,-5.158829093E-1,6.881771982E-2
7.915256250E-1,-1.043933392E0,-4.804527462E-1,9.569576383E-2
7.939161460E-1,-1.091580868E0,-4.499094784E-1,1.225738227E-1
7.963074480E-1,-1.142893553E0,-4.254749119E-1,1.518953294E-1
7.986995840E-1,-1.189319253E0,-4.034837782E-1,1.775516421E-1
8.010908860E-1,-1.236966610E0,-3.949316740E-1,2.032079548E-1
8.034814070E-1,-1.287057519E0,-3.912664950E-1,2.276425511E-1
8.058727090E-1,-1.343257070E0,-3.912664950E-1,2.471902221E-1
8.082648440E-1,-1.403121829E0,-3.973751366E-1,2.655161619E-1
8.106560940E-1,-1.471538663E0,-4.059272408E-1,2.789551914E-1
8.130466670E-1,-1.543620706E0,-4.193662703E-1,2.862855792E-1
8.154379690E-1,-1.624254942E0,-4.315835536E-1,2.923942208E-1
8.178301050E-1,-1.712219477E0,-4.364704788E-1,2.997246087E-1
8.202213550E-1,-1.801405668E0,-4.352487326E-1,3.107201755E-1
8.226119270E-1,-1.895478845E0,-4.376921952E-1,3.204939961E-1
8.250032300E-1,-1.989552021E0,-4.364704788E-1,3.339330256E-1
8.273953650E-1,-2.081181765E0,-4.352487326E-1,3.534806967E-1
8.297866150E-1,-2.170368195E0,-4.291400909E-1,3.742500842E-1
8.321771360E-1,-2.252223969E0,-4.242531657E-1,3.974629641E-1
8.345684900E-1,-2.331636429E0,-4.132575989E-1,4.243409932E-1
8.369606250E-1,-2.402496576E0,-4.047054946E-1,4.548842311E-1
8.393518750E-1,-2.472135305E0,-3.937099278E-1,4.890926480E-1
8.417423960E-1,-2.529556513E0,-3.839361072E-1,5.294097662E-1
8.441337500E-1,-2.574760437E0,-3.753840029E-1,5.672833323E-1
8.465258860E-1,-2.608968973E0,-3.643884361E-1,6.027135253E-1
8.489171360E-1,-2.630959988E0,-3.533928692E-1,6.454740167E-1
8.513076570E-1,-2.638290405E0,-3.423973024E-1,6.796824336E-1
8.536989590E-1,-2.635847092E0,-3.289582729E-1,7.163343430E-1
8.560911460E-1,-2.626073122E0,-3.228496313E-1,7.468775511E-1
8.584823960E-1,-2.611412525E0,-3.155192435E-1,7.725338936E-1
8.608729170E-1,-2.591864824E0,-3.142975271E-1,7.908598185E-1
8.632642190E-1,-2.573538780E0,-3.094106019E-1,8.030771017E-1
8.656563550E-1,-2.558877945E0,-3.033019602E-1,8.165161610E-1
8.680476050E-1,-2.544217348E0,-3.008584976E-1,8.226248026E-1
8.704381770E-1,-2.532000065E0,-3.081888855E-1,8.250682354E-1
8.728294800E-1,-2.518560886E0,-3.216279149E-1,8.250682354E-1
8.752216150E-1,-2.507565498E0,-3.423973024E-1,8.250682354E-1
8.776128650E-1,-2.491683006E0,-3.607232571E-1,8.189595938E-1
8.800034380E-1,-2.477022171E0,-3.839361072E-1,8.091858029E-1
8.823947400E-1,-2.455031157E0,-4.120358825E-1,7.969684601E-1
8.847868750E-1,-2.426931143E0,-4.315835536E-1,7.859728932E-1
8.871781250E-1,-2.393944502E0,-4.523529708E-1,7.713121772E-1
8.895686980E-1,-2.352405787E0,-4.621267617E-1,7.603166103E-1
8.919600000E-1,-2.315753937E0,-4.596833289E-1,7.566514015E-1
8.943521360E-1,-2.266884804E0,-4.535746872E-1,7.419906855E-1
8.967433860E-1,-2.215572119E0,-4.303618371E-1,7.163343430E-1
8.991339070E-1,-2.156929016E0,-4.095924199E-1,6.894562840E-1
9.015252610E-1,-2.093399048E0,-3.998185992E-1,6.625782251E-1
9.039173960E-1,-2.029869080E0,-3.998185992E-1,6.357002258E-1
9.063086460E-1,-1.970004320E0,-4.034837782E-1,6.039352417E-1
9.086991670E-1,-1.911361337E0,-4.120358825E-1,5.721702576E-1
9.110904690E-1,-1.853940010E0,-4.144793451E-1,5.404052734E-1
9.134826570E-1,-1.807514310E0,-4.181445241E-1,5.098620653E-1
9.158739070E-1,-1.768419027E0,-4.193662703E-1,4.793188572E-1
9.182644270E-1,-1.737875700E0,-4.205879867E-1,4.499973357E-1
9.206557300E-1,-1.718328118E0,-4.291400909E-1,4.231192768E-1
9.230478650E-1,-1.703667283E0,-4.401356578E-1,3.962412179E-1
9.254391670E-1,-1.695115209E0,-4.535746872E-1,3.730283678E-1
9.278296880E-1,-1.691450000E0,-4.841178954E-1,3.522589803E-1
9.302209900E-1,-1.691450000E0,-5.195481181E-1,3.327113092E-1
9.326131250E-1,-1.696336985E0,-5.623086095E-1,3.156070709E-1
9.350043750E-1,-1.702445626E0,-6.136212945E-1,3.009463251E-1
9.373949480E-1,-1.710997701E0,-6.673773527E-1,2.887290418E-1
9.397862500E-1,-1.718328118E0,-7.309073210E-1,2.728465497E-1
9.421783860E-1,-1.731767058E0,-7.919937372E-1,2.581858039E-1
9.445696360E-1,-1.746427894E0,-8.518584967E-1,2.520771623E-1
9.469602090E-1,-1.768419027E0,-9.068363309E-1,2.484119385E-1
9.493515110E-1,-1.785523176E0,-9.508185983E-1,2.423032969E-1
9.517436460E-1,-1.801405668E0,-9.874705076E-1,2.423032969E-1
9.541348960E-1,-1.813622952E0,-1.015570164E0,2.459685057E-1
9.565254170E-1,-1.820953369E0,-1.032674313E0,2.508554161E-1
9.589167710E-1,-1.829505444E0,-1.038782954E0,2.606292665E-1
9.613089070E-1,-1.830727220E0,-1.030230880E0,2.716248333E-1
9.637001570E-1,-1.829505444E0,-1.007017970E0,2.826204002E-1
9.660906770E-1,-1.824618578E0,-9.850270748E-1,3.009463251E-1
9.684819800E-1,-1.813622952E0,-9.593707323E-1,3.241592050E-1
9.708741670E-1,-1.802627444E0,-9.434882402E-1,3.485937715E-1
9.732654170E-1,-1.791631818E0,-9.434882402E-1,3.718066514E-1
9.756559380E-1,-1.772084117E0,-9.520403147E-1,3.913543224E-1
9.780472400E-1,-1.750092983E0,-9.557055235E-1,4.109019935E-1
9.804393750E-1,-1.723214984E0,-9.532620907E-1,4.280062020E-1
9.828306770E-1,-1.695115209E0,-9.422664642E-1,4.463321269E-1
9.852211980E-1,-1.663350224E0,-9.214971066E-1,4.634363651E-1
9.876125000E-1,-1.627920032E0,-8.848451972E-1,4.805405736E-1
9.900046360E-1,-1.591268182E0,-8.298673630E-1,4.952012897E-1
9.923958860E-1,-1.559503198E0,-7.638939619E-1,5.061968565E-1
9.947864590E-1,-1.533846974E0,-6.918119788E-1,5.061968565E-1
9.971777610E-1,-1.513077497E0,-6.050691605E-1,5.025317073E-1
9.995698960E-1,-1.494751573E0,-4.987786710E-1,4.952012897E-1
1.001961146E0,-1.469095230E0,-3.643884361E-1,4.927578568E-1
1.004351667E0,-1.438552022E0,-2.116722614E-1,4.964230657E-1
1.006743021E0,-1.412895679E0,-4.063014314E-2,5.074186325E-1
1.009135157E0,-1.393347979E0,1.291902512E-1,5.220793486E-1
1.011526407E0,-1.381130695E0,2.892368138E-1,5.355184078E-1
1.013916927E0,-1.376243830E0,4.187401533E-1,5.501791239E-1
1.016308282E0,-1.381130695E0,5.054829121E-1,5.599529743E-1
1.018700417E0,-1.399456739E0,5.348044038E-1,5.697268248E-1
1.021091667E0,-1.420226097E0,5.262523293E-1,5.795006156E-1
1.023482188E0,-1.439773798E0,5.262523293E-1,5.856093168E-1
1.025873490E0,-1.450769305E0,5.323609710E-1,5.868310332E-1
1.028265625E0,-1.456877947E0,5.482434630E-1,5.843875408E-1
1.030656927E0,-1.461764932E0,5.812301040E-1,5.819441080E-1
1.033047448E0,-1.465430021E0,6.276558638E-1,5.819441080E-1
1.035438750E0,-1.462986588E0,6.850771308E-1,5.758354664E-1
1.037830886E0,-1.454434514E0,7.351680398E-1,5.685050488E-1
1.040222136E0,-1.447104096E0,7.669330239E-1,5.623964071E-1
1.042612709E0,-1.438552022E0,7.815937400E-1,5.611746907E-1
1.045004011E0,-1.429999948E0,7.913675904E-1,5.672833323E-1
1.047396146E0,-1.421447754E0,7.962545156E-1,5.770571828E-1
1.049787396E0,-1.415339112E0,8.048065901E-1,5.880527496E-1
1.052177969E0,-1.412895679E0,8.084717989E-1,5.978266001E-1
1.054569271E0,-1.415339112E0,8.109152317E-1,6.076004505E-1
1.056961407E0,-1.417782664E0,8.133587241E-1,6.149308085E-1
1.059352657E0,-1.426334739E0,8.170239329E-1,6.124873161E-1
1.061743177E0,-1.434886813E0,8.133587241E-1,6.100438833E-1
1.064134532E0,-1.443438888E0,8.158021569E-1,6.027135253E-1
1.066526667E0,-1.451991081E0,8.121370077E-1,5.953831077E-1
1.068917917E0,-1.455656290E0,8.096935153E-1,5.892744660E-1
1.071308438E0,-1.454434514E0,8.145804405E-1,5.770571828E-1
1.073699740E0,-1.449547648E0,8.267977238E-1,5.672833323E-1
1.076091927E0,-1.440995455E0,8.487888575E-1,5.550660491E-1
1.078483177E0,-1.429999948E0,8.927711248E-1,5.465139747E-1
1.080873698E0,-1.420226097E0,9.440837502E-1,5.367401242E-1
1.083265000E0,-1.410452247E0,1.003948569E0,5.281879902E-1
1.085657136E0,-1.397013187E0,1.061369896E0,5.220793486E-1
1.088048438E0,-1.382352471E0,1.116347790E0,5.135272741E-1
1.090438959E0,-1.359139562E0,1.165216923E0,5.061968565E-1
1.092830261E0,-1.337148428E0,1.216529608E0,5.025317073E-1
1.095222396E0,-1.312713861E0,1.258068323E0,5.037534237E-1
1.097613646E0,-1.287057519E0,1.305715799E0,5.037534237E-1
1.100004219E0,-1.257736087E0,1.350919843E0,5.025317073E-1
1.102395521E0,-1.227192879E0,1.394902110E0,5.025317073E-1
1.104787657E0,-1.195427895E0,1.441327810E0,5.013099313E-1
1.107178907E0,-1.159997702E0,1.486531734E0,5.013099313E-1
1.109569480E0,-1.120902419E0,1.541509628E0,5.025317073E-1
1.111960782E0,-1.083028793E0,1.590378761E0,5.049751401E-1
1.114352917E0,-1.043933392E0,1.635582805E0,5.086403489E-1
1.116744167E0,-1.003616333E0,1.684451938E0,5.098620653E-1
1.119134688E0,-9.632992744E-1,1.730877638E0,5.147489905E-1
1.121525990E0,-9.217604399E-1,1.778525114E0,5.184141994E-1
1.123918177E0,-8.789999485E-1,1.826172590E0,5.196359158E-1
1.126309427E0,-8.337959647E-1,1.877485156E0,5.233010650E-1
1.128699948E0,-7.873702049E-1,1.925132632E0,5.269662738E-1
1.131091250E0,-7.385010719E-1,1.971558332E0,5.294097662E-1
1.133483386E0,-6.896318793E-1,2.017983913E0,5.318531990E-1
1.135874688E0,-6.395409703E-1,2.064409733E0,5.342966318E-1
1.138265209E0,-5.870066285E-1,2.108392000E0,5.330749154E-1
1.140656511E0,-5.356939435E-1,2.154817581E0,5.306314826E-1
1.143048646E0,-4.807161689E-1,2.206130266E0,5.257445574E-1
1.145439896E0,-4.245166183E-1,2.250112534E0,5.220793486E-1
1.147830469E0,-3.622084260E-1,2.286764383E0,5.184141994E-1
1.150221771E0,-3.023436666E-1,2.319751024E0,5.123054981E-1
1.152613907E0,-2.375920117E-1,2.345407486E0,5.037534237E-1
1.155005157E0,-1.679534316E-1,2.361289978E0,4.988664985E-1
1.157395677E0,-9.709313512E-2,2.373507261E0,4.903143644E-1
1.159787032E0,-1.768071577E-2,2.378394127E0,4.793188572E-1
1.162179167E0,6.173169985E-2,2.377172470E0,4.707667232E-1
1.164570417E0,1.448093057E-1,2.364955187E0,4.573276937E-1
1.166960938E0,2.291086316E-1,2.345407486E0,4.475538731E-1
1.169352292E0,3.146297038E-1,2.318529367E0,4.328930974E-1
1.171744427E0,3.977073133E-1,2.284321070E0,4.206758142E-1
1.174135677E0,4.820066392E-1,2.241560459E0,4.060150683E-1
1.176526198E0,5.614190698E-1,2.193912983E0,3.889108598E-1
1.178917500E0,6.420532465E-1,2.140156984E0,3.730283678E-1
1.181309636E0,7.178004384E-1,2.083957434E0,3.534806967E-1
1.183700938E0,7.923259139E-1,2.021649122E0,3.388199508E-1
1.186091459E0,8.595210314E-1,1.955675840E0,3.217157423E-1
1.188482761E0,9.267161489E-1,1.883593798E0,3.046115041E-1
1.190874896E0,9.816939831E-1,1.805403113E0,2.875072956E-1
1.193266146E0,1.033006668E0,1.723547220E0,2.716248333E-1
1.195656719E0,1.073323727E0,1.635582805E0,2.520771623E-1
1.198048021E0,1.103866935E0,1.550061703E0,2.337511927E-1
1.200440157E0,1.120971203E0,1.455988526E0,2.215339094E-1
1.202831407E0,1.129523277E0,1.358250141E0,2.044296861E-1
1.205221927E0,1.124636292E0,1.253181458E0,1.885472089E-1
1.207613282E0,1.101423502E0,1.142004013E0,1.738864481E-1
1.210005417E0,1.065993309E0,1.024718046E0,1.628908962E-1
1.212396667E0,1.013458967E0,9.013232589E-1,1.482301354E-1
1.214787188E0,9.425986409E-1,7.730416656E-1,1.360128373E-1
1.217178542E0,8.607428074E-1,6.398731470E-1,1.286824644E-1
1.219570625E0,7.568957806E-1,5.042611957E-1,1.225738227E-1
1.221961927E0,6.408314705E-1,3.674274981E-1,1.140217036E-1
1.224352448E0,5.162150860E-1,2.379241735E-1,1.030261517E-1
1.226743750E0,3.830465376E-1,1.181946844E-1,9.203058481E-2
1.229135886E0,2.510997653E-1,2.289979160E-2,7.736982405E-2
1.231527136E0,1.191529781E-1,-5.040397868E-2,6.026562303E-2
1.233917709E0,-6.685150322E-3,-9.438623488E-2,4.682660103E-2
1.236309011E0,-1.251929104E-1,-1.090469956E-1,3.216584772E-2
1.238701146E0,-2.351485491E-1,-9.805142879E-2,1.872682199E-2
1.241092396E0,-3.353303671E-1,-6.262126565E-2,7.731258869E-3
1.243482969E0,-4.208514392E-1,-1.375208981E-2,-8.208492072E-4
1.245874271E0,-5.002638102E-1,5.222129822E-2,-8.151225746E-3
1.248266407E0,-5.674589276E-1,1.218598783E-1,-1.303814352E-2
1.250657657E0,-6.248801947E-1,1.988288313E-1,-1.059468463E-2
1.253048177E0,-6.798580289E-1,2.745760679E-1,-8.208492072E-4
1.255439532E0,-7.311706543E-1,3.527667522E-1,1.139644533E-2
1.257831667E0,-7.788181305E-1,4.114097655E-1,3.216584772E-2
1.260222917E0,-8.215786815E-1,4.566137493E-1,5.660043657E-2
1.262613438E0,-8.570088148E-1,4.786048830E-1,8.958712220E-2
1.265004740E0,-8.887737989E-1,4.712744951E-1,1.262390018E-1
1.267396927E0,-9.083214402E-1,4.468399286E-1,1.628908962E-1
1.269788177E0,-9.193170071E-1,4.101880491E-1,2.019862384E-1
1.272178698E0,-9.229822159E-1,3.625405729E-1,2.361946553E-1
1.274570000E0,-9.205387235E-1,2.990106642E-1,2.655161619E-1
1.276962136E0,-9.058780074E-1,2.342589796E-1,2.936159670E-1
1.279353386E0,-8.863303065E-1,1.707290560E-1,3.180505335E-1
1.281743959E0,-8.582305312E-1,1.145294905E-1,3.375982046E-1
1.284135261E0,-8.240221143E-1,6.932550669E-2,3.522589803E-1
1.286527396E0,-7.885919809E-1,3.756054491E-2,3.608110845E-1
1.288918646E0,-7.507183552E-1,2.289979160E-2,3.632545471E-1
1.291309219E0,-7.104012966E-1,1.923460327E-2,3.595893383E-1
1.293700521E0,-6.713059545E-1,2.534325048E-2,3.510372341E-1
1.296092657E0,-6.309888363E-1,4.000400007E-2,3.327113092E-1
1.298483907E0,-5.894500613E-1,6.566032022E-2,3.082767129E-1
1.300874427E0,-5.515764356E-1,1.010904759E-1,2.777334750E-1
1.303265782E0,-5.137028098E-1,1.426292807E-1,2.459685057E-1
1.305657917E0,-4.746075273E-1,1.866115332E-1,2.068731487E-1
1.308049167E0,-4.330687225E-1,2.379241735E-1,1.628908962E-1
1.310439688E0,-3.927516639E-1,2.904585600E-1,1.176868975E-1
1.312830990E0,-3.512128592E-1,3.466581106E-1,6.881771982E-2
1.315223177E0,-3.060088456E-1,3.979707360E-1,2.117028087E-2
1.317614427E0,-2.608048618E-1,4.480616450E-1,-2.403370850E-2
1.320004948E0,-2.131574154E-1,4.981525540E-1,-7.045942545E-2
1.322396250E0,-1.630665213E-1,5.445782542E-1,-1.181068867E-1
1.324788386E0,-1.105321571E-1,5.848953128E-1,-1.620891392E-1
1.327179636E0,-6.044124439E-2,6.178820133E-1,-2.011844814E-1
1.329570209E0,-1.279379800E-2,6.423165798E-1,-2.427232862E-1
1.331961511E0,3.241019323E-2,6.533121467E-1,-2.757099569E-1
1.334353646E0,7.517071813E-2,6.508687139E-1,-3.074749410E-1
1.336744896E0,1.142660603E-1,6.386514306E-1,-3.355747163E-1
1.339135417E0,1.521396786E-1,6.068864465E-1,-3.600093126E-1
1.341526771E0,1.863481104E-1,5.543521047E-1,-3.746700585E-1
1.343918907E0,2.181130648E-1,4.957090914E-1,-3.844438791E-1
1.346310157E0,2.510997653E-1,4.248487949E-1,-3.905525208E-1
1.348700677E0,2.804212868E-1,3.515450060E-1,-3.856656253E-1
1.351091980E0,3.097427785E-1,2.806847095E-1,-3.746700585E-1
1.353484167E0,3.439511955E-1,2.073809355E-1,-3.636744916E-1
1.355875417E0,3.781596124E-1,1.340771616E-1,-3.465702832E-1
1.358265938E0,4.160332382E-1,6.199513376E-2,-3.258008659E-1
1.360657240E0,4.649024308E-1,-1.375208981E-2,-2.977010906E-1
1.363049375E0,5.223237276E-1,-9.805142879E-2,-2.696013153E-1
1.365440677E0,5.992926955E-1,-1.909028739E-1,-2.366146445E-1
1.367831198E0,6.921440959E-1,-2.910846770E-1,-2.024062127E-1
1.370222500E0,8.045432568E-1,-3.851578236E-1,-1.657543331E-1
1.372614636E0,9.303813577E-1,-4.719006121E-1,-1.303241700E-1
1.375005886E0,1.064771652E0,-5.452044010E-1,-9.978093207E-2
1.377396459E0,1.197940111E0,-6.062908769E-1,-6.801597029E-2
1.379787761E0,1.316447854E0,-6.612687111E-1,-4.358137771E-2
1.382179896E0,1.423960090E0,-7.076944113E-1,-2.403370850E-2
1.384571146E0,1.525363564E0,-7.553418875E-1,-2.042576671E-3
1.386961667E0,1.625545382E0,-7.956589460E-1,2.117028087E-2
1.389353021E0,1.722061992E0,-8.152066469E-1,4.438313842E-2
1.391745157E0,1.810026526E0,-8.164283633E-1,6.270908564E-2
1.394136407E0,1.885773778E0,-7.993241549E-1,7.859155536E-2
1.396526927E0,1.941973329E0,-7.761113048E-1,8.836539090E-2
1.398918230E0,1.971294880E0,-7.431246042E-1,9.325231612E-2
1.401310365E0,1.971294880E0,-7.186899781E-1,8.470021188E-2
1.403701667E0,1.944416761E0,-6.918119788E-1,6.759598851E-2
1.406092188E0,1.895547628E0,-6.685990691E-1,4.193968326E-2
1.408483490E0,1.827130795E0,-6.343906522E-1,1.506163180E-2
1.410875625E0,1.746496677E0,-5.904083848E-1,-8.151225746E-3
1.413266875E0,1.651201725E0,-5.378740430E-1,-2.036852017E-2
1.415657448E0,1.551019907E0,-4.816744626E-1,-3.014235571E-2
1.418048750E0,1.445951223E0,-4.230314493E-1,-3.502927348E-2
1.420440886E0,1.337217212E0,-3.766057193E-1,-3.625100479E-2
1.422832136E0,1.228483319E0,-3.485059440E-1,-3.380754218E-2
1.425222657E0,1.124636292E0,-3.472842276E-1,-3.502927348E-2
1.427614011E0,1.028119683E0,-3.827143610E-1,-3.502927348E-2
1.430006146E0,9.438204169E-1,-4.486877620E-1,-3.625100479E-2
1.432397396E0,8.790687323E-1,-5.378740430E-1,-3.747273237E-2
1.434787917E0,8.363081813E-1,-6.417210698E-1,-3.625100479E-2
1.437179219E0,8.179822564E-1,-7.492332458E-1,-3.991619125E-2
1.439571355E0,8.253126144E-1,-8.567454219E-1,-4.358137771E-2
1.441962657E0,8.570775986E-1,-9.520403147E-1,-5.579867586E-2
1.444353177E0,9.108337164E-1,-1.035117865E0,-6.801597029E-2
1.446744480E0,9.865809083E-1,-1.103534698E0,-9.000709653E-2
1.449136615E0,1.083097577E0,-1.147516966E0,-1.132199615E-1
1.451527865E0,1.199161887E0,-1.169508100E0,-1.376545578E-1
1.453918438E0,1.326221704E0,-1.158512473E0,-1.669760644E-1
1.456309740E0,1.454503298E0,-1.120638847E0,-1.987410337E-1
1.458701875E0,1.581563115E0,-1.055887222E0,-2.329494506E-1
1.461093125E0,1.693962216E0,-9.850270748E-1,-2.671578526E-1
1.463483646E0,1.795365810E0,-9.117232561E-1,-3.038097322E-1
1.465875000E0,1.883330345E0,-8.310891390E-1,-3.367964327E-1
1.468267136E0,1.952968955E0,-7.455680370E-1,-3.673396707E-1
1.470658386E0,2.009168386E0,-6.588252783E-1,-3.942177296E-1
1.473048907E0,2.047041893E0,-5.696390271E-1,-4.149871171E-1
1.475440209E0,2.075141668E0,-4.706788957E-1,-4.284261465E-1
1.477832344E0,2.089802504E0,-3.729405403E-1,-4.394217134E-1
1.480223646E0,2.095911026E0,-2.739804685E-1,-4.455303550E-1
1.482614167E0,2.092246056E0,-1.737986505E-1,-4.467521012E-1
1.485005469E0,2.083693743E0,-7.117338479E-2,-4.443086386E-1
1.487397605E0,2.070254803E0,3.511708602E-2,-4.394217134E-1
1.489788855E0,2.055593967E0,1.401858181E-1,-4.296478629E-1
1.492179427E0,2.034824610E0,2.367024422E-1,-4.137654006E-1
1.494570730E0,2.016498804E0,3.295539021E-1,-3.929959834E-1
1.496962865E0,1.999394536E0,4.162966907E-1,-3.661179543E-1
1.499354115E0,1.977403522E0,4.896004498E-1,-3.319095075E-1
1.501744636E0,1.957855821E0,5.470216870E-1,-2.940359116E-1
1.504135990E0,1.940751672E0,5.751214623E-1,-2.512753606E-1
1.506528125E0,1.919982195E0,5.873387456E-1,-2.109583169E-1
1.508919375E0,1.902878046E0,5.897822380E-1,-1.706412435E-1
1.511309896E0,1.890660763E0,5.848953128E-1,-1.242155284E-1
1.513701198E0,1.878443360E0,5.677911043E-1,-7.778981328E-2
1.516093386E0,1.875999928E0,5.421348214E-1,-3.136408702E-2
1.518484636E0,1.878443360E0,5.115915537E-1,1.628336310E-2
1.520875157E0,1.888217211E0,4.859352708E-1,6.148735434E-2
1.523266459E0,1.907764912E0,4.578354955E-1,1.030261517E-1
1.525658594E0,1.930977821E0,4.272922575E-1,1.421214938E-1
1.528049844E0,1.961521029E0,3.906403482E-1,1.775516421E-1
1.530440417E0,1.995729446E0,3.429929018E-1,2.093166113E-1
1.532831719E0,2.025050879E0,2.782412469E-1,2.361946553E-1
1.535223855E0,2.055593967E0,2.086026669E-1,2.618509829E-1
1.537615105E0,2.080028534E0,1.438509971E-1,2.826204002E-1
1.540005677E0,2.104463339E0,9.131664038E-2,3.033897877E-1
1.542396980E0,2.127676010E0,3.267362714E-2,3.204939961E-1
1.544789115E0,2.139893293E0,-3.085630573E-2,3.363764882E-1
1.547180365E0,2.148445606E0,-8.949932456E-2,3.498155177E-1
1.549570886E0,2.147223711E0,-1.395902336E-1,3.620328009E-1
1.551962188E0,2.141115189E0,-1.762421131E-1,3.718066514E-1
1.554354323E0,2.131341219E0,-2.165591866E-1,3.779152930E-1
1.556745625E0,2.113015413E0,-2.495458871E-1,3.791370094E-1
1.559136146E0,2.087358952E0,-2.800891101E-1,3.742500842E-1
1.561527448E0,2.054372311E0,-3.020802438E-1,3.681414425E-1
1.563919584E0,2.016498804E0,-3.118540645E-1,3.571458757E-1
1.566310834E0,1.983512163E0,-3.094106019E-1,3.400416672E-1
1.568701407E0,1.959077597E0,-2.800891101E-1,3.253809214E-1
1.571092709E0,1.941973329E0,-2.238895744E-1,3.070549667E-1
1.573484844E0,1.929756045E0,-1.347033083E-1,2.789551914E-1
1.575876094E0,1.924869180E0,-4.185187444E-2,2.508554161E-1
1.578266615E0,1.918760538E0,3.511708602E-2,2.227556258E-1
1.580657969E0,1.906543136E0,8.887317777E-2,1.897689402E-1
1.583050105E0,1.889438987E0,1.255250573E-1,1.543387771E-1
1.585441355E0,1.867447853E0,1.487379223E-1,1.164651662E-1
1.587831875E0,1.838126302E0,1.572900265E-1,8.103501797E-2
1.590223177E0,1.814913511E0,1.695073247E-1,4.682660103E-2
1.592615365E0,1.796587586E0,1.805028766E-1,1.994854957E-2
1.595006615E0,1.784370303E0,1.792811602E-1,-8.208492072E-4
1.597397136E0,1.781926751E0,1.670638621E-1,-2.036852017E-2
1.599788438E0,1.783148527E0,1.438509971E-1,-3.747273237E-2
1.602180573E0,1.789257169E0,1.133077741E-1,-5.579867586E-2
1.604571823E0,1.796587586E0,7.176896930E-2,-7.534635067E-2
1.606962396E0,1.799031019E0,2.412152104E-2,-9.978093207E-2
1.609353698E0,1.791700602E0,-2.596938796E-2,-1.229937971E-1
1.611745834E0,1.778261542E0,-7.728202641E-2,-1.462066621E-1
1.614137084E0,1.757492185E0,-1.273729354E-1,-1.706412435E-1
1.616527605E0,1.728170633E0,-1.811290234E-1,-1.975193024E-1
1.618918959E0,1.692740560E0,-2.385503203E-1,-2.243973464E-1
1.621311094E0,1.653645158E0,-3.020802438E-1,-2.524971068E-1
1.623702344E0,1.616993308E0,-3.643884361E-1,-2.757099569E-1
1.626092865E0,1.577898026E0,-4.230314493E-1,-2.964793742E-1
1.628484167E0,1.540024400E0,-4.682354629E-1,-3.123618364E-1
1.630876302E0,1.502150774E0,-5.024439096E-1,-3.270226121E-1
1.633267605E0,1.464277148E0,-5.354306102E-1,-3.416833580E-1
1.635658125E0,1.430068731E0,-5.623086095E-1,-3.526789248E-1
1.638049427E0,1.398303747E0,-5.940735936E-1,-3.624527454E-1
1.640441563E0,1.368982196E0,-6.295037270E-1,-3.734483123E-1
1.642832813E0,1.343325973E0,-6.649339199E-1,-3.856656253E-1
1.645223386E0,1.320113063E0,-7.003640532E-1,-3.917742670E-1
1.647614688E0,1.300565362E0,-7.260203958E-1,-3.978829086E-1
1.650006823E0,1.282239437E0,-7.492332458E-1,-4.064350128E-1
1.652398073E0,1.263913512E0,-7.663374543E-1,-4.149871171E-1
1.654788594E0,1.245587587E0,-7.797764540E-1,-4.198740423E-1
1.657179948E0,1.227261662E0,-7.834416628E-1,-4.235392213E-1
1.659572084E0,1.208935618E0,-7.761113048E-1,-4.357565343E-1
1.661963334E0,1.190609694E0,-7.700026631E-1,-4.467521012E-1
1.664353855E0,1.175948977E0,-7.553418875E-1,-4.601911008E-1
1.666745157E0,1.160066485E0,-7.272421122E-1,-4.748518765E-1
1.669137292E0,1.144183993E0,-6.930336952E-1,-4.895126224E-1
1.671528594E0,1.134410143E0,-6.514948606E-1,-5.041733384E-1
1.673919115E0,1.125858068E0,-6.087343693E-1,-5.200558305E-1
1.676310417E0,1.118527651E0,-5.708607435E-1,-5.249427557E-1
1.678702552E0,1.114862561E0,-5.293219090E-1,-5.322731137E-1
1.681093802E0,1.111197352E0,-4.816744626E-1,-5.383818150E-1
1.683484375E0,1.109975576E0,-4.425791204E-1,-5.383818150E-1
1.685875677E0,1.107532144E0,-3.998185992E-1,-5.359383225E-1
1.688267813E0,1.107532144E0,-3.546145856E-1,-5.347166061E-1
1.690659063E0,1.109975576E0,-3.142975271E-1,-5.322731137E-1
1.693049584E0,1.114862561E0,-2.764239013E-1,-5.298296809E-1
1.695440886E0,1.119749427E0,-2.434372455E-1,-5.298296809E-1
1.697833073E0,1.127079844E0,-2.238895744E-1,-5.286079645E-1
1.700224323E0,1.138075352E0,-2.128940076E-1,-5.286079645E-1
1.702614844E0,1.151514411E0,-2.116722614E-1,-5.298296809E-1
1.705006146E0,1.163731694E0,-2.165591866E-1,-5.298296809E-1
1.707398282E0,1.178392410E0,-2.275547534E-1,-5.286079645E-1
1.709789532E0,1.190609694E0,-2.409937829E-1,-5.249427557E-1
1.712180105E0,1.201605320E0,-2.642066181E-1,-5.224993229E-1
1.714571407E0,1.210157394E0,-2.935281098E-1,-5.212775469E-1
1.716963542E0,1.219931245E0,-3.277365565E-1,-5.212775469E-1
1.719354792E0,1.222374678E0,-3.668318987E-1,-5.200558305E-1
1.721745365E0,1.222374678E0,-4.095924199E-1,-5.249427557E-1
1.724136667E0,1.211379170E0,-4.547964036E-1,-5.310513973E-1
1.726528802E0,1.190609694E0,-4.938917458E-1,-5.347166061E-1
1.728920052E0,1.161288261E0,-5.268784761E-1,-5.359383225E-1
1.731310573E0,1.124636292E0,-5.598651767E-1,-5.383818150E-1
1.733701875E0,1.076988935E0,-5.891866684E-1,-5.383818150E-1
1.736094063E0,1.023232818E0,-6.221733689E-1,-5.347166061E-1
1.738485313E0,9.658114910E-1,-6.417210698E-1,-5.334948897E-1
1.740875834E0,9.083902240E-1,-6.673773527E-1,-5.298296809E-1
1.743267136E0,8.509689569E-1,-6.844815612E-1,-5.261644721E-1
1.745659271E0,7.959911227E-1,-6.881467700E-1,-5.176123977E-1
1.748050521E0,7.434567809E-1,-6.869250536E-1,-5.102819800E-1
1.750441094E0,6.945875883E-1,-6.710425615E-1,-5.017299056E-1
1.752832396E0,6.493836045E-1,-6.417210698E-1,-4.870691597E-1
1.755224532E0,6.041796207E-1,-6.148430109E-1,-4.699649513E-1
1.757615782E0,5.601973534E-1,-5.855215192E-1,-4.479738176E-1
1.760006355E0,5.211020112E-1,-5.549782515E-1,-4.223175049E-1
1.762397657E0,4.844501019E-1,-5.329871178E-1,-3.929959834E-1
1.764789792E0,4.453547597E-1,-5.171046257E-1,-3.612310290E-1
1.767181042E0,4.087028503E-1,-5.061090589E-1,-3.245791495E-1
1.769571563E0,3.720509708E-1,-5.036656260E-1,-2.867055237E-1
1.771962865E0,3.341773748E-1,-5.024439096E-1,-2.488319129E-1
1.774355052E0,2.963037491E-1,-5.061090589E-1,-2.146235108E-1
1.776746302E0,2.559866905E-1,-5.122177005E-1,-1.779716313E-1
1.779136823E0,2.132261544E-1,-5.256567597E-1,-1.474283934E-1
1.781528125E0,1.704656184E-1,-5.439826846E-1,-1.205503345E-1
1.783920261E0,1.228181645E-1,-5.635303855E-1,-9.733748436E-2
1.786311511E0,7.150553167E-2,-5.830780268E-1,-8.023326099E-2
1.788702084E0,2.019289695E-2,-5.989605188E-1,-6.801597029E-2
1.791093386E0,-2.989801019E-2,-6.136212945E-1,-6.312905252E-2
1.793485521E0,-8.243238181E-2,-6.233950853E-1,-6.068559363E-2
1.795876771E0,-1.349667311E-1,-6.221733689E-1,-6.312905252E-2
1.798267292E0,-1.850576401E-1,-6.172864437E-1,-6.801597029E-2
1.800658646E0,-2.375920117E-1,-6.038474441E-1,-8.023326099E-2
1.803050782E0,-2.876829207E-1,-5.916301608E-1,-9.122882783E-2
1.805442032E0,-3.365520835E-1,-5.830780268E-1,-9.978093207E-2
1.807832552E0,-3.817560971E-1,-5.855215192E-1,-1.046678573E-1
1.810223855E0,-4.245166183E-1,-5.965170860E-1,-1.095547676E-1
1.812615990E0,-4.636119604E-1,-6.185081601E-1,-1.071113199E-1
1.815007240E0,-5.014855266E-1,-6.576035023E-1,-1.022243947E-1
1.817397813E0,-5.344722271E-1,-7.064726949E-1,-9.367229044E-2
1.819789115E0,-5.735675693E-1,-7.553418875E-1,-8.389845490E-2
1.822181250E0,-6.138846278E-1,-7.993241549E-1,-7.168115675E-2
1.824572500E0,-6.529799700E-1,-8.323108554E-1,-5.946386233E-2
1.826963021E0,-6.981839538E-1,-8.494150639E-1,-4.846829548E-2
1.829354375E0,-7.482748628E-1,-8.469715714E-1,-4.113792256E-2
1.831746511E0,-8.044744730E-1,-8.347542882E-1,-3.625100479E-2
1.834137761E0,-8.643391728E-1,-8.042110801E-1,-3.258581460E-2
1.836528282E0,-9.278691411E-1,-7.626722455E-1,-2.892062627E-2
1.838919584E0,-9.987294078E-1,-7.064726949E-1,-2.647716738E-2
1.841311771E0,-1.072033167E0,-6.404992938E-1,-2.281197906E-2
1.843703021E0,-1.152667284E0,-5.708607435E-1,-1.914679073E-2
1.846093542E0,-1.235744953E0,-5.012221336E-1,-1.548160240E-2
1.848484844E0,-1.324931145E0,-4.364704788E-1,-8.151225746E-3
1.850876980E0,-1.419004321E0,-3.741622567E-1,5.287796259E-3
1.853268230E0,-1.514299273E0,-3.142975271E-1,2.361373976E-2
1.855658802E0,-1.608372450E0,-2.580979764E-1,4.927005619E-2
1.858050105E0,-1.698780417E0,-2.055636197E-1,8.225674927E-2
1.860442240E0,-1.785523176E0,-1.530292481E-1,1.262390018E-1
1.862833490E0,-1.869822502E0,-1.041600704E-1,1.751081795E-1
1.865224011E0,-1.948013186E0,-6.628645957E-2,2.337511927E-1
1.867615365E0,-2.024982214E0,-4.185187444E-2,2.985028625E-1
1.870007500E0,-2.099507809E0,-3.329976276E-2,3.693631887E-1
1.872398750E0,-2.172811508E0,-3.818668053E-2,4.402234852E-1
1.874789271E0,-2.244893551E0,-6.262126565E-2,5.098620653E-1
1.877180573E0,-2.316975594E0,-9.438623488E-2,5.758354664E-1
1.879572709E0,-2.387835979E0,-1.395902336E-1,6.357002258E-1
1.881964011E0,-2.456252813E0,-1.957897842E-1,6.918997765E-1
1.884354532E0,-2.518560886E0,-2.617631555E-1,7.407689095E-1
1.886745834E0,-2.579647541E0,-3.399538398E-1,7.810860276E-1
1.889137969E0,-2.634625196E0,-4.266966283E-1,8.201813698E-1
1.891529219E0,-2.681051016E0,-5.207698345E-1,8.568332195E-1
1.893919792E0,-2.720146418E0,-6.136212945E-1,8.910416365E-1
1.896311094E0,-2.751911402E0,-6.954771280E-1,9.240283370E-1
1.898703230E0,-2.770237207E0,-7.614505291E-1,9.570150375E-1
1.901094480E0,-2.784898043E0,-8.176500797E-1,9.863365889E-1
1.903485000E0,-2.792228460E0,-8.518584967E-1,1.016879797E0
1.905876355E0,-2.793450117E0,-8.714061975E-1,1.043757796E0
1.908268490E0,-2.792228460E0,-8.824017644E-1,1.066970706E0
1.910659740E0,-2.787341356E0,-8.775148392E-1,1.085296631E0
1.913050261E0,-2.778789282E0,-8.640757799E-1,1.098735690E0
1.915441563E0,-2.767793894E0,-8.530802131E-1,1.106065989E0
1.917833698E0,-2.751911402E0,-8.347542882E-1,1.107287765E0
1.920224948E0,-2.731141806E0,-8.176500797E-1,1.102400899E0
1.922615521E0,-2.705485582E0,-8.054327965E-1,1.087740064E0
1.925006823E0,-2.671277046E0,-7.981024384E-1,1.064527273E0
1.927398959E0,-2.628516674E0,-7.919937372E-1,1.037649155E0
1.929790209E0,-2.574760437E0,-7.871068716E-1,1.007105947E0
1.932180782E0,-2.513674021E0,-7.822199464E-1,9.716757536E-1
1.934572084E0,-2.450144053E0,-7.614505291E-1,9.362456203E-1
1.936964219E0,-2.382949114E0,-7.370159626E-1,9.069241285E-1
1.939355469E0,-2.325527668E0,-7.138030529E-1,8.873764873E-1
1.941745990E0,-2.270550013E0,-7.150248289E-1,8.629418612E-1
1.944137292E0,-2.211906910E0,-7.211334705E-1,8.348420858E-1
1.946529427E0,-2.152042150E0,-7.419028878E-1,8.091858029E-1
1.948920730E0,-2.086068630E0,-7.712243795E-1,7.835294604E-1
1.951311250E0,-2.031090975E0,-8.090980053E-1,7.529862523E-1
1.953702552E0,-1.978556395E0,-8.579671383E-1,7.199995518E-1
1.956094688E0,-1.932130694E0,-8.946190476E-1,6.833476424E-1
1.958485938E0,-1.895478845E0,-9.251622558E-1,6.479175091E-1
1.960876511E0,-1.868600845E0,-9.434882402E-1,6.076004505E-1
1.963267813E0,-1.852718353E0,-9.532620907E-1,5.697268248E-1
1.965659948E0,-1.842944503E0,-9.495968819E-1,5.281879902E-1
1.968051198E0,-1.841722727E0,-9.349361062E-1,4.878709316E-1
1.970441719E0,-1.844166160E0,-9.190536141E-1,4.475538731E-1
1.972833021E0,-1.849053144E0,-9.056146145E-1,4.072367847E-1
1.975225209E0,-1.855161786E0,-8.958407640E-1,3.693631887E-1
1.977616459E0,-1.863713861E0,-8.921755552E-1,3.314895630E-1
1.980006980E0,-1.873487711E0,-8.958407640E-1,2.997246087E-1
1.982398282E0,-1.886926770E0,-9.105015397E-1,2.765117288E-1
1.984790417E0,-1.897922277E0,-9.300491810E-1,2.581858039E-1
1.987181667E0,-1.913804770E0,-9.569272995E-1,2.410815805E-1
1.989572240E0,-1.929687262E0,-9.960225224E-1,2.325294763E-1
1.991963542E0,-1.943126321E0,-1.037561297E0,2.288642675E-1
1.994355677E0,-1.957787037E0,-1.079100013E0,2.251990885E-1
1.996746927E0,-1.965117455E0,-1.110864997E0,2.264208049E-1
1.999137448E0,-1.974891305E0,-1.136521339E0,2.325294763E-1
2.001528802E0,-1.978556395E0,-1.157290697E0,2.325294763E-1
2.003920938E0,-1.973669529E0,-1.167064548E0,2.349729389E-1
2.006312188E0,-1.968782544E0,-1.164621115E0,2.410815805E-1
2.008702709E0,-1.960230470E0,-1.145073414E0,2.447467595E-1
2.011094011E0,-1.949234962E0,-1.116973639E0,2.459685057E-1
2.013486146E0,-1.937017679E0,-1.077878356E0,2.508554161E-1
2.015877448E0,-1.928465486E0,-1.037561297E0,2.520771623E-1
2.018267969E0,-1.919913411E0,-9.874705076E-1,2.557423413E-1
2.020659271E0,-1.908917904E0,-9.312708974E-1,2.655161619E-1
2.023051407E0,-1.900365710E0,-8.689627051E-1,2.826204002E-1
2.025442657E0,-1.894257069E0,-8.115414381E-1,3.021680713E-1
2.027833230E0,-1.884483218E0,-7.419028878E-1,3.204939961E-1
2.030224532E0,-1.872265935E0,-6.514948606E-1,3.363764882E-1
2.032616667E0,-1.860048652E0,-5.598651767E-1,3.498155177E-1
2.035007917E0,-1.853940010E0,-4.816744626E-1,3.534806967E-1
2.037398438E0,-1.853940010E0,-4.059272408E-1,3.510372341E-1
2.039789740E0,-1.855161786E0,-3.314017355E-1,3.437068462E-1
2.042181927E0,-1.855161786E0,-2.434372455E-1,3.388199508E-1
2.044573177E0,-1.856383443E0,-1.298163980E-1,3.314895630E-1
2.046963698E0,-1.845387936E0,9.460767731E-3,3.266026378E-1
2.049355000E0,-1.828283668E0,1.707290560E-1,3.290461004E-1
2.051747136E0,-1.809957743E0,3.405494690E-1,3.375982046E-1
2.054138386E0,-1.792853594E0,5.005959868E-1,3.510372341E-1
2.056528959E0,-1.779414535E0,6.447600722E-1,3.693631887E-1
2.058920261E0,-1.770862460E0,7.828154564E-1,3.840239346E-1
2.061312396E0,-1.763532043E0,9.098753333E-1,3.913543224E-1
2.063703646E0,-1.758645177E0,1.027161479E0,3.925760388E-1
2.066094167E0,-1.754979968E0,1.115126014E0,3.913543224E-1
2.068485521E0,-1.746427894E0,1.183542848E0,3.913543224E-1
2.070877657E0,-1.740319252E0,1.215307832E0,3.925760388E-1
2.073268907E0,-1.741540909E0,1.222638249E0,3.925760388E-1
2.075659427E0,-1.741540909E0,1.216529608E0,3.937977552E-1
2.078050730E0,-1.741540909E0,1.212864399E0,3.962412179E-1
2.080442865E0,-1.735432267E0,1.211642623E0,3.925760388E-1
2.082834115E0,-1.729323626E0,1.207977414E0,3.852456510E-1
2.085224688E0,-1.719549775E0,1.201868773E0,3.779152930E-1
2.087615990E0,-1.714662910E0,1.194538474E0,3.644762635E-1
2.090008125E0,-1.712219477E0,1.187208056E0,3.522589803E-1
2.092399375E0,-1.713441133E0,1.171325564E0,3.351547420E-1
2.094789948E0,-1.718328118E0,1.151777864E0,3.180505335E-1
2.097181250E0,-1.725658417E0,1.128565073E0,3.009463251E-1
2.099573386E0,-1.734210491E0,1.112682581E0,2.838421166E-1
2.101964636E0,-1.743984342E0,1.100465298E0,2.704030871E-1
2.104355157E0,-1.748871326E0,1.091913104E0,2.581858039E-1
2.106746459E0,-1.751314759E0,1.087026238E0,2.435250431E-1
2.109138594E0,-1.750092983E0,1.090691447E0,2.300860137E-1
2.111529896E0,-1.746427894E0,1.099243522E0,2.178687006E-1
2.113920417E0,-1.737875700E0,1.110239148E0,2.129818052E-1
2.116311719E0,-1.725658417E0,1.113904238E0,2.080948800E-1
2.118703855E0,-1.708554268E0,1.122456431E0,2.056514174E-1
2.121095105E0,-1.693893433E0,1.137117147E0,2.056514174E-1
2.123485677E0,-1.670680642E0,1.151777864E0,2.093166113E-1
2.125876980E0,-1.643802524E0,1.166438699E0,2.154252678E-1
2.128269115E0,-1.610815883E0,1.178655982E0,2.203121632E-1
2.130660365E0,-1.575385690E0,1.189651489E0,2.300860137E-1
2.133050886E0,-1.537512064E0,1.201868773E0,2.410815805E-1
2.135442188E0,-1.495973349E0,1.212864399E0,2.520771623E-1
2.137834375E0,-1.449547648E0,1.229968548E0,2.655161619E-1
2.140225625E0,-1.400678396E0,1.245851040E0,2.789551914E-1
2.142616146E0,-1.351809263E0,1.256846666E0,2.948376834E-1
2.145007448E0,-1.298053145E0,1.275172591E0,3.107201755E-1
2.147399584E0,-1.246740460E0,1.288611650E0,3.266026378E-1
2.149790886E0,-1.189319253E0,1.305715799E0,3.412634134E-1
2.152181407E0,-1.129454494E0,1.325263500E0,3.583676219E-1
2.154572709E0,-1.067146301E0,1.341145992E0,3.742500842E-1
2.156964844E0,-9.999511242E-1,1.349698067E0,3.925760388E-1
2.159356094E0,-9.339777827E-1,1.360693574E0,4.084585309E-1
2.161746615E0,-8.655608892E-1,1.372910976E0,4.206758142E-1
2.164137969E0,-7.947006226E-1,1.383906484E0,4.280062020E-1
2.166530105E0,-7.250620127E-1,1.397345543E0,4.377800226E-1
2.168921355E0,-6.542017460E-1,1.416893125E0,4.438886642E-1
2.171311875E0,-5.833414197E-1,1.446214676E0,4.426669478E-1
2.173703177E0,-5.112593770E-1,1.477979660E0,4.390017688E-1
2.176095313E0,-4.416208267E-1,1.512188077E0,4.304496646E-1
2.178486563E0,-3.683170676E-1,1.551283479E0,4.182323515E-1
2.180877136E0,-2.974567413E-1,1.590378761E0,3.999064267E-1
2.183268438E0,-2.278181762E-1,1.630695820E0,3.803587556E-1
2.185660573E0,-1.594013274E-1,1.661239028E0,3.608110845E-1
2.188051823E0,-9.098448604E-2,1.690560579E0,3.375982046E-1
2.190442396E0,-2.134590410E-2,1.714995146E0,3.107201755E-1
2.192833698E0,4.707094654E-2,1.735764623E0,2.862855792E-1
2.195225834E0,1.167095229E-1,1.749203563E0,2.594075203E-1
2.197617084E0,1.887915581E-1,1.761420846E0,2.300860137E-1
2.200007605E0,2.620953321E-1,1.760199189E0,2.032079548E-1
2.202398907E0,3.366208375E-1,1.758977413E0,1.775516421E-1
2.204791094E0,4.135897756E-1,1.747981906E0,1.567822397E-1
2.207182344E0,4.930022061E-1,1.727212429E0,1.384562999E-1
2.209572865E0,5.724146366E-1,1.705221295E0,1.152434349E-1
2.211964167E0,6.493836045E-1,1.685673714E0,8.836539090E-2
2.214356302E0,7.239090800E-1,1.661239028E0,6.393080950E-2
2.216747552E0,7.947694063E-1,1.633139253E0,4.316141456E-2
2.219138125E0,8.619645238E-1,1.602596045E0,2.239201218E-2
2.221529427E0,9.242727160E-1,1.565944195E0,4.066068679E-3
2.223921563E0,9.829157591E-1,1.526848793E0,-1.181641407E-2
2.226312813E0,1.034228325E0,1.481644869E0,-2.769889683E-2
2.228703334E0,1.078210592E0,1.426666975E0,-4.113792256E-2
2.231094636E0,1.109975576E0,1.372910976E0,-5.946386233E-2
2.233486823E0,1.136853695E0,1.309381008E0,-7.534635067E-2
2.235878073E0,1.152736068E0,1.236077189E0,-9.122882783E-2
2.238268594E0,1.158844829E0,1.159108281E0,-1.046678573E-1
2.240659896E0,1.153957844E0,1.071143746E0,-1.156634241E-1
2.243052032E0,1.134410143E0,9.721835256E-1,-1.229937971E-1
2.245443282E0,1.106310368E0,8.683365583E-1,-1.327676326E-1
2.247833855E0,1.065993309E0,7.510505319E-1,-1.339893639E-1
2.250225157E0,1.011015534E0,6.227689385E-1,-1.327676326E-1
2.252617292E0,9.438204169E-1,4.798265994E-1,-1.303241700E-1
2.255008542E0,8.607428074E-1,3.246669769E-1,-1.242155284E-1
2.257399063E0,7.666696310E-1,1.731725037E-1,-1.132199615E-1
2.259790417E0,6.603791714E-1,1.801287383E-2,-1.010026634E-1
2.262182552E0,5.492017865E-1,-1.273729354E-1,-8.878537267E-2
2.264573802E0,4.355809093E-1,-2.507675886E-1,-7.412461936E-2
2.266964323E0,3.244035244E-1,-3.497276902E-1,-6.435078382E-2
2.269355625E0,2.229999900E-1,-4.218097031E-1,-5.213348567E-2
2.271747761E0,1.289268136E-1,-4.755658209E-1,-4.113792256E-2
2.274139063E0,4.951440170E-2,-5.073308349E-1,-3.136408702E-2
2.276529584E0,-1.768071577E-2,-5.219915509E-1,-2.403370850E-2
2.278920886E0,-6.899335235E-2,-5.171046257E-1,-1.792506129E-2
2.281313021E0,-1.068669707E-1,-5.000004172E-1,-1.548160240E-2
2.283704271E0,-1.374101937E-1,-4.694571793E-1,-1.548160240E-2
2.286094844E0,-1.594013274E-1,-4.254749119E-1,-1.914679073E-2
2.288486146E0,-1.801707298E-1,-3.741622567E-1,-2.525543794E-2
2.290878282E0,-2.009401321E-1,-3.228496313E-1,-2.892062627E-2
2.293269532E0,-2.217095345E-1,-2.678717971E-1,-2.647716738E-2
2.295660052E0,-2.437006533E-1,-2.067853361E-1,-2.403370850E-2
2.298051355E0,-2.669135034E-1,-1.383685023E-1,-1.914679073E-2
2.300443542E0,-2.937915623E-1,-7.850375772E-2,-1.059468463E-2
2.302834792E0,-3.194478750E-1,-2.841284312E-2,-2.042576671E-3
2.305225313E0,-3.402172923E-1,7.017308380E-3,1.017471403E-2
2.307616615E0,-3.585432172E-1,2.656497993E-2,2.483546734E-2
2.310008750E0,-3.719822466E-1,2.656497993E-2,3.827448934E-2
2.312400000E0,-3.805343509E-1,1.801287383E-2,5.293525010E-2
2.314790573E0,-3.854212761E-1,5.795580801E-3,6.515254080E-2
2.317181875E0,-3.878647387E-1,-1.253036223E-2,7.736982405E-2
2.319574011E0,-3.866429925E-1,-3.207803890E-2,8.592194319E-2
2.321965261E0,-3.805343509E-1,-6.384299695E-2,9.203058481E-2
2.324355782E0,-3.744257092E-1,-8.949932456E-2,9.813922644E-2
2.326747084E0,-3.707605302E-1,-1.053818017E-1,9.691749513E-2
2.329139219E0,-3.670953214E-1,-1.200425625E-1,9.080885351E-2
2.331530521E0,-3.622084260E-1,-1.285946667E-1,8.347848058E-2
2.333921042E0,-3.585432172E-1,-1.408119649E-1,7.248291373E-2
2.336312344E0,-3.512128592E-1,-1.493640691E-1,5.904389173E-2
2.338704480E0,-3.451041877E-1,-1.456988752E-1,3.949622065E-2
2.341095730E0,-3.365520835E-1,-1.347033083E-1,1.383990422E-2
2.343486302E0,-3.292217255E-1,-1.200425625E-1,-1.548160240E-2
2.345877605E0,-3.206696212E-1,-1.029383391E-1,-3.869445994E-2
2.348269740E0,-3.084523082E-1,-8.094722033E-2,-6.435078382E-2
2.350660990E0,-2.925698459E-1,-5.284743384E-2,-8.634191751E-2
2.353051511E0,-2.742438912E-1,-2.474765666E-2,-1.071113199E-1
2.355442865E0,-2.534745038E-1,4.573849496E-3,-1.217720658E-1
2.357835000E0,-2.278181762E-1,3.878227249E-2,-1.352110952E-1
2.360226250E0,-2.009401321E-1,8.642971516E-2,-1.498718411E-1
2.362616771E0,-1.728403568E-1,1.365206242E-1,-1.620891392E-1
2.365008073E0,-1.422971189E-1,1.890549958E-1,-1.718629748E-1
2.367400209E0,-1.105321571E-1,2.403676212E-1,-1.816368103E-1
2.369791511E0,-7.876718789E-2,2.892368138E-1,-1.877454668E-1
2.372182032E0,-4.822395369E-2,3.356625438E-1,-1.877454668E-1
2.374573334E0,-1.768071577E-2,3.759796023E-1,-1.865237355E-1
2.376965469E0,5.532144103E-3,4.114097655E-1,-1.889671832E-1
2.379356719E0,2.385808527E-2,4.407312572E-1,-1.889671832E-1
2.381747240E0,3.485364839E-2,4.651658535E-1,-1.877454668E-1
2.384138594E0,4.096229747E-2,4.822700620E-1,-1.889671832E-1
2.386530730E0,4.340575635E-2,4.859352708E-1,-1.889671832E-1
2.388921980E0,4.096229747E-2,4.773831666E-1,-1.865237355E-1
2.391312500E0,3.485364839E-2,4.651658535E-1,-1.816368103E-1
2.393703802E0,2.507981472E-2,4.443964660E-1,-1.743064374E-1
2.396095938E0,1.408424973E-2,4.175184071E-1,-1.620891392E-1
2.398487188E0,3.088684985E-3,3.906403482E-1,-1.486501098E-1
2.400877761E0,6.452261005E-4,3.649840355E-1,-1.315459013E-1
2.403269063E0,6.452261005E-4,3.381060064E-1,-1.107764989E-1
2.405661198E0,1.041906141E-2,3.038975596E-1,-9.000709653E-2
2.408052448E0,2.996673062E-2,2.635805011E-1,-6.557251513E-2
2.410442969E0,6.295341998E-2,2.171547711E-1,-3.869445994E-2
2.412834323E0,1.081574112E-1,1.707290560E-1,-1.181641407E-2
2.415226459E0,1.668004394E-1,1.230816096E-1,2.239201218E-2
2.417617709E0,2.376607358E-1,7.421242446E-2,5.537870526E-2
2.420008230E0,3.195166290E-1,1.312595420E-2,8.958712220E-2
2.422399532E0,4.111463130E-1,-6.262126565E-2,1.262390018E-1
2.424791667E0,5.186585188E-1,-1.591379046E-1,1.628908962E-1
2.427182969E0,6.420532465E-1,-2.776456475E-1,1.983210444E-1
2.429573490E0,7.788869143E-1,-4.083707035E-1,2.288642675E-1
2.431964792E0,9.316030741E-1,-5.390957594E-1,2.532988787E-1
2.434356927E0,1.087984443E0,-6.685990691E-1,2.655161619E-1
2.436748177E0,1.239478946E0,-7.981024384E-1,2.679596245E-1
2.439138750E0,1.381199479E0,-9.166101813E-1,2.569640577E-1
2.441530052E0,1.510702848E0,-1.010683179E0,2.337511927E-1
2.443922188E0,1.624323726E0,-1.075434923E0,2.032079548E-1
2.446313438E0,1.724505544E0,-1.108421564E0,1.677778065E-1
2.448703959E0,1.811248302E0,-1.115751982E0,1.311259270E-1
2.451095261E0,1.883330345E0,-1.103534698E0,1.005826890E-1
2.453487396E0,1.935864687E0,-1.075434923E0,7.614810765E-2
2.455878698E0,1.970073104E0,-1.027787447E0,5.049178749E-2
2.458269219E0,1.977403522E0,-9.715880156E-1,2.972238511E-2
2.460660521E0,1.962742686E0,-9.153884649E-1,1.261817664E-2
2.463052657E0,1.926090837E0,-8.652975559E-1,-8.208492072E-4
2.465443907E0,1.869891286E0,-8.310891390E-1,-1.792506129E-2
2.467834480E0,1.797809243E0,-8.152066469E-1,-2.892062627E-2
2.470225782E0,1.722061992E0,-8.225370049E-1,-3.869445994E-2
2.472617917E0,1.638984442E0,-8.518584967E-1,-4.480310902E-2
2.475009167E0,1.557128549E0,-9.031711221E-1,-5.213348567E-2
2.477399688E0,1.481381297E0,-9.691445827E-1,-6.190731749E-2
2.479790990E0,1.411742806E0,-1.043669939E0,-7.534635067E-2
2.482183177E0,1.345769405E0,-1.120638847E0,-9.122882783E-2
2.484574427E0,1.288348079E0,-1.195164323E0,-1.058895886E-1
2.486964948E0,1.239478946E0,-1.269689918E0,-1.217720658E-1
2.489356250E0,1.195496678E0,-1.331998110E0,-1.413197368E-1
2.491748386E0,1.158844829E0,-1.379645467E0,-1.620891392E-1
2.494139636E0,1.134410143E0,-1.415075660E0,-1.828585416E-1
2.496530209E0,1.120971203E0,-1.432179928E0,-2.048496753E-1
2.498921511E0,1.119749427E0,-1.437066793E0,-2.317277193E-1
2.501313646E0,1.133188486E0,-1.423627734E0,-2.586057484E-1
2.503704896E0,1.157623053E0,-1.396749735E0,-2.891489863E-1
2.506095417E0,1.190609694E0,-1.361319542E0,-3.209139705E-1
2.508486771E0,1.232148528E0,-1.316115618E0,-3.575658500E-1
2.510878907E0,1.277352571E0,-1.268468142E0,-3.942177296E-1
2.513270157E0,1.323778272E0,-1.225707650E0,-4.333130717E-1
2.515660677E0,1.373869181E0,-1.186612248E0,-4.711866677E-1
2.518051980E0,1.425181746E0,-1.157290697E0,-5.053951144E-1
2.520444115E0,1.477716208E0,-1.124304056E0,-5.371600389E-1
2.522835365E0,1.536359191E0,-1.080321789E0,-5.664815903E-1
2.525225938E0,1.598667383E0,-1.030230880E0,-5.884727240E-1
2.527617240E0,1.664640784E0,-9.740314484E-1,-6.067986488E-1
2.530009375E0,1.724505544E0,-9.105015397E-1,-6.177942157E-1
2.532400625E0,1.781926751E0,-8.298673630E-1,-6.239028573E-1
2.534791146E0,1.836904645E0,-7.382376790E-1,-6.239028573E-1
2.537182500E0,1.880886912E0,-6.417210698E-1,-6.177942157E-1
2.539574636E0,1.915095329E0,-5.415392518E-1,-6.043552160E-1
2.541965886E0,1.939529896E0,-4.401356578E-1,-5.860292315E-1
2.544356407E0,1.952968955E0,-3.436190188E-1,-5.591511726E-1
2.546747709E0,1.956634045E0,-2.519893348E-1,-5.261644721E-1
2.549139844E0,1.954190612E0,-1.652465463E-1,-4.870691597E-1
2.551531094E0,1.945638537E0,-8.094722033E-2,-4.467521012E-1
2.553921667E0,1.932199478E0,-2.756527159E-3,-3.966611922E-1
2.556312969E0,1.913873553E0,7.176896930E-2,-3.490137458E-1
2.558705105E0,1.897991061E0,1.450727284E-1,-3.013662696E-1
2.561096355E0,1.885773778E0,2.122678459E-1,-2.524971068E-1
2.563486875E0,1.877221704E0,2.709108889E-1,-1.975193024E-1
2.565878177E0,1.866226077E0,3.234452307E-1,-1.400980055E-1
2.568270365E0,1.854008794E0,3.613188565E-1,-8.756364882E-2
2.570661615E0,1.838126302E0,3.833099902E-1,-3.747273237E-2
2.573052136E0,1.825909019E0,3.943055570E-1,1.139644533E-2
2.575443438E0,1.816135168E0,3.845317066E-1,6.026562303E-2
2.577835573E0,1.811248302E0,3.588753939E-1,1.054695994E-1
2.580226823E0,1.812470078E0,3.173365891E-1,1.482301354E-1
2.582617396E0,1.816135168E0,2.574718595E-1,1.897689402E-1
2.585008698E0,1.828352451E0,1.853898019E-1,2.251990885E-1
2.587400834E0,1.844234943E0,1.084208488E-1,2.545206249E-1
2.589792084E0,1.863782644E0,4.489091784E-2,2.777334750E-1
2.592182605E0,1.888217211E0,-1.130863465E-2,3.009463251E-1
2.594573959E0,1.915095329E0,-5.895608664E-2,3.241592050E-1
2.596966094E0,1.944416761E0,-9.927316010E-2,3.449285924E-1
2.599357344E0,1.971294880E0,-1.298163980E-1,3.608110845E-1
2.601747865E0,1.993286014E0,-1.566944420E-1,3.742500842E-1
2.604139167E0,2.012833595E0,-1.884594113E-1,3.840239346E-1
2.606531302E0,2.025050879E0,-2.177809030E-1,3.925760388E-1
2.608922552E0,2.032381296E0,-2.336633950E-1,3.925760388E-1
2.611313125E0,2.032381296E0,-2.422154993E-1,3.901325762E-1
2.613704427E0,2.020164013E0,-2.434372455E-1,3.791370094E-1
2.616096563E0,2.001837969E0,-2.397720367E-1,3.644762635E-1
2.618487813E0,1.974960089E0,-2.312199324E-1,3.412634134E-1
2.620878334E0,1.941973329E0,-2.312199324E-1,3.180505335E-1
2.623269688E0,1.902878046E0,-2.299982160E-1,2.923942208E-1
2.625661823E0,1.861339211E0,-2.214461118E-1,2.642944455E-1
2.628053073E0,1.822243810E0,-1.970115155E-1,2.374163717E-1
2.630443594E0,1.784370303E0,-1.456988752E-1,2.105383426E-1
2.632834896E0,1.747718334E0,-7.117338479E-2,1.775516421E-1
2.635227032E0,1.717175126E0,3.352118190E-3,1.433432251E-1
2.637618282E0,1.690297127E0,7.787761092E-2,1.103565246E-1
2.640008855E0,1.668305993E0,1.524031162E-1,7.859155536E-2
2.642400157E0,1.657310367E0,2.147113085E-1,5.537870526E-2
2.644792292E0,1.653645158E0,2.660239637E-1,3.583103418E-2
2.647183542E0,1.653645158E0,3.222235143E-1,1.750509441E-2
2.649574063E0,1.652423501E0,3.686492443E-1,-8.208492072E-4
2.651965417E0,1.647536516E0,4.065228403E-1,-3.014235571E-2
2.654357552E0,1.640206218E0,4.358443618E-1,-6.190731749E-2
2.656748802E0,1.640206218E0,4.688310325E-1,-8.878537267E-2
2.659139323E0,1.647536516E0,5.042611957E-1,-1.095547676E-1
2.661530625E0,1.658532143E0,5.152567625E-1,-1.266589910E-1
2.663922761E0,1.670749426E0,5.152567625E-1,-1.388762742E-1
2.666314011E0,1.692740560E0,5.128132701E-1,-1.437631994E-1
2.668704584E0,1.717175126E0,4.981525540E-1,-1.498718411E-1
2.671095886E0,1.737944484E0,4.700527787E-1,-1.620891392E-1
2.673488021E0,1.756270528E0,4.297356904E-1,-1.779716313E-1
2.675879271E0,1.768487811E0,3.820882440E-1,-1.901889145E-1
2.678269792E0,1.768487811E0,3.295539021E-1,-2.024062127E-1
2.680661146E0,1.757492185E0,2.757978141E-1,-2.195104212E-1
2.683053282E0,1.741609693E0,2.244851440E-1,-2.353929132E-1
2.685444532E0,1.720840335E0,1.841680706E-1,-2.549405694E-1
2.687835052E0,1.698849201E0,1.426292807E-1,-2.757099569E-1
2.690226355E0,1.678079724E0,1.071991175E-1,-3.001445532E-1
2.692618490E0,1.657310367E0,6.199513376E-2,-3.221356869E-1
2.695009740E0,1.635319233E0,2.656497993E-2,-3.380181789E-1
2.697400313E0,1.607219458E0,4.573849496E-3,-3.526789248E-1
2.699791615E0,1.575454473E0,-8.865172043E-3,-3.624527454E-1
2.702183750E0,1.537580848E0,-2.596938796E-2,-3.685614169E-1
2.704575000E0,1.497263789E0,-5.406916514E-2,-3.734483123E-1
2.706965521E0,1.458168507E0,-8.705586195E-2,-3.771135211E-1
2.709356875E0,1.425181746E0,-1.212642938E-1,-3.832221627E-1
2.711749011E0,1.397081971E0,-1.542509794E-1,-3.868873417E-1
2.714140261E0,1.376312613E0,-1.921245903E-1,-3.917742670E-1
2.716530782E0,1.360430121E0,-2.336633950E-1,-3.954394460E-1
2.718922084E0,1.349434614E0,-2.739804685E-1,-4.015480876E-1
2.721314219E0,1.344547629E0,-3.118540645E-1,-4.064350128E-1
2.723705469E0,1.340882421E0,-3.533928692E-1,-4.076567590E-1
2.726096042E0,1.340882421E0,-3.912664950E-1,-4.088784754E-1
2.728487344E0,1.344547629E0,-4.254749119E-1,-4.137654006E-1
2.730879480E0,1.345769405E0,-4.511312246E-1,-4.186522961E-1
2.733270730E0,1.350656271E0,-4.670136869E-1,-4.210957587E-1
2.735661250E0,1.349434614E0,-4.694571793E-1,-4.308696091E-1
2.738052605E0,1.343325973E0,-4.450225830E-1,-4.443086386E-1
2.740444740E0,1.337217212E0,-4.242531657E-1,-4.589693844E-1
2.742835990E0,1.326221704E0,-3.888230324E-1,-4.797387719E-1
2.745226511E0,1.314004421E0,-3.485059440E-1,-4.956212640E-1
2.747617813E0,1.298121929E0,-2.947498560E-1,-5.115037560E-1
2.750009948E0,1.282239437E0,-2.422154993E-1,-5.237210393E-1
2.752401198E0,1.265135288E0,-1.921245903E-1,-5.298296809E-1
2.754791771E0,1.249252796E0,-1.408119649E-1,-5.286079645E-1
2.757183073E0,1.230926752E0,-8.705586195E-2,-5.334948897E-1
2.759575209E0,1.213822603E0,-4.307359830E-2,-5.334948897E-1
2.761966459E0,1.195496678E0,-3.130682744E-4,-5.334948897E-1
2.764356980E0,1.178392410E0,3.145189583E-2,-5.359383225E-1
2.766748282E0,1.164953470E0,5.466475338E-2,-5.371600389E-1
2.769140469E0,1.151514411E0,6.810377538E-2,-5.408252478E-1
2.771531719E0,1.142962337E0,7.787761092E-2,-5.493773818E-1
2.773922240E0,1.134410143E0,7.665588707E-2,-5.603729486E-1
2.776313542E0,1.127079844E0,7.543415576E-2,-5.677033067E-1
2.778705677E0,1.123414636E0,6.932550669E-2,-5.786988735E-1
2.781096927E0,1.119749427E0,5.099956691E-2,-5.896944404E-1
2.783487500E0,1.116084218E0,2.656497993E-2,-5.982465148E-1
2.785878802E0,1.113640785E0,-5.199986044E-3,-6.019117236E-1
2.788270938E0,1.111197352E0,-3.940841183E-2,-6.043552160E-1
2.790662188E0,1.105088711E0,-8.216895163E-2,-6.067986488E-1
2.793052709E0,1.100201726E0,-1.359250396E-1,-5.994682908E-1
2.795444011E0,1.096536517E0,-1.860159487E-1,-5.970247984E-1
2.797836146E0,1.090427876E0,-2.385503203E-1,-5.896944404E-1
2.800227448E0,1.081875801E0,-2.971933186E-1,-5.799205899E-1
2.802617969E0,1.069658518E0,-3.521711528E-1,-5.762553811E-1
2.805009271E0,1.052554250E0,-4.047054946E-1,-5.738119483E-1
2.807401407E0,1.031784892E0,-4.560181201E-1,-5.701467395E-1
2.809792657E0,1.008572102E0,-4.975569546E-1,-5.652598143E-1
2.812183230E0,9.792505503E-1,-5.317654014E-1,-5.664815903E-1
2.814574532E0,9.462638497E-1,-5.561999679E-1,-5.689250231E-1
2.816966667E0,9.096119404E-1,-5.781911016E-1,-5.664815903E-1
2.819357917E0,8.680731654E-1,-5.842997432E-1,-5.664815903E-1
2.821748438E0,8.277561069E-1,-5.830780268E-1,-5.628163815E-1
2.824139740E0,7.862172723E-1,-5.720824599E-1,-5.554860234E-1
2.826531927E0,7.446784973E-1,-5.586434603E-1,-5.444904566E-1
2.828923177E0,7.031396627E-1,-5.354306102E-1,-5.334948897E-1
2.831313698E0,6.616008878E-1,-5.109959841E-1,-5.127254725E-1
2.833705000E0,6.200621128E-1,-4.804527462E-1,-4.895126224E-1
2.836097136E0,5.834102035E-1,-4.645702541E-1,-4.650780261E-1
2.838488386E0,5.492017865E-1,-4.560181201E-1,-4.369782507E-1
2.840878907E0,5.174368024E-1,-4.535746872E-1,-4.052132964E-1
2.843270261E0,4.881152809E-1,-4.535746872E-1,-3.697831333E-1
2.845662396E0,4.575720429E-1,-4.609050453E-1,-3.343529701E-1
2.848053646E0,4.282505214E-1,-4.767875373E-1,-2.977010906E-1
2.850444167E0,3.989290297E-1,-4.963352382E-1,-2.598274648E-1
2.852835469E0,3.696075082E-1,-5.158829093E-1,-2.231756151E-1
2.855227657E0,3.402860165E-1,-5.378740430E-1,-1.889671832E-1
2.857618907E0,3.060775995E-1,-5.623086095E-1,-1.584239453E-1
2.860009427E0,2.645387948E-1,-5.818563104E-1,-1.303241700E-1
2.862400730E0,2.254434526E-1,-5.989605188E-1,-1.058895886E-1
2.864792865E0,1.826829165E-1,-6.185081601E-1,-9.122882783E-2
2.867184115E0,1.338137388E-1,-6.331689358E-1,-7.778981328E-2
2.869574636E0,8.494455367E-2,-6.404992938E-1,-7.045942545E-2
2.871965990E0,3.485364839E-2,-6.429427862E-1,-6.801597029E-2
2.874358125E0,-1.645898633E-2,-6.380558610E-1,-7.045942545E-2
2.876749375E0,-6.654989719E-2,-6.246168613E-1,-7.412461936E-2
2.879139896E0,-1.178625301E-1,-6.001822352E-1,-8.145499229E-2
2.881531198E0,-1.691751629E-1,-5.684172511E-1,-9.000709653E-2
2.883923334E0,-2.180443406E-1,-5.403174758E-1,-9.855920821E-2
2.886314636E0,-2.669135034E-1,-5.183264017E-1,-1.046678573E-1
2.888705157E0,-3.084523082E-1,-5.048873425E-1,-1.095547676E-1
2.891096459E0,-3.487693965E-1,-5.000004172E-1,-1.095547676E-1
2.893488594E0,-3.841995299E-1,-5.024439096E-1,-1.034461260E-1
2.895879844E0,-4.171862304E-1,-5.085525513E-1,-9.611575305E-2
2.898270365E0,-4.489512146E-1,-5.244350433E-1,-9.245055914E-2
2.900661719E0,-4.782727063E-1,-5.390957594E-1,-8.267672360E-2
2.903053855E0,-5.063724518E-1,-5.561999679E-1,-7.412461936E-2
2.905445105E0,-5.332505107E-1,-5.733041763E-1,-6.557251513E-2
2.907835625E0,-5.674589276E-1,-5.879649520E-1,-5.579867586E-2
2.910226927E0,-6.053325534E-1,-6.038474441E-1,-5.457694456E-2
2.912619063E0,-6.493148208E-1,-6.185081601E-1,-5.335521325E-2
2.915010313E0,-6.994057298E-1,-6.258385777E-1,-5.579867586E-2
2.917400886E0,-7.556052804E-1,-6.307255030E-1,-5.824213102E-2
2.919792188E0,-8.166917562E-1,-6.221733689E-1,-6.068559363E-2
2.922184323E0,-8.851085901E-1,-6.062908769E-1,-5.946386233E-2
2.924575573E0,-9.510819912E-1,-5.720824599E-1,-5.579867586E-2
2.926966094E0,-1.021942258E0,-5.305436850E-1,-4.846829548E-2
2.929357396E0,-1.090359092E0,-4.792309701E-1,-3.625100479E-2
2.931749584E0,-1.157554269E0,-4.157010615E-1,-1.425987296E-2
2.934140834E0,-1.222305894E0,-3.497276902E-1,1.261817664E-2
2.936531355E0,-1.283392429E0,-2.800891101E-1,4.438313842E-2
2.938922657E0,-1.342035413E0,-2.128940076E-1,7.614810765E-2
2.941314792E0,-1.404343605E0,-1.566944420E-1,1.030261517E-1
2.943706042E0,-1.471538663E0,-1.114904583E-1,1.286824644E-1
2.946096615E0,-1.546064258E0,-7.972548902E-2,1.531170458E-1
2.948487917E0,-1.631585240E0,-6.384299695E-2,1.763299108E-1
2.950880052E0,-1.728101850E0,-6.139954925E-2,1.983210444E-1
2.953271302E0,-1.836835861E0,-7.850375772E-2,2.239773721E-1
2.955661823E0,-1.946791530E0,-1.041600704E-1,2.508554161E-1
2.958053125E0,-2.060412407E0,-1.334815770E-1,2.801769376E-1
2.960445261E0,-2.176476717E0,-1.737986505E-1,3.156070709E-1
2.962836563E0,-2.286432266E0,-2.214461118E-1,3.510372341E-1
2.965227084E0,-2.391501188E0,-2.654283345E-1,3.864673972E-1
2.967618386E0,-2.480687380E0,-3.106323481E-1,4.231192768E-1
2.970010521E0,-2.562543154E0,-3.558363318E-1,4.548842311E-1
2.972401771E0,-2.629738331E0,-3.998185992E-1,4.817622900E-1
2.974792344E0,-2.687159538E0,-4.364704788E-1,5.110837817E-1
2.977183646E0,-2.734807014E0,-4.609050453E-1,5.465139747E-1
2.979575782E0,-2.782454491E0,-4.670136869E-1,5.966048837E-1
2.981967032E0,-2.821549892E0,-4.694571793E-1,6.528044343E-1
2.984357552E0,-2.843540907E0,-4.731223285E-1,7.077822089E-1
2.986748855E0,-2.850871325E0,-4.645702541E-1,7.566514015E-1
2.989140990E0,-2.842319250E0,-4.462442994E-1,8.079640269E-1
2.991532292E0,-2.827658415E0,-4.279183745E-1,8.568332195E-1
2.993922813E0,-2.810554266E0,-4.181445241E-1,9.044806957E-1
2.996314115E0,-2.788563251E0,-4.132575989E-1,9.496846795E-1
2.998706250E0,-2.766571999E0,-4.059272408E-1,9.912234545E-1
3.001097500E0,-2.744580984E0,-4.034837782E-1,1.031540513E0
3.003488073E0,-2.718924522E0,-4.083707035E-1,1.063305497E0
3.005879375E0,-2.688381433E0,-4.132575989E-1,1.087740064E0
3.008271511E0,-2.649286032E0,-4.242531657E-1,1.102400899E0
3.010662761E0,-2.604082108E0,-4.352487326E-1,1.108509541E0
3.013053282E0,-2.547882557E0,-4.450225830E-1,1.103622556E0
3.015444584E0,-2.488017797E0,-4.511312246E-1,1.088961840E0
3.017836719E0,-2.423266172E0,-4.572398961E-1,1.066970706E0
3.020227969E0,-2.354849339E0,-4.694571793E-1,1.038870931E0
3.022618542E0,-2.285210609E0,-4.963352382E-1,1.005884171E0
3.025009844E0,-2.213128567E0,-5.415392518E-1,9.765627384E-1
3.027401980E0,-2.144711733E0,-6.087343693E-1,9.509063959E-1
3.029793230E0,-2.075073242E0,-6.857032776E-1,9.240283370E-1
3.032183750E0,-2.006656408E0,-7.663374543E-1,9.032589197E-1
3.034575105E0,-1.939461112E0,-8.433064222E-1,8.837112784E-1
3.036967240E0,-1.874709487E0,-9.068363309E-1,8.641635776E-1
3.039358490E0,-1.814844728E0,-9.618141651E-1,8.495028615E-1
3.041749011E0,-1.758645177E0,-1.000909328E0,8.311769366E-1
3.044140313E0,-1.708554268E0,-1.027787447E0,8.116292357E-1
3.046532448E0,-1.670680642E0,-1.043669939E0,7.896381021E-1
3.048923698E0,-1.641359091E0,-1.046113372E0,7.664252520E-1
3.051314271E0,-1.621811390E0,-1.035117865E0,7.395471931E-1
3.053705573E0,-1.613259315E0,-1.021678805E0,7.151126266E-1
3.056097709E0,-1.613259315E0,-9.996877313E-1,6.894562840E-1
3.058488959E0,-1.626698375E0,-9.691445827E-1,6.625782251E-1
3.060879480E0,-1.645024300E0,-9.434882402E-1,6.405870914E-1
3.063270782E0,-1.665793657E0,-9.153884649E-1,6.198177338E-1
3.065662917E0,-1.686563134E0,-8.885104060E-1,5.990483165E-1
3.068054219E0,-1.709775925E0,-8.701844215E-1,5.843875408E-1
3.070444740E0,-1.726880193E0,-8.604106307E-1,5.709485412E-1
3.072836042E0,-1.741540909E0,-8.616323471E-1,5.599529743E-1
3.075228177E0,-1.753758192E0,-8.714061975E-1,5.501791239E-1
3.077619427E0,-1.762310386E0,-8.970624804E-1,5.452921987E-1
3.080010000E0,-1.768419027E0,-9.312708974E-1,5.367401242E-1
3.082401302E0,-1.770862460E0,-9.703662395E-1,5.318531990E-1
3.084793438E0,-1.769640684E0,-1.018013597E0,5.233010650E-1
3.087184688E0,-1.761088610E0,-1.058330655E0,5.147489905E-1
3.089575209E0,-1.748871326E0,-1.105978131E0,5.086403489E-1
3.091966511E0,-1.729323626E0,-1.145073414E0,5.049751401E-1
3.094358646E0,-1.708554268E0,-1.180503607E0,5.037534237E-1
3.096749948E0,-1.686563134E0,-1.197607875E0,4.976447821E-1
3.099140469E0,-1.664572001E0,-1.202494740E0,4.890926480E-1
3.101531771E0,-1.642580867E0,-1.195164323E0,4.817622900E-1
3.103923907E0,-1.623033166E0,-1.180503607E0,4.780970812E-1
3.106315157E0,-1.608372450E0,-1.168286324E0,4.780970812E-1
3.108705677E0,-1.592489958E0,-1.148738623E0,4.793188572E-1
3.111096980E0,-1.576607466E0,-1.121860623E0,4.854274988E-1
3.113489167E0,-1.558281541E0,-1.077878356E0,4.866492152E-1
3.115880417E0,-1.543620706E0,-1.025344014E0,4.842057228E-1
3.118270938E0,-1.528959990E0,-9.764748812E-1,4.829840064E-1
3.120662240E0,-1.521629572E0,-9.214971066E-1,4.805405736E-1
3.123054375E0,-1.516742706E0,-8.726279140E-1,4.780970812E-1
3.125445625E0,-1.511855841E0,-8.213152885E-1,4.756536484E-1
3.127836198E0,-1.508190632E0,-7.602288127E-1,4.768753648E-1
3.130227500E0,-1.499638438E0,-6.783729196E-1,4.817622900E-1
3.132619636E0,-1.483756065E0,-5.867432356E-1,4.817622900E-1
3.135010886E0,-1.467873573E0,-4.938917458E-1,4.842057228E-1
3.137401407E0,-1.455656290E0,-3.827143610E-1,4.927578568E-1
3.139792709E0,-1.453212738E0,-2.422154993E-1,5.000882149E-1
3.142184844E0,-1.451991081E0,-7.850375772E-2,5.098620653E-1
3.144576146E0,-1.447104096E0,1.206381470E-1,5.159707069E-1
3.146966667E0,-1.438552022E0,3.478798270E-1,5.269662738E-1
3.149357969E0,-1.426334739E0,5.836735964E-1,5.379618406E-1
3.151750105E0,-1.412895679E0,8.035848737E-1,5.538443327E-1
3.154141355E0,-1.405565381E0,9.905095100E-1,5.672833323E-1
3.156531927E0,-1.406787038E0,1.143225789E0,5.795006156E-1
3.158923230E0,-1.416560888E0,1.256846666E0,5.843875408E-1
3.161315365E0,-1.439773798E0,1.328928709E0,5.843875408E-1
3.163706615E0,-1.470317006E0,1.364358783E0,5.831658244E-1
3.166097136E0,-1.506968856E0,1.371689200E0,5.770571828E-1
3.168488438E0,-1.546064258E0,1.360693574E0,5.709485412E-1
3.170880573E0,-1.588824749E0,1.339924216E0,5.709485412E-1
3.173271875E0,-1.626698375E0,1.324041724E0,5.709485412E-1
3.175662396E0,-1.659685016E0,1.315489650E0,5.733919740E-1
3.178053698E0,-1.685341358E0,1.321598291E0,5.746137500E-1
3.180445834E0,-1.709775925E0,1.335037351E0,5.697268248E-1
3.182837084E0,-1.728101850E0,1.355806708E0,5.587312579E-1
3.185227605E0,-1.747649550E0,1.368023992E0,5.367401242E-1
3.187618959E0,-1.761088610E0,1.377797842E0,5.098620653E-1
3.190011094E0,-1.773305893E0,1.377797842E0,4.817622900E-1
3.192402344E0,-1.781857967E0,1.372910976E0,4.487755895E-1
3.194792865E0,-1.784301400E0,1.366802335E0,4.218975306E-1
3.197184167E0,-1.784301400E0,1.359471917E0,3.962412179E-1
3.199576302E0,-1.778192759E0,1.352141500E0,3.754718304E-1
3.201967552E0,-1.769640684E0,1.346032858E0,3.547024131E-1
3.204358125E0,-1.754979968E0,1.347254634E0,3.363764882E-1
3.206749427E0,-1.737875700E0,1.346032858E0,3.192722797E-1
3.209141563E0,-1.713441133E0,1.344811201E0,3.009463251E-1
3.211532813E0,-1.685341358E0,1.346032858E0,2.813986540E-1
3.213923334E0,-1.654798150E0,1.352141500E0,2.630727291E-1
3.216314636E0,-1.623033166E0,1.354584932E0,2.496336848E-1
3.218706771E0,-1.585159540E0,1.348476291E0,2.337511927E-1
3.221098073E0,-1.544842482E0,1.337480783E0,2.215339094E-1
3.223488594E0,-1.504525423E0,1.320376515E0,2.166469842E-1
3.225879896E0,-1.461764932E0,1.303272367E0,2.093166113E-1
3.228272032E0,-1.419004321E0,1.288611650E0,2.056514174E-1
3.230663282E0,-1.376243830E0,1.276394248E0,1.995427758E-1
3.233053802E0,-1.329818130E0,1.261733532E0,1.995427758E-1
3.235445157E0,-1.282170653E0,1.247072816E0,1.995427758E-1
3.237837292E0,-1.235744953E0,1.232411981E0,1.970993131E-1
3.240228542E0,-1.186875701E0,1.216529608E0,1.970993131E-1
3.242619063E0,-1.134341359E0,1.199425340E0,1.983210444E-1
3.245010365E0,-1.079363585E0,1.185986280E0,1.983210444E-1
3.247402500E0,-1.024385691E0,1.179877639E0,1.970993131E-1
3.249793750E0,-9.645209908E-1,1.179877639E0,1.946558505E-1
3.252184323E0,-9.034345150E-1,1.181099415E0,1.934341192E-1
3.254575625E0,-8.435697556E-1,1.179877639E0,1.909906715E-1
3.256967761E0,-7.788181305E-1,1.179877639E0,1.861037463E-1
3.259359011E0,-7.128447294E-1,1.185986280E0,1.799951047E-1
3.261749532E0,-6.468713284E-1,1.194538474E0,1.714430004E-1
3.264140834E0,-5.772327781E-1,1.198203564E0,1.641126126E-1
3.266532969E0,-5.075941682E-1,1.201868773E0,1.555605084E-1
3.268924271E0,-4.403991103E-1,1.205533981E0,1.494518667E-1
3.271314792E0,-3.683170676E-1,1.211642623E0,1.433432251E-1
3.273706094E0,-3.011219501E-1,1.215307832E0,1.408997625E-1
3.276098230E0,-2.363702804E-1,1.222638249E0,1.433432251E-1
3.278489480E0,-1.703968942E-1,1.229968548E0,1.445649415E-1
3.280880000E0,-1.080886945E-1,1.234855533E0,1.470084041E-1
3.283271355E0,-4.944568127E-2,1.247072816E0,1.494518667E-1
3.285663490E0,9.197331965E-3,1.260511756E0,1.567822397E-1
3.288054740E0,6.417515129E-2,1.267842174E0,1.653343439E-1
3.290445261E0,1.154877916E-1,1.283724666E0,1.714430004E-1
3.292836563E0,1.655787081E-1,1.297163725E0,1.738864481E-1
3.295228698E0,2.181130648E-1,1.309381008E0,1.775516421E-1
3.297619948E0,2.694257200E-1,1.320376515E0,1.787733734E-1
3.300010521E0,3.219600618E-1,1.325263500E0,1.799951047E-1
3.302401823E0,3.744944334E-1,1.335037351E0,1.824385673E-1
3.304793959E0,4.306939840E-1,1.339924216E0,1.799951047E-1
3.307185209E0,4.893369973E-1,1.341145992E0,1.775516421E-1
3.309575730E0,5.492017865E-1,1.346032858E0,1.738864481E-1
3.311967032E0,6.115099788E-1,1.352141500E0,1.689995378E-1
3.314359167E0,6.787050962E-1,1.361915350E0,1.604474336E-1
3.316750469E0,7.434567809E-1,1.376576066E0,1.567822397E-1
3.319140990E0,8.130953312E-1,1.388793349E0,1.555605084E-1
3.321532292E0,8.839556575E-1,1.402232409E0,1.482301354E-1
3.323924427E0,9.535942078E-1,1.419336677E0,1.384562999E-1
3.326315677E0,1.019567609E0,1.449879885E0,1.274607331E-1
3.328706198E0,1.085541010E0,1.479201436E0,1.176868975E-1
3.331097552E0,1.146627426E0,1.502414227E0,1.091347933E-1
3.333489688E0,1.202826977E0,1.525627136E0,1.042478830E-1
3.335880938E0,1.250474453E0,1.543953061E0,1.054695994E-1
3.338271459E0,1.295678496E0,1.552505136E0,1.005826890E-1
3.340662761E0,1.331108570E0,1.557392120E0,9.325231612E-2
3.343054896E0,1.356764913E0,1.562278986E0,8.836539090E-2
3.345446146E0,1.373869181E0,1.562278986E0,7.614810765E-2
3.347836719E0,1.375090837E0,1.557392120E0,6.637427211E-2
3.350228021E0,1.368982196E0,1.545174718E0,5.537870526E-2
3.352620157E0,1.346991062E0,1.520740151E0,4.193968326E-2
3.355011407E0,1.311560988E0,1.492640376E0,2.972238511E-2
3.357401927E0,1.261470079E0,1.455988526E0,1.750509441E-2
3.359793230E0,1.196718335E0,1.412006259E0,1.017471403E-2
3.362185365E0,1.120971203E0,1.360693574E0,5.287796259E-3
3.364576667E0,1.026898026E0,1.298385382E0,2.844341099E-3
3.366967188E0,9.230509996E-1,1.231190324E0,4.066068679E-3
3.369358490E0,8.045432568E-1,1.166438699E0,5.287796259E-3
3.371750625E0,6.701530218E-1,1.088248014E0,8.952986449E-3
3.374141875E0,5.247671604E-1,1.003948569E0,1.383990422E-2
3.376532396E0,3.781596124E-1,9.208709002E-1,1.994854957E-2
3.378923750E0,2.254434526E-1,8.439019322E-1,2.239201218E-2
3.381315886E0,7.517071813E-2,7.742633820E-1,2.361373976E-2
3.383707136E0,-6.899335235E-2,7.070682645E-1,2.727892995E-2
3.386097657E0,-2.058270425E-1,6.533121467E-1,3.216584772E-2
3.388488959E0,-3.328869045E-1,6.129950881E-1,3.094411641E-2
3.390881094E0,-4.440642893E-1,5.775649548E-1,3.216584772E-2
3.393272344E0,-5.405808687E-1,5.482434630E-1,3.338757902E-2
3.395662917E0,-6.248801947E-1,5.213654041E-1,3.460930288E-2
3.398054219E0,-6.932970881E-1,4.896004498E-1,3.949622065E-2
3.400446355E0,-7.470531464E-1,4.505051076E-1,4.193968326E-2
3.402837605E0,-7.885919809E-1,4.016359150E-1,4.804832488E-2
3.405228125E0,-8.179134727E-1,3.429929018E-1,5.660043657E-2
3.407619427E0,-8.374611139E-1,2.648022473E-1,7.003945112E-2
3.410011563E0,-8.509001732E-1,1.707290560E-1,8.714365959E-2
3.412402865E0,-8.582305312E-1,6.199513376E-2,1.030261517E-1
3.414793386E0,-8.570088148E-1,-5.773435533E-2,1.201303601E-1
3.417184688E0,-8.509001732E-1,-1.921245903E-1,1.408997625E-1
3.419576823E0,-8.362393975E-1,-3.350669146E-1,1.580039710E-1
3.421968073E0,-8.142482638E-1,-4.865613878E-1,1.738864481E-1
3.424358594E0,-7.873702049E-1,-6.331689358E-1,1.934341192E-1
3.426749896E0,-7.556052804E-1,-7.663374543E-1,2.093166113E-1
3.429142084E0,-7.177316546E-1,-8.836234808E-1,2.227556258E-1
3.431533334E0,-6.749711037E-1,-9.801400900E-1,2.337511927E-1
3.433923855E0,-6.297671199E-1,-1.057108879E0,2.410815805E-1
3.436315157E0,-5.833414197E-1,-1.110864997E0,2.386381179E-1
3.438707292E0,-5.344722271E-1,-1.146295190E0,2.337511927E-1
3.441098542E0,-4.868248105E-1,-1.162177682E0,2.227556258E-1
3.443489115E0,-4.403991103E-1,-1.156069040E0,2.080948800E-1
3.445880417E0,-3.964168429E-1,-1.136521339E0,1.861037463E-1
3.448272552E0,-3.573215008E-1,-1.104756355E0,1.616691649E-1
3.450663802E0,-3.218913376E-1,-1.055887222E0,1.335693747E-1
3.453054323E0,-2.913480997E-1,-9.911357164E-1,1.066913307E-1
3.455445625E0,-2.644700706E-1,-9.214971066E-1,8.103501797E-2
3.457837761E0,-2.388137430E-1,-8.335325718E-1,5.293525010E-2
3.460229011E0,-2.204878032E-1,-7.321290374E-1,2.117028087E-2
3.462619584E0,-2.058270425E-1,-6.185081601E-1,-9.372955188E-3
3.465010886E0,-1.960532069E-1,-4.987786710E-1,-3.869445994E-2
3.467403021E0,-1.875011027E-1,-3.692753613E-1,-7.168115675E-2
3.469794271E0,-1.826141924E-1,-2.348851413E-1,-1.046678573E-1
3.472184792E0,-1.777272671E-1,-9.805142879E-2,-1.364328265E-1
3.474576094E0,-1.765055358E-1,3.756054491E-2,-1.633108705E-1
3.476968230E0,-1.740620732E-1,1.719507873E-1,-1.914106458E-1
3.479359532E0,-1.728403568E-1,2.977889180E-1,-2.158452421E-1
3.481750052E0,-1.642882526E-1,4.224053323E-1,-2.329494506E-1
3.484141355E0,-1.581795961E-1,5.409130454E-1,-2.488319129E-1
3.486533490E0,-1.471840292E-1,6.545338631E-1,-2.622709274E-1
3.488924740E0,-1.337450147E-1,7.583808899E-1,-2.708230317E-1
3.491315261E0,-1.141973436E-1,8.548974991E-1,-2.757099569E-1
3.493706615E0,-9.587140381E-2,9.453055263E-1,-2.805968821E-1
3.496098750E0,-7.632373273E-2,1.024718046E0,-2.854838073E-1
3.498490000E0,-6.044124439E-2,1.088248014E0,-2.867055237E-1
3.500880521E0,-4.455876350E-2,1.143225789E0,-2.879272699E-1
3.503271823E0,-2.989801019E-2,1.183542848E0,-2.891489863E-1
3.505663959E0,-1.890244521E-2,1.206755757E0,-2.879272699E-1
3.508055209E0,-9.128609672E-3,1.212864399E0,-2.867055237E-1
3.510445782E0,-5.765033420E-4,1.206755757E0,-2.842620611E-1
3.512837084E0,9.197331965E-3,1.184764624E0,-2.793751359E-1
3.515229219E0,2.263635583E-2,1.156664848E0,-2.708230317E-1
3.517620469E0,3.851883858E-2,1.123678088E0,-2.598274648E-1
3.520010990E0,5.806650966E-2,1.087026238E0,-2.451667488E-1
3.522402292E0,8.127936721E-2,1.049152613E0,-2.268408090E-1
3.524794427E0,1.106008738E-1,1.003948569E0,-2.024062127E-1
3.527185677E0,1.521396786E-1,9.526358843E-1,-1.779716313E-1
3.529576250E0,2.010088563E-1,8.927711248E-1,-1.486501098E-1
3.531967552E0,2.584301531E-1,8.292412162E-1,-1.132199615E-1
3.534359688E0,3.268469870E-1,7.547156811E-1,-7.168115675E-2
3.536750938E0,4.062594175E-1,6.716381311E-1,-3.014235571E-2
3.539141459E0,5.015543103E-1,5.763431787E-1,1.994854957E-2
3.541532761E0,6.102882624E-1,4.688310325E-1,7.614810765E-2
3.543924896E0,7.300177217E-1,3.405494690E-1,1.274607331E-1
3.546316198E0,8.570775986E-1,2.012722790E-1,1.775516421E-1
3.548706719E0,9.865809083E-1,4.244746268E-2,2.227556258E-1
3.551098021E0,1.118527651E0,-1.200425625E-1,2.557423413E-1
3.553490157E0,1.248031020E0,-2.861977518E-1,2.801769376E-1
3.555881407E0,1.376312613E0,-4.413573742E-1,2.936159670E-1
3.558271927E0,1.493598580E0,-5.867432356E-1,3.009463251E-1
3.560663282E0,1.607219458E0,-7.199117541E-1,2.997246087E-1
3.563055417E0,1.712288260E0,-8.384194970E-1,2.887290418E-1
3.565446667E0,1.800252676E0,-9.349361062E-1,2.679596245E-1
3.567837188E0,1.871113062E0,-1.008239746E0,2.386381179E-1
3.570228490E0,1.911430120E0,-1.057108879E0,2.044296861E-1
3.572620625E0,1.926090837E0,-1.085208774E0,1.726647168E-1
3.575011875E0,1.912651896E0,-1.102312922E0,1.421214938E-1
3.577402448E0,1.874778271E0,-1.114530206E0,1.152434349E-1
3.579793750E0,1.812470078E0,-1.119417191E0,9.569576383E-2
3.582185886E0,1.724505544E0,-1.120638847E0,7.859155536E-2
3.584577136E0,1.621880174E0,-1.115751982E0,6.637427211E-2
3.586967657E0,1.505815983E0,-1.102312922E0,5.293525010E-2
3.589358959E0,1.384864688E0,-1.072991371E0,3.460930288E-2
3.591751094E0,1.265135288E0,-1.027787447E0,1.872682199E-2
3.594142344E0,1.151514411E0,-9.728096724E-1,-8.208492072E-4
3.596532917E0,1.045223951E0,-9.153884649E-1,-2.281197906E-2
3.598924219E0,9.499290586E-1,-8.652975559E-1,-4.602484033E-2
3.601316355E0,8.668514490E-1,-8.249804378E-1,-7.045942545E-2
3.603707605E0,7.972128391E-1,-8.005458713E-1,-9.122882783E-2
3.606098125E0,7.361263633E-1,-7.981024384E-1,-1.156634241E-1
3.608489427E0,6.872572303E-1,-8.164283633E-1,-1.339893639E-1
3.610881563E0,6.542705297E-1,-8.518584967E-1,-1.523153037E-1
3.613272865E0,6.347228289E-1,-8.946190476E-1,-1.669760644E-1
3.615663386E0,6.335011125E-1,-9.410447478E-1,-1.828585416E-1
3.618054688E0,6.481618881E-1,-9.825835228E-1,-1.914106458E-1
3.620446823E0,6.860354543E-1,-1.021678805E0,-1.987410337E-1
3.622838073E0,7.459002137E-1,-1.059552431E0,-2.048496753E-1
3.625228594E0,8.228691816E-1,-1.087652206E0,-2.097365856E-1
3.627619896E0,9.144988656E-1,-1.101091146E0,-2.146235108E-1
3.630012084E0,1.018345833E0,-1.097426057E0,-2.231756151E-1
3.632403334E0,1.125858068E0,-1.081543565E0,-2.353929132E-1
3.634793855E0,1.239478946E0,-1.052222013E0,-2.451667488E-1
3.637185157E0,1.351878047E0,-1.016791821E0,-2.586057484E-1
3.639577292E0,1.460611939E0,-9.715880156E-1,-2.781534195E-1
3.641968542E0,1.559571981E0,-9.202753305E-1,-2.952576280E-1
3.644359063E0,1.651201725E0,-8.738496304E-1,-3.123618364E-1
3.646750417E0,1.726948977E0,-8.323108554E-1,-3.245791495E-1
3.649142552E0,1.788035393E0,-8.017675877E-1,-3.392398953E-1
3.651533802E0,1.833239436E0,-7.797764540E-1,-3.514571786E-1
3.653924323E0,1.862560987E0,-7.602288127E-1,-3.648962080E-1
3.656315625E0,1.886995554E0,-7.345724702E-1,-3.807787001E-1
3.658707761E0,1.906543136E0,-6.942554116E-1,-3.856656253E-1
3.661099011E0,1.907764912E0,-6.441645026E-1,-3.881090879E-1
3.663489584E0,1.893104196E0,-5.720824599E-1,-3.868873417E-1
3.665880886E0,1.863782644E0,-4.828961790E-1,-3.856656253E-1
3.668273021E0,1.823465586E0,-3.839361072E-1,-3.795569539E-1
3.670664271E0,1.777039886E0,-2.776456475E-1,-3.697831333E-1
3.673054792E0,1.720840335E0,-1.750203818E-1,-3.539006412E-1
3.675446094E0,1.660975575E0,-7.606029510E-2,-3.355747163E-1
3.677838230E0,1.599889159E0,1.434768550E-2,-3.148052990E-1
3.680229480E0,1.537580848E0,1.047556624E-1,-2.940359116E-1
3.682620052E0,1.471607566E0,1.866115332E-1,-2.720447779E-1
3.685011355E0,1.404412389E0,2.562501431E-1,-2.488319129E-1
3.687403490E0,1.338438988E0,3.112279475E-1,-2.207321525E-1
3.689794740E0,1.279796004E0,3.576536775E-1,-1.914106458E-1
3.692185261E0,1.224818110E0,3.955272734E-1,-1.657543331E-1
3.694576563E0,1.173505545E0,4.187401533E-1,-1.376545578E-1
3.696968698E0,1.135631919E0,4.334008992E-1,-1.058895886E-1
3.699360000E0,1.109975576E0,4.407312572E-1,-7.412461936E-2
3.701750521E0,1.100201726E0,4.407312572E-1,-3.869445994E-2
3.704141823E0,1.107532144E0,4.285139740E-1,-2.042576671E-3
3.706533959E0,1.129523277E0,4.114097655E-1,3.583103418E-2
3.708925209E0,1.167396903E0,3.943055570E-1,7.248291373E-2
3.711315730E0,1.216266036E0,3.710927069E-1,1.127999872E-1
3.713707032E0,1.274909019E0,3.491015732E-1,1.506735981E-1
3.716099167E0,1.340882421E0,3.319973648E-1,1.861037463E-1
3.718490469E0,1.410521030E0,3.185583353E-1,2.215339094E-1
3.720880990E0,1.480159640E0,3.051193058E-1,2.532988787E-1
3.723272292E0,1.546133041E0,2.880150974E-1,2.862855792E-1
3.725664427E0,1.612106442E0,2.672457099E-1,3.156070709E-1
3.728055677E0,1.665862441E0,2.513631880E-1,3.424851298E-1
3.730446198E0,1.713509917E0,2.330372483E-1,3.681414425E-1
3.732837552E0,1.748940110E0,2.195982188E-1,3.876891136E-1
3.735229688E0,1.769709468E0,2.171547711E-1,4.047933221E-1
3.737620938E0,1.777039886E0,2.244851440E-1,4.109019935E-1
3.740011459E0,1.773374677E0,2.379241735E-1,4.121237099E-1
3.742402761E0,1.756270528E0,2.635805011E-1,3.999064267E-1
3.744794896E0,1.729392409E0,2.831281722E-1,3.803587556E-1
3.747186146E0,1.695183992E0,3.124496639E-1,3.559241593E-1
3.749576719E0,1.659753799E0,3.454363644E-1,3.278243840E-1
3.751968021E0,1.616993308E0,3.772013485E-1,2.948376834E-1
3.754360157E0,1.576676250E0,4.065228403E-1,2.606292665E-1
3.756751407E0,1.537580848E0,4.321791530E-1,2.251990885E-1
3.759141927E0,1.499707341E0,4.529485703E-1,1.897689402E-1
3.761533230E0,1.464277148E0,4.700527787E-1,1.555605084E-1
3.763925365E0,1.431290388E0,4.786048830E-1,1.262390018E-1
3.766316615E0,1.406855822E0,4.896004498E-1,9.569576383E-2
3.768707188E0,1.390973330E0,5.054829121E-1,6.759598851E-2
3.771098490E0,1.387308121E0,5.274740458E-1,4.071795195E-2
3.773490625E0,1.386086464E0,5.457999706E-1,1.261817664E-2
3.775881875E0,1.394638538E0,5.604607463E-1,-1.303814352E-2
3.778272396E0,1.404412389E0,5.604607463E-1,-3.869445994E-2
3.780663698E0,1.414186239E0,5.396913290E-1,-5.824213102E-2
3.783055834E0,1.423960090E0,5.042611957E-1,-7.656808197E-2
3.785447084E0,1.432512164E0,4.541702867E-1,-9.000709653E-2
3.787837657E0,1.439842582E0,4.089663029E-1,-1.010026634E-1
3.790228959E0,1.445951223E0,3.613188565E-1,-1.107764989E-1
3.792621094E0,1.448394656E0,3.161148727E-1,-1.181068867E-1
3.795012344E0,1.450838089E0,2.770195305E-1,-1.254372597E-1
3.797402865E0,1.453281522E0,2.415893525E-1,-1.291024387E-1
3.799794167E0,1.453281522E0,2.000505477E-1,-1.352110952E-1
3.802186302E0,1.459390163E0,1.597334892E-1,-1.388762742E-1
3.804577605E0,1.466720581E0,1.279685199E-1,-1.400980055E-1
3.806968125E0,1.474050999E0,1.010904759E-1,-1.388762742E-1
3.809359427E0,1.481381297E0,8.765144646E-2,-1.425414681E-1
3.811751563E0,1.483824849E0,9.009490907E-2,-1.425414681E-1
3.814142813E0,1.482603073E0,9.986874461E-2,-1.437631994E-1
3.816533334E0,1.472829223E0,1.108643115E-1,-1.449849308E-1
3.818924636E0,1.459390163E0,1.230816096E-1,-1.462066621E-1
3.821316771E0,1.441064239E0,1.291902512E-1,-1.486501098E-1
3.823708073E0,1.421516657E0,1.279685199E-1,-1.498718411E-1
3.826098594E0,1.404412389E0,1.145294905E-1,-1.547587663E-1
3.828489896E0,1.386086464E0,1.010904759E-1,-1.596456766E-1
3.830882032E0,1.372647405E0,8.398626745E-2,-1.657543331E-1
3.833273282E0,1.361651897E0,6.199513376E-2,-1.730847061E-1
3.835663802E0,1.351878047E0,3.633881360E-2,-1.791933626E-1
3.838055105E0,1.344547629E0,1.556941681E-2,-1.865237355E-1
3.840447292E0,1.339660764E0,-1.008690335E-2,-1.975193024E-1
3.842838542E0,1.337217212E0,-2.719111182E-2,-2.109583169E-1
3.845229063E0,1.335995555E0,-4.063014314E-2,-2.231756151E-1
3.847620365E0,1.332330346E0,-4.918224737E-2,-2.341711819E-1
3.850012500E0,1.326221704E0,-5.284743384E-2,-2.451667488E-1
3.852403750E0,1.318891287E0,-5.651262030E-2,-2.573840320E-1
3.854794271E0,1.307895780E0,-6.384299695E-2,-2.720447779E-1
3.857185625E0,1.295678496E0,-7.239510119E-2,-2.854838073E-1
3.859577761E0,1.281017661E0,-8.339066803E-2,-2.964793742E-1
3.861969011E0,1.266356945E0,-9.682969749E-2,-3.062531948E-1
3.864359532E0,1.254139662E0,-1.066035330E-1,-3.160270452E-1
3.866750834E0,1.240700603E0,-1.127121896E-1,-3.209139705E-1
3.869142969E0,1.232148528E0,-1.163773686E-1,-3.282443285E-1
3.871534219E0,1.222374678E0,-1.151556373E-1,-3.355747163E-1
3.873924740E0,1.212600827E0,-1.175990999E-1,-3.392398953E-1
3.876316094E0,1.206492186E0,-1.212642938E-1,-3.441268206E-1
3.878708230E0,1.200383544E0,-1.310381293E-1,-3.502354622E-1
3.881099480E0,1.195496678E0,-1.432554126E-1,-3.551223874E-1
3.883490000E0,1.193053246E0,-1.518075317E-1,-3.600093126E-1
3.885881302E0,1.191831470E0,-1.591379046E-1,-3.624527454E-1
3.888273438E0,1.191831470E0,-1.676900089E-1,-3.636744916E-1
3.890664688E0,1.190609694E0,-1.750203818E-1,-3.673396707E-1
3.893055261E0,1.194274902E0,-1.762421131E-1,-3.661179543E-1
3.895446563E0,1.199161887E0,-1.762421131E-1,-3.685614169E-1
3.897838698E0,1.205270529E0,-1.725769192E-1,-3.710048497E-1
3.900229948E0,1.211379170E0,-1.689117402E-1,-3.734483123E-1
3.902620469E0,1.217487812E0,-1.628030837E-1,-3.746700585E-1
3.905011771E0,1.224818110E0,-1.579161733E-1,-3.758917749E-1
3.907403907E0,1.232148528E0,-1.481423378E-1,-3.820004165E-1
3.909795157E0,1.238257170E0,-1.383685023E-1,-3.856656253E-1
3.912185677E0,1.246809244E0,-1.249294728E-1,-3.893308043E-1
3.914577032E0,1.255361438E0,-1.139339060E-1,-3.966611922E-1
3.916969167E0,1.265135288E0,-9.927316010E-2,-3.991046548E-1
3.919360417E0,1.274909019E0,-8.705586195E-2,-4.039915502E-1
3.921750938E0,1.278574228E0,-6.872992218E-2,-4.052132964E-1
3.924142240E0,1.285904646E0,-5.406916514E-2,-4.088784754E-1
3.926534375E0,1.292013288E0,-3.940841183E-2,-4.174305797E-1
3.928925625E0,1.299343705E0,-2.719111182E-2,-4.284261465E-1
3.931316198E0,1.301787138E0,-1.986073889E-2,-4.369782507E-1
3.933707500E0,1.301787138E0,-1.497382112E-2,-4.430868924E-1
3.936099636E0,1.296900153E0,-1.130863465E-2,-4.516389966E-1
3.938490886E0,1.287126422E0,-1.130863465E-2,-4.577476382E-1
3.940881407E0,1.273687363E0,-1.253036223E-2,-4.626345634E-1
3.943272709E0,1.255361438E0,-1.986073889E-2,-4.675214887E-1
3.945664844E0,1.230926752E0,-2.474765666E-2,-4.724084139E-1
3.948056094E0,1.201605320E0,-3.207803890E-2,-4.772953391E-1
3.950446667E0,1.172283769E0,-6.262126565E-2,-4.834039807E-1
3.952837969E0,1.138075352E0,-8.583413064E-2,-4.846256971E-1
3.955230105E0,1.102645159E0,-1.114904583E-1,-4.882908762E-1
3.957621355E0,1.064771652E0,-1.359250396E-1,-4.931778014E-1
3.960011875E0,1.026898026E0,-1.542509794E-1,-4.956212640E-1
3.962403177E0,9.853591919E-1,-1.701334715E-1,-4.968429804E-1
3.964795313E0,9.413769245E-1,-1.835724860E-1,-4.980647266E-1
3.967186563E0,8.986163735E-1,-2.018984407E-1,-5.005081892E-1
3.969577136E0,8.509689569E-1,-2.190026492E-1,-4.992864132E-1
3.971968438E0,8.033214808E-1,-2.385503203E-1,-4.968429804E-1
3.974360573E0,7.568957806E-1,-2.629849017E-1,-4.956212640E-1
3.976751823E0,7.104700804E-1,-2.910846770E-1,-4.870691597E-1
3.979142344E0,6.640443206E-1,-3.228496313E-1,-4.785170555E-1
3.981533646E0,6.200621128E-1,-3.582797945E-1,-4.650780261E-1
3.983925782E0,5.785232782E-1,-4.010403156E-1,-4.491955340E-1
3.986317032E0,5.394279361E-1,-4.401356578E-1,-4.284261465E-1
3.988707605E0,5.064412355E-1,-4.792309701E-1,-4.064350128E-1
3.991098907E0,4.771197140E-1,-5.146611929E-1,-3.844438791E-1
3.993491042E0,4.490199387E-1,-5.427609682E-1,-3.587875664E-1
3.995882292E0,4.233636260E-1,-5.720824599E-1,-3.343529701E-1
3.998272813E0,3.977073133E-1,-6.026257277E-1,-3.099184036E-1
4.000664115E0,3.732727170E-1,-6.343906522E-1,-2.879272699E-1
4.003056250E0,3.439511955E-1,-6.649339199E-1,-2.708230317E-1
4.005447500E0,3.085210621E-1,-6.869250536E-1,-2.549405694E-1
4.007838073E0,2.718691528E-1,-7.064726949E-1,-2.415015548E-1
4.010229375E0,2.291086316E-1,-7.150248289E-1,-2.341711819E-1
4.012621511E0,1.826829165E-1,-7.223551869E-1,-2.305059880E-1
4.015012761E0,1.325920075E-1,-7.223551869E-1,-2.268408090E-1
4.017403282E0,8.005763590E-2,-7.150248289E-1,-2.268408090E-1
4.019794584E0,2.263635583E-2,-7.052509785E-1,-2.317277193E-1
4.022186719E0,-3.478492796E-2,-6.942554116E-1,-2.341711819E-1
4.024577969E0,-9.098448604E-2,-6.844815612E-1,-2.341711819E-1
4.026968542E0,-1.471840292E-1,-6.795946360E-1,-2.341711819E-1
4.029359844E0,-1.997184008E-1,-6.795946360E-1,-2.305059880E-1
4.031751980E0,-2.485875785E-1,-6.918119788E-1,-2.231756151E-1
4.034143230E0,-2.937915623E-1,-7.138030529E-1,-2.097365856E-1
4.036533750E0,-3.389955461E-1,-7.382376790E-1,-1.901889145E-1
4.038925052E0,-3.805343509E-1,-7.651157379E-1,-1.718629748E-1
4.041317188E0,-4.232948720E-1,-7.846633792E-1,-1.510935724E-1
4.043708438E0,-4.684988856E-1,-7.944372296E-1,-1.315459013E-1
4.046099011E0,-5.149245858E-1,-7.944372296E-1,-1.119982302E-1
4.048490313E0,-5.699024200E-1,-7.883285880E-1,-9.245055914E-2
4.050882448E0,-6.285454035E-1,-7.736678123E-1,-7.534635067E-2
4.053273698E0,-6.945188046E-1,-7.516766787E-1,-5.579867586E-2
4.055664219E0,-7.629356384E-1,-7.211334705E-1,-3.502927348E-2
4.058055521E0,-8.337959647E-1,-6.795946360E-1,-1.181641407E-2
4.060447657E0,-9.046562314E-1,-6.270602942E-1,1.628336310E-2
4.062838907E0,-9.742948413E-1,-5.659738183E-1,4.682660103E-2
4.065229480E0,-1.042711735E0,-5.024439096E-1,8.347848058E-2
4.067620782E0,-1.109906793E0,-4.340270162E-1,1.237955540E-1
4.070012917E0,-1.173436761E0,-3.704970777E-1,1.702212691E-1
4.072404167E0,-1.230857968E0,-3.094106019E-1,2.166469842E-1
4.074794688E0,-1.284614086E0,-2.532110512E-1,2.679596245E-1
4.077185990E0,-1.335926771E0,-2.067853361E-1,3.180505335E-1
4.079578125E0,-1.387239337E0,-1.676900089E-1,3.705849051E-1
4.081969375E0,-1.439773798E0,-1.371467710E-1,4.255627394E-1
4.084359948E0,-1.491086364E0,-1.212642938E-1,4.780970812E-1
4.086751250E0,-1.539955616E0,-1.114904583E-1,5.281879902E-1
4.089143386E0,-1.591268182E0,-1.175990999E-1,5.746137500E-1
4.091534636E0,-1.642580867E0,-1.408119649E-1,6.173742414E-1
4.093925157E0,-1.700002074E0,-1.799073070E-1,6.540261507E-1
4.096316459E0,-1.759866834E0,-2.299982160E-1,6.882345676E-1
4.098708594E0,-1.822175026E0,-2.886412144E-1,7.187777758E-1
4.101099844E0,-1.891813636E0,-3.533928692E-1,7.456558347E-1
4.103490417E0,-1.957787037E0,-4.144793451E-1,7.700904608E-1
4.105881719E0,-2.024982214E0,-4.804527462E-1,7.933033109E-1
4.108273855E0,-2.090955734E0,-5.427609682E-1,8.152944446E-1
4.110665105E0,-2.153263807E0,-5.989605188E-1,8.348420858E-1
4.113055625E0,-2.213128567E0,-6.563817859E-1,8.543897867E-1
4.115446927E0,-2.268106461E0,-7.125813365E-1,8.714939952E-1
4.117839063E0,-2.318197250E0,-7.541201711E-1,8.861547112E-1
4.120230313E0,-2.363401413E0,-7.834416628E-1,8.959285617E-1
4.122620834E0,-2.406161785E0,-8.042110801E-1,9.069241285E-1
4.125012188E0,-2.444035530E0,-8.152066469E-1,9.118110538E-1
4.127404323E0,-2.479465723E0,-8.078762293E-1,9.130327702E-1
4.129795573E0,-2.513674021E0,-7.883285880E-1,9.154762626E-1
4.132186094E0,-2.544217348E0,-7.565636039E-1,9.154762626E-1
4.134577396E0,-2.571095228E0,-7.211334705E-1,9.032589197E-1
4.136969532E0,-2.597973347E0,-6.844815612E-1,8.861547112E-1
4.139360782E0,-2.622407913E0,-6.576035023E-1,8.727157116E-1
4.141751302E0,-2.645620823E0,-6.343906522E-1,8.592767119E-1
4.144142657E0,-2.671277046E0,-6.209516525E-1,8.458376527E-1
4.146534792E0,-2.685937881E0,-6.123995185E-1,8.214030862E-1
4.148926042E0,-2.689603090E0,-5.916301608E-1,7.896381021E-1
4.151316563E0,-2.676164150E0,-5.684172511E-1,7.566514015E-1
4.153707865E0,-2.650507689E0,-5.549782515E-1,7.261081934E-1
4.156100000E0,-2.613855839E0,-5.537565351E-1,6.992301345E-1
4.158491250E0,-2.567430258E0,-5.659738183E-1,6.796824336E-1
4.160881771E0,-2.511230707E0,-5.842997432E-1,6.601347923E-1
4.163273125E0,-2.447700739E0,-6.075125933E-1,6.454740167E-1
4.165665261E0,-2.381727219E0,-6.404992938E-1,6.430305839E-1
4.168056511E0,-2.307201862E0,-6.905902028E-1,6.430305839E-1
4.170447032E0,-2.233897924E0,-7.516766787E-1,6.430305839E-1
4.172838334E0,-2.166702986E0,-8.347542882E-1,6.418088675E-1
4.175230469E0,-2.104394674E0,-9.398230314E-1,6.344784498E-1
4.177621719E0,-2.050638676E0,-1.057108879E0,6.185959578E-1
4.180012240E0,-2.005434513E0,-1.192720890E0,5.941613913E-1
4.182403542E0,-1.971226096E0,-1.335663199E0,5.648398995E-1
4.184795730E0,-1.944347978E0,-1.473718643E0,5.294097662E-1
4.187186980E0,-1.919913411E0,-1.581230879E0,4.964230657E-1
4.189577500E0,-1.891813636E0,-1.654534578E0,4.658797979E-1
4.191968802E0,-1.860048652E0,-1.688743114E0,4.365583062E-1
4.194360938E0,-1.827062011E0,-1.694851756E0,4.121237099E-1
4.196752188E0,-1.794075251E0,-1.677747488E0,3.901325762E-1
4.199142709E0,-1.758645177E0,-1.638652205E0,3.742500842E-1
4.201534011E0,-1.723214984E0,-1.589782953E0,3.620328009E-1
4.203926146E0,-1.682897925E0,-1.528696537E0,3.571458757E-1
4.206317448E0,-1.641359091E0,-1.452949286E0,3.571458757E-1
4.208707969E0,-1.598598599E0,-1.368649960E0,3.583676219E-1
4.211099271E0,-1.559503198E0,-1.273355007E0,3.644762635E-1
4.213491407E0,-1.522851348E0,-1.178060174E0,3.742500842E-1
4.215882657E0,-1.489864707E0,-1.091317415E0,3.779152930E-1
4.218273177E0,-1.466651797E0,-1.014348388E0,3.754718304E-1
4.220664480E0,-1.449547648E0,-9.532620907E-1,3.718066514E-1
4.223056615E0,-1.437330246E0,-9.056146145E-1,3.693631887E-1
4.225447865E0,-1.432443380E0,-8.714061975E-1,3.620328009E-1
4.227838438E0,-1.428778172E0,-8.420846462E-1,3.559241593E-1
4.230229740E0,-1.429999948E0,-8.262022138E-1,3.522589803E-1
4.232621875E0,-1.438552022E0,-8.152066469E-1,3.461503088E-1
4.235013125E0,-1.453212738E0,-8.078762293E-1,3.424851298E-1
4.237403646E0,-1.469095230E0,-8.090980053E-1,3.400416672E-1
4.239794948E0,-1.487421155E0,-8.152066469E-1,3.339330256E-1
4.242187084E0,-1.506968856E0,-8.262022138E-1,3.266026378E-1
4.244578334E0,-1.519186139E0,-8.433064222E-1,3.192722797E-1
4.246968907E0,-1.532625198E0,-8.750713468E-1,3.156070709E-1
4.249360209E0,-1.544842482E0,-9.190536141E-1,3.131636381E-1
4.251752344E0,-1.548507690E0,-9.715880156E-1,3.143853545E-1
4.254143594E0,-1.548507690E0,-1.021678805E0,3.302678466E-1
4.256534115E0,-1.532625198E0,-1.054665446E0,3.583676219E-1
4.258925417E0,-1.508190632E0,-1.042448163E0,3.986846805E-1
4.261317552E0,-1.478869081E0,-9.984659553E-1,4.365583062E-1
4.263708802E0,-1.450769305E0,-9.386013150E-1,4.646580815E-1
4.266099323E0,-1.431221604E0,-8.714061975E-1,4.744319320E-1
4.268490677E0,-1.414117455E0,-7.846633792E-1,4.671015143E-1
4.270882813E0,-1.393347979E0,-6.441645026E-1,4.512190521E-1
4.273274063E0,-1.362804770E0,-4.401356578E-1,4.377800226E-1
4.275664584E0,-1.331039786E0,-1.860159487E-1,4.292279184E-1
4.278055886E0,-1.301718354E0,7.054723799E-2,4.341148436E-1
4.280448021E0,-1.288279295E0,3.014541268E-1,4.451104105E-1
4.282839271E0,-1.301718354E0,4.773831666E-1,4.573276937E-1
4.285229792E0,-1.332261562E0,5.971125960E-1,4.622146189E-1
4.287621094E0,-1.379909039E0,6.801902056E-1,4.548842311E-1
4.290013282E0,-1.436108589E0,7.315028310E-1,4.451104105E-1
4.292404532E0,-1.489864707E0,7.534939647E-1,4.194540977E-1
4.294795052E0,-1.537512064E0,7.510505319E-1,3.925760388E-1
4.297186355E0,-1.582716107E0,7.302811146E-1,3.693631887E-1
4.299578490E0,-1.614481091E0,7.046247721E-1,3.485937715E-1
4.301969740E0,-1.636472225E0,6.814119220E-1,3.290461004E-1
4.304360261E0,-1.645024300E0,6.643077135E-1,3.180505335E-1
4.306751563E0,-1.648689508E0,6.606425643E-1,3.107201755E-1
4.309143698E0,-1.649911165E0,6.484252214E-1,3.021680713E-1
4.311535000E0,-1.652354717E0,6.362079382E-1,2.923942208E-1
4.313925521E0,-1.651132941E0,6.239906549E-1,2.826204002E-1
4.316316823E0,-1.643802524E0,6.178820133E-1,2.667379081E-1
4.318708959E0,-1.631585240E0,6.019995213E-1,2.508554161E-1
4.321100209E0,-1.620589733E0,5.922256708E-1,2.325294763E-1
4.323490730E0,-1.608372450E0,5.726780295E-1,2.129818052E-1
4.325882032E0,-1.597376823E0,5.531303287E-1,1.934341192E-1
4.328274167E0,-1.588824749E0,5.384696126E-1,1.726647168E-1
4.330665417E0,-1.582716107E0,5.323609710E-1,1.543387771E-1
4.333055990E0,-1.576607466E0,5.348044038E-1,1.347911060E-1
4.335447292E0,-1.569277048E0,5.494651794E-1,1.164651662E-1
4.337839427E0,-1.559503198E0,5.775649548E-1,1.005826890E-1
4.340230677E0,-1.554616332E0,6.117733717E-1,8.958712220E-2
4.342621198E0,-1.547285914E0,6.533121467E-1,7.370464504E-2
4.345012500E0,-1.541177273E0,7.034030557E-1,6.270908564E-2
4.347404636E0,-1.535068631E0,7.547156811E-1,5.537870526E-2
4.349795886E0,-1.531403422E0,8.084717989E-1,5.293525010E-2
4.352186407E0,-1.528959990E0,8.610061407E-1,5.171351880E-2
4.354577761E0,-1.528959990E0,9.123188257E-1,5.537870526E-2
4.356969896E0,-1.527738214E0,9.587445259E-1,6.881771982E-2
4.359361146E0,-1.522851348E0,1.000283360E0,8.225674927E-2
4.361751667E0,-1.522851348E0,1.051596045E0,9.936095774E-2
4.364142969E0,-1.517964482E0,1.093134880E0,1.176868975E-1
4.366535105E0,-1.506968856E0,1.118791223E0,1.396780312E-1
4.368926355E0,-1.494751573E0,1.135895371E0,1.555605084E-1
4.371316875E0,-1.481312513E0,1.151777864E0,1.738864481E-1
4.373708177E0,-1.460543156E0,1.172547340E0,1.934341192E-1
4.376100313E0,-1.436108589E0,1.185986280E0,2.105383426E-1
4.378491615E0,-1.404343605E0,1.204312205E0,2.264208049E-1
4.380882136E0,-1.368913412E0,1.218973041E0,2.386381179E-1
4.383273438E0,-1.328596354E0,1.240964174E0,2.459685057E-1
4.385665573E0,-1.285835862E0,1.271507382E0,2.471902221E-1
4.388056823E0,-1.240631819E0,1.310602665E0,2.496336848E-1
4.390447344E0,-1.192984462E0,1.354584932E0,2.520771623E-1
4.392838646E0,-1.142893553E0,1.404675841E0,2.484119385E-1
4.395230782E0,-1.092802644E0,1.464540601E0,2.471902221E-1
4.397622032E0,-1.041489959E0,1.523183703E0,2.484119385E-1
4.400012605E0,-9.913990498E-1,1.587935328E0,2.459685057E-1
4.402403907E0,-9.413081408E-1,1.657573938E0,2.423032969E-1
4.404796042E0,-8.899955153E-1,1.724768996E0,2.398598343E-1
4.407187292E0,-8.337959647E-1,1.788298965E0,2.398598343E-1
4.409577813E0,-7.788181305E-1,1.850607157E0,2.386381179E-1
4.411969115E0,-7.226185799E-1,1.912915349E0,2.349729389E-1
4.414361250E0,-6.651973128E-1,1.977666974E0,2.300860137E-1
4.416752500E0,-6.114411950E-1,2.041196823E0,2.251990885E-1
4.419143021E0,-5.552416444E-1,2.102283239E0,2.239773721E-1
4.421534323E0,-5.002638102E-1,2.158482790E0,2.215339094E-1
4.423926511E0,-4.416208267E-1,2.204908609E0,2.178687006E-1
4.426317761E0,-3.817560971E-1,2.244004011E0,2.178687006E-1
4.428708282E0,-3.218913376E-1,2.273325443E0,2.154252678E-1
4.431099584E0,-2.583613992E-1,2.297760010E0,2.129818052E-1
4.433491719E0,-1.911662966E-1,2.311198950E0,2.080948800E-1
4.435882969E0,-1.203059927E-1,2.314864159E0,2.032079548E-1
4.438273490E0,-4.333703592E-2,2.297760010E0,2.007645071E-1
4.440664792E0,3.729711100E-2,2.274547100E0,1.934341192E-1
4.443056927E0,1.228181645E-1,2.245225668E0,1.909906715E-1
4.445448177E0,2.107826918E-1,2.212239027E0,1.909906715E-1
4.447838750E0,3.011906743E-1,2.169478416E0,1.934341192E-1
4.450230052E0,3.940421045E-1,2.123052597E0,1.958775818E-1
4.452622188E0,4.856718183E-1,2.074183464E0,1.995427758E-1
4.455013438E0,5.785232782E-1,2.019205570E0,2.007645071E-1
4.457403959E0,6.701530218E-1,1.953232408E0,2.032079548E-1
4.459795261E0,7.568957806E-1,1.888480783E0,2.056514174E-1
4.462187396E0,8.375298977E-1,1.818842173E0,2.068731487E-1
4.464578646E0,9.132771492E-1,1.751646996E0,2.068731487E-1
4.466969219E0,9.816939831E-1,1.688117146E0,2.056514174E-1
4.469360521E0,1.041558743E0,1.617256761E0,2.056514174E-1
4.471752657E0,1.094093084E0,1.537844419E0,2.007645071E-1
4.474143907E0,1.130745053E0,1.452323318E0,1.922123879E-1
4.476534427E0,1.147849202E0,1.360693574E0,1.836602837E-1
4.478925730E0,1.153957844E0,1.245851040E0,1.763299108E-1
4.481317865E0,1.140518785E0,1.121234655E0,1.616691649E-1
4.483709115E0,1.106310368E0,9.782921672E-1,1.518953294E-1
4.486099636E0,1.048889160E0,8.072500825E-1,1.421214938E-1
4.488490938E0,9.731419086E-1,6.227689385E-1,1.311259270E-1
4.490883073E0,8.827339411E-1,4.285139740E-1,1.213520914E-1
4.493274375E0,7.837738395E-1,2.305937856E-1,1.140217036E-1
4.495664896E0,6.811485291E-1,3.756054491E-2,1.042478830E-1
4.498056198E0,5.748580694E-1,-1.408119649E-1,9.447403252E-2
4.500448334E0,4.697893262E-1,-3.033019602E-1,8.225674927E-2
4.502839584E0,3.708292544E-1,-4.438008368E-1,6.759598851E-2
4.505230105E0,2.779778242E-1,-5.586434603E-1,5.415697396E-2
4.507621407E0,1.924567521E-1,-6.490514278E-1,3.827448934E-2
4.510013542E0,1.167095229E-1,-6.979206204E-1,2.605719864E-2
4.512404792E0,4.951440170E-2,-7.223551869E-1,1.872682199E-2
4.514795365E0,-6.685150322E-3,-7.138030529E-1,1.383990422E-2
4.517186667E0,-5.921951681E-2,-6.832598448E-1,1.261817664E-2
4.519578802E0,-1.019800529E-1,-6.527166367E-1,1.506163180E-2
4.521970052E0,-1.435188502E-1,-6.050691605E-1,1.872682199E-2
4.524360573E0,-1.838359237E-1,-5.574216843E-1,2.483546734E-2
4.526751875E0,-2.229312658E-1,-5.061090589E-1,3.705276549E-2
4.529144011E0,-2.693569660E-1,-4.572398961E-1,5.415697396E-2
4.531535261E0,-3.157826960E-1,-4.095924199E-1,6.881771982E-2
4.533925782E0,-3.683170676E-1,-3.753840029E-1,8.836539090E-2
4.536317084E0,-4.208514392E-1,-3.570580482E-1,1.091347933E-1
4.538709219E0,-4.758292437E-1,-3.448407650E-1,1.347911060E-1
4.541100521E0,-5.234766603E-1,-3.546145856E-1,1.604474336E-1
4.543491042E0,-5.686806440E-1,-3.802709281E-1,1.885472089E-1
4.545882344E0,-6.041108370E-1,-4.095924199E-1,2.178687006E-1
4.548274480E0,-6.285454035E-1,-4.499094784E-1,2.459685057E-1
4.550665730E0,-6.419844031E-1,-4.963352382E-1,2.752900124E-1
4.553056250E0,-6.468713284E-1,-5.439826846E-1,3.021680713E-1
4.555447552E0,-6.432061791E-1,-5.830780268E-1,3.229374588E-1
4.557839688E0,-6.297671199E-1,-6.221733689E-1,3.437068462E-1
4.560230938E0,-6.102194786E-1,-6.441645026E-1,3.571458757E-1
4.562621511E0,-5.833414197E-1,-6.551600695E-1,3.656979799E-1
4.565012813E0,-5.564633608E-1,-6.490514278E-1,3.730283678E-1
4.567404948E0,-5.259201527E-1,-6.282820106E-1,3.693631887E-1
4.569796198E0,-4.965986609E-1,-5.904083848E-1,3.595893383E-1
4.572186719E0,-4.684988856E-1,-5.452044010E-1,3.449285924E-1
4.574578021E0,-4.416208267E-1,-4.853396714E-1,3.266026378E-1
4.576970157E0,-4.171862304E-1,-4.169228077E-1,3.021680713E-1
4.579361407E0,-3.927516639E-1,-3.375103772E-1,2.740682960E-1
4.581751927E0,-3.707605302E-1,-2.544327676E-1,2.459685057E-1
4.584143230E0,-3.487693965E-1,-1.713552028E-1,2.129818052E-1
4.586535365E0,-3.279999793E-1,-8.339066803E-2,1.763299108E-1
4.588926667E0,-3.084523082E-1,7.017308380E-3,1.335693747E-1
4.591317188E0,-2.913480997E-1,9.620355070E-2,8.958712220E-2
4.593708490E0,-2.779090703E-1,1.768376976E-1,4.438313842E-2
4.596100625E0,-2.681352496E-1,2.464762777E-1,1.622609678E-3
4.598491875E0,-2.595831454E-1,2.977889180E-1,-4.113792256E-2
4.600882396E0,-2.571396828E-1,3.417711854E-1,-8.389845490E-2
4.603273698E0,-2.583613992E-1,3.686492443E-1,-1.242155284E-1
4.605665834E0,-2.620266080E-1,3.845317066E-1,-1.596456766E-1
4.608057084E0,-2.656917870E-1,3.955272734E-1,-1.962975711E-1
4.610447605E0,-2.669135034E-1,4.089663029E-1,-2.305059880E-1
4.612838959E0,-2.681352496E-1,4.260705113E-1,-2.622709274E-1
4.615231094E0,-2.693569660E-1,4.431747198E-1,-2.903707325E-1
4.617622344E0,-2.730221748E-1,4.688310325E-1,-3.160270452E-1
4.620012865E0,-2.742438912E-1,4.871569872E-1,-3.380181789E-1
4.622404167E0,-2.779090703E-1,5.005959868E-1,-3.575658500E-1
4.624796302E0,-2.730221748E-1,5.042611957E-1,-3.697831333E-1
4.627187552E0,-2.620266080E-1,5.042611957E-1,-3.771135211E-1
4.629578073E0,-2.363702804E-1,4.993742704E-1,-3.734483123E-1
4.631969375E0,-1.948314756E-1,4.944873750E-1,-3.648962080E-1
4.634361511E0,-1.422971189E-1,4.920439124E-1,-3.502354622E-1
4.636752761E0,-8.121065050E-2,4.883787334E-1,-3.294660747E-1
4.639143334E0,-1.157206856E-2,4.627223909E-1,-3.074749410E-1
4.641534636E0,6.050996855E-2,4.272922575E-1,-2.842620611E-1
4.643926771E0,1.472527683E-1,3.784230649E-1,-2.598274648E-1
4.646318021E0,2.523214817E-1,3.210017979E-1,-2.317277193E-1
4.648708542E0,3.757161796E-1,2.538066506E-1,-1.999627501E-1
4.651099844E0,5.137716532E-1,1.939419061E-1,-1.645326018E-1
4.653491980E0,6.591574550E-1,1.279685199E-1,-1.242155284E-1
4.655883230E0,8.020997643E-1,6.443858892E-2,-8.389845490E-2
4.658273750E0,9.401552081E-1,5.795580801E-3,-4.602484033E-2
4.660665052E0,1.067215085E0,-5.040397868E-2,-1.303814352E-2
4.663057188E0,1.185722828E0,-1.004948914E-1,1.506163180E-2
4.665448438E0,1.287126422E0,-1.432554126E-1,3.583103418E-2
4.667839011E0,1.378756046E0,-1.860159487E-1,4.927005619E-2
4.670230313E0,1.455725074E0,-2.275547534E-1,6.026562303E-2
4.672622448E0,1.519254923E0,-2.739804685E-1,6.637427211E-2
4.675013698E0,1.569345832E0,-3.277365565E-1,6.026562303E-2
4.677404219E0,1.608441234E0,-3.863795698E-1,4.804832488E-2
4.679795521E0,1.642649651E0,-4.389139414E-1,2.850065380E-2
4.682187657E0,1.668305993E0,-4.865613878E-1,4.066068679E-3
4.684578907E0,1.684188485E0,-5.354306102E-1,-3.014235571E-2
4.686969427E0,1.695183992E0,-5.867432356E-1,-6.679424644E-2
4.689360730E0,1.701292634E0,-6.466079354E-1,-1.034461260E-1
4.691752865E0,1.701292634E0,-7.235769033E-1,-1.364328265E-1
4.694144167E0,1.691518784E0,-8.127631545E-1,-1.669760644E-1
4.696534688E0,1.665862441E0,-9.056146145E-1,-1.901889145E-1
4.698925990E0,1.629210591E0,-1.008239746E0,-2.109583169E-1
4.701318125E0,1.581563115E0,-1.110864997E0,-2.256190777E-1
4.703709375E0,1.527807117E0,-1.195164323E0,-2.378363758E-1
4.706099896E0,1.467942357E0,-1.259916067E0,-2.427232862E-1
4.708491198E0,1.412964463E0,-1.301454782E0,-2.439450175E-1
4.710883334E0,1.366538763E0,-1.310006976E0,-2.476101965E-1
4.713274584E0,1.334773779E0,-1.285572290E0,-2.488319129E-1
4.715665105E0,1.317669630E0,-1.229372740E0,-2.476101965E-1
4.718056459E0,1.322556496E0,-1.154847264E0,-2.463884801E-1
4.720448594E0,1.339660764E0,-1.052222013E0,-2.512753606E-1
4.722839844E0,1.372647405E0,-9.361578226E-1,-2.586057484E-1
4.725230365E0,1.414186239E0,-8.164283633E-1,-2.671578526E-1
4.727621667E0,1.464277148E0,-6.942554116E-1,-2.805968821E-1
4.730013802E0,1.521698356E0,-5.794128180E-1,-2.977010906E-1
4.732405052E0,1.579119682E0,-4.780092537E-1,-3.160270452E-1
4.734795573E0,1.635319233E0,-3.973751366E-1,-3.392398953E-1
4.737186875E0,1.689075351E0,-3.375103772E-1,-3.673396707E-1
4.739579011E0,1.736722827E0,-2.935281098E-1,-3.942177296E-1
4.741970261E0,1.778261542E0,-2.690935433E-1,-4.186522961E-1
4.744360834E0,1.816135168E0,-2.568762302E-1,-4.479738176E-1
4.746752136E0,1.847900152E0,-2.519893348E-1,-4.736301303E-1
4.749144271E0,1.872334719E0,-2.519893348E-1,-4.968429804E-1
4.751535521E0,1.891882420E0,-2.544327676E-1,-5.212775469E-1
4.753926042E0,1.905321479E0,-2.532110512E-1,-5.432687402E-1
4.756317344E0,1.911430120E0,-2.483241409E-1,-5.567077398E-1
4.758709480E0,1.913873553E0,-2.507675886E-1,-5.628163815E-1
4.761100730E0,1.910208344E0,-2.434372455E-1,-5.652598143E-1
4.763491250E0,1.897991061E0,-2.361068577E-1,-5.542643070E-1
4.765882552E0,1.882108569E0,-2.263330072E-1,-5.359383225E-1
4.768274688E0,1.861339211E0,-2.177809030E-1,-5.139471889E-1
4.770665938E0,1.835682869E0,-2.031201571E-1,-4.870691597E-1
4.773056459E0,1.806361318E0,-1.872376800E-1,-4.516389966E-1
4.775447813E0,1.778261542E0,-1.689117402E-1,-4.149871171E-1
4.777839948E0,1.747718334E0,-1.481423378E-1,-3.771135211E-1
4.780231198E0,1.718396902E0,-1.273729354E-1,-3.355747163E-1
4.782621719E0,1.690297127E0,-1.090469956E-1,-2.940359116E-1
4.785013021E0,1.664640784E0,-8.949932456E-2,-2.537188232E-1
4.787405157E0,1.638984442E0,-6.750819087E-2,-2.170669734E-1
4.789796407E0,1.615771532E0,-4.918224737E-2,-1.828585416E-1
