"Time (s)","Gyroscope x (rad/s)","Gyroscope y (rad/s)","Gyroscope z (rad/s)"
9.170843700E-2,1.781128794E-1,-4.657614529E-1,-9.781089425E-1
9.409125000E-2,2.098778486E-1,-4.669831693E-1,-9.976566434E-1
9.647328100E-2,2.391993403E-1,-4.792004526E-1,-1.020869374E0
9.885453100E-2,2.746295035E-1,-4.828656614E-1,-1.042860508E0
1.012366140E-1,3.063944578E-1,-4.963046908E-1,-1.067295074E0
1.036194270E-1,3.369376957E-1,-5.073002577E-1,-1.096616626E0
1.060014580E-1,3.687026799E-1,-5.158523321E-1,-1.124716401E0
1.083827080E-1,4.029110968E-1,-5.280696154E-1,-1.154037833E0
1.107647390E-1,4.383412302E-1,-5.402868986E-1,-1.185802817E0
1.131475520E-1,4.713279307E-1,-5.537259579E-1,-1.221233010E0
1.155295830E-1,5.030928850E-1,-5.732736588E-1,-1.260328293E0
1.179108850E-1,5.421882868E-1,-5.793823004E-1,-1.298201919E0
1.202929160E-1,5.825053453E-1,-5.781605244E-1,-1.338518977E0
1.226757290E-1,6.179354191E-1,-5.891561508E-1,-1.386166453E0
1.250577600E-1,6.570308208E-1,-5.964864492E-1,-1.437479138E0
1.274390100E-1,6.985696554E-1,-6.074820161E-1,-1.488791704E0
1.298210410E-1,7.449953556E-1,-6.148123741E-1,-1.546213031E0
1.322039060E-1,7.853124142E-1,-6.306948662E-1,-1.608521223E0
1.345859370E-1,8.329598904E-1,-6.416904330E-1,-1.669607759E0
1.369671870E-1,8.818290234E-1,-6.612381339E-1,-1.734359384E0
1.393492180E-1,9.319199324E-1,-6.820075512E-1,-1.799111009E0
1.417320310E-1,9.783456326E-1,-7.088855505E-1,-1.867527843E0
1.441140620E-1,1.019884586E0,-7.406505346E-1,-1.938388228E0
1.464953640E-1,1.063866854E0,-7.760806680E-1,-2.009248734E0
1.488773950E-1,1.107849121E0,-8.029587269E-1,-2.076443672E0
1.512602080E-1,1.145722628E0,-8.298367858E-1,-2.148525715E0
1.536422390E-1,1.181152821E0,-8.481627107E-1,-2.215720892E0
1.560234890E-1,1.210474372E0,-8.762624860E-1,-2.284137726E0
1.584055200E-1,1.237352371E0,-8.958101869E-1,-2.351332903E0
1.607883330E-1,1.259343505E0,-9.263533950E-1,-2.418528080E0
1.631703640E-1,1.281334639E0,-9.385706782E-1,-2.483279705E0
1.655516660E-1,1.297217131E0,-9.581183791E-1,-2.548031330E0
1.679336970E-1,1.310656190E0,-9.764443040E-1,-2.610339403E0
1.703165100E-1,1.321651697E0,-9.947702885E-1,-2.676312923E0
1.726985410E-1,1.328982115E0,-1.010652781E0,-2.737399340E0
1.750797910E-1,1.336312413E0,-1.015539646E0,-2.794820547E0
1.774618220E-1,1.343642831E0,-1.015539646E0,-2.848576784E0
1.798446870E-1,1.347308040E0,-1.015539646E0,-2.902332783E0
1.822267180E-1,1.346086264E0,-1.019204855E0,-2.953645468E0
1.846079680E-1,1.343642831E0,-1.017983198E0,-3.001292944E0
1.869900000E-1,1.337534189E0,-1.011874437E0,-3.046496868E0
1.893728640E-1,1.336312413E0,-9.984354377E-1,-3.086813927E0
1.917548430E-1,1.333868980E0,-9.923267961E-1,-3.125909328E0
1.941360930E-1,1.328982115E0,-9.935485125E-1,-3.168669939E0
1.965181770E-1,1.335090756E0,-9.678922296E-1,-3.201656580E0
1.989010410E-1,1.335090756E0,-9.520097375E-1,-3.238308430E0
2.012830200E-1,1.335090756E0,-9.422358871E-1,-3.273738623E0
2.036642700E-1,1.336312413E0,-9.239099622E-1,-3.307946920E0
2.060463020E-1,1.339977622E0,-9.031405449E-1,-3.340933800E0
2.084291660E-1,1.346086264E0,-8.835929036E-1,-3.373920441E0
2.108111450E-1,1.349751472E0,-8.664886951E-1,-3.404463530E0
2.131924470E-1,1.348529816E0,-8.530496359E-1,-3.436228514E0
2.155744790E-1,1.349751472E0,-8.335019946E-1,-3.463106632E0
2.179573430E-1,1.349751472E0,-8.176195025E-1,-3.487541199E0
2.203393220E-1,1.347308040E0,-8.041804433E-1,-3.508310556E0
2.227205720E-1,1.339977622E0,-7.882980108E-1,-3.526636600E0
2.251026040E-1,1.325316906E0,-7.785241604E-1,-3.546184301E0
2.274854680E-1,1.319208264E0,-7.528678179E-1,-3.557179928E0
2.298674470E-1,1.309434414E0,-7.211028934E-1,-3.566953659E0
2.322487500E-1,1.289886713E0,-7.076638341E-1,-3.579170942E0
2.346307810E-1,1.272782564E0,-6.856727004E-1,-3.582836151E0
2.370136450E-1,1.252013087E0,-6.600164175E-1,-3.585279703E0
2.393956250E-1,1.220248222E0,-6.343600750E-1,-3.586501360E0
2.417768750E-1,1.188483238E0,-6.025950909E-1,-3.585279703E0
2.441589060E-1,1.155496478E0,-5.793823004E-1,-3.585279703E0
2.465417700E-1,1.118844628E0,-5.696084499E-1,-3.586501360E0
2.489238020E-1,1.082192779E0,-5.488390326E-1,-3.587723017E0
2.513050520E-1,1.045540810E0,-5.317348242E-1,-3.591388226E0
2.536870830E-1,1.007667303E0,-5.256261826E-1,-3.593831778E0
2.560699470E-1,9.661283493E-1,-5.305131078E-1,-3.602383852E0
2.584519270E-1,9.233678579E-1,-5.317348242E-1,-3.612157583E0
2.608331770E-1,8.818290234E-1,-5.415086746E-1,-3.625596762E0
2.632152600E-1,8.366250992E-1,-5.500607491E-1,-3.643922567E0
2.655980720E-1,7.926428318E-1,-5.537259579E-1,-3.663470268E0
2.679801040E-1,7.425519228E-1,-5.586128831E-1,-3.686683178E0
2.703613540E-1,6.961261034E-1,-5.525042415E-1,-3.709896088E0
2.727433850E-1,6.460351944E-1,-5.525042415E-1,-3.739217520E0
2.751262500E-1,6.008312702E-1,-5.366217494E-1,-3.766095638E0
2.775082290E-1,5.507403612E-1,-5.207392573E-1,-3.801525593E0
2.798895310E-1,5.079798698E-1,-4.853091240E-1,-3.834512472E0
2.822715620E-1,4.615541101E-1,-4.547658861E-1,-3.873607635E0
2.846544270E-1,4.200153053E-1,-4.120053351E-1,-3.912703037E0
2.870364060E-1,3.858068883E-1,-3.545840681E-1,-3.949354887E0
2.894176560E-1,3.552636504E-1,-2.898324132E-1,-3.987228632E0
2.917996870E-1,3.259421289E-1,-2.336328477E-1,-4.029989243E0
2.941825520E-1,3.002858162E-1,-1.774332970E-1,-4.072749615E0
2.965645310E-1,2.868467867E-1,-9.679915011E-2,-4.108179569E0
2.989458330E-1,2.734077573E-1,-3.815613687E-2,-4.149718761E0
3.013278640E-1,2.672991157E-1,2.781724930E-2,-4.186370373E0
3.037107290E-1,2.660773993E-1,9.134718776E-2,-4.227909088E0
3.060927080E-1,2.697425783E-1,1.597640365E-1,-4.264561176E0
3.084739580E-1,2.709642947E-1,2.208504975E-1,-4.298769474E0
3.108559890E-1,2.807381451E-1,2.843804359E-1,-4.330534458E0
3.132388540E-1,2.905119956E-1,3.454669118E-1,-4.361077785E0
3.156208330E-1,3.002858162E-1,4.028881788E-1,-4.394064426E0
3.180021350E-1,3.125030994E-1,4.554225802E-1,-4.420942307E0
3.203841660E-1,3.198334873E-1,5.018482804E-1,-4.446599007E0
3.227670310E-1,3.332725167E-1,5.519391894E-1,-4.471033573E0
3.251490100E-1,3.418246210E-1,5.898128152E-1,-4.490581036E0
3.275302600E-1,3.503767252E-1,6.240212321E-1,-4.505241871E0
3.299122910E-1,3.564853668E-1,6.521210074E-1,-4.522346020E0
3.322951560E-1,3.638157547E-1,6.753338575E-1,-4.533341885E0
3.346771870E-1,3.638157547E-1,6.838859916E-1,-4.545558929E0
3.370584370E-1,3.650374711E-1,6.912163496E-1,-4.552889347E0
3.394404680E-1,3.638157547E-1,6.887729168E-1,-4.562663078E0
3.418233330E-1,3.601505458E-1,6.753338575E-1,-4.571215153E0
3.442053120E-1,3.552636504E-1,6.570079327E-1,-4.576102257E0
3.465865620E-1,3.454898000E-1,6.337950826E-1,-4.577323914E0
3.489686450E-1,3.393811584E-1,6.020300984E-1,-4.582211018E0
3.513514580E-1,3.259421289E-1,5.702651739E-1,-4.582211018E0
3.537334890E-1,3.100596368E-1,5.336132646E-1,-4.580988884E0
3.561147390E-1,2.929554284E-1,4.908527136E-1,-4.574880600E0
3.584967700E-1,2.734077573E-1,4.419835806E-1,-4.567550182E0
3.608796350E-1,2.477514446E-1,3.808970749E-1,-4.562663078E0
3.632616140E-1,2.269820720E-1,3.320278823E-1,-4.551667690E0
3.656428640E-1,2.025474757E-1,2.770500481E-1,-4.540671825E0
3.680249470E-1,1.781128794E-1,2.306243479E-1,-4.528454781E0
3.704078120E-1,1.634521335E-1,1.927507222E-1,-4.507685184E0
3.727897910E-1,1.707825065E-1,1.841986179E-1,-4.475920200E0
3.751710410E-1,1.842215359E-1,1.719813347E-1,-4.449042320E0
3.775530720E-1,1.768911630E-1,1.304425299E-1,-4.441711903E0
3.799359370E-1,2.001040131E-1,8.279508352E-2,-4.438046932E0
3.823179160E-1,1.988822818E-1,-1.616500318E-2,-4.452707291E0
3.846991660E-1,2.123213112E-1,-1.139033586E-1,-4.469811916E0
3.870812500E-1,2.172082216E-1,-2.201938182E-1,-4.489359379E0
3.894641140E-1,2.196516842E-1,-3.215973675E-1,-4.512572289E0
3.918460930E-1,2.208734304E-1,-4.095619023E-1,-4.532119751E0
3.942273430E-1,2.184299678E-1,-4.950829446E-1,-4.548002243E0
3.966093750E-1,2.367558777E-1,-5.463955402E-1,-4.550446033E0
3.989922390E-1,2.330906987E-1,-5.977081656E-1,-4.546780586E0
4.013742180E-1,2.318689525E-1,-6.612381339E-1,-4.544337273E0
4.037555200E-1,2.355341613E-1,-7.149941921E-1,-4.538228512E0
4.061375520E-1,2.489731908E-1,-7.430939674E-1,-4.530898094E0
4.085204160E-1,2.697425783E-1,-7.553113103E-1,-4.516237259E0
4.109023950E-1,3.039509952E-1,-7.626416683E-1,-4.478363991E0
4.132836450E-1,3.601505458E-1,-7.565330267E-1,-4.418498993E0
4.156656770E-1,4.334543347E-1,-7.357636094E-1,-4.357412815E0
4.180485410E-1,5.140885115E-1,-7.125507593E-1,-4.302434921E0
4.204305200E-1,6.069399118E-1,-6.881161928E-1,-4.254787445E0
4.228118220E-1,6.912392378E-1,-6.795640588E-1,-4.207139969E0
4.251938540E-1,7.694299221E-1,-6.795640588E-1,-4.157049179E0
4.275767180E-1,8.427337408E-1,-6.856727004E-1,-4.094740868E0
4.299586970E-1,9.062635899E-1,-7.015551925E-1,-4.028767586E0
4.323399470E-1,9.624631405E-1,-7.247680426E-1,-3.957906961E0
4.347219790E-1,1.008888960E0,-7.443157434E-1,-3.885825157E0
4.371048430E-1,1.047984362E0,-7.614199519E-1,-3.812521219E0
4.394868220E-1,1.069975495E0,-8.005152941E-1,-3.740439177E0
4.418681250E-1,1.082192779E0,-8.396106362E-1,-3.669579029E0
4.442501560E-1,1.093188286E0,-8.738190532E-1,-3.598718643E0
4.466330200E-1,1.090744853E0,-9.153578281E-1,-3.532745123E0
4.490150000E-1,1.083414435E0,-9.581183791E-1,-3.469215393E0
4.513962500E-1,1.073640585E0,-1.003322363E0,-3.405685425E0
4.537782810E-1,1.055314660E0,-1.058300257E0,-3.348263979E0
4.561611450E-1,1.038210511E0,-1.094952106E0,-3.288399458E0
4.585431250E-1,1.022328019E0,-1.126717091E0,-3.228534698E0
4.609244270E-1,1.005223751E0,-1.149930000E0,-3.168669939E0
4.633064580E-1,9.893412590E-1,-1.171921015E0,-3.110026836E0
4.656893220E-1,9.722369909E-1,-1.185360193E0,-3.047718525E0
4.680713020E-1,9.649065733E-1,-1.170699358E0,-2.980523586E0
4.704525520E-1,9.575762749E-1,-1.154816866E0,-2.914550066E0
4.728345830E-1,9.502458572E-1,-1.136490822E0,-2.843689919E0
4.752174470E-1,9.355851412E-1,-1.120608568E0,-2.778938055E0
4.775994270E-1,9.221460819E-1,-1.096173763E0,-2.715408325E0
4.799807290E-1,9.025983810E-1,-1.070517540E0,-2.648213148E0
4.823627600E-1,8.708335161E-1,-1.050969839E0,-2.588348389E0
4.847456250E-1,8.402901888E-1,-1.016761303E0,-2.529705286E0
4.871276040E-1,8.048601151E-1,-9.813312292E-1,-2.474727631E0
4.895088540E-1,7.657647133E-1,-9.678922296E-1,-2.418528080E0
4.918908850E-1,7.278910875E-1,-9.740008712E-1,-2.359884977E0
4.942737500E-1,7.132303715E-1,-9.678922296E-1,-2.274363995E0
4.966557290E-1,6.985696554E-1,-9.862181544E-1,-2.177847385E0
4.990370310E-1,6.814653873E-1,-1.010652781E0,-2.070335150E0
5.014190620E-1,6.704698801E-1,-1.002100706E0,-1.950605512E0
5.038019270E-1,6.497004032E-1,-9.691139460E-1,-1.834541202E0
5.061839060E-1,6.154919863E-1,-9.287968874E-1,-1.730694175E0
5.085651560E-1,5.776183605E-1,-8.567148447E-1,-1.641507983E0
5.109471870E-1,5.434099436E-1,-7.834110856E-1,-1.559652090E0
5.133300520E-1,5.092015266E-1,-7.565330267E-1,-1.487570047E0
5.157120310E-1,4.872104228E-1,-7.516461015E-1,-1.413044572E0
5.180933330E-1,4.737714231E-1,-7.626416683E-1,-1.343405962E0
5.204753640E-1,4.603323638E-1,-7.675285935E-1,-1.279875994E0
5.228582290E-1,4.432281554E-1,-7.320984602E-1,-1.233450294E0
5.252402080E-1,4.139066637E-1,-6.710119843E-1,-1.209015727E0
5.276214580E-1,3.833634257E-1,-5.891561508E-1,-1.209015727E0
5.300034890E-1,3.613722920E-1,-4.987481236E-1,-1.222454786E0
5.323863540E-1,3.491549790E-1,-4.315530062E-1,-1.248111010E0
5.347683330E-1,3.454898000E-1,-3.826838434E-1,-1.277432561E0
5.371496350E-1,3.515984416E-1,-3.521406054E-1,-1.312862754E0
5.395316660E-1,3.687026799E-1,-3.289277554E-1,-1.339740753E0
5.419145310E-1,3.882503211E-1,-3.252625465E-1,-1.370283961E0
5.442965100E-1,4.175718427E-1,-3.093800545E-1,-1.393496871E0
5.466777600E-1,4.444499016E-1,-2.947193384E-1,-1.415488005E0
5.490597910E-1,4.713279307E-1,-2.690629959E-1,-1.439922571E0
5.514426560E-1,4.969842732E-1,-2.324111164E-1,-1.465578914E0
5.538246350E-1,5.177536011E-1,-1.908723116E-1,-1.496122122E0
5.562059370E-1,5.348578691E-1,-1.407814026E-1,-1.527887106E0
5.585879680E-1,5.531837940E-1,-9.191223234E-2,-1.563317299E0
5.609708330E-1,5.763967037E-1,-3.571267426E-2,-1.597525716E0
5.633528120E-1,5.947226286E-1,8.269578218E-3,-1.636620998E0
5.657340620E-1,6.106051207E-1,4.736492038E-2,-1.672051191E0
5.681160930E-1,6.338179111E-1,8.768199384E-2,-1.706259608E0
5.704989580E-1,6.582525969E-1,1.243338734E-1,-1.736802816E0
5.728809370E-1,6.802437305E-1,1.512119323E-1,-1.766124368E0
5.752622390E-1,6.997913122E-1,1.658726931E-1,-1.796667576E0
5.776442700E-1,7.230042219E-1,1.817551553E-1,-1.825989127E0
5.800271350E-1,7.498822212E-1,2.061897516E-1,-1.852867126E0
5.824091140E-1,7.645430565E-1,2.171853185E-1,-1.888297319E0
5.847903640E-1,7.804254293E-1,2.355112731E-1,-1.924949169E0
5.871723950E-1,7.963079214E-1,2.538371980E-1,-1.955492377E0
5.895552600E-1,8.073035479E-1,2.489502728E-1,-1.988479137E0
5.919372390E-1,8.268512487E-1,2.428416312E-1,-2.019022465E0
5.943185410E-1,8.427337408E-1,2.342895269E-1,-2.047122240E0
5.967005720E-1,8.610596657E-1,2.281808853E-1,-2.071556807E0
5.990834370E-1,8.744986057E-1,2.245157063E-1,-2.095991373E0
6.014654160E-1,8.818290234E-1,2.232939601E-1,-2.121647835E0
6.038466660E-1,9.038201571E-1,2.416199148E-1,-2.138751984E0
6.062286970E-1,9.184808731E-1,2.403981686E-1,-2.159521341E0
6.086115620E-1,9.441372156E-1,2.526154816E-1,-2.169295073E0
6.109935410E-1,9.636849165E-1,2.513937354E-1,-2.181512356E0
6.133748430E-1,9.868978262E-1,2.538371980E-1,-2.187621117E0
6.157568750E-1,1.010110736E0,2.562806606E-1,-2.188842773E0
6.181397390E-1,1.027214885E0,2.526154816E-1,-2.188842773E0
6.205217180E-1,1.045540810E0,2.575023770E-1,-2.182734251E0
6.229029680E-1,1.063866854E0,2.611675858E-1,-2.169295073E0
6.252850000E-1,1.071197152E0,2.575023770E-1,-2.158299685E0
6.276678640E-1,1.079749346E0,2.587241232E-1,-2.137530327E0
6.300498430E-1,1.080971003E0,2.440633774E-1,-2.114317417E0
6.324311450E-1,1.084636211E0,2.489502728E-1,-2.086217642E0
6.348131770E-1,1.079749346E0,2.477285564E-1,-2.055674314E0
6.371960410E-1,1.072418928E0,2.391764522E-1,-2.022687674E0
6.395780200E-1,1.067531943E0,2.440633774E-1,-1.983592153E0
6.419592700E-1,1.061423302E0,2.342895269E-1,-1.949383736E0
6.443413020E-1,1.057758212E0,2.220722437E-1,-1.917618752E0
6.467241660E-1,1.060201645E0,2.184070349E-1,-1.880966902E0
6.491061450E-1,1.061423302E0,2.110766768E-1,-1.846758485E0
6.514873950E-1,1.072418928E0,2.147418559E-1,-1.814993501E0
6.538694790E-1,1.080971003E0,2.159635723E-1,-1.784450293E0
6.562523430E-1,1.100518703E0,2.294026017E-1,-1.753907084E0
6.586343220E-1,1.116401196E0,2.416199148E-1,-1.730694175E0
6.610155720E-1,1.142057538E0,2.672762275E-1,-1.703816175E0
6.633976040E-1,1.170157313E0,2.868238986E-1,-1.683046699E0
6.657804680E-1,1.204365730E0,3.075932860E-1,-1.665942550E0
6.681624470E-1,1.239795804E0,3.295844197E-1,-1.651281714E0
6.705436970E-1,1.276447773E0,3.552407324E-1,-1.640286207E0
6.729257290E-1,1.316764832E0,3.711232245E-1,-1.634177566E0
6.753085930E-1,1.357081890E0,3.808970749E-1,-1.630512357E0
6.776906250E-1,1.402285814E0,4.041099250E-1,-1.623181939E0
6.800718750E-1,1.443824649E0,4.175489545E-1,-1.620738506E0
6.824539060E-1,1.487806916E0,4.285445213E-1,-1.617073298E0
6.848367700E-1,1.530567408E0,4.395400882E-1,-1.613408208E0
6.872187500E-1,1.570884585E0,4.529791474E-1,-1.613408208E0
6.896000000E-1,1.617310286E0,4.603095055E-1,-1.612186432E0
6.919820310E-1,1.664957643E0,4.370966554E-1,-1.609742999E0
6.943648950E-1,1.718713760E0,3.882274330E-1,-1.603634357E0
6.967469270E-1,1.774913311E0,3.442451656E-1,-1.601190925E0
6.991281770E-1,1.834778070E0,3.576841950E-1,-1.618295074E0
7.015102080E-1,1.894642830E0,3.931143582E-1,-1.647616625E0
7.038930720E-1,1.965503097E0,4.468705058E-1,-1.651281714E0
7.062750520E-1,2.043693781E0,5.128438473E-1,-1.645173073E0
7.086563020E-1,2.138988495E0,5.849258900E-1,-1.629290700E0
7.110383330E-1,2.242835522E0,6.460123658E-1,-1.606077790E0
7.134211970E-1,2.340574026E0,6.826642752E-1,-1.581643224E0
7.158031770E-1,2.428538561E0,7.046554089E-1,-1.558430314E0
7.181844790E-1,2.512837887E0,6.948815584E-1,-1.535217524E0
7.205665100E-1,2.583698034E0,6.618948579E-1,-1.510782838E0
7.229493750E-1,2.641119480E0,6.118039489E-1,-1.481461406E0
7.253313540E-1,2.692431927E0,5.727086067E-1,-1.441144347E0
7.277126040E-1,2.731527328E0,5.226176977E-1,-1.393496871E0
7.300946350E-1,2.758405447E0,4.554225802E-1,-1.338518977E0
7.324775000E-1,2.774287939E0,3.784536123E-1,-1.283541203E0
7.348594790E-1,2.785283566E0,2.880456150E-1,-1.227341652E0
7.372407810E-1,2.801166058E0,1.951941848E-1,-1.173585534E0
7.396228120E-1,2.818270206E0,9.867756069E-2,-1.123494625E0
7.420056770E-1,2.837817907E0,1.193477213E-2,-1.070960283E0
7.443876560E-1,2.851256847E0,-6.747764349E-2,-1.022091150E0
7.467689060E-1,2.872026205E0,-1.261206567E-1,-9.744437933E-1
7.491509370E-1,2.889130592E0,-1.737681031E-1,-9.329049587E-1
7.515338020E-1,2.900125980E0,-2.189720869E-1,-8.986965418E-1
7.539157810E-1,2.906234741E0,-2.653978169E-1,-8.730402589E-1
7.562970310E-1,2.912343264E0,-3.142669797E-1,-8.522708416E-1
7.586790620E-1,2.917230368E0,-3.606927097E-1,-8.437187076E-1
7.610619790E-1,2.919673681E0,-4.095619023E-1,-8.449404836E-1
7.634439580E-1,2.918452024E0,-4.645397067E-1,-8.498273492E-1
7.658252080E-1,2.923338890E0,-4.987481236E-1,-8.583794832E-1
7.682072390E-1,2.930669308E0,-5.402868986E-1,-8.803706169E-1
7.705901040E-1,2.939221382E0,-5.830475092E-1,-9.084703922E-1
7.729720830E-1,2.951438665E0,-6.184775829E-1,-9.402353764E-1
7.753533330E-1,2.973429918E0,-6.282514334E-1,-9.707785845E-1
7.777353640E-1,2.992977381E0,-6.331383586E-1,-1.015982628E0
7.801182290E-1,3.017411947E0,-6.111472249E-1,-1.062408209E0
7.825002600E-1,3.040624857E0,-5.610563755E-1,-1.107612133E0
7.848815100E-1,3.056507349E0,-4.950829446E-1,-1.143042326E0
7.872635410E-1,3.071168184E0,-4.181140065E-1,-1.177250743E0
7.896464060E-1,3.082163811E0,-3.301494718E-1,-1.210237384E0
7.920283850E-1,3.093159199E0,-2.226372808E-1,-1.240780711E0
7.944096350E-1,3.105376482E0,-1.163468212E-1,-1.268880486E0
7.967916660E-1,3.113928795E0,-2.105192840E-2,-1.293315053E0
7.991745310E-1,3.121258974E0,8.523853123E-2,-1.307975769E0
8.015565100E-1,3.124924183E0,1.780899763E-1,-1.310419202E0
8.039377600E-1,3.131032944E0,2.648327649E-1,-1.300645471E0
8.063198430E-1,3.135919809E0,3.393582702E-1,-1.283541203E0
8.087027080E-1,3.142028570E0,4.187707305E-1,-1.262771845E0
8.110846870E-1,3.144471884E0,4.884092808E-1,-1.232228518E0
8.134659370E-1,3.151802301E0,5.458305478E-1,-1.202907085E0
8.158479680E-1,3.170128345E0,6.081387401E-1,-1.183359385E0
8.182308330E-1,3.209223509E0,6.826642752E-1,-1.209015727E0
8.206128120E-1,3.264201403E0,7.571897507E-1,-1.257884860E0
8.229940620E-1,3.322844505E0,8.182762265E-1,-1.304310560E0
8.253760930E-1,3.381487370E0,8.610367775E-1,-1.347071171E0
8.277589580E-1,3.427913189E0,8.818061352E-1,-1.380057812E0
8.301409370E-1,3.465786695E0,8.720323443E-1,-1.406935930E0
8.325222390E-1,3.493886471E0,8.341587186E-1,-1.405714154E0
8.349042700E-1,3.507325649E0,7.755156755E-1,-1.370283961E0
8.372871350E-1,3.509768963E0,7.254247665E-1,-1.304310560E0
8.396691140E-1,3.507325649E0,6.765556335E-1,-1.216346145E0
8.420503640E-1,3.493886471E0,6.301298738E-1,-1.110055685E0
8.444323950E-1,3.473117113E0,6.056953073E-1,-9.878827929E-1
8.468152600E-1,3.447460890E0,5.959214568E-1,-8.547142744E-1
8.491972390E-1,3.419361115E0,6.081387401E-1,-7.288761735E-1
8.515785410E-1,3.385152578E0,6.325733662E-1,-6.140335798E-1
8.539605720E-1,3.350944281E0,6.692252159E-1,-5.162952542E-1
8.563434370E-1,3.311848879E0,7.107640505E-1,-4.344393611E-1
8.587254160E-1,3.270310163E0,7.657418847E-1,-3.635790646E-1
8.611066660E-1,3.223884344E0,8.219414353E-1,-3.049360514E-1
8.634886970E-1,3.172571659E0,8.573715687E-1,-2.646189332E-1
8.658715620E-1,3.124924183E0,9.013538361E-1,-2.328539938E-1
8.682535410E-1,3.072389841E0,9.477794766E-1,-2.230801582E-1
8.706347910E-1,3.019855499E0,9.905399680E-1,-2.230801582E-1
8.730168220E-1,2.969764709E0,1.032078743E0,-2.267453521E-1
8.753996870E-1,2.919673681E0,1.066287279E0,-2.352974564E-1
8.777817180E-1,2.872026205E0,1.098052263E0,-2.426278293E-1
8.801629680E-1,2.829265833E0,1.120043278E0,-2.499582022E-1
8.825450000E-1,2.788948774E0,1.135925770E0,-2.585102916E-1
8.849278640E-1,2.765735865E0,1.170134306E0,-2.670624256E-1
8.873098430E-1,2.746188164E0,1.195790529E0,-2.817232013E-1
8.896910930E-1,2.735192537E0,1.225111961E0,-3.024925888E-1
8.920731250E-1,2.715644836E0,1.239772797E0,-3.281489015E-1
8.944559890E-1,2.696097136E0,1.249546766E0,-3.452531099E-1
8.968379680E-1,2.664332151E0,1.236107588E0,-3.562486768E-1
8.992192700E-1,2.622793436E0,1.220225096E0,-3.513617516E-1
9.016013020E-1,2.570259094E0,1.179908037E0,-3.342575431E-1
9.039841660E-1,2.515281200E0,1.131038904E0,-3.037143052E-1
9.063661450E-1,2.460303545E0,1.084613085E0,-2.633972168E-1
9.087473950E-1,2.405325651E0,1.038187504E0,-2.145280540E-1
9.111294270E-1,2.357678175E0,9.978703856E-1,-1.619936824E-1
9.135122910E-1,2.319804668E0,9.746575952E-1,-1.045724079E-1
9.158942700E-1,2.283152580E0,9.636619687E-1,-5.203804374E-2
9.182755200E-1,2.267270088E0,9.599967599E-1,5.383243784E-3
9.206575520E-1,2.314917564E0,9.062407613E-1,9.579122066E-2
9.230404160E-1,2.358899832E0,9.050190449E-1,1.678732634E-1
9.254223950E-1,2.362565041E0,9.709923863E-1,1.996382326E-1
9.278036970E-1,2.350347757E0,1.028413534E0,2.118555158E-1
9.301857290E-1,2.341795683E0,1.072395802E0,2.204076350E-1
9.325685930E-1,2.334465265E0,1.096830368E0,2.289597392E-1
9.349505720E-1,2.328356743E0,1.111491203E0,2.350683808E-1
9.373318220E-1,2.324691534E0,1.110269547E0,2.362900972E-1
9.397138540E-1,2.323469639E0,1.093165398E0,2.338466346E-1
9.420967180E-1,2.321026325E0,1.073617697E0,2.277380079E-1
9.444786970E-1,2.328356743E0,1.066287279E0,2.277380079E-1
9.468600000E-1,2.333243608E0,1.067508936E0,2.228510827E-1
9.492420310E-1,2.340574026E0,1.077282906E0,2.216293663E-1
9.516248950E-1,2.350347757E0,1.093165398E0,2.155207098E-1
9.540068750E-1,2.356456518E0,1.106604338E0,2.106337994E-1
9.563881250E-1,2.358899832E0,1.113934755E0,2.167424411E-1
9.587701560E-1,2.358899832E0,1.107825994E0,2.216293663E-1
9.611530200E-1,2.360121727E0,1.123708487E0,2.265162766E-1
9.635350000E-1,2.358899832E0,1.140812635E0,2.289597392E-1
9.659162500E-1,2.360121727E0,1.160360336E0,2.326249182E-1
9.682982810E-1,2.363786697E0,1.175021172E0,2.460639477E-1
9.706811450E-1,2.361343384E0,1.171355963E0,2.619464099E-1
9.730631250E-1,2.354012966E0,1.165247440E0,2.790506184E-1
9.754444270E-1,2.335686922E0,1.153030157E0,2.937113941E-1
9.778264580E-1,2.307587147E0,1.122486830E0,3.120373189E-1
9.802093220E-1,2.247722626E0,1.061400414E0,3.303632736E-1
9.825913020E-1,2.149984121E0,9.832096696E-1,3.499109447E-1
9.849725520E-1,2.064463139E0,9.673271775E-1,3.719020784E-1
9.873545830E-1,1.993602872E0,9.832096696E-1,3.890062869E-1
9.897374470E-1,1.941068530E0,1.022305012E0,4.024453163E-1
9.921194270E-1,1.892199397E0,1.046739578E0,4.134408534E-1
9.945006770E-1,1.832334638E0,1.046739578E0,4.244364202E-1
9.968827600E-1,1.766361237E0,1.049183130E0,4.390971959E-1
9.992655720E-1,1.688170552E0,1.039409161E0,4.500927627E-1
1.001647604E0,1.616088510E0,1.044296026E0,4.586448669E-1
1.004028854E0,1.553780317E0,1.061400414E0,4.610882998E-1
1.006410885E0,1.495137334E0,1.089500189E0,4.574231207E-1
1.008793750E0,1.451155066E0,1.137147665E0,4.586448669E-1
1.011175729E0,1.408394456E0,1.178686380E0,4.574231207E-1
1.013556979E0,1.361968756E0,1.211673021E0,4.562014043E-1
1.015939010E0,1.315543056E0,1.237329483E0,4.610882998E-1
1.018321875E0,1.267895579E0,1.253211737E0,4.684186876E-1
1.020703854E0,1.219026446E0,1.259320498E0,4.769707918E-1
1.023085104E0,1.178709388E0,1.266650915E0,4.879663587E-1
1.025467187E0,1.132283688E0,1.255655289E0,4.916315675E-1
1.027850000E0,1.090744853E0,1.244659662E0,4.989619255E-1
1.030232031E0,1.051649570E0,1.243438005E0,5.062922835E-1
1.032613281E0,1.012554169E0,1.229999065E0,5.099574924E-1
1.034995312E0,9.795674086E-1,1.223890305E0,5.160661340E-1
1.037378177E0,9.478024244E-1,1.222668648E0,5.221747756E-1
1.039760156E0,9.160374403E-1,1.215338230E0,5.270617008E-1
1.042141406E0,8.842724562E-1,1.212894678E0,5.331703424E-1
1.044523437E0,8.512858152E-1,1.209229708E0,5.368355513E-1
1.046906302E0,8.170773983E-1,1.209229708E0,5.380572677E-1
1.049288281E0,7.865341902E-1,1.205564499E0,5.356138349E-1
1.051669583E0,7.572126389E-1,1.220225096E0,5.343920588E-1
1.054051614E0,7.230042219E-1,1.232442379E0,5.295051336E-1
1.056434479E0,6.875740290E-1,1.251990080E0,5.246182680E-1
1.058816458E0,6.472569704E-1,1.275202990E0,5.221747756E-1
1.061197708E0,6.032747030E-1,1.295972347E0,5.209530592E-1
1.063579739E0,5.580707788E-1,1.321628809E0,5.209530592E-1
1.065962604E0,5.092015266E-1,1.357058764E0,5.209530592E-1
1.068344583E0,4.578889012E-1,1.387602091E0,5.246182680E-1
1.070725833E0,4.053545594E-1,1.413258314E0,5.258399844E-1
1.073107864E0,3.515984416E-1,1.443801641E0,5.295051336E-1
1.075490729E0,2.929554284E-1,1.470679760E0,5.343920588E-1
1.077872708E0,2.379776239E-1,1.507331610E0,5.429441929E-1
1.080254010E0,1.817780733E-1,1.529322624E0,5.514962673E-1
1.082636041E0,1.231350601E-1,1.554979086E0,5.624918342E-1
1.085018906E0,6.693550199E-2,1.584300518E0,5.734874010E-1
1.087400885E0,1.073594764E-2,1.607513428E0,5.844829679E-1
1.089782135E0,-4.179841653E-2,1.640500069E0,5.954785347E-1
1.092164166E0,-9.677624702E-2,1.666156292E0,6.064741015E-1
1.094547031E0,-1.456454247E-1,1.695477962E0,6.150262356E-1
1.096929010E0,-1.932928711E-1,1.729686260E0,6.248000860E-1
1.099310260E0,-2.397185862E-1,1.759007931E0,6.333521605E-1
1.101692291E0,-2.824791372E-1,1.787107706E0,6.406825185E-1
1.104075156E0,-3.252396584E-1,1.817650795E0,6.516780853E-1
1.106457187E0,-3.643350005E-1,1.853080988E0,6.602302194E-1
1.108838437E0,-4.046520591E-1,1.881180763E0,6.724475026E-1
1.111220468E0,-4.425256848E-1,1.904393673E0,6.858865023E-1
1.113603333E0,-4.828427434E-1,1.927606344E0,7.005472779E-1
1.115985312E0,-5.219380856E-1,1.948375940E0,7.139863372E-1
1.118366562E0,-5.634769201E-1,1.966701746E0,7.237601280E-1
1.120748593E0,-6.025722027E-1,1.994801521E0,7.359774113E-1
1.123131458E0,-6.453328133E-1,2.016792774E0,7.445295453E-1
1.125513437E0,-6.880933046E-1,2.046114206E0,7.530816793E-1
1.127894687E0,-7.320755720E-1,2.071770430E0,7.567468286E-1
1.130276718E0,-7.748360634E-1,2.105978966E0,7.591903210E-1
1.132659583E0,-8.237053156E-1,2.131635189E0,7.579685450E-1
1.135041562E0,-8.762396574E-1,2.158513308E0,7.543033957E-1
1.137422864E0,-9.275522232E-1,2.189056635E0,7.530816793E-1
1.139804895E0,-9.776431322E-1,2.224486589E0,7.494164705E-1
1.142187760E0,-1.032620907E0,2.250143051E0,7.433078289E-1
1.144569739E0,-1.091263890E0,2.267247200E0,7.323122621E-1
1.146950989E0,-1.145020008E0,2.294125319E0,7.262036204E-1
1.149333020E0,-1.201219559E0,2.310007811E0,7.139863372E-1
1.151715885E0,-1.262306094E0,2.334442377E0,7.029907703E-1
1.154097864E0,-1.317283869E0,2.358876944E0,6.956603527E-1
1.156479114E0,-1.375926852E0,2.373537779E0,6.858865023E-1
1.158861145E0,-1.430904746E0,2.386976719E0,6.736692190E-1
1.161244010E0,-1.490769506E0,2.394307137E0,6.602302194E-1
1.163625989E0,-1.543303847E0,2.408967733E0,6.504563689E-1
1.166007291E0,-1.598281622E0,2.407746077E0,6.357956529E-1
1.168389322E0,-1.648372531E0,2.411411285E0,6.235783100E-1
1.170772187E0,-1.698463440E0,2.410189629E0,6.089175940E-1
1.173154166E0,-1.743667483E0,2.410189629E0,6.003654599E-1
1.175535416E0,-1.785206199E0,2.391863585E0,5.832612514E-1
1.177917447E0,-1.825523376E0,2.371094227E0,5.710439682E-1
1.180300312E0,-1.860953450E0,2.347881317E0,5.551614761E-1
1.182682291E0,-1.890275002E0,2.322225094E0,5.417224765E-1
1.185063541E0,-1.918374777E0,2.291681767E0,5.307269096E-1
1.187445572E0,-1.944031119E0,2.256251574E0,5.172878504E-1
1.189828437E0,-1.966022253E0,2.225708485E0,5.050705671E-1
1.192210416E0,-1.984348178E0,2.189056635E0,4.928532839E-1
1.194591718E0,-2.006339312E0,2.145074368E0,4.806360006E-1
1.196973750E0,-2.023443699E0,2.108422518E0,4.745273292E-1
1.199356614E0,-2.038104296E0,2.068105221E0,4.684186876E-1
1.201738593E0,-2.052765131E0,2.016792774E0,4.586448669E-1
1.204119843E0,-2.061317205E0,1.975253820E0,4.525361955E-1
1.206501875E0,-2.073534489E0,1.923941374E0,4.427623749E-1
1.208884739E0,-2.089416981E0,1.872628689E0,4.329885244E-1
1.211266718E0,-2.097969055E0,1.823759556E0,4.244364202E-1
1.213647968E0,-2.116295099E0,1.756564379E0,4.097756743E-1
1.216030000E0,-2.126068830E0,1.706473589E0,4.000018537E-1
1.218412864E0,-2.138286114E0,1.650274038E0,3.902280033E-1
1.220794843E0,-2.151725292E0,1.592852592E0,3.780107200E-1
1.223176145E0,-2.165164232E0,1.531766176E0,3.645716906E-1
1.225558177E0,-2.176159859E0,1.469457865E0,3.523544073E-1
1.227940989E0,-2.189598799E0,1.408371449E0,3.401370943E-1
1.230323020E0,-2.203037739E0,1.349728584E0,3.266980648E-1
1.232704270E0,-2.220142126E0,1.284976721E0,3.132590652E-1
1.235086302E0,-2.233581066E0,1.229999065E0,3.022634983E-1
1.237469166E0,-2.248241901E0,1.173799515E0,2.949331105E-1
1.239851145E0,-2.259237289E0,1.128595352E0,2.863810062E-1
1.242232395E0,-2.276341677E0,1.085834980E0,2.814940810E-1
1.244614427E0,-2.287337065E0,1.049183130E0,2.778289020E-1
1.246997291E0,-2.306884766E0,1.003978968E0,2.717202604E-1
1.249379270E0,-2.319102049E0,9.746575952E-1,2.741637230E-1
1.251760520E0,-2.339871645E0,9.355621934E-1,2.778289020E-1
1.254142552E0,-2.353310585E0,9.099058509E-1,2.876027226E-1
1.256525416E0,-2.372858286E0,8.818061352E-1,2.961548269E-1
1.258907447E0,-2.391184092E0,8.585932851E-1,3.071503937E-1
1.261288697E0,-2.407066584E0,8.488194942E-1,3.193677068E-1
1.263670729E0,-2.425392628E0,8.402673602E-1,3.315849900E-1
1.266053593E0,-2.446161985E0,8.292717934E-1,3.462457359E-1
1.268435572E0,-2.463266134E0,8.256065845E-1,3.633499742E-1
1.270816822E0,-2.481592178E0,8.243848681E-1,3.816758990E-1
1.273198854E0,-2.497474670E0,8.182762265E-1,3.987801075E-1
1.275581718E0,-2.509691954E0,8.109458685E-1,4.183277786E-1
1.277963697E0,-2.525574446E0,7.926199436E-1,4.329885244E-1
1.280344947E0,-2.539013386E0,7.791808844E-1,4.488710165E-1
1.282726979E0,-2.551230669E0,7.547463179E-1,4.623100460E-1
1.285109843E0,-2.559782743E0,7.339769006E-1,4.757490754E-1
1.287491822E0,-2.559782743E0,7.168726921E-1,4.891881347E-1
1.289873125E0,-2.561004639E0,6.924381256E-1,5.014054179E-1
1.292255156E0,-2.558561087E0,6.777773499E-1,5.136227012E-1
1.294637968E0,-2.556117535E0,6.496775746E-1,5.185096264E-1
1.297020000E0,-2.526796103E0,6.484558582E-1,5.295051336E-1
1.299401250E0,-2.464488029E0,6.765556335E-1,5.429441929E-1
1.301783281E0,-2.353310585E0,7.290899754E-1,5.600484014E-1
1.304166145E0,-2.178603172E0,7.889547348E-1,5.808178186E-1
1.306548125E0,-1.944031119E0,8.561498523E-1,6.101393104E-1
1.308929375E0,-1.685024381E0,8.781409860E-1,6.394608021E-1
1.311311406E0,-1.438235044E0,8.537063599E-1,6.614519358E-1
1.313694270E0,-1.247645259E0,7.755156755E-1,6.700040698E-1
1.316076250E0,-1.123028874E0,6.594514251E-1,6.761127114E-1
1.318457500E0,-1.048503399E0,5.250611901E-1,6.785561442E-1
1.320839531E0,-1.010629892E0,3.857839704E-1,6.809996367E-1
1.323222395E0,-9.825301170E-1,2.807152569E-1,6.871082783E-1
1.325604375E0,-9.361044168E-1,2.416199148E-1,7.054342031E-1
1.327985677E0,-8.676875830E-1,2.465068102E-1,7.310905457E-1
1.330367708E0,-7.736144066E-1,3.014846444E-1,7.640771866E-1
1.332750572E0,-6.746542454E-1,3.906708956E-1,7.897335291E-1
1.335132552E0,-5.915766954E-1,4.859658480E-1,8.007290959E-1
1.337513802E0,-5.304901600E-1,5.714868903E-1,7.982856631E-1
1.339895833E0,-5.109425783E-1,6.166908741E-1,7.701858878E-1
1.342278697E0,-5.109425783E-1,6.618948579E-1,7.347556949E-1
1.344660677E0,-5.365988016E-1,6.851077080E-1,6.981038451E-1
1.347041927E0,-5.903549194E-1,6.838859916E-1,6.541215777E-1
1.349423958E0,-6.599935293E-1,6.838859916E-1,6.150262356E-1
1.351806822E0,-7.491797209E-1,6.753338575E-1,5.820395350E-1
1.354188802E0,-8.505833149E-1,6.606731415E-1,5.527180433E-1
1.356570052E0,-9.617606401E-1,6.484558582E-1,5.356138349E-1
1.358952083E0,-1.035064340E0,6.948815584E-1,5.368355513E-1
1.361334947E0,-1.032620907E0,8.085023761E-1,5.576049685E-1
1.363716927E0,-9.861953259E-1,9.147928357E-1,5.795960426E-1
1.366098229E0,-9.324392080E-1,9.807662368E-1,5.954785347E-1
1.368480260E0,-8.994524479E-1,9.832096696E-1,6.040306687E-1
1.370863125E0,-8.933438063E-1,9.282317758E-1,6.015871763E-1
1.373245104E0,-9.165567160E-1,8.378239274E-1,5.832612514E-1
1.375626354E0,-9.507651329E-1,7.461941838E-1,5.612701178E-1
1.378008385E0,-1.014295101E0,6.166908741E-1,5.185096264E-1
1.380391250E0,-1.077824950E0,5.165090561E-1,4.647535086E-1
1.382773229E0,-1.131580949E0,4.199924469E-1,4.012235701E-1
1.385154479E0,-1.198776126E0,3.283627033E-1,3.340284526E-1
1.387536510E0,-1.246423602E0,2.868238986E-1,2.778289020E-1
1.389919375E0,-1.279410243E0,2.758283317E-1,2.204076350E-1
1.392301354E0,-1.286740661E0,3.039281070E-1,1.666515321E-1
1.394682656E0,-1.280632019E0,3.320278823E-1,1.018998697E-1
1.397064687E0,-1.268414736E0,3.589059412E-1,2.981783263E-2
1.399447500E0,-1.258640885E0,3.552407324E-1,-4.959458113E-2
1.401829479E0,-1.273301601E0,3.088150322E-1,-1.204548925E-1
1.404210781E0,-1.284297228E0,2.513937354E-1,-1.656588763E-1
1.406592812E0,-1.295292735E0,1.438815445E-1,-1.900934577E-1
1.408975677E0,-1.302623153E0,-1.504257321E-3,-1.827630848E-1
1.411357656E0,-1.206106544E0,-4.182132334E-2,-1.131245121E-1
1.413738906E0,-9.385478497E-1,6.324741244E-2,1.149189100E-2
1.416120937E0,-6.270068884E-1,1.084513962E-1,1.287779212E-1
1.418503802E0,-3.802174926E-1,4.247801006E-2,2.069686055E-1
1.420885781E0,-2.006232440E-1,-8.702531457E-2,2.643898726E-1
1.423267031E0,-8.455894887E-2,-2.568457127E-1,3.108156025E-1
1.425649062E0,-2.596154809E-4,-3.839055598E-1,3.694586158E-1
1.428031927E0,5.838339776E-2,-4.620962441E-1,4.256581664E-1
1.430413906E0,8.648317307E-2,-5.073002577E-1,4.757490754E-1
1.432795208E0,9.992218763E-2,-4.877525866E-1,5.246182680E-1
1.435177239E0,9.259181470E-2,-4.266661108E-1,5.600484014E-1
1.437560052E0,6.082685292E-2,-3.374798596E-1,5.795960426E-1
1.439942031E0,4.627302289E-3,-2.214155495E-1,5.893698931E-1
1.442323333E0,-6.501127779E-2,-7.969493419E-2,6.003654599E-1
1.444705364E0,-1.358715892E-1,1.023427546E-1,6.162479520E-1
1.447088229E0,-2.165057212E-1,2.733848691E-1,6.284652352E-1
1.449470208E0,-2.971398830E-1,4.395400882E-1,6.504563689E-1
1.451851458E0,-3.716653883E-1,6.056953073E-1,6.822213531E-1
1.454233489E0,-4.315301180E-1,7.584114671E-1,7.200949788E-1
1.456616354E0,-4.828427434E-1,8.879148364E-1,7.628554702E-1
1.458998333E0,-5.292685032E-1,9.929835200E-1,8.105029464E-1
1.461379583E0,-5.634769201E-1,1.080948114E0,8.654807806E-1
1.463761614E0,-5.976853371E-1,1.128595352E0,9.143499136E-1
1.466144479E0,-6.123460531E-1,1.161582232E0,9.619973898E-1
1.468526458E0,-6.111243963E-1,1.166469097E0,1.002314568E0
1.470907708E0,-5.964635611E-1,1.156695127E0,1.034079552E0
1.473289739E0,-5.634769201E-1,1.131038904E0,1.051183701E0
1.475672604E0,-5.207163095E-1,1.101717472E0,1.062179327E0
1.478054583E0,-4.730689228E-1,1.072395802E0,1.069509745E0
1.480435885E0,-4.193128347E-1,1.038187504E0,1.075618386E0
1.482817916E0,-3.631132841E-1,1.001535654E0,1.082948685E0
1.485200781E0,-3.081354499E-1,9.697706103E-1,1.090279102E0
1.487582760E0,-2.507141531E-1,9.404490590E-1,1.095165968E0
1.489964010E0,-1.920711398E-1,9.037972689E-1,1.090279102E0
1.492346041E0,-1.395367682E-1,8.573715687E-1,1.086613894E0
1.494728906E0,-8.700241148E-2,8.133893013E-1,1.078061819E0
1.497110885E0,-3.324631229E-2,7.584114671E-1,1.064622760E0
1.499492135E0,1.440113783E-2,6.899946332E-1,1.042631626E0
1.501874166E0,6.327030808E-2,6.313516498E-1,1.023083925E0
1.504257031E0,1.121394932E-1,5.837041736E-1,1.003536344E0
1.506639010E0,1.536782980E-1,5.311698318E-1,9.876537919E-1
1.509020260E0,1.903301775E-1,4.896309972E-1,9.717712402E-1
1.511402291E0,2.147647738E-1,4.529791474E-1,9.558887482E-1
1.513785156E0,2.245386094E-1,4.102185965E-1,9.436714649E-1
1.516167135E0,2.343124151E-1,3.674580455E-1,9.314541221E-1
1.518548437E0,2.416428030E-1,3.210323155E-1,9.204585552E-1
1.520930468E0,2.526383698E-1,2.819369733E-1,9.119064808E-1
1.523313281E0,2.599687576E-1,2.367329895E-1,9.094630480E-1
1.525695312E0,2.575252950E-1,1.732030511E-1,9.094630480E-1
1.528076562E0,2.514166534E-1,1.096731275E-1,9.155716896E-1
1.530458593E0,2.550818324E-1,6.446912885E-2,9.351193309E-1
1.532841458E0,2.563035488E-1,-2.725981176E-3,9.571104646E-1
1.535223437E0,2.611904740E-1,-7.236456126E-2,9.852102399E-1
1.537604687E0,2.624121904E-1,-1.676594615E-1,1.016975284E0
1.539986718E0,2.685208619E-1,-2.666195631E-1,1.054848909E0
1.542369583E0,2.721860409E-1,-3.777969182E-1,1.086613894E0
1.544751562E0,2.611904740E-1,-5.231827497E-1,1.100052953E0
1.547132812E0,2.587470114E-1,-6.673467755E-1,1.107383251E0
1.549514843E0,2.587470114E-1,-8.151760101E-1,1.113492012E0
1.551897708E0,2.477514446E-1,-9.776660204E-1,1.106161594E0
1.554279687E0,2.330906987E-1,-1.091286898E0,1.093944311E0
1.556660937E0,2.318689525E-1,-1.154816866E0,1.082948685E0
1.559042968E0,2.453079820E-1,-1.184138298E0,1.070731401E0
1.561425833E0,2.648556530E-1,-1.211016417E0,1.054848909E0
1.563807812E0,2.782946825E-1,-1.268437624E0,1.027970910E0
1.566189114E0,2.880685329E-1,-1.336854458E0,1.009644985E0
1.568571145E0,3.100596368E-1,-1.404049635E0,1.004758000E0
1.570954010E0,3.442680836E-1,-1.474910021E0,1.004758000E0
1.573335989E0,3.735895753E-1,-1.546992064E0,1.026749134E0
1.575717239E0,4.077980220E-1,-1.587309122E0,1.078061819E0
1.578099270E0,4.346760511E-1,-1.626404524E0,1.129374385E0
1.580482135E0,4.395629764E-1,-1.671608448E0,1.159917712E0
1.582864114E0,3.968024552E-1,-1.744912148E0,1.148922086E0
1.585245364E0,3.577071130E-1,-1.769346714E0,1.139148235E0
1.587627395E0,3.222769499E-1,-1.771790266E0,1.136704803E0
1.590010260E0,2.795164287E-1,-1.746134043E0,1.134261370E0
1.592392239E0,2.208734304E-1,-1.680160522E0,1.136704803E0
1.594773489E0,1.671173275E-1,-1.590974331E0,1.131817937E0
1.597155520E0,1.035873815E-1,-1.499344587E0,1.104939818E0
1.599538385E0,4.127918556E-2,-1.396719217E0,1.068287969E0
1.601920364E0,-2.102901787E-2,-1.298980951E0,1.025527477E0
1.604301666E0,-7.722857594E-2,-1.198799133E0,9.937624335E-1
1.606683697E0,-1.309846640E-1,-1.116943359E0,9.656625986E-1
1.609066510E0,-1.835190207E-1,-1.052191496E0,9.497801065E-1
1.611448541E0,-2.336099297E-1,-9.752225876E-1,9.485583901E-1
1.613829791E0,-2.995833457E-1,-9.226882458E-1,9.314541221E-1
1.616211822E0,-3.386786878E-1,-8.677104115E-1,9.131281972E-1
1.618594687E0,-3.680001795E-1,-8.322802186E-1,9.131281972E-1
1.620976666E0,-3.973217010E-1,-8.115108609E-1,9.363410473E-1
1.623357916E0,-4.193128347E-1,-7.992935777E-1,9.729929566E-1
1.625739947E0,-4.278649390E-1,-7.931848764E-1,1.018197060E0
1.628122812E0,-4.278649390E-1,-7.968500853E-1,1.068287969E0
1.630504791E0,-4.241997302E-1,-8.163977861E-1,1.114713669E0
1.632886041E0,-4.083172679E-1,-8.225064278E-1,1.155030727E0
1.635268072E0,-3.875478506E-1,-8.322802186E-1,1.191682696E0
1.637650937E0,-3.643350005E-1,-8.396106362E-1,1.229556203E0
1.640032916E0,-3.325700462E-1,-8.335019946E-1,1.268651605E0
1.642414166E0,-2.983615994E-1,-8.102891445E-1,1.310190439E0
1.644796197E0,-2.775922120E-1,-8.066239357E-1,1.341955304E0
1.647179062E0,-2.458272278E-1,-7.797458768E-1,1.371276855E0
1.649561041E0,-2.201709151E-1,-7.589764595E-1,1.399376631E0
1.651942343E0,-1.920711398E-1,-7.296549678E-1,1.427476406E0
1.654324375E0,-1.664148122E-1,-7.015551925E-1,1.448245883E0
1.656707239E0,-1.383150518E-1,-6.575729251E-1,1.470236897E0
1.659089218E0,-1.114370003E-1,-6.135906577E-1,1.492228031E0
1.661470468E0,-8.578068018E-2,-5.610563755E-1,1.509332299E0
1.663852500E0,-6.378954649E-2,-5.024133325E-1,1.527658224E0
1.666235364E0,-4.302014783E-2,-4.547658861E-1,1.543540716E0
1.668617343E0,-8.811722510E-3,-3.936794102E-1,1.560644984E0
1.670998593E0,2.661843225E-2,-3.387015760E-1,1.571640491E0
1.673380625E0,6.815723330E-2,-2.727282047E-1,1.585079551E0
1.675763489E0,1.060308516E-1,-2.250807434E-1,1.583857775E0
1.678145468E0,1.549000293E-1,-1.627725363E-1,1.578970909E0
1.680526718E0,2.062126696E-1,-1.029077917E-1,1.567975283E0
1.682908750E0,2.563035488E-1,-3.082575649E-2,1.550871134E0
1.685291614E0,3.063944578E-1,3.514763713E-2,1.522771358E0
1.687673593E0,3.552636504E-1,9.745582938E-2,1.489784598E0
1.690054843E0,4.090197384E-1,1.646509469E-1,1.448245883E0
1.692436875E0,4.603323638E-1,2.147418559E-1,1.399376631E0
1.694819739E0,5.128667355E-1,2.660544813E-1,1.345620513E0
1.697201718E0,5.605142117E-1,2.953760028E-1,1.282090664E0
1.699582968E0,6.154919863E-1,3.356930614E-1,1.221004128E0
1.701965000E0,6.704698801E-1,3.699015081E-1,1.155030727E0
1.704347864E0,7.278910875E-1,3.882274330E-1,1.086613894E0
1.706729843E0,7.853124142E-1,3.955578208E-1,1.019418836E0
1.709111145E0,8.500640392E-1,3.980012834E-1,9.522235394E-1
1.711493177E0,9.087070227E-1,3.796753287E-1,8.813632727E-1
1.713876041E0,9.722369909E-1,3.540190160E-1,8.117246628E-1
1.716258020E0,1.032101870E0,3.088150322E-1,7.408643365E-1
1.718639270E0,1.089523077E0,2.513937354E-1,6.700040698E-1
1.721021302E0,1.148166180E0,1.878637969E-1,6.003654599E-1
1.723404166E0,1.201922178E0,1.108948588E-1,5.258399844E-1
1.725786145E0,1.247126222E0,1.926514506E-2,4.525361955E-1
1.728167395E0,1.287443280E0,-7.480801642E-2,3.828976154E-1
1.730549427E0,1.321651697E0,-1.725463718E-1,3.132590652E-1
1.732932291E0,1.349751472E0,-2.788368464E-1,2.436204851E-1
1.735314270E0,1.366855741E0,-4.046749771E-1,1.703167260E-1
1.737695520E0,1.376629591E0,-5.341782570E-1,9.823467582E-2
1.740077552E0,1.382738233E0,-6.587946415E-1,2.493091486E-2
1.742460416E0,1.379073024E0,-7.882980108E-1,-4.470766336E-2
1.744842395E0,1.368077397E0,-9.153578281E-1,-1.167897061E-1
1.747223645E0,1.352194905E0,-1.033865690E0,-1.864282787E-1
1.749605677E0,1.332647324E0,-1.153595209E0,-2.621754706E-1
1.751988541E0,1.300882339E0,-1.276989937E0,-3.391444683E-1
1.754370520E0,1.264230490E0,-1.389389038E0,-4.136699736E-1
1.756751770E0,1.217804670E0,-1.496901035E0,-4.906389117E-1
1.759133854E0,1.159161687E0,-1.605634928E0,-5.614992380E-1
1.761516666E0,1.094410062E0,-1.699708223E0,-6.250291467E-1
1.763898645E0,1.021106243E0,-1.791337967E0,-6.812286973E-1
1.766279947E0,9.490242004E-1,-1.889076233E0,-7.276544571E-1
1.768661979E0,8.744986057E-1,-1.989258051E0,-7.704149485E-1
1.771044843E0,8.073035479E-1,-2.074779034E0,-8.034016490E-1
1.773426822E0,7.327780724E-1,-2.178626299E0,-8.400535583E-1
1.775808072E0,6.716915369E-1,-2.270255804E0,-8.669316173E-1
1.778190104E0,6.228224039E-1,-2.350890160E0,-8.901444674E-1
1.780572968E0,5.690662861E-1,-2.440076351E0,-9.182442427E-1
1.782954947E0,5.238623619E-1,-2.510936499E0,-9.414570928E-1
1.785336197E0,4.823234975E-1,-2.585462093E0,-9.683351517E-1
1.787718229E0,4.432281554E-1,-2.656322479E0,-9.964349270E-1
1.790101093E0,4.053545594E-1,-2.713743687E0,-1.025756240E0
1.792483072E0,3.589288294E-1,-2.779717207E0,-1.058743000E0
1.794864322E0,3.198334873E-1,-2.822477579E0,-1.085620999E0
1.797246354E0,2.782946825E-1,-2.870125055E0,-1.112499118E0
1.799629218E0,2.294255346E-1,-2.922659397E0,-1.133268476E0
1.802011197E0,1.866649985E-1,-2.961754799E0,-1.135711908E0
1.804392447E0,1.487913877E-1,-3.004515409E0,-1.123494625E0
1.806774479E0,1.206915975E-1,-3.058271408E0,-1.095394850E0
1.809157343E0,1.145829558E-1,-3.112027407E0,-1.059964776E0
1.811539322E0,1.194698662E-1,-3.173114061E0,-1.020869374E0
1.813920572E0,1.402392685E-1,-3.242752552E0,-9.756655097E-1
1.816302656E0,1.744477004E-1,-3.302617311E0,-9.304615259E-1
1.818685468E0,2.233168632E-1,-3.345377922E0,-8.852575421E-1
1.821067447E0,2.953988910E-1,-3.361260414E0,-8.437187076E-1
1.823448750E0,3.723678589E-1,-3.372255802E0,-8.058451414E-1
1.825830781E0,4.481150806E-1,-3.383251429E0,-7.765235901E-1
1.828213645E0,5.128667355E-1,-3.399133921E0,-7.545324564E-1
1.830595625E0,5.739531517E-1,-3.390581846E0,-7.288761735E-1
1.832976875E0,6.179354191E-1,-3.386916637E0,-7.129936814E-1
1.835358906E0,6.668046713E-1,-3.369812489E0,-6.861156225E-1
1.837741770E0,6.973478794E-1,-3.356373310E0,-6.457985640E-1
1.840123750E0,7.242258787E-1,-3.300173759E0,-6.030380130E-1
1.842505000E0,7.682081461E-1,-3.186553001E0,-5.749382377E-1
1.844887031E0,8.121904135E-1,-3.081484318E0,-5.810468793E-1
1.847269895E0,8.500640392E-1,-2.992298126E0,-6.054815054E-1
1.849651875E0,8.854942322E-1,-2.890894413E0,-6.262508631E-1
1.852033125E0,9.221460819E-1,-2.776051998E0,-6.372464299E-1
1.854415156E0,9.722369909E-1,-2.627000809E0,-6.335812807E-1
1.856798020E0,1.023549676E0,-2.480393410E0,-6.238074303E-1
1.859180000E0,1.080971003E0,-2.328898907E0,-6.067032218E-1
1.861561250E0,1.121288061E0,-2.211612940E0,-5.920424461E-1
1.863943281E0,1.166492105E0,-2.083331347E0,-5.724948049E-1
1.866326145E0,1.216583014E0,-1.952606201E0,-5.468384624E-1
1.868708125E0,1.280112863E0,-1.820659399E0,-5.175169706E-1
1.871089375E0,1.350973248E0,-1.703373432E0,-4.784216285E-1
1.873471406E0,1.421833515E0,-1.583643913E0,-4.124482274E-1
1.875854270E0,1.485363483E0,-1.461471081E0,-3.134881556E-1
1.878236250E0,1.528123975E0,-1.346628428E0,-2.194149643E-1
1.880617500E0,1.565997601E0,-1.237894535E0,-1.900934577E-1
1.882999583E0,1.592875600E0,-1.138934374E0,-1.998672932E-1
1.885382395E0,1.611201644E0,-1.028978705E0,-2.194149643E-1
1.887764375E0,1.635636210E0,-8.848146200E-1,-2.365191877E-1
1.890145677E0,1.655183911E0,-7.186594009E-1,-2.524016500E-1
1.892527708E0,1.664957643E0,-5.427303910E-1,-2.707276344E-1
1.894910572E0,1.664957643E0,-3.704665601E-1,-2.927187383E-1
1.897292552E0,1.652740359E0,-2.055330724E-1,-3.183750808E-1
1.899673802E0,1.625862360E0,-6.136899441E-2,-3.464748561E-1
1.902055833E0,1.592875600E0,6.569086015E-2,-3.745746315E-1
1.904438697E0,1.556223750E0,1.841986179E-1,-4.002309442E-1
1.906820677E0,1.520793676E0,2.819369733E-1,-4.197786152E-1
1.909201927E0,1.484141707E0,3.601276577E-1,-4.381045699E-1
1.911583958E0,1.452376723E0,4.199924469E-1,-4.527653158E-1
1.913966822E0,1.430385590E0,4.700833559E-1,-4.564304948E-1
1.916348802E0,1.413281441E0,4.945179224E-1,-4.588739574E-1
1.918730052E0,1.401064157E0,5.030700564E-1,-4.576522112E-1
1.921112083E0,1.387625098E0,4.969614148E-1,-4.576522112E-1
1.923494947E0,1.386403322E0,4.774137139E-1,-4.564304948E-1
1.925876927E0,1.386403322E0,4.444270134E-1,-4.491001070E-1
1.928258177E0,1.385181665E0,4.016664624E-1,-4.417697489E-1
1.930640208E0,1.377851248E0,3.442451656E-1,-4.344393611E-1
1.933023072E0,1.374186039E0,2.880456150E-1,-4.234437943E-1
1.935405052E0,1.375407815E0,2.306243479E-1,-4.124482274E-1
1.937786302E0,1.374186039E0,1.658726931E-1,-4.014526606E-1
1.940168333E0,1.366855741E0,9.623409808E-2,-3.953440189E-1
1.942551197E0,1.366855741E0,4.614318907E-2,-3.880136609E-1
1.944933177E0,1.355860114E0,-3.082575649E-2,-3.880136609E-1
1.947314427E0,1.344864607E0,-9.435568750E-2,-3.880136609E-1
1.949696510E0,1.326538682E0,-1.542204320E-1,-3.953440189E-1
1.952079322E0,1.320430040E0,-1.872071326E-1,-3.990092278E-1
1.954461354E0,1.300882339E0,-2.409632206E-1,-4.112265110E-1
1.956842604E0,1.277669430E0,-2.837237716E-1,-4.271090031E-1
1.959224635E0,1.253234863E0,-3.081583381E-1,-4.442132115E-1
1.961607500E0,1.219026446E0,-3.411450386E-1,-4.662043452E-1
1.963989479E0,1.189704895E0,-3.619144261E-1,-4.857520163E-1
1.966370729E0,1.151831269E0,-3.814620972E-1,-5.101866126E-1
1.968752760E0,1.115179420E0,-3.875707686E-1,-5.333994627E-1
1.971135625E0,1.072418928E0,-3.936794102E-1,-5.602775216E-1
1.973517604E0,1.032101870E0,-3.936794102E-1,-5.822686553E-1
1.975898854E0,9.966716766E-1,-3.887924850E-1,-6.054815054E-1
1.978280885E0,9.551328421E-1,-3.851273060E-1,-6.299160719E-1
1.980663750E0,9.233678579E-1,-3.606927097E-1,-6.470202804E-1
1.983045729E0,8.842724562E-1,-3.496971428E-1,-6.665679812E-1
1.985426979E0,8.549510241E-1,-3.289277554E-1,-6.836721897E-1
1.987809010E0,8.280729055E-1,-2.983844876E-1,-7.007763982E-1
1.990191875E0,7.999731302E-1,-2.690629959E-1,-7.166588902E-1
1.992573854E0,7.792037725E-1,-2.275242060E-1,-7.325413227E-1
1.994955104E0,7.620995045E-1,-1.774332970E-1,-7.423151731E-1
1.997337135E0,7.413301468E-1,-1.407814026E-1,-7.594193816E-1
1.999720000E0,7.205607891E-1,-1.090164408E-1,-7.777453661E-1
2.002101979E0,7.034565210E-1,-6.747764349E-2,-7.948495746E-1
2.004483229E0,6.912392378E-1,-2.105192840E-2,-8.131754994E-1
2.006865260E0,6.839088202E-1,2.659552544E-2,-8.278362751E-1
2.009248125E0,6.704698801E-1,5.713875592E-2,-8.473839164E-1
2.011630104E0,6.668046713E-1,1.047862023E-1,-8.571577668E-1
2.014011354E0,6.582525969E-1,1.451032758E-1,-8.681533337E-1
2.016393385E0,6.509221792E-1,1.903072596E-1,-8.742619753E-1
2.018776250E0,6.435917616E-1,2.318460643E-1,-8.779271841E-1
2.021158229E0,6.325962543E-1,2.648327649E-1,-8.815923333E-1
2.023539531E0,6.203789711E-1,2.953760028E-1,-8.840358257E-1
2.025921562E0,6.044964790E-1,3.295844197E-1,-8.840358257E-1
2.028304375E0,5.886139870E-1,3.625711203E-1,-8.815923333E-1
2.030686406E0,5.715097189E-1,3.845622540E-1,-8.791489005E-1
2.033067656E0,5.507403612E-1,4.028881788E-1,-8.742619753E-1
2.035449687E0,5.348578691E-1,4.334314466E-1,-8.632664084E-1
2.037832552E0,5.079798698E-1,4.603095055E-1,-8.473839164E-1
2.040214531E0,4.847669899E-1,4.847440720E-1,-8.290579915E-1
2.042595781E0,4.493367970E-1,4.932962060E-1,-8.131754994E-1
2.044977812E0,4.175718427E-1,5.165090561E-1,-7.875191569E-1
2.047360677E0,3.784765005E-1,5.299480557E-1,-7.581976652E-1
2.049742656E0,3.344942331E-1,5.385001898E-1,-7.276544571E-1
2.052123906E0,2.905119956E-1,5.507174730E-1,-6.946677566E-1
2.054505937E0,2.453079820E-1,5.617130399E-1,-6.604593396E-1
2.056888802E0,1.988822818E-1,5.690433979E-1,-6.286943555E-1
2.059270781E0,1.487913877E-1,5.714868903E-1,-6.005945802E-1
2.061652031E0,1.023656502E-1,5.800389647E-1,-5.749382377E-1
2.064034062E0,5.227474868E-2,5.800389647E-1,-5.541688800E-1
2.066416927E0,9.514220059E-3,5.849258900E-1,-5.333994627E-1
2.068798906E0,-3.080285341E-2,5.959214568E-1,-5.126300454E-1
2.071180156E0,-7.234165072E-2,6.069170237E-1,-4.955258369E-1
2.073562187E0,-1.138804555E-1,6.154691577E-1,-4.796433449E-1
2.075945052E0,-1.578627080E-1,6.154691577E-1,-4.698695242E-1
2.078327031E0,-2.006232440E-1,6.276864409E-1,-4.576522112E-1
2.080708281E0,-2.384968549E-1,6.350167990E-1,-4.478783906E-1
2.083090312E0,-2.775922120E-1,6.362385750E-1,-4.393262863E-1
2.085473177E0,-3.179092705E-1,6.447906494E-1,-4.332176447E-1
2.087855156E0,-3.570046127E-1,6.582296491E-1,-4.222220778E-1
2.090236406E0,-4.022086263E-1,6.704469919E-1,-4.161134362E-1
2.092618437E0,-4.413039684E-1,6.973249912E-1,-4.075613320E-1
2.095001302E0,-4.779558480E-1,7.254247665E-1,-4.038961232E-1
2.097383281E0,-5.194946527E-1,7.547463179E-1,-4.063395858E-1
2.099764531E0,-5.610334873E-1,7.865112424E-1,-4.112265110E-1
2.102146562E0,-6.025722027E-1,8.219414353E-1,-4.173351526E-1
2.104529427E0,-6.428892612E-1,8.622584939E-1,-4.234437943E-1
2.106911406E0,-6.844280958E-1,9.111276269E-1,-4.295524359E-1
2.109292656E0,-7.345190048E-1,9.453360438E-1,-4.429914653E-1
2.111674687E0,-7.699491978E-1,1.007644176E0,-4.552087784E-1
2.114057552E0,-8.127096891E-1,1.057735205E0,-4.710912406E-1
2.116439531E0,-8.493615389E-1,1.104160786E0,-4.906389117E-1
2.118820833E0,-8.847917318E-1,1.148143053E0,-5.114083290E-1
2.121202864E0,-9.141132832E-1,1.197012186E0,-5.321777463E-1
2.123585729E0,-9.409912825E-1,1.243438005E0,-5.529471040E-1
2.125967656E0,-9.629824162E-1,1.278868198E0,-5.761599541E-1
2.128348958E0,-9.813083410E-1,1.315520048E0,-5.981510878E-1
2.130730989E0,-9.996342659E-1,1.348506689E0,-6.176987886E-1
2.133113854E0,-1.019181967E0,1.371719599E0,-6.372464299E-1
2.135495833E0,-1.032620907E0,1.401041031E0,-6.506854892E-1
2.137877083E0,-1.050946832E0,1.416923523E0,-6.641244888E-1
2.140259114E0,-1.075381398E0,1.415701866E0,-6.775635481E-1
2.142641979E0,-1.097372532E0,1.414480209E0,-6.861156225E-1
2.145023958E0,-1.124250650E0,1.410815001E0,-7.019981146E-1
2.147405208E0,-1.138911366E0,1.415701866E0,-7.142153978E-1
2.149787239E0,-1.156015635E0,1.416923523E0,-7.239892483E-1
2.152170104E0,-1.174341559E0,1.405928135E0,-7.362065315E-1
2.154552083E0,-1.189002275E0,1.398597717E0,-7.484238148E-1
2.156933333E0,-1.206106544E0,1.381493330E0,-7.545324564E-1
2.159315364E0,-1.223210692E0,1.357058764E0,-7.606410980E-1
2.161698229E0,-1.235427976E0,1.343619823E0,-7.557542324E-1
2.164080208E0,-1.243980050E0,1.325293779E0,-7.472020984E-1
2.166461458E0,-1.246423602E0,1.310633183E0,-7.362065315E-1
2.168843489E0,-1.257419109E0,1.294750690E0,-7.191023231E-1
2.171226354E0,-1.248867035E0,1.311854839E0,-6.934459805E-1
2.173608333E0,-1.201219559E0,1.354615450E0,-6.616810560E-1
2.175989583E0,-1.115698576E0,1.410815001E0,-6.189205050E-1
2.178371614E0,-9.935256243E-1,1.473123074E0,-5.700513124E-1
2.180754479E0,-8.261487484E-1,1.548870325E0,-5.126300454E-1
2.183136458E0,-6.416676044E-1,1.597739458E0,-4.588739574E-1
2.185517708E0,-4.474126101E-1,1.635613203E0,-4.038961232E-1
2.187899739E0,-2.531576157E-1,1.656382561E0,-3.525834978E-1
2.190282604E0,-6.501127779E-2,1.668599844E0,-2.951622009E-1
2.192664583E0,1.316871643E-1,1.713803768E0,-1.839848161E-1
2.195045833E0,3.357159793E-1,1.788329363E0,-2.149480395E-2
2.197427864E0,5.311926603E-1,1.846972466E0,1.422169507E-1
2.199810729E0,7.010130882E-1,1.882402420E0,2.729419768E-1
2.202192708E0,8.292946815E-1,1.912945747E0,3.682368696E-1
2.204573958E0,8.903810978E-1,1.901950121E0,4.219929576E-1
2.206955989E0,9.013767242E-1,1.897063255E0,4.464275539E-1
2.209338854E0,8.683899641E-1,1.911724091E0,4.476493001E-1
2.211720833E0,8.170773983E-1,1.974032164E0,4.415406585E-1
2.214102083E0,7.291128635E-1,2.046114206E0,4.171060622E-1
2.216484114E0,6.191571951E-1,2.163400173E0,3.828976154E-1
2.218866979E0,4.847669899E-1,2.310007811E0,3.364719152E-1
2.221248958E0,3.247204125E-1,2.465167284E0,2.729419768E-1
2.223630208E0,1.622304022E-1,2.631322622E0,1.971947700E-1
2.226012239E0,1.440113783E-2,2.808473349E0,1.128954291E-1
2.228395104E0,-1.309846640E-1,2.970963478E0,2.981783263E-2
2.230777083E0,-2.885877788E-1,3.138340235E0,-3.982074559E-2
2.233158385E0,-4.584081769E-1,3.309382439E0,-7.525090128E-2
2.235540416E0,-6.294503212E-1,3.413229465E0,-1.045724079E-1
2.237923229E0,-7.919403315E-1,3.482867956E0,-1.314504445E-1
2.240305208E0,-9.495433569E-1,3.518298149E0,-1.522198468E-1
2.242686510E0,-1.093707442E0,3.532958984E0,-1.729892492E-1
2.245068541E0,-1.217102051E0,3.517076492E0,-1.900934577E-1
2.247451406E0,-1.316062093E0,3.471872568E0,-2.071976811E-1
2.249833333E0,-1.395474553E0,3.397346973E0,-2.267453521E-1
2.252214635E0,-1.443122029E0,3.315491199E0,-2.438495606E-1
2.254596666E0,-1.468778372E0,3.215309381E0,-2.621754706E-1
2.256979531E0,-1.488325953E0,3.082140684E0,-2.890535593E-1
2.259361510E0,-1.504208446E0,2.929424524E0,-3.171533346E-1
2.261742760E0,-1.516425729E0,2.752273798E0,-3.464748561E-1
2.264124791E0,-1.526199579E0,2.551910162E0,-3.782398105E-1
2.266507656E0,-1.528643012E0,2.345438004E0,-4.100047648E-1
2.268889635E0,-1.496878147E0,2.163400173E0,-4.283307195E-1
2.271270885E0,-1.428461313E0,2.011905670E0,-4.283307195E-1
2.273652916E0,-1.327057719E0,1.873850346E0,-4.234437943E-1
2.276035781E0,-1.204884768E0,1.740681887E0,-4.271090031E-1
2.278417760E0,-1.101037741E0,1.570861578E0,-4.613174200E-1
2.280799010E0,-1.065607667E0,1.332624197E0,-5.260690451E-1
2.283181041E0,-1.086377025E0,1.068730593E0,-5.969293714E-1
2.285563906E0,-1.129137516E0,8.427107930E-1,-6.531289220E-1
2.287945885E0,-1.153572083E0,6.863294244E-1,-6.824504137E-1
2.290327135E0,-1.165789485E0,5.775955319E-1,-6.983329058E-1
2.292709166E0,-1.157237291E0,4.920744896E-1,-7.081067562E-1
2.295092031E0,-1.136467934E0,4.199924469E-1,-7.178806067E-1
2.297474010E0,-1.110811591E0,3.454669118E-1,-7.349848151E-1
2.299855260E0,-1.087598681E0,2.575023770E-1,-7.520890236E-1
2.302237291E0,-1.061942458E0,1.622074842E-1,-7.618628740E-1
2.304620156E0,-1.036286116E0,4.858665168E-2,-7.655280232E-1
2.307002135E0,-1.000856042E0,-6.503418088E-2,-7.569759488E-1
2.309383385E0,-9.642041922E-1,-1.896505952E-1,-7.423151731E-1
2.311765416E0,-9.299957752E-1,-3.154887259E-1,-7.203240395E-1
2.314148281E0,-9.177784920E-1,-4.401051104E-1,-6.971111894E-1
2.316530260E0,-9.470999241E-1,-5.818257332E-1,-6.800069809E-1
2.318911510E0,-9.984126091E-1,-6.991117597E-1,-6.653462052E-1
2.321293541E0,-1.052168608E0,-7.748589516E-1,-6.519072056E-1
2.323676406E0,-1.092485666E0,-7.907414436E-1,-6.409116387E-1
2.326058385E0,-1.105924726E0,-7.626416683E-1,-6.262508631E-1
2.328439635E0,-1.094929099E0,-7.174376845E-1,-6.091466546E-1
2.330821666E0,-1.020403624E0,-6.160341501E-1,-5.676078796E-1
2.333204531E0,-8.909003735E-1,-5.134088993E-1,-5.248473287E-1
2.335586510E0,-7.833882570E-1,-4.816439152E-1,-5.077431202E-1
2.337967760E0,-7.662839890E-1,-5.402868986E-1,-5.150735378E-1
2.340349791E0,-8.432528973E-1,-6.624598503E-1,-5.224038959E-1
2.342732656E0,-9.458782673E-1,-7.320984602E-1,-5.150735378E-1
2.345114635E0,-1.030177474E0,-7.088855505E-1,-4.869737327E-1
2.347495885E0,-1.059498906E0,-6.001516581E-1,-4.417697489E-1
2.349877916E0,-1.052168608E0,-4.572093487E-1,-4.014526606E-1
2.352260781E0,-9.923039675E-1,-2.568457127E-1,-3.501400352E-1
2.354642760E0,-8.909003735E-1,-1.372154802E-2,-2.841666341E-1
2.357024010E0,-8.041576147E-1,1.658726931E-1,-2.414060980E-1
2.359406041E0,-7.931619883E-1,2.294026017E-1,-2.328539938E-1
2.361788906E0,-8.799048662E-1,2.110766768E-1,-2.487364858E-1
2.364170885E0,-9.263305664E-1,2.965977192E-1,-2.059759498E-1
2.366552135E0,-9.080046415E-1,4.542008638E-1,-1.021289527E-1
2.368934166E0,-8.469181061E-1,6.582296491E-1,4.203512520E-2
2.371317031E0,-7.711708546E-1,8.402673602E-1,1.776470989E-1
2.373699010E0,-7.174148560E-1,9.428926110E-1,2.631681561E-1
2.376080260E0,-7.027540207E-1,9.734358191E-1,3.047069311E-1
2.378462291E0,-6.807628870E-1,1.029635429E0,3.621282279E-1
2.380845156E0,-6.380023956E-1,1.116378069E0,4.439840913E-1
2.383227135E0,-5.927983522E-1,1.226333857E0,5.405007005E-1
2.385608385E0,-5.646985769E-1,1.325293779E0,6.260218024E-1
2.387990416E0,-5.561465025E-1,1.418145418E0,7.054342031E-1
2.390373281E0,-5.598117113E-1,1.491449118E0,7.738510370E-1
2.392755260E0,-5.720289946E-1,1.570861578E0,8.276071548E-1
2.395136510E0,-6.013505459E-1,1.624617577E0,8.667024970E-1
2.397518541E0,-6.428892612E-1,1.650274038E0,8.923587799E-1
2.399901406E0,-6.880933046E-1,1.677151918E0,9.045761228E-1
2.402283385E0,-7.406276464E-1,1.696699619E0,9.009109139E-1
2.404664635E0,-8.004924059E-1,1.697921276E0,8.862501383E-1
2.407046666E0,-8.615789413E-1,1.683260679E0,8.728111386E-1
2.409429531E0,-9.104480743E-1,1.662491322E0,8.581503630E-1
2.411811510E0,-9.446564913E-1,1.628282785E0,8.410461545E-1
2.414192760E0,-9.617606401E-1,1.574526787E0,8.202767968E-1
2.416574791E0,-9.654258490E-1,1.482897043E0,7.921770215E-1
2.418957656E0,-9.605389833E-1,1.358280659E0,7.591903210E-1
2.421339635E0,-9.336608648E-1,1.222668648E0,7.310905457E-1
2.423720885E0,-9.031176567E-1,1.066287279E0,6.932169199E-1
2.426102916E0,-8.640223742E-1,8.989104033E-1,6.516780853E-1
2.428485781E0,-8.102662563E-1,7.327551842E-1,6.162479520E-1
2.430867760E0,-7.565101385E-1,5.592696071E-1,5.771526098E-1
2.433249010E0,-6.942019463E-1,3.894491792E-1,5.392789841E-1
2.435631041E0,-6.282285452E-1,2.318460643E-1,5.050705671E-1
2.438013906E0,-5.683637857E-1,7.912988961E-2,4.671969712E-1
2.440395885E0,-5.060555935E-1,-5.892553553E-2,4.329885244E-1
2.442777135E0,-4.339735806E-1,-1.627725363E-1,3.987801075E-1
2.445159166E0,-3.753305674E-1,-2.690629959E-1,3.609065115E-1
2.447542031E0,-3.130223751E-1,-3.423667550E-1,3.303632736E-1
2.449924010E0,-2.653748989E-1,-4.058966935E-1,2.998200357E-1
2.452305260E0,-2.213926464E-1,-4.584310651E-1,2.680550516E-1
2.454687291E0,-1.786321104E-1,-4.743135571E-1,2.436204851E-1
2.457070156E0,-1.444236934E-1,-4.743135571E-1,2.191859037E-1
2.459452135E0,-1.175456420E-1,-4.498789608E-1,2.008599639E-1
2.461833385E0,-9.555451572E-2,-4.217791855E-1,1.825340241E-1
2.464215416E0,-6.256781518E-2,-3.545840681E-1,1.788688302E-1
2.466598281E0,-4.912879318E-2,-2.971627712E-1,1.776470989E-1
2.468980260E0,-4.790706560E-2,-2.470718771E-1,1.764253676E-1
2.471361510E0,-4.179841653E-2,-1.749898344E-1,1.800905615E-1
2.473743541E0,-2.469420433E-2,-8.213839680E-2,1.837557405E-1
2.476126406E0,4.627302289E-3,2.659552544E-2,2.008599639E-1
2.478508385E0,1.073594764E-2,9.501236677E-2,2.130772471E-1
2.480889635E0,1.684459671E-2,1.817551553E-1,2.362900972E-1
2.483271666E0,3.761399910E-2,2.746066153E-1,2.643898726E-1
2.485654531E0,4.494436830E-2,3.344713449E-1,2.973765731E-1
2.488036510E0,4.372263700E-2,3.796753287E-1,3.352501690E-1
2.490417760E0,4.738783091E-2,4.297662973E-1,3.841193616E-1
2.492799791E0,4.494436830E-2,4.713050723E-1,4.354319870E-1
2.495182656E0,4.372263700E-2,5.213959813E-1,4.952967763E-1
2.497564635E0,4.127918556E-2,5.653782487E-1,5.490528345E-1
2.499945885E0,3.639226779E-2,5.959214568E-1,5.954785347E-1
2.502327916E0,4.005745426E-2,6.362385750E-1,6.480129361E-1
2.504710781E0,4.616609961E-2,6.606731415E-1,6.968820691E-1
2.507092760E0,4.983128607E-2,6.692252159E-1,7.445295453E-1
2.509474010E0,5.471820384E-2,6.887729168E-1,7.970638871E-1
2.511856041E0,7.060068846E-2,7.144292593E-1,8.520417213E-1
2.514238906E0,8.037452400E-2,7.364203334E-1,8.984674811E-1
2.516620885E0,1.048091128E-1,7.694070339E-1,9.473366141E-1
2.519002135E0,1.377958208E-1,8.158327937E-1,1.005979776E0
2.521384166E0,1.671173275E-1,8.561498523E-1,1.047518611E0
2.523767031E0,2.037692070E-1,9.050190449E-1,1.080505252E0
2.526149010E0,2.379776239E-1,9.282317758E-1,1.108605027E0
2.528530260E0,2.672991157E-1,9.428926110E-1,1.141591787E0
2.530912291E0,2.660773993E-1,9.294535518E-1,1.167248011E0
2.533295156E0,2.367558777E-1,8.989104033E-1,1.181908846E0
2.535677135E0,2.196516842E-1,8.989104033E-1,1.177021861E0
2.538058385E0,2.208734304E-1,9.160144925E-1,1.158695936E0
2.540440416E0,2.489731908E-1,9.722140431E-1,1.153809071E0
2.542823281E0,2.734077573E-1,1.019861460E0,1.153809071E0
2.545205260E0,3.063944578E-1,1.073617697E0,1.152587295E0
2.547586510E0,3.283855915E-1,1.102939129E0,1.145256877E0
2.549968541E0,3.344942331E-1,1.098052263E0,1.147700429E0
2.552351406E0,3.369376957E-1,1.079726219E0,1.173356652E0
2.554733385E0,3.271638751E-1,1.061400414E0,1.223447561E0
2.557114635E0,3.149465621E-1,1.058956861E0,1.273538470E0
2.559496666E0,3.027292788E-1,1.058956861E0,1.311412096E0
2.561879531E0,2.905119956E-1,1.069952488E0,1.333403230E0
2.564261510E0,2.917337120E-1,1.052848339E0,1.344398856E0
2.566642760E0,3.051727414E-1,1.056513309E0,1.357837796E0
2.569024791E0,3.137248456E-1,1.050404787E0,1.355394363E0
2.571407656E0,3.332725167E-1,1.040630817E0,1.346842289E0
2.573789635E0,3.528201878E-1,1.044296026E0,1.349285722E0
2.576170885E0,3.552636504E-1,1.052848339E0,1.365168214E0
2.578552916E0,3.442680836E-1,1.073617697E0,1.388381124E0
2.580935781E0,3.149465621E-1,1.080948114E0,1.407928705E0
2.583317760E0,2.880685329E-1,1.101717472E0,1.420145988E0
2.585699010E0,2.501949072E-1,1.105382681E0,1.420145988E0
2.588081041E0,2.196516842E-1,1.121265173E0,1.425032973E0
2.590463906E0,1.927736402E-1,1.150586605E0,1.438472033E0
2.592845885E0,1.622304022E-1,1.183573246E0,1.456797957E0
2.595227135E0,1.524565667E-1,1.258098841E0,1.498336673E0
2.597609166E0,1.402392685E-1,1.320406914E0,1.563088417E0
2.599992031E0,7.548760623E-2,1.311854839E0,1.679152727E0
2.602374010E0,-7.600684464E-2,1.212894678E0,1.786664844E0
2.604755260E0,-1.273194849E-1,1.217781782E0,1.797660470E0
2.607137291E0,-8.211549371E-2,1.271537781E0,1.770782351E0
2.609520156E0,-1.003345195E-2,1.369276047E0,1.795217037E0
2.611902135E0,1.928805560E-2,1.390045643E0,1.844086170E0
2.614283385E0,-2.347247675E-2,1.343619823E0,1.910059571E0
2.616665416E0,-8.211549371E-2,1.311854839E0,1.987028360E0
2.619048281E0,-1.212108359E-1,1.304524422E0,2.068884373E0
2.621430260E0,-1.273194849E-1,1.292307138E0,2.144631386E0
2.623811510E0,-6.867646426E-2,1.284976721E0,2.213048220E0
2.626193541E0,3.150535002E-2,1.305746317E0,2.277800083E0
2.628576406E0,1.524565667E-1,1.314298391E0,2.318117142E0
2.630958385E0,2.538600862E-1,1.310633183E0,2.341329813E0
2.633339635E0,3.210552037E-1,1.320406914E0,2.351103783E0
2.635721666E0,3.418246210E-1,1.265429258E0,2.332777739E0
2.638104531E0,3.100596368E-1,1.133482456E0,2.320560455E0
2.640486510E0,2.697425783E-1,1.038187504E0,2.337664843E0
2.642867760E0,2.269820720E-1,9.587751031E-1,2.365764618E0
2.645249791E0,1.927736402E-1,9.025755525E-1,2.397529364E0
2.647632656E0,1.561217606E-1,8.622584939E-1,2.431737900E0
2.650014635E0,1.255785227E-1,8.341587186E-1,2.458616018E0
2.652395885E0,1.182481498E-1,8.194979429E-1,2.453729153E0
2.654777916E0,1.170264184E-1,7.242030501E-1,2.410968542E0
2.657160781E0,1.206915975E-1,6.374602914E-1,2.363321066E0
2.659542760E0,1.390175372E-1,5.800389647E-1,2.310786724E0
2.661924010E0,1.341306269E-1,4.688616395E-1,2.263139248E0
2.664306041E0,1.219133288E-1,3.943360746E-1,2.253365517E0
2.666688906E0,1.158046871E-1,3.283627033E-1,2.250921965E0
2.669070885E0,1.243567914E-1,2.660544813E-1,2.227709055E0
2.671452135E0,1.768911630E-1,2.819369733E-1,2.170287848E0
2.673834166E0,2.587470114E-1,3.234757781E-1,2.109201431E0
2.676217031E0,3.039509952E-1,2.953760028E-1,2.063997269E0
2.678599010E0,3.283855915E-1,2.721631527E-1,2.088431835E0
2.680980260E0,3.564853668E-1,2.684979439E-1,2.150740147E0
2.683362291E0,3.858068883E-1,2.819369733E-1,2.241147995E0
2.685745156E0,3.760330379E-1,2.599458396E-1,2.347438574E0
2.688127135E0,3.149465621E-1,1.939724684E-1,2.447620392E0
2.690508385E0,2.245386094E-1,1.072296649E-1,2.535584927E0
2.692890416E0,1.426827312E-1,7.302124798E-2,2.619884253E0
2.695273281E0,7.182241976E-2,7.912988961E-2,2.684635878E0
2.697655260E0,7.070761174E-3,7.668642700E-2,2.726174593E0
2.700036510E0,-3.324631229E-2,1.157817692E-1,2.743278980E0
2.702418541E0,-5.279398337E-2,1.683161259E-1,2.735948563E0
2.704801406E0,-6.256781518E-2,2.330678105E-1,2.721287727E0
2.707183385E0,-6.623300910E-2,3.784536123E-1,2.700518370E0
2.709564635E0,-7.356338203E-2,6.093605161E-1,2.652870893E0
2.711946666E0,-1.053283513E-1,8.537063599E-1,2.569793224E0
2.714329531E0,-1.859624833E-1,1.036965847E0,2.457394123E0
2.716711510E0,-3.105789125E-1,1.123708487E0,2.316895247E0
2.719092760E0,-4.535212517E-1,1.112712860E0,2.160513878E0
2.721474791E0,-5.927983522E-1,1.044296026E0,1.990693569E0
2.723857656E0,-7.088626623E-1,9.355621934E-1,1.812321186E0
2.726239635E0,-7.956055403E-1,8.072806597E-1,1.633948684E0
2.728620885E0,-8.505833149E-1,6.692252159E-1,1.451910973E0
2.731002916E0,-8.896787167E-1,5.104004145E-1,1.269873381E0
2.733385781E0,-9.055610895E-1,3.637928367E-1,1.093944311E0
2.735767760E0,-9.080046415E-1,2.208504975E-1,9.241237640E-1
2.738149010E0,-9.116698503E-1,6.324741244E-2,7.616337538E-1
2.740531041E0,-9.043394327E-1,-8.336012065E-2,6.064741015E-1
2.742913854E0,-8.957873583E-1,-2.299676538E-1,4.525361955E-1
2.745295833E0,-9.055610895E-1,-4.022315145E-1,2.973765731E-1
2.747677135E0,-9.067828655E-1,-5.488390326E-1,1.715384573E-1
2.750059166E0,-9.080046415E-1,-6.832292676E-1,7.502181828E-2
2.752441979E0,-9.104480743E-1,-8.102891445E-1,1.271362044E-2
2.754823958E0,-9.165567160E-1,-9.446793795E-1,-2.271653339E-2
2.757205260E0,-9.177784920E-1,-1.076626062E0,-3.371210024E-2
2.759587291E0,-9.104480743E-1,-1.190247059E0,-3.982074559E-2
2.761970104E0,-8.994524479E-1,-1.284320116E0,-4.959458113E-2
2.764352083E0,-8.750178814E-1,-1.338076353E0,-7.402916998E-2
2.766733385E0,-8.322573900E-1,-1.323415518E0,-1.094593257E-1
2.769115364E0,-7.931619883E-1,-1.297759295E0,-1.693240553E-1
2.771498229E0,-7.504014969E-1,-1.254998684E0,-2.438495606E-1
2.773880208E0,-7.076410055E-1,-1.208572865E0,-3.330358267E-1
2.776261510E0,-6.538848877E-1,-1.142599583E0,-4.332176447E-1
2.778643489E0,-6.025722027E-1,-1.074182749E0,-5.419515371E-1
2.781026354E0,-5.634769201E-1,-1.010652781E0,-6.604593396E-1
2.783408333E0,-5.304901600E-1,-9.434576035E-1,-7.777453661E-1
2.785789583E0,-5.023903847E-1,-8.628234863E-1,-8.840358257E-1
2.788171614E0,-4.938383102E-1,-8.188412189E-1,-9.976566434E-1
2.790554479E0,-4.901731312E-1,-7.724155188E-1,-1.100281835E0
2.792936458E0,-4.877296686E-1,-7.430939674E-1,-1.201685309E0
2.795317708E0,-4.779558480E-1,-7.162159681E-1,-1.293315053E0
2.797699739E0,-4.608516395E-1,-6.758988500E-1,-1.377614379E0
2.800082604E0,-4.620733559E-1,-6.551294923E-1,-1.460691929E0
2.802464583E0,-4.852862060E-1,-6.453556418E-1,-1.541326165E0
2.804845833E0,-5.451509953E-1,-6.416904330E-1,-1.615851641E0
2.807227864E0,-6.221199036E-1,-6.319166422E-1,-1.673272848E0
2.809610729E0,-7.064192295E-1,-6.099255085E-1,-1.707481384E0
2.811992708E0,-8.041576147E-1,-5.940430164E-1,-1.731915951E0
2.814373958E0,-8.786830902E-1,-5.671650171E-1,-1.752685308E0
2.816755989E0,-9.287739992E-1,-5.512825251E-1,-1.775898218E0
2.819138854E0,-9.422130585E-1,-5.195175409E-1,-1.785672069E0
2.821520833E0,-9.214435816E-1,-5.158523321E-1,-1.797889352E0
2.823902083E0,-9.006742239E-1,-5.134088993E-1,-1.786893725E0
2.826284114E0,-9.104480743E-1,-5.378434658E-1,-1.750241876E0
2.828666979E0,-9.238871336E-1,-5.769388080E-1,-1.713590026E0
2.831048958E0,-9.519869089E-1,-6.294731498E-1,-1.678159833E0
2.833430208E0,-9.935256243E-1,-6.404687166E-1,-1.603634357E0
2.835812239E0,-1.047281623E0,-6.795640588E-1,-1.535217524E0
2.838195104E0,-1.082711816E0,-7.113290429E-1,-1.481461406E0
2.840577083E0,-1.104702950E0,-7.125507593E-1,-1.427705288E0
2.842958333E0,-1.120585442E0,-7.125507593E-1,-1.372727513E0
2.845340364E0,-1.132802725E0,-7.247680426E-1,-1.317749619E0
2.847723229E0,-1.134024501E0,-7.345418930E-1,-1.261550069E0
2.850105208E0,-1.127915859E0,-7.333201766E-1,-1.218789577E0
2.852486458E0,-1.115698576E0,-7.162159681E-1,-1.169920325E0
2.854868489E0,-1.110811591E0,-6.966682673E-1,-1.117385983E0
2.857251354E0,-1.115698576E0,-6.856727004E-1,-1.059964776E0
2.859633333E0,-1.107146382E0,-6.368035078E-1,-9.903262854E-1
2.862014583E0,-1.105924726E0,-5.671650171E-1,-9.365701675E-1
2.864396614E0,-1.123028874E0,-5.011916161E-1,-8.901444674E-1
2.866779479E0,-1.141354799E0,-4.205574393E-1,-8.486056328E-1
2.869161458E0,-1.165789485E0,-3.374798596E-1,-8.205058575E-1
2.871542708E0,-1.186558843E0,-2.531805038E-1,-7.997364998E-1
2.873924739E0,-1.187780499E0,-1.652159989E-1,-7.777453661E-1
2.876307552E0,-1.145020008E0,-5.403862149E-2,-7.288761735E-1
2.878689583E0,-1.125472307E0,-2.227365226E-2,-6.946677566E-1
2.881070833E0,-1.145020008E0,-7.480801642E-2,-6.665679812E-1
2.883452864E0,-1.164567709E0,-1.578856260E-1,-6.335812807E-1
2.885835677E0,-1.159680724E0,-2.140851766E-1,-5.810468793E-1
2.888217656E0,-1.124250650E0,-2.641760707E-1,-5.260690451E-1
2.890598906E0,-1.074159741E0,-3.655796349E-1,-4.943041205E-1
2.892980937E0,-1.041172981E0,-5.085219741E-1,-4.833085537E-1
2.895363802E0,-1.013073325E0,-6.661250591E-1,-4.808650911E-1
2.897745781E0,-9.874169827E-1,-7.882980108E-1,-4.784216285E-1
2.900127083E0,-9.690910578E-1,-8.347237110E-1,-4.833085537E-1
2.902509062E0,-9.849735498E-1,-8.322802186E-1,-5.114083290E-1
2.904891927E0,-1.006964684E0,-8.225064278E-1,-5.505036712E-1
2.907273906E0,-1.036286116E0,-8.054022193E-1,-5.944859385E-1
2.909655156E0,-1.090042233E0,-7.907414436E-1,-6.384682059E-1
2.912037187E0,-1.159680724E0,-7.968500853E-1,-6.848939061E-1
2.914420052E0,-1.231762767E0,-8.127325773E-1,-7.325413227E-1
2.916802031E0,-1.303844810E0,-8.396106362E-1,-7.875191569E-1
2.919183281E0,-1.358822703E0,-8.616017699E-1,-8.327231407E-1
2.921565312E0,-1.377148628E0,-8.994753361E-1,-8.608229160E-1
2.923948177E0,-1.339275002E0,-9.617835879E-1,-8.779271841E-1
2.926330156E0,-1.263527751E0,-9.898833632E-1,-9.304615259E-1
2.928711406E0,-1.212215185E0,-9.776660204E-1,-1.007430434E0
2.931093437E0,-1.219545484E0,-9.911050797E-1,-1.085620999E0
2.933476302E0,-1.312397003E0,-1.026535273E0,-1.152816176E0
2.935858281E0,-1.430904746E0,-1.048526287E0,-1.191911459E0
2.938239531E0,-1.520090938E0,-1.053413272E0,-1.217567801E0
2.940621562E0,-1.565294981E0,-1.044861197E0,-1.242002368E0
2.943004427E0,-1.545747280E0,-1.026535273E0,-1.256663203E0
2.945386406E0,-1.524977922E0,-1.097395658E0,-1.283541203E0
2.947767656E0,-1.498099804E0,-1.204907894E0,-1.284762979E0
2.950149687E0,-1.439456820E0,-1.328302383E0,-1.257884860E0
2.952532552E0,-1.338053226E0,-1.437036276E0,-1.223676443E0
2.954914531E0,-1.229319334E0,-1.542105198E0,-1.204128742E0
2.957295781E0,-1.137689590E0,-1.652060747E0,-1.195576668E0
2.959677812E0,-1.063164115E0,-1.741246939E0,-1.176028967E0
2.962060677E0,-1.002077818E0,-1.834098339E0,-1.161368251E0
2.964442656E0,-9.385478497E-1,-1.901293516E0,-1.124716401E0
2.966823906E0,-8.762396574E-1,-1.951384544E0,-1.080734134E0
2.969205937E0,-8.078228235E-1,-1.968488693E0,-1.048969150E0
2.971588750E0,-7.455146313E-1,-1.937945366E0,-1.026978016E0
2.973970729E0,-6.868715286E-1,-1.881745815E0,-9.976566434E-1
2.976351979E0,-6.123460531E-1,-1.787672758E0,-9.573395848E-1
2.978734010E0,-5.365988016E-1,-1.649617195E0,-9.219093919E-1
2.981116875E0,-5.048338771E-1,-1.507896662E0,-9.035834670E-1
2.983498854E0,-5.097208023E-1,-1.361289263E0,-8.840358257E-1
2.985880104E0,-4.926165938E-1,-1.237894535E0,-8.583794832E-1
2.988262135E0,-5.097208023E-1,-1.031422138E0,-8.400535583E-1
2.990645000E0,-5.402640104E-1,-8.212846518E-1,-8.278362751E-1
2.993026979E0,-5.989071131E-1,-6.575729251E-1,-8.180624247E-1
2.995408229E0,-6.770977974E-1,-4.987481236E-1,-8.095102906E-1
2.997790260E0,-7.504014969E-1,-3.289277554E-1,-8.009582162E-1
3.000173125E0,-8.371442556E-1,-1.713246405E-1,-7.875191569E-1
3.002555104E0,-9.055610895E-1,-2.838230133E-2,-7.704149485E-1
3.004936354E0,-9.532085657E-1,9.867756069E-2,-7.484238148E-1
3.007318385E0,-1.024068832E0,1.695378721E-1,-7.325413227E-1
3.009701250E0,-1.080268383E0,1.976376474E-1,-7.093284726E-1
3.012083229E0,-1.105924726E0,1.744247973E-1,-6.873373389E-1
3.014464479E0,-1.090042233E0,1.475467384E-1,-6.641244888E-1
3.016846510E0,-1.017960310E0,1.328859925E-1,-6.323595643E-1
3.019229375E0,-9.373260736E-1,5.958221853E-2,-6.030380130E-1
3.021611354E0,-8.737962246E-1,-8.824704587E-2,-5.834903717E-1
3.023992604E0,-8.273704052E-1,-2.886106670E-1,-5.590557456E-1
3.026374635E0,-7.552884817E-1,-4.425485730E-1,-5.162952542E-1
3.028757500E0,-6.758760214E-1,-5.586128831E-1,-4.784216285E-1
3.031139479E0,-5.927983522E-1,-6.624598503E-1,-4.454349279E-1
3.033520729E0,-5.414857864E-1,-7.711937428E-1,-4.173351526E-1
3.035902760E0,-4.975035191E-1,-8.432757854E-1,-3.794615269E-1
3.038285625E0,-4.254214764E-1,-8.567148447E-1,-3.269271851E-1
3.040667552E0,-3.386786878E-1,-8.420540690E-1,-2.756145298E-1
3.043048854E0,-2.653748989E-1,-8.115108609E-1,-2.438495606E-1
3.045430885E0,-2.189491838E-1,-7.870762348E-1,-2.206366956E-1
3.047813697E0,-1.945145875E-1,-7.638633847E-1,-2.023107558E-1
3.050195677E0,-1.810755730E-1,-6.966682673E-1,-1.803196222E-1
3.052576927E0,-1.871842146E-1,-6.013733745E-1,-1.546633095E-1
3.054958958E0,-2.250578254E-1,-5.036350489E-1,-1.314504445E-1
3.057341822E0,-2.678183615E-1,-3.729099929E-1,-1.094593257E-1
3.059723802E0,-3.240179420E-1,-2.482936084E-1,-1.009072214E-1
3.062105052E0,-3.741088212E-1,-1.163468212E-1,-9.968549013E-2
3.064487083E0,-4.193128347E-1,4.604391754E-3,-1.106810570E-1
3.066869947E0,-4.584081769E-1,1.047862023E-1,-1.326721758E-1
3.069251927E0,-4.803993106E-1,2.025245726E-1,-1.558850408E-1
3.071633177E0,-4.962817729E-1,2.721631527E-1,-1.815413535E-1
3.074015208E0,-4.999469817E-1,3.210323155E-1,-2.059759498E-1
3.076398072E0,-4.975035191E-1,3.466886282E-1,-2.316322625E-1
3.078780052E0,-4.852862060E-1,3.552407324E-1,-2.524016500E-1
3.081161302E0,-4.632950723E-1,3.491320908E-1,-2.719493508E-1
3.083543333E0,-4.351952970E-1,3.259192407E-1,-2.939404845E-1
3.085926197E0,-3.924347758E-1,3.027063906E-1,-3.122664094E-1
3.088308177E0,-3.533394337E-1,2.599458396E-1,-3.354792893E-1
3.090689427E0,-3.130223751E-1,2.184070349E-1,-3.623573184E-1
3.093071458E0,-2.751487494E-1,1.829769015E-1,-3.892353773E-1
3.095454322E0,-2.384968549E-1,1.536553800E-1,-4.112265110E-1
3.097836302E0,-2.103970796E-1,1.194469631E-1,-4.368828237E-1
3.100217552E0,-1.786321104E-1,1.047862023E-1,-4.564304948E-1
3.102599583E0,-1.444236934E-1,9.867756069E-2,-4.771999121E-1
3.104982395E0,-1.151021868E-1,8.890372515E-2,-5.004127622E-1
3.107364375E0,-8.455894887E-2,8.279508352E-2,-5.236256123E-1
3.109745677E0,-5.890262872E-2,6.935605407E-2,-5.492819548E-1
3.112127708E0,-2.958112210E-2,6.446912885E-2,-5.737165213E-1
3.114510520E0,-2.596154809E-4,5.225184560E-2,-6.018162966E-1
3.116892500E0,3.394880518E-2,4.858665168E-2,-6.250291467E-1
3.119273750E0,7.670933753E-2,5.347357690E-2,-6.433551311E-1
3.121655781E0,1.182481498E-1,5.836048722E-2,-6.604593396E-1
3.124038645E0,1.610086709E-1,7.179951668E-2,-6.812286973E-1
3.126420625E0,1.927736402E-1,8.523853123E-2,-7.019981146E-1
3.128801875E0,2.245386094E-1,1.035644710E-1,-7.203240395E-1
3.131183906E0,2.526383698E-1,1.292207986E-1,-7.398717403E-1
3.133566770E0,2.770729661E-1,1.487684697E-1,-7.606410980E-1
3.135948750E0,3.063944578E-1,1.829769015E-1,-7.765235901E-1
3.138330000E0,3.320507705E-1,2.147418559E-1,-7.899626493E-1
3.140712031E0,3.601505458E-1,2.416199148E-1,-7.997364998E-1
3.143094895E0,3.919155300E-1,2.672762275E-1,-8.119537830E-1
3.145476875E0,4.273456633E-1,2.965977192E-1,-8.180624247E-1
3.147858125E0,4.639975727E-1,3.124802113E-1,-8.180624247E-1
3.150240156E0,5.092015266E-1,3.283627033E-1,-8.253927827E-1
3.152623020E0,5.495185852E-1,3.332495987E-1,-8.315014243E-1
3.155005000E0,5.849487782E-1,3.369148076E-1,-8.315014243E-1
3.157386250E0,6.142703295E-1,3.332495987E-1,-8.400535583E-1
3.159768281E0,6.411483288E-1,3.430234492E-1,-8.473839164E-1
3.162151145E0,6.619176865E-1,3.527972996E-1,-8.571577668E-1
3.164533125E0,6.729133129E-1,3.650145829E-1,-8.742619753E-1
3.166914375E0,6.729133129E-1,3.747884035E-1,-9.035834670E-1
3.169296406E0,6.680263281E-1,3.992229998E-1,-9.377918839E-1
3.171679218E0,6.570308208E-1,4.212141633E-1,-9.732220769E-1
3.174061197E0,6.387048960E-1,4.468705058E-1,-1.014760852E0
3.176442447E0,6.032747030E-1,4.676398635E-1,-1.073403716E0
3.178824479E0,5.751749277E-1,5.079569817E-1,-1.130825043E0
3.181207343E0,5.482969284E-1,5.507174730E-1,-1.195576668E0
3.183589322E0,5.153101683E-1,5.800389647E-1,-1.265215278E0
3.185970572E0,4.957624972E-1,5.983649492E-1,-1.337297320E0
3.188352604E0,4.872104228E-1,6.056953073E-1,-1.404492378E0
3.190735468E0,4.908756316E-1,6.056953073E-1,-1.469244123E0
3.193117447E0,5.067580938E-1,6.044735909E-1,-1.541326165E0
3.195498697E0,5.287492275E-1,5.837041736E-1,-1.626847148E0
3.197880729E0,5.715097189E-1,5.494957566E-1,-1.694042325E0
3.200263593E0,6.472569704E-1,5.152873397E-1,-1.746576667E0
3.202645572E0,7.339997292E-1,4.700833559E-1,-1.783228517E0
3.205026822E0,8.170773983E-1,4.151055217E-1,-1.821102142E0
3.207408854E0,9.038201571E-1,3.576841950E-1,-1.852867126E0
3.209791718E0,9.893412590E-1,3.051498234E-1,-1.863862753E0
3.212173697E0,1.076084137E0,2.575023770E-1,-1.878523469E0
3.214554947E0,1.126175046E0,1.793116927E-1,-1.921283960E0
3.216936979E0,1.219026446E0,1.512119323E-1,-1.937166452E0
3.219319843E0,1.377851248E0,1.695378721E-1,-1.890740752E0
3.221701770E0,1.457263708E0,1.341077089E-1,-1.880966902E0
3.224083072E0,1.451155066E0,6.202568114E-2,-1.905401468E0
3.226465104E0,1.453598499E0,4.369974136E-2,-1.912731886E0
3.228847916E0,1.580658317E0,1.267773360E-1,-1.840649843E0
3.231229895E0,1.724822402E0,1.903072596E-1,-1.731915951E0
3.233611145E0,1.806678295E0,1.927507222E-1,-1.630512357E0
3.235993177E0,1.829891205E0,1.817551553E-1,-1.532773972E0
3.238376041E0,1.816452146E0,1.878637969E-1,-1.446031213E0
3.240758020E0,1.774913311E0,2.367329895E-1,-1.373949170E0
3.243139270E0,1.726044178E0,3.454669118E-1,-1.310419202E0
3.245521302E0,1.662514210E0,4.945179224E-1,-1.251776218E0
3.247904166E0,1.591653943E0,6.777773499E-1,-1.206572294E0
3.250286145E0,1.511019826E0,8.732540607E-1,-1.166255236E0
3.252667395E0,1.418168306E0,1.067508936E0,-1.130825043E0
3.255049427E0,1.310656190E0,1.248324871E0,-1.101503491E0
3.257432291E0,1.200700521E0,1.431584358E0,-1.077068925E0
3.259814270E0,1.091966629E0,1.597739458E0,-1.055077791E0
3.262195520E0,1.000336885E0,1.757786036E0,-1.041638732E0
3.264577552E0,9.062635899E-1,1.889732838E0,-1.037973642E0
3.266960416E0,8.207426071E-1,2.016792774E0,-1.037973642E0
3.269342395E0,7.413301468E-1,2.115752697E0,-1.044082284E0
3.271723645E0,6.778001785E-1,2.207382441E0,-1.044082284E0
3.274105677E0,6.203789711E-1,2.274577618E0,-1.042860508E0
3.276488489E0,5.690662861E-1,2.331998825E0,-1.035530090E0
3.278870468E0,5.177536011E-1,2.358876944E0,-1.026978016E0
3.281251770E0,4.762148559E-1,2.377202988E0,-1.013539076E0
3.283633750E0,4.432281554E-1,2.383311510E0,-9.903262854E-1
3.286016614E0,4.114632010E-1,2.374759436E0,-9.683351517E-1
3.288398593E0,3.821416795E-1,2.347881317E0,-9.439005256E-1
3.290779843E0,3.491549790E-1,2.295346975E0,-9.194659591E-1
3.293161875E0,3.320507705E-1,2.253808260E0,-8.828140497E-1
3.295544739E0,3.161683083E-1,2.193943501E0,-8.424969912E-1
3.297926718E0,2.978423536E-1,2.118196249E0,-7.997364998E-1
3.300307968E0,2.868467867E-1,2.035118580E0,-7.447586656E-1
3.302690000E0,2.844033241E-1,1.939823627E0,-6.910025477E-1
3.305072864E0,2.953988910E-1,1.851859331E0,-6.335812807E-1
3.307454843E0,3.039509952E-1,1.768781662E0,-5.700513124E-1
3.309836093E0,3.100596368E-1,1.685703993E0,-5.114083290E-1
3.312218125E0,3.137248456E-1,1.612400293E0,-4.600956738E-1
3.314600989E0,3.149465621E-1,1.547648668E0,-4.051178694E-1
3.316982968E0,3.088379204E-1,1.487783909E0,-3.586921394E-1
3.319364218E0,3.002858162E-1,1.431584358E0,-3.293706477E-1
3.321746250E0,2.831816077E-1,1.368054390E0,-3.159316182E-1
3.324129114E0,2.697425783E-1,1.322850466E0,-3.073795140E-1
3.326511093E0,2.538600862E-1,1.292307138E0,-3.037143052E-1
3.328892343E0,2.330906987E-1,1.260542154E0,-3.086012304E-1
3.331274375E0,2.062126696E-1,1.225111961E0,-3.183750808E-1
3.333657187E0,1.781128794E-1,1.189682007E0,-3.391444683E-1
3.336039166E0,1.536782980E-1,1.159138680E0,-3.684659898E-1
3.338420416E0,1.292437166E-1,1.131038904E0,-4.002309442E-1
3.340802447E0,1.084743142E-1,1.096830368E0,-4.381045699E-1
3.343185312E0,9.747873992E-2,1.071174145E0,-4.771999121E-1
3.345567291E0,9.014835954E-2,1.036965847E0,-5.150735378E-1
3.347948541E0,9.625700861E-2,9.966487288E-1,-5.566123128E-1
3.350330572E0,9.870047122E-2,9.416708350E-1,-6.018162966E-1
3.352713437E0,1.096960455E-1,8.915799856E-1,-6.506854892E-1
3.355095416E0,1.255785227E-1,8.524846435E-1,-6.922242641E-1
3.357476666E0,1.353523582E-1,8.060589433E-1,-7.398717403E-1
3.359858697E0,1.060308516E-1,8.231631517E-1,-7.850757241E-1
3.362241562E0,-2.958112210E-2,9.771010280E-1,-8.412752748E-1
3.364623541E0,-2.348316610E-1,1.179908037E0,-8.840358257E-1
3.367004791E0,-3.789957464E-1,1.308189631E0,-8.864792585E-1
3.369386822E0,-4.498560727E-1,1.370497942E0,-8.693750501E-1
3.371769687E0,-4.608516395E-1,1.398597717E0,-8.559360504E-1
3.374151666E0,-4.058738053E-1,1.350950241E0,-8.510491252E-1
3.376532916E0,-2.995833457E-1,1.244659662E0,-8.388317823E-1
3.378914947E0,-1.786321104E-1,1.087056637E0,-8.107320070E-1
3.381297812E0,-5.523744226E-2,9.392274022E-1,-7.496455908E-1
3.383679739E0,2.539670095E-2,7.999503016E-1,-6.800069809E-1
3.386061041E0,1.109177619E-1,6.667817831E-1,-6.384682059E-1
3.388443072E0,2.465297282E-1,5.323915482E-1,-6.396899223E-1
3.390825885E0,4.236804843E-1,3.662362993E-1,-6.543506384E-1
3.393207864E0,5.861705542E-1,2.110766768E-1,-6.714549065E-1
3.395589114E0,7.181172371E-1,1.035644710E-1,-6.812286973E-1
3.397971145E0,8.109687567E-1,2.537379414E-2,-7.007763982E-1
3.400354010E0,8.671683073E-1,-7.612898946E-3,-7.166588902E-1
3.402735989E0,8.952680826E-1,-2.838230133E-2,-7.398717403E-1
3.405117239E0,9.148157835E-1,-3.815613687E-2,-7.691932321E-1
3.407499270E0,9.368067980E-1,9.392052889E-4,-7.985147238E-1
3.409882135E0,9.551328421E-1,6.080394983E-2,-8.290579915E-1
3.412264114E0,9.539110661E-1,1.243338734E-1,-8.693750501E-1
3.414645364E0,9.429155588E-1,1.695378721E-1,-9.133573174E-1
3.417027395E0,9.343633652E-1,2.159635723E-1,-9.536743760E-1
3.419410260E0,9.343633652E-1,2.526154816E-1,-9.878827929E-1
3.421792239E0,9.221460819E-1,2.684979439E-1,-1.025756240E0
3.424173489E0,9.160374403E-1,2.746066153E-1,-1.048969150E0
3.426555520E0,9.135940075E-1,2.721631527E-1,-1.056299567E0
3.428938385E0,9.184808731E-1,2.697196901E-1,-1.050190926E0
3.431320312E0,9.331417084E-1,2.660544813E-1,-1.040417075E0
3.433701614E0,9.722369909E-1,2.672762275E-1,-1.024534583E0
3.436083645E0,1.023549676E0,2.636110485E-1,-9.952131510E-1
3.438466458E0,1.074862361E0,2.342895269E-1,-9.622265100E-1
3.440848437E0,1.135948896E0,1.841986179E-1,-9.206876755E-1
3.443229687E0,1.206809163E0,1.243338734E-1,-8.657098413E-1
3.445611718E0,1.274004221E0,6.446912885E-2,-8.095102906E-1
3.447994583E0,1.320430040E0,-1.504257321E-3,-7.618628740E-1
3.450376562E0,1.369299173E0,-4.059959203E-2,-6.958894730E-1
3.452757812E0,1.394955516E0,-9.069050103E-2,-6.189205050E-1
3.455139843E0,1.398620725E0,-1.444465965E-1,-5.407298207E-1
3.457522708E0,1.394955516E0,-1.652159989E-1,-4.491001070E-1
3.459904687E0,1.379073024E0,-1.872071326E-1,-3.599138856E-1
3.462285937E0,1.368077397E0,-1.823202074E-1,-2.682841718E-1
3.464667968E0,1.364412308E0,-1.701029241E-1,-1.827630848E-1
3.467050833E0,1.369299173E0,-1.371162236E-1,-1.033506766E-1
3.469432812E0,1.380294681E0,-1.053512543E-1,-3.615555540E-2
3.471814062E0,1.401064157E0,-6.992109865E-2,1.882226951E-2
3.474196093E0,1.414503217E0,-2.716057003E-2,8.479565382E-2
3.476578958E0,1.413281441E0,1.193477213E-2,1.654298007E-1
3.478960937E0,1.404729366E0,4.125627875E-2,2.399553061E-1
3.481342187E0,1.399842381E0,6.569086015E-2,2.985982895E-1
3.483724218E0,1.398620725E0,9.012545645E-2,3.474674821E-1
3.486107031E0,1.390068531E0,1.072296649E-1,4.036670327E-1
3.488489010E0,1.386403322E0,1.255556047E-1,4.659752250E-1
3.490870260E0,1.375407815E0,1.475467384E-1,5.319486260E-1
3.493252291E0,1.366855741E0,1.573205739E-1,5.905916095E-1
3.495635156E0,1.368077397E0,1.719813347E-1,6.345738769E-1
3.498017135E0,1.377851248E0,1.927507222E-1,6.565650105E-1
3.500398385E0,1.374186039E0,1.878637969E-1,6.761127114E-1
3.502780416E0,1.339977622E0,1.866420805E-1,7.408643365E-1
3.505163281E0,1.288665056E0,1.890855432E-1,8.239419460E-1
3.507545260E0,1.232465506E0,1.951941848E-1,9.290106893E-1
3.509926510E0,1.153053045E0,1.732030511E-1,1.046296835E0
3.512308541E0,1.089523077E0,2.013028264E-1,1.112270236E0
3.514691406E0,1.058979869E0,2.831587195E-1,1.111048460E0
3.517073385E0,1.028436661E0,3.674580455E-1,1.117157102E0
3.519454635E0,9.795674086E-1,4.480922222E-1,1.137926579E0
3.521836666E0,9.306981564E-1,5.275046229E-1,1.156252503E0
3.524219531E0,8.818290234E-1,6.166908741E-1,1.153809071E0
3.526601510E0,8.158556223E-1,7.046554089E-1,1.150143862E0
3.528982708E0,7.291128635E-1,7.632983923E-1,1.161139369E0
3.531364739E0,6.435917616E-1,8.329370022E-1,1.191682696E0
3.533747604E0,5.690662861E-1,9.111276269E-1,1.191682696E0
3.536129583E0,5.079798698E-1,9.758792520E-1,1.159917712E0
3.538510833E0,4.468933642E-1,1.001535654E0,1.119600654E0
3.540892864E0,3.955807090E-1,1.013752937E0,1.075618386E0
3.543275729E0,3.540419042E-1,1.027191877E0,1.032857776E0
3.545657708E0,3.283855915E-1,1.054069996E0,9.913188815E-1
3.548038958E0,2.966206372E-1,1.044296026E0,9.632191062E-1
3.550420989E0,2.624121904E-1,1.007644176E0,9.583321810E-1
3.552803854E0,2.391993403E-1,9.648837447E-1,9.693277478E-1
3.555185833E0,2.318689525E-1,9.196797013E-1,9.766581655E-1
3.557567083E0,2.416428030E-1,8.793627024E-1,9.949840903E-1
3.559949114E0,2.489731908E-1,8.231631517E-1,1.013310194E0
3.562331927E0,2.611904740E-1,7.828460932E-1,1.036522985E0
3.564713906E0,2.672991157E-1,7.303116918E-1,1.057292342E0
3.567095156E0,2.721860409E-1,6.924381256E-1,1.081727028E0
3.569477187E0,2.746295035E-1,6.728904247E-1,1.102496386E0
3.571860052E0,2.660773993E-1,6.557862163E-1,1.124487519E0
3.574242031E0,2.440862656E-1,6.374602914E-1,1.152587295E0
3.576623281E0,2.123213112E-1,6.337950826E-1,1.188017488E0
3.579005312E0,1.695607752E-1,6.337950826E-1,1.217338920E0
3.581388177E0,1.280219853E-1,6.386820078E-1,1.238108397E0
3.583770156E0,8.403971046E-2,6.374602914E-1,1.266208172E0
3.586151406E0,4.250091687E-2,6.374602914E-1,1.297973156E0
3.588533437E0,9.621120989E-4,6.362385750E-1,1.335846663E0
3.590916302E0,-3.691149876E-2,6.411254406E-1,1.378607273E0
3.593298281E0,-7.478511333E-2,6.423472166E-1,1.426254749E0
3.595679531E0,-1.065500826E-1,6.484558582E-1,1.481232524E0
3.598061562E0,-1.444236934E-1,6.399037242E-1,1.532545209E0
3.600444375E0,-1.713017374E-1,6.484558582E-1,1.593631625E0
3.602826354E0,-2.091753483E-1,6.533427835E-1,1.662048459E0
3.605207604E0,-2.507141531E-1,6.594514251E-1,1.737795711E0
3.607589635E0,-2.849225998E-1,6.606731415E-1,1.808655977E0
3.609972500E0,-3.227961957E-1,6.435689330E-1,1.878294587E0
3.612354479E0,-3.545611799E-1,6.399037242E-1,1.955263495E0
3.614735729E0,-3.838826716E-1,6.631165743E-1,2.032232285E0
3.617117760E0,-4.119824469E-1,6.777773499E-1,2.099427462E0
3.619500625E0,-4.364170432E-1,6.948815584E-1,2.161735773E0
3.621882604E0,-4.694037437E-1,7.205379009E-1,2.225265741E0
3.624263854E0,-5.060555935E-1,7.840678096E-1,2.294904232E0
3.626645885E0,-5.732507706E-1,8.549281359E-1,2.343773365E0
3.629028750E0,-6.563283205E-1,9.453360438E-1,2.364542723E0
3.631410729E0,-7.198582888E-1,9.807662368E-1,2.344995022E0
3.633791979E0,-7.491797209E-1,1.001535654E0,2.291239023E0
3.636174010E0,-7.577319145E-1,1.012531042E0,2.233817816E0
3.638556822E0,-7.723926306E-1,1.011309385E0,2.210604906E0
3.640938802E0,-7.870533466E-1,9.905399680E-1,2.217935324E0
3.643320052E0,-7.846099138E-1,9.551098943E-1,2.272912979E0
3.645702083E0,-7.650622129E-1,9.013538361E-1,2.316895247E0
3.648084947E0,-7.296321392E-1,8.256065845E-1,2.351103783E0
3.650466927E0,-6.685456038E-1,7.755156755E-1,2.412190199E0
3.652848177E0,-6.111243963E-1,7.425290346E-1,2.465946436E0
3.655230208E0,-5.585899353E-1,7.193161249E-1,2.496489525E0
3.657613072E0,-5.146077275E-1,6.924381256E-1,2.508706808E0
3.659995052E0,-4.803993106E-1,6.545644999E-1,2.514815569E0
3.662376302E0,-4.315301180E-1,6.350167990E-1,2.525810957E0
3.664758333E0,-3.777740300E-1,6.093605161E-1,2.527032852E0
3.667141197E0,-3.203527331E-1,5.751520991E-1,2.530698061E0
3.669523177E0,-2.543793321E-1,5.519391894E-1,2.538028479E0
3.671904427E0,-1.884059459E-1,5.348349810E-1,2.549023867E0
3.674286458E0,-1.138804555E-1,5.128438473E-1,2.556354284E0
3.676669270E0,-4.668533430E-2,4.725267887E-1,2.553910732E0
3.679051250E0,1.195767894E-2,4.896309972E-1,2.562463045E0
3.681432500E0,5.227474868E-2,5.226176977E-1,2.562463045E0
3.683814531E0,8.037452400E-2,5.458305478E-1,2.551467419E0
3.686197395E0,9.747873992E-2,5.189524889E-1,2.534363270E0
3.688579375E0,1.170264184E-1,4.493139386E-1,2.528254509E0
3.690960625E0,1.451261938E-1,3.625711203E-1,2.536806583E0
3.693342656E0,1.768911630E-1,2.807152569E-1,2.536806583E0
3.695725520E0,2.220951468E-1,2.098549306E-1,2.518480778E0
3.698107500E0,2.514166534E-1,1.047862023E-1,2.483050585E0
3.700488750E0,2.721860409E-1,2.293033898E-2,2.437846661E0
3.702870781E0,2.807381451E-1,-1.616500318E-2,2.384090424E0
3.705253645E0,2.844033241E-1,-1.372154802E-2,2.309565067E0
3.707635625E0,2.795164287E-1,1.193477213E-2,2.221600533E0
3.710016822E0,2.672991157E-1,3.759108484E-2,2.132414103E0
3.712398906E0,2.453079820E-1,6.446912885E-2,2.049336672E0
3.714781718E0,2.147647738E-1,8.279508352E-2,1.972367764E0
3.717163697E0,2.013257444E-1,1.096731275E-1,1.914946437E0
3.719544947E0,1.878867298E-1,1.145600379E-1,1.867299080E0
3.721926979E0,1.817780733E-1,9.134718776E-2,1.830647111E0
3.724309843E0,1.817780733E-1,3.759108484E-2,1.802547336E0
3.726691822E0,1.952171028E-1,-3.326921910E-2,1.779334545E0
3.729073072E0,1.952171028E-1,-1.273423880E-1,1.751234770E0
3.731455104E0,2.147647738E-1,-1.627725363E-1,1.729243636E0
3.733837968E0,2.196516842E-1,-2.153069079E-1,1.704808950E0
3.736219947E0,2.269820720E-1,-2.641760707E-1,1.682817817E0
3.738601197E0,2.367558777E-1,-3.130452633E-1,1.666935444E0
3.740983229E0,2.465297282E-1,-3.631361723E-1,1.655939817E0
3.743366041E0,2.489731908E-1,-3.790186644E-1,1.648609400E0
3.745748020E0,2.453079820E-1,-3.619144261E-1,1.637613893E0
3.748129270E0,2.220951468E-1,-3.533623219E-1,1.624174833E0
3.750511302E0,1.903301775E-1,-3.301494718E-1,1.614400983E0
3.752894166E0,1.549000293E-1,-3.118235469E-1,1.602183700E0
3.755276145E0,1.182481498E-1,-3.154887259E-1,1.583857775E0
3.757657395E0,9.014835954E-2,-3.240408301E-1,1.566753626E0
3.760039427E0,6.571377069E-2,-3.387015760E-1,1.547205925E0
3.762422291E0,4.983128607E-2,-3.558057845E-1,1.531323433E0
3.764804270E0,4.127918556E-2,-3.961228728E-1,1.506888866E0
3.767185520E0,4.860956222E-2,-4.132270813E-1,1.483675957E0
3.769567552E0,5.593993515E-2,-4.352182150E-1,1.449467540E0
3.771950416E0,7.426587492E-2,-4.449920356E-1,1.415259123E0
3.774332343E0,9.625700861E-2,-4.535441399E-1,1.377385497E0
3.776713645E0,1.194698662E-1,-4.596527815E-1,1.350507498E0
3.779095625E0,1.451261938E-1,-4.352182150E-1,1.346842289E0
3.781478489E0,1.707825065E-1,-3.704665601E-1,1.352950931E0
3.783860468E0,2.062126696E-1,-2.653978169E-1,1.363946438E0
3.786241718E0,2.355341613E-1,-1.505552530E-1,1.376163840E0
3.788623750E0,2.782946825E-1,-1.616500318E-2,1.392046213E0
3.791006614E0,3.222769499E-1,1.096731275E-1,1.421367764E0
3.793388593E0,3.552636504E-1,1.951941848E-1,1.478789091E0
3.795769843E0,2.966206372E-1,1.976376474E-1,1.558201432E0
3.798151875E0,1.426827312E-1,1.414380968E-1,1.624174833E0
3.800534739E0,2.050978318E-2,1.536553800E-1,1.621731400E0
3.802916718E0,3.028361872E-2,2.697196901E-1,1.569197059E0
3.805297968E0,1.158046871E-1,3.882274330E-1,1.510554075E0
3.807680000E0,2.440862656E-1,4.823006392E-1,1.442137122E0
3.810062812E0,3.723678589E-1,5.592696071E-1,1.367611647E0
3.812444791E0,4.701062143E-1,6.215777993E-1,1.297973156E0
3.814826041E0,5.226405859E-1,6.655600667E-1,1.236886621E0
3.817208072E0,5.446317196E-1,7.547463179E-1,1.194126129E0
3.819590937E0,5.544055700E-1,8.805844188E-1,1.142813444E0
3.821972916E0,5.482969284E-1,1.018639803E0,1.093944311E0
3.824354166E0,5.140885115E-1,1.135925770E0,1.052405477E0
3.826736197E0,4.615541101E-1,1.233664274E0,1.012088418E0
3.829119062E0,4.090197384E-1,1.305746317E0,9.607756734E-1
3.831501041E0,3.491549790E-1,1.326515675E0,8.984674811E-1
3.833882291E0,2.795164287E-1,1.298415899E0,8.300505877E-1
3.836264322E0,2.110995799E-1,1.269094229E0,7.689641118E-1
3.838647187E0,1.426827312E-1,1.239772797E0,7.090994120E-1
3.841029114E0,6.937895715E-2,1.194568872E0,6.443477273E-1
3.843410416E0,-2.596154809E-4,1.153030157E0,5.930351019E-1
3.845792395E0,-7.478511333E-2,1.107825994E0,5.405007005E-1
3.848175260E0,-1.432019621E-1,1.073617697E0,4.879663587E-1
3.850557239E0,-2.165057212E-1,1.028413534E0,4.317668080E-1
3.852938489E0,-2.934747040E-1,9.758792520E-1,3.719020784E-1
3.855320520E0,-3.582263589E-1,9.367839694E-1,3.132590652E-1
3.857703385E0,-4.180910885E-1,8.830279112E-1,2.546160519E-1
3.860085364E0,-4.742906392E-1,8.207197189E-1,1.886426657E-1
3.862466614E0,-5.243815184E-1,7.620766759E-1,1.190040857E-1
3.864848645E0,-5.646985769E-1,7.119857669E-1,5.547414720E-2
3.867231510E0,-6.086808443E-1,6.399037242E-1,-9.277509525E-3
3.869613489E0,-6.416676044E-1,5.788172483E-1,-6.792052835E-2
3.871994739E0,-6.661021709E-1,5.079569817E-1,-1.228983477E-1
3.874376770E0,-6.856498718E-1,4.334314466E-1,-1.754327118E-1
3.876759583E0,-7.015323639E-1,3.442451656E-1,-2.230801582E-1
3.879141562E0,-7.198582888E-1,2.245157063E-1,-2.695058882E-1
3.881522812E0,-7.308537960E-1,1.170035005E-1,-3.086012304E-1
3.883904843E0,-7.442928553E-1,-1.494327933E-2,-3.464748561E-1
3.886287708E0,-7.613971233E-1,-1.578856260E-1,-3.855701983E-1
3.888669687E0,-7.919403315E-1,-2.959410548E-1,-4.222220778E-1
3.891050937E0,-8.395878077E-1,-4.291095436E-1,-4.539870322E-1
3.893432968E0,-9.043394327E-1,-5.610563755E-1,-4.735347033E-1
3.895815833E0,-9.800866842E-1,-7.149941921E-1,-4.906389117E-1
3.898197812E0,-1.070494533E0,-8.725973368E-1,-5.016344786E-1
3.900579062E0,-1.178006768E0,-1.035087347E0,-5.089648366E-1
3.902961093E0,-1.280632019E0,-1.217125177E0,-5.101866126E-1
3.905343906E0,-1.366153002E0,-1.449253559E0,-5.211821795E-1
3.907725885E0,-1.426017761E0,-1.693599463E0,-5.358428955E-1
3.910107135E0,-1.461447954E0,-2.021023035E0,-5.724948049E-1
3.912489166E0,-1.480995655E0,-2.394872427E0,-6.250291467E-1
3.914872031E0,-1.468778372E0,-2.794377804E0,-6.824504137E-1
3.917254010E0,-1.424796104E0,-3.228091717E0,-7.362065315E-1
3.919635260E0,-1.378370404E0,-3.616601706E0,-7.728584409E-1
3.922017291E0,-1.281853676E0,-4.027102947E0,-8.034016490E-1
3.924400156E0,-1.145020008E0,-4.471812248E0,-8.339449167E-1
3.926782135E0,-9.654258490E-1,-4.881091595E0,-8.571577668E-1
3.929163385E0,-7.491797209E-1,-5.276931763E0,-8.864792585E-1
3.931545416E0,-4.962817729E-1,-5.667885303E0,-9.170224667E-1
3.933928229E0,-2.910312414E-1,-5.903678894E0,-8.986965418E-1
3.936310208E0,-1.725234687E-1,-5.897570610E0,-7.985147238E-1
3.938691458E0,-1.847407520E-1,-5.567703247E0,-6.164770722E-1
3.941073489E0,-3.008050621E-1,-5.035029411E0,-4.002309442E-1
3.943456354E0,-3.814392090E-1,-4.582989693E0,-1.754327118E-1
3.945838333E0,-3.887695968E-1,-4.261674881E0,5.913933367E-2
3.948219583E0,-3.435656130E-1,-3.966016293E0,3.071503937E-1
3.950601614E0,-2.775922120E-1,-3.691127300E0,5.356138349E-1
3.952984479E0,-1.774103791E-1,-3.455333471E0,7.164297700E-1
3.955366458E0,-8.089375496E-2,-3.208544016E0,8.630372882E-1
3.957747708E0,2.906189114E-2,-3.075375557E0,1.004758000E0
3.960129739E0,1.585652083E-1,-3.071710348E0,1.125709295E0
3.962512604E0,3.125030994E-1,-3.248861313E0,1.214895487E0
3.964894531E0,4.615541101E-1,-3.419903278E0,1.288199306E0
3.967275781E0,5.849487782E-1,-3.512754679E0,1.317520738E0
3.969657864E0,6.423701048E-1,-3.534745932E0,1.311412096E0
3.972040677E0,6.264876127E-1,-3.410129547E0,1.299194813E0
3.974422656E0,5.495185852E-1,-3.191439867E0,1.285755754E0
3.976803906E0,4.236804843E-1,-2.909220457E0,1.272316813E0
3.979185937E0,2.844033241E-1,-2.596457720E0,1.260099530E0
3.981568802E0,1.561217606E-1,-2.309351206E0,1.249103904E0
3.983950781E0,4.372263700E-2,-2.056453228E0,1.239330053E0
3.986332031E0,-4.668533430E-2,-1.857311249E0,1.221004128E0
3.988714062E0,-1.041066200E-1,-1.692377806E0,1.203899980E0
3.991096875E0,-1.590844393E-1,-1.540883303E0,1.190460920E0
3.993478854E0,-1.969580501E-1,-1.378393412E0,1.185573936E0
3.995860156E0,-2.336099297E-1,-1.192690372E0,1.190460920E0
3.998242135E0,-2.751487494E-1,-1.008209229E0,1.201456428E0
4.000625000E0,-3.154658377E-1,-8.310585022E-1,1.216117263E0
4.003006979E0,-3.655567169E-1,-6.844509840E-1,1.234443188E0
4.005388229E0,-4.022086263E-1,-5.659432411E-1,1.258877754E0
4.007770260E0,-4.339735806E-1,-4.804221988E-1,1.295529604E0
4.010153125E0,-4.559647143E-1,-3.887924850E-1,1.346842289E0
4.012535104E0,-4.828427434E-1,-3.228191137E-1,1.387159348E0
4.014916354E0,-5.060555935E-1,-2.568457127E-1,1.426254749E0
4.017298385E0,-5.304901600E-1,-1.737681031E-1,1.471458673E0
4.019681250E0,-5.427074432E-1,-8.824704587E-2,1.526436448E0
4.022063229E0,-5.512596369E-1,-1.983019710E-2,1.586301208E0
4.024444479E0,-5.512596369E-1,4.247801006E-2,1.651052952E0
4.026826458E0,-5.353771448E-1,1.182252318E-1,1.714582801E0
4.029209322E0,-5.133860111E-1,1.817551553E-1,1.775669336E0
4.031591302E0,-4.889514148E-1,2.477285564E-1,1.826981902E0
4.033972552E0,-4.559647143E-1,3.271409571E-1,1.873407722E0
4.036354583E0,-4.217562973E-1,4.163272381E-1,1.916168213E0
4.038737447E0,-3.741088212E-1,5.238394141E-1,1.973589540E0
4.041119427E0,-3.337917626E-1,5.946997404E-1,2.026123762E0
4.043500677E0,-2.983615994E-1,6.533427835E-1,2.071327686E0
4.045882708E0,-2.727052867E-1,6.936598420E-1,2.100649118E0
4.048265520E0,-2.556010485E-1,7.351986170E-1,2.122640371E0
4.050647500E0,-2.519358993E-1,7.730722427E-1,2.136079311E0
4.053028750E0,-2.727052867E-1,8.146110177E-1,2.136079311E0
4.055410781E0,-3.093571663E-1,8.683671355E-1,2.139744520E0
4.057793645E0,-3.618915379E-1,9.135710597E-1,2.145853281E0
4.060175625E0,-4.254214764E-1,9.392274022E-1,2.151961803E0
4.062556875E0,-4.852862060E-1,9.587751031E-1,2.170287848E0
4.064938906E0,-5.500378609E-1,9.441142678E-1,2.182505131E0
4.067321770E0,-6.123460531E-1,9.331187606E-1,2.203274488E0
4.069703750E0,-6.697673798E-1,9.270101190E-1,2.230152607E0
4.072085000E0,-7.284103632E-1,9.123494029E-1,2.264360905E0
4.074467031E0,-7.833882570E-1,8.891365528E-1,2.275356531E0
4.076849895E0,-8.518050909E-1,8.317152262E-1,2.230152607E0
4.079231822E0,-9.226653576E-1,7.669636011E-1,2.145853281E0
4.081613125E0,-9.935256243E-1,7.180944085E-1,2.055445194E0
4.083995104E0,-1.063164115E0,6.789990664E-1,1.984585047E0
4.086377968E0,-1.121807218E0,6.142474413E-1,1.947933197E0
4.088759947E0,-1.174341559E0,4.884092808E-1,1.927163720E0
4.091141197E0,-1.204884768E0,3.784536123E-1,1.906394362E0
4.093523229E0,-1.226875901E0,3.271409571E-1,1.851416588E0
4.095906093E0,-1.231762767E0,3.454669118E-1,1.769560695E0
4.098288072E0,-1.234206319E0,3.503538370E-1,1.675487518E0
4.100669322E0,-1.225654125E0,2.990411818E-1,1.600962043E0
4.103051354E0,-1.229319334E0,1.915290058E-1,1.542318940E0
4.105434218E0,-1.236649752E0,6.080394983E-2,1.517884374E0
4.107816145E0,-1.243980050E0,-9.557741880E-2,1.525214791E0
4.110197395E0,-1.254975677E0,-2.531805038E-1,1.559423208E0
4.112579427E0,-1.263527751E0,-3.887924850E-1,1.610735893E0
4.114962291E0,-1.281853676E0,-4.828656614E-1,1.674265742E0
4.117344270E0,-1.306288362E0,-5.182957649E-1,1.741460919E0
4.119725520E0,-1.330722928E0,-5.048568249E-1,1.807434320E0
4.122107552E0,-1.350270629E0,-4.950829446E-1,1.868520737E0
4.124490416E0,-1.357600927E0,-4.901960194E-1,1.925942063E0
4.126872395E0,-1.356379271E0,-4.840873778E-1,1.977254629E0
4.129253645E0,-1.344161868E0,-4.645397067E-1,2.023680210E0
4.131635677E0,-1.325835943E0,-4.425485730E-1,2.061553955E0
4.134018489E0,-1.303844810E0,-4.144487977E-1,2.090875387E0
4.136400468E0,-1.283075452E0,-3.851273060E-1,2.107979536E0
4.138781718E0,-1.259862542E0,-3.215973675E-1,2.122640371E0
4.141163750E0,-1.240314960E0,-2.617326379E-1,2.126305580E0
4.143546614E0,-1.217102051E0,-2.165286392E-1,2.118975163E0
4.145928593E0,-1.147463441E0,-2.140851766E-1,2.112866402E0
4.148309843E0,-1.022847056E0,-2.263024747E-1,2.096984148E0
4.150691875E0,-9.361044168E-1,-1.762115657E-1,2.071327686E0
4.153074739E0,-8.713526726E-1,-9.679915011E-2,2.033454180E0
4.155456718E0,-8.151531219E-1,-2.725981176E-3,1.995580435E0
4.157837968E0,-7.650622129E-1,9.501236677E-2,1.956485271E0
4.160220000E0,-7.369624376E-1,1.463250071E-1,1.910059571E0
4.162602812E0,-7.100844383E-1,1.658726931E-1,1.866077304E0
4.164984791E0,-6.929801702E-1,1.487684697E-1,1.823316813E0
4.167366041E0,-6.770977974E-1,1.170035005E-1,1.781777978E0
4.169748072E0,-6.722108126E-1,6.935605407E-2,1.735352278E0
4.172130937E0,-6.770977974E-1,1.193477213E-2,1.688926578E0
4.174512916E0,-6.954237223E-1,-5.648207664E-2,1.631505251E0
4.176894166E0,-7.125278711E-1,-1.114599034E-1,1.567975283E0
4.179276197E0,-7.369624376E-1,-1.823202074E-1,1.492228031E0
4.181659062E0,-7.552884817E-1,-2.641760707E-1,1.421367764E0
4.184040989E0,-7.687274218E-1,-3.472536802E-1,1.357837796E0
4.186422239E0,-7.821664810E-1,-4.486572444E-1,1.299194813E0
4.188804270E0,-7.907185555E-1,-5.610563755E-1,1.246660471E0
4.191187135E0,-7.907185555E-1,-6.881161928E-1,1.195347786E0
4.193569114E0,-7.894968987E-1,-8.322802186E-1,1.147700429E0
4.195950364E0,-7.846099138E-1,-9.752225876E-1,1.100052953E0
4.198332395E0,-7.723926306E-1,-1.107169390E0,1.054848909E0
4.200715260E0,-7.650622129E-1,-1.241559744E0,1.009644985E0
4.203097239E0,-7.589535713E-1,-1.373506546E0,9.668843150E-1
4.205478489E0,-7.504014969E-1,-1.484683752E0,9.326758981E-1
4.207860520E0,-7.394059896E-1,-1.577535152E0,9.033543468E-1
4.210243333E0,-7.296321392E-1,-1.658169508E0,8.789197803E-1
4.212625312E0,-7.235234976E-1,-1.726586342E0,8.618155718E-1
4.215006562E0,-7.223017216E-1,-1.786451101E0,8.495982885E-1
4.217388593E0,-7.271885872E-1,-1.812107325E0,8.459330797E-1
4.219771458E0,-7.345190048E-1,-1.823102951E0,8.410461545E-1
4.222153437E0,-7.491797209E-1,-1.818215847E0,8.361592293E-1
4.224534687E0,-7.589535713E-1,-1.788894415E0,8.373810053E-1
4.226916718E0,-7.736144066E-1,-1.746134043E0,8.398244381E-1
4.229299583E0,-7.833882570E-1,-1.682604074E0,8.447113633E-1
4.231681562E0,-8.041576147E-1,-1.619074106E0,8.483765721E-1
4.234062812E0,-8.261487484E-1,-1.543326855E0,8.508200049E-1
4.236444843E0,-8.481398821E-1,-1.459027529E0,8.569286466E-1
4.238827656E0,-8.701310158E-1,-1.368619442E0,8.618155718E-1
4.241209635E0,-8.847917318E-1,-1.274546385E0,8.679242134E-1
4.243590885E0,-8.970090151E-1,-1.186581850E0,8.728111386E-1
4.245972916E0,-9.116698503E-1,-1.110834599E0,8.728111386E-1
4.248355781E0,-9.067828655E-1,-1.026535273E0,8.324940801E-1
4.250737760E0,-8.017141819E-1,-9.397924542E-1,7.738510370E-1
4.253119010E0,-5.463726521E-1,-8.078456521E-1,8.899153471E-1
4.255501041E0,-2.397185862E-1,-6.209210753E-1,1.123265743E0
4.257883906E0,-3.324631229E-2,-3.924576640E-1,1.324851155E0
4.260265833E0,1.684459671E-2,-1.713246405E-1,1.437250257E0
4.262647135E0,-6.501127779E-2,-1.494327933E-2,1.487341166E0
4.265029114E0,-2.250578254E-1,8.646026254E-2,1.508110523E0
4.267411979E0,-4.168693721E-1,1.499902010E-1,1.519106150E0
4.269793958E0,-6.099026203E-1,1.683161259E-1,1.527658224E0
4.272175208E0,-7.833882570E-1,1.377729028E-1,1.556979775E0
4.274557239E0,-9.128915071E-1,1.437822729E-2,1.615622759E0
4.276940104E0,-9.923039675E-1,-1.664377302E-1,1.691370010E0
4.279322083E0,-1.049725175E0,-3.448102176E-1,1.768338919E0
4.281703333E0,-1.080268383E0,-4.511006773E-1,1.846529603E0
4.284085364E0,-1.082711816E0,-4.975264072E-1,1.916168213E0
4.286468177E0,-1.061942458E0,-4.743135571E-1,1.982141614E0
4.288850156E0,-1.015516758E0,-3.924576640E-1,2.048114777E0
4.291231406E0,-9.532085657E-1,-2.922758460E-1,2.125083923E0
4.293613437E0,-8.860135078E-1,-1.957592368E-1,2.198387623E0
4.295996302E0,-8.114880323E-1,-1.053512543E-1,2.268026114E0
4.298378281E0,-7.381842136E-1,-1.738673449E-2,2.330334425E0
4.300759531E0,-6.685456038E-1,4.980838299E-2,2.377981901E0
4.303141562E0,-6.086808443E-1,1.023427546E-1,2.406081676E0
4.305524427E0,-5.622551441E-1,1.402163655E-1,2.417077065E0
4.307906354E0,-5.219380856E-1,1.658726931E-1,2.420742273E0
4.310287656E0,-4.962817729E-1,1.744247973E-1,2.421964169E0
4.312669635E0,-4.877296686E-1,1.609857678E-1,2.426851034E0
4.315052500E0,-4.926165938E-1,1.267773360E-1,2.440289974E0
4.317434479E0,-5.084990859E-1,7.057778537E-2,2.459837675E0
4.319815729E0,-5.280467272E-1,-1.504257321E-3,2.487937450E0
4.322197760E0,-5.451509953E-1,-9.557741880E-2,2.519702435E0
4.324580625E0,-5.561465025E-1,-2.067548037E-1,2.560019493E0
4.326962604E0,-5.488162041E-1,-3.240408301E-1,2.606445312E0
4.329343854E0,-5.109425783E-1,-3.900142014E-1,2.656536102E0
4.331725885E0,-3.912130594E-1,-2.641760707E-1,2.575901985E0
4.334108697E0,-1.603061706E-1,1.487684697E-1,2.264360905E0
4.336490677E0,-3.924804740E-3,4.432052970E-1,2.006576061E0
4.338871927E0,5.849029869E-3,4.468705058E-1,1.951598406E0
4.341253958E0,-6.256781518E-2,3.063715696E-1,1.999245644E0
4.343636822E0,-1.480888724E-1,1.512119323E-1,2.078658104E0
4.346018802E0,-2.336099297E-1,-1.372154802E-2,2.166622639E0
4.348400052E0,-3.093571663E-1,-1.713246405E-1,2.252143621E0
4.350782083E0,-3.655567169E-1,-3.179321885E-1,2.343773365E0
4.353164947E0,-4.022086263E-1,-4.498789608E-1,2.428072691E0
4.355546875E0,-4.156476259E-1,-5.525042415E-1,2.509928703E0
4.357928125E0,-4.132041633E-1,-6.282514334E-1,2.588119268E0
4.360310156E0,-3.985434175E-1,-6.636815667E-1,2.665088177E0
4.362693020E0,-3.765522838E-1,-6.710119843E-1,2.743278980E0
4.365075000E0,-3.423438668E-1,-6.612381339E-1,2.827578306E0
4.367456250E0,-3.081354499E-1,-6.453556418E-1,2.920429707E0
4.369838281E0,-2.665966153E-1,-6.135906577E-1,3.036494017E0
4.372221145E0,-2.470489591E-1,-5.549477339E-1,3.165997267E0
4.374603125E0,-2.690401077E-1,-4.291095436E-1,3.279618025E0
4.376984375E0,-3.570046127E-1,-2.800585628E-1,3.343147993E0
4.379366406E0,-4.632950723E-1,-1.395596862E-1,3.388352156E0
4.381749218E0,-5.158294439E-1,-1.371162236E-1,3.442108154E0
4.384131197E0,-4.999469817E-1,-2.666195631E-1,3.489755630E0
4.386512447E0,-4.144259095E-1,-5.036350489E-1,3.522742271E0
4.388894479E0,-3.179092705E-1,-6.820075512E-1,3.549620390E0
4.391277343E0,-2.556010485E-1,-7.443157434E-1,3.578941822E0
4.393659322E0,-1.884059459E-1,-7.956283689E-1,3.598489523E0
4.396040572E0,-1.126587316E-1,-8.493844271E-1,3.611928463E0
4.398422604E0,-3.080285341E-2,-9.006971121E-1,3.621702433E0
4.400805416E0,5.105301738E-2,-9.312403202E-1,3.624145746E0
4.403187395E0,1.206915975E-1,-9.336838126E-1,3.626589298E0
4.405568645E0,1.927736402E-1,-9.141361117E-1,3.627810955E0
4.407950677E0,2.636339366E-1,-8.933666945E-1,3.626589298E0
4.410333541E0,3.357159793E-1,-8.664886951E-1,3.633919716E0
4.412715520E0,3.992458880E-1,-8.310585022E-1,3.642471790E0
4.415096770E0,4.554454684E-1,-7.601982355E-1,3.660797834E0
4.417478802E0,5.238623619E-1,-6.746771336E-1,3.677901983E0
4.419861666E0,5.947226286E-1,-5.903778076E-1,3.693784475E0
4.422243645E0,6.582525969E-1,-4.877525866E-1,3.707223415E0
4.424624895E0,7.217824459E-1,-3.753534555E-1,3.724327564E0
4.427006875E0,7.926428318E-1,-2.495153248E-1,3.749984026E0
4.429389739E0,8.573944569E-1,-6.503418088E-2,3.786635876E0
4.431771718E0,9.123722315E-1,1.622074842E-1,3.852609158E0
4.434152968E0,9.600197077E-1,3.980012834E-1,3.940573692E0
4.436535000E0,1.006445527E0,6.118039489E-1,4.022429466E0
4.438917864E0,1.069975495E0,8.732540607E-1,4.104285717E0
4.441299843E0,1.131061912E0,1.133482456E0,4.192250252E0
4.443681093E0,1.194591880E0,1.396154165E0,4.297318935E0
4.446063125E0,1.258121848E0,1.640500069E0,4.414604664E0
4.448445937E0,1.300882339E0,1.846972466E0,4.556325436E0
4.450827916E0,1.319208264E0,2.031453371E0,4.731032848E0
4.453209166E0,1.357081890E0,2.203717232E0,4.917957306E0
4.455591197E0,1.443824649E0,2.372315884E0,5.117099285E0
4.457974062E0,1.568441033E0,2.485936880E0,5.313797474E0
4.460356041E0,1.724822402E0,2.550688505E0,5.490948200E0
4.462737291E0,1.915412188E0,2.566570997E0,5.619229794E0
4.465119322E0,2.131658316E0,2.517701864E0,5.659547329E0
4.467502135E0,2.384556293E0,2.407746077E0,5.591130257E0
4.469884114E0,2.661888838E0,2.222043276E0,5.400540352E0
4.472265364E0,2.937999725E0,1.954484463E0,5.096329689E0
4.474647395E0,3.195784569E0,1.613621950E0,4.700489521E0
4.477030260E0,3.432800055E0,1.211673021E0,4.232567310E0
4.479412239E0,3.642937422E0,7.901764512E-1,3.718219042E0
4.481793489E0,3.829862118E0,3.515755534E-1,3.170884132E0
4.484175520E0,3.991130590E0,-8.336012065E-2,2.610110521E0
4.486558385E0,4.125520706E0,-4.999698699E-1,2.044449568E0
4.488940364E0,4.234254837E0,-8.530496359E-1,1.482454300E0
4.491321562E0,4.308780193E0,-1.162147284E0,9.375628233E-1
4.493703593E0,4.360093117E0,-1.412601709E0,4.268798828E-1
4.496086458E0,4.388192654E0,-1.608078480E0,-4.470766336E-2
4.498468437E0,4.393079758E0,-1.732694864E0,-4.796433449E-1
4.500849687E0,4.374753952E0,-1.779120684E0,-8.730402589E-1
4.503231718E0,4.328328133E0,-1.749799013E0,-1.218789577E0
4.505614583E0,4.253802299E0,-1.638621807E0,-1.524221897E0
4.507996562E0,4.152399063E0,-1.445588589E0,-1.786893725E0
4.510377812E0,4.035112858E0,-1.191468716E0,-2.005583525E0
4.512759843E0,3.898278952E0,-9.214664698E-1,-2.181512356E0
4.515142656E0,3.754114866E0,-6.319166422E-1,-2.315902710E0
4.517524635E0,3.606285572E0,-3.558057845E-1,-2.411197662E0
4.519905885E0,3.468230247E0,-9.191223234E-2,-2.464953661E0
4.522287916E0,3.326509714E0,1.194469631E-1,-2.494275093E0
4.524670781E0,3.197006226E0,3.063715696E-1,-2.493053436E0
4.527052760E0,3.065059423E0,4.774137139E-1,-2.472284079E0
4.529434010E0,2.936777830E0,6.362385750E-1,-2.429523468E0
4.531816041E0,2.814604998E0,7.755156755E-1,-2.365993500E0
4.534198854E0,2.692431927E0,8.671454191E-1,-2.291468143E0
4.536580833E0,2.586141586E0,9.367839694E-1,-2.209612131E0
4.538962083E0,2.482294559E0,9.758792520E-1,-2.122869492E0
4.541344114E0,2.383334398E0,9.942051768E-1,-2.036126614E0
4.543726979E0,2.292926550E0,1.008866072E0,-1.949383736E0
4.546108958E0,2.212292433E0,1.006422520E0,-1.868749619E0
4.548490208E0,2.143875599E0,9.917617440E-1,-1.794224143E0
4.550872239E0,2.079123735E0,9.612185359E-1,-1.723363757E0
4.553255052E0,2.026589394E0,9.233449101E-1,-1.659833908E0
4.555637031E0,1.991159558E0,8.781409860E-1,-1.612186432E0
4.558018281E0,1.965503097E0,8.219414353E-1,-1.575534582E0
4.560400312E0,1.955729246E0,7.571897507E-1,-1.554765105E0
4.562783177E0,1.960616231E0,6.838859916E-1,-1.548656464E0
4.565165156E0,1.975277066E0,5.934780240E-1,-1.559652090E0
4.567546406E0,2.011928797E0,4.969614148E-1,-1.581643224E0
4.569928437E0,2.059576273E0,3.796753287E-1,-1.609742999E0
4.572311302E0,2.129214764E0,2.672762275E-1,-1.634177566E0
4.574693229E0,2.211070538E0,1.341077089E-1,-1.664720774E0
4.577074479E0,2.307587147E0,-2.725981176E-3,-1.698929191E0
4.579456510E0,2.419986486E0,-1.493335068E-1,-1.728250742E0
4.581839375E0,2.538494110E0,-3.069366217E-1,-1.761237383E0
4.584221354E0,2.659445286E0,-4.572093487E-1,-1.796667576E0
4.586602604E0,2.771844387E0,-6.013733745E-1,-1.828432560E0
4.588984635E0,2.890352249E0,-7.137724757E-1,-1.845536709E0
4.591367500E0,2.999086142E0,-8.041804433E-1,-1.847980261E0
4.593749479E0,3.109041691E0,-8.848146200E-1,-1.829654217E0
4.596130677E0,3.212888718E0,-9.874398708E-1,-1.796667576E0
4.598512708E0,3.299631596E0,-1.113278151E0,-1.747798443E0
4.600895572E0,3.365604877E0,-1.253777027E0,-1.689155340E0
4.603277552E0,3.408365488E0,-1.386945486E0,-1.618295074E0
4.605658802E0,3.425469637E0,-1.498122931E0,-1.536439180E0
4.608040833E0,3.414474249E0,-1.572648287E0,-1.443587780E0
4.610423697E0,3.390039444E0,-1.597082853E0,-1.336075544E0
4.612805677E0,3.357052803E0,-1.581200361E0,-1.223676443E0
4.615186927E0,3.317957401E0,-1.529887915E0,-1.123494625E0
4.617568906E0,3.270310163E0,-1.440701485E0,-1.037973642E0
4.619951770E0,3.206780195E0,-1.336854458E0,-9.781089425E-1
4.622333750E0,3.139585018E0,-1.208572865E0,-9.451223016E-1
4.624715000E0,3.058950901E0,-1.076626062E0,-9.414570928E-1
4.627097031E0,2.981981993E0,-9.226882458E-1,-9.475657344E-1
4.629479895E0,2.903791189E0,-7.809675932E-1,-9.622265100E-1
4.631861875E0,2.825600624E0,-6.477990746E-1,-9.842176437E-1
4.634243125E0,2.753518581E0,-5.073002577E-1,-1.006208777E0
4.636625156E0,2.686323404E0,-3.484754264E-1,-1.024534583E0
4.639007968E0,2.625236988E0,-1.884288490E-1,-1.047747374E0
4.641389947E0,2.564150333E0,-2.105192840E-2,-1.074625492E0
4.643771197E0,2.507950783E0,1.426598132E-1,-1.113720775E0
4.646153229E0,2.452973127E0,2.953760028E-1,-1.172363877E0
4.648536093E0,2.407768965E0,4.077751040E-1,-1.248111010E0
4.650918072E0,2.378447533E0,4.285445213E-1,-1.334853888E0
4.653299322E0,2.363786697E0,3.772318661E-1,-1.422818422E0
4.655681354E0,2.354012966E0,2.770500481E-1,-1.505895972E0
4.658064166E0,2.354012966E0,1.451032758E-1,-1.587751865E0
4.660446145E0,2.349126101E0,-6.391167641E-3,-1.661055565E0
4.662827395E0,2.345460892E0,-1.517769694E-1,-1.716033459E0
4.665209427E0,2.335686922E0,-2.849454880E-1,-1.747798443E0
4.667592291E0,2.321026325E0,-3.851273060E-1,-1.758793950E0
4.669974270E0,2.300256968E0,-4.511006773E-1,-1.744133234E0
4.672355520E0,2.280709267E0,-4.743135571E-1,-1.711146474E0
4.674737552E0,2.263605118E0,-4.633179903E-1,-1.669607759E0
4.677120364E0,2.255052805E0,-4.120053351E-1,-1.630512357E0
4.679502343E0,2.258718014E0,-3.325929344E-1,-1.593860507E0
4.681883593E0,2.278265715E0,-2.238590121E-1,-1.559652090E0
4.684265625E0,2.296591759E0,-1.200120077E-1,-1.535217524E0
4.686648489E0,2.328356743E0,2.160936594E-3,-1.505895972E0
4.689030468E0,2.349126101E0,1.072296649E-1,-1.486348271E0
4.691411718E0,2.368673801E0,2.086332142E-1,-1.469244123E0
4.693793750E0,2.385777950E0,3.075932860E-1,-1.454583287E0
4.696176562E0,2.399216890E0,4.004447460E-1,-1.448474646E0
4.698558541E0,2.416321278E0,5.042917728E-1,-1.438700795E0
4.700939791E0,2.435868740E0,6.166908741E-1,-1.425261855E0
4.703321822E0,2.452973127E0,7.168726921E-1,-1.410601020E0
4.705704687E0,2.466412067E0,8.133893013E-1,-1.387388229E0
4.708086666E0,2.471298933E0,8.915799856E-1,-1.366618752E0
4.710467916E0,2.481072903E0,9.673271775E-1,-1.342184186E0
4.712849947E0,2.481072903E0,1.025970221E0,-1.327523470E0
4.715232760E0,2.485959768E0,1.096830368E0,-1.322636604E0
4.717614739E0,2.492068291E0,1.177464724E0,-1.314084411E0
4.719995989E0,2.498177052E0,1.272759438E0,-1.303088903E0
4.722378020E0,2.517724752E0,1.402262926E0,-1.284762979E0
4.724760885E0,2.538494110E0,1.532987833E0,-1.271323919E0
4.727142864E0,2.564150333E0,1.671043396E0,-1.259106636E0
4.729524114E0,2.586141586E0,1.811542273E0,-1.250554562E0
4.731906145E0,2.611797810E0,1.945932388E0,-1.245667577E0
4.734288958E0,2.628902197E0,2.065661907E0,-1.237115502E0
4.736670937E0,2.646006346E0,2.168287039E0,-1.226119876E0
4.739052187E0,2.642341137E0,2.241590977E0,-1.205350518E0
4.741434218E0,2.632567406E0,2.291681767E0,-1.180915952E0
4.743817083E0,2.615463018E0,2.322225094E0,-1.152816176E0
4.746199062E0,2.584919930E0,2.333220720E0,-1.124716401E0
4.748580312E0,2.548268080E0,2.333220720E0,-1.099060059E0
4.750962343E0,2.503063917E0,2.318559885E0,-1.078290701E0
4.753345156E0,2.455416441E0,2.302677393E0,-1.055077791E0
4.755727135E0,2.401660442E0,2.273355961E0,-1.031865001E0
4.758108385E0,2.344239235E0,2.248921394E0,-1.007430434E0
4.760490416E0,2.286817789E0,2.228151798E0,-9.817741513E-1
4.762873281E0,2.225731373E0,2.206160784E0,-9.573395848E-1
4.765255260E0,2.163423300E0,2.185391426E0,-9.304615259E-1
4.767636510E0,2.093784571E0,2.154848099E0,-9.035834670E-1
4.770018541E0,2.025367737E0,2.131635189E0,-8.718184829E-1
4.772401354E0,1.953285813E0,2.099870205E0,-8.388317823E-1
4.774783333E0,1.881203771E0,2.061996698E0,-8.034016490E-1
4.777164583E0,1.809121728E0,2.032675266E0,-7.679715157E-1
4.779546614E0,1.735818028E0,1.994801521E0,-7.325413227E-1
4.781929479E0,1.650296926E0,1.937380314E0,-7.056633234E-1
4.784311458E0,1.564775825E0,1.878737211E0,-6.824504137E-1
4.786692708E0,1.481698275E0,1.824981213E0,-6.641244888E-1
4.789074739E0,1.393733740E0,1.762673140E0,-6.433551311E-1
4.791457552E0,1.305769205E0,1.695477962E0,-6.213639975E-1
4.793839531E0,1.214139581E0,1.625839233E0,-5.969293714E-1
4.796220781E0,1.127396703E0,1.570861578E0,-5.688295960E-1
4.798602812E0,1.040653944E0,1.521992445E0,-5.431733131E-1
4.800985677E0,9.563544989E-1,1.468236208E0,-5.211821795E-1
4.803367656E0,8.757203817E-1,1.427919149E0,-4.955258369E-1
4.805748906E0,7.926428318E-1,1.392488956E0,-4.698695242E-1
4.808130937E0,7.168955803E-1,1.364389181E0,-4.417697489E-1
4.810513750E0,6.423701048E-1,1.338732958E0,-4.148916900E-1
4.812895729E0,5.702880621E-1,1.313076496E0,-3.904570937E-1
4.815276979E0,4.994277060E-1,1.291085482E0,-3.635790646E-1
4.817659010E0,4.322325885E-1,1.269094229E0,-3.403661847E-1
4.820041875E0,3.687026799E-1,1.251990080E0,-3.183750808E-1
4.822423854E0,3.063944578E-1,1.239772797E0,-2.988274097E-1
4.824805104E0,2.477514446E-1,1.228777170E0,-2.780579925E-1
4.827187135E0,1.891084462E-1,1.216559887E0,-2.560668290E-1
4.829569947E0,1.353523582E-1,1.208007812E0,-2.316322625E-1
4.831951927E0,8.526144177E-2,1.203120947E0,-2.035324872E-1
4.834333177E0,3.517053649E-2,1.198234081E0,-1.766544431E-1
4.836715208E0,-1.247691084E-2,1.192125320E0,-1.522198468E-1
4.839098072E0,-5.645916983E-2,1.186016798E0,-1.290069968E-1
4.841480052E0,-9.921970218E-2,1.187238455E0,-1.082376018E-1
4.843861302E0,-1.358715892E-1,1.189682007E0,-8.868993074E-2
4.846243333E0,-1.737452000E-1,1.181129932E0,-7.280744612E-2
4.848626145E0,-2.042884231E-1,1.167690754E0,-6.425533444E-2
4.851008125E0,-2.433837652E-1,1.134704113E0,-6.059014797E-2
4.853389375E0,-2.751487494E-1,1.087056637E0,-6.181187928E-2
4.855771406E0,-3.069137037E-1,1.022305012E0,-6.914225966E-2
4.858154270E0,-3.276831210E-1,9.599967599E-1,-8.013781905E-2
4.860536250E0,-3.472307920E-1,8.842496276E-1,-9.479857236E-2
4.862917500E0,-3.606698215E-1,8.023937345E-1,-1.106810570E-1
4.865299531E0,-3.692219257E-1,7.132074833E-1,-1.314504445E-1
4.867682343E0,-3.728871047E-1,6.191343069E-1,-1.509981155E-1
4.870064322E0,-3.704436421E-1,5.213959813E-1,-1.693240553E-1
4.872445572E0,-3.594480753E-1,4.248793721E-1,-1.888717264E-1
4.874827604E0,-3.411221504E-1,3.320278823E-1,-2.059759498E-1
4.877210468E0,-3.240179420E-1,2.355112731E-1,-2.230801582E-1
4.879592447E0,-2.971398830E-1,1.512119323E-1,-2.401843667E-1
4.881973697E0,-2.678183615E-1,8.157335222E-2,-2.536233664E-1
4.884355729E0,-2.336099297E-1,3.148244321E-2,-2.621754706E-1
4.886738541E0,-2.018449754E-1,-7.612898946E-3,-2.682841718E-1
4.889120520E0,-1.603061706E-1,-2.725981176E-3,-2.670624256E-1
4.891501770E0,-1.248760223E-1,1.193477213E-2,-2.658406794E-1
4.893883802E0,-9.311105311E-2,4.736492038E-2,-2.585102916E-1
4.896266666E0,-6.134608760E-2,1.060079336E-1,-2.475147396E-1
4.898648645E0,-3.324631229E-2,1.768682301E-1,-2.340757251E-1
4.901029895E0,9.621120989E-4,2.721631527E-1,-2.157497853E-1
4.903411927E0,2.417497337E-2,3.711232245E-1,-1.974238455E-1
