"Time (s)","Acceleration x (m/s^2)","Acceleration y (m/s^2)","Acceleration z (m/s^2)"
3.936767000E-3,-1.493331909E0,6.647033691E0,7.728149414E0
6.439209000E-3,-1.451446533E0,6.684143066E0,7.738922119E0
8.972168000E-3,-1.359268188E0,6.585968018E0,7.578506470E0
1.147460900E-2,-1.292221069E0,6.597946167E0,7.524642944E0
1.400756800E-2,-1.234756470E0,6.564422607E0,7.465988159E0
1.654052700E-2,-1.179702759E0,6.623077393E0,7.388168335E0
1.907348600E-2,-1.222793579E0,6.636245728E0,7.342681885E0
2.160644500E-2,-1.216812134E0,6.648223877E0,7.341491699E0
2.413940400E-2,-1.188079834E0,6.687728882E0,7.295989990E0
2.667236300E-2,-1.164138794E0,6.692520142E0,7.244522095E0
2.917480500E-2,-1.202438354E0,6.708084106E0,7.117630005E0
3.170776400E-2,-1.209625244E0,6.722442627E0,7.054183960E0
3.424072300E-2,-1.247924805E0,6.728424072E0,6.959609985E0
3.677368200E-2,-1.330535889E0,6.727233887E0,6.896163940E0
3.927612300E-2,-1.294616699E0,6.732025146E0,6.825531006E0
4.180908200E-2,-1.307785034E0,6.680541992E0,6.831527710E0
4.434204100E-2,-1.288635254E0,6.670974731E0,6.732162476E0
4.687500000E-2,-1.287429810E0,6.645828247E0,6.708221436E0
4.940795900E-2,-1.429885864E0,6.678146362E0,6.613647461E0
5.194091800E-2,-1.470596313E0,6.681747437E0,6.547805786E0
5.444335900E-2,-1.552001953E0,6.644638062E0,6.697448730E0
5.697631800E-2,-1.621429443E0,6.626678467E0,6.708221436E0
5.950927700E-2,-1.755508423E0,6.562026978E0,6.753707886E0
6.204223600E-2,-1.786621094E0,6.550064087E0,6.738143921E0
6.457519500E-2,-1.840499878E0,6.505767822E0,6.775253296E0
6.710815400E-2,-1.909927368E0,6.484222412E0,6.832717896E0
6.964111300E-2,-1.959014893E0,6.429153442E0,6.829132080E0
7.217407200E-2,-1.994918823E0,6.386062622E0,6.848281860E0
7.470703100E-2,-2.083511353E0,6.307052612E0,6.910522461E0
7.720947300E-2,-2.088302612E0,6.277130127E0,6.936859131E0
7.974243200E-2,-2.090698242E0,6.231628418E0,6.947631836E0
8.227539100E-2,-2.174484253E0,6.163391113E0,7.012283325E0
8.480835000E-2,-2.148147583E0,6.134674072E0,6.988342285E0
8.731079100E-2,-2.154144287E0,6.092773438E0,7.012283325E0
8.984375000E-2,-2.204421997E0,6.038894653E0,7.063751221E0
9.237670900E-2,-2.170898438E0,5.983825684E0,7.164321899E0
9.490966800E-2,-2.216384888E0,5.908416748E0,7.167907715E0
9.744262700E-2,-2.187652588E0,5.889266968E0,7.161926270E0
9.997558600E-2,-2.162521362E0,5.840179443E0,7.194244385E0
1.025085450E-1,-2.131393433E0,5.774337769E0,7.293594360E0
1.050415040E-1,-2.178085327E0,5.744415283E0,7.335494995E0
1.075744630E-1,-2.181671143E0,5.750396729E0,7.482742310E0
1.100769040E-1,-2.133789062E0,5.734832764E0,7.556961060E0
1.126098630E-1,-2.139770508E0,5.715682983E0,7.667098999E0
1.151428220E-1,-2.150543213E0,5.769546509E0,7.714981079E0
1.176757810E-1,-2.118225098E0,5.774337769E0,7.822723389E0
1.202087400E-1,-2.099075317E0,5.800674438E0,7.887359619E0
1.227416990E-1,-2.049987793E0,5.836593628E0,7.913696289E0
1.252441410E-1,-1.979354858E0,5.877288818E0,7.952011108E0
1.277771000E-1,-1.943450928E0,5.866516113E0,8.020248413E0
1.303100590E-1,-1.838104248E0,5.867721558E0,8.101638794E0
1.328430170E-1,-1.706420898E0,5.914398193E0,8.154312134E0
1.353759760E-1,-1.625015259E0,5.910812378E0,8.178253174E0
1.379089350E-1,-1.555587769E0,5.919189453E0,8.160308838E0
1.404113770E-1,-1.450241089E0,5.890457153E0,8.168685913E0
1.429443360E-1,-1.361663818E0,5.932357788E0,8.230926514E0
1.454772950E-1,-1.301803589E0,5.970672607E0,8.214172363E0
1.480102540E-1,-1.246734619E0,6.005386353E0,8.233322144E0
1.505432130E-1,-1.198852539E0,6.062835693E0,8.251281738E0
1.530761720E-1,-1.149765015E0,6.086776733E0,8.287200928E0
1.556091310E-1,-1.116256714E0,6.162200928E0,8.264450073E0
1.581420900E-1,-1.116256714E0,6.275924683E0,8.226150513E0
1.606750490E-1,-1.081527710E0,6.328598022E0,8.124389648E0
1.632080080E-1,-1.140197754E0,6.453094482E0,8.007080078E0
1.657409670E-1,-1.130615234E0,6.536895752E0,7.876586914E0
1.682739260E-1,-1.134201050E0,6.585968018E0,7.826309204E0
1.708068850E-1,-1.182098389E0,6.682937622E0,7.777236938E0
1.733093260E-1,-1.182098389E0,6.753570557E0,7.659912109E0
1.758422850E-1,-1.244338989E0,6.832580566E0,7.609634399E0
1.783752440E-1,-1.257507324E0,6.896026611E0,7.511474609E0
1.809082030E-1,-1.271881104E0,6.913986206E0,7.509078979E0
1.834411620E-1,-1.281448364E0,6.949890137E0,7.443237305E0
1.859741210E-1,-1.316162109E0,6.946304321E0,7.388168335E0
1.884765620E-1,-1.386795044E0,6.964263916E0,7.340286255E0
1.910095210E-1,-1.370040894E0,7.031295776E0,7.303176880E0
1.935424800E-1,-1.409545898E0,7.075592041E0,7.281631470E0
1.960754390E-1,-1.392776489E0,7.051651001E0,7.273254395E0
1.986083980E-1,-1.422714233E0,7.086364746E0,7.244522095E0
2.011413570E-1,-1.374832153E0,7.063613892E0,7.242126465E0
2.036437990E-1,-1.358062744E0,7.069610596E0,7.292404175E0
2.061767580E-1,-1.371231079E0,7.044464111E0,7.206207275E0
2.087097170E-1,-1.343704224E0,7.028900146E0,7.187057495E0
2.112426760E-1,-1.324539185E0,6.972640991E0,7.177490234E0
2.137756350E-1,-1.257507324E0,6.951095581E0,7.206207275E0
2.163085940E-1,-1.165328979E0,6.952285767E0,7.158325195E0
2.188110350E-1,-1.148574829E0,6.892425537E0,7.169097900E0
2.213439940E-1,-1.143783569E0,6.861312866E0,7.149948120E0
2.238769530E-1,-1.094696045E0,6.860107422E0,7.215789795E0
2.264099120E-1,-1.076751709E0,6.778701782E0,7.280426025E0
2.289428710E-1,-1.129425049E0,6.764343262E0,7.313949585E0
2.314758300E-1,-1.112655640E0,6.760757446E0,7.385772705E0
2.340087890E-1,-1.125823975E0,6.688919067E0,7.438446045E0
2.365112300E-1,-1.135406494E0,6.620697021E0,7.497116089E0
2.390441890E-1,-1.142593384E0,6.664978027E0,7.543792725E0
2.415771480E-1,-1.129425049E0,6.633865356E0,7.588088989E0
2.441101070E-1,-1.125823975E0,6.550064087E0,7.590484619E0
2.466430660E-1,-1.192871094E0,6.607528687E0,7.692230225E0
2.491760250E-1,-1.223983765E0,6.614700317E0,7.700622559E0
2.516784670E-1,-1.231170654E0,6.602737427E0,7.754486084E0
2.542114260E-1,-1.259902954E0,6.557250977E0,7.804763794E0
2.567443850E-1,-1.294616699E0,6.581192017E0,7.799972534E0
2.592773440E-1,-1.364044189E0,6.541687012E0,7.826309204E0
2.618103030E-1,-1.399963379E0,6.529708862E0,7.869400024E0
2.643432620E-1,-1.397567749E0,6.515350342E0,7.901733398E0
2.668457030E-1,-1.408340454E0,6.466262817E0,7.884963989E0
2.693786620E-1,-1.348495483E0,6.472244263E0,7.890960693E0
2.719116210E-1,-1.378417969E0,6.494995117E0,7.873001099E0
2.744445800E-1,-1.376022339E0,6.457885742E0,7.920883179E0
2.769775390E-1,-1.379608154E0,6.445907593E0,7.884963989E0
2.795104980E-1,-1.393981934E0,6.463867188E0,7.874191284E0
2.820129390E-1,-1.390380859E0,6.430358887E0,7.810745239E0
2.845458980E-1,-1.383209229E0,6.467468262E0,7.680267334E0
2.870788570E-1,-1.421508789E0,6.469848633E0,7.601257324E0
2.896118160E-1,-1.422714233E0,6.480636597E0,7.586883545E0
2.921447750E-1,-1.472991943E0,6.517745972E0,7.497116089E0
2.946777340E-1,-1.458618164E0,6.499786377E0,7.494720459E0
2.972106930E-1,-1.477767944E0,6.524917603E0,7.480346680E0
2.997131350E-1,-1.498123169E0,6.532104492E0,7.481552124E0
3.022460940E-1,-1.555587769E0,6.502182007E0,7.465988159E0
3.047790530E-1,-1.523269653E0,6.479431152E0,7.421691895E0
3.073120120E-1,-1.549606323E0,6.455490112E0,7.416900635E0
3.098449710E-1,-1.584320068E0,6.520141602E0,7.376205444E0
3.123779300E-1,-1.550796509E0,6.494995117E0,7.426483154E0
3.148803710E-1,-1.566360474E0,6.466262817E0,7.383377075E0
3.174133300E-1,-1.586715698E0,6.468658447E0,7.346267700E0
3.199462890E-1,-1.581924438E0,6.448303223E0,7.391769409E0
3.224792480E-1,-1.597488403E0,6.411193848E0,7.369018555E0
3.250122070E-1,-1.644165039E0,6.467468262E0,7.311553955E0
3.275451660E-1,-1.687271118E0,6.438735962E0,7.343872070E0
3.300476070E-1,-1.710006714E0,6.417190552E0,7.291213989E0
3.325805660E-1,-1.718399048E0,6.451904297E0,7.329513550E0
3.351135250E-1,-1.732757568E0,6.445907593E0,7.355850220E0
3.376464840E-1,-1.799789429E0,6.449508667E0,7.376205444E0
3.401794430E-1,-1.815353394E0,6.429153442E0,7.373809814E0
3.427124020E-1,-1.857254028E0,6.429153442E0,7.394165039E0
3.452148440E-1,-1.859649658E0,6.457885742E0,7.462387085E0
3.477478030E-1,-1.818954468E0,6.406402588E0,7.501892090E0
3.502807620E-1,-1.814163208E0,6.389648438E0,7.543792725E0
3.528137210E-1,-1.824935913E0,6.371688843E0,7.580902100E0
3.553466800E-1,-1.778244019E0,6.350143433E0,7.586883545E0
3.578796390E-1,-1.692062378E0,6.365707397E0,7.577316284E0
3.604125980E-1,-1.699234009E0,6.453094482E0,7.586883545E0
3.629150390E-1,-1.753112793E0,6.527313232E0,7.533020020E0
3.654479980E-1,-1.743530273E0,6.467468262E0,7.594070435E0
3.679809570E-1,-1.676498413E0,6.472244263E0,7.663513184E0
3.705139160E-1,-1.656143188E0,6.492599487E0,7.712585449E0
3.730468750E-1,-1.611846924E0,6.487808228E0,7.717376709E0
3.755798340E-1,-1.586715698E0,6.461471558E0,7.785614014E0
3.780822750E-1,-1.571151733E0,6.483016968E0,7.747299194E0
3.806152340E-1,-1.462219238E0,6.517745972E0,7.779617310E0
3.831481930E-1,-1.425109863E0,6.514144897E0,7.862228394E0
3.856811520E-1,-1.437072754E0,6.484222412E0,7.822723389E0
3.882141110E-1,-1.421508789E0,6.530914307E0,7.816741943E0
3.907470700E-1,-1.332931519E0,6.545272827E0,7.791595459E0
3.932495120E-1,-1.395172119E0,6.527313232E0,7.719772339E0
3.957824710E-1,-1.334121704E0,6.483016968E0,7.750900269E0
3.983154300E-1,-1.234756470E0,6.485412598E0,7.712585449E0
4.008483890E-1,-1.164138794E0,6.480636597E0,7.708999634E0
4.033813480E-1,-1.138992310E0,6.448303223E0,7.662307739E0
4.059143070E-1,-1.082733154E0,6.462677002E0,7.633575439E0
4.084167480E-1,-1.043228149E0,6.406402588E0,7.706604004E0
4.109497070E-1,-1.006118774E0,6.413589478E0,7.720962524E0
4.134826660E-1,-1.036041260E0,6.444717407E0,7.821517944E0
4.160156250E-1,-1.054000854E0,6.430358887E0,7.820327759E0
4.185485840E-1,-1.083923340E0,6.433944702E0,7.877792358E0
4.210815430E-1,-1.177307129E0,6.439926147E0,7.859832764E0
4.236145020E-1,-1.172515869E0,6.486618042E0,7.901733398E0
4.261169430E-1,-1.214416504E0,6.485412598E0,7.990310669E0
4.286499020E-1,-1.297012329E0,6.521331787E0,7.961578369E0
4.311828610E-1,-1.349685669E0,6.506973267E0,7.967575073E0
4.337158200E-1,-1.370040894E0,6.512954712E0,8.048965454E0
4.362487790E-1,-1.383209229E0,6.526123047E0,8.076507568E0
4.387817380E-1,-1.432281494E0,6.484222412E0,8.074111938E0
4.413146970E-1,-1.429885864E0,6.467468262E0,8.040588379E0
4.438476560E-1,-1.402359009E0,6.493804932E0,8.017852783E0
4.463806150E-1,-1.431091309E0,6.508163452E0,7.934051514E0
4.489135740E-1,-1.370040894E0,6.471054077E0,7.804763794E0
4.514465330E-1,-1.399963379E0,6.418380737E0,7.804763794E0
4.539794920E-1,-1.414321899E0,6.325012207E0,7.725753784E0
4.564819340E-1,-1.386795044E0,6.310638428E0,7.652725220E0
4.590148920E-1,-1.435882568E0,6.295074463E0,7.601257324E0
4.615478510E-1,-1.446655273E0,6.253173828E0,7.562942505E0
4.640808100E-1,-1.470596313E0,6.232833862E0,7.442047119E0
4.666137690E-1,-1.464599609E0,6.205291748E0,7.375000000E0
4.691467280E-1,-1.487350464E0,6.140655518E0,7.319931030E0
4.716491700E-1,-1.487350464E0,6.177764893E0,7.291213989E0
4.741821290E-1,-1.502914429E0,6.155014038E0,7.286422729E0
4.767150880E-1,-1.554382324E0,6.149032593E0,7.252899170E0
4.792480470E-1,-1.511291504E0,6.105941772E0,7.251708984E0
4.817810060E-1,-1.477767944E0,6.070022583E0,7.234939575E0
4.843139650E-1,-1.505310059E0,6.104736328E0,7.072143555E0
4.868164060E-1,-1.502914429E0,6.102340698E0,7.032638550E0
4.893493650E-1,-1.510101318E0,6.139450073E0,6.959609985E0
4.918823240E-1,-1.547210693E0,6.170578003E0,6.953628540E0
4.944152830E-1,-1.540023804E0,6.177764893E0,6.971588135E0
4.969482420E-1,-1.536437988E0,6.146636963E0,6.956024170E0
4.994812010E-1,-1.574737549E0,6.171783447E0,6.946441650E0
5.020141600E-1,-1.644165039E0,6.145446777E0,6.881805420E0
5.045166010E-1,-1.662124634E0,6.128677368E0,6.898559570E0
5.070495600E-1,-1.616638184E0,6.193328857E0,6.906936646E0
5.095825190E-1,-1.620223999E0,6.240005493E0,6.906936646E0
5.121154780E-1,-1.568756104E0,6.184951782E0,6.866241455E0
5.146484370E-1,-1.484954834E0,6.182556152E0,6.821945190E0
5.171813960E-1,-1.417922974E0,6.240005493E0,6.760894775E0
5.196838380E-1,-1.343704224E0,6.192123413E0,6.727371216E0
5.222167970E-1,-1.263488770E0,6.220855713E0,6.685470581E0
5.247497560E-1,-1.189270020E0,6.238815308E0,6.651962280E0
5.272827150E-1,-1.113861084E0,6.207687378E0,6.602874756E0
5.298156740E-1,-1.021682739E0,6.163391113E0,6.569351196E0
5.323486330E-1,-9.893646240E-1,6.202896118E0,6.544219971E0
5.348510740E-1,-9.390869141E-1,6.253173828E0,6.535842896E0
5.373840330E-1,-9.534454346E-1,6.255569458E0,6.532241821E0
5.399169920E-1,-8.911895752E-1,6.257965088E0,6.577728271E0
5.424499510E-1,-8.325347900E-1,6.230438232E0,6.584915161E0
5.449829100E-1,-8.337402344E-1,6.224456787E0,6.610061646E0
5.475158690E-1,-7.870483398E-1,6.303451538E0,6.639984131E0
5.500183100E-1,-7.499389648E-1,6.319015503E0,6.657943726E0
5.525512690E-1,-7.846527100E-1,6.330993652E0,6.641174316E0
5.550842280E-1,-7.882385254E-1,6.299865723E0,6.650756836E0
5.576171870E-1,-8.133850098E-1,6.339370728E0,6.635192871E0
5.601501460E-1,-8.504943848E-1,6.398025513E0,6.636398315E0
5.626831050E-1,-8.828125000E-1,6.375289917E0,6.638793945E0
5.652160640E-1,-8.756408691E-1,6.400421143E0,6.655548096E0
5.677185060E-1,-9.247131348E-1,6.329788208E0,6.662734985E0
5.702514650E-1,-8.672485352E-1,6.265151978E0,6.666320801E0
5.727844240E-1,-8.756408691E-1,6.277130127E0,6.678298950E0
5.753173830E-1,-9.259185791E-1,6.336975098E0,6.800399780E0
5.778503420E-1,-1.054000854E0,6.443527222E0,6.892578125E0
5.803833010E-1,-1.176101685E0,6.442321777E0,6.987136841E0
5.828857420E-1,-1.291030884E0,6.454299927E0,7.094879150E0
5.854187010E-1,-1.328140259E0,6.411193848E0,7.167907715E0
5.879516600E-1,-1.304199219E0,6.336975098E0,7.298385620E0
5.904846190E-1,-1.295822144E0,6.316619873E0,7.402542114E0
5.930175780E-1,-1.243148804E0,6.286697388E0,7.473159790E0
5.955505370E-1,-1.225189209E0,6.238815308E0,7.531829834E0
5.980529780E-1,-1.231170654E0,6.205291748E0,7.600051880E0
6.005859370E-1,-1.261093140E0,6.202896118E0,7.731735229E0
6.031188960E-1,-1.269485474E0,6.153823853E0,7.823913574E0
6.056518550E-1,-1.259902954E0,6.105941772E0,7.906524658E0
6.081848140E-1,-1.297012329E0,6.023330688E0,7.979537964E0
6.107177730E-1,-1.234756470E0,5.955108643E0,8.038192749E0
6.132202150E-1,-1.229980469E0,5.849761963E0,8.104034424E0
6.157531740E-1,-1.208435059E0,5.759979248E0,8.204589844E0
6.182861330E-1,-1.170120239E0,5.755187988E0,8.151916504E0
6.208190920E-1,-1.087524414E0,5.682159424E0,8.045379639E0
6.233520510E-1,-1.032455444E0,5.751602173E0,8.007080078E0
6.258850100E-1,-1.021682739E0,5.763565063E0,8.017852783E0
6.283874510E-1,-9.917449951E-1,5.789901733E0,8.089675903E0
6.309204100E-1,-9.306945801E-1,5.785110474E0,8.072906494E0
6.334533690E-1,-8.301391602E-1,5.661819458E0,8.181854248E0
6.359863280E-1,-8.277435303E-1,5.593582153E0,8.240509033E0
6.385192870E-1,-8.205718994E-1,5.507385254E0,8.337478638E0
6.410522460E-1,-7.583160400E-1,5.489425659E0,8.333877563E0
6.435852050E-1,-6.613464355E-1,5.509780884E0,8.311141968E0
6.460876460E-1,-5.667877197E-1,5.506195068E0,8.269241333E0
6.486206050E-1,-4.243316650E-1,5.524139404E0,8.222549438E0
6.511535640E-1,-4.303131104E-1,5.567245483E0,8.245300293E0
6.536865230E-1,-4.638366699E-1,5.657028198E0,8.181854248E0
6.562194820E-1,-4.458770752E-1,5.738433838E0,8.083694458E0
6.587524410E-1,-4.650268555E-1,5.807861328E0,8.090866089E0
6.612548830E-1,-4.566497803E-1,5.895248413E0,8.017852783E0
6.637878420E-1,-5.021362305E-1,5.992218018E0,7.917297363E0
6.663208010E-1,-5.284729004E-1,6.103546143E0,7.871795654E0
6.688537600E-1,-6.230468750E-1,6.204101562E0,7.893356323E0
6.713867190E-1,-7.307891846E-1,6.272338867E0,7.878982544E0
6.739196780E-1,-8.672485352E-1,6.419570923E0,7.863418579E0
6.764221190E-1,-9.127502441E-1,6.521331787E0,7.920883179E0
6.789550780E-1,-1.027664185E0,6.587173462E0,7.913696289E0
6.814880370E-1,-1.166534424E0,6.680541992E0,7.877792358E0
6.840209960E-1,-1.274261475E0,6.772720337E0,7.863418579E0
6.865539550E-1,-1.422714233E0,6.873275757E0,7.889755249E0
6.890869140E-1,-1.597488403E0,6.910385132E0,7.898132324E0
6.915893550E-1,-1.692062378E0,6.915176392E0,7.898132324E0
6.941223140E-1,-1.799789429E0,6.958267212E0,7.997497559E0
6.966552730E-1,-1.911132812E0,6.959472656E0,8.041793823E0
6.991882320E-1,-1.973373413E0,6.909194946E0,8.114807129E0
7.017211910E-1,-2.060760498E0,6.899612427E0,8.190231323E0
7.042541500E-1,-2.099075317E0,6.894821167E0,8.168685913E0
7.067871090E-1,-2.127807617E0,6.913986206E0,8.220153809E0
7.092895510E-1,-2.140975952E0,6.875671387E0,8.195022583E0
7.118225100E-1,-2.137374878E0,6.818206787E0,8.144744873E0
7.143554690E-1,-2.032028198E0,6.787094116E0,8.050170898E0
7.168884280E-1,-1.943450928E0,6.734420776E0,7.901733398E0
7.194213870E-1,-1.859649658E0,6.576400757E0,7.853851318E0
7.219543460E-1,-1.656143188E0,6.576400757E0,7.762863159E0
7.244873050E-1,-1.416717529E0,6.534500122E0,7.662307739E0
7.270202640E-1,-1.286239624E0,6.346557617E0,7.542602539E0
7.295532230E-1,-1.177307129E0,6.235229492E0,7.570129395E0
7.320861820E-1,-1.076751709E0,6.254379272E0,7.524642944E0
7.346191410E-1,-9.989318848E-1,6.219665527E0,7.517456055E0
7.371521000E-1,-8.840179443E-1,6.247192383E0,7.433654785E0
7.396545410E-1,-6.613464355E-1,6.216064453E0,7.379791260E0
7.421875000E-1,-1.597747803E-1,6.180160522E0,7.242126465E0
7.447204590E-1,1.035919189E-1,6.068832397E0,7.106857300E0
7.472534180E-1,-6.878662109E-2,5.969467163E0,6.993133545E0
7.497863770E-1,-5.801391602E-2,5.798278809E0,6.891372681E0
7.523193360E-1,5.091857910E-2,5.597167969E0,6.838699341E0
7.548217770E-1,1.430969238E-1,5.442749023E0,6.752517700E0
7.573547360E-1,1.466979980E-1,5.454711914E0,6.681884766E0
7.598876950E-1,6.529235840E-2,5.508590698E0,6.681884766E0
7.624206540E-1,4.014587402E-2,5.567245483E0,6.605270386E0
7.649536130E-1,2.218627930E-2,5.562454224E0,6.656738281E0
7.674560550E-1,9.042358398E-2,5.543304443E0,6.660339355E0
7.699890140E-1,1.574707031E-1,5.532531738E0,6.673507690E0
7.725219730E-1,1.778106689E-1,5.597167969E0,6.720184326E0
7.750549320E-1,2.197113037E-1,5.651031494E0,6.756103516E0
7.775878910E-1,2.233123779E-1,5.700119019E0,6.781234741E0
7.801208500E-1,1.826019287E-1,5.762374878E0,6.770462036E0
7.826538090E-1,2.245025635E-1,5.847366333E0,6.786026001E0
7.851867670E-1,1.945800781E-1,5.920379639E0,6.778854370E0
7.876892090E-1,1.838073730E-1,5.999389648E0,6.806381226E0
7.902221680E-1,1.622467041E-1,6.097564697E0,6.848281860E0
7.927551270E-1,7.485961914E-2,6.174179077E0,6.806381226E0
7.952880860E-1,3.535461426E-2,6.299865723E0,6.847076416E0
7.978210450E-1,1.380920410E-2,6.347747803E0,6.806381226E0
8.003540040E-1,-5.493164062E-4,6.387252808E0,6.808776855E0
8.028564450E-1,-5.920410156E-2,6.450698853E0,6.910522461E0
8.053894040E-1,-1.250457764E-1,6.503372192E0,6.993133545E0
8.079223630E-1,-2.591247559E-1,6.558441162E0,7.166702271E0
8.104553220E-1,-4.506683350E-1,6.602737427E0,7.465988159E0
8.129882810E-1,-6.314239502E-1,6.733215332E0,7.795181274E0
8.155212400E-1,-6.613464355E-1,6.979827881E0,8.144744873E0
8.180236820E-1,-7.164154053E-1,6.966659546E0,8.449996948E0
8.205566410E-1,-1.056396484E0,7.112701416E0,8.822296143E0
8.230896000E-1,-1.310180664E0,7.259948730E0,9.037780762E0
8.256225590E-1,-1.374832153E0,7.250366211E0,9.230514526E0
8.281555170E-1,-1.399963379E0,7.298248291E0,9.345428467E0
8.306884760E-1,-1.398773193E0,7.401199341E0,9.349029541E0
8.332214350E-1,-1.356872559E0,7.404785156E0,9.267623901E0
8.357238770E-1,-1.325744629E0,7.410781860E0,9.189804077E0
8.382568360E-1,-1.156951904E0,7.469436646E0,9.077285767E0
8.407897950E-1,-1.013305664E0,7.411972046E0,8.885742188E0
8.432922360E-1,-9.103546143E-1,7.441894531E0,8.772018433E0
8.458251950E-1,-8.157806396E-1,7.407180786E0,8.596054077E0
8.483581540E-1,-6.864929199E-1,7.342544556E0,8.453598022E0
8.508911130E-1,-6.481781006E-1,7.299453735E0,8.294372559E0
8.534240720E-1,-6.062927246E-1,7.207275391E0,8.325500488E0
8.559570310E-1,-5.117187500E-1,7.100723267E0,8.251281738E0
8.584899900E-1,-4.722137451E-1,6.988204956E0,8.385360718E0
8.610229490E-1,-4.746093750E-1,6.909194946E0,8.404510498E0
8.635559080E-1,-4.147491455E-1,6.843353271E0,8.359024048E0
8.660583500E-1,-3.213806152E-1,6.729629517E0,8.271636963E0
8.685913090E-1,-3.034210205E-1,6.624282837E0,8.191421509E0
8.711242670E-1,-4.877777100E-1,6.465072632E0,8.290786743E0
8.736572260E-1,-7.403564453E-1,6.380065918E0,8.411697388E0
8.761901850E-1,-6.805114746E-1,6.363311768E0,8.151916504E0
8.787231440E-1,-5.045318604E-1,6.346557617E0,7.908905029E0
8.812255860E-1,-3.429260254E-1,6.253173828E0,7.829895020E0
8.837585450E-1,-6.520080566E-2,6.224456787E0,7.843063354E0
8.862915040E-1,1.251373291E-1,6.098754883E0,7.892150879E0
8.888244630E-1,2.867584229E-1,5.977844238E0,8.033416748E0
8.913574220E-1,3.035125732E-1,5.910812378E0,8.403320312E0
8.938903810E-1,2.807617188E-1,5.779129028E0,8.585266113E0
8.963928220E-1,4.375915527E-1,5.710891724E0,8.636749268E0
8.989257810E-1,6.183471680E-1,5.639068604E0,8.546966553E0
9.014587400E-1,8.757324219E-1,5.583999634E0,8.545776367E0
9.039916990E-1,1.054092407E0,5.458312988E0,8.441619873E0
9.065246580E-1,1.165420532E0,5.373306274E0,8.282409668E0
9.090576170E-1,1.254013062E0,5.277542114E0,8.178253174E0
9.115905760E-1,1.337799072E0,5.168609619E0,8.106430054E0
9.140930170E-1,1.518569946E0,5.102767944E0,7.979537964E0
9.166259760E-1,1.517364502E0,5.047698975E0,7.796386719E0
9.191589350E-1,1.519760132E0,4.967498779E0,7.583297729E0
9.216918940E-1,1.532928467E0,4.872924805E0,7.347473145E0
9.242248530E-1,1.456314087E0,4.841796875E0,7.121215820E0
9.267578120E-1,1.410827637E0,4.754409790E0,6.885391235E0
9.292602540E-1,1.216903687E0,4.619140625E0,6.558578491E0
9.317932130E-1,9.978332520E-1,4.529357910E0,6.222198486E0
9.343261720E-1,8.003082275E-1,4.470703125E0,5.839126587E0
9.368591310E-1,4.040679932E-1,4.427597046E0,5.251342773E0
9.393920900E-1,8.683776855E-2,4.376129150E0,4.650405884E0
9.419250490E-1,-2.375793457E-1,4.401260376E0,4.067413330E0
9.444274900E-1,-7.104339600E-1,4.395278931E0,3.490417480E0
9.469604490E-1,-1.367645264E0,4.507812500E0,3.069030762E0
9.494934080E-1,-2.067947388E0,4.667022705E0,2.762573242E0
9.520263670E-1,-2.746704102E0,4.884887695E0,3.022338867E0
9.545593260E-1,-3.588256836E0,5.191345215E0,3.829193115E0
9.570922850E-1,-4.273010254E0,5.465484619E0,4.850311279E0
9.595947260E-1,-4.786560059E0,5.694137573E0,5.948059082E0
9.621276850E-1,-5.160064697E0,5.946716309E0,6.837509155E0
9.646606440E-1,-5.444961548E0,6.198120117E0,7.413314819E0
9.671936030E-1,-5.635299683E0,6.460281372E0,7.793991089E0
9.697265620E-1,-5.732269287E0,6.767929077E0,7.997497559E0
9.722595210E-1,-5.509613037E0,6.900817871E0,7.913696289E0
9.747924800E-1,-5.233078003E0,7.020523071E0,7.846664429E0
9.772949220E-1,-4.957748413E0,6.945098877E0,7.699417114E0
9.798278810E-1,-4.621368408E0,6.740402222E0,7.445632935E0
9.823608400E-1,-4.245468140E0,6.569213867E0,7.325927734E0
9.848937990E-1,-3.721145630E0,6.363311768E0,7.206207275E0
9.874267580E-1,-3.303359985E0,6.145446777E0,7.098480225E0
9.899597170E-1,-3.039993286E0,6.103546143E0,7.218185425E0
9.924621580E-1,-2.801773071E0,6.150222778E0,7.530624390E0
9.949951170E-1,-2.556365967E0,6.351348877E0,7.851455688E0
9.975280760E-1,-2.200820923E0,6.605133057E0,8.147140503E0
1.000030517E0,-1.951828003E0,6.832580566E0,8.241699219E0
1.002563476E0,-1.833312988E0,6.933135986E0,8.204589844E0
1.005126953E0,-1.628616333E0,7.079177856E0,8.222549438E0
1.007659912E0,-1.550796509E0,7.213256836E0,8.138748169E0
1.010192871E0,-1.481369019E0,7.307830811E0,7.998687744E0
1.012725830E0,-1.488555908E0,7.410781860E0,7.886169434E0
1.015258789E0,-1.585510254E0,7.265930176E0,7.549774170E0
1.017791748E0,-1.524459839E0,7.198883057E0,7.282821655E0
1.020324707E0,-1.571151733E0,7.145019531E0,7.017074585E0
1.022827148E0,-1.493331909E0,7.166564941E0,6.859054565E0
1.025360107E0,-1.332931519E0,7.233612061E0,6.835113525E0
1.027893066E0,-1.483764648E0,7.224029541E0,6.497528076E0
1.030426025E0,-1.603469849E0,7.058822632E0,5.966018677E0
1.032958984E0,-1.741134644E0,7.033691406E0,5.687088013E0
1.035491943E0,-2.006896973E0,6.972640991E0,5.562591553E0
1.037994385E0,-2.255889893E0,6.907989502E0,5.605682373E0
1.040527344E0,-2.445037842E0,6.740402222E0,5.724197388E0
1.043060303E0,-2.677276611E0,6.568023682E0,5.987564087E0
1.045593262E0,-2.853240967E0,6.432739258E0,6.262893677E0
1.048126221E0,-2.951400757E0,6.372894287E0,6.571746826E0
1.050659180E0,-2.969360352E0,6.195724487E0,7.045806885E0
1.053161621E0,-2.939437866E0,5.982635498E0,7.501892090E0
1.055694580E0,-3.014846802E0,5.737228394E0,7.833496094E0
1.058227539E0,-3.018447876E0,5.558868408E0,8.216567993E0
1.060760498E0,-2.879577637E0,5.433166504E0,8.667877197E0
1.063293457E0,-2.510879517E0,5.232055664E0,9.098831177E0
1.065795898E0,-2.057174683E0,5.081222534E0,9.666259766E0
1.068328857E0,-1.646560669E0,5.139877319E0,1.020375061E1
1.070861816E0,-1.348495483E0,5.254791260E0,1.048507690E1
1.073394775E0,-1.077941895E0,5.126708984E0,1.069337463E1
1.075927734E0,-8.923950195E-1,5.114730835E0,1.091482544E1
1.078460693E0,-7.870483398E-1,5.202133179E0,1.122248840E1
1.080993652E0,-6.948699951E-1,5.245223999E0,1.147268677E1
1.083526611E0,-6.338195801E-1,5.342193604E0,1.168936157E1
1.086029053E0,-6.673431396E-1,5.399642944E0,1.173724365E1
1.088562012E0,-6.757202148E-1,5.267959595E0,1.179470825E1
1.091094971E0,-7.918395996E-1,5.117126465E0,1.167379761E1
1.093627930E0,-8.708496094E-1,4.956726074E0,1.159478760E1
1.096160889E0,-1.219207764E0,4.769973755E0,1.145831299E1
1.098693848E0,-1.591506958E0,4.935165405E0,1.108840942E1
1.101196289E0,-1.947036743E0,5.097976685E0,1.009481812E1
1.103729248E0,-2.289413452E0,5.021362305E0,8.782791138E0
1.106262207E0,-2.386367798E0,5.039321899E0,7.941238403E0
1.108795166E0,-2.212799072E0,5.175796509E0,7.437255859E0
1.111297607E0,-2.038024902E0,5.220077515E0,6.960800171E0
1.113830566E0,-1.768676758E0,5.138687134E0,6.662734985E0
1.116363525E0,-1.512496948E0,5.057281494E0,6.610061646E0
1.118896484E0,-1.446655273E0,5.016571045E0,6.635192871E0
1.121429443E0,-1.344894409E0,4.972290039E0,6.721389771E0
1.123962402E0,-1.451446533E0,4.983062744E0,6.973968506E0
1.126464844E0,-1.645370483E0,5.145858765E0,7.285217285E0
1.128997803E0,-2.039215088E0,5.309860229E0,7.552169800E0
1.131530762E0,-2.496505737E0,5.664199829E0,7.790405273E0
1.134063721E0,-3.039993286E0,6.044891357E0,7.887359619E0
1.136596680E0,-3.631362915E0,6.471054077E0,7.957992554E0
1.139129639E0,-4.166458130E0,6.909194946E0,7.814346313E0
1.141662598E0,-4.623748779E0,7.149810791E0,7.465988159E0
1.144195557E0,-4.990066528E0,7.238388062E0,7.069747925E0
1.146728516E0,-5.160064697E0,7.306625366E0,6.636398315E0
1.149230957E0,-5.288146973E0,7.274307251E0,6.303604126E0
1.151763916E0,-5.309692383E0,7.237197876E0,6.103683472E0
1.154266357E0,-5.409057617E0,7.173751831E0,6.009109497E0
1.156799316E0,-5.510803223E0,7.064819336E0,6.077346802E0
1.159332275E0,-5.502426147E0,6.925949097E0,6.167129517E0
1.161865234E0,-5.510803223E0,6.807434082E0,6.140792847E0
1.164398193E0,-5.430603027E0,6.648223877E0,6.170715332E0
1.166931152E0,-5.318069458E0,6.527313232E0,6.187484741E0
1.169464111E0,-5.093017578E0,6.325012207E0,6.139602661E0
1.171997070E0,-4.878738403E0,6.220855713E0,6.183883667E0
1.174499512E0,-4.723114014E0,6.127487183E0,6.495132446E0
1.177032471E0,-4.520812988E0,6.126281738E0,6.758499146E0
1.179565430E0,-4.434616089E0,6.170578003E0,7.044601440E0
1.182098389E0,-4.320892334E0,6.169387817E0,7.328323364E0
1.184631348E0,-4.239486694E0,6.158615112E0,7.523437500E0
1.187164307E0,-4.149703979E0,6.174179077E0,7.652725220E0
1.189697266E0,-4.122177124E0,6.043685913E0,7.816741943E0
1.192230225E0,-4.019226074E0,6.062835693E0,7.819122314E0
1.194763184E0,-3.919860840E0,6.036499023E0,7.743713379E0
1.197265625E0,-3.918670654E0,6.005386353E0,7.669494629E0
1.199768066E0,-3.833663940E0,5.988616943E0,7.697021484E0
1.202301025E0,-3.749877930E0,6.019744873E0,7.570129395E0
1.204833984E0,-3.684036255E0,5.994613647E0,7.280426025E0
1.207366943E0,-3.618194580E0,6.017349243E0,7.027847290E0
1.209899902E0,-3.569107056E0,6.038894653E0,6.775253296E0
1.212432861E0,-3.487701416E0,6.078399658E0,6.508300781E0
1.214965820E0,-3.441024780E0,6.113113403E0,6.323944092E0
1.217498779E0,-3.451797485E0,6.139450073E0,6.062988281E0
1.220031738E0,-3.383560181E0,6.234024048E0,5.810394287E0
1.222564697E0,-3.370391846E0,6.296279907E0,5.509918213E0
1.225097656E0,-3.388351440E0,6.374084473E0,5.264511108E0
1.227600098E0,-3.431442261E0,6.431549072E0,5.039459229E0
1.230133057E0,-3.448196411E0,6.499786377E0,4.926925659E0
1.232666016E0,-3.397918701E0,6.542877197E0,4.801239014E0
1.235198975E0,-3.369201660E0,6.524917603E0,4.705474854E0
1.237731934E0,-3.292587280E0,6.568023682E0,4.676742554E0
1.240264892E0,-3.248291016E0,6.574005127E0,4.687515259E0
1.242767334E0,-3.184844971E0,6.606323242E0,4.766525269E0
1.245300293E0,-3.168075562E0,6.562026978E0,4.855102539E0
1.247833252E0,-3.205184937E0,6.494995117E0,5.032272339E0
1.250366211E0,-3.256668091E0,6.524917603E0,5.231002808E0
1.252899170E0,-3.253082275E0,6.706878662E0,5.456054688E0
1.255432129E0,-3.467361450E0,6.887649536E0,5.750534058E0
1.257934570E0,-4.028793335E0,7.027709961E0,5.829544067E0
1.260467529E0,-4.677627563E0,7.204879761E0,5.794830322E0
1.263000488E0,-5.336029053E0,7.372467041E0,5.514709473E0
1.265533447E0,-5.814865112E0,7.397613525E0,5.256134033E0
1.268066406E0,-6.114151001E0,7.550842285E0,5.096923828E0
1.270599365E0,-6.146469116E0,7.451477051E0,5.004745483E0
1.273132324E0,-5.874725342E0,7.451477051E0,5.125656128E0
1.275634766E0,-5.477294922E0,7.392822266E0,5.351898193E0
1.278167725E0,-4.939788818E0,7.166564941E0,5.671524048E0
1.280700684E0,-4.403488159E0,7.006164551E0,5.922927856E0
1.283233642E0,-4.068298340E0,6.773925781E0,6.139602661E0
1.285766601E0,-3.812118530E0,6.588363647E0,6.272476196E0
1.288299560E0,-3.551147461E0,6.389648438E0,6.384994507E0
1.290832519E0,-3.288986206E0,6.314239502E0,6.539428711E0
1.293334961E0,-3.148925781E0,6.230438232E0,6.423309326E0
1.295867920E0,-3.121398926E0,6.217269897E0,6.434082031E0
1.298400879E0,-3.051956177E0,6.090377808E0,6.331130981E0
1.300933838E0,-2.956192017E0,5.915603638E0,6.174316406E0
1.303466797E0,-2.887954712E0,5.782714844E0,6.041427612E0
1.305999756E0,-2.799377441E0,5.684555054E0,5.926513672E0
1.308532715E0,-2.761062622E0,5.639068604E0,5.920532227E0
1.311065674E0,-2.761062622E0,5.545700073E0,5.831939697E0
1.313598633E0,-2.661712646E0,5.397247314E0,5.712234497E0
1.316131592E0,-2.613830566E0,5.285919189E0,5.707443237E0
1.318634033E0,-2.534820557E0,5.241638184E0,5.708633423E0
1.321166992E0,-2.503692627E0,5.235641479E0,5.875030518E0
1.323699951E0,-2.451019287E0,5.272750854E0,5.977981567E0
1.326232910E0,-2.391159058E0,5.253601074E0,6.273666382E0
1.328765869E0,-2.397155762E0,5.344573975E0,6.272476196E0
1.331298828E0,-2.269058228E0,5.320632935E0,6.300003052E0
1.333831787E0,-2.208007812E0,5.302688599E0,6.370635986E0
1.336364746E0,-2.117019653E0,5.148254395E0,6.363449097E0
1.338867187E0,-1.338912964E0,4.740051270E0,6.460418701E0
1.341400146E0,-8.313446045E-1,3.852996826E0,6.219802856E0
1.343933105E0,-1.495727539E0,3.910461426E0,6.060592651E0
1.346466064E0,-2.480941772E0,4.506607056E0,5.942077637E0
1.348999023E0,-3.396728516E0,5.307464600E0,6.246139526E0
1.351531982E0,-4.027603149E0,6.155014038E0,6.764480591E0
1.354034424E0,-4.427429199E0,6.724838257E0,7.091293335E0
1.356567383E0,-4.537567139E0,7.093551636E0,7.147552490E0
1.359100342E0,-4.245468140E0,7.257553101E0,6.891372681E0
1.361633301E0,-3.830078125E0,7.267120361E0,6.537033081E0
1.364166260E0,-3.452987671E0,7.194107056E0,6.200653076E0
1.366699219E0,-3.249481201E0,6.961868286E0,5.944473267E0
1.369201660E0,-3.408691406E0,6.721252441E0,5.805603027E0
1.371734619E0,-3.784591675E0,6.545272827E0,5.879821777E0
1.374267578E0,-4.185623169E0,6.362121582E0,6.213821411E0
1.376800537E0,-4.617767334E0,6.297470093E0,6.710617065E0
1.379333496E0,-4.879928589E0,6.225646973E0,7.194244385E0
1.381866455E0,-5.027175903E0,6.155014038E0,7.576110840E0
1.384399414E0,-5.076263428E0,6.066436768E0,7.820327759E0
1.386901855E0,-5.249847412E0,5.891662598E0,7.855041504E0
1.389434814E0,-5.385116577E0,5.850952148E0,7.766448975E0
1.391967773E0,-5.604187012E0,5.776733398E0,7.458801270E0
1.394500732E0,-5.954925537E0,5.572036743E0,7.191848755E0
1.397033691E0,-6.292510986E0,5.400848389E0,7.031433105E0
1.399536133E0,-6.506790161E0,5.265579224E0,6.952423096E0
1.402069092E0,-6.689956665E0,5.041717529E0,7.092483521E0
1.404602051E0,-6.808471680E0,4.908843994E0,7.292404175E0
1.407135010E0,-6.915008545E0,4.718490601E0,7.753280640E0
1.409667969E0,-6.863525391E0,4.584426880E0,8.341064453E0
1.412200928E0,-6.668411255E0,4.487457275E0,8.910888672E0
1.414733887E0,-5.970489502E0,4.837005615E0,9.467529297E0
1.417236328E0,-7.483627319E0,4.714904785E0,9.744064331E0
1.419769287E0,-9.234985352E0,4.128326416E0,1.000263977E1
1.422302246E0,-8.946487427E0,3.609985352E0,1.014270020E1
1.424835205E0,-7.295684814E0,3.236480713E0,1.009600830E1
1.427368164E0,-4.466934204E0,3.353805542E0,1.033901978E1
1.429901123E0,-2.881973267E0,3.292755127E0,1.043719482E1
1.432403564E0,-3.779800415E0,2.392532349E0,9.984680176E0
1.434936523E0,-3.869583130E0,1.880172729E0,9.122772217E0
1.437469482E0,-3.098648071E0,1.523437500E0,8.270431519E0
1.440002441E0,-2.474960327E0,1.471954346E0,7.716171265E0
1.442535400E0,-2.424682617E0,1.619201660E0,7.764068604E0
1.445068359E0,-2.504882812E0,1.840667725E0,8.066925049E0
1.447570801E0,-1.941055298E0,2.455978394E0,8.515838623E0
1.450103760E0,-1.261093140E0,2.907287598E0,8.859405518E0
1.452636719E0,-7.176208496E-1,3.140716553E0,9.212554932E0
1.455169678E0,-4.183349609E-1,3.177825928E0,9.371765137E0
1.457702637E0,-1.597747803E-1,3.404083252E0,9.490280151E0
1.460235596E0,-2.519378662E-1,3.661453247E0,9.750045776E0
1.462738037E0,-4.530639648E-1,3.903274536E0,1.010917664E1
1.465270996E0,-6.242370605E-1,4.161849976E0,1.047789001E1
1.467803955E0,-7.451477051E-1,4.467102051E0,1.078793335E1
1.470336914E0,-8.313446045E-1,4.747222900E0,1.104531860E1
1.472869873E0,-7.918395996E-1,5.007003784E0,1.114347839E1
1.475402832E0,-6.996612549E-1,5.197341919E0,1.104650879E1
1.477935791E0,-5.476226807E-1,5.364929199E0,1.088011169E1
1.480438232E0,-3.201751709E-1,5.487030029E0,1.070892334E1
1.482971191E0,-1.513824463E-1,5.576812744E0,1.056886292E1
1.485504150E0,-1.371765137E-2,5.663009644E0,1.047908020E1
1.488037109E0,1.502838135E-1,5.652236938E0,1.029353333E1
1.490570068E0,2.831573486E-1,5.694137573E0,1.017980957E1
1.493103027E0,4.136505127E-1,5.726455688E0,1.002299500E1
1.495605469E0,3.633728027E-1,5.616317749E0,9.988281250E0
1.498138428E0,2.017517090E-1,5.443939209E0,9.990676880E0
1.500671387E0,1.371154785E-1,5.315856934E0,9.906875610E0
1.503204346E0,1.022338867E-2,5.191345215E0,9.989471436E0
1.505737305E0,-2.016601562E-1,4.942352295E0,1.007566833E1
1.508270264E0,-4.518585205E-1,4.614349365E0,1.017501831E1
1.510772705E0,-7.583160400E-1,4.345001221E0,1.023727417E1
1.513305664E0,-1.063583374E0,4.116348267E0,1.032945251E1
1.515838623E0,-1.347290039E0,3.897293091E0,1.033064270E1
1.518371582E0,-1.587905884E0,3.843414307E0,1.026000977E1
1.520904541E0,-1.720779419E0,3.857788086E0,1.012834167E1
1.523437500E0,-1.754302979E0,3.952346802E0,9.935607910E0
1.525939941E0,-1.698043823E0,4.063690186E0,9.653091431E0
1.528472900E0,-1.721984863E0,4.214523315E0,9.596817017E0
1.531005859E0,-1.656143188E0,4.283950806E0,9.768005371E0
1.533538818E0,-1.547210693E0,4.433593750E0,9.961944580E0
1.536071777E0,-1.463409424E0,4.649063110E0,1.011875916E1
1.538604736E0,-1.411941528E0,4.698150635E0,1.023606873E1
1.541137695E0,-1.295822144E0,4.625122070E0,1.043598938E1
1.543640137E0,-1.100692749E0,4.464706421E0,1.038331604E1
1.546173096E0,-9.977416992E-1,4.224090576E0,1.030430603E1
1.548706055E0,-9.043579102E-1,4.079238892E0,1.015347290E1
1.551239014E0,-8.864135742E-1,4.008621216E0,1.016065979E1
1.553771973E0,-8.361358643E-1,3.854187012E0,1.014988708E1
1.556304932E0,-8.840179443E-1,3.763214111E0,1.013432312E1
1.558807373E0,-9.845733643E-1,3.843414307E0,1.018699646E1
1.561340332E0,-1.006118774E0,3.932006836E0,1.013551331E1
1.563873291E0,-1.143783569E0,4.068466187E0,1.004812622E1
1.566406250E0,-1.215606689E0,4.256423950E0,9.957153320E0
1.568939209E0,-1.273071289E0,4.421615601E0,9.753646851E0
1.571472168E0,-1.326934814E0,4.464706421E0,9.559707642E0
1.573974609E0,-1.324539185E0,4.463516235E0,9.319091797E0
1.576507568E0,-1.365249634E0,4.530548096E0,9.202972412E0
1.579040527E0,-1.378417969E0,4.518585205E0,9.146713257E0
1.581573486E0,-1.423904419E0,4.469497681E0,9.155090332E0
1.584106445E0,-1.437072754E0,4.571258545E0,9.191009521E0
1.586639404E0,-1.422714233E0,4.623931885E0,9.315505981E0
1.589172363E0,-1.416717529E0,4.673004150E0,9.461547852E0
1.591705322E0,-1.456222534E0,4.632308960E0,9.509429932E0
1.594238281E0,-1.419113159E0,4.570053101E0,9.562103271E0
1.596771240E0,-1.488555908E0,4.543716431E0,9.690200806E0
1.599304199E0,-1.589111328E0,4.650268555E0,9.918838501E0
1.601837158E0,-1.774658203E0,4.719696045E0,1.024085999E1
1.604370117E0,-1.957809448E0,4.719696045E0,1.046113586E1
1.606872559E0,-2.154144287E0,4.786727905E0,1.077716064E1
1.609405517E0,-2.245117188E0,4.843002319E0,1.097349548E1
1.611938476E0,-2.385177612E0,4.894470215E0,1.111714172E1
1.614471435E0,-2.459396362E0,4.898056030E0,1.113150024E1
1.617004394E0,-2.502487183E0,4.919616699E0,1.114706421E1
1.619537353E0,-2.563552856E0,4.859756470E0,1.106805420E1
1.622039795E0,-2.571929932E0,4.841796875E0,1.093997192E1
1.624572754E0,-2.458206177E0,4.747222900E0,1.083702087E1
1.627105713E0,-2.319335938E0,4.740051270E0,1.062513733E1
1.629638672E0,-2.247512817E0,4.719696045E0,1.039888000E1
1.632171631E0,-2.034423828E0,4.643081665E0,1.014390564E1
1.634704590E0,-1.917114258E0,4.617935181E0,1.000384521E1
1.637207031E0,-1.803390503E0,4.593994141E0,9.914062500E0
1.639739990E0,-1.648956299E0,4.644271851E0,9.779983521E0
1.642272949E0,-1.417922974E0,4.543716431E0,9.659072876E0
1.644805908E0,-1.249130249E0,4.500625610E0,9.540557861E0
1.647338867E0,-1.113861084E0,4.408447266E0,9.404083252E0
1.649871826E0,-1.249130249E0,4.283950806E0,9.378952026E0
1.652374267E0,-1.623825073E0,4.009811401E0,9.588439941E0
1.654907226E0,-1.543609619E0,4.076858521E0,9.524993896E0
1.657440185E0,-1.636993408E0,4.122344971E0,9.541763306E0
1.659973144E0,-1.790222168E0,4.100799561E0,9.715332031E0
1.662506103E0,-1.964996338E0,4.109176636E0,9.911666870E0
1.665039062E0,-2.166107178E0,4.137908936E0,9.886520386E0
1.667541504E0,-2.367218018E0,4.111572266E0,9.820678711E0
1.670074463E0,-2.522842407E0,4.072067261E0,9.643508911E0
1.672607422E0,-2.644943237E0,4.086425781E0,9.498657227E0
1.675140381E0,-2.822113037E0,4.069671631E0,9.495071411E0
1.677673340E0,-2.919082642E0,4.033752441E0,9.486694336E0
1.680206299E0,-3.002883911E0,4.085235596E0,9.550140381E0
1.682739258E0,-3.126190186E0,4.131912231E0,9.598022461E0
1.685241699E0,-3.198013306E0,4.155853271E0,9.583648682E0
1.687774658E0,-3.211181641E0,4.243255615E0,9.683013916E0
1.690307617E0,-3.274627686E0,4.202545166E0,9.902084351E0
1.692840576E0,-3.324905396E0,4.210922241E0,1.002778625E1
1.695373535E0,-3.342864990E0,4.264801025E0,1.017980957E1
1.697906494E0,-3.406311035E0,4.258804321E0,1.030311584E1
1.700408935E0,-3.472152710E0,4.219299316E0,1.048626709E1
1.702941894E0,-3.356033325E0,3.990661621E0,1.075321960E1
1.705474853E0,-3.110626221E0,3.625549316E0,1.099383545E1
1.708007812E0,-2.847259521E0,3.234085083E0,1.121530151E1
1.710540771E0,-2.689239502E0,3.098815918E0,1.125839233E1
1.713073730E0,-2.689239502E0,3.030578613E0,1.116622925E1
1.715576172E0,-2.964569092E0,2.837844849E0,1.111714172E1
1.718109131E0,-3.184844971E0,2.939605713E0,1.086694336E1
1.720642090E0,-3.384750366E0,3.103607178E0,1.046353149E1
1.723175049E0,-3.537979126E0,3.183807373E0,1.017980957E1
1.725708008E0,-3.567916870E0,3.254440308E0,9.955947876E0
1.728240967E0,-3.473342896E0,3.213745117E0,9.832656860E0
1.730743408E0,-3.444610596E0,3.224517822E0,9.631546021E0
1.733276367E0,-3.415878296E0,3.275985718E0,9.459152222E0
1.735809326E0,-3.332077026E0,3.252044678E0,9.333465576E0
1.738311767E0,-3.184844971E0,3.262817383E0,9.137130737E0
1.740844726E0,-3.049575806E0,3.179031372E0,8.998275757E0
1.743377685E0,-2.788604736E0,2.979110718E0,8.720550537E0
1.745910644E0,-2.611434937E0,2.761230469E0,8.476333618E0
1.748443603E0,-2.524047852E0,2.664276123E0,8.141143799E0
1.750976562E0,-2.422286987E0,2.593643188E0,7.793991089E0
1.753509521E0,-2.065551758E0,2.508651733E0,7.518661499E0
1.756042480E0,-1.847686768E0,2.444000244E0,7.299591064E0
1.758575439E0,-1.660934448E0,2.366195679E0,7.116424561E0
1.761108398E0,-1.522064209E0,2.347045898E0,7.042205811E0
1.763610840E0,-1.458618164E0,2.306335449E0,6.906936646E0
1.766143799E0,-1.343704224E0,2.329086304E0,6.831527710E0
1.768676758E0,-1.293426514E0,2.345840454E0,6.882995605E0
1.771209717E0,-1.189270020E0,2.360214233E0,6.990737915E0
1.773742676E0,-1.127029419E0,2.400909424E0,6.989532471E0
1.776275635E0,-1.231170654E0,2.481109619E0,7.084106445E0
1.778778076E0,-1.335327148E0,2.576889038E0,7.297195435E0
1.781311035E0,-1.518478394E0,2.628356934E0,7.456405640E0
1.783843994E0,-1.688461304E0,2.695404053E0,7.735336304E0
1.786376953E0,-1.998519897E0,2.740890503E0,7.989120483E0
1.788909912E0,-2.276245117E0,2.770812988E0,8.206985474E0
1.791442871E0,-2.629379272E0,2.782791138E0,8.376983643E0
1.793945312E0,-2.971755981E0,2.807922363E0,8.296768188E0
1.796478271E0,-3.311737061E0,2.752853394E0,7.936447144E0
1.799011230E0,-3.679244995E0,2.645126343E0,7.493515015E0
1.801544189E0,-3.836059570E0,2.563720703E0,7.281631470E0
1.804077148E0,-4.098236084E0,2.615188599E0,7.020660400E0
1.806610107E0,-4.331665039E0,2.622375488E0,6.918914795E0
1.809143066E0,-4.476516724E0,2.673843384E0,6.904541016E0
1.811645508E0,-4.687210083E0,2.830673218E0,6.885391235E0
1.814178467E0,-4.793746948E0,2.907287598E0,6.926086426E0
1.816711426E0,-4.845214844E0,2.961151123E0,6.903350830E0
1.819244385E0,-4.895492554E0,3.102416992E0,6.899749756E0
1.821777344E0,-4.823669434E0,3.152694702E0,6.946441650E0
1.824310303E0,-4.525588989E0,3.030578613E0,7.062561035E0
1.826812744E0,-4.198791504E0,2.861801147E0,7.231353760E0
1.829345703E0,-3.827682495E0,2.734909058E0,7.421691895E0
1.831878662E0,-3.531997681E0,2.625961304E0,7.612030029E0
1.834411621E0,-3.327301025E0,2.485900879E0,7.767654419E0
1.836944580E0,-3.198013306E0,2.402114868E0,7.768844604E0
1.839477539E0,-2.773040771E0,2.283599854E0,8.192626953E0
1.841979980E0,-2.853240967E0,2.578079224E0,1.086694336E1
1.844512939E0,-4.028793335E0,3.878128052E0,1.332818604E1
1.847045898E0,-4.049148560E0,4.499435425E0,1.132064819E1
1.849578857E0,-2.896347046E0,3.738067627E0,7.908905029E0
1.852111816E0,-1.675292969E0,2.848632812E0,5.531463623E0
1.854644775E0,-8.935852051E-1,2.276412964E0,4.510345459E0
1.857147217E0,-4.913635254E-1,1.922073364E0,4.439712524E0
1.859680176E0,-6.613464355E-1,1.772430420E0,4.868270874E0
1.862213135E0,-1.168930054E0,1.853836060E0,5.646392822E0
1.864746094E0,-1.626220703E0,2.008255005E0,6.479568481E0
1.867279053E0,-2.017669678E0,2.017837524E0,7.166702271E0
1.869812012E0,-2.235534668E0,1.965164185E0,7.533020020E0
1.872344971E0,-2.316940308E0,1.847854614E0,7.708999634E0
1.874877930E0,-2.313354492E0,1.780807495E0,7.641952515E0
1.877410889E0,-2.356445312E0,1.771240234E0,7.544998169E0
1.879943848E0,-2.962173462E0,1.804748535E0,7.194244385E0
1.882476807E0,-3.266250610E0,1.934036255E0,6.887786865E0
1.885009766E0,-3.408691406E0,2.117202759E0,6.703430176E0
1.887542725E0,-3.420669556E0,2.235717773E0,6.593292236E0
1.890045166E0,-3.424255371E0,2.331481934E0,6.677093506E0
1.892578125E0,-3.481719971E0,2.435623169E0,6.757293701E0
1.895111084E0,-3.444610596E0,2.488296509E0,6.815963745E0
1.897644043E0,-3.339263916E0,2.567306519E0,6.830322266E0
1.900177002E0,-3.272232056E0,2.482315063E0,6.811172485E0
1.902709961E0,-3.224349976E0,2.373382568E0,6.778854370E0
1.905212402E0,-3.227935791E0,2.290771484E0,6.803985596E0
1.907745361E0,-3.194412231E0,2.127975464E0,6.911727905E0
1.910278320E0,-3.261459351E0,1.936431885E0,7.222976685E0
1.912811279E0,-3.354827881E0,1.847854614E0,7.529434204E0
1.915344238E0,-3.460174561E0,1.768844604E0,7.987915039E0
1.917877197E0,-3.553543091E0,1.682647705E0,8.343460083E0
1.920379639E0,-3.638549805E0,1.592864990E0,8.683441162E0
1.922912598E0,-3.746276855E0,1.521041870E0,9.019821167E0
1.925445557E0,-3.718750000E0,1.445617676E0,9.285583496E0
1.927978516E0,-3.646926880E0,1.379776001E0,9.463943481E0
1.930511475E0,-3.584671021E0,1.352249146E0,9.595626831E0
1.933044434E0,-3.481719971E0,1.292388916E0,9.787155151E0
1.935546875E0,-3.375183105E0,1.254089355E0,9.939193726E0
1.938079834E0,-3.284194946E0,1.269653320E0,1.004933167E1
1.940612793E0,-3.322509766E0,1.190643311E0,1.004933167E1
1.943145752E0,-3.515243530E0,1.031433105E0,9.996658325E0
1.945678711E0,-3.820495605E0,8.901672363E-1,1.024325562E1
1.948211670E0,-3.911483765E0,9.021453857E-1,1.092559814E1
1.950744629E0,-3.934219360E0,8.746032715E-1,1.162231445E1
1.953247070E0,-3.919860840E0,5.705413818E-1,1.198144531E1
1.955780029E0,-3.845642090E0,2.940063477E-1,1.191081238E1
1.958312988E0,-3.670867920E0,9.768676758E-2,1.153134155E1
1.960845947E0,-3.467361450E0,-4.058837891E-3,1.118777466E1
1.963378906E0,-3.328491211E0,-3.039550781E-2,1.093638611E1
1.965911865E0,-3.395538330E0,-1.489105225E-1,1.087892151E1
1.968414307E0,-3.530807495E0,-1.441192627E-1,1.095314026E1
1.970947266E0,-3.611007690E0,-1.489105225E-1,1.115425110E1
1.973480225E0,-3.572708130E0,-1.824340820E-1,1.146070862E1
1.976013184E0,-3.318923950E0,-2.219390869E-1,1.153013611E1
1.978546142E0,-3.029220581E0,-2.398986816E-1,1.134339905E1
1.981079101E0,-2.768249512E0,-2.770080566E-1,1.105488586E1
1.983581543E0,-2.605438232E0,-2.817993164E-1,1.090405273E1
1.986114502E0,-2.427078247E0,-2.578582764E-1,1.091242981E1
1.988647461E0,-2.313354492E0,-2.111663818E-1,1.109559631E1
1.991180420E0,-2.082305908E0,-8.850097656E-3,1.133979797E1
1.993682861E0,-1.829727173E0,1.982421875E-1,1.171330261E1
1.996215820E0,-1.871627808E0,1.467742920E-1,1.185096741E1
1.998748779E0,-2.167312622E0,-1.118011475E-1,1.207720947E1
2.001281738E0,-2.350463867E0,-2.698211670E-1,1.159718323E1
2.003814697E0,-2.383987427E0,1.388549805E-2,1.066583252E1
2.006347656E0,-2.534820557E0,1.455688477E-1,1.014390564E1
2.008880615E0,-2.626998901E0,2.976074219E-1,1.021812439E1
2.011413574E0,-2.791000366E0,3.993530273E-1,1.029832458E1
2.013946533E0,-3.011260986E0,4.472351074E-1,1.043719482E1
2.016448975E0,-3.152526855E0,4.208984375E-1,1.059640503E1
2.018981934E0,-3.206390381E0,3.119659424E-1,1.078076172E1
2.021514892E0,-3.312927246E0,1.970520020E-1,1.099024963E1
2.024047851E0,-3.320114136E0,-2.561950684E-2,1.120333862E1
2.026580810E0,-3.254272461E0,-2.518615723E-1,1.141522217E1
2.029113769E0,-3.201599121E0,-4.230499268E-1,1.152056885E1
2.031616211E0,-3.072311401E0,-5.236053467E-1,1.153492737E1
2.034149170E0,-2.920288086E0,-6.253662109E-1,1.144035339E1
2.036682129E0,-2.683258057E0,-6.421203613E-1,1.149542236E1
2.039215088E0,-2.221176147E0,-3.679809570E-1,1.175997925E1
2.041748047E0,-1.566360474E0,-1.908111572E-1,1.213587952E1
2.044281006E0,-8.732452393E-1,1.867675781E-2,1.293194580E1
2.046783447E0,-4.724121094E-2,1.036682129E-1,1.387286377E1
2.049316406E0,7.991180420E-1,7.853698730E-2,1.436965942E1
2.051849365E0,1.282745361E0,-1.094055176E-1,1.340240479E1
2.054382324E0,1.450332642E0,-2.920532227E-2,1.131706238E1
2.056915283E0,1.680175781E0,1.347961426E-1,9.137130737E0
2.059448242E0,2.168594360E0,4.627990723E-1,7.402542114E0
2.061950684E0,2.600753784E0,8.207397461E-1,7.588088989E0
2.064483642E0,3.224441528E0,9.165039062E-1,8.640335083E0
2.067016601E0,3.929534912E0,6.088562012E-1,9.624359131E0
2.069549560E0,4.392807007E0,-1.124572754E-2,9.753646851E0
2.072082519E0,4.720809937E0,-5.176239014E-1,9.059326172E0
2.074615478E0,4.748352051E0,-7.630310059E-1,7.849060059E0
2.077117920E0,4.195281982E0,-9.282226562E-1,6.307189941E0
2.079650879E0,3.442306519E0,-6.756439209E-1,5.041854858E0
2.082183838E0,2.607925415E0,-2.506713867E-1,4.340347290E0
2.084716797E0,1.853759766E0,1.264190674E-1,4.306838989E0
2.087249756E0,1.147460938E0,5.118865967E-1,4.619277954E0
2.089782715E0,5.465240479E-1,8.782043457E-1,5.269302368E0
2.092315674E0,8.323669434E-2,1.163101196E0,6.009109497E0
2.094818115E0,-3.249664307E-1,1.398941040E0,6.746520996E0
2.097351074E0,-6.733245850E-1,1.603637695E0,7.404937744E0
2.099884033E0,-1.020477295E0,1.685043335E0,7.936447144E0
2.102416992E0,-1.366439819E0,1.799972534E0,8.367401123E0
2.104949951E0,-1.625015259E0,1.852630615E0,8.691818237E0
2.107482910E0,-1.899154663E0,2.021423340E0,8.876174927E0
2.109985351E0,-2.148147583E0,2.108810425E0,9.085662842E0
2.112518310E0,-2.312149048E0,2.166275024E0,9.157485962E0
2.115051269E0,-2.411514282E0,2.203384399E0,9.236495972E0
2.117584228E0,-2.460601807E0,2.143539429E0,9.362197876E0
2.120117187E0,-2.565933228E0,2.092056274E0,9.447189331E0
2.122650146E0,-2.658111572E0,1.963973999E0,9.478317261E0
2.125152588E0,-2.591079712E0,1.835876465E0,9.407684326E0
2.127685547E0,-2.433059692E0,1.825103760E0,9.297546387E0
2.130218506E0,-2.331314087E0,1.791580200E0,9.143127441E0
2.132751465E0,-2.152938843E0,1.767639160E0,9.013839722E0
2.135284424E0,-1.960205078E0,1.770034790E0,8.914474487E0
2.137817383E0,-1.765075684E0,1.743698120E0,8.818710327E0
2.140319824E0,-1.669311523E0,1.744903564E0,8.726531982E0
2.142852783E0,-1.540023804E0,1.710189819E0,8.591262817E0
2.145385742E0,-1.472991943E0,1.729339600E0,8.509857178E0
2.147918701E0,-1.298217773E0,1.766448975E0,8.457183838E0
2.150451660E0,-1.161743164E0,1.853836060E0,8.410491943E0
2.152984619E0,-1.057586670E0,1.893341064E0,8.484710693E0
2.155517578E0,-9.821777344E-1,2.052551270E0,8.555343628E0
2.158050537E0,-9.450683594E-1,2.202194214E0,8.804336548E0
2.160583496E0,-1.020477295E0,2.350631714E0,8.896514893E0
2.163116455E0,-1.040832520E0,2.567306519E0,9.177841187E0
2.165649414E0,-1.077941895E0,2.798355103E0,9.507034302E0
2.168182373E0,-9.582366943E-1,3.030578613E0,9.818283081E0
2.170715332E0,-7.906341553E-1,3.368164062E0,1.012474060E1
2.173217773E0,-4.770050049E-1,3.791946411E0,1.048268127E1
2.175750732E0,-1.585693359E-1,4.130722046E0,1.115306091E1
2.178283691E0,1.514739990E-1,4.379714966E0,1.186293030E1
2.180816650E0,6.422882080E-1,4.547317505E0,1.232861328E1
2.183349609E0,1.312667847E0,4.562881470E0,1.243994141E1
2.185882568E0,2.003387451E0,4.315078735E0,1.216699219E1
2.188385010E0,2.739608765E0,3.839828491E0,1.170013428E1
2.190917969E0,3.450683594E0,3.138320923E0,1.084660339E1
2.193450928E0,4.216827393E0,2.226135254E0,9.818283081E0
2.195983887E0,4.657363892E0,1.331893921E0,9.084457397E0
2.198486328E0,4.899185181E0,8.865814209E-1,8.068130493E0
2.201019287E0,4.943466187E0,8.315124512E-1,6.906936646E0
2.203552246E0,4.863265991E0,9.212951660E-1,6.104873657E0
2.206085205E0,4.607086182E0,1.115219116E0,5.829544067E0
2.208587646E0,4.488571167E0,1.313949585E0,5.797225952E0
2.211120605E0,4.293441772E0,1.580902100E0,5.863067627E0
2.213653564E0,4.049240112E0,1.918472290E0,5.931304932E0
2.216186523E0,3.663772583E0,2.173461914E0,6.045028687E0
2.218719482E0,2.989807129E0,2.384155273E0,6.369445801E0
2.221252441E0,2.409210205E0,2.529006958E0,6.830322266E0
2.223785400E0,2.129089355E0,2.654693604E0,7.081710815E0
2.226318359E0,1.929168701E0,2.715744019E0,7.195434570E0
2.228851318E0,1.763977051E0,2.728912354E0,7.382186890E0
2.231353760E0,1.638275146E0,2.579284668E0,7.632385254E0
2.233886719E0,1.455123901E0,2.560119629E0,7.809555054E0
2.236419678E0,1.362945557E0,2.604415894E0,8.057357788E0
2.238952637E0,1.178588867E0,2.592453003E0,8.521820068E0
2.241485596E0,9.056549072E-1,2.579284668E0,9.017425537E0
2.244018555E0,6.913757324E-1,2.519424438E0,9.497467041E0
2.246520996E0,5.130004883E-1,2.379364014E0,9.987075806E0
2.249053955E0,3.370361328E-1,2.269226074E0,1.039529419E1
2.251586914E0,2.065429688E-1,2.175857544E0,1.065147400E1
2.254119873E0,8.323669434E-2,1.894531250E0,1.093518066E1
2.256652832E0,-3.646850586E-2,1.544982910E0,1.129312134E1
2.259185791E0,5.091857910E-2,1.274444580E0,1.125241089E1
2.261718750E0,-5.082702637E-2,9.967041016E-1,1.133381653E1
2.264251709E0,1.846313477E-3,6.459655762E-1,1.135536194E1
2.266754150E0,1.263427734E-1,3.490753174E-1,1.117939758E1
2.269287109E0,4.758911133E-1,8.810424805E-2,1.068858337E1
2.271820068E0,8.493957520E-1,7.904052734E-3,1.014868164E1
2.274322510E0,1.242034912E0,7.904052734E-3,9.596817017E0
2.276855469E0,1.719680786E0,-1.678466797E-3,8.974334717E0
2.279388428E0,2.368515015E0,1.850738525E-1,8.065734863E0
2.281921387E0,3.011352539E0,2.497253418E-1,7.336700439E0
2.284454346E0,3.573989868E0,4.664001465E-1,6.370635986E0
2.286987305E0,4.068389893E0,5.070953369E-1,5.915740967E0
2.289520264E0,4.222824097E0,4.556274414E-1,6.392181396E0
2.292053223E0,4.112686157E0,6.220245361E-1,6.851867676E0
2.294586182E0,4.092330933E0,1.038604736E0,6.668716431E0
2.297088623E0,4.198883057E0,1.376190186E0,6.398162842E0
2.299621582E0,4.367660522E0,1.521041870E0,6.475982666E0
2.302154541E0,4.641799927E0,1.537796021E0,6.875808716E0
2.304687500E0,4.951858521E0,1.602447510E0,7.406127930E0
2.307220459E0,5.251129150E0,1.761657715E0,7.668289185E0
2.309753418E0,5.963409424E0,1.980728149E0,5.758911133E0
2.312286377E0,9.153671265E0,1.199020386E0,-1.831358337E1
2.314788818E0,-2.770843506E-1,8.111572266E-1,-1.173791504E1
2.317321777E0,-1.352081299E0,1.953201294E0,3.280979919E1
2.319854736E0,2.233230591E0,1.318725586E0,2.408772278E1
2.322387695E0,4.274291992E0,6.471557617E-1,1.912216187E1
2.324920654E0,4.143814087E0,1.634765625E0,1.968838501E1
2.327453613E0,3.978607178E0,1.847854614E0,1.703440857E1
2.329956055E0,4.541244507E0,1.679061890E0,1.310192871E1
2.332489014E0,4.826156616E0,1.730529785E0,1.145352173E1
2.335021973E0,4.897979736E0,1.657516479E0,1.083462524E1
2.337554932E0,4.836929321E0,1.468368530E0,9.991867065E0
2.340087891E0,4.563995361E0,1.330703735E0,9.381347656E0
2.342620850E0,4.273101807E0,1.225357056E0,8.284805298E0
2.345123291E0,3.878051758E0,1.129592896E0,7.363037109E0
2.347656250E0,3.473434448E0,1.063751221E0,6.860244751E0
2.350189209E0,3.156204224E0,1.041000366E0,6.254516602E0
2.352722168E0,2.810241699E0,1.007492065E0,6.039047241E0
2.355255127E0,2.582794189E0,9.476318359E-1,5.609283447E0
2.357788086E0,2.321823120E0,8.793945312E-1,5.318389893E0
2.360290527E0,2.018951416E0,7.896118164E-1,5.061004639E0
2.362823486E0,1.766372681E0,6.818695068E-1,4.687515259E0
2.365356445E0,1.473083496E0,5.717468262E-1,4.565414429E0
2.367889404E0,1.214508057E0,4.544219971E-1,4.220642090E0
2.370422363E0,1.066070557E0,3.466796875E-1,3.995590210E0
2.372955322E0,9.523468018E-1,2.592926025E-1,3.528717041E0
2.375488281E0,8.386077881E-1,2.042236328E-1,3.200714111E0
2.377990723E0,8.481903076E-1,2.102203369E-1,2.957702637E0
2.380523682E0,9.427642822E-1,1.850738525E-1,2.488433838E0
2.383056641E0,1.008605957E0,1.431732178E-1,2.283737183E0
2.385589600E0,1.274353027E0,7.493591309E-2,1.918624878E0
2.388122559E0,1.543701172E0,8.212280273E-2,1.639694214E0
2.390655517E0,1.924392700E0,3.065490723E-2,1.256622314E0
2.393157959E0,2.295486450E0,-8.906555176E-2,9.561462402E-1
2.395690918E0,2.623489380E0,-2.494659424E-1,9.286193848E-1
2.398223877E0,3.133453369E0,-5.535278320E-1,9.166412354E-1
2.400756836E0,3.740386963E0,-9.964599609E-1,1.215927124E0
2.403289795E0,4.313796997E0,-1.434600830E0,1.894683838E0
2.405822754E0,5.035644531E0,-1.858367920E0,3.048675537E0
2.408325195E0,5.540832520E0,-2.172012329E0,4.395416260E0
2.410858154E0,5.903549194E0,-2.588607788E0,5.712234497E0
2.413391113E0,6.455413818E0,-3.191940308E0,7.270858765E0
2.415924072E0,6.558364868E0,-3.778518677E0,9.046157837E0
2.418457031E0,5.915512085E0,-4.056259155E0,1.049345398E1
2.420989990E0,4.999740601E0,-3.989212036E0,1.157203674E1
2.423492432E0,3.948684692E0,-3.840774536E0,1.209637451E1
2.426025391E0,3.101135254E0,-3.705505371E0,1.223762512E1
2.428558350E0,2.522933960E0,-3.630081177E0,1.229867554E1
2.431091309E0,2.026138306E0,-3.650436401E0,1.230705261E1
2.433624267E0,1.687362671E0,-3.710296631E0,1.214186096E1
2.436157226E0,1.382095337E0,-3.644454956E0,1.207482910E1
2.438690185E0,1.349777222E0,-3.412216187E0,1.231784058E1
2.441223144E0,1.237243652E0,-3.309265137E0,1.261471558E1
2.443756103E0,1.052902222E0,-3.260177612E0,1.277513123E1
2.446289062E0,8.146667480E-1,-3.219482422E0,1.293075562E1
2.448822021E0,6.267242432E-1,-3.141662598E0,1.318093872E1
2.451354980E0,4.914550781E-1,-3.079421997E0,1.330664062E1
2.453887939E0,4.507598877E-1,-2.923797607E0,1.315820312E1
2.456390381E0,5.070190430E-1,-2.847183228E0,1.273202515E1
2.458923340E0,4.830780029E-1,-2.819641113E0,1.225079346E1
2.461456299E0,4.004821777E-1,-2.721481323E0,1.179829407E1
2.463989258E0,3.226623535E-1,-2.696350098E0,1.116622925E1
2.466522217E0,2.951354980E-1,-2.608963013E0,1.039529419E1
2.469055176E0,2.843627930E-1,-2.582626343E0,9.680618286E0
2.471557617E0,2.616119385E-1,-2.506011963E0,8.922851562E0
2.474090576E0,2.999267578E-1,-2.540725708E0,8.063339233E0
2.476623535E0,9.761047363E-2,-2.666412354E0,7.321136475E0
2.479156494E0,-5.021362305E-1,-2.962097168E0,6.468795776E0
2.481689453E0,-8.648529053E-1,-3.102157593E0,5.503936768E0
2.484222412E0,-9.654235840E-1,-3.120117188E0,5.110092163E0
2.486724853E0,-7.583160400E-1,-3.032730103E0,4.224227905E0
2.489257812E0,-1.466064453E-1,-2.765777588E0,3.380279541E0
2.491790771E0,5.166015625E-1,-2.526351929E0,2.635681152E0
2.494323730E0,1.124725342E0,-2.448547363E0,1.752227783E0
2.496856689E0,1.699325562E0,-2.339614868E0,8.711547852E-1
2.499389648E0,2.294296265E0,-2.321655273E0,-8.653259277E-2
2.501892090E0,2.607925415E0,-2.369537354E0,-1.314758301E0
2.504425049E0,2.953887939E0,-2.387496948E0,-2.092864990E0
2.506958008E0,3.321395874E0,-2.482070923E0,-2.495086670E0
2.509490967E0,3.487792969E0,-2.595794678E0,-2.818313599E0
2.512023926E0,3.593139648E0,-2.677185059E0,-2.864990234E0
2.514556885E0,3.771514893E0,-2.750213623E0,-2.584869385E0
2.517089844E0,3.849319458E0,-2.766967773E0,-1.977951050E0
2.519592285E0,3.850524902E0,-2.799301147E0,-1.089691162E0
2.522125244E0,3.928329468E0,-2.965698242E0,-1.110839844E-2
2.524658203E0,4.058822632E0,-3.110534668E0,9.322052002E-1
2.527191162E0,4.288665771E0,-3.215881348E0,1.982070923E0
2.529724121E0,4.568786621E0,-3.312850952E0,3.075012207E0
2.532257080E0,4.742355347E0,-3.493621826E0,4.399017334E0
2.534759521E0,4.949462891E0,-3.737823486E0,5.661956787E0
2.537292480E0,5.073959351E0,-4.099349976E0,6.832717896E0
2.539825439E0,5.266693115E0,-4.604522705E0,7.856231689E0
2.542358398E0,5.299011230E0,-5.162368774E0,8.782791138E0
2.544891357E0,5.331329346E0,-5.661560059E0,9.736877441E0
2.547424316E0,5.336120605E0,-6.124847412E0,1.047549438E1
2.549926758E0,5.429489136E0,-6.571365356E0,1.112791443E1
2.552459717E0,5.386398315E0,-6.713821411E0,1.182223511E1
2.554992676E0,5.366043091E0,-6.856277466E0,1.228910828E1
2.557525635E0,5.384002686E0,-7.039428711E0,1.240641785E1
2.560058594E0,5.368438721E0,-7.105270386E0,1.240762329E1
2.562591553E0,5.281051636E0,-7.049011230E0,1.220770264E1
2.565093994E0,5.173324585E0,-7.007110596E0,1.166661072E1
2.567626953E0,4.967422485E0,-6.974777222E0,1.085617065E1
2.570159912E0,4.812988281E0,-6.871826172E0,9.887725830E0
2.572692871E0,4.653778076E0,-6.742538452E0,8.793563843E0
2.575225830E0,4.563995361E0,-6.620437622E0,7.719772339E0
2.577758789E0,4.663345337E0,-6.543823242E0,6.568161011E0
2.580291748E0,4.857284546E0,-6.370254517E0,5.374649048E0
2.582794189E0,5.101486206E0,-6.164352417E0,4.130859375E0
2.585327148E0,5.427108765E0,-5.929718018E0,3.192337036E0
2.587860107E0,6.079528809E0,-5.713043213E0,2.494430542E0
2.590393066E0,7.320922852E0,-5.721420288E0,1.613357544E0
2.592926025E0,1.036753845E1,-5.903381348E0,5.611114502E-1
2.595458984E0,1.398756409E1,-6.195465088E0,-1.691284180E-1
2.597961426E0,1.647274780E1,-6.234970093E0,-4.492492676E-1
2.600494385E0,1.704496765E1,-6.124847412E0,-6.731109619E-1
2.603027344E0,1.655296326E1,-5.723815918E0,-8.526763916E-1
2.605560303E0,1.628361511E1,-5.127655029E0,-7.964019775E-1
2.608093262E0,1.637937927E1,-4.904998779E0,-4.157257080E-1
2.610626221E0,1.631593323E1,-4.785293579E0,-4.702758789E-2
2.613128662E0,1.600349426E1,-4.808029175E0,-3.504943848E-2
2.615661621E0,1.576406860E1,-4.961257935E0,-5.180358887E-2
2.618194580E0,1.558569336E1,-5.070190430E0,-1.679229736E-1
2.620727539E0,1.525769043E1,-5.104919434E0,-2.517242432E-1
2.623260498E0,1.481237793E1,-5.004348755E0,-1.068725586E-1
2.625793457E0,1.487701416E1,-4.948089600E0,1.325378418E-1
2.628295898E0,1.489257812E1,-4.986404419E0,5.240020752E-1
2.630828857E0,1.455140686E1,-4.955276489E0,1.060302734E0
2.633361816E0,1.409770203E1,-4.997177124E0,1.639694214E0
2.635894775E0,1.365118408E1,-5.240188599E0,2.195144653E0
2.638427734E0,1.307418823E1,-5.713043213E0,2.820037842E0
2.640960693E0,1.257020569E1,-6.420532227E0,3.497589111E0
2.643493652E0,1.295567322E1,-6.731765747E0,4.393020630E0
2.645996094E0,1.278688049E1,-6.965209961E0,5.209442139E0
2.648529053E0,1.247802734E1,-7.125625610E0,6.073760986E0
2.651062012E0,1.225057983E1,-7.294403076E0,6.965591431E0
2.653594971E0,1.208897400E1,-7.343490601E0,7.849060059E0
2.656127930E0,1.194770813E1,-7.436859131E0,8.639144897E0
2.658660889E0,1.190940857E1,-7.576919556E0,9.235305786E0
2.661163330E0,1.141499329E1,-7.588897705E0,9.718933105E0
2.663696289E0,1.046211243E1,-7.660720825E0,1.012594604E1
2.666229248E0,9.631317139E0,-7.955215454E0,1.067420959E1
2.668762207E0,9.031570435E0,-8.199417114E0,1.115544128E1
2.671295166E0,8.634140015E0,-8.200607300E0,1.124163818E1
2.673828125E0,8.280990601E0,-8.201812744E0,1.120811462E1
2.676330566E0,8.130157471E0,-8.042602539E0,1.097229004E1
2.678863525E0,8.155288696E0,-8.084503174E0,1.067541504E1
2.681396484E0,8.158889771E0,-8.187454224E0,1.035937500E1
2.683929443E0,7.980514526E0,-8.204208374E0,1.021812439E1
2.686462402E0,7.927841187E0,-8.095275879E0,1.002897644E1
2.688995361E0,7.935028076E0,-7.797195435E0,9.782379150E0
2.691497803E0,7.982910156E0,-7.618820190E0,9.510635376E0
2.694030762E0,7.986511230E0,-7.423690796E0,9.173049927E0
2.696563721E0,8.030792236E0,-7.294403076E0,8.995880127E0
2.699096680E0,8.204376221E0,-7.262084961E0,8.807937622E0
2.701629639E0,8.483306885E0,-7.332717896E0,8.693008423E0
2.704162598E0,8.780181885E0,-7.444046021E0,8.627166748E0
2.706665039E0,9.010025024E0,-7.581710815E0,8.561325073E0
2.709197998E0,9.129730225E0,-7.737335205E0,8.657104492E0
2.711730957E0,9.303314209E0,-7.833099365E0,8.839065552E0
2.714263916E0,9.451751709E0,-7.952819824E0,9.005462646E0
2.716796875E0,9.583435059E0,-8.001892090E0,9.286773682E0
2.719329834E0,9.691177368E0,-8.094070435E0,9.496261597E0
2.721862793E0,9.673217773E0,-8.031829834E0,9.764419556E0
2.724395752E0,9.498443604E0,-7.991119385E0,1.005889893E1
2.726928711E0,9.281768799E0,-7.884582520E0,1.041085815E1
2.729461670E0,9.074661255E0,-7.804367065E0,1.072090149E1
2.731994629E0,8.728713989E0,-7.742126465E0,1.108003235E1
2.734497070E0,8.328872681E0,-7.596084595E0,1.142478943E1
2.737030029E0,8.107406616E0,-7.484741211E0,1.172407532E1
2.739562988E0,7.839263916E0,-7.513473511E0,1.192398071E1
2.742095947E0,7.613006592E0,-7.456024170E0,1.199102783E1
2.744628906E0,7.510055542E0,-7.351867676E0,1.195870972E1
2.747161865E0,7.371200562E0,-7.139984131E0,1.170492554E1
2.749694824E0,7.579483032E0,-6.997528076E0,1.122846985E1
2.752227783E0,9.087829590E0,-6.918518066E0,1.070054626E1
2.754730225E0,9.423019409E0,-6.489959717E0,1.064668274E1
2.757263184E0,8.945388794E0,-6.149978638E0,9.929611206E0
2.759796142E0,1.169631958E1,-6.395385742E0,8.603225708E0
2.762329101E0,1.595440674E1,-6.560592651E0,8.171081543E0
2.764862060E0,1.824565125E1,-6.306808472E0,7.804763794E0
2.767395019E0,1.923925781E1,-6.209838867E0,6.964401245E0
2.769897461E0,2.028431702E1,-6.243362427E0,6.304794312E0
2.772430420E0,2.042437744E1,-5.956054688E0,5.556610107E0
2.774963379E0,2.061112976E1,-5.757339478E0,4.518722534E0
2.777496338E0,2.025439453E1,-5.353912354E0,2.452529907E0
2.780029297E0,2.056085205E1,-5.036682129E0,-6.766967773E-1
2.782562256E0,2.054768372E1,-4.405807495E0,-3.555725098E0
2.785095215E0,1.955767822E1,-3.709091187E0,-4.205749512E0
2.787597656E0,1.786378479E1,-3.019561768E0,-3.910064697E0
2.790130615E0,1.584426880E1,-2.361160278E0,-4.008224487E0
2.792663574E0,1.474772644E1,-1.604583740E0,-3.781982422E0
2.795196533E0,1.395405579E1,-1.108993530E0,-3.696975708E0
2.797729492E0,1.334353638E1,-6.217651367E-1,-3.920837402E0
2.800262451E0,1.309812927E1,-1.572875977E-1,-3.787963867E0
2.802764892E0,1.299038696E1,2.341613770E-1,-3.926818848E0
2.805297851E0,1.286589050E1,5.573730469E-1,-4.264404297E0
2.807830810E0,1.243733215E1,7.141876221E-1,-4.779159546E0
2.810363769E0,1.178968811E1,7.991943359E-1,-5.048507690E0
2.812896728E0,1.093855286E1,9.584045410E-1,-5.266387939E0
2.815429687E0,9.961715698E0,1.234939575E0,-4.995834351E0
2.817932129E0,9.843200684E0,1.207397461E0,-4.475097656E0
2.820465088E0,1.047407532E1,7.261657715E-1,-3.939987183E0
2.822998047E0,1.082603455E1,-1.477203369E-1,-3.039779663E0
2.825531006E0,1.072785950E1,-8.851318359E-1,-1.925277710E0
2.828063965E0,1.041302490E1,-1.622543335E0,-6.790924072E-1
2.830596924E0,9.992843628E0,-2.412628174E0,7.059478760E-1
2.833099365E0,9.239868164E0,-2.793304443E0,2.398651123E0
2.835632324E0,8.385131836E0,-3.127304077E0,4.012344360E0
2.838165283E0,7.476531982E0,-3.318832397E0,5.422531128E0
2.840698242E0,6.757080078E0,-3.493621826E0,6.726181030E0
2.843231201E0,6.368026733E0,-3.662399292E0,7.697021484E0
2.845764160E0,6.130996704E0,-3.815628052E0,8.384155273E0
2.848297119E0,5.978973389E0,-3.998794556E0,8.914474487E0
2.850799560E0,5.836517334E0,-4.095748901E0,9.295150757E0
2.853332519E0,5.611450195E0,-4.059844971E0,9.642318726E0
2.855865478E0,5.405548096E0,-3.977249146E0,9.824279785E0
2.858398437E0,5.131423950E0,-3.808456421E0,9.908065796E0
2.860931396E0,4.920730591E0,-3.523544312E0,9.906875610E0
2.863464355E0,4.701660156E0,-2.993225098E0,9.897293091E0
2.865966797E0,4.505340576E0,-2.428192139E0,9.754837036E0
2.868499756E0,4.349716187E0,-1.757812500E0,9.383743286E0
2.871032715E0,4.194091797E0,-1.136520386E0,8.943206787E0
2.873565674E0,4.091140747E0,-7.007751465E-1,8.345855713E0
2.876098633E0,3.928329468E0,-2.207336426E-1,7.588088989E0
2.878631592E0,3.710464478E0,1.563415527E-1,6.786026001E0
2.881134033E0,3.587158203E0,4.891357422E-1,5.865463257E0
2.883666992E0,3.565612793E0,5.765228271E-1,5.082550049E0
2.886199951E0,3.664962769E0,5.609588623E-1,4.225433350E0
2.888732910E0,3.817001343E0,4.197082520E-1,3.419784546E0
2.891265869E0,4.070785522E0,2.030334473E-1,2.713500977E0
2.893798828E0,4.294647217E0,-2.920532227E-2,2.143676758E0
2.896301269E0,4.507736206E0,-2.398986816E-1,1.511611938E0
2.898834228E0,4.678909302E0,-5.511474609E-1,1.108184814E0
2.901367187E0,4.660964966E0,-7.223205566E-1,7.682037354E-1
2.903900146E0,4.574768066E0,-9.725189209E-1,3.432312012E-1
2.906433105E0,4.522094727E0,-1.295730591E0,2.151489258E-1
2.908966064E0,4.615463257E0,-1.735076904E0,5.233764648E-2
2.911499023E0,4.708847046E0,-2.213912964E0,-1.415863037E-1
2.914001465E0,4.785461426E0,-2.675994873E0,-3.391113281E-1
2.916534424E0,4.832138062E0,-3.170394897E0,-6.683197021E-1
2.919067383E0,5.045227051E0,-4.141250610E0,-5.186767578E-1
2.921600342E0,5.561172485E0,-6.565368652E0,-8.335113525E-1
2.924133301E0,3.840942383E0,-7.509887695E0,-9.771728516E-1
2.926666260E0,3.582366943E0,-6.434890747E0,-3.127746582E-1
2.929168701E0,3.133453369E0,-5.240188599E0,-1.667327881E-1
2.931701660E0,2.782699585E0,-3.979644775E0,1.397247314E-1
2.934234619E0,2.914382935E0,-3.239822388E0,5.658874512E-1
2.936767578E0,2.961074829E0,-2.552688599E0,9.549560547E-1
2.939300537E0,3.406402588E0,-2.625717163E0,1.316482544E0
2.941833496E0,3.726028442E0,-2.928588867E0,1.335632324E0
2.944335937E0,4.184509277E0,-2.878311157E0,1.497238159E0
2.946868896E0,4.883621216E0,-3.088989258E0,1.321258545E0
2.949401855E0,5.077545166E0,-3.078216553E0,1.213531494E0
2.951934814E0,5.151763916E0,-2.898651123E0,1.154861450E0
2.954467773E0,5.336120605E0,-3.006393433E0,1.160858154E0
2.957000732E0,5.315765381E0,-3.102157593E0,1.095016479E0
2.959503174E0,5.316970825E0,-3.304473877E0,1.033966064E0
2.962036133E0,5.520477295E0,-3.609725952E0,9.369964600E-1
2.964569092E0,5.542022705E0,-4.123291016E0,5.347747803E-1
2.967102051E0,5.618637085E0,-4.556640625E0,6.071472168E-2
2.969635010E0,5.751510620E0,-4.683532715E0,-4.085388184E-1
2.972167969E0,5.582717896E0,-4.858306885E0,-9.304809570E-1
2.974670410E0,5.641387939E0,-5.118072510E0,-1.374603271E0
2.977203369E0,6.135787964E0,-5.447280884E0,-1.701416016E0
2.979736328E0,5.996917725E0,-5.502349854E0,-1.890548706E0
2.982269287E0,5.782638550E0,-5.066604614E0,-2.225738525E0
2.984802246E0,5.805389404E0,-4.670364380E0,-2.565719604E0
2.987335205E0,5.682083130E0,-4.392639160E0,-2.920059204E0
2.989837646E0,5.799407959E0,-4.353134155E0,-3.092453003E0
2.992370605E0,6.900726318E0,-4.469253540E0,-3.069702148E0
2.994903564E0,7.701599121E0,-4.578186035E0,-3.203781128E0
2.997436523E0,7.548370361E0,-4.851119995E0,-3.560516357E0
2.999969482E0,7.510055542E0,-5.185119629E0,-3.686203003E0
3.002502441E0,7.533996582E0,-5.471221924E0,-3.853805542E0
3.005035400E0,7.103042603E0,-6.088928223E0,-4.022598267E0
3.007568359E0,8.288177490E0,-6.765289307E0,-3.610794067E0
3.010101318E0,9.637298584E0,-6.349899292E0,-3.222930908E0
3.012634277E0,9.458938599E0,-6.033859253E0,-3.005050659E0
3.015167236E0,9.583435059E0,-6.021896362E0,-2.568115234E0
3.017700195E0,9.897079468E0,-5.941680908E0,-2.156311035E0
3.020233154E0,1.095053101E1,-6.287643433E0,-1.415313721E0
3.022735596E0,1.113009644E1,-7.084915161E0,-8.993530273E-1
3.025268555E0,1.116960144E1,-7.344680786E0,-3.702392578E-1
3.027801514E0,1.085714722E1,-7.318344116E0,-1.320190430E-1
3.030334473E0,1.024423218E1,-7.278854370E0,-2.170104980E-1
3.032867432E0,1.120550537E1,-7.535034180E0,2.869720459E-1
3.035400391E0,1.258935547E1,-7.675094604E0,1.045928955E0
3.037902832E0,1.277250671E1,-7.424896240E0,1.492446899E0
3.040435791E0,1.266955566E1,-7.098083496E0,1.722290039E0
3.042968750E0,1.284674072E1,-6.729385376E0,2.010787964E0
3.045501709E0,1.285151672E1,-6.438476562E0,2.275360107E0
3.048034668E0,1.210453796E1,-6.359466553E0,2.500411987E0
3.050567627E0,1.150837708E1,-6.572555542E0,2.884674072E0
3.053070068E0,1.189743042E1,-7.094497681E0,3.339584351E0
3.055603027E0,1.262767029E1,-7.451232910E0,3.746597290E0
3.058135986E0,1.294369507E1,-7.618820190E0,4.091354370E0
3.060668945E0,1.176574707E1,-7.787612915E0,4.124877930E0
3.063201904E0,1.111932373E1,-8.034210205E0,4.488800049E0
3.065734863E0,1.060336304E1,-7.992324829E0,4.856307983E0
3.068267822E0,8.788558960E0,-7.774444580E0,5.172332764E0
3.070770264E0,8.163681030E0,-7.749313354E0,5.588928223E0
3.073303223E0,9.589416504E0,-7.794799805E0,6.045028687E0
3.075836182E0,1.114205933E1,-7.883377075E0,6.411331177E0
3.078369141E0,1.127015686E1,-7.714584351E0,6.607666016E0
3.080902100E0,1.104988098E1,-7.394958496E0,6.479568481E0
3.083435059E0,1.141619873E1,-7.380599976E0,6.363449097E0
3.085937500E0,1.112290955E1,-7.252517700E0,6.177902222E0
3.088470459E0,1.057583618E1,-7.013092041E0,6.090515137E0
3.091003418E0,1.018199158E1,-6.734161377E0,5.961227417E0
3.093536377E0,9.672027588E0,-6.377426147E0,5.570968628E0
3.096069336E0,9.160858154E0,-5.962036133E0,5.204666138E0
3.098602295E0,8.710754395E0,-5.594528198E0,5.044250488E0
3.101104736E0,8.195999146E0,-5.212646484E0,4.706665039E0
3.103637695E0,7.821304321E0,-4.960067749E0,4.467239380E0
3.106170654E0,7.466964722E0,-4.761337280E0,4.299652100E0
3.108703613E0,6.994110107E0,-4.628463745E0,3.936935425E0
3.111236572E0,6.640960693E0,-4.541076660E0,3.747787476E0
3.113769531E0,6.421890259E0,-4.532699585E0,3.499984741E0
3.116271973E0,6.330917358E0,-4.617691040E0,3.456893921E0
3.118804932E0,6.224365234E0,-4.731414795E0,3.256973267E0
3.121337891E0,6.578720093E0,-4.551849365E0,3.306060791E0
3.123870850E0,6.802566528E0,-4.125686646E0,3.261764526E0
3.126403809E0,6.929458618E0,-3.938934326E0,3.119308472E0
3.128936767E0,7.142547607E0,-3.831192017E0,3.212692261E0
3.131469726E0,7.635757446E0,-3.636062622E0,3.324020386E0
3.133972168E0,7.638153076E0,-3.315246582E0,3.352752686E0
3.136505127E0,7.584274292E0,-3.272155762E0,3.194732666E0
3.139038086E0,7.854827881E0,-3.420593262E0,3.357528687E0
3.141571045E0,7.948196411E0,-3.469665527E0,3.496398926E0
3.144104004E0,7.962554932E0,-3.527130127E0,3.409011841E0
3.146636963E0,8.115783691E0,-3.741409302E0,3.403030396E0
3.149139404E0,8.100234985E0,-3.820419312E0,3.325210571E0
3.151672363E0,8.231903076E0,-3.666000366E0,3.166000366E0
3.154205322E0,8.036788940E0,-3.548675537E0,2.999603271E0
3.156738281E0,8.259445190E0,-3.487625122E0,2.849960327E0
3.159271240E0,8.520416260E0,-3.263763428E0,2.743423462E0
3.161804199E0,8.622161865E0,-2.845977783E0,2.304092407E0
3.164306641E0,8.486892700E0,-2.379119873E0,1.944961548E0
3.166839600E0,7.912277222E0,-2.008010864E0,1.589416504E0
3.169372559E0,7.329299927E0,-1.675216675E0,1.285354614E0
3.171905517E0,6.769058228E0,-1.306518555E0,9.142456055E-1
3.174438476E0,6.810943604E0,-9.461822510E-1,8.448181152E-1
3.176971435E0,6.136978149E0,-8.480224609E-1,4.150543213E-1
3.179473877E0,5.914321899E0,-1.049133301E0,6.305389404E-1
3.182006836E0,5.905944824E0,-1.178421021E0,8.400268555E-1
3.184539795E0,5.568359375E0,-1.357986450E0,1.146484375E0
3.187072754E0,5.331329346E0,-1.665634155E0,1.864746094E0
3.189605713E0,5.320556641E0,-1.829650879E0,2.539916992E0
3.192138672E0,5.060791016E0,-1.866760254E0,3.333587646E0
3.194641113E0,4.487380981E0,-1.714721680E0,3.915390015E0
3.197174072E0,3.733200073E0,-1.373550415E0,4.583358765E0
3.199707031E0,3.228027344E0,-1.165252686E0,4.965240479E0
3.202239990E0,2.780319214E0,-1.190399170E0,5.125656128E0
3.204772949E0,2.370910645E0,-9.617462158E-1,5.264511108E0
3.207305908E0,1.931564331E0,-9.270324707E-1,5.274093628E0
3.209838867E0,9.966278076E-1,-7.738037109E-1,5.356689453E0
3.212341309E0,5.810546875E-2,-5.283966064E-1,5.411758423E0
3.214874267E0,-2.926483154E-1,-4.458007812E-1,5.488372803E0
3.217407226E0,-4.877777100E-1,-4.996643066E-1,5.508728027E0
3.219940185E0,-6.086730957E-1,-4.469909668E-1,5.739761353E0
3.222473144E0,-2.028656006E-1,-6.696472168E-1,5.918136597E0
3.225006103E0,5.929565430E-2,-8.935089111E-1,6.266494751E0
3.227508545E0,1.141357422E-2,-1.063507080E0,6.392181396E0
3.230041504E0,-2.950439453E-1,-1.574661255E0,7.420501709E0
3.232574463E0,2.819671631E-1,-2.351577759E0,7.905319214E0
3.235107422E0,7.967224121E-1,-2.507202148E0,7.974746704E0
3.237640381E0,1.698135376E0,-3.182373047E0,8.821105957E0
3.240173340E0,2.866500854E0,-4.350738525E0,9.332260132E0
3.242675781E0,3.739196777E0,-5.187515259E0,9.819488525E0
3.245208740E0,4.535263062E0,-5.701065063E0,1.055210876E1
3.247741699E0,5.949035645E0,-6.346298218E0,1.110397339E1
3.250274658E0,7.347259521E0,-7.526641846E0,1.112551880E1
3.252807617E0,8.441406250E0,-8.542984009E0,1.067900085E1
3.255340576E0,8.407882690E0,-8.941619873E0,9.863769531E0
3.257873535E0,8.570693970E0,-9.074493408E0,9.490280151E0
3.260375976E0,9.050720215E0,-9.262435913E0,8.349441528E0
3.262908935E0,9.795318604E0,-9.504257202E0,7.612030029E0
3.265441894E0,1.034478760E1,-9.486297607E0,6.947631836E0
3.267974853E0,1.041781616E1,-9.015838623E0,6.088119507E0
3.270507812E0,1.009938049E1,-8.079711914E0,5.837921143E0
3.273040771E0,9.662445068E0,-7.053787231E0,6.317962646E0
3.275543213E0,1.005749512E1,-6.694656372E0,5.330352783E0
3.278076172E0,1.025381470E1,-6.479187012E0,3.915390015E0
3.280609131E0,9.693572998E0,-6.061401367E0,2.420196533E0
3.283142090E0,8.948974609E0,-5.514328003E0,1.637298584E0
3.285675049E0,8.327682495E0,-4.993576050E0,1.023193359E0
3.288208008E0,7.873977661E0,-4.713455200E0,-1.344146729E-1
3.290710449E0,7.720748901E0,-5.112091064E0,-8.466796875E-1
3.293243408E0,7.912277222E0,-5.217437744E0,-1.440444946E0
3.295776367E0,7.578292847E0,-5.515518188E0,-1.681060791E0
3.298309326E0,6.931854248E0,-5.466430664E0,-1.047790527E0
3.300842285E0,6.129806519E0,-4.948089600E0,-2.684783936E-1
3.303375244E0,5.401962280E0,-4.852325439E0,-3.863525391E-2
3.305908203E0,5.174514771E0,-5.143218994E0,4.198455811E-1
3.308441162E0,5.658142090E0,-6.354690552E0,7.382812500E-1
3.310974121E0,6.382385254E0,-7.749313354E0,1.421203613E-1
3.313476562E0,6.468582153E0,-8.850646973E0,-7.736663818E-1
3.316009521E0,6.144165039E0,-8.619598389E0,-4.492492676E-1
3.318542480E0,6.445831299E0,-8.865005493E0,3.779449463E-1
3.321075439E0,6.566741943E0,-9.391723633E0,1.815673828E0
3.323608398E0,6.389572144E0,-9.167877197E0,3.447311401E0
3.326141357E0,6.157333374E0,-8.814727783E0,4.627655029E0
3.328643799E0,5.971786499E0,-9.510238647E0,4.458862305E0
3.331176758E0,6.000518799E0,-9.963943481E0,5.610473633E0
3.333709717E0,5.891571045E0,-1.004176331E1,6.807571411E0
3.336242676E0,5.962203979E0,-1.034582520E1,7.766448975E0
3.338775635E0,6.299789429E0,-1.043800354E1,8.071716309E0
3.341308594E0,6.427871704E0,-9.778396606E0,7.149948120E0
3.343841553E0,6.311752319E0,-8.820709229E0,5.960037231E0
3.346374512E0,6.700820923E0,-8.426864624E0,4.849121094E0
3.348907471E0,7.161697388E0,-7.913314819E0,4.530685425E0
3.351440430E0,7.383163452E0,-7.760086060E0,4.252960205E0
3.353942871E0,8.020019531E0,-7.961196899E0,4.458862305E0
3.356445312E0,8.003265381E0,-7.671493530E0,5.014328003E0
3.358978271E0,8.591033936E0,-7.119628906E0,5.222610474E0
3.361511230E0,9.214736938E0,-6.657546997E0,3.505981445E0
3.364044189E0,1.006227112E1,-6.816772461E0,-4.049530029E-1
3.366577148E0,1.046569824E1,-6.785644531E0,8.825683594E-2
3.369110107E0,1.054589844E1,-6.942459106E0,-1.033432007E0
3.371643066E0,1.092658997E1,-6.765289307E0,-2.797958374E0
3.374176025E0,1.096009827E1,-5.952453613E0,-3.643112183E0
3.376708984E0,1.079490662E1,-5.776489258E0,-5.268768311E0
3.379241943E0,1.079251099E1,-6.316375732E0,-5.510589600E0
3.381744385E0,1.105946350E1,-5.514328003E0,-4.610366821E0
3.384277344E0,1.147485352E1,-4.683532715E0,-3.534179688E0
3.386810303E0,1.174540710E1,-3.979644775E0,-2.655502319E0
3.389343262E0,1.173103333E1,-3.601348877E0,-3.791549683E0
3.391876221E0,1.254386902E1,-3.281723022E0,-1.854644775E0
3.394409180E0,1.280484009E1,-3.364334106E0,-1.714584351E0
3.396942139E0,1.203749084E1,-3.207504272E0,-2.499877930E0
3.399475098E0,1.145449829E1,-3.798873901E0,-1.719375610E0
3.401977539E0,1.083560181E1,-4.903793335E0,-2.012664795E0
3.404479980E0,9.892288208E0,-5.395812988E0,-2.566925049E0
3.407012939E0,8.156494141E0,-5.377853394E0,-2.481918335E0
3.409545898E0,6.971359253E0,-5.250961304E0,-2.169479370E0
3.412078857E0,7.810531616E0,-4.988800049E0,-1.886962891E0
3.414611816E0,8.567092896E0,-4.772125244E0,-1.339889526E0
3.417144775E0,8.975311279E0,-4.690719604E0,-8.406982422E-1
3.419677734E0,9.285354614E0,-4.737396240E0,-3.223571777E-1
3.422210693E0,8.861587524E0,-4.822402954E0,7.627868652E-2
3.424743652E0,7.981719971E0,-4.960067749E0,9.782409668E-2
3.427271259E0,7.050369263E0,-4.806838989E0,-1.200408936E-1
3.429804218E0,6.358444214E0,-4.596145630E0,1.881408691E-2
3.432306660E0,5.631805420E0,-4.499176025E0,-3.247528076E-1
3.434839619E0,5.666519165E0,-4.316024780E0,-4.612121582E-1
3.437372578E0,6.352462769E0,-4.369888306E0,-1.451873779E-1
3.439867246E0,6.658920288E0,-4.466857910E0,2.857666016E-1
3.442430723E0,6.775039673E0,-4.365097046E0,6.748352051E-1
3.444963682E0,6.632583618E0,-4.430938721E0,1.016006470E0
3.447466123E0,6.479354858E0,-4.588958740E0,8.699645996E-1
3.449999082E0,6.515274048E0,-4.527908325E0,4.964599609E-1
3.452532041E0,6.915100098E0,-4.011962891E0,1.600799561E-1
3.455065000E0,7.329299927E0,-3.564239502E0,-3.151702881E-1
3.457567441E0,7.828491211E0,-3.278137207E0,-7.449340820E-1
3.460100400E0,7.415481567E0,-2.619735718E0,-1.022659302E0
3.462633359E0,6.631393433E0,-1.551910400E0,-1.416503906E0
3.465166318E0,7.821304321E0,-1.776977539E0,-1.386581421E0
3.467699277E0,9.748641968E0,-2.782531738E0,-1.022659302E0
3.470201719E0,1.077574158E1,-2.893859863E0,-9.268951416E-1
3.472734678E0,1.111572266E1,-3.104553223E0,-9.891357422E-1
3.475267637E0,1.155027771E1,-3.450515747E0,-1.414108276E0
3.477800596E0,1.182321167E1,-3.576217651E0,-2.193420410E0
3.480333555E0,1.219551086E1,-3.559448242E0,-2.574096680E0
3.482866514E0,1.199679565E1,-3.411010742E0,-3.052947998E0
3.485399473E0,1.197883606E1,-3.116531372E0,-3.450378418E0
3.487932432E0,1.225057983E1,-3.067443848E0,-3.566497803E0
3.490434873E0,1.295686340E1,-3.279327393E0,-3.571289062E0
3.492967832E0,1.251513672E1,-2.916610718E0,-4.107589722E0
3.495500791E0,1.259893799E1,-2.595794678E0,-4.132720947E0
3.498033750E0,1.258576965E1,-2.462905884E0,-3.837036133E0
3.500566709E0,1.169392395E1,-2.199554443E0,-3.380950928E0
3.503099668E0,1.073504639E1,-2.144485474E0,-3.487487793E0
3.505632627E0,9.865951538E0,-2.206726074E0,-3.591629028E0
3.508165586E0,9.470901489E0,-2.198348999E0,-3.279190063E0
3.510668027E0,9.432601929E0,-2.089416504E0,-3.323486328E0
3.513200986E0,9.411056519E0,-1.920623779E0,-3.500656128E0
3.515733945E0,9.037551880E0,-2.075042725E0,-3.410873413E0
3.518266904E0,8.686813354E0,-2.118148804E0,-3.288772583E0
3.520799863E0,8.053543091E0,-2.162445068E0,-2.598037720E0
3.523332822E0,8.133743286E0,-2.260604858E0,-3.085266113E0
3.525835264E0,8.099029541E0,-2.415023804E0,-3.023010254E0
3.528368223E0,7.561538696E0,-2.443756104E0,-2.049774170E0
3.530901182E0,6.837280273E0,-2.517974854E0,-1.347076416E0
3.533434141E0,6.219589233E0,-2.921401978E0,-8.311157227E-1
3.535967100E0,5.191268921E0,-2.733459473E0,-1.450027466E0
3.538500059E0,4.772293091E0,-2.557479858E0,-1.789993286E0
3.541033017E0,4.490966797E0,-2.476074219E0,-9.376678467E-1
3.543535459E0,4.105499268E0,-2.361160278E0,-9.795684814E-1
3.546068418E0,4.398788452E0,-2.112167358E0,-8.718261719E-1
3.548601377E0,4.635818481E0,-1.731475830E0,-9.783630371E-1
3.551134336E0,4.747146606E0,-1.603393555E0,-1.053787231E0
3.553667295E0,5.234375000E0,-1.575851440E0,-1.454818726E0
3.556200254E0,5.515686035E0,-1.396286011E0,-1.655929565E0
3.558702695E0,5.115859985E0,-8.576049805E-1,-1.695434570E0
3.561235654E0,4.409561157E0,-4.356384277E-2,-2.265243530E0
3.563768613E0,4.439498901E0,3.754119873E-1,-2.070114136E0
3.566301572E0,4.765106201E0,6.926422119E-1,-2.560928345E0
3.568834531E0,5.497726440E0,5.298461914E-1,-2.875762939E0
3.571367490E0,6.075927734E0,4.532318115E-1,-2.836273193E0
3.573869932E0,6.390762329E0,3.897857666E-1,-2.890136719E0
3.576402891E0,6.633773804E0,1.060638428E-1,-2.782394409E0
3.578935850E0,7.322113037E0,-4.062957764E-1,-2.249679565E0
3.581468809E0,7.524429321E0,-4.841003418E-1,-2.821899414E0
3.584001767E0,7.475341797E0,-2.111663818E-1,-2.782394409E0
3.586534726E0,8.326477051E0,-7.654266357E-1,-1.829498291E0
3.589067685E0,8.010452271E0,-1.082656860E0,-2.695007324E0
3.591600644E0,7.601043701E0,-1.198776245E0,-2.837463379E0
3.594133603E0,7.243103027E0,-8.839416504E-1,-2.857818604E0
3.596666562E0,7.974533081E0,-9.653320312E-1,-3.190612793E0
3.599199521E0,8.280990601E0,-9.629364014E-1,-4.320663452E0
3.601732480E0,9.575057983E0,-1.632125854E0,-4.744445801E0
3.604234922E0,1.066680908E1,-2.593399048E0,-4.896469116E0
3.606767881E0,1.100798035E1,-3.017166138E0,-4.214126587E0
3.609300840E0,8.666458130E0,-2.132507324E0,-4.770782471E0
3.611833799E0,6.132202148E0,-9.744262695E-2,-4.596008301E0
3.614366758E0,6.731948853E0,-1.010284424E-1,-3.501861572E0
3.616899717E0,7.247894287E0,-9.856872559E-1,-2.493896484E0
3.619432676E0,6.512878418E0,-1.337631226E0,-1.284820557E0
3.621935117E0,6.224365234E0,-2.248626709E0,5.994110107E-1
3.624468076E0,6.199234009E0,-5.507141113E0,-7.736663818E-1
3.627001035E0,6.280639648E0,-6.312789917E0,8.412322998E-1
3.629533994E0,6.154937744E0,-7.690643311E0,-1.059768677E0
3.632066953E0,5.494140625E0,-8.024642944E0,-2.431640625E0
3.634599912E0,5.275070190E0,-6.922103882E0,9.130554199E-1
3.637102353E0,5.843688965E0,-8.757263184E0,-3.941802979E-1
3.639635312E0,5.441467285E0,-1.041644287E1,-3.592834473E0
3.642168271E0,5.434280396E0,-1.037574768E1,-3.005050659E0
3.644701230E0,6.996505737E0,-1.237130737E1,-2.639938354E0
3.647234189E0,7.271835327E0,-1.220611572E1,-3.673034668E0
3.649767148E0,6.864822388E0,-1.115147400E1,-3.328277588E0
3.652269590E0,4.500549316E0,-9.266036987E0,-3.134338379E0
3.654802549E0,3.356124878E0,-6.856277466E0,-3.237289429E0
3.657335508E0,2.235626221E0,-4.780502319E0,-2.545364380E0
3.659868467E0,7.440490723E-1,2.592926025E-1,-1.817535400E0
3.662401426E0,6.255340576E-1,1.020660400E0,-5.363342285E0
3.664934385E0,-6.280517578E-2,-1.621353149E0,-1.571826172E1
3.667436826E0,-2.352859497E0,-6.212234497E0,-7.536087036E0
3.669969785E0,3.190765381E-1,-1.068101501E1,-4.394897461E0
3.672502744E0,8.392318726E0,-1.382339478E1,-2.955978394E0
3.675035703E0,1.299636841E1,-1.493789673E1,-7.964019775E-1
3.677568662E0,1.166160583E1,-1.406640625E1,2.839660645E-2
3.680101621E0,9.269790649E0,-1.257243347E1,-4.612121582E-1
3.682604062E0,9.267395020E0,-1.204570007E1,-1.156738281E0
3.685137021E0,1.039746094E1,-1.053376770E1,-3.718536377E0
3.687669980E0,1.008621216E1,-9.664672852E0,-1.772048950E0
3.690202939E0,8.789764404E0,-1.121252441E1,-3.516220093E0
3.692735898E0,8.064315796E0,-1.024765015E1,-3.176239014E0
3.695268857E0,7.931442261E0,-9.267227173E0,-3.345031738E0
3.697801816E0,7.796157837E0,-8.635162354E0,-4.222503662E0
3.700304258E0,7.121002197E0,-7.222579956E0,-4.125549316E0
3.702837217E0,6.953399658E0,-6.618041992E0,-4.370956421E0
3.705370176E0,6.371612549E0,-5.825561523E0,-4.259613037E0
3.707903135E0,5.898757935E0,-5.472427368E0,-4.154281616E0
3.710436094E0,5.239151001E0,-5.104919434E0,-4.042938232E0
3.712969053E0,5.175704956E0,-5.413757324E0,-3.805923462E0
3.715471494E0,5.379211426E0,-5.173141479E0,-3.935211182E0
3.718004453E0,4.753128052E0,-4.814010620E0,-3.572479248E0
3.720537412E0,4.293441772E0,-5.162368774E0,-3.014633179E0
3.723070371E0,4.301834106E0,-5.994354248E0,-2.150329590E0
3.725603330E0,4.292251587E0,-6.883804321E0,-2.474746704E0
3.728136289E0,3.842147827E0,-7.696640015E0,-1.234542847E0
3.730638730E0,3.991775513E0,-8.641143799E0,-1.007095337E0
3.733171689E0,3.133453369E0,-8.918869019E0,-1.270462036E0
3.735704648E0,2.594757080E0,-9.329483032E0,-9.376678467E-1
3.738237607E0,2.753982544E0,-9.631149292E0,-9.256896973E-1
3.740770566E0,2.914382935E0,-9.524612427E0,-7.281646729E-1
3.743303525E0,2.958679199E0,-9.956756592E0,-8.730163574E-1
3.745805967E0,3.251968384E0,-1.073966980E1,-7.808380127E-1
3.748338926E0,3.697296143E0,-1.118258667E1,-1.092086792E0
3.750871885E0,4.130645752E0,-1.098866272E1,-1.445236206E0
3.753404844E0,4.413162231E0,-1.075523376E1,-1.345870972E0
3.755937803E0,4.926712036E0,-1.060798645E1,-1.671493530E0
3.758470762E0,6.293807983E0,-1.020935059E1,-1.806762695E0
3.760973203E0,6.504486084E0,-1.018301392E1,-2.277221680E0
3.763506162E0,6.903121948E0,-9.974716187E0,-3.222930908E0
3.766039121E0,7.232330322E0,-9.758041382E0,-3.509033203E0
3.768572080E0,7.220352173E0,-9.874160767E0,-3.633529663E0
3.771105039E0,7.639343262E0,-1.027160645E1,-3.859786987E0
3.773637998E0,7.888336182E0,-1.068339539E1,-4.165054321E0
3.776170957E0,8.084671021E0,-1.085818481E1,-4.352996826E0
3.778673398E0,8.585052490E0,-1.083543396E1,-4.347000122E0
3.781206357E0,9.207550049E0,-1.101499939E1,-4.247650146E0
3.783739316E0,9.833633423E0,-1.104492188E1,-4.433197021E0
3.786272275E0,1.078890991E1,-1.130589294E1,-4.615158081E0
3.788805234E0,1.125459290E1,-1.144236755E1,-4.478683472E0
3.791338193E0,1.116720581E1,-1.139088440E1,-4.392501831E0
3.793840635E0,1.099243164E1,-1.143637085E1,-4.503829956E0
3.796373594E0,1.083441162E1,-1.167460632E1,-4.301513672E0
3.798906553E0,1.104389954E1,-1.190205383E1,-4.453552246E0
3.801439512E0,1.194291687E1,-1.195591736E1,-4.856979370E0
3.803972471E0,1.311009216E1,-1.191761780E1,-5.439956665E0
3.806505430E0,1.424374390E1,-1.230786133E1,-6.248001099E0
3.809007871E0,1.522895813E1,-1.246229553E1,-6.392852783E0
3.811540830E0,1.524452209E1,-1.237609863E1,-5.761978149E0
3.814073789E0,1.383433533E1,-1.205288696E1,-5.184982300E0
3.816606748E0,1.306460571E1,-1.167579651E1,-5.263992310E0
3.819139707E0,1.177412415E1,-1.030871582E1,-4.519393921E0
3.821672666E0,7.725540161E0,-6.187088013E0,-4.576263428E-1
3.824205625E0,3.636245728E0,-2.334823608E0,1.309295654E0
3.826708066E0,1.851364136E0,2.006378174E-1,1.130920410E0
3.829241025E0,1.869323730E0,1.655120850E0,7.873535156E-1
3.831773984E0,3.135848999E0,3.138320923E0,5.144195557E-1
3.834306943E0,4.427520752E0,4.020584106E0,-4.983215332E-1
3.836809385E0,4.215637207E0,4.152267456E0,-1.511688232E-1
3.839342344E0,3.098739624E0,2.687011719E0,2.747009277E0
3.841875303E0,5.245147705E0,-4.621276855E0,8.029815674E0
3.844408262E0,6.182479858E0,-1.028117371E1,9.323883057E0
3.846941221E0,4.425125122E0,-1.368693542E1,5.497955322E0
3.849474180E0,3.541671753E0,-1.626667786E1,2.855941772E0
3.852007139E0,3.753555298E0,-1.817845154E1,1.804901123E0
3.854540098E0,3.642227173E0,-1.893142700E1,8.388366699E-1
3.857042539E0,2.671371460E0,-1.852799988E1,-1.021453857E0
3.859575498E0,1.793899536E0,-1.765411377E1,-2.906890869E0
3.862108457E0,2.133880615E0,-1.664974976E1,-3.043365479E0
3.864641416E0,2.560043335E0,-1.490199280E1,-3.453964233E0
3.867174375E0,3.293869019E0,-1.336491394E1,-3.712539673E0
3.869707334E0,4.322174072E0,-1.230906677E1,-3.191802979E0
3.872240293E0,4.917144775E0,-1.154292297E1,-2.371795654E0
3.874773252E0,5.246337891E0,-1.099584961E1,-2.247299194E0
3.877306211E0,5.618637085E0,-1.067622375E1,-1.748107910E0
3.879839170E0,5.448654175E0,-1.032426453E1,-2.643539429E0
3.882372129E0,5.267883301E0,-1.022251892E1,-3.100830078E0
3.884905088E0,5.437881470E0,-1.059721375E1,-3.149902344E0
3.887407529E0,5.575546265E0,-1.120773315E1,-3.674240112E0
3.889940488E0,5.751510620E0,-1.184577942E1,-3.726913452E0
3.892473447E0,6.484146118E0,-1.237730408E1,-2.911682129E0
3.895006406E0,6.772644043E0,-1.249461365E1,-2.462768555E0
3.897539365E0,6.559555054E0,-1.241560364E1,-2.401718140E0
3.900072324E0,6.685256958E0,-1.238209534E1,-1.675079346E0
3.902605283E0,6.984527588E0,-1.192478943E1,-9.999084473E-1
3.905107725E0,6.949813843E0,-1.150700378E1,-1.167510986E0
3.907640684E0,7.281417847E0,-1.107844543E1,-7.557067871E-1
3.910173642E0,7.754272461E0,-1.065705872E1,1.708526611E-1
3.912706601E0,7.562728882E0,-9.956756592E0,2.606353760E-1
3.915239560E0,6.737930298E0,-9.522216797E0,-7.928161621E-1
3.917772519E0,6.575119019E0,-9.724517822E0,-6.336059570E-1
3.920274961E0,6.403930664E0,-1.002859497E1,-2.696838379E-1
3.922807920E0,6.235137939E0,-1.034342957E1,-1.966552734E-1
3.925340879E0,6.181274414E0,-1.058644104E1,-1.260223389E-1
3.927843320E0,5.922698975E0,-1.069178772E1,1.792297363E-1
3.930376279E0,5.811370850E0,-1.070016479E1,4.186553955E-1
3.932909238E0,5.680892944E0,-1.063192749E1,6.987762451E-1
3.935442197E0,5.316970825E0,-1.038172913E1,1.199157715E0
3.937975156E0,5.378021240E0,-1.011598206E1,1.136917114E0
3.940508115E0,5.112258911E0,-9.270828247E0,1.267395020E0
3.943041074E0,4.221618652E0,-8.501083374E0,-3.356933594E-4
3.945574033E0,3.761932373E0,-8.394546509E0,-9.735717773E-1
3.948076475E0,3.657791138E0,-8.265258789E0,-1.123214722E0
3.950609434E0,3.819396973E0,-8.477142334E0,-1.438049316E0
3.953142392E0,4.082763672E0,-9.292373657E0,-1.683456421E0
3.955675351E0,3.773910522E0,-8.772827148E0,-1.438049316E0
3.958208310E0,3.350128174E0,-8.769241333E0,-1.624801636E0
3.960741269E0,4.149795532E0,-1.000344849E1,-1.173492432E0
3.963274228E0,4.098327637E0,-1.119097900E1,-1.277633667E0
3.965807187E0,3.500961304E0,-1.152735901E1,-1.870208740E0
3.968309629E0,3.035293579E0,-1.171051025E1,-2.382568359E0
3.970842588E0,2.938323975E0,-1.202056885E1,-2.776412964E0
3.973375547E0,2.915588379E0,-1.200140381E1,-2.946395874E0
3.975908506E0,2.662994385E0,-1.159799194E1,-3.406082153E0
3.978441465E0,2.149444580E0,-1.133222961E1,-3.975906372E0
3.980974424E0,2.053665161E0,-1.090725708E1,-4.001037598E0
3.983476865E0,1.991424561E0,-1.055889893E1,-4.062103271E0
3.986009824E0,2.197326660E0,-9.923248291E0,-3.793945312E0
3.988542783E0,2.329010010E0,-9.371383667E0,-4.115966797E0
3.991045225E0,2.163803101E0,-8.955978394E0,-4.461929321E0
3.993578184E0,2.186553955E0,-8.674667358E0,-4.418838501E0
3.996111142E0,2.351745605E0,-8.437637329E0,-4.306304932E0
3.998644101E0,2.406814575E0,-8.164703369E0,-4.579238892E0
4.001177060E0,2.342178345E0,-7.852264404E0,-4.762405396E0
4.003710019E0,2.436737061E0,-7.760086060E0,-4.363769531E0
4.006242978E0,2.542083740E0,-7.672698975E0,-4.356582642E0
4.008775937E0,2.955093384E0,-7.831909180E0,-4.234481812E0
4.011308896E0,3.184936523E0,-7.919296265E0,-4.572067261E0
4.013811338E0,3.351333618E0,-8.036605835E0,-4.756408691E0
4.016344297E0,3.724822998E0,-8.191040039E0,-4.900070190E0
4.018877256E0,3.973815918E0,-8.533401489E0,-5.105972290E0
4.021410215E0,3.977416992E0,-8.631576538E0,-5.496231079E0
4.023943174E0,4.154586792E0,-8.521438599E0,-5.398056030E0
4.026476133E0,4.298233032E0,-8.657913208E0,-4.809082031E0
4.028978574E0,3.711654663E0,-8.247299194E0,-4.339828491E0
4.031511533E0,3.401611328E0,-7.294403076E0,-4.232086182E0
4.034044492E0,3.219650269E0,-7.282440186E0,-4.922805786E0
4.036577451E0,3.450683594E0,-7.907318115E0,-5.687759399E0
4.039110410E0,3.633850098E0,-8.319122314E0,-6.012176514E0
4.041643369E0,3.609909058E0,-8.473556519E0,-6.145050049E0
4.044176328E0,3.518920898E0,-8.102447510E0,-6.315048218E0
4.046678769E0,3.487792969E0,-7.933654785E0,-5.696136475E0
4.049211728E0,3.649414062E0,-7.985137939E0,-5.043716431E0
4.051744687E0,3.611099243E0,-7.888168335E0,-4.396087646E0
4.054277646E0,3.392028809E0,-7.749313354E0,-3.924423218E0
4.056810605E0,3.120285034E0,-7.420104980E0,-3.796340942E0
4.059343564E0,3.077194214E0,-7.180679321E0,-3.803527832E0
4.061846006E0,3.017333984E0,-7.300399780E0,-3.795150757E0
4.064378965E0,3.333374023E0,-7.302795410E0,-3.273208618E0
4.066911924E0,2.921569824E0,-6.931686401E0,-3.734085083E0
4.069444883E0,2.988601685E0,-6.767684937E0,-3.443191528E0
4.071977842E0,3.431533813E0,-6.488754272E0,-2.868591309E0
4.074510801E0,3.686523438E0,-6.075759888E0,-2.498687744E0
4.077013242E0,4.232391357E0,-5.975204468E0,-1.961181641E0
4.079546201E0,4.563995361E0,-5.857894897E0,-1.734939575E0
4.082079160E0,5.004531860E0,-5.799224854E0,-1.545791626E0
4.084612119E0,5.409149170E0,-5.806411743E0,-1.368621826E0
4.087145078E0,5.552795410E0,-5.619659424E0,-1.829498291E0
4.089647519E0,5.709625244E0,-5.486785889E0,-1.598464966E0
4.092180478E0,5.531250000E0,-5.297637939E0,-1.964782715E0
4.094713437E0,5.376831055E0,-4.963653564E0,-1.910903931E0
4.097246396E0,5.061981201E0,-4.814010620E0,-1.977951050E0
4.099779355E0,4.954254150E0,-4.906188965E0,-2.501083374E0
4.102312314E0,5.283447266E0,-4.921752930E0,-2.630371094E0
4.104814756E0,5.379211426E0,-4.678741455E0,-2.611206055E0
4.107347715E0,5.446258545E0,-4.477630615E0,-2.709365845E0
4.109880674E0,5.384002686E0,-4.263351440E0,-3.118774414E0
4.112413633E0,5.124237061E0,-4.146026611E0,-3.613189697E0
4.114946592E0,4.835739136E0,-4.051467896E0,-3.980697632E0
4.117479551E0,4.902770996E0,-4.038299561E0,-4.080047607E0
4.120012510E0,5.378021240E0,-3.843170166E0,-4.250045776E0
4.122545469E0,5.934677124E0,-3.683959961E0,-4.501434326E0
4.125047910E0,6.588287354E0,-3.644454956E0,-4.698959351E0
4.127580869E0,7.074310303E0,-3.715072632E0,-4.811477661E0
4.130113828E0,7.247894287E0,-3.845565796E0,-4.853378296E0
4.132646787E0,7.068328857E0,-3.971252441E0,-4.898864746E0
4.135179746E0,6.834899902E0,-4.119705200E0,-4.703750610E0
4.137712705E0,6.425491333E0,-4.044281006E0,-4.488265991E0
4.140215146E0,5.994522095E0,-3.905410767E0,-4.252441406E0
4.142748105E0,5.811370850E0,-3.584594727E0,-4.136322021E0
4.145281064E0,5.616241455E0,-3.191940308E0,-4.165054321E0
4.147814023E0,5.598281860E0,-2.751419067E0,-4.184204102E0
4.150346982E0,5.472595215E0,-2.477279663E0,-4.040542603E0
4.152879941E0,5.097900391E0,-2.412628174E0,-3.999847412E0
4.155412900E0,4.579559326E0,-2.449737549E0,-3.930419922E0
4.157945859E0,4.140213013E0,-2.237854004E0,-3.847808838E0
4.160478818E0,3.663772583E0,-2.057098389E0,-3.793945312E0
4.163011777E0,3.293869019E0,-1.725494385E0,-3.671844482E0
4.165544736E0,2.900024414E0,-1.483688354E0,-3.667053223E0
4.168077695E0,2.581588745E0,-1.304122925E0,-3.659866333E0
4.170610654E0,1.962692261E0,-1.257431030E0,-3.585647583E0
4.173113096E0,1.593978882E0,-1.186798096E0,-3.542556763E0
4.175646055E0,2.136276245E0,-1.040756226E0,-3.616775513E0
4.178179014E0,1.817840576E0,-1.193984985E0,-3.412078857E0
4.180711973E0,1.485046387E0,-1.306518555E0,-2.869781494E0
4.183244932E0,3.103530884E0,-9.006958008E-1,-2.256866455E0
4.185777891E0,2.542083740E0,-2.087707520E-1,-1.995895386E0
4.188280332E0,7.667846680E-1,-9.030914307E-1,-2.443618774E0
4.190813291E0,1.195358276E0,-8.803405762E-1,-2.545364380E0
4.193346250E0,1.676589966E0,2.705383301E-2,-2.610015869E0
4.195879209E0,1.157043457E0,1.946563721E-1,-2.017456055E0
4.198412168E0,4.710998535E-1,-2.255249023E-1,-1.901336670E0
4.200945127E0,1.620483398E-2,-5.774841309E-1,-2.398132324E0
4.203447568E0,-5.763549805E-1,-9.174499512E-1,-2.985900879E0
4.205980527E0,-8.840179443E-1,-1.530364990E0,-3.487487793E0
4.208513486E0,-7.571258545E-1,-2.558685303E0,-3.602416992E0
4.211046445E0,6.529235840E-2,-2.624511719E0,-3.040969849E0
4.213579404E0,-7.716369629E-2,-1.805694580E0,-2.970336914E0
4.216112363E0,-1.741333008E-1,-6.169738770E-1,-2.650711060E0
4.218614805E0,-4.375000000E-1,-2.051849365E-1,-3.093643188E0
4.221147764E0,-1.185684204E0,-1.556701660E0,-4.288345337E0
4.223680723E0,-1.425109863E0,-3.979644775E0,-4.783950806E0
4.226213682E0,-9.666137695E-1,-5.152801514E0,-4.115966797E0
4.228746641E0,-5.165100098E-1,-4.651214600E0,-3.673034668E0
4.231279600E0,-5.823364258E-1,-4.612899780E0,-4.542129517E0
4.233782041E0,-1.850891113E-2,-5.152801514E0,-4.324264526E0
4.236315000E0,5.692596436E-1,-5.784866333E0,-4.545730591E0
4.238847959E0,1.167602539E-1,-8.106048584E0,-5.135894775E0
4.241380918E0,9.822692871E-1,-8.315536499E0,-4.275177002E0
4.243913877E0,1.027755737E0,-7.948028564E0,-4.475097656E0
4.246446836E0,6.710205078E-1,-8.982315063E0,-4.239273071E0
4.248979795E0,8.972778320E-1,-9.113998413E0,-4.138717651E0
4.251482236E0,9.164276123E-1,-8.453201294E0,-4.227294922E0
4.254015195E0,5.896148682E-1,-8.310745239E0,-4.063293457E0
4.256548154E0,1.921844482E-1,-8.904510498E0,-4.211730957E0
4.259081113E0,5.331420898E-2,-8.836273193E0,-4.111175537E0
4.261614072E0,-1.142730713E-1,-8.345458984E0,-4.295532227E0
4.264147031E0,3.176879883E-2,-7.626007080E0,-4.215332031E0
4.266649473E0,9.319915771E-1,-6.987945557E0,-4.262008667E0
4.269182432E0,1.567642212E0,-6.785644531E0,-4.793533325E0
4.271715391E0,1.571243286E0,-6.602478027E0,-5.392074585E0
4.274248350E0,1.587997437E0,-6.786834717E0,-5.951126099E0
4.276781309E0,1.771163940E0,-6.716217041E0,-6.406021118E0
4.279314267E0,1.816650391E0,-6.663543701E0,-6.985412598E0
4.281816709E0,1.817840576E0,-6.865844727E0,-7.412780762E0
4.284349668E0,1.945938110E0,-7.128005981E0,-7.874862671E0
4.286882627E0,2.343368530E0,-7.429687500E0,-8.375244141E0
4.289415586E0,2.694122314E0,-7.527847290E0,-8.863662720E0
4.291948545E0,3.594345093E0,-7.420104980E0,-9.073165894E0
4.294481504E0,4.834533691E0,-7.093292236E0,-8.989364624E0
4.296983945E0,3.697296143E0,-8.271240234E0,-1.034208679E1
4.299516904E0,6.618225098E0,-7.764877319E0,-1.131054688E1
4.302049863E0,1.039866638E1,-6.916122437E0,-1.087599182E1
4.304582822E0,6.607437134E0,-9.201385498E0,-1.079100037E1
4.307115781E0,4.881225586E0,-1.040087891E1,-1.166847229E1
4.309618223E0,5.734756470E0,-1.066545105E1,-1.206112671E1
4.312151182E0,7.016845703E0,-1.038293457E1,-1.188395691E1
4.314684141E0,8.500061035E0,-9.884933472E0,-1.152003479E1
4.317217100E0,1.002755737E1,-9.368988037E0,-1.114533997E1
4.319750059E0,1.084278870E1,-9.060134888E0,-1.062580872E1
4.322283017E0,1.101875305E1,-8.909301758E0,-1.026428223E1
4.324815976E0,1.057823181E1,-8.892532349E0,-9.857269287E0
4.327348935E0,1.005030823E1,-8.653121948E0,-9.693252563E0
4.329851377E0,9.460128784E0,-8.438842773E0,-9.444259644E0
4.332384336E0,9.323669434E0,-8.089279175E0,-9.240753174E0
4.334917295E0,8.875946045E0,-7.875000000E0,-9.097106934E0
4.337450254E0,8.729904175E0,-7.700225830E0,-9.105484009E0
4.339983213E0,9.539138794E0,-7.245330811E0,-9.267089844E0
4.342516172E0,9.891098022E0,-7.159133911E0,-9.472991943E0
4.345018613E0,9.713912964E0,-7.190261841E0,-9.820159912E0
4.347551572E0,9.717514038E0,-7.136398315E0,-1.019006348E1
4.350084531E0,9.772583008E0,-7.203430176E0,-1.038159180E1
4.352617490E0,9.751037598E0,-7.234558105E0,-1.064735413E1
4.355150449E0,9.585830688E0,-7.100479126E0,-1.055517578E1
4.357683408E0,9.399078369E0,-6.841903687E0,-1.018048096E1
4.360185850E0,9.802505493E0,-6.661148071E0,-9.999710083E0
4.362718809E0,9.825256348E0,-6.758102417E0,-9.619033813E0
4.365251767E0,9.165649414E0,-7.139984131E0,-9.304199219E0
4.367784726E0,9.029174805E0,-7.491928101E0,-9.074356079E0
4.370317685E0,9.457748413E0,-7.744522095E0,-9.097106934E0
4.372850644E0,9.616958618E0,-7.956405640E0,-9.106674194E0
4.375353086E0,1.219790649E1,-8.013870239E0,-9.059997559E0
4.377886045E0,1.024064636E1,-8.369400024E0,-6.452713013E0
4.380419004E0,7.307754517E0,-9.871765137E0,-9.024078369E0
4.382951963E0,7.684829712E0,-8.764450073E0,-1.071557617E1
4.385484922E0,7.839263916E0,-8.009078979E0,-9.171325684E0
4.388017881E0,7.338867188E0,-8.139556885E0,-7.643829346E0
4.390520322E0,6.662506104E0,-8.460388184E0,-6.996185303E0
4.393053281E0,6.992904663E0,-8.697418213E0,-6.550872803E0
4.395586240E0,7.686035156E0,-8.667480469E0,-4.951538086E0
4.398119199E0,7.744689941E0,-8.414901733E0,-3.273208618E0
4.400621641E0,6.802566528E0,-8.201812744E0,-3.063720703E0
4.403154600E0,6.114242554E0,-8.331100464E0,-2.624374390E0
4.405687559E0,4.908752441E0,-8.369400024E0,-2.671066284E0
4.408220517E0,4.925521851E0,-8.539398193E0,-3.070892334E0
4.410753476E0,5.958618164E0,-8.504684448E0,-2.831481934E0
4.413286435E0,5.145782471E0,-7.179489136E0,-2.414886475E0
4.415819394E0,1.757995605E0,-7.184280396E0,-3.115188599E0
4.418352353E0,5.022277832E-1,-7.469192505E0,-4.907257080E0
4.420885312E0,4.124450684E-1,-7.125625610E0,-6.014572144E0
4.423387754E0,9.212188721E-1,-6.558197021E0,-6.101959229E0
4.425920713E0,1.406036377E0,-6.026672363E0,-6.173782349E0
4.428453672E0,2.759963989E0,-6.215820312E0,-5.868515015E0
4.430986631E0,4.075576782E0,-6.572555542E0,-6.500595093E0
4.433489072E0,5.020080566E0,-7.129211426E0,-7.119491577E0
4.436022031E0,5.750320435E0,-7.573333740E0,-7.260757446E0
4.438554990E0,6.687652588E0,-7.943237305E0,-7.697692871E0
4.441087949E0,6.636169434E0,-8.121612549E0,-8.533264160E0
4.443620908E0,7.008468628E0,-8.396942139E0,-8.073577881E0
4.446153867E0,8.109802246E0,-8.790786743E0,-7.564819336E0
4.448686826E0,8.206771851E0,-8.826705933E0,-7.374481201E0
4.451219785E0,8.282180786E0,-8.954788208E0,-6.655014038E0
4.453752744E0,8.320495605E0,-9.143936157E0,-6.661010742E0
4.456285703E0,7.891937256E0,-8.948806763E0,-6.337783813E0
4.458788144E0,7.897918701E0,-8.805145264E0,-5.596786499E0
4.461321103E0,7.156906128E0,-8.814727783E0,-5.481857300E0
4.463854062E0,6.945022583E0,-8.569320679E0,-5.249618530E0
4.466387021E0,7.058746338E0,-8.384963989E0,-4.649871826E0
4.468919980E0,6.913894653E0,-8.189834595E0,-4.452346802E0
4.471452939E0,6.204025269E0,-8.149139404E0,-4.829437256E0
4.473985898E0,5.813766479E0,-7.872604370E0,-5.083221436E0
4.476488340E0,5.714401245E0,-7.876205444E0,-4.325454712E0
4.479021299E0,5.764678955E0,-7.817535400E0,-4.233276367E0
4.481554258E0,5.812576294E0,-7.761276245E0,-4.090820312E0
4.484087217E0,6.044799805E0,-7.603256226E0,-3.704162598E0
4.486620176E0,6.387176514E0,-7.484741211E0,-3.098434448E0
4.489153135E0,5.750320435E0,-7.325531006E0,-2.791976929E0
4.491686094E0,5.684478760E0,-7.051391602E0,-2.875762939E0
4.494219053E0,5.903549194E0,-6.914932251E0,-2.351440430E0
4.496752012E0,5.662933350E0,-6.729385376E0,-1.819931030E0
4.499284971E0,5.911926270E0,-6.697052002E0,-1.569732666E0
4.501787412E0,6.310562134E0,-6.681488037E0,-1.444030762E0
4.504320371E0,5.388793945E0,-6.475585938E0,-1.326721191E0
4.506853330E0,4.909957886E0,-6.278076172E0,-1.201019287E0
4.509386289E0,4.474212646E0,-6.318771362E0,-1.144760132E0
4.511919248E0,3.898406982E0,-6.305603027E0,-1.287216187E0
4.514452207E0,3.836151123E0,-6.287643433E0,-1.482345581E0
4.516954648E0,3.389633179E0,-6.689880371E0,-2.214965820E0
4.519487607E0,3.095153809E0,-6.145187378E0,-1.970764160E0
4.522020566E0,3.694900513E0,-5.240188599E0,-1.299194336E0
4.524553525E0,4.319778442E0,-4.730224609E0,-1.347076416E0
4.527086484E0,4.270706177E0,-4.445312500E0,-1.125610352E0
4.529588926E0,3.534484863E0,-4.411788940E0,-1.471572876E0
4.532121885E0,3.374069214E0,-4.484817505E0,-1.760070801E0
4.534654844E0,3.205276489E0,-4.505157471E0,-1.633178711E0
4.537187803E0,2.898818970E0,-4.527908325E0,-1.784011841E0
4.539720762E0,2.448715210E0,-4.611709595E0,-1.964782715E0
4.542253721E0,2.521743774E0,-4.627273560E0,-2.073715210E0
4.544786680E0,2.172180176E0,-4.436935425E0,-2.217361450E0
4.547319639E0,1.924392700E0,-4.132873535E0,-2.098846436E0
4.549822080E0,1.584411621E0,-4.028717041E0,-2.112014771E0
4.552355039E0,1.386886597E0,-4.156814575E0,-2.459182739E0
4.554887998E0,1.571243286E0,-4.293273926E0,-2.686630249E0
4.557420957E0,1.859741211E0,-4.201095581E0,-2.418472290E0
4.559953916E0,2.178176880E0,-3.889862061E0,-2.080902100E0
4.562486875E0,2.259567261E0,-3.637268066E0,-1.524246216E0
4.564989316E0,2.129089355E0,-3.241027832E0,-1.047790527E0
4.567522275E0,1.747207642E0,-3.014770508E0,-5.917053223E-1
4.570055234E0,1.242034912E0,-3.415802002E0,-4.336853027E-1
4.572588193E0,8.541717529E-1,-3.716278076E0,-4.360809326E-1
4.575121152E0,5.333557129E-1,-3.777328491E0,-2.349700928E-1
4.577654111E0,4.241943359E-3,-3.662399292E0,-1.703186035E-1
4.580156553E0,-4.638366699E-1,-3.456497192E0,3.797912598E-2
4.582689512E0,-9.330902100E-1,-2.753799438E0,1.983795166E-1
4.585222471E0,-1.465805054E0,-1.808090210E0,-1.948547363E-2
4.587755430E0,-1.483764648E0,-6.912078857E-1,4.754638672E-2
4.590288389E0,-1.152160645E0,1.096649170E-1,3.408355713E-1
4.592821348E0,-5.991058350E-1,4.101257324E-1,6.592712402E-1
4.595354307E0,-2.100524902E-1,6.040649414E-1,8.232727051E-1
4.597887266E0,1.263427734E-1,3.395080566E-1,5.898437500E-1
4.600420225E0,1.730194092E-1,-7.110595703E-2,7.873535156E-1
4.602922666E0,3.130950928E-1,-9.365997314E-1,1.389495850E0
4.605425107E0,5.429382324E-1,-1.426223755E0,1.618148804E0
4.607958066E0,1.170211792E0,-2.106170654E0,1.941360474E0
4.610491025E0,1.441955566E0,-2.680786133E0,2.270568848E0
4.613023984E0,1.481460571E0,-2.559875488E0,1.772567749E0
4.615556943E0,-2.809143066E-2,-2.518615723E-1,2.241516113E-2
4.618089902E0,-2.904724121E0,4.835815430E0,-3.543746948E0
4.620622861E0,-1.019287109E0,4.889678955E0,1.430206299E0
4.623155820E0,1.846572876E0,1.084594727E-1,5.818771362E0
4.625688779E0,2.528915405E0,-3.900634766E0,4.420562744E0
4.628191221E0,1.595184326E0,-4.584167480E0,1.497238159E0
4.630724180E0,2.743209839E0,-7.169906616E0,1.869537354E0
4.633257139E0,4.006149292E0,-1.031588745E1,1.475692749E0
4.635790098E0,4.675323486E0,-1.091323853E1,1.181793213E-1
4.638323057E0,6.048400879E0,-1.252932739E1,8.029174805E-1
4.640856016E0,6.918685913E0,-1.444229126E1,9.190368652E-1
4.643358457E0,6.193252563E0,-1.372763062E1,-1.011886597E0
4.645891416E0,5.961013794E0,-1.270770264E1,-1.609237671E0
4.648424375E0,6.153747559E0,-1.201696777E1,-1.429672241E0
4.650957334E0,6.851654053E0,-1.345230103E1,1.403808594E-2
4.653490293E0,6.138183594E0,-1.290043640E1,-6.946563721E-1
4.656023252E0,6.036422729E0,-1.252334595E1,-5.246582031E-1
4.658556211E0,6.263870239E0,-1.258798218E1,1.641845703E-2
4.661058652E0,6.648147583E0,-1.369531250E1,4.773101807E-1
4.663591611E0,5.407943726E0,-1.208641052E1,-8.909759521E-1
4.666124570E0,4.561599731E0,-1.111914062E1,-1.126800537E0
4.668657529E0,4.941085815E0,-1.184219360E1,3.437805176E-2
4.671190488E0,5.609054565E0,-1.282382202E1,5.712890625E-2
4.673723447E0,5.145782471E0,-1.249819946E1,-1.092086792E0
4.676225889E0,4.070785522E0,-1.125561523E1,-2.141952515E0
4.678758848E0,4.097122192E0,-1.104373169E1,-1.937240601E0
4.681291807E0,4.927917480E0,-1.186254883E1,-1.301589966E0
4.683824766E0,5.409149170E0,-1.334097290E1,-8.885803223E-1
4.686357725E0,5.193664551E0,-1.307521057E1,-1.794784546E0
4.688890684E0,5.846084595E0,-1.178712463E1,-2.474746704E0
4.691393125E0,5.775451660E0,-1.116822815E1,-1.865417480E0
4.693926084E0,5.746734619E0,-1.094317627E1,-1.118423462E0
4.696459043E0,6.551177979E0,-1.125202942E1,-5.414276123E-1
4.698992002E0,6.464996338E0,-1.089529419E1,-1.070541382E0
4.701524961E0,5.733566284E0,-9.893310547E0,-1.896545410E0
4.704057920E0,5.024871826E0,-9.552139282E0,-1.803161621E0
4.706560361E0,4.865661621E0,-1.004176331E1,-1.544601440E0
4.709093320E0,4.918334961E0,-1.039610291E1,-1.853439331E0
4.711626279E0,5.358871460E0,-1.109880066E1,-2.050964355E0
4.714159238E0,5.461822510E0,-1.129032898E1,-2.401718140E0
4.716692197E0,4.869247437E0,-1.032546997E1,-3.096038818E0
4.719225156E0,4.802215576E0,-9.831069946E0,-3.182235718E0
4.721758115E0,5.181701660E0,-1.030511475E1,-3.166671753E0
4.724260557E0,5.786239624E0,-1.091323853E1,-3.559310913E0
4.726793516E0,6.425491333E0,-1.172727966E1,-3.930419922E0
4.729326475E0,6.499710083E0,-1.177874756E1,-4.186599731E0
4.731859434E0,5.902359009E0,-1.092402649E1,-5.134704590E0
4.734392392E0,5.514495850E0,-1.016265869E1,-4.575653076E0
4.736925351E0,5.775451660E0,-1.008006287E1,-4.143493652E0
4.739458310E0,5.963409424E0,-1.021653748E1,-3.734085083E0
4.741991269E0,6.078323364E0,-1.050862122E1,-3.392913818E0
4.744524228E0,6.612228394E0,-1.083662415E1,-2.132369995E0
4.747057187E0,7.271835327E0,-1.155488586E1,-1.945617676E0
4.749590146E0,7.033615112E0,-1.111674500E1,-2.610015869E0
4.752123105E0,6.417098999E0,-1.011119080E1,-2.347854614E0
4.754625547E0,6.007690430E0,-9.464752197E0,-1.775634766E0
4.757158506E0,5.904739380E0,-9.200195312E0,-1.495513916E0
4.759691465E0,6.001708984E0,-9.233718872E0,-1.230957031E0
4.762224424E0,5.650955200E0,-8.881759644E0,-1.590087891E0
4.764757383E0,5.260711670E0,-8.523834229E0,-1.333908081E0
4.767290342E0,5.628219604E0,-8.569320679E0,-3.079833984E-1
4.769792783E0,5.982559204E0,-8.990707397E0,-2.660980225E-1
4.772325742E0,6.308166504E0,-9.625167847E0,-4.384765625E-1
4.774858701E0,6.419494629E0,-9.692199707E0,-7.784423828E-1
4.777391660E0,6.609832764E0,-9.761627197E0,-6.743011475E-1
4.779924619E0,6.456604004E0,-9.594039917E0,-9.232940674E-1
4.782457578E0,6.391967773E0,-9.635940552E0,-5.498046875E-1
4.784960019E0,6.225570679E0,-9.474334717E0,-5.234680176E-1
4.787492978E0,6.256698608E0,-9.511444092E0,-7.114105225E-1
4.790025937E0,6.170501709E0,-9.548553467E0,-5.653686523E-1
4.792558896E0,6.032836914E0,-9.108016968E0,-7.341613770E-1
4.795091855E0,6.001708984E0,-8.869796753E0,-8.418884277E-1
4.797624814E0,6.314147949E0,-8.868591309E0,-7.521209717E-1
4.800127256E0,6.463790894E0,-8.800369263E0,-1.022659302E0
4.802660215E0,6.541610718E0,-8.569320679E0,-1.057373047E0
4.805193174E0,6.965377808E0,-8.309555054E0,-4.384765625E-1
4.807726133E0,7.249084473E0,-7.798385620E0,-3.067932129E-1
4.810259092E0,7.901504517E0,-7.641571045E0,-4.300994873E-1
4.812792051E0,8.394714355E0,-7.734939575E0,-5.222625732E-1
4.815325010E0,8.434219360E0,-7.514678955E0,-8.550567627E-1
4.817827451E0,8.607803345E0,-7.520660400E0,-1.224975586E0
4.820360410E0,8.837646484E0,-7.542205811E0,-1.500305176E0
4.822893369E0,8.410278320E0,-7.318344116E0,-1.706207275E0
4.825426328E0,8.029602051E0,-7.171112061E0,-1.940841675E0
4.827959287E0,7.821304321E0,-7.181884766E0,-2.206588745E0
4.830492246E0,7.519638062E0,-7.122024536E0,-2.496292114E0
4.832994687E0,7.385559082E0,-6.984359741E0,-2.672256470E0
4.835527646E0,7.244308472E0,-6.905349731E0,-2.841049194E0
4.838060605E0,7.347259521E0,-6.772476196E0,-2.781204224E0
4.840593564E0,7.453796387E0,-6.703048706E0,-2.681838989E0
4.843126523E0,7.687225342E0,-6.663543701E0,-2.060546875E0
4.845659482E0,7.742294312E0,-6.358276367E0,-1.946823120E0
4.848161924E0,7.508865356E0,-6.003936768E0,-1.574523926E0
4.850694883E0,7.469360352E0,-5.815994263E0,-8.526763916E-1
4.853227842E0,6.941436768E0,-5.839935303E0,-3.055877686E-1
4.855760801E0,6.141769409E0,-5.831558228E0,-4.097442627E-1
4.858293760E0,5.648559570E0,-5.781280518E0,-1.153137207E0
4.860826719E0,5.624618530E0,-5.845916748E0,-2.156311035E0
4.863359678E0,6.024459839E0,-6.147583008E0,-3.161880493E0
4.865862119E0,6.985733032E0,-6.597702026E0,-4.160263062E0
4.868395078E0,7.617797852E0,-7.314758301E0,-5.225677490E0
4.870928037E0,8.045166016E0,-8.331100464E0,-4.953933716E0
4.873460996E0,7.726730347E0,-9.225326538E0,-4.514602661E0
4.875993955E0,6.795394897E0,-9.863388062E0,-4.138717651E0
4.878526914E0,5.696456909E0,-1.033145142E1,-3.945983887E0
4.881029355E0,4.105499268E0,-1.068339539E1,-4.579238892E0
4.883562314E0,2.837768555E0,-1.091683960E1,-3.944778442E0
4.886095273E0,1.556869507E0,-1.110957336E1,-3.379745483E0
4.888628232E0,8.014984131E-1,-1.129751587E1,-3.187011719E0
4.891161191E0,4.304046631E-1,-1.148545837E1,-3.298339844E0
4.893663633E0,6.470794678E-1,-1.169494629E1,-2.624374390E0
4.896196592E0,1.355758667E0,-1.186134338E1,-1.997100830E0
4.898729551E0,2.126693726E0,-1.157284546E1,-1.739715576E0
4.901262510E0,2.922760010E0,-1.086058044E1,-1.204620361E0
4.903795469E0,3.188522339E0,-9.981903076E0,-5.294494629E-1
4.906328428E0,3.056838989E0,-9.091262817E0,-2.122192383E-1
4.908861387E0,3.008956909E0,-8.351455688E0,1.361389160E-1
4.911363828E0,2.807846069E0,-7.584106445E0,-2.229919434E-1
4.913896787E0,2.907211304E0,-7.015487671E0,-2.313690186E-1
4.916429746E0,3.213668823E0,-6.709030151E0,-3.510894775E-1
4.918962705E0,3.487792969E0,-6.622833252E0,-5.138854980E-1
4.921495664E0,3.712860107E0,-6.613265991E0,-7.173919678E-1
4.924028623E0,3.753555298E0,-6.590515137E0,-9.161224365E-1
4.926531064E0,3.842147827E0,-6.637207031E0,-6.838836670E-1
4.929064023E0,3.783477783E0,-6.780853271E0,-4.648132324E-1
4.931596982E0,3.661376953E0,-6.910140991E0,-5.462188721E-1
4.934129941E0,3.526107788E0,-7.045410156E0,-7.964019775E-1
4.936662900E0,3.568008423E0,-7.307571411E0,-3.127746582E-1
4.939195859E0,3.491394043E0,-7.447631836E0,-3.869934082E-1
4.941698301E0,3.344146729E0,-7.536224365E0,-4.444580078E-1
4.944231260E0,3.214859009E0,-7.457214355E0,-3.618621826E-1
4.946764219E0,3.253173828E0,-7.302795410E0,-1.068725586E-1
4.949297178E0,3.322601318E0,-6.916122437E0,1.325378418E-1
4.951830137E0,3.516525269E0,-6.442077637E0,6.042022705E-1
4.954363096E0,3.591949463E0,-5.836334229E0,2.821807861E-1
4.956896055E0,3.954666138E0,-7.445251465E0,3.827362061E-1
4.959398496E0,4.273101807E0,-9.106826782E0,8.520050049E-1
4.961931455E0,4.115081787E0,-8.836273193E0,4.701232910E-1
4.964464414E0,4.021713257E0,-8.728530884E0,-2.182006836E-1
4.966997373E0,3.777496338E0,-8.817123413E0,-1.102859497E0
4.969530332E0,3.594345093E0,-8.618408203E0,-1.341079712E0
4.972063291E0,3.412384033E0,-8.272445679E0,-1.191452026E0
4.974565732E0,3.414779663E0,-7.809158325E0,-7.832336426E-1
4.977098691E0,3.735595703E0,-7.365036011E0,-2.912292480E-1
4.979631650E0,4.052825928E0,-7.007110596E0,7.148742676E-2
4.982164609E0,4.447875977E0,-6.773666382E0,2.319030762E-1
4.984697568E0,4.640609741E0,-6.501922607E0,1.528930664E-1
4.987230527E0,4.905166626E0,-6.263702393E0,-1.380004883E-1
4.989732969E0,4.984176636E0,-5.930908203E0,-6.264190674E-1
4.992265928E0,5.101486206E0,-5.774093628E0,-7.904205322E-1
4.994798887E0,5.220001221E0,-5.836334229E0,-9.664001465E-1
4.997331846E0,5.261901855E0,-5.909362793E0,-1.172302246E0
4.999864805E0,5.367248535E0,-6.024291992E0,-1.209411621E0
5.002397764E0,5.380416870E0,-6.177520752E0,-1.274047852E0
5.004930723E0,5.346893311E0,-6.302017212E0,-1.418899536E0
5.007433164E0,5.290634155E0,-6.389404297E0,-1.709793091E0
5.009966123E0,5.352874756E0,-6.524673462E0,-1.651138306E0
5.012499082E0,5.400772095E0,-6.639602661E0,-1.683456421E0
5.015032041E0,5.470199585E0,-6.770080566E0,-1.804367065E0
5.017565000E0,5.534835815E0,-6.867050171E0,-1.877395630E0
5.020097959E0,5.660537720E0,-6.857467651E0,-2.185043335E0
5.022630918E0,5.688064575E0,-6.761703491E0,-2.467559814E0
5.025163877E0,5.984954834E0,-6.726989746E0,-2.578887939E0
5.027696836E0,6.506881714E0,-6.580932617E0,-2.624374390E0
5.030229795E0,7.118606567E0,-6.342712402E0,-2.955978394E0
5.032762754E0,7.615402222E0,-6.293640137E0,-3.155899048E0
5.035295713E0,7.810531616E0,-6.372634888E0,-3.236099243E0
5.037798154E0,7.729125977E0,-6.468414307E0,-3.342636108E0
5.040331113E0,7.573501587E0,-6.609664917E0,-3.487487793E0
5.042864072E0,7.490905762E0,-6.877822876E0,-3.586853027E0
5.045397031E0,7.257476807E0,-7.213012695E0,-3.707748413E0
5.047929990E0,7.014465332E0,-7.640365601E0,-3.853805542E0
5.050462949E0,6.737930298E0,-8.161117554E0,-3.913650513E0
5.052965391E0,6.704406738E0,-8.678253174E0,-4.033370972E0
5.055498350E0,6.757080078E0,-9.099639893E0,-4.210540771E0
5.058031309E0,6.696029663E0,-9.485107422E0,-4.405670166E0
5.060564267E0,6.838485718E0,-8.721359253E0,-4.476287842E0
5.063097226E0,6.028045654E0,-5.866271973E0,-5.014984131E0
5.065630185E0,4.677719116E0,-4.529724121E-1,-5.985839844E0
5.068163144E0,3.991775513E0,3.056915283E0,-6.403625488E0
5.070665586E0,3.928329468E0,3.546539307E0,-6.202514648E0
5.073198545E0,2.652221680E0,3.213745117E0,-5.843383789E0
5.075731504E0,2.441528320E0,3.066497803E0,-4.779159546E0
5.078264463E0,3.779891968E0,3.589630127E0,-3.507843018E0
5.080797422E0,4.984176636E0,2.663070679E0,-2.511856079E0
5.083299863E0,5.697647095E0,4.077301025E-1,-1.766052246E0
5.085832822E0,6.043609619E0,-1.658462524E0,-1.573318481E0
5.088365781E0,6.086700439E0,-3.442138672E0,-1.736129761E0
5.090898740E0,6.147750854E0,-5.225814819E0,-1.779220581E0
5.093431699E0,6.090301514E0,-6.658752441E0,-2.033004761E0
5.095964658E0,5.783843994E0,-7.543411255E0,-2.289184570E0
5.098497617E0,5.920303345E0,-8.836273193E0,-2.225738525E0
5.101000059E0,5.713211060E0,-9.710159302E0,-2.748870850E0
5.103533017E0,5.463012695E0,-1.018780518E1,-2.861404419E0
5.106065976E0,5.594696045E0,-1.100183105E1,-2.252075195E0
5.108598935E0,5.215209961E0,-1.082585144E1,-2.449600220E0
5.111131894E0,4.950653076E0,-1.072650146E1,-2.258071899E0
5.113664853E0,5.071563721E0,-1.111196899E1,-1.918090820E0
5.116167295E0,5.020080566E0,-1.077917480E1,-3.033782959E0
5.118700254E0,4.829742432E0,-1.099584961E1,-3.282791138E0
5.121233213E0,4.640609741E0,-1.175601196E1,-3.805923462E0
5.123766172E0,4.487380981E0,-1.245391846E1,-4.003433228E0
5.126299131E0,4.273101807E0,-1.309675598E1,-3.825073242E0
5.128832090E0,3.833755493E0,-1.308000183E1,-4.052520752E0
5.131334531E0,4.060012817E0,-1.421844482E1,-3.975906372E0
5.133867490E0,3.821792603E0,-1.493670654E1,-4.494247437E0
5.136400449E0,3.693695068E0,-1.501571655E1,-4.414047241E0
5.138933408E0,3.605117798E0,-1.546223450E1,-4.036956787E0
5.141466367E0,3.779891968E0,-1.656834412E1,-4.095611572E0
5.143999326E0,3.903198242E0,-1.738716125E1,-4.115966797E0
5.146532285E0,3.811019897E0,-1.743983459E1,-4.236877441E0
5.149034726E0,4.439498901E0,-1.861419678E1,-3.737686157E0
5.151567685E0,4.439498901E0,-1.884283447E1,-3.505447388E0
5.154100644E0,4.428726196E0,-1.854835510E1,-3.011047363E0
5.156633603E0,4.868057251E0,-1.887396240E1,-2.577697754E0
5.159166562E0,5.592300415E0,-1.959461975E1,-2.582473755E0
5.161699521E0,6.092697144E0,-2.003276062E1,-2.588470459E0
5.164201963E0,5.247543335E0,-1.772474670E1,-2.978713989E0
5.166734922E0,5.703628540E0,-1.732371521E1,-1.902526855E0
5.169267881E0,5.767074585E0,-1.707592773E1,-1.980331421E0
5.171800840E0,5.745529175E0,-1.692628479E1,-2.289184570E0
5.174333799E0,5.722793579E0,-1.644384766E1,-2.347854614E0
5.176866758E0,5.459426880E0,-1.569207764E1,-2.118011475E0
5.179369199E0,5.233169556E0,-1.518211365E1,-1.896545410E0
5.181902158E0,4.941085815E0,-1.442074585E1,-1.567337036E0
5.184435117E0,5.279861450E0,-1.525752258E1,-1.587692261E0
5.186968076E0,4.670532227E0,-1.447821045E1,-1.835494995E0
5.189501035E0,4.196487427E0,-1.352891541E1,-1.335098267E0
5.192033994E0,3.262741089E0,-1.217498779E1,-1.193847656E0
5.194536435E0,3.132263184E0,-1.176557922E1,-4.360809326E-1
5.197069394E0,2.376892090E0,-1.067622375E1,-6.084594727E-1
5.199602353E0,1.913604736E0,-1.000703430E1,-4.636077881E-1
5.202135312E0,1.579620361E0,-1.004295349E1,-6.264190674E-1
5.204668271E0,7.775573730E-1,-8.663894653E0,-6.336059570E-1
5.207170713E0,-8.145751953E-1,-5.911758423E0,-4.420623779E-1
5.209703672E0,-1.814163208E0,-4.037094116E0,3.013305664E-1
5.212236631E0,-2.597061157E0,-3.264968872E0,5.120239258E-1
5.214769590E0,-3.777404785E0,-1.733871460E0,1.153671265E0
5.217302549E0,-3.638549805E0,-2.581420898E0,1.669616699E0
5.219835508E0,-3.330886841E0,-4.538681030E0,7.227172852E-1
5.222368467E0,-3.141738892E0,-6.688674927E0,5.922241211E-1
5.224901426E0,-3.028015137E0,-9.487503052E0,9.542846680E-2
5.227403867E0,-3.678039551E0,-1.139088440E1,-1.181869507E0
5.229936826E0,-4.184417725E0,-1.305366516E1,-5.354309082E-1
5.232469785E0,-4.533981323E0,-1.339004517E1,2.702178955E-1
5.235002744E0,-5.715515137E0,-1.410472107E1,-2.205398560E0
5.237535703E0,-6.590591431E0,-1.524914551E1,-4.525375366E0
5.240038144E0,-7.168792725E0,-1.545265198E1,-4.786346436E0
5.242571103E0,-7.488418579E0,-1.574833679E1,-5.582412720E0
5.245104062E0,-7.865509033E0,-1.578903198E1,-6.620300293E0
