"Time (s)","Gyroscope x (rad/s)","Gyroscope y (rad/s)","Gyroscope z (rad/s)"
0.000000000E0,-1.682906300E-1,1.165555343E-1,3.113390505E-1
2.475280000E-3,-1.171579435E-1,1.559703052E-1,3.214590847E-1
4.950560000E-3,-1.027768701E-1,1.602313817E-1,3.539496362E-1
7.425840000E-3,-8.040631562E-2,1.772755980E-1,3.773854673E-1
9.901120000E-3,-6.229682267E-2,1.735471785E-1,3.933644295E-1
1.237640000E-2,-6.975367665E-2,1.916566789E-1,4.215939343E-1
1.485168000E-2,-7.294946909E-2,1.884608865E-1,4.327791929E-1
1.732696800E-2,-8.360211551E-2,1.959177256E-1,4.439644814E-1
1.980224800E-2,-9.904845059E-2,1.937871873E-1,4.562150240E-1
2.227752800E-2,-1.144947782E-1,2.102988064E-1,4.626066089E-1
2.475280800E-2,-1.448548138E-1,2.145598531E-1,4.785855711E-1
2.722808800E-2,-1.677580029E-1,2.188209295E-1,4.743245244E-1
2.970336800E-2,-2.119664848E-1,2.161577642E-1,4.727266133E-1
3.217864800E-2,-2.492507398E-1,2.337346077E-1,4.705961049E-1
3.465392000E-2,-2.641644478E-1,2.113640606E-1,4.679329395E-1
3.712921600E-2,-3.110360801E-1,2.220167220E-1,4.482255280E-1
3.960449600E-2,-3.371350467E-1,2.268103957E-1,4.327791929E-1
4.207977600E-2,-3.690930009E-1,2.214840651E-1,4.215939343E-1
4.455505600E-2,-3.973225057E-1,2.193535566E-1,4.104086459E-1
4.703033600E-2,-4.260846376E-1,2.236146033E-1,4.013538957E-1
4.950561600E-2,-4.596404731E-1,2.326693535E-1,3.922991455E-1
5.198089600E-2,-4.729562700E-1,2.230819762E-1,3.922991455E-1
5.445617600E-2,-4.836089015E-1,2.198861837E-1,3.901686370E-1
5.693145600E-2,-4.841415584E-1,2.129619718E-1,3.784507215E-1
5.940673600E-2,-4.963920712E-1,2.087008953E-1,3.880380988E-1
6.188201600E-2,-4.900005162E-1,2.065703869E-1,3.880380988E-1
6.435729600E-2,-4.841415584E-1,1.852650940E-1,3.928318024E-1
6.683257600E-2,-4.761520624E-1,1.756777167E-1,3.901686370E-1
6.930785600E-2,-4.575099349E-1,1.639598012E-1,3.949623108E-1
7.178313600E-2,-4.436615109E-1,1.671555936E-1,4.013538957E-1
7.425841600E-2,-4.362046421E-1,1.543724239E-1,4.130718112E-1
7.673369600E-2,-4.196930528E-1,1.644924283E-1,4.114739299E-1
7.920897600E-2,-4.148993492E-1,1.469155550E-1,4.199960232E-1
8.168425600E-2,-4.058445990E-1,1.495787203E-1,4.183981419E-1
8.415953600E-2,-4.079751372E-1,1.431871355E-1,4.088107646E-1
8.663481600E-2,-4.079751372E-1,1.357302964E-1,4.061475992E-1
8.911009600E-2,-4.085077643E-1,1.314692199E-1,4.050823152E-1
9.158537600E-2,-4.090403914E-1,1.357302964E-1,4.002886415E-1
9.406065600E-2,-4.015835524E-1,1.314692199E-1,4.024191797E-1
9.651728000E-2,-4.159646332E-1,1.261429191E-1,3.907012641E-1
9.899227200E-2,-4.170298874E-1,1.410565972E-1,3.789833486E-1
1.014672800E-1,-4.276825190E-1,1.511766315E-1,3.571454287E-1
1.039422720E-1,-4.340741038E-1,1.698187590E-1,3.443622589E-1
1.064172800E-1,-4.335414767E-1,2.028419375E-1,3.257201314E-1
1.088922720E-1,-4.473899305E-1,2.438546121E-1,2.953600883E-1
1.113672800E-1,-4.607057273E-1,3.008462787E-1,2.841747999E-1
1.138422720E-1,-4.718910158E-1,3.562400341E-1,2.591410875E-1
1.163172640E-1,-4.793478549E-1,4.276127517E-1,2.287810445E-1
1.187922720E-1,-4.889352322E-1,5.000507236E-1,2.319768369E-1
1.212672640E-1,-4.905331433E-1,5.676950216E-1,2.053452283E-1
1.237422720E-1,-4.921310246E-1,6.534488201E-1,1.893662661E-1
1.262172640E-1,-4.958594441E-1,7.205604911E-1,1.659304500E-1
1.286922560E-1,-5.054468513E-1,8.105753064E-1,1.462230533E-1
1.311672640E-1,-4.953268170E-1,8.819480538E-1,1.238525063E-1
1.336422560E-1,-4.995878935E-1,9.858113527E-1,1.105367020E-1
1.361172640E-1,-4.926636815E-1,1.055586100E0,1.004166901E-1
1.385922560E-1,-4.782826006E-1,1.141339898E0,7.964403182E-2
1.410672480E-1,-4.793478549E-1,1.233485341E0,6.579559296E-2
1.435422560E-1,-4.585751891E-1,1.304325342E0,4.768609256E-2
1.460172480E-1,-4.457920194E-1,1.391677022E0,3.010923043E-2
1.484922560E-1,-4.308783114E-1,1.475832939E0,1.253236830E-2
1.509672480E-1,-4.234214723E-1,1.563717246E0,-6.642392837E-3
1.534422400E-1,-4.047793448E-1,1.654264808E0,-1.942556724E-2
1.559172480E-1,-3.786803782E-1,1.751736403E0,-3.913296014E-2
1.583922400E-1,-3.504508734E-1,1.839620829E0,-5.884035304E-2
1.608672480E-1,-3.280802965E-1,1.944016695E0,-7.961300761E-2
1.633422400E-1,-2.881328762E-1,2.028705120E0,-9.559196979E-2
1.658172320E-1,-2.753497064E-1,2.109665394E0,-1.057119817E-1
1.682922400E-1,-2.449896634E-1,2.201277971E0,-1.334088743E-1
1.707672480E-1,-2.151622772E-1,2.304608822E0,-1.563120484E-1
1.732422240E-1,-1.922590882E-1,2.391427755E0,-1.765520722E-1
1.757172320E-1,-1.603011489E-1,2.477714300E0,-1.946615726E-1
1.781922400E-1,-1.336695403E-1,2.577849150E0,-2.207605541E-1
1.806672160E-1,-1.054400355E-1,2.647623777E0,-2.500553131E-1
1.831422240E-1,-9.105896205E-2,2.702485085E0,-2.852090299E-1
1.856172320E-1,-7.774315774E-2,2.772792339E0,-3.134385347E-1
1.880922400E-1,-7.401473075E-2,2.831382036E0,-3.501901627E-1
1.905672160E-1,-8.200421929E-2,2.878786325E0,-3.906702101E-1
1.930422240E-1,-7.188419998E-2,2.918733597E0,-4.407376349E-1
1.955167200E-1,-8.999370039E-2,2.936310530E0,-4.753587544E-1
1.979917280E-1,-1.054400355E-1,2.965072632E0,-5.366114974E-1
2.004667040E-1,-1.336695403E-1,2.993834734E0,-5.717651844E-1
2.029417120E-1,-1.672253758E-1,2.997030497E0,-6.292895079E-1
2.054166880E-1,-1.922590882E-1,3.021531582E0,-6.708347797E-1
2.078916960E-1,-2.327391356E-1,3.025260210E0,-7.246306539E-1
2.103666720E-1,-2.726865411E-1,3.054554939E0,-7.592517734E-1
2.128416800E-1,-3.216887116E-1,3.050293922E0,-7.986665368E-1
2.153166560E-1,-3.738866746E-1,3.077990770E0,-8.311570883E-1
2.177916640E-1,-4.367372692E-1,3.101959229E0,-8.647129536E-1
2.202666400E-1,-5.038489103E-1,3.125395060E0,-8.860182166E-1
2.227416480E-1,-5.666995645E-1,3.147765636E0,-9.073234797E-1
2.252166560E-1,-6.258217096E-1,3.162146568E0,-9.318245649E-1
2.276916320E-1,-7.083797455E-1,3.182386637E0,-9.509993792E-1
2.301666400E-1,-7.834808826E-1,3.214877129E0,-9.701741338E-1
2.326416160E-1,-8.527230620E-1,3.246835232E0,-9.898815155E-1
2.351166240E-1,-9.294220805E-1,3.280390978E0,-1.013849974E0
2.375916000E-1,-9.906747937E-1,3.320338488E0,-1.029828906E0
2.400666080E-1,-1.043405414E0,3.365079403E0,-1.066047907E0
2.425415840E-1,-1.088146448E0,3.411951065E0,-1.111321688E0
2.450165920E-1,-1.137681246E0,3.477464914E0,-1.165117502E0
2.474915680E-1,-1.178694010E0,3.538184881E0,-1.218913317E0
2.499665760E-1,-1.205325603E0,3.618612528E0,-1.273774505E0
2.524415520E-1,-1.226098299E0,3.708094597E0,-1.332896709E0
2.549165600E-1,-1.231957197E0,3.799707413E0,-1.398943067E0
2.573915680E-1,-1.234620333E0,3.915821314E0,-1.472446322E0
2.598665440E-1,-1.222369790E0,4.034598351E0,-1.539557934E0
2.623415520E-1,-1.205858231E0,4.175212860E0,-1.616789579E0
2.648165280E-1,-1.192009807E0,4.342459679E0,-1.686564445E0
2.672915360E-1,-1.142475009E0,4.480944157E0,-1.755806684E0
2.697665120E-1,-1.113180161E0,4.659375668E0,-1.810135126E0
2.722415200E-1,-1.072167516E0,4.829285622E0,-1.876714110E0
2.747164960E-1,-1.024230599E0,5.011978149E0,-1.941695333E0
2.771915040E-1,-9.629779458E-1,5.161115170E0,-1.989099622E0
2.796664800E-1,-9.161062837E-1,5.300664902E0,-2.043960571E0
2.821414880E-1,-8.772241473E-1,5.396538734E0,-2.106278419E0
2.846164640E-1,-8.548535705E-1,5.466846466E0,-2.151019573E0
2.870914720E-1,-8.681693673E-1,5.488151550E0,-2.213870287E0
2.895664800E-1,-8.979967833E-1,5.465781212E0,-2.270329237E0
2.920414560E-1,-9.619126320E-1,5.404528141E0,-2.333712578E0
2.945318240E-1,-1.051927447E0,5.278827190E0,-2.394965172E0
2.970069600E-1,-1.168573976E0,5.122233391E0,-2.431716919E0
2.994820640E-1,-1.308656216E0,4.907582283E0,-2.500426292E0
3.019572000E-1,-1.466315389E0,4.633809566E0,-2.532384396E0
3.044323040E-1,-1.644747138E0,4.340861797E0,-2.571266413E0
3.069074400E-1,-1.839690566E0,4.011162281E0,-2.611746550E0
3.093825440E-1,-2.035699129E0,3.666016579E0,-2.651161194E0
3.118576800E-1,-2.242893219E0,3.313946724E0,-2.685249805E0
3.143327840E-1,-2.433042765E0,2.962942123E0,-2.711348772E0
3.168079200E-1,-2.638638973E0,2.626318693E0,-2.754492044E0
3.192830560E-1,-2.826658010E0,2.282770872E0,-2.770470858E0
3.217581600E-1,-2.984317303E0,1.962126136E0,-2.769405603E0
3.242332960E-1,-3.138780594E0,1.658525825E0,-2.776862621E0
3.267084000E-1,-3.271938562E0,1.360251784E0,-2.781123638E0
3.291835360E-1,-3.390715599E0,1.096066236E0,-2.758220434E0
3.316586400E-1,-3.466349363E0,8.792848587E-1,-2.743839264E0
3.341337760E-1,-3.553168535E0,7.274847031E-1,-2.769938231E0
3.366088800E-1,-3.617084265E0,6.433287859E-1,-2.778460503E0
3.390840160E-1,-3.644781113E0,5.570423603E-1,-2.745969772E0
3.415591200E-1,-3.630400181E0,4.931265116E-1,-2.686315060E0
3.440342560E-1,-3.601638079E0,4.340043366E-1,-2.595767498E0
3.465093920E-1,-3.561157942E0,3.988505900E-1,-2.482849598E0
3.489844960E-1,-3.494578838E0,4.137642980E-1,-2.364605188E0
3.514596320E-1,-3.418412447E0,4.696906805E-1,-2.250621796E0
3.539347360E-1,-3.347039700E0,5.746192336E-1,-2.155280590E0
3.564098720E-1,-3.259155512E0,7.093752027E-1,-2.096691132E0
3.588849760E-1,-3.170205832E0,8.553164005E-1,-2.043960571E0
3.613601120E-1,-3.088713169E0,1.031617641E0,-2.029046774E0
3.638352160E-1,-3.012546778E0,1.204190493E0,-2.009872198E0
3.663103520E-1,-2.928390741E0,1.376763344E0,-2.012002707E0
3.687854880E-1,-2.850093842E0,1.544009924E0,-2.016263723E0
3.712605920E-1,-2.775525331E0,1.711256385E0,-2.034373283E0
3.737357280E-1,-2.715337992E0,1.860393405E0,-2.038634300E0
3.762108320E-1,-2.661542177E0,1.991420984E0,-2.062070131E0
3.786859680E-1,-2.638106346E0,2.134166479E0,-2.094027996E0
3.811610720E-1,-2.623192549E0,2.217789650E0,-2.132910252E0
3.836362080E-1,-2.619996786E0,2.319522381E0,-2.162204981E0
3.861113120E-1,-2.624257803E0,2.362133026E0,-2.201619625E0
3.885864480E-1,-2.635975838E0,2.396221399E0,-2.255948305E0
3.910615520E-1,-2.661542177E0,2.420189857E0,-2.292699814E0
3.934959200E-1,-2.677520990E0,2.413265705E0,-2.338506222E0
3.959707360E-1,-2.683912754E0,2.397286654E0,-2.383780003E0
3.984455840E-1,-2.698826313E0,2.336034060E0,-2.429053783E0
4.009204320E-1,-2.704685211E0,2.278509617E0,-2.476990461E0
4.033952800E-1,-2.704685211E0,2.203408480E0,-2.511079073E0
4.058701280E-1,-2.698293686E0,2.111795902E0,-2.564342260E0
4.083449760E-1,-2.684978008E0,2.036162138E0,-2.614409685E0
4.108197920E-1,-2.652487278E0,1.918982983E0,-2.650095940E0
4.132946400E-1,-2.598691463E0,1.829500794E0,-2.663944483E0
4.157694880E-1,-2.552352428E0,1.726702690E0,-2.663944483E0
4.182443360E-1,-2.469261885E0,1.643612146E0,-2.659150839E0
4.207191840E-1,-2.374985933E0,1.557858348E0,-2.627725601E0
4.231940320E-1,-2.271655321E0,1.488083482E0,-2.605887651E0
4.256688480E-1,-2.156606674E0,1.451331854E0,-2.581386566E0
4.281436960E-1,-2.042090893E0,1.423635006E0,-2.546765327E0
4.306185440E-1,-1.914259076E0,1.427363396E0,-2.510013819E0
4.330933920E-1,-1.776839972E0,1.463049769E0,-2.491371632E0
4.355682400E-1,-1.632496595E0,1.503529787E0,-2.462609529E0
4.380430560E-1,-1.501469135E0,1.555195212E0,-2.440238953E0
4.405179360E-1,-1.369376302E0,1.643079519E0,-2.421596766E0
4.429927520E-1,-1.235685587E0,1.757062793E0,-2.409878969E0
4.454676320E-1,-1.096668601E0,1.864654541E0,-2.405085325E0
4.479424480E-1,-9.709674120E-1,1.996747255E0,-2.389638901E0
4.504172640E-1,-8.495272398E-1,2.127242088E0,-2.395497799E0
4.528921440E-1,-7.291523814E-1,2.283303499E0,-2.407215834E0
4.553669600E-1,-6.034511924E-1,2.421255112E0,-2.432249546E0
4.578418400E-1,-4.718910158E-1,2.556011200E0,-2.479653835E0
4.603166560E-1,-3.653645515E-1,2.709409237E0,-2.520666361E0
4.627915360E-1,-2.620339096E-1,2.845762968E0,-2.567005396E0
4.652663520E-1,-1.778780222E-1,3.000226498E0,-2.603224516E0
4.677411680E-1,-1.107663587E-1,3.118470669E0,-2.657552958E0
4.702160480E-1,-4.312206432E-2,3.243106604E0,-2.682054043E0
4.726908640E-1,-1.649045013E-2,3.333121538E0,-2.731056213E0
4.751657440E-1,-7.968334481E-3,3.394906998E0,-2.771536112E0
4.776405600E-1,5.347471219E-3,3.420473337E0,-2.805092096E0
4.801154400E-1,-7.435702253E-3,3.435919523E0,-2.852496386E0
4.825902560E-1,-3.300204873E-2,3.415146828E0,-2.886052132E0
4.850650720E-1,-5.483997241E-2,3.377330065E0,-2.911085844E0
4.875399520E-1,-9.425475448E-2,3.309153080E0,-2.937717438E0
4.900147680E-1,-1.203537285E-1,3.231388807E0,-2.969675303E0
4.924834400E-1,-1.507137716E-1,3.129656076E0,-2.981393337E0
4.949582560E-1,-1.832043380E-1,3.021531582E0,-2.993111134E0
4.974330720E-1,-2.061075270E-1,2.889971495E0,-3.000568151E0
4.999078880E-1,-2.306086123E-1,2.753617764E0,-2.999502897E0
5.023827040E-1,-2.343370318E-1,2.610872269E0,-3.001633406E0
5.048575200E-1,-2.513812780E-1,2.468659401E0,-2.978197575E0
5.073322720E-1,-2.439244092E-1,2.325913906E0,-2.978730202E0
5.098070880E-1,-2.252822816E-1,2.199147463E0,-2.964881659E0
5.122819040E-1,-1.842696071E-1,2.062261105E0,-2.937184811E0
5.147567200E-1,-1.421916634E-1,1.947745085E0,-2.905226946E0
5.172315360E-1,-6.602524966E-2,1.832696557E0,-2.878595352E0
5.197063520E-1,6.945367903E-3,1.718180656E0,-2.853029013E0
5.221811680E-1,8.950336277E-2,1.630296350E0,-2.822668791E0
5.246559200E-1,1.699308306E-1,1.540281415E0,-2.794439316E0
5.271307360E-1,2.370424867E-1,1.479028702E0,-2.741176128E0
5.296055520E-1,3.334489167E-1,1.430026650E0,-2.674064398E0
5.320803680E-1,4.160069227E-1,1.384752870E0,-2.586180210E0
5.345551840E-1,5.283923149E-1,1.363447547E0,-2.521731615E0
5.370300000E-1,6.306577325E-1,1.338413835E0,-2.447163105E0
5.395048160E-1,7.504999638E-1,1.327228546E0,-2.381116867E0
5.419796320E-1,8.570263982E-1,1.312847495E0,-2.335310459E0
5.444543840E-1,9.513022900E-1,1.330957055E0,-2.296428204E0
5.469292000E-1,1.038121343E0,1.380491853E0,-2.253284931E0
5.494040160E-1,1.120679379E0,1.428428650E0,-2.219196558E0
5.518788320E-1,1.205900550E0,1.468376160E0,-2.193630219E0
5.543536480E-1,1.283664823E0,1.522704601E0,-2.160074472E0
5.568284640E-1,1.361961722E0,1.596207857E0,-2.131312132E0
5.593032800E-1,1.421083927E0,1.673972130E0,-2.111072302E0
5.617780320E-1,1.491391420E0,1.741083860E0,-2.094560623E0
5.642528480E-1,1.554774642E0,1.830033422E0,-2.078581572E0
5.667276640E-1,1.619755745E0,1.897145033E0,-2.067396402E0
5.692024800E-1,1.651181102E0,1.985562086E0,-2.045025826E0
5.716772960E-1,1.694856882E0,2.053206205E0,-2.033308029E0
5.741521120E-1,1.736402154E0,2.137362242E0,-2.029046774E0
5.766269280E-1,1.761968613E0,2.214593887E0,-2.010404825E0
5.791016800E-1,1.792328596E0,2.291825533E0,-1.977914333E0
5.815764960E-1,1.826949716E0,2.375981331E0,-1.969924808E0
5.840513120E-1,1.836004496E0,2.453745842E0,-1.961402655E0
5.865261280E-1,1.854646564E0,2.527781725E0,-1.937434196E0
5.890009440E-1,1.853048682E0,2.586903811E0,-1.922520518E0
5.914591840E-1,1.857309699E0,2.631644964E0,-1.905476332E0
5.939339360E-1,1.841863394E0,2.668396473E0,-1.885236263E0
5.964086240E-1,1.828547597E0,2.684375525E0,-1.870322585E0
5.988833760E-1,1.824286580E0,2.684375525E0,-1.845288873E0
6.013580640E-1,1.802448630E0,2.680647135E0,-1.825048804E0
6.038328160E-1,1.799785495E0,2.666265965E0,-1.802145600E0
6.063075040E-1,1.795524359E0,2.650286913E0,-1.785101414E0
6.087822560E-1,1.794991732E0,2.647091150E0,-1.767524600E0
6.112570080E-1,1.803513885E0,2.642830133E0,-1.733436108E0
6.137316960E-1,1.817894936E0,2.626851320E0,-1.721718192E0
6.162064480E-1,1.823753953E0,2.640699625E0,-1.705206633E0
6.186811360E-1,1.832275987E0,2.635373354E0,-1.667389750E0
6.211558880E-1,1.848787665E0,2.632710218E0,-1.638627529E0
6.236305760E-1,1.864233971E0,2.657743931E0,-1.601875901E0
6.261053280E-1,1.893528700E0,2.676386118E0,-1.548612714E0
6.285800800E-1,1.914834023E0,2.708876610E0,-1.493219018E0
6.310547680E-1,1.953183532E0,2.756813526E0,-1.438890457E0
6.335295200E-1,1.989935160E0,2.808478832E0,-1.385627270E0
6.360042080E-1,2.020827770E0,2.858013630E0,-1.323841929E0
6.384789600E-1,2.065036297E0,2.921929359E0,-1.269513369E0
6.409536480E-1,2.104451180E0,2.978921175E0,-1.206130147E0
6.434284000E-1,2.132148027E0,3.047097921E0,-1.148073316E0
6.459031520E-1,2.160377502E0,3.107818127E0,-1.090016365E0
6.483778400E-1,2.192867994E0,3.191441298E0,-1.036753178E0
6.508525920E-1,2.206716537E0,3.242041349E0,-1.003197312E0
6.533272800E-1,2.224293232E0,3.290510893E0,-9.499340653E-1
6.558020320E-1,2.233348131E0,3.321403742E0,-9.025298357E-1
6.582767200E-1,2.225891113E0,3.327795267E0,-8.769634962E-1
6.607514720E-1,2.202988148E0,3.308620453E0,-8.434076309E-1
6.632262240E-1,2.171562672E0,3.280390978E0,-8.082539439E-1
6.657009120E-1,2.123625755E0,3.215409756E0,-7.869486213E-1
6.681756640E-1,2.057046890E0,3.119535923E0,-7.475338578E-1
6.706503520E-1,2.001120567E0,2.995965242E0,-7.198369503E-1
6.731251040E-1,1.902583480E0,2.876123190E0,-6.804221869E-1
6.755997920E-1,1.812036037E0,2.709941864E0,-6.436705589E-1
6.780745440E-1,1.715629578E0,2.542695284E0,-6.069189310E-1
6.805492960E-1,1.613896847E0,2.360002518E0,-5.616452098E-1
6.830239840E-1,1.510033488E0,2.161330700E0,-5.323504210E-1
6.854987360E-1,1.400311232E0,1.949342966E0,-4.742934704E-1
6.879734240E-1,1.261826873E0,1.667580605E0,-4.370092154E-1
6.904493920E-1,1.101504564E0,1.391144395E0,-3.970617950E-1
6.929241440E-1,9.566286206E-1,1.149862051E0,-3.597775400E-1
6.953988960E-1,8.314600587E-1,9.272217751E-1,-3.235585690E-1
6.978735840E-1,7.302599549E-1,7.328110337E-1,-2.878721952E-1
7.003483360E-1,6.359840035E-1,5.479876399E-1,-2.479247898E-1
7.028230880E-1,5.449039340E-1,3.546421230E-1,-2.399353236E-1
7.052977760E-1,4.687375128E-1,1.852650940E-1,-1.935963035E-1
7.077725280E-1,4.160069227E-1,4.305227846E-2,-1.413983554E-1
7.102472800E-1,3.824510872E-1,-8.318156004E-2,-9.346144646E-2
7.127219680E-1,3.622110486E-1,-1.742616594E-1,-5.044496618E-3
7.151967200E-1,3.616784215E-1,-2.408407032E-1,4.608819634E-2
7.176714720E-1,3.947016299E-1,-3.010281324E-1,1.169282869E-1
7.201461600E-1,4.500953853E-1,-3.138113320E-1,1.920294315E-1
7.226209120E-1,5.172070265E-1,-3.042239547E-1,2.639347911E-1
7.250956640E-1,6.040260792E-1,-2.674723268E-1,3.475580513E-1
7.275703520E-1,7.217378020E-1,-1.881101131E-1,4.381055236E-1
7.300451040E-1,8.623527288E-1,-9.223630279E-2,5.121414065E-1
7.325198560E-1,9.720749855E-1,-4.884620197E-3,5.781877637E-1
7.349945440E-1,1.015750766E0,4.198701680E-2,6.154720187E-1
7.374692960E-1,1.005098224E0,5.690071732E-2,6.586152315E-1
7.399440480E-1,1.015218139E0,9.897866100E-2,6.751268506E-1
7.424187360E-1,1.050904512E0,1.549050510E-1,6.964321136E-1
7.448934880E-1,1.061557174E0,2.001788020E-1,6.974973679E-1
7.473682400E-1,1.070611954E0,2.624967396E-1,6.708657742E-1
7.498429280E-1,1.055165648E0,3.067052364E-1,6.468973160E-1
7.523176800E-1,1.033860326E0,3.290757835E-1,6.197330952E-1
7.547924320E-1,9.987065792E-1,3.631642461E-1,5.920361876E-1
7.572671200E-1,9.800644517E-1,3.839369118E-1,5.670024753E-1
7.597418720E-1,9.619549513E-1,4.180253744E-1,5.302508473E-1
7.622166240E-1,9.401170015E-1,4.265474677E-1,4.892382324E-1
7.646913120E-1,9.108222723E-1,4.478527606E-1,4.626066089E-1
7.671660640E-1,8.548958898E-1,4.622338414E-1,4.199960232E-1
7.696408160E-1,7.989695072E-1,4.537117183E-1,4.013538957E-1
7.721155040E-1,7.483694553E-1,4.483853877E-1,3.598085940E-1
7.745902560E-1,6.764640808E-1,4.537117183E-1,3.475580513E-1
7.770650080E-1,6.247987747E-1,4.537117183E-1,3.305138052E-1
7.795396960E-1,5.587523580E-1,4.606359303E-1,3.294485509E-1
7.820144480E-1,5.001628399E-1,4.696906805E-1,3.134695888E-1
7.844891360E-1,4.666069746E-1,4.664948881E-1,3.209264278E-1
7.869638880E-1,4.255943000E-1,4.670275152E-1,3.187959194E-1
7.894453600E-1,3.771247566E-1,4.771475494E-1,3.267853856E-1
7.919201120E-1,3.281225860E-1,5.027138591E-1,3.358401358E-1
7.943948640E-1,2.945667803E-1,5.075075626E-1,3.539496362E-1
7.968696160E-1,2.759246528E-1,5.314760208E-1,3.837770522E-1
7.993443680E-1,2.679351568E-1,5.724887252E-1,4.125391841E-1
8.018191840E-1,2.796530724E-1,6.129687428E-1,4.413013160E-1
8.042939360E-1,3.009583652E-1,6.694277525E-1,4.700634480E-1
8.067686880E-1,3.148067892E-1,7.109730840E-1,5.116087794E-1
8.092434400E-1,3.249267936E-1,7.477247119E-1,5.345119238E-1
8.117181920E-1,3.552868366E-1,7.700952888E-1,5.648719668E-1
8.141929440E-1,3.393078744E-1,7.924658060E-1,6.032214761E-1
8.166676960E-1,3.638089597E-1,8.132385015E-1,6.293204427E-1
8.191424480E-1,3.611457944E-1,8.095100522E-1,6.532889009E-1
8.216172000E-1,3.499605358E-1,7.914005518E-1,6.650068164E-1
8.240919520E-1,3.467647135E-1,7.738236785E-1,6.783226132E-1
8.265667040E-1,3.403731287E-1,7.567794323E-1,6.729962826E-1
8.290414560E-1,3.361120820E-1,7.067120075E-1,6.580826044E-1
8.315162080E-1,3.169373274E-1,6.848741174E-1,6.479625702E-1
8.339910240E-1,2.924362421E-1,6.406656504E-1,6.223962307E-1
8.364657760E-1,2.652719915E-1,6.198929548E-1,5.909709334E-1
8.389405280E-1,2.562172711E-1,5.772823691E-1,5.504909158E-1
8.414152800E-1,2.460972369E-1,5.437265635E-1,4.929666519E-1
8.438900320E-1,2.194656283E-1,5.117686391E-1,4.290507734E-1
8.463647840E-1,1.986929625E-1,4.957896471E-1,3.773854673E-1
8.488395360E-1,1.864424348E-1,4.707559645E-1,3.230569661E-1
8.513142880E-1,1.837792695E-1,4.531790912E-1,2.751200795E-1
8.537890400E-1,1.582129151E-1,4.553096294E-1,2.303789407E-1
8.562637920E-1,1.555497646E-1,4.755496383E-1,1.813767850E-1
8.587385440E-1,1.560823917E-1,5.506507754E-1,1.382335722E-1
8.612132960E-1,1.678002924E-1,6.060445309E-1,1.195914522E-1
8.636880480E-1,2.002908587E-1,6.715583205E-1,1.147977561E-1
8.661628640E-1,2.599456608E-1,7.365394235E-1,1.233198717E-1
8.686376160E-1,3.302531242E-1,8.089774251E-1,1.568756998E-1
8.711123680E-1,3.867121339E-1,8.840785623E-1,1.851052046E-1
8.735871200E-1,4.453016818E-1,9.692997336E-1,2.175957710E-1
8.760618720E-1,5.006954670E-1,1.042802930E0,2.586084604E-1
8.785366240E-1,5.385123491E-1,1.127491474E0,2.900337577E-1
8.810113760E-1,5.949713588E-1,1.193537831E0,3.374380469E-1
8.834861280E-1,6.445061564E-1,1.276628494E0,3.614064753E-1
8.859608800E-1,6.748661995E-1,1.351729631E0,3.725917637E-1
8.884340320E-1,7.052262425E-1,1.381024480E0,3.821791410E-1
8.909087840E-1,7.467715144E-1,1.440146565E0,4.013538957E-1
8.933835360E-1,7.771315575E-1,1.474767685E0,3.885707259E-1
8.958582880E-1,8.202747703E-1,1.502997160E0,3.683307171E-1
8.983330400E-1,8.485043049E-1,1.535487771E0,3.582106829E-1
9.008077920E-1,8.735380173E-1,1.566913128E0,3.315790892E-1
9.032825440E-1,9.118875265E-1,1.571174145E0,2.905664146E-1
9.057572960E-1,9.422475696E-1,1.585022569E0,2.612716258E-1
9.082320480E-1,9.587591290E-1,1.583424687E0,2.271831483E-1
9.107068000E-1,9.523675442E-1,1.593012094E0,2.058778554E-1
9.131815520E-1,9.907171130E-1,1.616447926E0,2.026820630E-1
9.156563040E-1,1.068481445E0,1.680363774E0,1.808441430E-1
9.181310560E-1,1.139321446E0,1.740551233E0,1.222546101E-1
9.206058080E-1,1.194182634E0,1.740018606E0,1.174609214E-1
9.230805600E-1,1.208031058E0,1.714452147E0,8.869878203E-2
9.255553120E-1,1.222944736E0,1.680896401E0,6.952401996E-2
9.280300640E-1,1.233064771E0,1.660656333E0,5.461031199E-2
9.305048160E-1,1.229336381E0,1.626035213E0,4.022924230E-2
9.329795680E-1,1.226140499E0,1.604730010E0,2.584817261E-2
9.354543200E-1,1.221346855E0,1.583424687E0,2.052185126E-2
9.379290720E-1,1.213889956E0,1.557325721E0,2.584817261E-2
9.404038240E-1,1.186725736E0,1.549868822E0,1.785868965E-2
9.428785760E-1,1.177138329E0,1.518976212E0,3.170712665E-2
9.453533280E-1,1.169681549E0,1.497138262E0,3.916398063E-2
9.478280800E-1,1.147310972E0,1.493942499E0,5.034925416E-2
9.503028320E-1,1.143049955E0,1.481691957E0,5.833873898E-2
9.527775840E-1,1.129734159E0,1.497670889E0,7.591560483E-2
9.552523360E-1,1.139854074E0,1.501931906E0,8.710088581E-2
9.577270880E-1,1.116950989E0,1.544009924E0,1.036124825E-1
9.602018400E-1,1.092982531E0,1.580761552E0,1.126672328E-1
9.626765920E-1,1.086058259E0,1.585555196E0,1.334398836E-1
9.651513440E-1,1.078068733E0,1.600468874E0,1.760504544E-1
9.676260960E-1,1.108428836E0,1.594609976E0,2.234547287E-1
9.701008480E-1,1.126005650E0,1.610056281E0,2.868379653E-1
9.725756000E-1,1.136658311E0,1.603132010E0,3.102737963E-1
9.750503520E-1,1.132397294E0,1.590881586E0,3.209264278E-1
9.775251040E-1,1.123342514E0,1.572772026E0,3.108064234E-1
9.799998560E-1,1.128668785E0,1.546673059E0,3.156001270E-1
9.824746080E-1,1.135593057E0,1.551466703E0,3.203938007E-1
9.849493600E-1,1.141451955E0,1.514715075E0,3.448948860E-1
9.874215520E-1,1.137190938E0,1.490746617E0,3.640696406E-1
9.898963040E-1,1.143582582E0,1.424167633E0,3.795159757E-1
9.923709280E-1,1.152637243E0,1.371437073E0,4.072128534E-1
9.948456800E-1,1.140919328E0,1.316575885E0,4.136044383E-1
9.973204320E-1,1.147843599E0,1.243072629E0,4.189307690E-1
9.997951840E-1,1.135060430E0,1.181287289E0,4.290507734E-1
1.002269936E0,1.122809887E0,1.111512542E0,4.460950196E-1
1.004744688E0,1.096178293E0,1.038009286E0,4.652697742E-1
1.007219440E0,1.069546700E0,9.767565727E-1,4.881729484E-1
1.009694192E0,1.059959292E0,9.218954444E-1,4.993582368E-1
1.012168944E0,1.039186597E0,8.617079854E-1,5.057498217E-1
1.014643696E0,1.000304461E0,8.249563575E-1,5.201308727E-1
1.017118448E0,9.928476214E-1,7.812805176E-1,5.275877118E-1
1.019593200E0,9.640854597E-1,7.157667875E-1,5.377077460E-1
1.022067952E0,9.646180868E-1,6.811456680E-1,5.323814154E-1
1.024542704E0,9.406496882E-1,6.582425237E-1,5.334466696E-1
1.027017328E0,9.140180349E-1,6.225561500E-1,5.062824488E-1
1.029492080E0,8.730053902E-1,5.943266153E-1,4.807161093E-1
1.031966832E0,8.522326946E-1,5.352044702E-1,4.418339431E-1
1.034441584E0,8.362537622E-1,4.856696725E-1,3.768528104E-1
1.036916336E0,8.181442618E-1,4.963222742E-1,3.214590847E-1
1.039391088E0,7.883168459E-1,5.128338933E-1,2.474231720E-1
1.041865840E0,8.170790076E-1,4.973875880E-1,1.920294315E-1
1.044340592E0,8.154810667E-1,5.202907324E-1,1.371683031E-1
1.046815344E0,8.628853559E-1,5.282802582E-1,6.100190058E-2
1.049290096E0,8.953759074E-1,5.474550128E-1,2.158711478E-2
1.051764848E0,9.129527807E-1,5.794129372E-1,-2.741504833E-2
1.054239600E0,8.799296021E-1,5.485202670E-1,-7.162351906E-2
1.056714352E0,8.261337280E-1,5.043118000E-1,-1.025161892E-1
1.059188976E0,7.638157606E-1,5.352044702E-1,-7.055825740E-2
1.061663728E0,7.648810148E-1,6.172298193E-1,-1.569714025E-2
1.064138480E0,8.186768889E-1,7.216257453E-1,1.839132234E-2
1.066613232E0,8.373190165E-1,7.445288897E-1,3.916398063E-2
1.069087984E0,8.628853559E-1,7.360067964E-1,8.443772048E-2
1.071562736E0,8.836579919E-1,7.360067964E-1,1.057430133E-1
1.074037488E0,9.108222723E-1,7.583773732E-1,1.025472209E-1
1.076512240E0,9.742054939E-1,8.414679766E-1,8.230718970E-2
1.078986992E0,1.015218139E0,8.707627654E-1,8.230718970E-2
1.081461744E0,1.062622428E0,9.309502244E-1,1.041451171E-1
1.083936496E0,1.067416191E0,9.213628173E-1,1.254504025E-1
1.086411888E0,1.091917157E0,9.117754102E-1,1.387661994E-1
1.088886640E0,1.108961463E0,9.139059782E-1,1.563430578E-1
1.091361392E0,1.099374056E0,8.819480538E-1,1.345051527E-1
1.093836144E0,1.092449903E0,8.169668913E-1,1.014819518E-1
1.096310896E0,1.069014072E0,7.530510426E-1,7.857877016E-2
1.098785648E0,1.043980360E0,7.072446346E-1,6.899138540E-2
1.101260400E0,1.016816020E0,6.198929548E-1,4.555556551E-2
1.103735024E0,9.933802485E-1,5.325412750E-1,4.981662333E-2
1.106209776E0,9.619549513E-1,4.723538458E-1,3.010923043E-2
1.108684528E0,9.198769927E-1,4.276127517E-1,3.223976120E-2
1.111159280E0,8.687443137E-1,3.743495047E-1,3.223976120E-2
1.113634032E0,8.144158125E-1,3.157599866E-1,2.371764556E-2
1.116108784E0,7.552936673E-1,2.784757316E-1,2.744606882E-2
1.118583536E0,7.089546323E-1,2.305388153E-1,2.851133421E-2
1.121058288E0,6.727356315E-1,1.634271741E-1,4.235977307E-2
1.123533040E0,6.114829183E-1,1.160228923E-1,5.034925416E-2
1.126007792E0,5.427733660E-1,5.956388265E-2,5.887136981E-2
1.128482544E0,4.836512208E-1,3.133437037E-2,7.005664706E-2
1.130957296E0,4.122785032E-1,-2.192885056E-2,7.005664706E-2
1.133432048E0,3.414384127E-1,-8.690998703E-2,8.443772048E-2
1.135906800E0,2.865772843E-1,-1.252595037E-1,9.189457446E-2
1.138381552E0,2.231940478E-1,-1.689353585E-1,1.046777442E-1
1.140856304E0,1.598108113E-1,-2.030238211E-1,1.030798480E-1
1.143331056E0,9.323178977E-2,-2.179374993E-1,1.089388058E-1
1.145805808E0,5.541490018E-2,-2.264596224E-1,1.105367020E-1
1.148280432E0,3.749574535E-3,-2.493628263E-1,1.238525063E-1
1.150755184E0,-3.673047572E-2,-2.466996610E-1,1.201240793E-1
1.153229936E0,-9.585265070E-2,-2.445691228E-1,1.408967227E-1
1.155704688E0,-1.134295166E-1,-2.344491184E-1,1.584735960E-1
1.158179440E0,-1.608337909E-1,-2.307206988E-1,1.851052046E-1
1.160654192E0,-1.528442949E-1,-2.158069909E-1,2.064104974E-1
1.163128944E0,-1.555074602E-1,-2.040890753E-1,2.420968562E-1
1.165603696E0,-1.624316871E-1,-1.971648633E-1,2.767179608E-1
1.168078448E0,-1.650948375E-1,-1.625437737E-1,3.102737963E-1
1.170553200E0,-1.762801260E-1,-1.369774044E-1,3.416990936E-1
1.173027952E0,-1.906611919E-1,-1.172700226E-1,3.795159757E-1
1.175502704E0,-1.922590882E-1,-8.264892548E-2,4.088107646E-1
1.177977456E0,-1.991833001E-1,-2.352674864E-2,4.231918156E-1
1.180452208E0,-1.991833001E-1,2.920384333E-2,4.141370654E-1
1.182926960E0,-1.725516915E-1,1.059028804E-1,3.938970566E-1
1.185397104E0,-1.592358947E-1,1.740798056E-1,3.507538438E-1
1.187871856E0,-1.512463987E-1,2.225493491E-1,2.990885079E-1
1.190346608E0,-1.294084787E-1,2.763451934E-1,2.351726294E-1
1.192821360E0,-1.453874558E-1,3.322715759E-1,1.355704069E-1
1.195295984E0,-1.448548138E-1,3.892632127E-1,1.732605696E-2
1.197770736E0,-1.640295833E-1,4.334717095E-1,-1.302130669E-1
1.200245488E0,-1.805411726E-1,4.297432601E-1,-3.107753694E-1
1.202720240E0,-2.130317390E-1,4.121664166E-1,-5.190346241E-1
1.205194992E0,-2.567075789E-1,3.839369118E-1,-7.336853743E-1
1.207669744E0,-3.179602921E-1,3.594358265E-1,-9.717720151E-1
1.210144496E0,-3.616361320E-1,3.269452453E-1,-1.215184927E0
1.212619120E0,-4.255520105E-1,3.093683720E-1,-1.420781016E0
1.215093872E0,-4.825436473E-1,2.880631089E-1,-1.641823411E0
1.217568624E0,-5.741564035E-1,2.806062400E-1,-1.847419381E0
1.220043376E0,-6.673670411E-1,2.566377819E-1,-2.014665842E0
1.222518128E0,-7.398050427E-1,2.603662312E-1,-2.166465998E0
1.224992880E0,-8.175693154E-1,2.758125663E-1,-2.278318644E0
1.227467504E0,-8.873441219E-1,3.072378635E-1,-2.350756645E0
1.229942256E0,-9.368789196E-1,3.296084106E-1,-2.360344172E0
1.232417008E0,-9.667063355E-1,3.791432083E-1,-2.312407255E0
1.234891760E0,-9.597821236E-1,4.206885099E-1,-2.236240864E0
1.237366512E0,-9.347484112E-1,4.617012143E-1,-2.093495369E0
1.239841264E0,-9.177041650E-1,4.835391343E-1,-1.963000536E0
1.242316016E0,-8.740283251E-1,4.899306893E-1,-1.790427685E0
1.244790640E0,-8.516578078E-1,4.691580534E-1,-1.649280190E0
1.247265392E0,-8.260914087E-1,3.951221704E-1,-1.512926340E0
1.249740144E0,-8.431356549E-1,2.758125663E-1,-1.392018795E0
1.252214896E0,-8.750935793E-1,1.282734275E-1,-1.268980742E0
1.254689648E0,-9.022578597E-1,-9.596472979E-2,-1.161921740E0
1.257164400E0,-9.880116582E-1,-3.297902942E-1,-1.059656382E0
1.259639024E0,-1.068971753E0,-5.822579861E-1,-9.648478031E-1
1.262113776E0,-1.155258179E0,-8.794667721E-1,-8.572560549E-1
1.264588528E0,-1.279894114E0,-1.197448134E0,-7.603170276E-1
1.267063280E0,-1.399203658E0,-1.561236024E0,-6.649758220E-1
1.269538032E0,-1.517980695E0,-1.990004897E0,-5.845483541E-1
1.272012784E0,-1.668715596E0,-2.444340229E0,-5.216977596E-1
1.274487408E0,-1.841288447E0,-2.729298592E0,-4.386071265E-1
1.276962160E0,-1.989360213E0,-2.974309206E0,-3.560491204E-1
1.279436912E0,-2.071385622E0,-3.260865450E0,-2.553816438E-1
1.281911664E0,-2.143290997E0,-3.487234116E0,-1.813457608E-1
1.284390128E0,-2.207206726E0,-3.620392084E0,-1.099730432E-1
1.286864880E0,-2.258339405E0,-3.697623968E0,-5.830771849E-2
1.289339632E0,-2.271122694E0,-3.820129395E0,-2.421925589E-2
1.291814256E0,-2.296156406E0,-3.943699837E0,-1.569714025E-2
1.294289008E0,-2.310537577E0,-4.073662281E0,-3.380663693E-2
1.296763760E0,-2.350484848E0,-4.124262333E0,-9.665723890E-2
1.299238512E0,-2.417063951E0,-4.065140247E0,-1.680299640E-1
1.301713264E0,-2.444760799E0,-3.935177803E0,-2.266195118E-1
1.304188016E0,-2.408541679E0,-3.748224020E0,-2.697626948E-1
1.306662768E0,-2.322255373E0,-3.645958424E0,-3.171669841E-1
1.309137520E0,-2.202413082E0,-3.614533186E0,-3.784196675E-1
1.311612272E0,-2.110800266E0,-3.637969017E0,-4.455313385E-1
1.314087024E0,-2.033035994E0,-3.673655510E0,-5.440683365E-1
1.316561776E0,-1.986697078E0,-3.670992136E0,-6.287568808E-1
1.319036528E0,-1.948347569E0,-3.701884985E0,-7.384790778E-1
1.321511152E0,-1.928107500E0,-3.667796373E0,-8.471360803E-1
1.323985904E0,-1.922781229E0,-3.470722437E0,-9.973384142E-1
1.326460656E0,-1.949412823E0,-3.056867361E0,-1.180031180E0
1.328935408E0,-1.953141212E0,-2.671774149E0,-1.382431507E0
1.331410160E0,-1.939292789E0,-2.257386208E0,-1.603473783E0
1.333884912E0,-1.905204296E0,-1.820095301E0,-1.821853042E0
1.336359664E0,-1.847147465E0,-1.364162087E0,-2.066331148E0
1.338834416E0,-1.783231497E0,-9.785363674E-1,-2.285243034E0
1.341309168E0,-1.722511530E0,-6.014327407E-1,-2.515872717E0
1.343804399E0,-1.646877646E0,-2.807881236E-1,-2.706022501E0
1.346279151E0,-1.561656594E0,1.695330068E-2,-2.897237301E0
1.348753903E0,-1.500403881E0,2.864651978E-1,-3.084723949E0
1.351228527E0,-1.456727982E0,5.309433937E-1,-3.270612478E0
1.353703279E0,-1.397073150E0,7.450615764E-1,-3.439989567E0
1.356178031E0,-1.339548945E0,9.687671065E-1,-3.606703520E0
1.358652783E0,-1.301199436E0,1.161579967E0,-3.775547981E0
1.361127535E0,-1.225032926E0,1.311782241E0,-3.928413391E0
1.363602287E0,-1.131822348E0,1.427363396E0,-4.067963123E0
1.366077039E0,-1.072167516E0,1.517910957E0,-4.186207771E0
1.368551791E0,-1.011447430E0,1.588218331E0,-4.304451942E0
1.371026543E0,-9.975990057E-1,1.660656333E0,-4.402456284E0
1.373501295E0,-9.699021578E-1,1.742681742E0,-4.460513115E0
1.375976047E0,-9.565863609E-1,1.822043896E0,-4.489275455E0
1.378450799E0,-9.656410813E-1,1.914189339E0,-4.497797489E0
1.380919023E0,-9.933379889E-1,2.003138781E0,-4.461578369E0
1.383393775E0,-1.038611650E0,2.112861156E0,-4.407782555E0
1.385868399E0,-1.080157042E0,2.213528633E0,-4.344932079E0
1.388343151E0,-1.130224466E0,2.305674076E0,-4.274091721E0
1.390817903E0,-1.153660297E0,2.364796162E0,-4.209110737E0
1.393292655E0,-1.160584450E0,2.362133026E0,-4.133477211E0
1.395767407E0,-1.127561331E0,2.239094973E0,-4.057843208E0
1.398242031E0,-1.040209651E0,2.076109409E0,-3.972621918E0
1.400716783E0,-9.145084023E-1,1.812456489E0,-3.864497423E0
1.403191535E0,-7.797524333E-1,1.508856177E0,-3.772884846E0
1.405666287E0,-6.050490737E-1,1.177558899E0,-3.650912046E0
1.408141039E0,-4.468573034E-1,8.254890442E-1,-3.506568670E0
1.410615663E0,-2.694907486E-1,4.569075108E-1,-3.349974871E0
1.413090415E0,-9.798318148E-2,1.032397225E-1,-3.182728291E0
1.415565167E0,6.606754661E-2,-2.280575335E-1,-3.010688066E0
1.418039919E0,2.125414014E-1,-5.098199844E-1,-2.844506741E0
1.420514671E0,3.419710398E-1,-6.999697089E-1,-2.667140245E0
1.422989295E0,4.170721769E-1,-7.958434820E-1,-2.528656006E0
1.425464047E0,4.655417204E-1,-8.198119402E-1,-2.366203070E0
1.427938799E0,5.172070265E-1,-7.899845243E-1,-2.232512474E0
1.430413551E0,5.337186456E-1,-7.250034213E-1,-2.119594336E0
1.432888175E0,5.326533914E-1,-5.779969096E-1,-2.016263723E0
1.435362927E0,5.108154416E-1,-4.214030206E-1,-1.920922637E0
1.437837679E0,4.911080599E-1,-2.376449108E-1,-1.832505703E0
1.440312431E0,4.815206826E-1,-5.708257854E-2,-1.735033989E0
1.442787183E0,4.937712252E-1,1.133597270E-1,-1.629040122E0
1.445261807E0,5.257291794E-1,2.944546938E-1,-1.534764290E0
1.447736559E0,5.965692401E-1,4.483853877E-1,-1.449543118E0
1.450211311E0,6.386471987E-1,5.826086998E-1,-1.355799794E0
1.452686063E0,6.876493692E-1,7.194951773E-1,-1.262589216E0
1.455160815E0,7.164114714E-1,8.771543503E-1,-1.173107028E0
1.457635439E0,7.281293869E-1,1.024693489E0,-1.087885857E0
1.460110191E0,7.441083789E-1,1.154123068E0,-1.008523583E0
1.462584943E0,7.590220571E-1,1.281422257E0,-9.323572516E-1
1.465059695E0,7.563589215E-1,1.376763344E0,-8.657782078E-1
1.467534447E0,7.622178793E-1,1.471571922E0,-8.119823337E-1
1.470009071E0,7.441083789E-1,1.561054111E0,-7.709696293E-1
1.472483823E0,7.334557176E-1,1.619643688E0,-7.315548658E-1
1.474958575E0,6.977693439E-1,1.687287927E0,-7.033253908E-1
1.477433327E0,6.551587582E-1,1.733094335E0,-6.985316873E-1
1.479905374E0,6.317229867E-1,1.767182827E0,-7.517948747E-1
1.482380126E0,5.992323756E-1,1.783161759E0,-7.885465026E-1
1.484854750E0,5.571544766E-1,1.790618658E0,-8.636476398E-1
1.487329502E0,5.097501874E-1,1.812989116E0,-9.323572516E-1
1.489804254E0,4.676722288E-1,1.793814421E0,-1.007990956E0
1.492278878E0,4.069521725E-1,1.768248081E0,-1.095342636E0
1.494753630E0,3.552868366E-1,1.729898572E0,-1.174704909E0
1.497228382E0,2.844467461E-1,1.699538469E0,-1.275905013E0
1.499703006E0,2.210635245E-1,1.665982723E0,-1.358463049E0
1.502177758E0,1.550171226E-1,1.637220502E0,-1.438890457E0
1.504652510E0,9.323178977E-2,1.613784671E0,-1.511861086E0
1.507127262E0,4.742541537E-2,1.575435162E0,-1.587494850E0
1.509601886E0,-3.174644429E-3,1.521639347E0,-1.662595987E0
1.512076638E0,-3.726311028E-2,1.479028702E0,-1.733968735E0
1.514551390E0,-6.336208433E-2,1.431624532E0,-1.801612973E0
1.517026014E0,-9.745054692E-2,1.381557107E0,-1.863930941E0
1.519500766E0,-9.745054692E-2,1.328826427E0,-1.949684739E0
1.521975518E0,-9.958107769E-2,1.258519053E0,-2.019992113E0
1.524450142E0,-7.987368852E-2,1.188211560E0,-2.102017403E0
1.526924894E0,-6.709051132E-2,1.081152439E0,-2.159009218E0
1.529399646E0,-3.353468329E-2,9.597123265E-1,-2.226120710E0
1.531874270E0,-2.181677148E-2,8.313479424E-1,-2.299091339E0
1.534349022E0,-1.435992122E-2,6.933962107E-1,-2.351289272E0
1.536823774E0,2.718539350E-2,5.240191817E-1,-2.422662020E0
1.539298398E0,5.328436941E-2,3.482505381E-1,-2.479121208E0
1.541773150E0,7.512228936E-2,1.927219331E-1,-2.522264242E0
1.544247902E0,1.060149595E-1,3.719332442E-2,-2.585647583E0
1.546722526E0,1.385055333E-1,-1.199331805E-1,-2.647432804E0
1.549197278E0,1.582129151E-1,-2.552217543E-1,-2.696434975E0
1.551672030E0,1.875076890E-1,-3.697377145E-1,-2.761948824E0
1.554146782E0,1.954971701E-1,-4.602851868E-1,-2.809353113E0
1.556621406E0,2.168024629E-1,-5.124831200E-1,-2.885519505E0
1.559096158E0,2.306509018E-1,-5.210052729E-1,-2.957957506E0
1.561570910E0,2.455646098E-1,-5.092873573E-1,-3.066081762E0
1.564045534E0,2.562172711E-1,-4.443062246E-1,-3.177402020E0
1.566520286E0,2.711309493E-1,-3.558892608E-1,-3.295113564E0
1.568995038E0,2.721962035E-1,-2.887776196E-1,-3.357431650E0
1.571469662E0,2.860446572E-1,-1.700006127E-1,-3.383530617E0
1.573944414E0,2.903057039E-1,-4.429940507E-2,-3.411227465E0
1.576419166E0,3.057520390E-1,8.246706426E-2,-3.439989567E0
1.578900179E0,3.254594505E-1,2.332019806E-1,-3.483665466E0
1.581374931E0,3.654068708E-1,3.679579198E-1,-3.515623331E0
1.583849683E0,4.016258419E-1,5.202907324E-1,-3.544385433E0
1.586324307E0,4.453016818E-1,6.427961588E-1,-3.583267689E0
1.588799059E0,4.825859368E-1,7.695626020E-1,-3.625345707E0
1.591273811E0,5.315881371E-1,8.851438165E-1,-3.657303572E0
1.593748563E0,5.811229348E-1,9.842134118E-1,-3.702577353E0
1.596223187E0,6.226682067E-1,1.093935609E0,-3.736665726E0
1.598697939E0,6.588872075E-1,1.162645221E0,-3.775547981E0
1.601172691E0,7.052262425E-1,1.238811612E0,-3.806440592E0
1.603647443E0,7.206725478E-1,1.290476918E0,-3.836267948E0
1.606122195E0,7.531630993E-1,1.315510631E0,-3.850116491E0
1.608596819E0,7.856537104E-1,1.324565411E0,-3.855442762E0
1.611071571E0,7.984368801E-1,1.282487512E0,-3.841061592E0
1.613546323E0,8.282642365E-1,1.241474748E0,-3.800581694E0
1.616021075E0,8.463737369E-1,1.186081052E0,-3.736133099E0
1.618495827E0,8.357211351E-1,1.116838813E0,-3.625345707E0
1.620970451E0,8.442432284E-1,1.047596693E0,-3.493252754E0
1.623445203E0,8.319926858E-1,9.692997336E-1,-3.363290548E0
1.625919955E0,8.112200499E-1,9.218954444E-1,-3.225871563E0
1.628394707E0,8.202747703E-1,9.080470204E-1,-3.084191322E0
1.630869331E0,8.048284650E-1,9.181669950E-1,-2.942511082E0
1.633344083E0,7.867189646E-1,9.389396906E-1,-2.799765587E0
1.635818835E0,7.776641846E-1,9.698323607E-1,-2.664477110E0
1.638293587E0,7.781968117E-1,1.023628235E0,-2.552624226E0
1.640768339E0,7.462388873E-1,1.092337728E0,-2.438641071E0
1.643242963E0,7.275967598E-1,1.149329424E0,-2.328386068E0
1.645717715E0,7.041609287E-1,1.224430561E0,-2.218663931E0
1.648192467E0,6.839209199E-1,1.292607427E0,-2.123855352E0
1.650667219E0,6.594198346E-1,1.367708683E0,-2.030112028E0
1.653141971E0,6.349187493E-1,1.466245532E0,-1.940097451E0
1.655616595E0,6.045587063E-1,1.560521483E0,-1.862333059E0
1.658091347E0,5.928407907E-1,1.701668978E0,-1.785101414E0
1.660566099E0,5.704702735E-1,1.833761811E0,-1.715326548E0
1.663040851E0,5.726007819E-1,2.006334782E0,-1.644486547E0
1.665515475E0,5.736660361E-1,2.154939175E0,-1.578972697E0
1.667990227E0,5.710029006E-1,2.261998177E0,-1.526242137E0
1.670464979E0,5.614154935E-1,2.324316025E0,-1.473511577E0
1.672939731E0,5.465018153E-1,2.354143620E0,-1.437825203E0
1.675414483E0,5.257291794E-1,2.339229822E0,-1.402671456E0
1.677895423E0,5.017607212E-1,2.259867668E0,-1.368050337E0
1.680370175E0,4.772596359E-1,2.177309513E0,-1.349408269E0
1.682844927E0,4.623459280E-1,2.070250511E0,-1.328635573E0
1.685319679E0,4.325185120E-1,1.945081949E0,-1.319048166E0
1.687794431E0,4.026911259E-1,1.811923862E0,-1.309993505E0
1.690269183E0,3.781900406E-1,1.664384723E0,-1.305732369E0
1.692743807E0,3.425036669E-1,1.505660415E0,-1.300406098E0
1.695218559E0,3.121436238E-1,1.355458140E0,-1.312124014E0
1.697693311E0,2.647393644E-1,1.218571544E0,-1.307330370E0
1.700168063E0,2.311835289E-1,1.067836642E0,-1.313189268E0
1.702642815E0,1.917687505E-1,9.432007670E-1,-1.304667115E0
1.705117567E0,1.299834102E-1,8.286848068E-1,-1.323309302E0
1.707592319E0,7.565492392E-2,7.035162449E-1,-1.311591387E0
1.710067071E0,3.304434568E-2,5.943266153E-1,-1.306797624E0
1.712541823E0,-2.447993122E-2,5.123012662E-1,-1.312124014E0
1.715016447E0,-8.306948096E-2,4.345369637E-1,-1.302536607E0
1.717491199E0,-1.448548138E-1,3.690232038E-1,-1.300938725E0
1.719965951E0,-1.970527768E-1,3.296084106E-1,-1.306264997E0
1.722440703E0,-2.444570363E-1,2.864651978E-1,-1.298808217E0
1.724915455E0,-3.009160757E-1,2.667578161E-1,-1.303069234E0
1.727390207E0,-3.323413730E-1,2.614314854E-1,-1.300406098E0
1.729864959E0,-3.674950898E-1,2.300061882E-1,-1.282829285E0
1.732339711E0,-4.143667221E-1,2.033745944E-1,-1.288688183E0
1.734814463E0,-4.463246465E-1,1.959177256E-1,-1.272176623E0
1.737289087E0,-4.718910158E-1,1.581008434E-1,-1.272709250E0
1.739763839E0,-5.682974458E-1,1.056171395E-2,-1.313721895E0
1.742238591E0,-6.599102020E-1,-1.625437737E-1,-1.340353489E0
1.744713343E0,-7.312828898E-1,-2.802554965E-1,-1.376039863E0
1.747188095E0,-7.797524333E-1,-3.170071244E-1,-1.360060930E0
1.749662847E0,-7.882745266E-1,-2.610807121E-1,-1.329168200E0
1.752137599E0,-7.786871791E-1,-1.502932310E-1,-1.281763911E0
1.754612351E0,-7.451313138E-1,-9.093061090E-5,-1.211989164E0
1.757087103E0,-7.067818046E-1,1.671555936E-1,-1.158193231E0
1.759561727E0,-6.758891344E-1,3.184231222E-1,-1.088951111E0
1.762036479E0,-6.077122092E-1,4.585054219E-1,-1.042079449E0
1.764511231E0,-5.475248098E-1,5.783476830E-1,-9.898815155E-1
1.766985983E0,-4.937289357E-1,6.694277525E-1,-9.371508956E-1
1.769460735E0,-4.282151759E-1,7.200278640E-1,-8.881487250E-1
1.771935487E0,-3.712235093E-1,7.567794323E-1,-8.540602922E-1
1.774410239E0,-3.147644997E-1,7.727584243E-1,-8.173086643E-1
1.776890406E0,-2.684254944E-1,7.573121190E-1,-7.826875448E-1
1.779365158E0,-2.140970081E-1,7.147015333E-1,-7.512622476E-1
1.781839910E0,-1.672253758E-1,6.582425237E-1,-6.942706108E-1
1.784314662E0,-1.416590214E-1,6.007182002E-1,-6.537905931E-1
1.786789542E0,-1.086358279E-1,5.298781395E-1,-6.069189310E-1
1.789264294E0,-8.892843127E-2,4.531790912E-1,-5.589820147E-1
1.791739046E0,-8.147158474E-2,3.594358265E-1,-5.115777850E-1
1.794213798E0,-8.892843127E-2,2.822041512E-1,-4.732282162E-1
1.796688550E0,-7.135157287E-2,1.804713905E-1,-4.146386683E-1
1.799163302E0,-7.081893831E-2,1.000439301E-1,-3.725607097E-1
1.801638054E0,-6.655788422E-2,1.056171395E-2,-3.416680396E-1
1.804112806E0,-7.721052319E-2,-6.081100553E-2,-2.937311530E-1
1.806587558E0,-7.561262697E-2,-1.444342732E-1,-2.553816438E-1
1.809062310E0,-9.265685827E-2,-2.078174949E-1,-2.159668654E-1
1.811537062E0,-3.406731412E-2,-1.380426884E-1,-1.786826104E-1
1.814011814E0,2.718539350E-2,-8.424682170E-2,-3.645712435E-1
1.816486566E0,5.168647319E-2,-1.225963458E-1,-8.865508437E-1
1.818961318E0,6.945367903E-3,-2.339164913E-1,-1.586429596E0
1.821436070E0,-6.868840754E-2,-3.351165950E-1,-2.153682709E0
1.823910822E0,-9.585265070E-2,-2.456343770E-1,-2.376322985E0
1.826385574E0,-5.750313401E-2,3.399753198E-2,-2.265535593E0
1.828860326E0,-7.968334481E-3,3.961874545E-1,-1.993893266E0
1.831335078E0,5.221910775E-2,7.285499573E-1,-1.680705547E0
1.833809830E0,7.725282013E-2,9.469291568E-1,-1.384029388E0
1.836284582E0,6.766544282E-2,1.033748269E0,-1.152334332E0
1.838759334E0,-1.576748211E-3,1.014573455E0,-1.029828906E0
1.841234086E0,-8.520001173E-2,9.240259528E-1,-9.467383027E-1
1.843708838E0,-1.842696071E-1,8.340111375E-1,-8.908119202E-1
1.846183590E0,-2.508486211E-1,7.647689581E-1,-8.258307576E-1
1.848658342E0,-2.993181646E-1,7.653015852E-1,-7.587191463E-1
1.851133094E0,-3.264824152E-1,7.993900180E-1,-6.644431949E-1
1.853607846E0,-3.302108347E-1,8.856764436E-1,-5.637757182E-1
1.856082598E0,-3.147644997E-1,1.003388166E0,-4.860113859E-1
1.858557350E0,-3.200908303E-1,1.117904067E0,-4.316829145E-1
1.861032102E0,-2.732191980E-1,1.247866392E0,-3.704302013E-1
1.863506854E0,-2.497833669E-1,1.341076970E0,-3.544512391E-1
1.865981606E0,-2.295433432E-1,1.455060363E0,-3.262217045E-1
1.868456358E0,-1.938569844E-1,1.531759381E0,-3.171669841E-1
1.870931110E0,-1.762801260E-1,1.610588908E0,-3.011879921E-1
1.873418134E0,-1.208863705E-1,1.690483809E0,-2.910679877E-1
1.875892886E0,-8.147158474E-2,1.775172234E0,-2.931985259E-1
1.878367766E0,-4.418732598E-2,1.857197642E0,-2.846764028E-1
1.880842518E0,-5.305173341E-3,1.924841881E0,-2.745563984E-1
1.883317398E0,3.570750728E-2,2.037227392E0,-2.772195637E-1
1.885792150E0,6.233911961E-2,2.111263275E0,-2.676321864E-1
1.888266902E0,1.012212709E-1,2.198614836E0,-2.697626948E-1
1.890741782E0,1.134718135E-1,2.283303499E0,-2.596426904E-1
1.893216534E0,1.363749951E-1,2.355208874E0,-2.431311160E-1
1.895691286E0,1.379728913E-1,2.443625689E0,-2.287500352E-1
1.898166166E0,1.363749951E-1,2.505411148E0,-2.095752805E-1
1.900640918E0,1.262549907E-1,2.544293165E0,-1.999879032E-1
1.903115798E0,1.156023443E-1,2.560804844E0,-1.845415682E-1
1.905590550E0,9.589494765E-2,2.564533234E0,-1.909331530E-1
1.908065302E0,4.582751915E-2,2.525650978E0,-2.026510537E-1
1.910540182E0,1.619045623E-3,2.462800503E0,-2.095752805E-1
1.913014934E0,-5.324207619E-2,2.379709959E0,-2.271521389E-1
1.915489686E0,-9.958107769E-2,2.257204533E0,-2.335437238E-1
1.917964566E0,-1.571053565E-1,2.104871511E0,-2.532511055E-1
1.920439318E0,-2.167601734E-1,1.931766152E0,-2.798827291E-1
1.922914198E0,-2.577728629E-1,1.739485860E0,-2.985248566E-1
1.925388950E0,-3.200908303E-1,1.540281415E0,-3.150364459E-1
1.927863702E0,-3.701582551E-1,1.335218072E0,-3.304827809E-1
1.930338582E0,-4.143667221E-1,1.131219864E0,-3.294175267E-1
1.932813334E0,-4.484551847E-1,9.437333941E-1,-3.288848698E-1
1.935288086E0,-4.761520624E-1,7.679647207E-1,-3.017206490E-1
1.937762966E0,-4.868047237E-1,5.874024034E-1,-2.649690211E-1
1.940237718E0,-4.974573255E-1,4.387980103E-1,-2.319458276E-1
1.942712598E0,-5.065121055E-1,2.997809947E-1,-1.717583835E-1
1.945187350E0,-4.782826006E-1,1.565029323E-1,-1.445941478E-1
1.947662102E0,-4.463246465E-1,1.642066985E-2,-8.493932337E-2
1.950136982E0,-4.090403914E-1,-1.279226542E-1,-3.167610988E-2
1.952611734E0,-3.595055938E-1,-2.669396698E-1,4.129450768E-2
1.955086486E0,-2.876002491E-1,-4.251314700E-1,1.030798480E-1
1.957561366E0,-2.183580697E-1,-5.774642825E-1,1.717893928E-1
1.960036118E0,-1.421916634E-1,-7.228728533E-1,2.335747331E-1
1.962510998E0,-5.750313401E-2,-8.299319744E-1,2.921642959E-1
1.964985750E0,2.345696650E-2,-9.439152479E-1,3.693959713E-1
1.967460502E0,1.044170633E-1,-1.021146894E0,4.386381507E-1
1.969935382E0,1.773876846E-1,-1.099443913E0,4.993582368E-1
1.972406145E0,2.498256564E-1,-1.160163879E0,5.606108904E-1
1.974880897E0,3.190678656E-1,-1.208100796E0,6.192004681E-1
1.977355649E0,3.728637099E-1,-1.240591407E0,6.761921048E-1
1.979830529E0,4.303879738E-1,-1.277343035E0,7.251942754E-1
1.982305281E0,4.634111822E-1,-1.314094663E0,7.512932420E-1
1.984780033E0,4.927059710E-1,-1.323682070E0,7.427711487E-1
1.987254913E0,5.209354758E-1,-1.319953561E0,7.209331989E-1
1.989729665E0,5.470344424E-1,-1.295452476E0,7.070847750E-1
1.992204417E0,5.763292313E-1,-1.250711441E0,6.666046977E-1
1.994679169E0,6.066892743E-1,-1.193719745E0,6.053520441E-1
1.997154049E0,6.114829183E-1,-1.135130167E0,5.361098051E-1
1.999628801E0,5.928407907E-1,-1.036593199E0,4.519539773E-1
2.002103553E0,5.752639771E-1,-9.492415786E-1,3.677980602E-1
2.004578305E0,5.582197309E-1,-8.293992877E-1,2.735221684E-1
2.007053185E0,5.129460096E-1,-7.420476079E-1,1.792462468E-1
2.009527937E0,4.431711733E-1,-6.690770388E-1,9.828615934E-2
2.012002689E0,3.600805402E-1,-6.120853424E-1,2.904396504E-2
2.014477569E0,2.817836106E-1,-5.380494595E-1,-2.102346346E-2
2.016952321E0,1.896382272E-1,-4.554914832E-1,-6.097088382E-2
2.019427073E0,1.086781248E-1,-3.814556003E-1,-9.239617735E-2
2.021901825E0,2.558749728E-2,-2.866470814E-1,-1.094404086E-1
2.024376705E0,-5.324207619E-2,-2.163396180E-1,-1.152993664E-1
2.026851457E0,-1.187558323E-1,-1.194005460E-1,-1.099730432E-1
2.029326209E0,-1.938569844E-1,-3.790781647E-2,-1.115709394E-1
2.031801089E0,-2.332717627E-1,4.571544006E-2,-1.105056778E-1
2.034275841E0,-2.721539140E-1,1.170881614E-1,-1.163646355E-1
2.036750593E0,-2.923939526E-1,1.873956025E-1,-1.083751470E-1
2.039225345E0,-2.923939526E-1,2.087008953E-1,-1.115709394E-1
2.041700225E0,-2.556423247E-1,2.704862356E-1,-1.190277860E-1
2.044174977E0,-2.279454470E-1,3.306736648E-1,-1.200930551E-1
2.046649729E0,-1.784106493E-1,4.015137553E-1,-1.472572982E-1
2.049124481E0,-1.528442949E-1,4.840717614E-1,-1.829436570E-1
2.051599361E0,-1.139621511E-1,5.719560981E-1,-2.090426385E-1
2.054074113E0,-1.070379317E-1,6.252192855E-1,-2.133037001E-1
2.056548865E0,-1.208863705E-1,6.507856250E-1,-2.388700396E-1
2.059023745E0,-1.416590214E-1,6.172298193E-1,-2.479247898E-1
2.061498497E0,-1.826717108E-1,4.867349267E-1,-2.436637431E-1
2.063973249E0,-2.226191163E-1,3.535768688E-1,-2.117058039E-1
2.066448001E0,-1.970527768E-1,2.427893579E-1,-1.765520722E-1
2.068922881E0,-1.480506063E-1,1.234797463E-1,-1.051793545E-1
2.071406871E0,-6.762314588E-2,-6.235623732E-4,-5.511192605E-2
2.073881751E0,1.813064516E-2,-1.098131686E-1,-5.044496618E-3
2.076356503E0,1.097433865E-1,-1.982301176E-1,3.703344986E-2
2.078831383E0,1.795182079E-1,-2.504280806E-1,8.923140913E-2
2.081306135E0,2.327814251E-1,-2.919734120E-1,1.233198717E-1
2.083781015E0,2.679351568E-1,-3.196702600E-1,1.515493691E-1
2.086255767E0,2.849794030E-1,-3.463018835E-1,1.669957042E-1
2.088730647E0,2.892404497E-1,-3.612155914E-1,1.835073084E-1
2.091205399E0,2.833814919E-1,-3.676071763E-1,1.840399355E-1
2.093680279E0,2.833814919E-1,-3.564218879E-1,2.032147050E-1
2.096155031E0,2.610109448E-1,-3.425734639E-1,1.968231201E-1
2.098629911E0,2.439667135E-1,-3.335187137E-1,1.808441430E-1
2.101104663E0,2.205308974E-1,-3.361818790E-1,1.685936004E-1
2.103579543E0,1.992256045E-1,-3.244639635E-1,1.329072565E-1
2.106054295E0,1.800508350E-1,-3.063544631E-1,1.094714329E-1
2.108529175E0,1.491581649E-1,-3.020934165E-1,9.029667825E-2
2.111003927E0,1.225265563E-1,-3.047565818E-1,6.845875084E-2
2.113478807E0,8.737283200E-2,-2.866470814E-1,5.141451955E-2
2.115953559E0,6.127385423E-2,-2.605480850E-1,3.756608069E-2
2.118428439E0,2.771802433E-2,-2.397754192E-1,1.093447115E-2
2.120903191E0,7.478000131E-3,-2.136764526E-1,1.253236830E-2
2.123378071E0,-5.837806035E-3,-1.982301176E-1,-8.772921748E-3
2.125852823E0,-3.033888899E-2,-1.763921976E-1,-1.037081797E-2
2.128327703E0,-3.939363733E-2,-1.529563665E-1,-9.838185273E-3
2.130802455E0,-4.045890272E-2,-1.364447773E-1,-2.155609429E-2
2.133277207E0,-4.791575298E-2,-1.241942421E-1,-2.634978667E-2
2.135752087E0,-4.312206432E-2,-1.060847417E-1,-2.475189045E-2
2.138226839E0,-3.992626816E-2,-9.756262600E-2,-2.421925589E-2
2.140701719E0,-4.205679893E-2,-8.105102926E-2,-2.794768289E-2
2.143176471E0,-4.312206432E-2,-7.625734061E-2,-2.581715211E-2
2.145651351E0,-4.578522593E-2,-8.584471792E-2,-2.901294827E-2
2.148126103E0,-4.205679893E-2,-8.371418715E-2,-3.274137154E-2
2.150600983E0,-3.619784489E-2,-8.904051036E-2,-2.848031372E-2
2.153075735E0,-5.004628003E-2,-9.756262600E-2,-1.942556724E-2
2.155550615E0,-3.939363733E-2,-9.809526056E-2,-2.848031372E-2
2.158025367E0,-2.234940417E-2,-1.263247728E-1,-1.463187579E-2
2.160500247E0,-3.992626816E-2,-1.321837306E-1,-2.634978667E-2
2.162974999E0,-3.832837194E-2,-1.529563665E-1,-3.007820994E-2
2.165449879E0,-3.832837194E-2,-1.689353585E-1,-2.848031372E-2
2.167924631E0,-4.045890272E-2,-1.859795749E-1,-2.475189045E-2
2.170396851E0,-4.471996054E-2,-1.907732785E-1,-3.966559097E-2
2.172871603E0,-5.217681080E-2,-1.934364438E-1,-3.700242937E-2
2.175346483E0,-5.164417997E-2,-1.950343251E-1,-4.019822553E-2
2.177821235E0,-5.910103023E-2,-1.769248247E-1,-5.351402983E-2
2.180295987E0,-6.495998800E-2,-1.726637781E-1,-5.351402983E-2
2.182770867E0,-7.294946909E-2,-1.545542777E-1,-6.310140342E-2
2.185245619E0,-7.507999986E-2,-1.444342732E-1,-5.724245682E-2
2.187720499E0,-8.413474262E-2,-1.135415956E-1,-6.150351092E-2
2.190195251E0,-7.614526153E-2,-9.330157191E-2,-5.937298760E-2
2.192670003E0,-7.667789608E-2,-6.880048662E-2,-6.789509207E-2
2.195144883E0,-7.241683453E-2,-4.749519750E-2,-5.724245682E-2
2.197619635E0,-7.135157287E-2,-3.098359890E-2,-5.884035304E-2
2.200094515E0,-5.750313401E-2,-4.884620197E-3,-5.351402983E-2
2.202569267E0,-6.123156101E-2,1.162697934E-2,-5.191613361E-2
2.205044019E0,-5.430734158E-2,2.813857794E-2,-4.392664880E-2
2.207518899E0,-4.418732598E-2,4.731334001E-2,-3.380663693E-2
2.209993651E0,-4.312206432E-2,5.583545566E-2,-3.487190232E-2
2.212468531E0,-3.140415251E-2,6.968389452E-2,-3.487190232E-2
2.214943283E0,-3.246941790E-2,9.205444902E-2,-3.114347532E-2
2.217418035E0,-2.341466956E-2,8.779338747E-2,-2.954557911E-2
2.219892915E0,-1.755571365E-2,9.578286856E-2,-1.463187579E-2
2.222367667E0,-1.595781744E-2,9.897866100E-2,-1.409924310E-2
2.224842547E0,-1.329465583E-2,1.154902652E-1,-1.356661227E-2
2.227317299E0,-1.044115517E-3,9.684813768E-2,-6.642392837E-3
2.229792179E0,-1.044115517E-3,9.844603390E-2,1.093447115E-2
2.232266931E0,4.814838991E-3,1.096313074E-1,4.542884417E-3
2.234741683E0,7.478000131E-3,1.037723571E-1,5.608148873E-3
2.237216563E0,1.173905842E-2,1.016418263E-1,-5.577127449E-3
2.239691315E0,1.813064516E-2,1.165555343E-1,7.738677785E-3
2.242166195E0,2.132643759E-2,1.037723571E-1,1.040183939E-2
2.244640947E0,3.038118593E-2,1.112292036E-1,1.839132234E-2
2.247115699E0,2.825065702E-2,1.293387115E-1,1.998921856E-2
2.249590579E0,3.197908029E-2,1.463829279E-1,7.738677785E-3
2.252065331E0,3.038118593E-2,1.442523897E-1,1.253236830E-2
2.254540211E0,3.677277267E-2,1.485134661E-1,1.306500006E-2
2.257014963E0,3.464224190E-2,1.612966359E-1,8.803942241E-3
2.259489715E0,4.103383049E-2,1.740798056E-1,1.413026452E-2
2.261964595E0,3.943593055E-2,1.783408523E-1,1.306500006E-2
2.264439347E0,3.890329972E-2,1.692861319E-1,1.199973561E-2
2.266914227E0,3.890329972E-2,1.783408523E-1,-2.508061007E-4
2.269393293E0,3.943593055E-2,1.895261407E-1,-1.316069625E-3
2.271868173E0,3.837066889E-2,1.826019287E-1,5.075517111E-3
2.274342925E0,4.476225376E-2,1.841998100E-1,-2.508061007E-4
2.276817805E0,3.517487645E-2,1.948524714E-1,-7.175023668E-3
2.279292557E0,3.304434568E-2,1.937871873E-1,-9.305554442E-3
2.281767437E0,3.570750728E-2,1.916566789E-1,-2.508061007E-4
2.284242189E0,3.410961106E-2,1.985808909E-1,-1.569714025E-2
2.286717069E0,3.144644946E-2,2.007114291E-1,-9.838185273E-3
2.289191821E0,2.292433567E-2,1.959177256E-1,-1.836030185E-2
2.291666701E0,3.357698023E-2,1.985808909E-1,-1.729503646E-2
2.294141453E0,2.505486459E-2,1.900587678E-1,-1.090345066E-2
2.296616333E0,2.132643759E-2,1.927219331E-1,-5.044496618E-3
2.299091085E0,2.452223189E-2,1.953850985E-1,-2.528452128E-2
2.301565965E0,2.718539350E-2,1.820693016E-1,-1.250134688E-2
2.304040717E0,2.505486459E-2,1.985808909E-1,-2.262135968E-2
2.306515597E0,2.398959920E-2,1.879282594E-1,-1.729503646E-2
2.308990349E0,2.452223189E-2,1.724819243E-1,-1.889293268E-2
2.311465229E0,2.558749728E-2,1.916566789E-1,-2.102346346E-2
2.313939981E0,2.505486459E-2,1.900587678E-1,-1.463187579E-2
2.316414861E0,2.984855510E-2,1.863303483E-1,-1.409924310E-2
2.318889613E0,2.398959920E-2,1.692861319E-1,-1.250134688E-2
2.321364493E0,2.398959920E-2,1.783408523E-1,-1.250134688E-2
2.323839245E0,2.292433567E-2,1.682208478E-1,-2.913965844E-3
2.326314125E0,1.919590868E-2,1.767429709E-1,-1.303397957E-2
2.328788877E0,2.345696650E-2,1.751450598E-1,5.075517111E-3
2.331263757E0,8.543264121E-3,1.778082252E-1,-1.090345066E-2
2.333738509E0,5.347471219E-3,1.692861319E-1,-5.044496618E-3
2.336213389E0,1.173905842E-2,1.810040176E-1,5.075517111E-3
2.338688269E0,-1.044115517E-3,1.905913949E-1,9.869206697E-3
2.341163021E0,-6.370437797E-3,2.028419375E-1,1.413026452E-2
2.343637901E0,-3.174644429E-3,2.118966877E-1,2.158711478E-2
2.346112653E0,-1.489255391E-2,1.991135180E-1,2.265238017E-2
2.348587533E0,-1.702308096E-2,2.246798575E-1,1.466289721E-2
2.351062285E0,-2.021887526E-2,2.193535566E-1,3.064186499E-2
2.353537165E0,-1.542518474E-2,2.294735610E-1,1.998921856E-2
2.356011917E0,-2.128413878E-2,2.342672646E-1,2.105448395E-2
2.358486797E0,-2.980625443E-2,2.278756499E-1,2.584817261E-2
2.360961549E0,-2.288203686E-2,2.188209295E-1,2.318501100E-2
2.363436429E0,-2.927362360E-2,2.411914468E-1,3.223976120E-2
2.365911181E0,-2.980625443E-2,2.369304001E-1,2.744606882E-2
2.368386051E0,-3.353468329E-2,2.427893579E-1,4.182713851E-2
2.370860931E0,-3.779574111E-2,2.449198961E-1,2.904396504E-2
2.373335683E0,-2.820835821E-2,2.358651459E-1,3.064186499E-2
2.375810563E0,-3.726311028E-2,2.363977730E-1,3.703344986E-2
2.378285315E0,-3.087151982E-2,2.406588197E-1,3.117449582E-2
2.380760195E0,-2.980625443E-2,2.273430228E-1,4.129450768E-2
2.383235075E0,-3.939363733E-2,2.433219850E-1,3.064186499E-2
2.385709827E0,-3.033888899E-2,2.433219850E-1,3.437028825E-2
2.388184707E0,-3.353468329E-2,2.289409339E-1,3.223976120E-2
2.390659459E0,-3.087151982E-2,2.134945989E-1,3.330502287E-2
2.393134339E0,-2.447993122E-2,2.166903913E-1,4.449030012E-2
2.395609091E0,-2.501256578E-2,1.996461451E-1,3.383765742E-2
2.398083971E0,-2.874099277E-2,1.916566789E-1,2.691343799E-2
2.400558851E0,-2.820835821E-2,2.028419375E-1,4.235977307E-2
2.403033603E0,-2.341466956E-2,2.001788020E-1,3.437028825E-2
2.405508483E0,-2.234940417E-2,1.916566789E-1,3.330502287E-2
2.407983235E0,-3.406731412E-2,1.783408523E-1,4.129450768E-2
2.410458115E0,-1.702308096E-2,1.591660976E-1,4.022924230E-2
2.412932995E0,-2.341466956E-2,1.698187590E-1,4.182713851E-2
2.415407747E0,-1.595781744E-2,1.639598012E-1,3.916398063E-2
2.417882627E0,-2.394730039E-2,1.469155550E-1,4.182713851E-2
2.420357379E0,-2.394730039E-2,1.426545084E-1,4.662083089E-2
2.422832259E0,-1.808834635E-2,1.447850466E-1,4.768609256E-2
2.425307011E0,-1.968624257E-2,1.453176737E-1,4.502293095E-2
2.427781891E0,-2.234940417E-2,1.383934617E-1,4.981662333E-2
2.430256771E0,-2.288203686E-2,1.346650124E-1,4.821872711E-2
2.432731523E0,-3.033888899E-2,1.442523897E-1,5.567557737E-2
2.435206403E0,-3.140415251E-2,1.490460932E-1,3.596818447E-2
2.437681155E0,-2.874099277E-2,1.415892541E-1,3.596818447E-2
2.440156035E0,-3.193678707E-2,1.453176737E-1,3.490292281E-2
2.442630787E0,-3.992626816E-2,1.320018768E-1,4.022924230E-2
2.445105667E0,-3.033888899E-2,1.383934617E-1,3.330502287E-2
2.447580547E0,-3.300204873E-2,1.304039657E-1,2.851133421E-2
2.450055299E0,-4.152416438E-2,1.373281777E-1,1.892395504E-2
2.452530179E0,-4.258942977E-2,1.410565972E-1,2.371764556E-2
2.455004931E0,-4.738312215E-2,1.389260888E-1,1.679342613E-2
2.457479811E0,-5.111154541E-2,1.351976693E-1,1.253236830E-2
2.459954691E0,-4.738312215E-2,1.330671310E-1,1.679342613E-2
2.462429443E0,-5.004628003E-2,1.288060546E-1,1.093447115E-2
2.464904323E0,-4.685048759E-2,1.373281777E-1,1.626079343E-2
2.467366882E0,-6.016629189E-2,1.304039657E-1,5.075517111E-3
2.469841634E0,-5.803576857E-2,1.362629235E-1,3.477619961E-3
2.472316386E0,-5.856839567E-2,1.341323853E-1,8.144592866E-4
2.474791266E0,-5.643786490E-2,1.394587159E-1,1.347091049E-3
2.477266018E0,-5.430734158E-2,1.245450154E-1,4.542884417E-3
2.479740898E0,-5.643786490E-2,1.234797463E-1,-1.196871419E-2
2.482215650E0,-5.643786490E-2,1.234797463E-1,-3.446598537E-3
2.484690402E0,-5.164417997E-2,1.341323853E-1,-3.446598537E-3
2.487165282E0,-5.803576857E-2,1.314692199E-1,-8.240289055E-3
2.489640034E0,-5.697049946E-2,1.298713386E-1,-1.676240563E-2
2.492114786E0,-6.815578043E-2,1.304039657E-1,-2.421925589E-2
2.494589666E0,-6.336208433E-2,1.293387115E-1,-1.782767102E-2
2.497064418E0,-5.803576857E-2,1.426545084E-1,-2.155609429E-2
2.499539298E0,-5.697049946E-2,1.266755462E-1,-1.303397957E-2
2.502014050E0,-6.176418811E-2,1.383934617E-1,-1.676240563E-2
2.504488802E0,-6.123156101E-2,1.383934617E-1,-9.305554442E-3
2.506963682E0,-4.738312215E-2,1.304039657E-1,-2.049083263E-2
2.509438434E0,-4.365469515E-2,1.288060546E-1,-2.102346346E-2
2.511913186E0,-3.779574111E-2,1.431871355E-1,-1.409924310E-2
2.514388066E0,-3.513257951E-2,1.346650124E-1,-1.836030185E-2
2.516862818E0,-2.980625443E-2,1.346650124E-1,-1.143608149E-2
2.519337698E0,-3.193678707E-2,1.351976693E-1,-1.303397957E-2
2.521812450E0,-3.246941790E-2,1.288060546E-1,-1.836030185E-2
2.524287202E0,-2.501256578E-2,1.261429191E-1,-1.782767102E-2
2.526762082E0,-3.619784489E-2,1.170881614E-1,-1.836030185E-2
2.529236834E0,-3.140415251E-2,1.053702533E-1,-1.356661227E-2
2.531711586E0,-2.661046200E-2,1.112292036E-1,-1.836030185E-2
2.534186466E0,-2.927362360E-2,1.106965765E-1,-9.838185273E-3
2.536661218E0,-2.128413878E-2,9.311971068E-2,-1.463187579E-2
2.539136098E0,-3.033888899E-2,9.951129556E-2,-1.942556724E-2
2.541610850E0,-2.980625443E-2,9.205444902E-2,-2.155609429E-2
2.544085602E0,-3.566521034E-2,9.152181447E-2,-1.942556724E-2
2.546560482E0,-3.300204873E-2,9.045654535E-2,-1.676240563E-2
2.549035234E0,-2.874099277E-2,9.365234524E-2,-1.196871419E-2
2.551509986E0,-3.353468329E-2,8.939128369E-2,-1.463187579E-2
2.553984866E0,-3.886100650E-2,8.513022959E-2,-1.090345066E-2
2.556459618E0,-4.258942977E-2,7.394494861E-2,-9.305554442E-3
2.558934498E0,-4.685048759E-2,8.086916804E-2,-1.143608149E-2
2.561409250E0,-5.111154541E-2,7.927127182E-2,-1.250134688E-2
2.563884002E0,-5.910103023E-2,8.246706426E-2,-2.368662506E-2
2.566342008E0,-5.697049946E-2,7.660811394E-2,-1.303397957E-2
2.568816760E0,-6.229682267E-2,7.181441784E-2,-8.772921748E-3
2.571291512E0,-6.336208433E-2,7.501021773E-2,-1.676240563E-2
2.573766264E0,-6.016629189E-2,7.128179073E-2,-9.305554442E-3
2.576241016E0,-7.241683453E-2,7.607547939E-2,-1.516450848E-2
2.578715768E0,-6.815578043E-2,6.595546752E-2,-5.044496618E-3
2.581190520E0,-6.868840754E-2,7.501021773E-2,-1.516450848E-2
2.583665400E0,-7.081893831E-2,7.873863727E-2,-1.037081797E-2
2.586140152E0,-6.655788422E-2,7.287968695E-2,-1.196871419E-2
2.588614904E0,-6.389471889E-2,6.222704053E-2,-1.463187579E-2
2.591089656E0,-6.069892645E-2,5.956388265E-2,-6.109760143E-3
2.593564408E0,-5.590523779E-2,6.702072918E-2,-2.913965844E-3
2.596039160E0,-4.738312215E-2,6.275967509E-2,-9.838185273E-3
2.598513912E0,-4.312206432E-2,5.583545566E-2,-2.381335013E-3
2.600988664E0,-5.004628003E-2,5.956388265E-2,2.412355505E-3
2.603463416E0,-3.673047572E-2,5.370492488E-2,-9.838185273E-3
2.605938168E0,-2.661046200E-2,5.743335187E-2,-8.772921748E-3
2.608412920E0,-2.661046200E-2,4.784597084E-2,-6.642392837E-3
2.610887672E0,-3.140415251E-2,5.317229033E-2,-7.175023668E-3
2.613362424E0,-2.874099277E-2,6.702072918E-2,-1.889293268E-2
2.615837176E0,-2.927362360E-2,4.465017840E-2,-1.676240563E-2
2.618311928E0,-2.767572738E-2,5.157439411E-2,-1.676240563E-2
2.620786680E0,-2.661046200E-2,3.559542820E-2,-2.421925589E-2
2.623261432E0,-2.394730039E-2,4.198701680E-2,-2.634978667E-2
2.625736184E0,-2.927362360E-2,3.506279737E-2,-1.942556724E-2
2.628211064E0,-2.820835821E-2,2.281225473E-2,-2.901294827E-2
2.630685816E0,-2.447993122E-2,1.801856607E-2,-2.688241750E-2
2.633160568E0,-3.300204873E-2,2.867120877E-2,-3.220874071E-2
2.635635320E0,-3.886100650E-2,2.387752011E-2,-4.126348719E-2
2.638110072E0,-4.418732598E-2,1.429013908E-2,-3.114347532E-2
2.640584824E0,-5.483997241E-2,2.227962390E-2,-3.913296014E-2
2.643059576E0,-5.217681080E-2,2.014909312E-2,-4.445927963E-2
2.645534328E0,-5.217681080E-2,1.695330068E-2,-3.753506392E-2
2.648009080E0,-5.856839567E-2,2.014909312E-2,-4.392664880E-2
2.650483832E0,-6.229682267E-2,1.695330068E-2,-4.019822553E-2
2.652958584E0,-6.016629189E-2,1.002908126E-2,-3.327400610E-2
2.655433336E0,-7.135157287E-2,2.068172768E-2,-3.806769475E-2
2.657908088E0,-7.294946909E-2,2.920384333E-2,-4.765507579E-2
2.660382840E0,-6.975367665E-2,1.801856607E-2,-3.540453315E-2
2.662857592E0,-7.454736531E-2,2.494278550E-2,-2.848031372E-2
2.665325984E0,-7.774315774E-2,1.642066985E-2,-3.913296014E-2
2.667800736E0,-7.135157287E-2,1.642066985E-2,-3.433926776E-2
2.670275488E0,-8.200421929E-2,1.215961203E-2,-3.274137154E-2
2.672750240E0,-8.892843127E-2,2.760594711E-2,-1.889293268E-2
2.675224992E0,-7.721052319E-2,1.748593152E-2,-2.421925589E-2
2.677699744E0,-8.200421929E-2,1.908383146E-2,-2.102346346E-2
2.680174496E0,-7.614526153E-2,3.080173954E-2,-1.942556724E-2
2.682649248E0,-8.466737717E-2,1.056171395E-2,-1.622977108E-2
2.685124000E0,-8.200421929E-2,8.431185037E-3,-6.109760143E-3
2.687598752E0,-9.105896205E-2,3.104863688E-3,-1.143608149E-2
2.690073504E0,-7.880841941E-2,8.963817731E-3,-1.995819807E-2
2.692548256E0,-7.987368852E-2,4.417020828E-4,-1.516450848E-2
2.695022880E0,-7.934105396E-2,5.235392600E-3,-1.942556724E-2
2.697497632E0,-7.561262697E-2,-1.127620693E-2,-8.772921748E-3
2.699972384E0,-7.934105396E-2,-1.180883870E-2,-5.044496618E-3
2.702447136E0,-7.135157287E-2,-8.080413565E-3,-1.250134688E-2
2.704921888E0,-6.229682267E-2,-2.778780647E-2,-7.175023668E-3
2.707396640E0,-6.602524966E-2,-1.979832351E-2,-1.090345066E-2
2.709871392E0,-6.389471889E-2,-2.139621973E-2,-2.741504833E-2
2.712346144E0,-5.803576857E-2,-3.045096621E-2,-1.942556724E-2
2.714820896E0,-6.016629189E-2,-3.417939320E-2,-1.676240563E-2
2.717295648E0,-4.844838381E-2,-3.258149698E-2,-3.487190232E-2
2.719770400E0,-4.791575298E-2,-4.642993212E-2,-3.114347532E-2
2.722245152E0,-5.057891458E-2,-5.441941693E-2,-3.860032558E-2
2.724719904E0,-5.750313401E-2,-4.589730129E-2,-4.232875258E-2
2.727194656E0,-5.324207619E-2,-5.601731315E-2,-3.593716398E-2
2.729669280E0,-5.430734158E-2,-5.122362450E-2,-5.777508393E-2
2.732144032E0,-4.631785676E-2,-7.306154072E-2,-5.617718771E-2
2.734618784E0,-4.578522593E-2,-6.560469419E-2,-5.404666439E-2
2.737093536E0,-5.430734158E-2,-6.666995585E-2,-6.150351092E-2
2.739568288E0,-5.270944163E-2,-7.625734061E-2,-6.097088382E-2
2.742043040E0,-5.856839567E-2,-9.010577947E-2,-7.109089196E-2
2.744517792E0,-5.963366479E-2,-1.012910530E-1,-7.322141528E-2
2.746992544E0,-6.176418811E-2,-9.010577947E-2,-6.949299574E-2
2.749467296E0,-6.442735344E-2,-9.276893735E-2,-7.481931150E-2
2.751942048E0,-7.294946909E-2,-1.034215838E-1,-7.428668439E-2
2.754416800E0,-6.922104210E-2,-1.082152724E-1,-7.322141528E-2
2.756891552E0,-8.093895018E-2,-1.060847417E-1,-7.748247683E-2
2.759366304E0,-8.040631562E-2,-1.071500108E-1,-7.002562284E-2
2.761841056E0,-8.520001173E-2,-9.969315678E-2,-7.428668439E-2
2.764311563E0,-8.253684640E-2,-8.797524869E-2,-6.310140342E-2
2.766786315E0,-8.253684640E-2,-8.957314491E-2,-7.375404984E-2
2.769261067E0,-7.987368852E-2,-9.383419901E-2,-7.215615362E-2
2.771735691E0,-9.372212738E-2,-8.637735248E-2,-7.215615362E-2
2.774210443E0,-9.638528526E-2,-7.838786393E-2,-7.748247683E-2
2.776685195E0,-9.851581603E-2,-6.773522496E-2,-7.854773849E-2
2.779159947E0,-9.904845059E-2,-7.678997517E-2,-6.523193419E-2
2.781634571E0,-1.027768701E-1,-5.282152072E-2,-5.830771849E-2
2.784109323E0,-1.001137123E-1,-4.589730129E-2,-5.937298760E-2
2.786584075E0,-1.107663587E-1,-4.589730129E-2,-7.055825740E-2
2.789058827E0,-1.027768701E-1,-3.524465859E-2,-6.523193419E-2
2.791533579E0,-1.054400355E-1,-3.045096621E-2,-7.055825740E-2
2.794008203E0,-1.086358279E-1,-3.311412781E-2,-7.002562284E-2
2.796482955E0,-1.134295166E-1,-3.737518564E-2,-5.617718771E-2
2.798957707E0,-1.128968820E-1,-3.577728942E-2,-6.363403797E-2
2.801432459E0,-1.118316203E-1,-3.577728942E-2,-5.830771849E-2
2.803907211E0,-1.086358279E-1,-3.577728942E-2,-6.576456875E-2
2.806381835E0,-1.107663587E-1,-4.216887802E-2,-5.031823739E-2
2.808856587E0,-1.091684625E-1,-4.696256667E-2,-5.244876817E-2
2.811331339E0,-9.851581603E-2,-5.654994771E-2,-4.445927963E-2
2.813806091E0,-1.091684625E-1,-6.507205963E-2,-5.617718771E-2
2.816280715E0,-9.532002360E-2,-6.773522496E-2,-5.351402983E-2
2.818755467E0,-8.360211551E-2,-7.945313305E-2,-4.765507579E-2
2.821230219E0,-7.934105396E-2,-8.584471792E-2,-5.085086450E-2
2.823704971E0,-7.188419998E-2,-9.010577947E-2,-4.232875258E-2
2.826179723E0,-7.774315774E-2,-8.531208336E-2,-4.445927963E-2
2.828654347E0,-6.176418811E-2,-8.797524869E-2,-3.806769475E-2
2.831129099E0,-5.910103023E-2,-7.998576760E-2,-4.392664880E-2
2.833603851E0,-4.525259137E-2,-7.252891362E-2,-3.220874071E-2
2.836078603E0,-4.844838381E-2,-7.892049849E-2,-3.380663693E-2
2.838553355E0,-3.886100650E-2,-6.240890175E-2,-2.794768289E-2
2.841027979E0,-2.820835821E-2,-6.400679797E-2,-3.007820994E-2
2.843502731E0,-2.288203686E-2,-6.560469419E-2,-3.007820994E-2
2.845977483E0,-1.702308096E-2,-4.163624346E-2,-3.540453315E-2
2.848452235E0,-2.128413878E-2,-4.856046289E-2,-3.487190232E-2
2.850926859E0,-1.542518474E-2,-5.548468232E-2,-2.794768289E-2
2.853401611E0,-1.382728852E-2,-4.642993212E-2,-2.848031372E-2
2.855876363E0,-1.915361173E-2,-3.258149698E-2,-3.540453315E-2
2.858351115E0,-1.702308096E-2,-3.790781647E-2,-3.593716398E-2
2.860825867E0,-3.246941790E-2,-4.696256667E-2,-3.327400610E-2
2.863299712E0,-3.300204873E-2,-3.950571269E-2,-1.889293268E-2
2.865774464E0,-2.234940417E-2,-3.737518564E-2,-3.540453315E-2
2.868249216E0,-3.513257951E-2,-3.417939320E-2,-3.540453315E-2
2.870723840E0,-3.992626816E-2,-4.003834724E-2,-3.114347532E-2
2.873198592E0,-3.087151982E-2,-2.405938134E-2,-3.646979854E-2
2.875673344E0,-3.406731412E-2,-3.311412781E-2,-2.741504833E-2
2.878148096E0,-4.258942977E-2,-1.713516191E-2,-3.114347532E-2
2.880622720E0,-4.471996054E-2,-1.766779274E-2,-3.806769475E-2
2.883097472E0,-3.726311028E-2,-1.713516191E-2,-3.540453315E-2
2.885572224E0,-4.365469515E-2,-7.015149109E-3,-2.528452128E-2
2.888046976E0,-4.525259137E-2,-5.949884653E-3,-4.605717957E-2
2.890521600E0,-5.164417997E-2,3.637496382E-3,-3.646979854E-2
2.892996352E0,-4.312206432E-2,8.963817731E-3,-4.818770662E-2
2.895471104E0,-4.418732598E-2,5.235392600E-3,-3.806769475E-2
2.897945856E0,-5.430734158E-2,-1.156194136E-3,-4.286138341E-2
2.900420480E0,-5.270944163E-2,-2.754091285E-3,-5.031823739E-2
2.902895232E0,-5.057891458E-2,2.572230995E-3,-4.339401796E-2
2.905369984E0,-4.898101836E-2,-9.093061090E-5,-4.392664880E-2
2.907844736E0,-4.631785676E-2,-9.678309783E-3,-4.872034118E-2
2.910319488E0,-5.057891458E-2,-1.180883870E-2,-4.605717957E-2
2.912794112E0,-5.537260324E-2,-3.098359890E-2,-3.327400610E-2
2.915268864E0,-4.738312215E-2,-2.086358704E-2,-3.966559097E-2
2.917743616E0,-4.418732598E-2,-3.364676237E-2,-4.179612175E-2
2.920218368E0,-4.951364920E-2,-3.364676237E-2,-4.499191418E-2
2.922692992E0,-4.471996054E-2,-4.110361263E-2,-3.593716398E-2
2.925167744E0,-3.992626816E-2,-5.814784393E-2,-2.634978667E-2
2.927642496E0,-4.099153355E-2,-7.093101740E-2,-3.114347532E-2
2.930117248E0,-2.767572738E-2,-6.507205963E-2,-2.688241750E-2
2.932591872E0,-4.152416438E-2,-7.306154072E-2,-2.102346346E-2
2.935066624E0,-2.874099277E-2,-8.371418715E-2,-1.889293268E-2
2.937541376E0,-2.714309283E-2,-7.572470605E-2,-2.102346346E-2
2.940016128E0,-2.394730039E-2,-7.785523683E-2,-1.409924310E-2
2.942490752E0,-2.021887526E-2,-8.105102926E-2,-1.889293268E-2
2.944965504E0,-5.837806035E-3,-6.720259041E-2,-1.409924310E-2
2.947440256E0,-7.968334481E-3,-6.453943253E-2,-8.772921748E-3
2.949915008E0,-1.329465583E-2,-4.856046289E-2,-7.707656361E-3
2.952389632E0,-5.305173341E-3,-5.495204777E-2,-1.356661227E-2
2.954864384E0,-1.009886339E-2,-4.003834724E-2,-1.250134688E-2
2.957339136E0,-9.033598006E-3,-4.696256667E-2,-6.109760143E-3
2.959813888E0,-3.174644429E-3,-3.364676237E-2,-5.044496618E-3
2.962279614E0,-7.435702253E-3,-3.311412781E-2,-1.316069625E-3
2.964754366E0,-7.435702253E-3,-2.725517377E-2,-6.642392837E-3
2.967228990E0,-3.707277123E-3,-1.926569082E-2,-1.569714025E-2
2.969703742E0,-8.500965312E-3,-1.553726476E-2,3.477619961E-3
2.972178366E0,-2.021887526E-2,-1.660252921E-2,-7.834378630E-4
2.974653118E0,-3.246941790E-2,-1.180883870E-2,-7.175023668E-3
2.977127742E0,-1.009886339E-2,-2.139621973E-2,4.542884417E-3
2.979602494E0,-3.174644429E-3,-1.500463299E-2,-2.381335013E-3
2.982077118E0,-1.702308096E-2,-1.606989652E-2,-8.240289055E-3
2.984551742E0,-2.234940417E-2,-3.286723047E-3,2.818265930E-4
2.987026494E0,-1.808834635E-2,-1.156194136E-3,-2.913965844E-3
2.989501118E0,-1.702308096E-2,-1.447200030E-2,-3.446598537E-3
2.991975870E0,-2.075150795E-2,-1.713516191E-2,-1.316069625E-3
2.994450494E0,-1.808834635E-2,-1.820042543E-2,-2.913965844E-3
2.996925246E0,-1.915361173E-2,-2.033095434E-2,-6.642392837E-3
2.999399870E0,-1.009886339E-2,-2.885306999E-2,-1.090345066E-2
3.001874622E0,-1.063149609E-2,-3.684255481E-2,2.412355505E-3
3.004349246E0,-2.767572738E-2,-2.938570268E-2,2.412355505E-3
3.006823998E0,-1.968624257E-2,-3.471202403E-2,-6.642392837E-3
3.009298622E0,-2.075150795E-2,-3.897308186E-2,-4.511863925E-3
3.011773374E0,-1.755571365E-2,-4.856046289E-2,8.803942241E-3
3.014247998E0,-1.968624257E-2,-5.228888988E-2,-2.381335013E-3
3.016722750E0,-2.128413878E-2,-5.868047476E-2,-1.090345066E-2
3.019197374E0,-1.382728852E-2,-5.388678610E-2,-1.463187579E-2
3.021672126E0,-7.435702253E-3,-6.826785207E-2,2.944988199E-3
3.024146750E0,-3.174644429E-3,-5.921310931E-2,-3.979231231E-3
3.026621502E0,-1.542518474E-2,-4.962572828E-2,-1.090345066E-2
3.029096126E0,-4.239908885E-3,-5.335415155E-2,-1.409924310E-2
3.031570878E0,-5.305173341E-3,-6.027837098E-2,-1.516450848E-2
3.034045502E0,5.347471219E-3,-6.134363636E-2,-5.044496618E-3
3.036520254E0,-1.576748211E-3,-6.453943253E-2,-1.356661227E-2
3.038994878E0,5.880103447E-3,-7.093101740E-2,-1.090345066E-2
3.041469502E0,5.537811667E-4,-6.453943253E-2,-1.037081797E-2
3.043944254E0,2.684310079E-3,-6.613732874E-2,-7.707656361E-3
3.046418878E0,9.075896814E-3,-6.507205963E-2,-1.622977108E-2
3.048893630E0,5.880103447E-3,-7.199627906E-2,-1.037081797E-2
3.051368254E0,7.478000131E-3,-7.572470605E-2,-8.240289055E-3
3.053843006E0,4.814838991E-3,-7.306154072E-2,-7.175023668E-3
3.056317630E0,1.706537977E-2,-7.572470605E-2,-3.446598537E-3
3.058792382E0,1.120642573E-2,-6.880048662E-2,-1.143608149E-2
3.061277523E0,1.440221909E-2,-6.453943253E-2,-2.381335013E-3
3.063752275E0,9.075896814E-3,-7.998576760E-2,-8.240289055E-3
3.066226899E0,3.216942307E-3,-7.678997517E-2,-1.037081797E-2
3.068701651E0,1.333695464E-2,-7.199627906E-2,-6.642392837E-3
3.071176275E0,1.440221909E-2,-7.199627906E-2,-7.707656361E-3
3.073651027E0,2.026117407E-2,-7.625734061E-2,-9.838185273E-3
3.076125779E0,1.493485086E-2,-8.105102926E-2,-5.577127449E-3
3.078600403E0,2.132643759E-2,-7.146364450E-2,-1.676240563E-2
3.081075155E0,1.546748355E-2,-8.105102926E-2,-3.979231231E-3
3.083549779E0,2.878328972E-2,-8.637735248E-2,-1.316069625E-3
3.086024531E0,3.677277267E-2,-9.862789512E-2,1.879722811E-3
3.088499155E0,1.919590868E-2,-8.105102926E-2,-1.848702319E-3
3.090973907E0,1.653274894E-2,-9.862789512E-2,4.010251723E-3
3.093448659E0,1.706537977E-2,-9.383419901E-2,2.818265930E-4
3.095923283E0,1.813064516E-2,-9.436683357E-2,1.879722811E-3
3.098398035E0,1.919590868E-2,-1.007584184E-1,-2.508061007E-4
3.100872659E0,2.292433567E-2,-8.850788325E-2,-2.381335013E-3
3.103347411E0,1.600011624E-2,-9.276893735E-2,1.306500006E-2
3.105822163E0,2.079380676E-2,-9.170367569E-2,8.271310478E-3
3.108296787E0,1.813064516E-2,-8.371418715E-2,-7.834378630E-4
3.110771539E0,2.026117407E-2,-9.383419901E-2,7.206045557E-3
3.113246163E0,1.866327785E-2,-8.105102926E-2,3.477619961E-3
3.115720915E0,1.653274894E-2,-9.063840657E-2,5.608148873E-3
3.118195667E0,2.132643759E-2,-8.371418715E-2,7.206045557E-3
3.120670291E0,9.608529508E-3,-7.625734061E-2,2.944988199E-3
3.123145043E0,1.759801246E-2,-7.465943694E-2,4.010251723E-3
3.125619667E0,1.014116127E-2,-7.945313305E-2,9.336574003E-3
3.128094419E0,1.493485086E-2,-6.187626719E-2,2.818265930E-4
3.130569171E0,5.347471219E-3,-7.093101740E-2,-7.834378630E-4
3.133043795E0,1.333695464E-2,-7.838786393E-2,-7.707656361E-3
3.135518547E0,1.280432194E-2,-5.441941693E-2,9.869206697E-3
3.137993171E0,4.814838991E-3,-6.986574829E-2,-6.109760143E-3
3.140467923E0,8.543264121E-3,-6.880048662E-2,-6.109760143E-3
3.142942675E0,5.880103447E-3,-6.081100553E-2,-8.240289055E-3
3.145417299E0,6.945367903E-3,-6.400679797E-2,-3.446598537E-3
3.147892051E0,1.014116127E-2,-5.708257854E-2,-4.511863925E-3
3.150366675E0,8.010632358E-3,-6.134363636E-2,-3.446598537E-3
3.152841427E0,1.120642573E-2,-6.081100553E-2,-4.511863925E-3
3.155316051E0,-2.109379973E-3,-6.134363636E-2,-1.316069625E-3
3.157790803E0,5.347471219E-3,-6.720259041E-2,-1.848702319E-3
3.160268868E0,6.945367903E-3,-6.081100553E-2,2.412355505E-3
3.162743620E0,1.653274894E-2,-6.187626719E-2,-2.381335013E-3
3.165218244E0,1.227169018E-2,-6.400679797E-2,2.412355505E-3
3.167692996E0,1.280432194E-2,-6.081100553E-2,-5.044496618E-3
3.170167748E0,9.608529508E-3,-6.081100553E-2,5.075517111E-3
3.172642372E0,2.452223189E-2,-6.187626719E-2,1.347091049E-3
3.175117124E0,8.543264121E-3,-5.814784393E-2,5.075517111E-3
3.177591876E0,1.706537977E-2,-5.441941693E-2,2.412355505E-3
3.180066500E0,2.079380676E-2,-4.323413968E-2,-1.848702319E-3
3.182541252E0,1.706537977E-2,-5.122362450E-2,-2.381335013E-3
3.185016004E0,2.185907029E-2,-5.388678610E-2,2.944988199E-3
3.187490628E0,2.825065702E-2,-4.483203590E-2,2.412355505E-3
3.189965380E0,2.185907029E-2,-3.098359890E-2,-9.838185273E-3
3.192440004E0,2.185907029E-2,-4.483203590E-2,4.010251723E-3
3.194914756E0,3.251171485E-2,-5.015835911E-2,8.271310478E-3
3.197389508E0,2.026117407E-2,-3.950571269E-2,-1.316069625E-3
3.199864132E0,2.612012811E-2,-4.270150885E-2,5.075517111E-3
3.202338884E0,2.292433567E-2,-3.790781647E-2,8.803942241E-3
3.204813636E0,1.866327785E-2,-4.483203590E-2,7.738677785E-3
3.207288260E0,2.718539350E-2,-3.204886615E-2,2.944988199E-3
3.209763012E0,1.813064516E-2,-3.471202403E-2,-9.838185273E-3
3.212237764E0,1.600011624E-2,-2.832043916E-2,-2.381335013E-3
3.214712388E0,1.440221909E-2,-2.672254108E-2,4.542884417E-3
3.217187140E0,1.546748355E-2,-2.938570268E-2,-1.848702319E-3
3.219661764E0,1.333695464E-2,-3.577728942E-2,2.944988199E-3
3.222136516E0,9.608529508E-3,-3.364676237E-2,-7.707656361E-3
3.224611268E0,6.412735675E-3,-2.139621973E-2,2.944988199E-3
3.227085892E0,1.067379303E-2,-3.151623160E-2,-4.511863925E-3
3.229560644E0,9.608529508E-3,-1.979832351E-2,2.412355505E-3
3.232035396E0,8.543264121E-3,-2.405938134E-2,-7.834378630E-4
3.234510020E0,-9.033598006E-3,-1.500463299E-2,-7.707656361E-3
3.236984772E0,5.880103447E-3,-3.258149698E-2,-2.381335013E-3
3.239459524E0,4.814838991E-3,-1.553726476E-2,-2.913965844E-3
3.241934148E0,1.086413395E-3,-2.725517377E-2,2.818265930E-4
3.244408900E0,1.493485086E-2,-2.991833538E-2,-9.305554442E-3
3.246883652E0,3.749574535E-3,-3.258149698E-2,-3.446598537E-3
3.249358276E0,4.814838991E-3,-3.524465859E-2,-1.848702319E-3
3.251833028E0,8.010632358E-3,-1.287410408E-2,8.144592866E-4
3.254307652E0,7.478000131E-3,-1.979832351E-2,-6.109760143E-3
3.256782404E0,1.014116127E-2,-1.820042543E-2,-8.240289055E-3
3.259263523E0,1.706537977E-2,-1.820042543E-2,1.347091049E-3
3.261738275E0,1.333695464E-2,-1.766779274E-2,-3.979231231E-3
3.264213027E0,1.067379303E-2,-8.080413565E-3,-1.316069625E-3
3.266687779E0,1.972854137E-2,-9.678309783E-3,-6.109760143E-3
3.269162403E0,8.010632358E-3,-5.949884653E-3,2.818265930E-4
3.271637155E0,8.010632358E-3,4.417020828E-4,6.140781101E-3
3.274111907E0,1.280432194E-2,-2.221459523E-3,1.879722811E-3
3.276586659E0,1.546748355E-2,9.743347764E-4,6.140781101E-3
3.279061283E0,6.945367903E-3,5.235392600E-3,4.010251723E-3
3.281536035E0,1.493485086E-2,7.898554206E-3,1.040183939E-2
3.284010787E0,5.880103447E-3,8.963817731E-3,6.140781101E-3
3.286485539E0,8.010632358E-3,8.963817731E-3,3.477619961E-3
3.288960291E0,4.814838991E-3,1.002908126E-2,7.206045557E-3
3.291434915E0,5.880103447E-3,2.707331255E-2,6.140781101E-3
3.293909667E0,1.333695464E-2,2.547541633E-2,5.608148873E-3
3.296384419E0,-6.370437797E-3,2.121435851E-2,5.075517111E-3
3.298859171E0,6.945367903E-3,2.387752011E-2,1.199973561E-2
3.301333795E0,4.282206763E-3,1.961646229E-2,-1.316069625E-3
3.303808547E0,5.537811667E-4,2.334488928E-2,8.271310478E-3
3.306283299E0,7.478000131E-3,2.973647416E-2,8.271310478E-3
3.308758051E0,-8.500965312E-3,2.387752011E-2,1.093447115E-2
3.311232675E0,-7.968334481E-3,1.642066985E-2,5.608148873E-3
3.313707427E0,-1.116412692E-2,1.482277177E-2,-7.834378630E-4
3.316182179E0,-1.576748211E-3,1.506965607E-3,2.818265930E-4
3.318656931E0,-2.642011736E-3,-4.884620197E-3,-7.707656361E-3
3.321131555E0,3.216942307E-3,-1.287410408E-2,4.010251723E-3
3.323606307E0,4.814838991E-3,-2.459201217E-2,-5.044496618E-3
3.326081059E0,-1.576748211E-3,-2.352674864E-2,-5.044496618E-3
3.328555811E0,-1.576748211E-3,-1.713516191E-2,-5.577127449E-3
3.331030435E0,-1.576748211E-3,-1.713516191E-2,-1.090345066E-2
3.333505187E0,-2.642011736E-3,-2.086358704E-2,4.010251723E-3
3.335979939E0,-7.968334481E-3,-1.500463299E-2,-2.913965844E-3
3.338454691E0,-2.642011736E-3,-2.885306999E-2,-7.834378630E-4
3.340929315E0,5.880103447E-3,-2.405938134E-2,-7.707656361E-3
3.343404067E0,4.814838991E-3,-2.299411595E-2,-5.044496618E-3
3.345898607E0,7.478000131E-3,-2.459201217E-2,-6.109760143E-3
3.348373359E0,-2.109379973E-3,-2.565727755E-2,8.144592866E-4
3.350847983E0,5.347471219E-3,-1.926569082E-2,-7.834378630E-4
3.353322735E0,2.684310079E-3,-2.778780647E-2,-2.913965844E-3
3.355797487E0,1.086413395E-3,-2.991833538E-2,-1.143608149E-2
3.358272411E0,1.086413395E-3,-3.364676237E-2,-2.913965844E-3
3.360747035E0,2.151677851E-3,-2.832043916E-2,2.818265930E-4
3.363221787E0,-1.044115517E-3,-2.618990839E-2,1.879722811E-3
3.365696539E0,3.749574535E-3,-3.311412781E-2,-6.109760143E-3
3.368171291E0,-1.044115517E-3,-1.340673584E-2,-4.511863925E-3
3.370645915E0,-2.109379973E-3,-1.979832351E-2,2.412355505E-3
3.373120667E0,-2.109379973E-3,-1.447200030E-2,-7.175023668E-3
3.375595419E0,2.114893869E-5,9.743347764E-4,-4.511863925E-3
3.378070171E0,-9.033598006E-3,6.833288819E-3,-3.446598537E-3
3.380544795E0,-6.903069559E-3,8.431185037E-3,-8.240289055E-3
3.383019547E0,-5.837806035E-3,9.496450424E-3,-5.044496618E-3
3.385494299E0,-1.222939231E-2,1.162697934E-2,2.412355505E-3
3.387969051E0,-6.370437797E-3,7.365921512E-3,-5.044496618E-3
3.390443803E0,-1.435992122E-2,-1.156194136E-3,-7.175023668E-3
3.392918427E0,-1.862097904E-2,5.235392600E-3,-1.316069625E-3
3.395393179E0,-1.063149609E-2,1.506965607E-3,-3.979231231E-3
3.397867931E0,-1.009886339E-2,1.056171395E-2,4.010251723E-3
3.400342683E0,-9.566230699E-3,-8.080413565E-3,-3.979231231E-3
3.402817307E0,-8.500965312E-3,-1.660252921E-2,-1.463187579E-2
3.405292059E0,-1.329465583E-2,6.833288819E-3,-6.109760143E-3
3.407766811E0,-1.702308096E-2,-9.145678021E-3,-5.044496618E-3
3.410241563E0,-6.370437797E-3,-2.754091285E-3,-7.834378630E-4
3.412716187E0,-4.239908885E-3,-1.180883870E-2,-2.913965844E-3
3.415190939E0,-1.009886339E-2,-8.080413565E-3,-7.707656361E-3
3.417665691E0,-9.033598006E-3,-1.127620693E-2,-2.913965844E-3
3.420140443E0,-5.837806035E-3,-1.393936761E-2,4.542884417E-3
3.422615067E0,-3.707277123E-3,-1.500463299E-2,2.412355505E-3
3.425089819E0,-7.435702253E-3,-2.352674864E-2,-2.381335013E-3
3.427564571E0,5.880103447E-3,-1.766779274E-2,2.818265930E-4
3.430039323E0,-4.239908885E-3,-1.127620693E-2,-4.511863925E-3
3.432513947E0,4.814838991E-3,-1.553726476E-2,5.075517111E-3
3.434988699E0,6.945367903E-3,-1.820042543E-2,6.140781101E-3
3.437463451E0,2.114893869E-5,-3.045096621E-2,2.412355505E-3
3.439938203E0,-3.174644429E-3,-1.287410408E-2,-1.316069625E-3
3.442412827E0,-2.642011736E-3,-1.021094248E-2,-2.913965844E-3
3.444887579E0,5.537811667E-4,-1.766779274E-2,2.944988199E-3
3.447362331E0,1.619045623E-3,-4.884620197E-3,-7.834378630E-4
3.449837083E0,5.537811667E-4,-1.660252921E-2,-1.848702319E-3
3.452311835E0,3.216942307E-3,-9.145678021E-3,1.040183939E-2
3.454786459E0,-3.174644429E-3,-8.080413565E-3,-6.109760143E-3
3.457265479E0,-1.044115517E-3,2.572230995E-3,-3.446598537E-3
3.459740231E0,3.216942307E-3,3.637496382E-3,8.144592866E-4
3.462214983E0,1.619045623E-3,4.702759907E-3,-6.642392837E-3
3.464689607E0,4.282206763E-3,8.431185037E-3,-7.175023668E-3
3.467164359E0,1.386958733E-2,2.572230995E-3,-7.175023668E-3
3.469639111E0,1.086413395E-3,1.855119690E-2,-1.409924310E-2
3.472113863E0,-1.576748211E-3,1.002908126E-2,-4.511863925E-3
3.474588615E0,-2.109379973E-3,5.768023431E-3,-1.143608149E-2
3.477063367E0,-4.239908885E-3,1.429013908E-2,-1.303397957E-2
3.479538119E0,2.151677851E-3,1.506965607E-3,-1.303397957E-2
3.482012871E0,1.619045623E-3,3.104863688E-3,-1.463187579E-2
3.484487495E0,-3.707277123E-3,5.768023431E-3,-1.622977108E-2
3.486962247E0,-1.009886339E-2,8.963817731E-3,-9.305554442E-3
3.489436999E0,-1.063149609E-2,8.963817731E-3,-2.208872885E-2
3.491911751E0,2.114893869E-5,3.637496382E-3,-1.143608149E-2
3.494386503E0,-1.435992122E-2,-6.235623732E-4,-1.569714025E-2
3.496861255E0,-2.109379973E-3,-2.754091285E-3,-1.676240563E-2
3.499336007E0,-4.239908885E-3,5.235392600E-3,-2.528452128E-2
3.501810759E0,-1.116412692E-2,5.768023431E-3,-1.409924310E-2
3.504285383E0,2.114893869E-5,9.743347764E-4,-5.044496618E-3
3.506760135E0,-5.837806035E-3,-1.156194136E-3,-2.155609429E-2
3.509234887E0,-1.276202314E-2,-1.688826829E-3,-2.901294827E-2
3.511709639E0,-3.174644429E-3,1.506965607E-3,-2.049083263E-2
3.514184391E0,-5.114828236E-4,4.417020828E-4,-1.836030185E-2
3.516659143E0,-7.968334481E-3,1.506965607E-3,-2.262135968E-2
3.519133895E0,-9.566230699E-3,-9.093061090E-5,-2.049083263E-2
3.521608647E0,-4.772540648E-3,-4.884620197E-3,-7.707656361E-3
3.524083271E0,-9.566230699E-3,3.637496382E-3,-2.049083263E-2
3.526558023E0,-4.239908885E-3,9.743347764E-4,-1.889293268E-2
3.529032775E0,3.749574535E-3,8.963817731E-3,-1.889293268E-2
3.531507527E0,-5.305173341E-3,7.365921512E-3,-1.569714025E-2
3.533982279E0,2.114893869E-5,6.300656125E-3,-1.942556724E-2
3.536457031E0,-5.837806035E-3,6.300656125E-3,-2.368662506E-2
3.538931783E0,-1.044115517E-3,9.496450424E-3,-2.475189045E-2
3.541406535E0,-3.174644429E-3,1.588803716E-2,-1.729503646E-2
3.543881159E0,5.347471219E-3,1.588803716E-2,-2.262135968E-2
3.546355911E0,9.075896814E-3,9.496450424E-3,-2.208872885E-2
3.548830663E0,1.866327785E-2,2.760594711E-2,-2.049083263E-2
3.551305415E0,3.749574535E-3,1.162697934E-2,-2.208872885E-2
3.553780167E0,9.608529508E-3,1.482277177E-2,-1.782767102E-2
3.556261681E0,2.151677851E-3,1.056171395E-2,-1.250134688E-2
3.558736433E0,5.347471219E-3,1.215961203E-2,-2.475189045E-2
3.561211185E0,9.075896814E-3,1.056171395E-2,-1.836030185E-2
3.563685937E0,1.067379303E-2,1.642066985E-2,-2.528452128E-2
3.566160689E0,1.280432194E-2,1.506965607E-3,-1.782767102E-2
3.568635441E0,7.478000131E-3,-4.884620197E-3,-6.642392837E-3
3.571110193E0,6.945367903E-3,1.375750825E-2,-1.676240563E-2
3.573584945E0,1.067379303E-2,-9.093061090E-5,-1.676240563E-2
3.576059697E0,1.333695464E-2,1.162697934E-2,-2.368662506E-2
3.578534449E0,1.440221909E-2,-2.221459523E-3,-1.836030185E-2
3.581009201E0,7.478000131E-3,-1.156194136E-3,-1.942556724E-2
3.583483953E0,1.546748355E-2,-3.286723047E-3,-1.729503646E-2
3.585958705E0,1.813064516E-2,9.743347764E-4,-1.409924310E-2
3.588433457E0,1.546748355E-2,-4.351988435E-3,-1.303397957E-2
3.590908209E0,1.280432194E-2,6.300656125E-3,-1.729503646E-2
3.593382961E0,2.026117407E-2,-7.547781337E-3,-1.942556724E-2
3.595857713E0,1.067379303E-2,-2.754091285E-3,-2.049083263E-2
3.598332337E0,2.452223189E-2,-7.015149109E-3,-1.463187579E-2
3.600807089E0,2.558749728E-2,1.748593152E-2,-1.782767102E-2
3.603281841E0,1.706537977E-2,1.269224286E-2,-1.143608149E-2
3.605756593E0,1.866327785E-2,1.375750825E-2,-1.356661227E-2
3.608231345E0,1.972854137E-2,1.482277177E-2,-1.356661227E-2
3.610706097E0,2.771802433E-2,2.387752011E-2,-2.581715211E-2
3.613180849E0,1.972854137E-2,1.002908126E-2,-1.569714025E-2
3.615655601E0,2.239170298E-2,6.300656125E-3,-2.208872885E-2
3.618130353E0,2.452223189E-2,7.365921512E-3,-1.836030185E-2
3.620605105E0,2.398959920E-2,4.170127213E-3,-1.622977108E-2
3.623079857E0,2.185907029E-2,-4.351988435E-3,-1.942556724E-2
3.625554609E0,2.239170298E-2,2.039598301E-3,-1.836030185E-2
3.628029361E0,2.718539350E-2,-9.678309783E-3,-2.528452128E-2
3.630504113E0,1.440221909E-2,-1.340673584E-2,-2.475189045E-2
3.632978865E0,1.440221909E-2,-4.351988435E-3,-2.208872885E-2
3.635453617E0,1.600011624E-2,-1.660252921E-2,-2.634978667E-2
3.637928369E0,1.972854137E-2,-2.086358704E-2,-2.315399423E-2
3.640403121E0,1.600011624E-2,-2.352674864E-2,-2.475189045E-2
3.642877873E0,1.333695464E-2,-2.086358704E-2,-3.061084449E-2
3.645352625E0,6.412735675E-3,-1.393936761E-2,-2.581715211E-2
3.647827377E0,9.608529508E-3,-1.820042543E-2,-2.741504833E-2
3.650302129E0,1.919590868E-2,-2.725517377E-2,-2.688241750E-2
3.652776881E0,1.120642573E-2,-2.246148326E-2,-2.634978667E-2
3.655258340E0,9.075896814E-3,-2.672254108E-2,-3.806769475E-2
3.657733092E0,2.026117407E-2,-2.565727755E-2,-1.516450848E-2
3.660207844E0,-5.114828236E-4,-2.565727755E-2,-3.061084449E-2
3.662682724E0,1.014116127E-2,-2.352674864E-2,-3.114347532E-2
3.665157476E0,7.478000131E-3,-2.139621973E-2,-3.061084449E-2
3.667632228E0,4.814838991E-3,-2.991833538E-2,-3.487190232E-2
3.670106980E0,-1.116412692E-2,-3.045096621E-2,-2.794768289E-2
3.672581732E0,4.282206763E-3,-2.991833538E-2,-3.540453315E-2
3.675056612E0,2.114893869E-5,-2.033095434E-2,-3.007820994E-2
3.677531364E0,8.543264121E-3,-2.033095434E-2,-3.806769475E-2
3.680006116E0,4.282206763E-3,-2.405938134E-2,-2.262135968E-2
3.682480868E0,5.880103447E-3,-3.364676237E-2,-2.794768289E-2
3.684955620E0,-1.044115517E-3,-2.725517377E-2,-3.966559097E-2
3.687430500E0,9.608529508E-3,-2.672254108E-2,-3.220874071E-2
3.689905252E0,1.067379303E-2,-3.630992025E-2,-3.167610988E-2
3.692380004E0,1.067379303E-2,-2.139621973E-2,-3.593716398E-2
3.694854756E0,1.866327785E-2,-2.832043916E-2,-2.688241750E-2
3.697329508E0,1.333695464E-2,-2.405938134E-2,-3.753506392E-2
3.699804388E0,1.280432194E-2,-3.524465859E-2,-3.380663693E-2
3.702279140E0,1.280432194E-2,-2.991833538E-2,-3.433926776E-2
3.704753892E0,1.600011624E-2,-1.766779274E-2,-3.220874071E-2
3.707228644E0,2.505486459E-2,-3.311412781E-2,-3.540453315E-2
3.709703524E0,1.493485086E-2,-3.151623160E-2,-2.794768289E-2
3.712178276E0,2.718539350E-2,-2.885306999E-2,-3.380663693E-2
3.714653028E0,7.478000131E-3,-1.926569082E-2,-3.114347532E-2
3.717127780E0,1.813064516E-2,-1.820042543E-2,-2.794768289E-2
3.719602532E0,2.132643759E-2,-1.979832351E-2,-3.806769475E-2
3.722077412E0,1.546748355E-2,-1.074357517E-2,-3.114347532E-2
3.724552164E0,1.067379303E-2,-2.246148326E-2,-3.966559097E-2
3.727026916E0,2.239170298E-2,-1.287410408E-2,-3.913296014E-2
3.729501668E0,1.813064516E-2,-1.660252921E-2,-3.380663693E-2
3.731976420E0,-2.642011736E-3,-4.884620197E-3,-3.433926776E-2
3.734451300E0,1.333695464E-2,-3.819355741E-3,-3.913296014E-2
3.736926052E0,1.972854137E-2,-4.884620197E-3,-3.966559097E-2
3.739400804E0,1.014116127E-2,-7.547781337E-3,-3.860032558E-2
3.741875556E0,1.546748355E-2,3.637496382E-3,-5.138349906E-2
3.744350308E0,3.216942307E-3,-5.417251959E-3,-3.380663693E-2
3.746825188E0,-5.114828236E-4,-2.221459523E-3,-3.540453315E-2
3.749299940E0,3.216942307E-3,-2.754091285E-3,-3.487190232E-2
3.751774692E0,2.151677851E-3,-9.145678021E-3,-3.806769475E-2
3.754254860E0,-1.044115517E-3,1.506965607E-3,-4.765507579E-2
3.756729612E0,-1.044115517E-3,-1.500463299E-2,-3.806769475E-2
3.759204492E0,1.086413395E-3,-1.688826829E-3,-4.605717957E-2
3.761679244E0,-7.968334481E-3,-9.678309783E-3,-4.818770662E-2
3.764154124E0,2.114893869E-5,-1.074357517E-2,-5.031823739E-2
3.766628876E0,-3.174644429E-3,-4.351988435E-3,-4.605717957E-2
3.769103628E0,-1.276202314E-2,-7.015149109E-3,-4.818770662E-2
3.771578508E0,-5.114828236E-4,-1.234147139E-2,-4.339401796E-2
3.774053260E0,-1.576748211E-3,-1.074357517E-2,-4.019822553E-2
3.776528012E0,-4.239908885E-3,-1.393936761E-2,-4.712244123E-2
3.779002892E0,-5.114828236E-4,-1.766779274E-2,-4.552454501E-2
3.781477644E0,-4.772540648E-3,-2.885306999E-2,-3.167610988E-2
3.783952396E0,1.086413395E-3,-3.471202403E-2,-5.351402983E-2
3.786427276E0,6.412735675E-3,-1.660252921E-2,-4.925297201E-2
3.788902028E0,6.412735675E-3,-1.979832351E-2,-4.925297201E-2
3.791376908E0,-4.239908885E-3,-2.725517377E-2,-4.818770662E-2
3.793851660E0,5.347471219E-3,-7.015149109E-3,-4.925297201E-2
3.796326412E0,2.684310079E-3,-2.938570268E-2,-5.138349906E-2
3.798801292E0,-5.114828236E-4,-2.192885056E-2,-5.138349906E-2
3.801276044E0,6.945367903E-3,-3.204886615E-2,-5.085086450E-2
3.803750796E0,1.173905842E-2,-2.672254108E-2,-4.658981040E-2
3.806225676E0,8.010632358E-3,-2.405938134E-2,-4.925297201E-2
3.808700428E0,1.706537977E-2,-5.949884653E-3,-4.765507579E-2
3.811175180E0,1.227169018E-2,-2.246148326E-2,-5.404666439E-2
3.813650060E0,1.333695464E-2,-2.033095434E-2,-5.138349906E-2
3.816124812E0,1.493485086E-2,-1.180883870E-2,-4.179612175E-2
3.818599692E0,1.333695464E-2,-1.500463299E-2,-5.138349906E-2
3.821074444E0,1.919590868E-2,3.104863688E-3,-4.925297201E-2
3.823549196E0,8.010632358E-3,-8.613046259E-3,-4.658981040E-2
3.826024076E0,1.227169018E-2,-8.080413565E-3,-5.990561470E-2
3.828498828E0,7.478000131E-3,-9.145678021E-3,-3.433926776E-2
3.830973580E0,1.227169018E-2,-1.606989652E-2,-4.339401796E-2
3.833448460E0,9.608529508E-3,-1.021094248E-2,-4.499191418E-2
3.835923212E0,1.919590868E-2,-3.819355741E-3,-4.978560284E-2
3.838397964E0,9.075896814E-3,-6.482517347E-3,-5.138349906E-2
3.840872844E0,1.333695464E-2,-1.021094248E-2,-4.392664880E-2
3.843347596E0,6.945367903E-3,-1.606989652E-2,-4.552454501E-2
3.845822476E0,1.014116127E-2,-2.192885056E-2,-5.085086450E-2
3.848297228E0,1.440221909E-2,-1.074357517E-2,-5.511192605E-2
3.850775653E0,1.706537977E-2,-2.405938134E-2,-5.031823739E-2
3.853250533E0,1.067379303E-2,-1.873305812E-2,-5.244876817E-2
3.855725285E0,2.079380676E-2,-3.524465859E-2,-4.872034118E-2
3.858200165E0,1.972854137E-2,-2.405938134E-2,-5.138349906E-2
3.860674917E0,6.945367903E-3,-2.778780647E-2,-4.445927963E-2
3.863149797E0,2.345696650E-2,-2.139621973E-2,-5.085086450E-2
3.865624549E0,2.452223189E-2,-2.512464486E-2,-4.552454501E-2
3.868099429E0,1.600011624E-2,-2.565727755E-2,-3.700242937E-2
3.870574309E0,2.292433567E-2,-3.204886615E-2,-4.339401796E-2
3.873049061E0,1.600011624E-2,-2.725517377E-2,-4.872034118E-2
3.875523941E0,2.239170298E-2,-2.512464486E-2,-4.712244123E-2
3.877998693E0,2.185907029E-2,-3.204886615E-2,-4.286138341E-2
3.880473573E0,2.345696650E-2,-3.737518564E-2,-4.818770662E-2
3.882948325E0,3.091381863E-2,-4.749519750E-2,-4.019822553E-2
3.885423205E0,2.878328972E-2,-4.962572828E-2,-5.511192605E-2
3.887897957E0,2.984855510E-2,-4.163624346E-2,-4.765507579E-2
3.890372837E0,3.570750728E-2,-4.270150885E-2,-5.777508393E-2
3.892847717E0,2.931592241E-2,-4.802783206E-2,-5.031823739E-2
3.895322469E0,2.665276080E-2,-4.429940507E-2,-5.085086450E-2
3.897797349E0,3.783803806E-2,-2.778780647E-2,-5.244876817E-2
3.900272101E0,3.197908029E-2,-4.749519750E-2,-5.298139527E-2
3.902746981E0,3.357698023E-2,-3.204886615E-2,-5.244876817E-2
3.905221733E0,4.582751915E-2,-3.204886615E-2,-4.499191418E-2
3.907696613E0,3.251171485E-2,-3.151623160E-2,-5.777508393E-2
3.910171365E0,4.103383049E-2,-3.204886615E-2,-5.724245682E-2
3.912646245E0,4.582751915E-2,-3.364676237E-2,-6.203614548E-2
3.915121125E0,4.636014998E-2,-1.873305812E-2,-6.682983041E-2
3.917595877E0,4.902331159E-2,-3.151623160E-2,-5.990561470E-2
3.920070757E0,4.902331159E-2,-2.618990839E-2,-6.203614548E-2
3.922545509E0,4.742541537E-2,-2.725517377E-2,-6.043824926E-2
3.925020389E0,5.648016185E-2,-2.618990839E-2,-5.670982227E-2
3.927495141E0,6.020858884E-2,-3.045096621E-2,-4.925297201E-2
3.929970021E0,6.660018116E-2,-2.512464486E-2,-4.818770662E-2
3.932444773E0,7.245913148E-2,-3.737518564E-2,-5.670982227E-2
3.934919653E0,8.364440501E-2,-4.003834724E-2,-5.511192605E-2
3.937394405E0,8.151388168E-2,-1.820042543E-2,-5.404666439E-2
3.939869285E0,7.885071635E-2,-2.672254108E-2,-5.937298760E-2
3.942344165E0,8.098124713E-2,-2.938570268E-2,-5.884035304E-2
3.944818917E0,9.163389355E-2,-3.844045103E-2,-5.564456061E-2
3.947293797E0,9.855811298E-2,-3.364676237E-2,-5.404666439E-2
3.949773971E0,9.802547842E-2,-3.258149698E-2,-6.523193419E-2
3.952248851E0,9.962337464E-2,-3.630992025E-2,-6.789509207E-2
3.954723731E0,1.070802286E-1,-3.684255481E-2,-5.138349906E-2
3.957198611E0,1.124065444E-1,-3.524465859E-2,-6.682983041E-2
3.959673363E0,1.140044481E-1,-2.832043916E-2,-5.937298760E-2
3.962148243E0,1.182655022E-1,-4.003834724E-2,-6.363403797E-2
3.964623123E0,1.193307638E-1,-3.098359890E-2,-6.736246496E-2
3.967098003E0,1.209286600E-1,-3.258149698E-2,-6.896036118E-2
3.969572755E0,1.417013258E-1,-2.618990839E-2,-6.469929963E-2
3.972047635E0,1.241244599E-1,-2.938570268E-2,-7.748247683E-2
3.974522515E0,1.219939291E-1,-4.376677424E-2,-7.109089196E-2
3.976997395E0,1.251897216E-1,-3.258149698E-2,-7.961300761E-2
3.979472147E0,1.193307638E-1,-4.323413968E-2,-8.227616549E-2
3.981947027E0,1.230591908E-1,-3.524465859E-2,-7.908037305E-2
3.984421907E0,1.230591908E-1,-4.962572828E-2,-7.535194606E-2
3.986896659E0,1.225265563E-1,-4.483203590E-2,-8.121090382E-2
3.989371539E0,1.251897216E-1,-5.015835911E-2,-7.748247683E-2
3.991846419E0,1.140044481E-1,-3.897308186E-2,-8.920038491E-2
3.994321299E0,1.161349714E-1,-3.737518564E-2,-6.896036118E-2
3.996796051E0,1.166676059E-1,-2.565727755E-2,-8.813512325E-2
3.999270931E0,1.214612946E-1,-2.565727755E-2,-8.866775036E-2
4.001745811E0,1.241244599E-1,-2.672254108E-2,-9.186354280E-2
4.004220691E0,1.214612946E-1,-1.021094248E-2,-8.813512325E-2
4.006695443E0,1.214612946E-1,-5.417251959E-3,-8.760248870E-2
4.009170323E0,1.070802286E-1,-1.287410408E-2,-9.292881191E-2
4.011645203E0,1.209286600E-1,-7.015149109E-3,-8.600459248E-2
4.014120083E0,1.246570870E-1,4.417020828E-4,-8.014563471E-2
4.016594835E0,1.246570870E-1,-5.417251959E-3,-9.186354280E-2
4.019069715E0,1.177328676E-1,-3.819355741E-3,-8.227616549E-2
4.021544595E0,1.187981367E-1,-3.819355741E-3,-8.973301947E-2
4.024019475E0,1.193307638E-1,9.743347764E-4,-8.280880004E-2
4.026494227E0,1.150697097E-1,-3.286723047E-3,-9.133091569E-2
4.028969107E0,1.118739173E-1,-2.754091285E-3,-9.133091569E-2
4.031443987E0,1.001560092E-1,2.039598301E-3,-9.985303134E-2
4.033918867E0,1.108086482E-1,-4.351988435E-3,-9.079828113E-2
4.036393619E0,9.482968599E-2,-9.145678021E-3,-9.452670813E-2
4.038868499E0,9.376441687E-2,-2.221459523E-3,-8.706985414E-2
4.041343379E0,9.962337464E-2,-3.286723047E-3,-8.653722703E-2
4.043818259E0,8.524230123E-2,-3.286723047E-3,-9.133091569E-2
4.046293011E0,9.589494765E-2,-3.286723047E-3,-9.346144646E-2
4.048768669E0,8.737283200E-2,3.104863688E-3,-9.133091569E-2
4.051243549E0,6.873070449E-2,6.833288819E-3,-9.346144646E-2
4.053718429E0,7.672018558E-2,5.768023431E-3,-9.505934268E-2
4.056193309E0,8.151388168E-2,-3.286723047E-3,-8.813512325E-2
4.058668061E0,7.139386237E-2,1.322487555E-2,-9.718986601E-2
4.061142941E0,5.434963480E-2,1.429013908E-2,-1.009182930E-1
4.063617821E0,5.967595801E-2,7.898554206E-3,-1.009182930E-1
4.066092701E0,5.594753101E-2,1.162697934E-2,-9.452670813E-2
4.068567453E0,5.328436941E-2,1.056171395E-2,-1.003856584E-1
4.071042333E0,5.594753101E-2,1.162697934E-2,-9.878776222E-2
4.073517213E0,5.594753101E-2,8.431185037E-3,-9.026564658E-2
4.075992093E0,5.062120780E-2,9.496450424E-3,-9.133091569E-2
4.078466973E0,3.943593055E-2,-9.093061090E-5,-9.612460434E-2
4.080941725E0,3.837066889E-2,-1.447200030E-2,-9.026564658E-2
4.083416605E0,3.144644946E-2,-5.949884653E-3,-8.227616549E-2
4.085891485E0,2.452223189E-2,-7.015149109E-3,-1.014509276E-1
4.088366365E0,1.813064516E-2,-7.547781337E-3,-9.452670813E-2
4.090841117E0,1.173905842E-2,-1.820042543E-2,-9.079828113E-2
4.093315997E0,1.280432194E-2,-1.766779274E-2,-9.239617735E-2
4.095790877E0,1.227169018E-2,-2.459201217E-2,-9.932039678E-2
4.098265757E0,7.478000131E-3,-1.873305812E-2,-9.612460434E-2
4.100740509E0,-5.114828236E-4,-2.672254108E-2,-9.079828113E-2
4.103215389E0,-6.903069559E-3,-2.672254108E-2,-1.057119817E-1
4.105690269E0,3.216942307E-3,-2.778780647E-2,-9.346144646E-2
4.108165149E0,-5.837806035E-3,-2.938570268E-2,-9.026564658E-2
4.110639901E0,-7.968334481E-3,-1.766779274E-2,-8.440669626E-2
4.113114781E0,-1.276202314E-2,-1.340673584E-2,-8.706985414E-2
4.115589661E0,-1.329465583E-2,-1.553726476E-2,-9.186354280E-2
4.118064541E0,-1.702308096E-2,-1.500463299E-2,-8.600459248E-2
4.120539293E0,-1.435992122E-2,-6.235623732E-4,-8.600459248E-2
4.123014173E0,-1.542518474E-2,-2.754091285E-3,-9.079828113E-2
4.125489053E0,-2.021887526E-2,1.322487555E-2,-8.014563471E-2
4.127963933E0,-1.755571365E-2,1.375750825E-2,-8.813512325E-2
4.130438685E0,-1.649045013E-2,1.269224286E-2,-8.706985414E-2
4.132913565E0,-1.808834635E-2,3.104863688E-3,-8.227616549E-2
4.135388445E0,-1.116412692E-2,3.559542820E-2,-9.985303134E-2
4.137863325E0,-1.222939231E-2,2.494278550E-2,-8.014563471E-2
4.140338077E0,-6.903069559E-3,2.813857794E-2,-9.186354280E-2
4.142812957E0,-1.702308096E-2,3.133437037E-2,-8.067826927E-2
4.145287837E0,-8.500965312E-3,3.772595897E-2,-8.547195792E-2
4.147751255E0,-4.772540648E-3,4.571544006E-2,-9.079828113E-2
4.150226135E0,-6.370437797E-3,4.305227846E-2,-8.440669626E-2
4.152700887E0,-6.370437797E-3,4.784597084E-2,-8.067826927E-2
4.155175639E0,-1.489255391E-2,3.825858980E-2,-7.694984227E-2
4.157650519E0,-1.542518474E-2,5.263966322E-2,-7.748247683E-2
4.160125271E0,-4.239908885E-3,5.849861354E-2,-8.014563471E-2
4.162600151E0,-1.116412692E-2,6.595546752E-2,-8.014563471E-2
4.165074903E0,-4.772540648E-3,6.808599830E-2,-7.322141528E-2
4.167549783E0,-7.435702253E-3,6.062914431E-2,-6.896036118E-2
4.170024535E0,-6.903069559E-3,7.021652162E-2,-6.203614548E-2
4.172499415E0,-5.837806035E-3,7.287968695E-2,-6.523193419E-2
4.174974167E0,5.537811667E-4,7.554284483E-2,-6.097088382E-2
4.177449047E0,-1.009886339E-2,8.406496048E-2,-6.629719585E-2
4.179923799E0,-1.009886339E-2,8.992391825E-2,-6.736246496E-2
4.182398679E0,-1.222939231E-2,9.631550312E-2,-6.949299574E-2
4.184873431E0,1.619045623E-3,8.513022959E-2,-5.937298760E-2
4.187348311E0,2.151677851E-3,9.525024146E-2,-5.937298760E-2
4.189823063E0,-5.114828236E-4,9.844603390E-2,-6.523193419E-2
4.192297815E0,-1.044115517E-3,8.566285670E-2,-6.896036118E-2
4.194772695E0,-3.174644429E-3,9.311971068E-2,-5.564456061E-2
4.197247447E0,-1.044115517E-3,8.193442971E-2,-5.990561470E-2
4.199722327E0,3.216942307E-3,1.027070880E-1,-4.765507579E-2
4.202197079E0,6.945367903E-3,1.016418263E-1,-5.777508393E-2
4.204671959E0,4.814838991E-3,9.684813768E-2,-4.925297201E-2
4.207146711E0,5.537811667E-4,9.684813768E-2,-4.765507579E-2
4.209621591E0,8.543264121E-3,1.053702533E-1,-5.244876817E-2
4.212096343E0,-1.044115517E-3,9.951129556E-2,-3.913296014E-2
4.214571223E0,8.543264121E-3,1.016418263E-1,-5.244876817E-2
4.217045975E0,1.546748355E-2,9.471760690E-2,-5.138349906E-2
4.219520855E0,-1.576748211E-3,1.149576381E-1,-5.298139527E-2
4.221995607E0,1.280432194E-2,9.738076478E-2,-5.244876817E-2
4.224470359E0,9.608529508E-3,1.075007766E-1,-4.978560284E-2
4.226945239E0,1.333695464E-2,1.048376188E-1,-6.150351092E-2
4.229419991E0,7.478000131E-3,1.043049842E-1,-4.445927963E-2
4.231894871E0,2.612012811E-2,9.471760690E-2,-5.298139527E-2
4.234369623E0,2.665276080E-2,8.459759504E-2,-4.818770662E-2
4.236844503E0,3.677277267E-2,7.820601016E-2,-3.806769475E-2
4.239319255E0,3.624013811E-2,5.370492488E-2,-3.966559097E-2
4.241794135E0,4.369699210E-2,6.222704053E-2,-4.392664880E-2
4.244268887E0,4.316435754E-2,4.784597084E-2,-3.433926776E-2
4.246746800E0,4.582751915E-2,3.399753198E-2,-2.475189045E-2
4.249221680E0,4.902331159E-2,1.961646229E-2,-2.634978667E-2
4.251696432E0,5.168647319E-2,1.908383146E-2,-2.528452128E-2
4.254171312E0,4.529488832E-2,2.068172768E-2,-2.741504833E-2
4.256646064E0,5.275173858E-2,1.002908126E-2,-2.102346346E-2
4.259120944E0,4.689278454E-2,5.235392600E-3,-1.622977108E-2
4.261595696E0,5.221910775E-2,-6.235623732E-4,-1.569714025E-2
4.264070576E0,6.766544282E-2,3.637496382E-3,-9.305554442E-3
4.266545328E0,6.127385423E-2,-5.949884653E-3,-3.979231231E-3
4.269020208E0,6.127385423E-2,-1.021094248E-2,-7.707656361E-3
4.271494960E0,7.192649692E-2,-1.606989652E-2,-1.409924310E-2
4.273969840E0,5.648016185E-2,2.572230995E-3,-6.109760143E-3
4.276444592E0,7.778545469E-2,-1.074357517E-2,-3.979231231E-3
4.278919472E0,6.766544282E-2,-1.180883870E-2,4.010251723E-3
4.281394224E0,5.914332345E-2,-1.500463299E-2,2.818265930E-4
4.283869104E0,6.127385423E-2,-1.766779274E-2,1.626079343E-2
4.286343856E0,6.766544282E-2,-2.991833538E-2,1.945658773E-2
4.288818736E0,5.701279640E-2,-3.045096621E-2,9.869206697E-3
4.291293488E0,4.689278454E-2,-1.234147139E-2,4.010251723E-3
4.293768368E0,5.115384236E-2,-2.352674864E-2,1.093447115E-2
4.296243120E0,4.689278454E-2,-3.577728942E-2,7.738677785E-3
4.298718000E0,4.795804620E-2,-1.766779274E-2,1.253236830E-2
4.301192752E0,2.984855510E-2,-1.393936761E-2,1.732605696E-2
4.303667632E0,3.357698023E-2,-1.156194136E-3,1.785868965E-2
4.306142384E0,1.386958733E-2,4.702759907E-3,9.869206697E-3
4.308617264E0,7.478000131E-3,2.227962390E-2,4.542884417E-3
4.311092016E0,6.945367903E-3,3.346490115E-2,-5.577127449E-3
4.313566896E0,-3.174644429E-3,4.731334001E-2,-1.676240563E-2
4.316041648E0,-5.837806035E-3,5.477018654E-2,-3.114347532E-2
4.318516528E0,-1.808834635E-2,7.074915618E-2,-3.966559097E-2
4.320991280E0,-1.862097904E-2,7.714074105E-2,-4.765507579E-2
4.323466160E0,-4.205679893E-2,9.205444902E-2,-7.109089196E-2
4.325940912E0,-4.738312215E-2,9.897866100E-2,-7.961300761E-2
4.328415792E0,-4.898101836E-2,9.311971068E-2,-1.035814583E-1
4.330890544E0,-5.057891458E-2,7.980390638E-2,-1.131688282E-1
4.333365424E0,-6.016629189E-2,9.365234524E-2,-1.211583242E-1
4.335840176E0,-7.934105396E-2,6.755336374E-2,-1.286151707E-1
4.338315056E0,-8.892843127E-2,6.702072918E-2,-1.398004591E-1
4.340789808E0,-9.105896205E-2,6.702072918E-2,-1.366046667E-1
4.343264688E0,-9.745054692E-2,4.411754385E-2,-1.440615058E-1
4.345735390E0,-8.999370039E-2,1.322487555E-2,-1.286151707E-1
4.348210142E0,-8.466737717E-2,-8.613046259E-3,-1.078425124E-1
4.350684894E0,-7.561262697E-2,-5.949884653E-3,-9.878776222E-2
4.353159774E0,-7.561262697E-2,-3.737518564E-2,-8.493932337E-2
4.355634526E0,-4.738312215E-2,-5.814784393E-2,-7.162351906E-2
4.358109406E0,-2.714309283E-2,-8.105102926E-2,-6.203614548E-2
4.360584158E0,-5.837806035E-3,-1.028889492E-1,-6.576456875E-2
4.363058910E0,7.478000131E-3,-1.353795230E-1,-6.416667253E-2
4.365533790E0,3.144644946E-2,-1.407058239E-1,-5.670982227E-2
4.368008542E0,5.967595801E-2,-1.593479812E-1,-6.682983041E-2
4.370483422E0,5.967595801E-2,-1.657395661E-1,-4.925297201E-2
4.372958174E0,8.524230123E-2,-1.689353585E-1,-6.363403797E-2
4.375432926E0,8.684019744E-2,-1.636090279E-1,-6.469929963E-2
4.377907806E0,1.086781248E-1,-1.604132354E-1,-5.884035304E-2
4.380382558E0,1.219939291E-1,-1.497605741E-1,-5.990561470E-2
4.382857438E0,1.140044481E-1,-1.353795230E-1,-6.736246496E-2
4.385332190E0,1.401034296E-1,-1.348468810E-1,-6.256877631E-2
4.387806942E0,1.411686838E-1,-1.162047535E-1,-6.416667253E-2
4.390281822E0,1.502234340E-1,-1.018236876E-1,-6.736246496E-2
4.392756574E0,1.491581649E-1,-8.584471792E-2,-6.842772663E-2
4.395231454E0,1.491581649E-1,-8.105102926E-2,-5.937298760E-2
4.397706206E0,1.662023962E-1,-5.388678610E-2,-6.789509207E-2
4.400181086E0,1.603434533E-1,-4.323413968E-2,-6.363403797E-2
4.402655838E0,1.630066037E-1,-2.725517377E-2,-6.949299574E-2
4.405130590E0,1.480929106E-1,-1.074357517E-2,-6.629719585E-2
4.407605470E0,1.518213302E-1,-5.417251959E-3,-6.896036118E-2
4.410080222E0,1.422339529E-1,1.642066985E-2,-6.469929963E-2
4.412555102E0,1.353097260E-1,2.334488928E-2,-6.150351092E-2
4.415029854E0,1.235918254E-1,2.387752011E-2,-7.109089196E-2
4.417504606E0,1.198633984E-1,2.920384333E-2,-7.641721517E-2
4.419979486E0,9.642758220E-2,2.707331255E-2,-6.523193419E-2
4.422454238E0,8.630757034E-2,2.813857794E-2,-7.268878818E-2
4.424929118E0,7.512228936E-2,2.600804716E-2,-6.363403797E-2
4.427403870E0,6.553491205E-2,2.281225473E-2,-6.576456875E-2
4.429878622E0,5.168647319E-2,7.898554206E-3,-6.949299574E-2
4.432353502E0,4.103383049E-2,1.908383146E-2,-7.801511139E-2
4.434828254E0,3.730540350E-2,9.496450424E-3,-8.440669626E-2
4.437303134E0,2.878328972E-2,2.227962390E-2,-9.133091569E-2
4.439777886E0,2.505486459E-2,1.429013908E-2,-1.014509276E-1
4.442252638E0,5.537811667E-4,9.496450424E-3,-1.099730432E-1
4.444728314E0,3.749574535E-3,1.162697934E-2,-1.222235784E-1
4.447203194E0,2.114893869E-5,1.109434664E-2,-1.302130669E-1
4.449677946E0,-7.435702253E-3,8.431185037E-3,-1.323436052E-1
4.452152826E0,-1.009886339E-2,-1.156194136E-3,-1.445941478E-1
4.454627578E0,3.216942307E-3,-9.145678021E-3,-1.408657134E-1
4.457102458E0,-5.305173341E-3,-1.127620693E-2,-1.413983554E-1
4.459577210E0,1.227169018E-2,-3.819355741E-3,-1.424636096E-1
4.462051962E0,2.931592241E-2,-2.512464486E-2,-1.499204636E-1
4.464526842E0,4.316435754E-2,-2.672254108E-2,-1.403330863E-1
4.467001594E0,6.287175417E-2,-4.376677424E-2,-1.376699209E-1
4.469476474E0,6.446965039E-2,-4.642993212E-2,-1.227562204E-1
4.471951226E0,9.802547842E-2,-5.601731315E-2,-1.232888475E-1
4.474425978E0,1.118739173E-1,-6.720259041E-2,-1.254193783E-1
4.476900858E0,1.321139485E-1,-8.690998703E-2,-1.179625317E-1
4.479375610E0,1.523539722E-1,-8.957314491E-2,-1.152993664E-1
4.481850490E0,1.624739766E-1,-9.223630279E-2,-1.163646355E-1
4.484325242E0,1.875076890E-1,-9.809526056E-2,-1.073098779E-1
4.486799994E0,1.981603354E-1,-1.183352843E-1,-1.041140854E-1
4.489274874E0,2.061498165E-1,-1.108784303E-1,-9.399407357E-2
4.491749626E0,2.269224823E-1,-1.012910530E-1,-9.932039678E-2
4.494224506E0,2.194656283E-1,-9.117104113E-2,-1.003856584E-1
4.496699258E0,2.359772176E-1,-6.613732874E-2,-9.559196979E-2
4.499174010E0,2.418361753E-1,-5.388678610E-2,-9.612460434E-2
4.501648890E0,2.498256564E-1,-4.003834724E-2,-8.227616549E-2
4.504123642E0,2.562172711E-1,-2.033095434E-2,-8.600459248E-2
4.506598522E0,2.769899070E-1,4.417020828E-4,-7.748247683E-2
4.509073274E0,2.695330679E-1,-1.688826829E-3,-8.174353093E-2
4.511548026E0,2.807183266E-1,2.334488928E-2,-8.067826927E-2
4.514022906E0,2.903057039E-1,2.281225473E-2,-8.174353093E-2
4.516497658E0,2.769899070E-1,4.731334001E-2,-7.215615362E-2
4.518972538E0,2.903057039E-1,6.222704053E-2,-7.215615362E-2
4.521447290E0,2.897730768E-1,5.636808276E-2,-7.375404984E-2
4.523922042E0,2.855120301E-1,6.329230219E-2,-8.067826927E-2
4.526396922E0,2.817836106E-1,7.287968695E-2,-6.896036118E-2
4.528871674E0,2.807183266E-1,8.086916804E-2,-8.121090382E-2
4.531346554E0,2.759246528E-1,8.033653349E-2,-7.694984227E-2
4.533821306E0,2.716635764E-1,7.447758317E-2,-8.547195792E-2
4.536296058E0,2.631414533E-1,8.726075292E-2,-8.920038491E-2
4.538770938E0,2.578151524E-1,7.820601016E-2,-8.706985414E-2
4.541245690E0,2.551519871E-1,9.045654535E-2,-9.718986601E-2
4.543709925E0,2.530214489E-1,7.820601016E-2,-9.505934268E-2
4.546184677E0,2.503583133E-1,7.767337561E-2,-9.772250056E-2
4.548659557E0,2.455646098E-1,7.021652162E-2,-9.718986601E-2
4.551134309E0,2.546193600E-1,8.406496048E-2,-1.105056778E-1
4.553609061E0,2.498256564E-1,7.181441784E-2,-1.073098779E-1
4.556083813E0,2.423688173E-1,6.861862540E-2,-1.062446162E-1
4.558558565E0,2.562172711E-1,6.648809463E-2,-1.062446162E-1
4.561033317E0,2.492930293E-1,7.394494861E-2,-1.003856584E-1
4.563508069E0,2.588804066E-1,6.968389452E-2,-1.073098779E-1
4.565982821E0,2.524888217E-1,5.636808276E-2,-1.030488238E-1
4.568457701E0,2.583477795E-1,3.399753198E-2,-8.973301947E-2
4.570932453E0,2.620761991E-1,4.038912058E-2,-9.186354280E-2
4.573407205E0,2.663372755E-1,2.174699306E-2,-9.133091569E-2
4.575881957E0,2.823162377E-1,2.387752011E-2,-7.961300761E-2
4.578356709E0,2.892404497E-1,1.375750825E-2,-8.014563471E-2
4.580831461E0,2.876425385E-1,8.431185037E-3,-7.215615362E-2
4.583306213E0,3.009583652E-1,3.104863688E-3,-6.416667253E-2
4.585781093E0,3.100131154E-1,-6.235623732E-4,-6.736246496E-2
4.588255845E0,3.132089078E-1,-7.015149109E-3,-5.670982227E-2
4.590730597E0,3.249267936E-1,-1.553726476E-2,-4.552454501E-2
4.593205349E0,3.329162896E-1,4.417020828E-4,-5.085086450E-2
4.595680101E0,3.398405015E-1,-4.351988435E-3,-4.126348719E-2
4.598154853E0,3.446342051E-1,-5.949884653E-3,-3.540453315E-2
4.600629605E0,3.510257900E-1,2.039598301E-3,-3.114347532E-2
4.603104485E0,3.648742139E-1,8.431185037E-3,-3.167610988E-2
4.605579237E0,3.670047522E-1,1.375750825E-2,-2.581715211E-2
4.608053989E0,3.744615912E-1,1.482277177E-2,-2.741504833E-2
4.610528741E0,3.787226677E-1,3.559542820E-2,-2.794768289E-2
4.613003493E0,3.813858330E-1,5.050913244E-2,-2.848031372E-2
4.615478245E0,3.899079263E-1,6.116177887E-2,-2.208872885E-2
4.617952997E0,3.936363757E-1,8.140180260E-2,-2.741504833E-2
4.620427749E0,3.957668841E-1,9.045654535E-2,-1.889293268E-2
4.622902629E0,4.010932148E-1,1.186860576E-1,-2.049083263E-2
4.625377381E0,3.915058374E-1,1.304039657E-1,-1.622977108E-2
4.627852133E0,3.931037188E-1,1.506440043E-1,-1.942556724E-2
4.630326885E0,3.957668841E-1,1.506440043E-1,-2.368662506E-2
4.632801637E0,3.915058374E-1,1.841998100E-1,-2.848031372E-2
4.635276389E0,3.771247566E-1,1.879282594E-1,-3.860032558E-2
4.637751141E0,3.760595024E-1,1.996461451E-1,-4.126348719E-2
4.640226021E0,3.702005446E-1,2.236146033E-1,-3.327400610E-2
4.642697863E0,3.643415868E-1,2.300061882E-1,-4.445927963E-2
4.645172615E0,3.579500020E-1,2.310714424E-1,-4.286138341E-2
4.647647367E0,3.526236713E-1,2.417241037E-1,-4.019822553E-2
4.650122119E0,3.441015780E-1,2.475830615E-1,-4.179612175E-2
4.652596871E0,3.451668322E-1,2.582356930E-1,-4.499191418E-2
4.655071623E0,3.483626246E-1,2.470504045E-1,-5.138349906E-2
4.657546503E0,3.259920776E-1,2.593009472E-1,-6.416667253E-2
4.660021255E0,3.201331198E-1,2.640946507E-1,-5.724245682E-2
4.662496007E0,3.270573318E-1,2.651599050E-1,-5.564456061E-2
4.664970759E0,3.259920776E-1,2.571704388E-1,-4.712244123E-2
4.667445511E0,3.249267936E-1,2.603662312E-1,-4.978560284E-2
4.669920263E0,3.137415349E-1,2.635620236E-1,-4.605717957E-2
4.672395015E0,3.153394163E-1,2.768778205E-1,-4.765507579E-2
4.674869895E0,3.206657469E-1,2.763451934E-1,-4.179612175E-2
4.677344647E0,3.339815438E-1,2.779430747E-1,-4.126348719E-2
4.679819399E0,3.297204971E-1,2.630293965E-1,-4.126348719E-2
4.682294151E0,3.478299975E-1,2.656925321E-1,-3.646979854E-2
4.684768903E0,3.595479131E-1,2.710188627E-1,-2.208872885E-2
4.687243655E0,3.611457944E-1,2.683556974E-1,-2.848031372E-2
4.689718407E0,3.712657988E-1,2.571704388E-1,-8.240289055E-3
4.692193287E0,3.829837143E-1,2.593009472E-1,-8.772921748E-3
4.694668039E0,4.053542614E-1,2.417241037E-1,-6.109760143E-3
4.697142791E0,4.042890072E-1,2.358651459E-1,-2.508061007E-4
4.699617543E0,4.106805921E-1,2.326693535E-1,7.738677785E-3
4.702092295E0,4.330511391E-1,2.188209295E-1,1.839132234E-2
4.704567047E0,4.458343089E-1,2.012440562E-1,2.478290908E-2
4.707041927E0,4.447690547E-1,2.076356411E-1,1.892395504E-2
4.709516679E0,4.639438093E-1,2.039072216E-1,3.010923043E-2
4.711991431E0,4.815206826E-1,1.772755980E-1,3.969661146E-2
4.714466183E0,4.831185639E-1,1.778082252E-1,4.076187685E-2
4.716940935E0,4.911080599E-1,1.831345558E-1,5.034925416E-2
4.719415687E0,5.006954670E-1,1.676882207E-1,4.768609256E-2
4.721890439E0,5.076196790E-1,1.586334705E-1,6.153453141E-2
4.724365319E0,5.246638656E-1,1.724819243E-1,6.792612374E-2
4.726840071E0,5.326533914E-1,1.666229665E-1,6.739348918E-2
4.729314823E0,5.470344424E-1,1.671555936E-1,7.112191617E-2
4.731789575E0,5.401102304E-1,1.538397968E-1,7.698086649E-2
4.734264327E0,5.598176122E-1,1.623618901E-1,7.751350105E-2
4.736739079E0,5.715355277E-1,1.602313817E-1,8.230718970E-2
4.739213959E0,5.784597397E-1,1.469155550E-1,7.431770861E-2
4.741679596E0,5.837860703E-1,1.490460932E-1,8.337245882E-2
4.744154348E0,5.912429094E-1,1.527745128E-1,7.911139727E-2
4.746629100E0,6.056240201E-1,1.517092586E-1,7.964403182E-2
4.749103852E0,6.050913334E-1,1.527745128E-1,7.218717784E-2
4.751578604E0,6.210703254E-1,1.666229665E-1,7.271981239E-2
4.754053356E0,6.194724441E-1,1.644924283E-1,6.845875084E-2
4.756528108E0,6.232008338E-1,1.810040176E-1,6.632822752E-2
4.759002860E0,6.354513764E-1,1.810040176E-1,6.313242763E-2
4.761477612E0,6.386471987E-1,2.033745944E-1,5.727347359E-2
4.763952364E0,6.322556138E-1,2.113640606E-1,5.088188872E-2
4.766427116E0,6.423755884E-1,2.220167220E-1,4.608819634E-2
4.768901868E0,6.455714107E-1,2.332019806E-1,4.076187685E-2
4.771376620E0,6.487671733E-1,2.502461970E-1,3.916398063E-2
4.773851372E0,6.455714107E-1,2.513114810E-1,3.170712665E-2
4.776326124E0,6.492998600E-1,2.699536085E-1,3.916398063E-2
4.778800876E0,6.594198346E-1,2.651599050E-1,4.662083089E-2
4.781275628E0,6.706051230E-1,2.742146552E-1,3.650081903E-2
4.783750380E0,6.775293350E-1,2.523767352E-1,3.543555364E-2
4.786225004E0,6.780619621E-1,2.640946507E-1,4.235977307E-2
4.788699756E0,6.860514283E-1,2.571704388E-1,4.182713851E-2
4.791174508E0,6.876493692E-1,2.534419894E-1,4.928399250E-2
4.793649260E0,6.908451319E-1,2.608988583E-1,3.809871525E-2
4.796124012E0,7.062914968E-1,2.577030659E-1,4.129450768E-2
4.798598764E0,7.089546323E-1,2.422567308E-1,4.022924230E-2
4.801073516E0,7.174767852E-1,2.278756499E-1,4.449030012E-2
4.803548268E0,7.180094123E-1,2.433219850E-1,3.383765742E-2
4.806023020E0,7.164114714E-1,2.321367264E-1,2.744606882E-2
4.808497772E0,7.228030562E-1,2.300061882E-1,2.584817261E-2
4.810972524E0,7.158788443E-1,2.257451415E-1,1.785868965E-2
4.813447276E0,7.094872594E-1,2.374630272E-1,1.146710292E-2
4.815922028E0,7.174767852E-1,2.113640606E-1,1.519552898E-2
4.818396780E0,7.132157087E-1,2.140272260E-1,8.271310478E-3
4.820871532E0,7.014977932E-1,2.076356411E-1,7.738677785E-3
4.823346284E0,6.956388354E-1,2.071030140E-1,6.673413329E-3
4.825821036E0,6.988346577E-1,2.039072216E-1,1.879722811E-3
4.828295788E0,7.014977932E-1,1.969829798E-1,-3.446598537E-3
4.830770540E0,7.004325390E-1,1.964503527E-1,-7.834378630E-4
4.833245292E0,7.014977932E-1,2.060377300E-1,-1.143608149E-2
4.835720044E0,6.908451319E-1,1.884608865E-1,-1.037081797E-2
4.838194796E0,6.876493692E-1,1.895261407E-1,-7.175023668E-3
4.840667845E0,6.940409541E-1,1.746124327E-1,-2.208872885E-2
4.843142597E0,6.935083270E-1,1.581008434E-1,-2.581715211E-2
4.845617349E0,6.801925302E-1,1.293387115E-1,-2.848031372E-2
4.848092101E0,6.759314537E-1,1.160228923E-1,-4.019822553E-2
4.850566853E0,6.674093008E-1,9.045654535E-2,-4.019822553E-2
4.853041477E0,6.567566991E-1,7.021652162E-2,-4.978560284E-2
4.855516229E0,6.477019191E-1,3.453016281E-2,-5.777508393E-2
4.857990981E0,6.232008338E-1,2.387752011E-2,-5.244876817E-2
4.860465733E0,6.184071898E-1,9.743347764E-4,-5.244876817E-2
4.862940485E0,5.976344943E-1,-2.352674864E-2,-5.724245682E-2
4.865415237E0,5.880471468E-1,-2.352674864E-2,-4.073085636E-2
4.867889989E0,5.667418242E-1,-4.376677424E-2,-4.286138341E-2
4.870364741E0,5.528934002E-1,-4.749519750E-2,-3.913296014E-2
4.872839493E0,5.379797220E-1,-4.909309372E-2,-4.073085636E-2
4.875314245E0,5.289249420E-1,-6.187626719E-2,-3.114347532E-2
4.877788997E0,5.251965523E-1,-7.572470605E-2,-2.794768289E-2
4.880263749E0,5.166743994E-1,-7.519207895E-2,-2.581715211E-2
4.882738501E0,4.969670177E-1,-6.666995585E-2,-2.954557911E-2
4.885213253E0,4.745964706E-1,-7.892049849E-2,-2.315399423E-2
4.887688005E0,4.724659324E-1,-7.199627906E-2,-2.262135968E-2
4.890162629E0,4.538238049E-1,-7.945313305E-2,-1.356661227E-2
4.892637381E0,4.463669658E-1,-7.465943694E-2,2.818265930E-4
4.895112133E0,4.357143044E-1,-7.572470605E-2,4.542884417E-3
4.897586885E0,4.096153378E-1,-8.637735248E-2,1.040183939E-2
4.900061637E0,4.154742956E-1,-7.785523683E-2,1.359763183E-2
4.902536389E0,3.883100450E-1,-6.720259041E-2,1.839132234E-2
4.905011141E0,3.787226677E-1,-5.868047476E-2,2.265238017E-2
4.907485893E0,3.648742139E-1,-4.909309372E-2,3.596818447E-2
4.909960645E0,3.547542095E-1,-4.483203590E-2,4.928399250E-2
4.912435397E0,3.574173748E-1,-1.766779274E-2,4.608819634E-2
4.914910149E0,3.467647135E-1,-5.228888988E-2,4.821872711E-2
4.917384901E0,3.542215824E-1,-5.441941693E-2,5.088188872E-2
4.919859653E0,3.542215824E-1,-6.826785207E-2,6.845875084E-2
4.922334405E0,3.616784215E-1,-9.010577947E-2,6.366506219E-2
