"Time (s)","Acceleration x (m/s^2)","Acceleration y (m/s^2)","Acceleration z (m/s^2)"
0.000000000E0,1.631799698E0,4.478020191E0,7.203552723E0
2.865990000E-3,1.746782780E0,4.533116341E0,7.354467869E0
5.368906000E-3,1.739596367E0,4.542697906E0,7.507778168E0
7.871875000E-3,1.799483299E0,4.569048405E0,7.574851990E0
1.037489600E-2,1.904884338E0,4.497184277E0,7.617970467E0
1.287786500E-2,1.933629990E0,4.533116341E0,7.716185093E0
1.538088600E-2,2.010285378E0,4.547489166E0,7.814399719E0
1.788385400E-2,2.072567701E0,4.523534298E0,8.025201797E0
2.038682300E-2,2.091731548E0,4.530720711E0,8.224026680E0
2.288984400E-2,2.197132587E0,4.566652775E0,8.430037498E0
2.539281300E-2,2.319302082E0,4.648099422E0,8.583347321E0
2.789578100E-2,2.407934666E0,4.722359180E0,8.827686310E0
3.039880200E-2,2.400748253E0,4.803804874E0,9.127121925E0
3.329708400E-2,2.381584644E0,4.906810760E0,9.354692459E0
3.580010400E-2,2.422307491E0,5.028979778E0,9.558307648E0
3.830307300E-2,2.369606972E0,5.100844383E0,9.699641228E0
4.080609400E-2,2.333675146E0,5.129590511E0,9.989493370E0
4.330906300E-2,2.280974388E0,5.151149273E0,1.027455616E1
4.581203100E-2,2.213901043E0,5.134381294E0,1.061231899E1
4.831505200E-2,2.036635637E0,5.048143864E0,1.088540268E1
5.081802100E-2,1.880929470E0,4.902019978E0,1.100038624E1
5.332099000E-2,1.598263025E0,4.621748924E0,1.114651012E1
5.582401100E-2,1.282059789E0,4.231286049E0,1.114890575E1
5.832697900E-2,7.885912657E-1,3.752190113E0,1.106506348E1
6.082994800E-2,2.567950487E-1,3.301840305E0,1.077521038E1
6.367583400E-2,-3.516564965E-1,2.705365896E0,1.050691795E1
6.617885400E-2,-1.065509081E0,2.123264790E0,1.010926819E1
6.868182300E-2,-1.623655558E0,1.615423441E0,9.668499947E0
7.118479200E-2,-2.105146885E0,1.258497000E0,9.258872986E0
7.368781300E-2,-2.383022308E0,9.662486315E-1,8.911528587E0
7.619078100E-2,-2.612988234E0,7.889832258E-1,8.597721100E0
7.869375000E-2,-2.689643383E0,7.602375150E-1,8.420455933E0
8.119677100E-2,-2.670479774E0,7.961696982E-1,8.281517982E0
8.369979200E-2,-2.574660540E0,9.614577293E-1,8.185698509E0
8.620276100E-2,-2.323135376E0,1.172259808E0,8.125811577E0
8.870572900E-2,-2.009327650E0,1.430971503E0,8.190489769E0
9.120869800E-2,-1.614073753E0,1.744779110E0,8.334218025E0
9.404343800E-2,-1.175701141E0,2.106496334E0,8.401291847E0
9.654645900E-2,-6.151591539E-1,2.504145861E0,8.477947235E0
9.904942700E-2,-6.707608700E-3,2.880235910E0,8.583347321E0
1.015523960E-1,5.370659828E-1,3.265908003E0,8.671980858E0
1.040554170E-1,9.874160290E-1,3.598879337E0,8.777381897E0
1.065583860E-1,1.476093769E0,3.883941412E0,8.930692673E0
1.090614060E-1,1.888115883E0,4.195353985E0,9.009743690E0
1.115643750E-1,2.230669260E0,4.466042995E0,9.141494751E0
1.140673440E-1,2.544476986E0,4.693613052E0,9.220545769E0
1.165703650E-1,2.791211367E0,4.827759743E0,9.299596786E0
1.190733340E-1,2.970872164E0,5.043353081E0,9.414579391E0
1.215763020E-1,3.045131922E0,5.153544903E0,9.560704231E0
1.244288020E-1,3.083459854E0,5.201454639E0,9.673291206E0
1.269318230E-1,3.112205505E0,5.278110027E0,9.728386879E0
1.294347920E-1,3.090646029E0,5.218223095E0,9.797855377E0
1.319377610E-1,3.028363705E0,4.295963764E0,9.781087875E0
1.344407810E-1,2.829539061E0,3.043128490E0,9.757132530E0
1.369437500E-1,2.731324196E0,3.493478537E0,9.735573769E0
1.394467710E-1,2.685810328E0,4.018088341E0,9.860138893E0
1.419497400E-1,2.721742630E0,4.355850697E0,9.991889954E0
1.444527090E-1,2.784024715E0,4.669658661E0,9.965539932E0
1.469557290E-1,2.740906239E0,4.868483067E0,9.929606438E0
1.494586980E-1,2.712160587E0,4.978674889E0,9.884092331E0
1.519616670E-1,2.578013897E0,4.995443344E0,9.817019463E0
1.548154690E-1,2.429494143E0,4.985861301E0,9.836183548E0
1.573184380E-1,2.221087456E0,4.957116127E0,9.831393242E0
1.598214060E-1,2.043822050E0,4.894833565E0,9.840974808E0
1.623244270E-1,1.765946627E0,4.705590248E0,9.886488914E0
1.648273960E-1,1.547958136E0,4.521138668E0,9.869719505E0
1.673303650E-1,1.334760427E0,4.317523003E0,9.644544601E0
1.698333860E-1,1.100003481E0,4.121093750E0,9.457697868E0
1.723363540E-1,8.987833261E-1,3.941432953E0,9.397810936E0
1.748393230E-1,6.424670219E-1,3.663557529E0,9.462489128E0
1.773423440E-1,4.795745611E-1,3.452755213E0,9.481653214E0
1.798453130E-1,2.735633850E-1,3.177275181E0,9.455303192E0
1.823482810E-1,8.432060480E-2,2.952100277E0,9.464884758E0
1.852276560E-1,-1.384589076E-1,2.793998718E0,9.424160957E0
1.877306770E-1,-3.300971985E-1,2.655061007E0,9.333132744E0
1.902336460E-1,-4.354982376E-1,2.516123295E0,9.232522964E0
1.927366150E-1,-5.289219022E-1,2.408326864E0,9.218150139E0
1.952396360E-1,-6.007862687E-1,2.300530195E0,9.136703491E0
1.977426040E-1,-6.319274902E-1,2.231061220E0,9.208567619E0
2.002456250E-1,-5.792269707E-1,2.195129156E0,9.203776360E0
2.027485940E-1,-4.881987870E-1,2.173569918E0,9.251687050E0
2.052515630E-1,-3.540520072E-1,2.144824028E0,9.431347847E0
2.077545840E-1,-2.007413805E-1,2.092123508E0,9.620591164E0
2.102575520E-1,-6.659454107E-2,2.092123508E0,9.862533569E0
2.127605730E-1,8.192509413E-2,2.125660181E0,1.006614971E1
2.155707810E-1,1.705577970E-1,2.166383266E0,1.020508671E1
2.180738020E-1,2.855407596E-1,2.223874807E0,1.046140385E1
2.205767710E-1,3.765689731E-1,2.266993523E0,1.055961800E1
2.230797400E-1,4.364558458E-1,2.310112238E0,1.057878208E1
2.255827610E-1,4.915518761E-1,2.410722256E0,1.049973106E1
2.280857290E-1,5.083203316E-1,2.441863298E0,1.060992241E1
2.305886980E-1,5.514389277E-1,2.470609188E0,1.073927879E1
2.330917190E-1,6.185122728E-1,2.556846380E0,1.085665798E1
2.355946880E-1,7.646365166E-1,2.714947939E0,1.073688412E1
2.380977090E-1,8.125460148E-1,2.791603088E0,1.065543652E1
2.406006770E-1,9.395064116E-1,2.873049498E0,1.067220592E1
2.431036460E-1,1.107189894E0,3.014382601E0,1.069855595E1
2.459864060E-1,1.176658750E0,3.076665163E0,1.083988857E1
2.484894270E-1,1.284455299E0,3.189252615E0,1.104829597E1
2.509923960E-1,1.485675573E0,3.297049284E0,1.126388836E1
2.534953650E-1,1.703664064E0,3.455150604E0,1.136449909E1
2.559983860E-1,1.876138449E0,3.596483946E0,1.158488274E1
2.585013540E-1,2.053404093E0,3.562947273E0,1.176454353E1
2.610043750E-1,2.304929256E0,3.524619579E0,1.185078049E1
2.635073440E-1,2.489381075E0,3.553365469E0,1.213823891E1
2.660103130E-1,2.642691612E0,3.500664949E0,1.247120953E1
2.685133340E-1,2.846307278E0,3.402450085E0,1.277783108E1
2.710163540E-1,2.951708317E0,3.297049284E0,1.293114185E1
2.735193230E-1,2.494172096E0,3.126970291E0,1.303175163E1
2.763108340E-1,2.663769722E-1,2.638292789E0,1.303893852E1
2.788138020E-1,-1.672046483E-1,2.482586384E0,1.260296059E1
2.813167710E-1,6.276130676E-2,2.458631754E0,1.242090511E1
2.838197920E-1,2.951227427E-1,2.401140213E0,1.278262138E1
2.863227610E-1,6.544444561E-1,2.307716608E0,1.341742420E1
2.888257810E-1,1.126353741E0,2.195129156E0,1.387496090E1
2.913287500E-1,1.488070965E0,2.056191444E0,1.393724251E1
2.938317190E-1,1.765946627E0,1.845389366E0,1.353240681E1
2.963347400E-1,1.176658750E0,8.081470728E-1,1.263649750E1
2.988377090E-1,7.981731892E-1,1.206447482E-1,1.141240883E1
3.013406770E-1,9.682521820E-1,1.763916016E-2,1.032965183E1
3.038436980E-1,1.006579757E0,-2.003493905E-1,9.414579391E0
3.067707290E-1,8.125460148E-1,-3.871966600E-1,8.779777527E0
3.092736980E-1,5.849754810E-1,-3.967786431E-1,8.403687477E0
3.117766670E-1,4.148966074E-1,-4.614565372E-1,8.264749527E0
3.142796880E-1,2.112809420E-1,-4.446882010E-1,8.449201584E0
3.167826560E-1,-1.149851084E-2,-4.662474990E-1,8.683959007E0
3.192856250E-1,-2.175097167E-1,-5.093660951E-1,8.885178566E0
3.217886460E-1,-4.618485272E-1,-5.716485381E-1,8.796545982E0
3.242916150E-1,-8.091928959E-1,-6.411173940E-1,8.585743904E0
3.267946360E-1,-1.015204072E0,-6.578857303E-1,8.180908203E0
3.292976040E-1,-1.218819737E0,-5.740440488E-1,7.730557919E0
3.318005730E-1,-1.415248990E0,-4.255243540E-1,7.299371719E0
3.343035940E-1,-1.618864655E0,-1.787900329E-1,6.944840908E0
3.371305730E-1,-1.815293789E0,8.710804582E-2,6.925677299E0
3.396335420E-1,-2.033282518E0,3.937292695E-1,6.992750168E0
3.421365110E-1,-2.167429209E0,6.332771182E-1,6.971191406E0
3.446395310E-1,-2.196175098E0,8.105425835E-1,6.820276260E0
3.471425000E-1,-2.303971529E0,9.518758059E-1,6.530423164E0
3.496454690E-1,-2.383022308E0,1.064463258E0,6.329202652E0
3.521484900E-1,-2.450095654E0,1.057276845E0,6.178287983E0
3.546514590E-1,-2.505191803E0,1.004576325E0,5.972276688E0
3.571544790E-1,-2.531541824E0,9.446893334E-1,5.692005634E0
3.596574480E-1,-2.442909241E0,8.225198984E-1,5.368616104E0
3.621604170E-1,-2.153056383E0,6.620228887E-1,4.966175556E0
3.646634380E-1,-1.982977390E0,5.757856369E-1,4.558944225E0
3.675513540E-1,-1.808107495E0,5.039213300E-1,4.295441628E0
3.700543230E-1,-1.585327983E0,3.601925969E-1,4.137340069E0
3.725572920E-1,-1.254751921E0,1.781362295E-1,4.070266724E0
3.750603130E-1,-1.130187035E0,2.243012190E-2,4.264300346E0
3.775632810E-1,-1.048740745E0,-2.003493905E-1,4.721836567E0
3.800662500E-1,-8.523114920E-1,-3.368917108E-1,5.359034061E0
3.825692710E-1,-6.419909000E-2,-5.548802018E-1,6.887349129E0
3.850722400E-1,1.135935664E0,-7.010043263E-1,1.027934647E1
3.875752090E-1,1.761155605E0,-4.590610862E-1,1.346533394E1
3.900782290E-1,2.316906452E0,-5.901610851E-2,1.271075821E1
3.925811980E-1,2.475008011E0,1.086673439E-1,1.081832981E1
3.950842190E-1,1.356319666E0,-1.829302311E-2,9.706828117E0
3.979351040E-1,-9.294486046E-2,-9.255290031E-2,8.844455719E0
4.004380730E-1,-1.312243462E0,-1.811855435E-1,8.202466965E0
4.029410420E-1,-2.148265362E0,-2.362815738E-1,7.728162289E0
4.054440630E-1,-2.854931355E0,-3.512644768E-1,7.538919926E0
4.079470310E-1,-3.417868853E0,-3.752192855E-1,7.881473064E0
4.104500000E-1,-3.518479109E0,-3.249142766E-1,8.250376701E0
4.129530210E-1,-3.432241917E0,-1.572307348E-1,8.633653641E0
4.154559900E-1,-3.437032700E0,4.398944974E-2,9.191800117E0
4.179590110E-1,-3.520874500E0,2.428141534E-1,9.668499947E0
4.204619790E-1,-3.540038586E0,3.793564439E-1,9.869719505E0
4.229649480E-1,-3.477756023E0,5.925540328E-1,9.934397697E0
4.254679690E-1,-3.219044209E0,7.027460337E-1,9.809832573E0
4.283163540E-1,-2.811812878E0,6.500455141E-1,9.728386879E0
4.308193230E-1,-2.416558981E0,5.829721093E-1,9.699641228E0
4.333222920E-1,-2.069214582E0,6.021358967E-1,9.634963989E0
4.358253130E-1,-1.779361725E0,6.740002632E-1,9.687664032E0
4.383282810E-1,-1.570955038E0,7.770058513E-1,9.721200943E0
4.408312500E-1,-1.587723374E0,8.560566902E-1,9.611008644E0
4.433342710E-1,-1.707497358E0,8.608475924E-1,9.462489128E0
4.458372400E-1,-1.764988899E0,7.770058513E-1,9.306782722E0
4.483402090E-1,-1.820084810E0,7.195143700E-1,9.124727249E0
4.508432290E-1,-1.860808015E0,6.117178202E-1,8.870805740E0
4.533461980E-1,-1.949440718E0,5.158987045E-1,8.633653641E0
4.558492190E-1,-2.153056383E0,4.464298189E-1,8.528251648E0
4.586995310E-1,-2.303971529E0,4.536162615E-1,8.415664673E0
4.612025000E-1,-2.462073088E0,4.224750400E-1,8.286309242E0
4.637054690E-1,-2.505191803E0,4.104976654E-1,8.204862595E0
4.662084900E-1,-2.406977177E0,4.224750400E-1,8.106648445E0
4.687114590E-1,-2.210547924E0,3.841473758E-1,7.917405128E0
4.712144270E-1,-2.033282518E0,4.152885973E-1,7.752117157E0
4.737174480E-1,-1.865598917E0,4.703845978E-1,7.603597641E0
4.762204170E-1,-1.820084810E0,4.703845978E-1,7.524546623E0
4.787233860E-1,-1.865598917E0,5.326670408E-1,7.469450951E0
4.812264060E-1,-1.865598917E0,6.236952543E-1,7.433518887E0
4.837293750E-1,-1.975790977E0,6.380680799E-1,7.397586346E0
4.862323960E-1,-2.141078949E0,5.997404456E-1,7.522151470E0
4.890822920E-1,-2.315948963E0,5.302715898E-1,7.550896645E0
4.915852610E-1,-2.519564629E0,4.464298189E-1,7.656298161E0
4.940882290E-1,-2.749530554E0,3.338423371E-1,7.737744331E0
4.965912500E-1,-2.989078522E0,2.260457873E-1,7.797631264E0
4.990942190E-1,-3.154366493E0,1.206447482E-1,7.826377392E0
5.015971880E-1,-3.314863443E0,-1.524686813E-3,7.773676395E0
5.041002090E-1,-3.384332180E0,-1.811855435E-1,7.723371506E0
5.066031770E-1,-3.334027290E0,-3.560554981E-1,7.553292274E0
5.091061460E-1,-3.381936789E0,-4.087560177E-1,7.352072239E0
5.116091670E-1,-3.391518831E0,-4.231288433E-1,7.208343983E0
5.141121360E-1,-3.171134710E0,-5.812304616E-1,6.959213734E0
5.166151560E-1,-3.041779041E0,-7.033998370E-1,6.753202915E0
5.194667710E-1,-2.960332632E0,-8.615015149E-1,6.702897549E0
5.219697400E-1,-2.914818525E0,-9.860664010E-1,6.645406246E0
5.244727090E-1,-2.634547710E0,-1.014812231E0,6.573541641E0
5.269757290E-1,-2.112333298E0,-1.069908142E0,6.544796467E0
5.294786980E-1,-1.477531433E0,-1.024394035E0,6.439394951E0
5.319816670E-1,-9.792718887E-1,-9.381567836E-1,6.247756958E0
5.344846880E-1,-5.217354894E-1,-8.950380683E-1,6.187869549E0
5.369876560E-1,2.831453085E-1,-8.758743405E-1,6.053722858E0
5.394906250E-1,9.586702585E-1,-9.621115327E-1,6.108819008E0
5.419936460E-1,1.521607876E0,-1.050744295E0,6.056118488E0
5.444966150E-1,1.720432520E0,-1.299874067E0,6.051327229E0
5.469996360E-1,1.619822264E0,-1.623263597E0,6.161519051E0
5.498492710E-1,1.296432614E0,-2.023308516E0,6.305248260E0
5.523522400E-1,9.011788368E-1,-2.468867540E0,6.525632381E0
5.548552090E-1,4.963428974E-1,-2.895262718E0,6.894536018E0
5.573582290E-1,6.755220890E-2,-3.237816334E0,7.203552723E0
5.598611980E-1,-1.648091972E-1,-3.453409195E0,7.402377129E0
5.623641670E-1,-3.133288324E-1,-3.472573280E0,7.486219406E0
5.648671880E-1,-3.875886798E-1,-3.484550476E0,7.419145584E0
5.673701560E-1,-2.917695343E-1,-3.405499697E0,7.318535805E0
5.698731250E-1,-2.534419000E-1,-3.362380981E0,7.344885826E0
5.723761460E-1,-2.630238235E-1,-3.359985590E0,7.455077648E0
5.748791150E-1,-3.420746028E-1,-3.326448917E0,7.639529705E0
5.773821360E-1,-4.786168933E-1,-3.376754045E0,7.732953072E0
5.802285420E-1,-5.768315196E-1,-3.462991238E0,7.651507378E0
5.827315110E-1,-7.205601931E-1,-3.520482540E0,7.507778168E0
5.852344790E-1,-7.996109724E-1,-3.556414604E0,7.294580936E0
5.877375000E-1,-8.379386663E-1,-3.551623821E0,7.078987598E0
5.902404690E-1,-9.145939350E-1,-3.484550476E0,6.980773449E0
5.927434380E-1,-9.337577820E-1,-3.410290480E0,6.791530132E0
5.952464590E-1,-9.768763781E-1,-3.319262505E0,6.678942680E0
5.977494270E-1,-1.099045753E0,-3.209070444E0,6.544796467E0
6.002523960E-1,-1.166119218E0,-3.101273775E0,6.396276474E0
6.027554170E-1,-1.214028835E0,-3.074923515E0,6.192660809E0
6.052583860E-1,-1.357757449E0,-2.974313498E0,5.809384346E0
6.077614060E-1,-1.501486301E0,-2.945567846E0,5.610559464E0
6.106115630E-1,-1.712288380E0,-2.935985804E0,5.399757385E0
6.131145310E-1,-1.853621602E0,-2.914426565E0,5.212909698E0
6.156175000E-1,-2.138683319E0,-2.933590412E0,5.064390182E0
6.181205210E-1,-2.375835896E0,-2.976709127E0,5.054808140E0
6.206234900E-1,-2.622570038E0,-3.038991451E0,5.162604809E0
6.231264590E-1,-2.644129515E0,-3.101273775E0,4.978153229E0
6.256294790E-1,-2.399790764E0,-3.165951729E0,4.338560104E0
6.281324480E-1,-2.081192017E0,-3.431849957E0,3.739691019E0
6.306354170E-1,-1.724265695E0,-3.671398163E0,3.428278685E0
6.331384380E-1,-1.523045540E0,-3.913341045E0,3.385159969E0
6.356414060E-1,-1.547000289E0,-4.385250568E0,3.600753307E0
6.381444270E-1,-1.884762764E0,-4.931419373E0,3.962470531E0
6.409992190E-1,-2.469259501E0,-5.508729935E0,4.261904716E0
6.435021880E-1,-3.111247778E0,-5.930334091E0,4.575712681E0
6.460051560E-1,-3.798749924E0,-6.239350319E0,4.791306019E0
6.485081770E-1,-4.469483852E0,-6.371101856E0,5.112299919E0
6.510111460E-1,-5.065958500E0,-6.244141579E0,5.567440987E0
6.535141150E-1,-5.434862137E0,-5.925542831E0,6.161519051E0
6.560171360E-1,-5.559426785E0,-5.501543522E0,6.547191143E0
6.585201040E-1,-5.533076286E0,-5.027238369E0,6.961609364E0
6.610230730E-1,-5.557031631E0,-4.648753166E0,7.325722218E0
6.635260940E-1,-5.542658329E0,-4.380459785E0,7.541315079E0
6.660290630E-1,-5.636082172E0,-4.299013138E0,7.601202488E0
6.685320840E-1,-6.033731461E0,-4.207984924E0,7.507778168E0
6.713829690E-1,-7.629120350E0,-3.989996433E0,6.928072929E0
6.738859380E-1,-8.625638962E0,-4.267871857E0,7.388004303E0
6.763889060E-1,-7.533300877E0,-5.020051956E0,8.518671036E0
6.788918750E-1,-6.469708443E0,-5.331464767E0,8.013224602E0
6.813948960E-1,-6.520013332E0,-5.559034824E0,7.093360901E0
6.838978650E-1,-6.903290272E0,-5.808164597E0,6.765180111E0
6.864008860E-1,-6.766747952E0,-5.920752048E0,6.999936581E0
6.889038540E-1,-6.460126877E0,-6.069271564E0,7.062219143E0
6.914068230E-1,-6.553550243E0,-6.109994888E0,6.856208324E0
6.939098440E-1,-6.864962578E0,-6.126762867E0,6.702897549E0
6.964128130E-1,-7.049414635E0,-6.093226433E0,6.904117584E0
6.989158340E-1,-7.368012905E0,-6.112390518E0,7.095756054E0
7.017652090E-1,-7.796803951E0,-6.191441059E0,7.150852203E0
7.042681770E-1,-8.261526108E0,-6.236955166E0,7.193970680E0
7.067711460E-1,-8.714271545E0,-6.335170269E0,7.251462460E0
7.092741670E-1,-9.231695175E0,-6.577113152E0,7.158038616E0
7.117771360E-1,-9.624553680E0,-6.629813671E0,7.095756054E0
7.142801040E-1,-9.926383972E0,-6.471712112E0,7.380818367E0
7.167831250E-1,-1.071928787E1,-6.380683899E0,7.778467178E0
7.192860940E-1,-1.166071129E1,-6.308819771E0,8.202466965E0
7.217890630E-1,-1.259973717E1,-6.196231842E0,8.698330879E0
7.242920840E-1,-1.329203033E1,-6.004593849E0,9.187008858E0
7.267950520E-1,-1.394839287E1,-5.781814575E0,9.596635818E0
7.292980730E-1,-1.463349915E1,-5.683599472E0,9.946375847E0
7.321481250E-1,-1.528267479E1,-5.621317387E0,1.022904205E1
7.346510940E-1,-1.601329422E1,-5.611735344E0,1.057638645E1
7.371540630E-1,-1.661935234E1,-5.575803280E0,1.084228516E1
7.396570840E-1,-1.717031097E1,-5.511125565E0,1.102194595E1
7.421600520E-1,-1.775241280E1,-5.321882725E0,1.108422756E1
7.446630210E-1,-1.816203880E1,-5.214086056E0,1.105069065E1
7.471660420E-1,-1.850219727E1,-5.151803493E0,1.095726776E1
7.496690110E-1,-1.865790367E1,-4.828413963E0,1.094049835E1
7.521719790E-1,-1.877767754E1,-4.699058056E0,1.106027317E1
7.546750000E-1,-1.872497749E1,-4.658335209E0,1.118723392E1
7.571779690E-1,-1.856927109E1,-4.545747757E0,1.131898499E1
7.596809900E-1,-1.826264954E1,-4.483465195E0,1.134773064E1
7.625314060E-1,-1.781469536E1,-4.461905479E0,1.135731316E1
7.650343750E-1,-1.728769112E1,-4.445137501E0,1.125670242E1
7.675373440E-1,-1.670319366E1,-4.442741871E0,1.104829597E1
7.700403650E-1,-1.620253754E1,-4.466696739E0,1.071053314E1
7.725433340E-1,-1.561564636E1,-4.399622917E0,1.027934647E1
7.750463020E-1,-1.523476410E1,-4.303803921E0,9.469676018E0
7.775493230E-1,-1.458319473E1,-4.126538754E0,8.463574409E0
7.800522920E-1,-1.426459503E1,-3.659420490E0,6.916095257E0
7.825552610E-1,-1.302134132E1,-3.637861252E0,5.124277115E0
7.850582810E-1,-1.134929848E1,-4.715826511E0,2.661725521E0
7.875612500E-1,-1.235539818E1,-5.127848625E0,4.027893245E-1
7.900642710E-1,-1.611869621E1,-4.445137501E0,-3.291038513E0
7.929148960E-1,-1.947955322E1,-3.062946320E0,-7.207646370E0
7.954178650E-1,-2.243796921E1,-1.024394035E0,-1.029302216E1
7.979208340E-1,-2.513048744E1,1.490858436E0,-1.195788002E1
8.004238020E-1,-2.602400017E1,3.206020832E0,-1.210639954E1
8.029268230E-1,-2.490291595E1,4.049229622E0,-1.126319122E1
8.054297920E-1,-2.293383408E1,4.545093536E0,-1.037207317E1
8.079328130E-1,-2.113003731E1,4.398969173E0,-9.430649757E0
8.104357810E-1,-1.987480736E1,3.586902142E0,-8.549114227E0
8.129387500E-1,-1.916814232E1,2.381976604E0,-7.861611843E0
8.154417710E-1,-1.844710159E1,8.249154091E-1,-7.641227722E0
8.179447400E-1,-1.772366714E1,-8.399421573E-1,-7.456775665E0
8.204477610E-1,-1.729487610E1,-2.387421370E0,-7.181295872E0
8.232987500E-1,-1.642771339E1,-3.688166142E0,-6.750109673E0
8.258017190E-1,-1.495688820E1,-4.473883152E0,-6.009906769E0
8.283046880E-1,-1.351241684E1,-5.048798084E0,-4.922359943E0
8.308077090E-1,-1.289198685E1,-5.072752476E0,-3.664733171E0
8.333106770E-1,-1.193619156E1,-5.115871429E0,-1.726791024E0
8.358136460E-1,-1.068575096E1,-5.523102760E0,-1.601481140E-1
8.383166670E-1,-1.014916420E1,-5.204504013E0,4.003938735E-1
8.408196360E-1,-9.248464584E0,-4.996097565E0,1.293907404E0
8.433226040E-1,-8.625638962E0,-5.417701721E0,2.455714464E0
8.458256250E-1,-8.735832214E0,-5.290740967E0,2.908460140E0
8.483285940E-1,-8.335786819E0,-5.336255550E0,3.533679724E0
8.508316150E-1,-8.462747574E0,-5.604548931E0,4.134944916E0
8.536822400E-1,-8.467537880E0,-5.757859707E0,4.585294724E0
8.561852090E-1,-8.386091232E0,-6.121972561E0,4.963780403E0
8.586881770E-1,-8.321413040E0,-6.296842098E0,4.999712467E0
8.611911980E-1,-8.168102264E0,-6.768751621E0,4.923057079E0
8.636941670E-1,-8.199243546E0,-7.190355778E0,4.879938126E0
8.661971360E-1,-8.216012955E0,-7.317316055E0,4.805678844E0
8.687001560E-1,-8.244758606E0,-7.741316319E0,4.875147343E0
8.712031250E-1,-8.340578079E0,-8.349766731E0,4.958989143E0
8.737060940E-1,-8.259130478E0,-8.922286987E0,4.836819649E0
8.762091150E-1,-7.550069332E0,-9.379822731E0,4.348142147E0
8.787120840E-1,-6.843403339E0,-9.729562759E0,3.864255667E0
8.812151040E-1,-6.591877937E0,-1.001462460E1,3.895396948E0
8.840654690E-1,-6.488872528E0,-1.043383312E1,3.691781282E0
8.865684380E-1,-6.139132500E0,-1.025896358E1,3.600753307E0
8.890714060E-1,-5.576194763E0,-9.418150902E0,3.919351816E0
8.915744270E-1,-4.864737988E0,-7.908998966E0,4.405633926E0
8.940773960E-1,-4.308986664E0,-6.248932362E0,4.721836567E0
8.965803650E-1,-3.880196571E0,-4.756549358E0,4.853588104E0
8.990833860E-1,-3.623880148E0,-3.592347145E0,4.906288624E0
9.015863540E-1,-3.393914223E0,-2.777884245E0,4.894311428E0
9.040893230E-1,-2.984287500E0,-2.322743416E0,4.788910389E0
9.065923440E-1,-2.778276205E0,-2.171828270E0,4.357724190E0
9.090953130E-1,-2.632152081E0,-2.267647266E0,4.000797749E0
9.115983340E-1,-2.069214582E0,-2.440121889E0,3.624707937E0
9.144358340E-1,-2.062028170E0,-2.811421156E0,3.133634806E0
9.169388540E-1,-2.699225426E0,-3.534855366E0,2.731194496E0
9.194418230E-1,-3.104061127E0,-3.968437195E0,2.563511133E0
9.219448440E-1,-3.288513184E0,-4.102583885E0,2.489251375E0
9.244478130E-1,-3.346004725E0,-3.987601280E0,2.565906525E0
9.269507810E-1,-3.432241917E0,-3.700143337E0,2.822222710E0
9.294538020E-1,-3.616693735E0,-3.266561985E0,3.162380457E0
9.319567710E-1,-3.861032486E0,-2.818607569E0,3.485770226E0
9.344597400E-1,-4.105371475E0,-2.466472149E0,3.866651297E0
9.369627610E-1,-4.409597397E0,-2.238901615E0,4.149317741E0
9.394657290E-1,-4.778501034E0,-1.980190039E0,4.386469841E0
9.419687500E-1,-5.046794415E0,-1.877184391E0,4.669136047E0
9.448314590E-1,-5.331856251E0,-1.666382313E0,4.810469627E0
9.473344270E-1,-5.324669838E0,-1.697523594E0,5.018876076E0
9.498373960E-1,-5.619314194E0,-1.766992331E0,4.932638645E0
9.523404170E-1,-5.878025532E0,-1.714291811E0,4.772141933E0
9.548433860E-1,-5.925934792E0,-1.783760786E0,4.642786503E0
9.573463540E-1,-6.119968891E0,-1.970607996E0,4.503848076E0
9.598493750E-1,-6.273279667E0,-2.164641857E0,4.340955734E0
9.623523440E-1,-6.337957382E0,-2.334720850E0,4.091825962E0
9.648553130E-1,-6.366703033E0,-2.473658562E0,3.873837709E0
9.673583340E-1,-6.409821510E0,-2.552709341E0,3.744482040E0
9.698613020E-1,-6.493663311E0,-2.562291384E0,3.574403048E0
9.723642710E-1,-6.682906628E0,-2.478449583E0,3.361205339E0
9.752048440E-1,-6.807470798E0,-2.423353672E0,3.179148912E0
9.777078650E-1,-6.496058941E0,-2.689251661E0,2.949182987E0
9.802108340E-1,-6.678115368E0,-2.993477345E0,2.858154774E0
9.827138540E-1,-7.209911346E0,-3.221047878E0,2.862945795E0
9.852168230E-1,-7.219493389E0,-3.554019451E0,2.896482468E0
9.877197920E-1,-7.214702606E0,-4.011555672E0,3.061770439E0
9.902228130E-1,-7.435086250E0,-4.440346718E0,3.262990713E0
9.927257810E-1,-7.322498798E0,-4.778109074E0,3.595962286E0
9.952287500E-1,-7.540487289E0,-4.665521622E0,4.170876980E0
9.977317710E-1,-7.545278549E0,-4.263081074E0,4.875147343E0
1.000234740E0,-7.212306976E0,-4.018742085E0,5.500367165E0
1.002737709E0,-7.274589539E0,-3.800753593E0,5.989044666E0
1.005565365E0,-7.320103645E0,-3.731284618E0,6.362739563E0
1.008091615E0,-7.437481880E0,-3.716912270E0,6.499281883E0
1.010617917E0,-7.811176300E0,-3.695352554E0,6.580728054E0
1.013144219E0,-7.983651161E0,-3.755239487E0,6.669360638E0
1.015670521E0,-8.235176086E0,-3.836686134E0,6.528028011E0
1.018196771E0,-8.616058350E0,-3.755239487E0,6.377112865E0
1.020723073E0,-8.731040955E0,-3.733680248E0,6.168705940E0
1.023249375E0,-8.522634506E0,-3.834290504E0,5.754288197E0
1.025775625E0,-8.560960770E0,-3.877408981E0,5.344661236E0
1.028301927E0,-8.632825851E0,-3.894177437E0,5.109904289E0
1.030828229E0,-8.326204300E0,-3.915736675E0,4.788910389E0
1.033354531E0,-7.995628357E0,-4.045092583E0,4.417611122E0
1.035977656E0,-7.787221909E0,-4.131329536E0,4.180459023E0
1.038503959E0,-7.425504684E0,-4.239126205E0,3.852278471E0
1.041030261E0,-7.176374912E0,-4.239126205E0,3.634289742E0
1.043556563E0,-7.521323681E0,-4.167262077E0,3.682199478E0
1.046082813E0,-7.550069332E0,-4.164866447E0,3.557634592E0
1.048609115E0,-7.162002087E0,-4.330154419E0,3.121657610E0
1.051135417E0,-6.934431553E0,-4.454719067E0,2.553929090E0
1.053661719E0,-6.989527702E0,-4.591261387E0,2.036505699E0
1.056187969E0,-7.011086941E0,-4.651148319E0,1.713116169E0
1.058714271E0,-7.025459290E0,-4.653543949E0,1.566991925E0
1.061240573E0,-7.092533112E0,-4.703848839E0,1.495127559E0
1.063766875E0,-6.967967987E0,-4.677498341E0,1.327444077E0
1.066363229E0,-6.975154400E0,-4.703848839E0,1.200483799E0
1.068889531E0,-7.008691311E0,-4.720617771E0,1.071127892E0
1.071415834E0,-7.054205418E0,-4.634379864E0,1.083105326E0
1.073942136E0,-6.991922855E0,-4.576888561E0,1.037591100E0
1.076468386E0,-6.955990791E0,-4.442741871E0,1.011240840E0
1.078994688E0,-7.075764656E0,-4.397227764E0,1.018427372E0
1.081520990E0,-7.054205418E0,-4.354109287E0,1.095082641E0
1.084047292E0,-7.097323895E0,-4.231939793E0,1.044777632E0
1.086573542E0,-7.197934151E0,-4.160075665E0,1.018427372E0
1.089099844E0,-7.322498798E0,-4.265476704E0,1.107060075E0
1.091626146E0,-7.566837788E0,-4.416391373E0,1.131014943E0
1.094152448E0,-7.547674179E0,-4.540956497E0,1.011240840E0
1.096719740E0,-7.511742115E0,-4.636775494E0,8.507438302E-1
1.099246042E0,-7.403945446E0,-4.665521622E0,7.932524085E-1
1.101772344E0,-7.276985168E0,-4.679893970E0,7.405518293E-1
1.104298646E0,-7.265007496E0,-4.869137287E0,8.363709450E-1
1.106824896E0,-7.269798279E0,-5.034425259E0,9.824951291E-1
1.109351198E0,-7.238657475E0,-5.103894234E0,8.100206852E-1
1.111877500E0,-7.092533112E0,-5.024843216E0,9.226081967E-1
1.114403802E0,-6.920058250E0,-4.976933479E0,7.477383018E-1
1.116930052E0,-6.771538734E0,-4.936210632E0,8.531393409E-1
1.119456354E0,-6.675719738E0,-5.022447586E0,9.369810820E-1
1.121982656E0,-6.464917660E0,-5.142221451E0,1.121432900E0
1.124508959E0,-6.261301994E0,-5.273972988E0,1.320257664E0
1.127127709E0,-5.854070663E0,-5.429678917E0,1.713116169E0
1.129654011E0,-5.633686543E0,-5.738695621E0,1.904754400E0
1.132180313E0,-5.509121895E0,-5.973452568E0,2.120347500E0
1.134706615E0,-5.291132927E0,-6.213000774E0,2.558720112E0
1.137232865E0,-4.991698265E0,-6.577113152E0,2.812640667E0
1.139759167E0,-5.037212372E0,-7.183169365E0,3.169567108E0
1.142285469E0,-5.295924187E0,-7.904207706E0,3.526493311E0
1.144811771E0,-5.406116009E0,-8.258738518E0,3.888210535E0
1.147338021E0,-5.590568066E0,-8.625247002E0,4.012775421E0
1.149864323E0,-5.775020123E0,-8.951031685E0,4.194831848E0
1.152390625E0,-5.921144009E0,-9.123506546E0,4.448752403E0
1.154916927E0,-5.913957596E0,-9.133088112E0,4.523012161E0
1.157493125E0,-6.278070450E0,-9.537924767E0,4.484684467E0
1.160019427E0,-6.982340813E0,-9.911618233E0,4.527803421E0
1.162545729E0,-7.265007496E0,-1.008409405E1,4.491870880E0
1.165072031E0,-7.506950855E0,-1.014398098E1,4.429588318E0
1.167598334E0,-7.911786556E0,-1.024219418E1,4.305023670E0
1.170124584E0,-8.398069382E0,-1.026135826E1,4.228368282E0
1.172650886E0,-8.913097382E0,-1.016314411E1,4.192436218E0
1.175177188E0,-9.526338577E0,-9.856522560E0,3.950493097E0
1.177703490E0,-9.725164413E0,-9.581042290E0,3.409115076E0
1.180229740E0,-9.775468826E0,-9.518760681E0,2.879714251E0
1.182756042E0,-9.547899246E0,-9.415754318E0,2.489251375E0
1.185282344E0,-9.509571075E0,-9.212139130E0,2.242516756E0
1.187891511E0,-9.650903702E0,-8.986964226E0,1.979014277E0
1.190417813E0,-9.792236328E0,-8.864794731E0,1.832890034E0
1.192944115E0,-9.837751389E0,-8.689924240E0,1.713116169E0
1.195470417E0,-9.670068741E0,-8.476727486E0,1.684370399E0
1.197996667E0,-9.349073410E0,-8.222806931E0,1.610110521E0
1.200522969E0,-9.138271332E0,-8.081473351E0,1.588551283E0
1.203049271E0,-8.745412827E0,-8.045541763E0,1.394517541E0
1.205575521E0,-8.314227104E0,-8.064704895E0,1.430449605E0
1.208101823E0,-7.954905510E0,-8.131778717E0,1.555014491E0
1.210628125E0,-7.571629047E0,-8.232388496E0,1.648438096E0
1.213154427E0,-7.068578243E0,-8.349766731E0,1.832890034E0
1.215680729E0,-6.769143581E0,-8.433609009E0,1.959850430E0
1.218279740E0,-6.515223026E0,-8.474331856E0,2.074833393E0
1.220806042E0,-6.232556343E0,-8.546196938E0,2.163465977E0
1.223332344E0,-5.640872955E0,-8.539010048E0,2.323962927E0
1.225858646E0,-5.180941105E0,-8.491100311E0,2.541951656E0
1.228384896E0,-4.919834137E0,-8.620455742E0,2.726403475E0
1.230911198E0,-4.594048977E0,-8.780952454E0,2.707239866E0
1.233437500E0,-4.323359966E0,-8.871981621E0,2.767126799E0
1.235963802E0,-4.035902500E0,-9.030082703E0,2.846177578E0
1.238490052E0,-3.734072208E0,-9.255257607E0,2.776708603E0
1.241016354E0,-4.028716087E0,-9.382218361E0,2.460505486E0
1.243542656E0,-4.002366066E0,-9.470850945E0,2.357499838E0
1.246068959E0,-4.299405098E0,-9.466059685E0,2.314381361E0
1.248657813E0,-4.677890778E0,-9.331912994E0,2.256889820E0
1.251184115E0,-5.020443916E0,-9.116319656E0,2.278449059E0
1.253710417E0,-5.152195454E0,-8.895936012E0,2.141906738E0
1.256236719E0,-5.092308521E0,-8.713879585E0,1.830494523E0
1.258762969E0,-5.149799824E0,-8.622851372E0,1.420867801E0
1.261289271E0,-4.819223881E0,-8.536614418E0,1.018427372E0
1.263815573E0,-4.756941319E0,-8.222806931E0,7.309699059E-1
1.266341823E0,-5.521099091E0,-7.518536091E0,6.591055989E-1
1.268868125E0,-5.564218044E0,-6.878943443E0,7.692975998E-1
1.271394427E0,-4.891088486E0,-6.603463650E0,8.914669752E-1
1.273920729E0,-3.841868639E0,-6.668141365E0,7.189925313E-1
1.276447031E0,-3.108852148E0,-6.972367287E0,5.081904531E-1
1.279041042E0,-3.362772942E0,-7.216706276E0,4.099757671E-1
1.281567344E0,-3.978410959E0,-7.417925835E0,4.315350950E-1
1.284093646E0,-4.366478443E0,-7.578423023E0,5.225632787E-1
1.286619948E0,-4.598839760E0,-7.638309956E0,5.680773854E-1
1.289146198E0,-4.864737988E0,-7.415530682E0,7.165970802E-1
1.291672500E0,-5.089912891E0,-7.173587322E0,7.309699059E-1
1.294198802E0,-5.034816742E0,-6.890921116E0,9.034444094E-1
1.296725104E0,-5.224060059E0,-6.452548504E0,9.154217839E-1
1.299251354E0,-5.892398357E0,-5.899193287E0,1.025613785E0
1.301777656E0,-6.738002300E0,-5.288346291E0,9.968680143E-1
1.304303959E0,-7.176374912E0,-4.883510113E0,1.001659036E0
1.306830261E0,-7.372804165E0,-4.495442390E0,8.411619663E-1
1.309424844E0,-6.965572357E0,-4.471487522E0,7.932524085E-1
1.311951146E0,-6.587087154E0,-4.629589081E0,6.040095687E-1
1.314477448E0,-6.112782478E0,-4.861950397E0,5.728683472E-1
1.317003750E0,-6.021753788E0,-4.888300896E0,3.788345456E-1
1.319530000E0,-5.736691952E0,-4.883510113E0,5.177723169E-1
1.322056302E0,-5.834907055E0,-4.802063465E0,7.716931105E-1
1.324582604E0,-6.536781788E0,-4.437951088E0,9.920771122E-1
1.327108906E0,-6.814657688E0,-4.121747494E0,1.174133420E0
1.329635156E0,-6.654160500E0,-3.980414391E0,1.281929970E0
1.332161459E0,-6.642182827E0,-3.891782284E0,1.370562673E0
1.334687761E0,-7.109301567E0,-3.671398163E0,1.277139068E0
1.337214063E0,-7.248239040E0,-3.640256405E0,1.394517541E0
1.339808073E0,-7.456645966E0,-3.664211750E0,1.511895895E0
1.342334375E0,-7.648283958E0,-3.534855366E0,1.452009082E0
1.344860677E0,-7.339267254E0,-3.623488426E0,1.547828197E0
1.347386979E0,-7.523718834E0,-3.762425900E0,1.607715011E0
1.349913229E0,-7.459041595E0,-3.939691544E0,1.648438096E0
1.352439531E0,-6.970363617E0,-4.227149010E0,1.715511680E0
1.354965834E0,-6.958386421E0,-4.440346718E0,1.705929637E0
1.357492084E0,-6.764352322E0,-4.634379864E0,1.883195162E0
1.360018386E0,-6.855380535E0,-4.794877052E0,1.871217608E0
1.362544688E0,-6.912871838E0,-4.960165024E0,1.952664018E0
1.365070990E0,-6.908081055E0,-5.214086056E0,1.988596201E0
1.367597292E0,-6.718838692E0,-5.503939152E0,1.990991592E0
1.370195313E0,-6.584691525E0,-5.606944561E0,2.019737482E0
1.372721615E0,-6.383471489E0,-5.645272255E0,1.887986064E0
1.375247917E0,-6.179855824E0,-5.681203842E0,1.868822217E0
1.377774219E0,-6.100804806E0,-5.769836903E0,1.852053881E0
1.380300469E0,-5.913957596E0,-5.947102547E0,1.856844783E0
1.382826771E0,-5.736691952E0,-6.208209515E0,2.122743130E0
1.385353073E0,-5.310297012E0,-6.160300255E0,1.576573849E0
1.387879323E0,-4.936602592E0,-5.949498177E0,1.159760475E0
1.390405625E0,-4.883902073E0,-5.772232533E0,1.337026000E0
1.392931927E0,-4.905460835E0,-5.882424355E0,1.662811041E0
1.395458229E0,-5.058772087E0,-6.107599735E0,1.847262859E0
1.397984531E0,-5.437257290E0,-6.462130070E0,1.904754400E0
1.400579011E0,-5.636082172E0,-6.895711899E0,2.065251589E0
1.403105313E0,-5.765438080E0,-7.015486240E0,2.067646980E0
1.405631615E0,-5.528285503E0,-6.905293465E0,1.801748753E0
1.408157865E0,-5.521099091E0,-6.917271137E0,1.794562340E0
1.410684167E0,-5.954680920E0,-7.017880917E0,2.249703169E0
1.413210469E0,-6.004985809E0,-7.199937344E0,2.496437550E0
1.415736771E0,-6.282861233E0,-7.626332760E0,2.647352695E0
1.418263021E0,-6.476894855E0,-7.691010952E0,2.482064724E0
1.420789323E0,-6.124760151E0,-7.324502468E0,2.192211866E0
1.423315625E0,-6.007381439E0,-7.300547600E0,2.391036510E0
1.425841927E0,-5.870839119E0,-7.312525272E0,2.503623962E0
1.428368177E0,-5.925934792E0,-7.298151970E0,2.022132874E0
1.430962396E0,-6.158296585E0,-7.691010952E0,2.331149578E0
1.433488698E0,-6.505640984E0,-8.665969849E0,2.994697094E0
1.436015000E0,-6.687696934E0,-1.001222897E1,2.407804728E0
1.438541302E0,-5.906771183E0,-1.059193420E1,1.823308110E0
1.441067552E0,-4.342523575E0,-8.656388283E0,9.753087163E-1
1.443593854E0,-4.354501247E0,-8.091055870E0,1.281929970E0
1.446120156E0,-5.195313931E0,-9.180997849E0,1.940686464E0
1.448646459E0,-4.694658756E0,-8.946240425E0,1.895172477E0
1.451172709E0,-3.542433977E0,-7.252637863E0,3.117611408E-1
1.453699011E0,-3.298094988E0,-6.536389828E0,-2.046521287E-3
1.456225313E0,-3.041779041E0,-6.251327991E0,-5.474704504E-2
1.458751563E0,-3.456196785E0,-6.946017265E0,5.824502707E-1
1.461346302E0,-3.846659660E0,-8.582128525E0,1.111850977E0
1.463872604E0,-3.841868639E0,-9.597811699E0,-5.745658278E-1
1.466398906E0,-2.998660326E0,-9.533133507E0,-1.336328030E0
1.468925209E0,-1.669169664E0,-8.598896980E0,-2.138813257E0
1.471451459E0,-1.364943981E0,-8.098241806E0,-2.402316093E0
1.473977761E0,-1.788943648E0,-7.899417400E0,-1.511197925E0
1.476504063E0,-1.808107495E0,-7.772456646E0,-1.010542989E0
1.479030313E0,-1.063113689E0,-7.580818653E0,-1.072825313E0
1.481556615E0,2.064899802E-1,-7.199937344E0,-1.348305464E0
1.484082917E0,-5.940812826E-2,-7.645496845E0,-1.808237314E0
1.486609219E0,-3.034592390E0,-1.087939262E1,-1.844169497E0
1.489135469E0,-3.257371902E0,-1.289398956E1,-2.907762051E0
1.491729636E0,-2.320739746E0,-1.218492794E1,-4.139038086E0
1.494255938E0,-1.515859127E0,-1.089136982E1,-4.325885296E0
1.496782240E0,-9.936447144E-1,-9.777471542E0,-4.036032677E0
1.499308542E0,-2.055323124E-1,-8.610873222E0,-3.671919584E0
1.501834792E0,3.028363705E0,-3.896572590E0,-3.741388559E0
1.504361094E0,4.194961548E0,-4.013950825E0,-3.956981421E0
1.506887396E0,-4.546620846E-1,-8.445585251E0,-4.179761410E0
1.509413698E0,-5.152195454E0,-1.156210327E1,-2.577185869E0
1.511939948E0,-8.963401794E0,-1.435523129E1,7.764840126E-1
1.514466250E0,-1.122952461E1,-1.515532112E1,3.227058411E0
1.516992552E0,-1.069533348E1,-1.341380882E1,4.566130638E0
1.519518854E0,-7.562047005E0,-1.026375484E1,4.664345264E0
1.522112396E0,-4.685077190E0,-7.259824753E0,3.921747208E0
1.524638698E0,-3.204671383E0,-5.336255550E0,3.033024788E0
1.527165000E0,-2.632152081E0,-4.670312405E0,2.316776752E0
1.529691302E0,-3.863427877E0,-5.693181515E0,1.763421178E0
1.532217604E0,-4.016738892E0,-6.466920853E0,1.440031528E0
1.534743854E0,-3.302886009E0,-6.924457550E0,8.196026683E-1
1.537270156E0,-3.051360607E0,-7.410739422E0,9.082353115E-1
1.539796459E0,-2.912422895E0,-7.726943493E0,1.315466642E0
1.542322709E0,-2.888468266E0,-7.880254269E0,1.746652722E0
1.544849011E0,-2.471654892E0,-7.657474041E0,2.079624176E0
1.547375313E0,-2.016514063E0,-7.250242710E0,2.232934952E0
1.549901615E0,-1.523045540E0,-6.761565208E0,2.223352909E0
1.552495573E0,-1.391294241E0,-6.502853394E0,1.950268507E0
1.555021875E0,-1.240379095E0,-6.344751835E0,1.780189514E0
1.557548177E0,-8.738708496E-1,-6.282469749E0,1.332234979E0
1.560074427E0,-6.127636433E-1,-6.332774639E0,1.008845448E0
1.562600729E0,-1.218819737E0,-7.084954739E0,1.169342518E0
1.565127031E0,-1.920694947E0,-8.012004852E0,1.437636137E0
1.567653334E0,-2.105146885E0,-8.613269806E0,1.619692445E0
1.570179636E0,-2.028491497E0,-8.960613251E0,1.710720658E0
1.572705886E0,-1.769779801E0,-9.137879372E0,1.658020139E0
1.575232188E0,-1.539813757E0,-9.147461891E0,1.574178457E0
1.577758490E0,-1.197260380E0,-8.986964226E0,1.382539988E0
1.580284792E0,-1.384107709E0,-8.986964226E0,1.178924441E0
1.582877292E0,-1.755406976E0,-9.061223984E0,1.006449938E0
1.585403594E0,-2.375835896E0,-9.066014290E0,7.477383018E-1
1.587929896E0,-2.984287500E0,-9.068410873E0,4.315350950E-1
1.590456198E0,-3.494524240E0,-9.118715286E0,2.303148806E-1
1.592982448E0,-4.119744301E0,-9.387008667E0,3.628113493E-2
1.595508750E0,-4.718614101E0,-9.722375870E0,-7.151539624E-2
1.598035052E0,-4.883902073E0,-9.952342033E0,-6.193348393E-2
1.600561354E0,-4.656331539E0,-9.595415115E0,-2.487808168E-1
1.603087604E0,-4.261077404E0,-8.977382660E0,-3.038768172E-1
1.605613906E0,-4.661122322E0,-8.994150162E0,6.981783360E-2
1.608140209E0,-4.737777710E0,-9.394195557E0,2.207329720E-1
1.610666511E0,-5.010862350E0,-1.062068081E1,4.346757010E-2
1.613261823E0,-6.908081055E0,-1.516729832E1,8.411619663E-1
1.615788125E0,-3.726885796E0,-1.228074741E1,2.430374175E-2
1.618314427E0,-9.625035524E-1,-6.610650063E0,-1.343514442E0
1.620840729E0,-4.385642052E0,-1.010565281E1,-2.128486335E-1
1.623366979E0,-5.315087795E0,-1.284128952E1,1.008845448E0
1.625893281E0,-2.282412052E0,-7.844321728E0,-3.996959627E-1
1.628419584E0,-3.020219564E0,-7.314920425E0,-5.170744061E-1
1.630945834E0,-4.591653347E0,-1.026614952E1,6.495236754E-1
1.633472136E0,-2.263248444E0,-6.732819557E0,1.177274063E-1
1.635998438E0,-1.985372901E0,-4.449928761E0,-5.649839640E-1
1.638524740E0,-4.495834351E0,-8.809698105E0,5.968231559E-1
1.641051042E0,-3.226230621E0,-7.779643536E0,6.710829735E-1
1.643645417E0,-2.263248444E0,-4.852368355E0,-4.140688181E-1
1.646171719E0,-4.761732578E0,-8.606082916E0,4.387215376E-1
1.648698021E0,-3.681371689E0,-8.941449165E0,1.044777632E0
1.651224323E0,-1.875180840E0,-6.692096233E0,-1.162843592E-2
1.653750573E0,-2.289598465E0,-7.286175251E0,3.388565779E-2
1.656276875E0,-2.526751041E0,-7.140050411E0,6.981783360E-2
1.658803177E0,-2.246479988E0,-3.233025312E0,-8.883735538E-1
1.661329479E0,-1.058322668E0,-1.548352838E-1,-2.526880980E0
1.663855729E0,-1.975790977E0,-1.865206957E0,-1.103966594E0
1.666382031E0,-4.194004059E0,-5.444052219E0,2.192211866E0
1.668908334E0,-4.883902073E0,-8.519845963E0,3.131239414E0
1.671434636E0,-4.265868187E0,-1.041466999E1,2.824618340E0
1.673966302E0,-3.413078070E0,-1.140160656E1,2.276053429E0
1.676492604E0,-2.742343903E0,-1.226397896E1,1.947872996E0
1.679018906E0,-2.244084597E0,-1.305927753E1,1.365771770E0
1.681545209E0,-2.030887127E0,-1.324133396E1,7.956478596E-1
1.684071511E0,-2.838163137E0,-1.432888126E1,1.001659036E0
1.686597761E0,-2.428536415E0,-1.401267815E1,6.591055989E-1
1.689124063E0,-1.647610307E0,-1.284368420E1,-3.254361451E-1
1.691650365E0,-1.671565175E0,-1.386894989E1,-1.717209101E0
1.694176615E0,-2.378231287E0,-1.455645180E1,-1.472870350E0
1.696702917E0,-3.293304205E0,-1.386655331E1,-1.154271722E0
1.699229219E0,-3.796354771E0,-1.341859913E1,-1.046475053E0
1.701755521E0,-3.607111692E0,-1.342339039E1,-5.362382531E-1
1.704411042E0,-3.065733671E0,-1.384978580E1,-1.361933202E-1
1.706937344E0,-2.517168999E0,-1.501877880E1,6.495236754E-1
1.709463646E0,-1.913508415E0,-1.477923203E1,1.711730659E-2
1.711989948E0,-1.676356077E0,-1.526311779E1,-1.077616334E0
1.714516198E0,-9.289668798E-1,-1.525353527E1,-1.379446626E0
1.717042500E0,-6.271365285E-1,-1.479839420E1,-2.080576718E-1
1.719568802E0,-5.744360089E-1,-1.421868992E1,-9.458650351E-1
1.722095104E0,-6.319274902E-1,-1.383541298E1,-2.071739912E0
1.724621354E0,-8.096742630E-2,-1.307844162E1,-2.016644001E0
1.727147656E0,5.993484259E-1,-1.170822716E1,-2.217864275E0
1.729673959E0,-8.815386891E-2,-1.069733524E1,-2.088508129E0
1.732200209E0,-8.666844368E-1,-1.022782135E1,-1.542339206E0
1.734748646E0,-1.156537294E0,-9.729562759E0,-1.091989279E0
1.737274948E0,-1.240379095E0,-9.914014816E0,-7.398538589E-1
1.739801250E0,-1.132582545E0,-1.018230724E1,-2.655491531E-1
1.742327552E0,-8.642889261E-1,-1.052246571E1,-1.505661905E-1
1.744853854E0,-1.206842422E0,-1.066140366E1,-1.050520912E-1
1.747380104E0,-1.091859341E0,-1.047216034E1,-5.554020405E-1
1.749906406E0,-6.678596735E-1,-1.022063541E1,-1.264463782E0
1.752432709E0,4.604107141E-1,-1.100635242E1,-4.476055503E-1
1.754959011E0,2.475008011E0,-1.347129917E1,-5.793568492E-1
1.757485261E0,4.843655825E-1,-1.238135719E1,-1.183017373E0
1.760011563E0,5.011337996E-1,-1.143993473E1,-1.345909953E0
1.762537865E0,-1.678751588E0,-1.363419247E1,-1.032102346E0
1.765178334E0,-4.069438934E0,-1.572544479E1,5.656818748E-1
1.767704636E0,-2.886072636E0,-1.328924370E1,5.273543000E-1
1.770230938E0,-2.720784664E0,-1.189986515E1,-1.888938546E-1
1.772757240E0,-2.917213917E0,-1.100635242E1,-1.436938047E0
1.775283490E0,-2.584242582E0,-9.518760681E0,-1.518384337E0
1.777809792E0,-2.632152081E0,-7.887440205E0,-1.113548517E0
1.780336094E0,-2.536333084E0,-6.646582127E0,-9.123283625E-1
1.782862396E0,-2.155451775E0,-5.369791985E0,-8.716052175E-1
1.785388646E0,-1.815293789E0,-4.100188732E0,-4.236507416E-1
1.787914948E0,-1.772175193E0,-2.876099110E0,3.165521324E-1
1.790441250E0,-2.059632778E0,-1.901139259E0,1.193297267E0
1.792967500E0,-2.526751041E0,-1.419647932E0,1.466381788E0
1.795560834E0,-3.154366493E0,-1.460371017E0,1.502313972E0
1.798087136E0,-3.940083265E0,-2.387421370E0,1.310675740E0
1.800613438E0,-4.541348457E0,-4.109770775E0,6.734784842E-1
1.803139740E0,-4.277845383E0,-5.913565636E0,8.898166567E-2
1.805665990E0,-3.563993216E0,-7.245451450E0,-5.290517807E-1
1.808192292E0,-3.135202408E0,-8.095846176E0,-8.428594470E-1
1.810718594E0,-2.922004938E0,-8.529427528E0,-8.141137362E-1
1.813244896E0,-2.766299009E0,-8.819280624E0,-7.829724550E-1
1.815771146E0,-2.524355412E0,-8.840839386E0,-6.655940413E-1
1.818297448E0,-2.289598465E0,-8.742625237E0,-5.769613385E-1
1.820823750E0,-2.030887127E0,-8.694715500E0,-5.218653679E-1
1.823350052E0,-1.846435070E0,-8.642015457E0,-4.859331846E-1
1.825944688E0,-1.683542609E0,-8.730648041E0,-5.506110787E-1
1.828470990E0,-1.547000289E0,-8.831257820E0,-5.793568492E-1
1.830997292E0,-1.606887341E0,-9.025291443E0,-6.033115983E-1
1.833523594E0,-1.697915435E0,-9.195370674E0,-5.985206366E-1
1.836049844E0,-1.803316474E0,-9.343890190E0,-6.057071090E-1
1.838576146E0,-2.004536629E0,-9.470850945E0,-6.608030796E-1
1.841102448E0,-2.177011013E0,-9.573856354E0,-7.350628972E-1
1.843628750E0,-2.248875618E0,-9.588229179E0,-8.500459194E-1
1.846155000E0,-2.457282066E0,-9.566669464E0,-9.410740733E-1
1.848681302E0,-2.466864109E0,-9.523551941E0,-9.770061970E-1
1.851207604E0,-2.435722828E0,-9.470850945E0,-1.012938380E0
1.853733906E0,-2.488423347E0,-9.468455315E0,-9.362831116E-1
1.856328125E0,-2.416558981E0,-9.382218361E0,-9.506559968E-1
1.858854427E0,-2.414163589E0,-9.367845535E0,-9.171192646E-1
1.861380729E0,-2.392604351E0,-9.334308624E0,-8.524413705E-1
1.863907031E0,-2.378231287E0,-9.295980453E0,-7.709950805E-1
1.866433281E0,-2.380626678E0,-9.195370674E0,-8.069272637E-1
1.868959584E0,-2.320739746E0,-9.116319656E0,-8.165091872E-1
1.871485886E0,-2.308762550E0,-8.994150162E0,-8.763961792E-1
1.874012188E0,-2.280016899E0,-9.001337051E0,-9.362831116E-1
1.876538438E0,-2.246479988E0,-8.958218575E0,-1.015333891E0
1.879064740E0,-2.311157942E0,-8.946240425E0,-1.369864702E0
1.881591042E0,-2.085982800E0,-8.989359856E0,-1.484847784E0
1.884117344E0,-2.294389725E0,-9.097156525E0,-1.446520090E0
1.886711667E0,-2.248875618E0,-9.032478333E0,-1.307582259E0
1.889237969E0,-1.987768292E0,-8.891144753E0,-1.252486229E0
1.891764271E0,-1.750615954E0,-8.893540382E0,-1.228531480E0
1.894290573E0,-1.671565175E0,-8.953427315E0,-1.056057096E0
1.896816823E0,-1.587723374E0,-9.008523941E0,-9.506559968E-1
1.899343125E0,-1.556582212E0,-9.042060852E0,-9.913790822E-1
1.901869427E0,-1.561373234E0,-9.056432724E0,-8.740006685E-1
1.904395729E0,-1.645214915E0,-9.324726105E0,-3.613683283E-1
1.906921979E0,-1.491904259E0,-9.458873749E0,-2.415943742E-1
1.909448281E0,-1.441599250E0,-9.137879372E0,-7.949498892E-1
1.911974584E0,-1.733847618E0,-8.831257820E0,-1.185412884E0
1.914500886E0,-2.071609974E0,-8.824071884E0,-1.094384670E0
1.917094427E0,-1.832062244E0,-8.905517578E0,-1.087198257E0
1.919620729E0,-1.324220777E0,-8.919890404E0,-1.180621982E0
1.922147031E0,-1.060718179E0,-8.891144753E0,-1.257277250E0
1.924673334E0,-1.190073967E0,-8.900726318E0,-1.281231999E0
1.927199584E0,-1.429621935E0,-8.893540382E0,-1.238113403E0
1.929725886E0,-1.633237481E0,-8.991755486E0,-1.173435450E0
1.932252188E0,-1.594909787E0,-8.989359856E0,-1.084802747E0
1.934778490E0,-1.539813757E0,-8.955822945E0,-9.985655546E-1
1.937304740E0,-1.513463616E0,-9.039664268E0,-9.219102263E-1
1.939831042E0,-1.477531433E0,-9.099551201E0,-9.314921498E-1
1.942357344E0,-1.410458088E0,-9.092365265E0,-8.452548981E-1
1.944883646E0,-1.460763097E0,-9.113924980E0,-8.380684853E-1
1.947477188E0,-1.465553999E0,-9.121110916E0,-7.901589274E-1
1.950003490E0,-1.446390152E0,-9.166625023E0,-7.733905911E-1
1.952529792E0,-1.482322335E0,-9.159438133E0,-7.949498892E-1
1.955056094E0,-1.551791191E0,-9.109133720E0,-8.620232940E-1
1.957582344E0,-1.575746059E0,-9.111528397E0,-7.709950805E-1
1.960108646E0,-1.427226305E0,-8.955822945E0,-8.883735538E-1
1.962634948E0,-1.393689632E0,-8.840839386E0,-1.056057096E0
1.965161198E0,-1.568559647E0,-8.850421906E0,-1.060847998E0
1.967687500E0,-1.374525785E0,-8.819280624E0,-9.626333714E-1
1.970213802E0,-1.209237814E0,-8.831257820E0,-9.434695244E-1
1.972740104E0,-1.151746273E0,-8.812094688E0,-9.267012477E-1
1.975266406E0,-1.048740745E0,-8.704298019E0,-9.171192646E-1
1.977860729E0,-1.019994974E0,-8.517450333E0,-1.000961065E0
1.980387031E0,-1.034367919E0,-8.241971016E0,-1.036893249E0
1.982913334E0,-1.053531647E0,-7.992841244E0,-1.034497738E0
1.985439636E0,-9.960402250E-1,-7.808389187E0,-1.106362104E0
1.987965886E0,-1.003226638E0,-7.614355564E0,-1.032102346E0
1.990492188E0,-8.738708496E-1,-7.396367073E0,-9.099328518E-1
1.993018490E0,-6.415094137E-1,-7.130468369E0,-7.997408509E-1
1.995544792E0,-6.798370481E-1,-6.809474468E0,-7.422493696E-1
1.998071042E0,-9.145939350E-1,-6.615440845E0,-8.740006685E-1
2.000597344E0,-1.443994761E0,-6.644186497E0,-9.554469585E-1
2.003123646E0,-2.119519711E0,-6.941226006E0,-1.044079661E0
2.005649948E0,-2.579451561E0,-7.120887280E0,-1.010542989E0
2.008243438E0,-2.807021856E0,-6.763960361E0,-1.120734930E0
2.010774323E0,-3.046569824E0,-6.380683899E0,-1.422565222E0
2.013305156E0,-3.401100636E0,-5.906379223E0,-1.494429588E0
2.015836042E0,-3.705326557E0,-5.194921970E0,-1.542339206E0
2.018366927E0,-3.604716301E0,-4.576888561E0,-1.633367300E0
2.020897761E0,-3.482547045E0,-3.700143337E0,-1.441729069E0
2.023428646E0,-3.223835230E0,-2.605409861E0,-1.202181220E0
2.025959531E0,-2.708807468E0,-1.472348452E0,-1.091989279E0
2.028490417E0,-2.430931807E0,-6.554902196E-1,-9.362831116E-1
2.031021302E0,-2.433327198E0,-1.069257259E-1,-7.614131570E-1
2.033552136E0,-2.574660540E0,-1.524686813E-3,-6.272664070E-1
2.036083021E0,-2.660897732E0,-3.871966600E-1,-4.739557803E-1
2.038626927E0,-2.622570038E0,-8.782697320E-1,-6.512211561E-1
2.041157813E0,-2.490818977E0,-1.242382526E0,-9.314921498E-1
2.043688646E0,-2.167429209E0,-1.975399017E0,-1.029706836E0
2.046219531E0,-2.014118671E0,-2.535941124E0,-9.290966392E-1
2.048750417E0,-1.520650029E0,-2.559895754E0,-1.024915814E0
2.051281250E0,-1.190073967E0,-2.741951942E0,-1.298000336E0
2.053812136E0,-1.034367919E0,-2.703624487E0,-1.566293955E0
2.056343021E0,-8.762663007E-1,-2.291602373E0,-1.185412884E0
2.058873906E0,-6.846280098E-1,-2.325138807E0,-6.536166668E-1
2.061404740E0,-8.235657811E-1,-3.359985590E0,-1.008147478E0
2.063935625E0,-1.300266027E0,-5.628503323E0,-2.193909168E0
2.066466511E0,-1.896740079E0,-7.556864262E0,-2.502925873E0
2.069008073E0,-2.066819191E0,-8.620455742E0,-2.620304585E0
2.071538959E0,-1.712288380E0,-8.285088539E0,-3.200010300E0
2.074069792E0,-4.762213826E-1,-5.587780476E0,-1.930406690E0
2.076600677E0,-1.180492163E0,-5.573407650E0,-8.644188046E-1
2.079131563E0,-2.548310280E0,-6.390265942E0,-3.279061317E0
2.081662448E0,-3.262162924E0,-5.487170696E0,-5.432596684E0
2.084193281E0,-3.882591724E0,-2.636551142E0,-5.679330826E0
2.086724167E0,-4.119744301E0,8.201245070E-1,-3.808461905E0
2.089255052E0,-3.942478657E0,3.476710081E0,-6.224753857E-1
2.091785886E0,-3.101665974E0,3.498269558E0,2.242516756E0
2.094316771E0,-2.251271009E0,2.154406071E0,4.693091393E0
2.096847656E0,-1.705101848E0,-1.362156391E0,5.291960716E0
2.099393438E0,-1.261938334E0,-5.103894234E0,1.717907071E0
2.101924323E0,-1.453576684E0,-8.019190788E0,9.968680143E-1
2.104455156E0,-1.539813757E0,-9.516365051E0,6.950377822E-1
2.106986042E0,-1.465553999E0,-9.537924767E0,5.345407128E-1
2.109516927E0,-1.242774487E0,-8.939054489E0,-5.194698572E-1
2.112047761E0,-1.475135922E0,-9.027688026E0,-1.575875878E0
2.114578646E0,-1.970999956E0,-8.318625450E0,-2.260982752E0
2.117109531E0,-1.982977390E0,-5.832119465E0,3.979983628E-1
2.119640417E0,-1.736243129E0,-5.281159401E0,3.812300265E-1
2.122171250E0,-1.650005817E0,-6.095622063E0,-1.048870564E0
2.124702136E0,-1.494299769E0,-5.932729721E0,-1.336328030E0
2.127233021E0,-1.379316807E0,-5.123057365E0,-5.793568492E-1
2.129774844E0,-1.410458088E0,-5.238040447E0,-3.445999324E-1
2.132305729E0,-1.542209387E0,-6.421407223E0,-1.247695327E0
2.134836563E0,-1.755406976E0,-7.235869884E0,-2.119649410E0
2.137367448E0,-1.915903926E0,-7.988049984E0,-2.316078663E0
2.139898334E0,-1.913508415E0,-9.042060852E0,-2.373570204E0
2.142429219E0,-2.227316380E0,-9.533133507E0,-2.299310446E0
2.144960052E0,-2.524355412E0,-9.506782532E0,-2.368779182E0
2.147490938E0,-2.692039013E0,-8.438399315E0,-1.024915814E0
2.150021823E0,-2.363858461E0,-8.268321037E0,4.107209668E-2
2.152552656E0,-1.920694947E0,-8.287484169E0,-6.416392922E-1
2.155083542E0,-1.755406976E0,-8.251552582E0,-4.595829248E-1
2.157614427E0,-1.403271675E0,-8.129382133E0,-5.074924827E-1
2.160160677E0,-1.149350882E0,-7.882648945E0,-4.979105592E-1
2.162691563E0,-1.051136255E0,-8.002422333E0,-6.727804542E-1
2.165222396E0,-1.041554332E0,-8.503077507E0,-7.087126374E-1
2.167753281E0,-1.182887554E0,-9.655303001E0,-1.044079661E0
2.170284167E0,-1.237983465E0,-9.942760468E0,-1.312373281E0
2.172815000E0,-1.154141903E0,-9.406172752E0,-1.216554046E0
2.175345886E0,-1.369734883E0,-9.990669250E0,-1.192599297E0
2.177876771E0,-1.580536962E0,-1.121475983E1,-1.274045587E0
2.180407656E0,-1.487113357E0,-1.265204620E1,-8.524413705E-1
2.182938490E0,-1.506277084E0,-1.308083630E1,-9.290966392E-1
2.185469375E0,-1.652401328E0,-1.258736897E1,-9.578424096E-1
2.188000261E0,-1.822480321E0,-1.242926693E1,-8.955599666E-1
2.190543438E0,-1.944649696E0,-1.272391033E1,-7.853679657E-1
2.193074323E0,-2.399790764E0,-1.441511822E1,-7.278764844E-1
2.195605156E0,-2.560287714E0,-1.449416924E1,-5.889387131E-1
2.198136094E0,-2.105146885E0,-1.308083630E1,-8.165091872E-1
2.200666927E0,-1.182887554E0,-1.073805904E1,-1.333932638E0
2.203197813E0,-1.741034150E0,-1.149982166E1,-7.542267442E-1
2.205728646E0,-1.932672381E0,-1.271672440E1,-4.037417844E-2
2.208259531E0,-1.793734550E0,-1.316707420E1,4.698627293E-1
2.210790417E0,-2.188988447E0,-1.476246262E1,-2.080576718E-1
2.213321250E0,-2.912422895E0,-1.666926384E1,-2.397525072E0
2.215852136E0,-3.453801155E0,-1.750288963E1,-3.607241631E0
2.218383021E0,-2.878886461E0,-1.581168175E1,-2.740078449E0
2.220926719E0,-2.102751255E0,-1.406058788E1,9.616809338E-2
2.223457604E0,-2.543519497E0,-1.613507080E1,-2.200350761E-1
2.225988438E0,-3.183112144E0,-1.966840363E1,-3.396439552E0
2.228519323E0,-3.666998625E0,-2.220760918E1,-4.143829346E0
2.231050209E0,-3.628671169E0,-2.293583488E1,-4.098314762E0
2.233581042E0,-3.142389059E0,-2.147938538E1,-3.719829321E0
2.236111927E0,-3.087292910E0,-2.040141869E1,-3.216778755E0
2.238642813E0,-4.337732792E0,-2.105777931E1,-3.314993143E0
2.241173698E0,-5.425280094E0,-2.010677528E1,-3.003581047E0
2.243704531E0,-6.227765560E0,-1.937615395E1,-2.629886389E0
2.246235417E0,-6.685301304E0,-2.050921631E1,-2.783196926E0
2.248766302E0,-6.685301304E0,-1.892819977E1,-2.076530933E0
2.251305313E0,-6.244533539E0,-1.630275536E1,-1.360282898E0
2.253836198E0,-5.537867546E0,-1.606799889E1,-1.626181006E0
2.256367031E0,-4.627585888E0,-1.402465534E1,-1.264463782E0
2.258897969E0,-3.820309401E0,-1.306167316E1,-1.214158654E0
2.261428802E0,-3.369959354E0,-1.342339039E1,-1.424960732E0
2.263959636E0,-2.898050308E0,-1.299939060E1,-1.369864702E0
2.266490521E0,-2.572265148E0,-1.312635040E1,-1.671694994E0
2.269021406E0,-2.469259501E0,-1.307844162E1,-1.755536675E0
2.271552292E0,-2.469259501E0,-1.371563816E1,-1.949570417E0
2.274083125E0,-2.131497145E0,-1.290596676E1,-1.928011179E0
2.276614011E0,-1.918299437E0,-1.175134659E1,-1.688463330E0
2.279144896E0,-1.923090458E0,-1.280775261E1,-2.088508129E0
2.281693854E0,-1.688333511E0,-1.324372959E1,-2.191514015E0
2.284224740E0,-1.482322335E0,-1.106623936E1,-1.446520090E0
2.286755573E0,-1.539813757E0,-9.969110489E0,-1.190203905E0
2.289286459E0,-1.776966214E0,-9.288794518E0,-1.264463782E0
2.291817344E0,-2.042864323E0,-9.209743500E0,-1.305186868E0
2.294348177E0,-2.200965881E0,-1.008169746E1,-1.381842136E0
2.296879063E0,-1.877576351E0,-1.143274784E1,-1.611808062E0
2.299409948E0,-1.005622149E0,-1.241728973E1,-1.889683604E0
2.301940834E0,-2.246961594E-1,-1.231907463E1,-2.059762716E0
2.304471667E0,-1.389402151E-2,-1.142795658E1,-2.047785044E0
2.307002552E0,-3.300971985E-1,-1.081231880E1,-1.863333344E0
2.309533438E0,-7.277466059E-1,-1.077638626E1,-1.678881526E0
2.312072136E0,-9.145939350E-1,-1.086501980E1,-1.583062410E0
2.314603021E0,-9.960402250E-1,-1.087220573E1,-1.480056763E0
2.317133854E0,-9.744809270E-1,-1.089136982E1,-1.458497524E0
2.319664740E0,-9.840628505E-1,-1.093448830E1,-1.314768672E0
2.322195625E0,-9.337577820E-1,-1.098239803E1,-1.288418531E0
2.324726459E0,-8.475205898E-1,-1.106384373E1,-1.417774320E0
2.327257344E0,-7.732607126E-1,-1.102551651E1,-1.489638567E0
2.329788229E0,-6.774415970E-1,-1.095844269E1,-1.583062410E0
2.332319115E0,-5.983908176E-1,-1.087939262E1,-1.626181006E0
2.334849948E0,-5.408993363E-1,-1.070691776E1,-1.583062410E0
2.337380834E0,-5.600631237E-1,-1.057277012E1,-1.556712151E0
2.339911719E0,-6.079727411E-1,-1.046497440E1,-1.487243176E0
2.342459844E0,-5.959953070E-1,-1.022542667E1,-1.489638567E0
2.344990729E0,-6.103681922E-1,-9.945155144E0,-1.468079329E0
2.347521563E0,-6.175546050E-1,-9.648116112E0,-1.463288307E0
2.350052448E0,-6.798370481E-1,-9.281607628E0,-1.448915482E0
2.352583334E0,-7.421194911E-1,-8.919890404E0,-1.484847784E0
2.355114167E0,-8.020064831E-1,-8.651597977E0,-1.511197925E0
2.357645052E0,-8.690798879E-1,-8.390489578E0,-1.499220610E0
2.360175938E0,-9.960402250E-1,-8.172501564E0,-1.520779848E0
2.362706823E0,-1.111023188E0,-7.937744617E0,-1.602226138E0
2.365237656E0,-1.190073967E0,-7.724547863E0,-1.614203453E0
2.367768542E0,-1.271520257E0,-7.559259892E0,-1.642949224E0
2.370299427E0,-1.405667067E0,-7.501767635E0,-1.559107423E0
2.372842865E0,-1.542209387E0,-7.420321465E0,-1.345909953E0
2.375373750E0,-1.628446579E0,-7.326898098E0,-1.197390199E0
2.377904636E0,-1.808107495E0,-8.119800568E0,-1.367469192E0
2.380435469E0,-2.188988447E0,-9.708003998E0,-1.348305464E0
2.382966354E0,-2.356671810E0,-7.985655308E0,-8.260911107E-1
2.385497188E0,-2.517168999E0,-7.348457336E0,-6.751759648E-1
2.388028073E0,-2.529146433E0,-7.166400909E0,-9.386786222E-1
2.390558959E0,-2.562683105E0,-6.950808048E0,-1.127921343E0
2.393089844E0,-2.567474127E0,-6.934039593E0,-1.137503386E0
2.395620677E0,-2.715993643E0,-7.142446041E0,-1.101571083E0
2.398151563E0,-3.017824173E0,-7.336480141E0,-9.003509283E-1
2.400682448E0,-3.159157276E0,-7.384389400E0,-9.171192646E-1
2.403205313E0,-2.850140810E0,-7.393971443E0,-1.307582259E0
2.405736198E0,-2.318344355E0,-7.621542454E0,-1.652531266E0
2.408267031E0,-1.956627131E0,-7.791620731E0,-1.724395633E0
2.410797917E0,-1.848830581E0,-7.944931507E0,-1.592644215E0
2.413328802E0,-1.930276871E0,-8.033563614E0,-1.384237647E0
2.415859636E0,-1.978186488E0,-8.012004852E0,-1.185412884E0
2.418390521E0,-2.028491497E0,-8.021586418E0,-1.044079661E0
2.420921406E0,-2.023700476E0,-8.177292824E0,-9.746108055E-1
2.423452292E0,-2.030887127E0,-8.299461365E0,-8.883735538E-1
2.425983125E0,-1.911113024E0,-8.452772141E0,-8.452548981E-1
2.428514011E0,-1.820084810E0,-8.591711044E0,-8.141137362E-1
2.431044896E0,-1.810503006E0,-8.780952454E0,-7.542267442E-1
2.433586042E0,-1.738638639E0,-8.828862190E0,-7.350628972E-1
2.436116927E0,-1.671565175E0,-8.907913208E0,-7.063171864E-1
2.438647761E0,-1.594909787E0,-9.039664268E0,-7.182946205E-1
2.441178646E0,-1.506277084E0,-9.058828354E0,-7.518312931E-1
2.443709531E0,-1.518254519E0,-9.092365265E0,-7.039217353E-1
2.446240365E0,-1.518254519E0,-9.128297806E0,-7.063171864E-1
2.448771250E0,-1.515859127E0,-9.140275002E0,-7.733905911E-1
2.451302136E0,-1.515859127E0,-9.140275002E0,-7.733905911E-1
2.453833021E0,-1.453576684E0,-9.109133720E0,-8.213001490E-1
2.456363854E0,-1.420039892E0,-9.171415329E0,-8.787916899E-1
2.458894740E0,-1.436808348E0,-9.154647827E0,-8.428594470E-1
2.461425625E0,-1.439203739E0,-9.140275002E0,-8.380684853E-1
2.463992917E0,-1.398480654E0,-9.145065308E0,-8.548368812E-1
2.466523802E0,-1.417644501E0,-9.130692482E0,-8.763961792E-1
2.469054636E0,-1.398480654E0,-9.118715286E0,-9.650288224E-1
2.471585521E0,-1.410458088E0,-9.116319656E0,-9.458650351E-1
2.474116406E0,-1.412853479E0,-9.137879372E0,-9.243057370E-1
2.476647240E0,-1.408062458E0,-9.164229393E0,-9.003509283E-1
2.479178125E0,-1.415248990E0,-9.111528397E0,-9.794017076E-1
2.481709011E0,-1.408062458E0,-9.101947784E0,-1.000961065E0
2.484239896E0,-1.386503220E0,-9.113924980E0,-1.027311325E0
2.486770729E0,-1.396085143E0,-9.125901222E0,-1.065639019E0
2.489301615E0,-1.372130394E0,-9.130692482E0,-1.068034530E0
2.491832500E0,-1.350571036E0,-9.087574959E0,-1.154271722E0
2.494340469E0,-1.343384624E0,-9.097156525E0,-1.130316854E0
2.496871302E0,-1.331407309E0,-9.109133720E0,-1.149480700E0
2.499402188E0,-1.331407309E0,-9.104342461E0,-1.125525951E0
2.501933073E0,-1.283497572E0,-9.092365265E0,-1.226135969E0
2.504463906E0,-1.259542823E0,-9.092365265E0,-1.264463782E0
2.506994792E0,-1.240379095E0,-9.109133720E0,-1.276441097E0
2.509525677E0,-1.214028835E0,-9.152252197E0,-1.283627510E0
2.512056563E0,-1.190073967E0,-9.169020653E0,-1.264463782E0
2.514587396E0,-1.166119218E0,-9.180997849E0,-1.345909953E0
2.517118281E0,-1.156537294E0,-9.178602219E0,-1.278836608E0
2.519649167E0,-1.182887554E0,-9.197766304E0,-1.329141617E0
2.522180000E0,-1.132582545E0,-9.190579414E0,-1.226135969E0
2.524757813E0,-1.113418579E0,-9.228907585E0,-1.259672761E0
2.527288698E0,-1.106232166E0,-9.212139130E0,-1.274045587E0
2.529819531E0,-1.065509081E0,-9.231302261E0,-1.226135969E0
2.532350469E0,-1.101441264E0,-9.255257607E0,-1.238113403E0
2.534881302E0,-1.072695494E0,-9.272027016E0,-1.221345067E0
2.537412188E0,-1.012808561E0,-9.281607628E0,-1.218949556E0
2.539943021E0,-9.912493229E-1,-9.295980453E0,-1.137503386E0
2.542473906E0,-1.048740745E0,-9.288794518E0,-1.154271722E0
2.545004792E0,-1.031972408E0,-9.327122688E0,-1.161458135E0
2.547535677E0,-1.005622149E0,-9.351076126E0,-1.113548517E0
2.550066563E0,-9.984357357E-1,-9.346285820E0,-1.168644428E0
2.552597396E0,-1.048740745E0,-9.339099884E0,-1.149480700E0
2.555141667E0,-1.046345234E0,-9.363054276E0,-1.123130441E0
2.557672552E0,-1.034367919E0,-9.334308624E0,-1.108757615E0
2.560203438E0,-1.051136255E0,-9.358263969E0,-1.099175572E0
2.562734271E0,-1.075091004E0,-9.343890190E0,-1.125525951E0
2.565265156E0,-1.108627796E0,-9.298377037E0,-1.101571083E0
2.567796042E0,-1.146955490E0,-9.341494560E0,-1.032102346E0
2.570326875E0,-1.115814209E0,-9.329517365E0,-1.070429921E0
2.572857761E0,-1.154141903E0,-9.319935799E0,-1.072825313E0
2.575388646E0,-1.194864988E0,-9.329517365E0,-1.003356576E0
2.577919531E0,-1.206842422E0,-9.291189194E0,-1.065639019E0
2.580450365E0,-1.209237814E0,-9.255257607E0,-1.096780181E0
2.582981250E0,-1.254751921E0,-9.255257607E0,-9.674243331E-1
2.585526042E0,-1.233192682E0,-9.226511955E0,-9.841926694E-1
2.588056927E0,-1.226006150E0,-9.238489151E0,-1.008147478E0
2.590587761E0,-1.281102180E0,-9.188184738E0,-9.937745929E-1
2.593118646E0,-1.281102180E0,-9.216930389E0,-9.458650351E-1
2.595649531E0,-1.302661419E0,-9.219326019E0,-9.530514479E-1
2.598180365E0,-1.297870517E0,-9.207348824E0,-9.722152948E-1
2.600711250E0,-1.281102180E0,-9.164229393E0,-1.010542989E0
2.603242136E0,-1.333802700E0,-9.169020653E0,-9.937745929E-1
2.605772969E0,-1.312243462E0,-9.178602219E0,-1.012938380E0
2.608303854E0,-1.307452440E0,-9.130692482E0,-1.015333891E0
2.610834740E0,-1.302661419E0,-9.147461891E0,-9.841926694E-1
2.613365625E0,-1.312243462E0,-9.113924980E0,-9.243057370E-1
2.615909531E0,-1.333802700E0,-9.101947784E0,-9.674243331E-1
2.618440417E0,-1.376921415E0,-9.116319656E0,-9.794017076E-1
2.620971250E0,-1.396085143E0,-9.133088112E0,-9.841926694E-1
2.623502136E0,-1.439203739E0,-9.097156525E0,-9.913790822E-1
2.626033021E0,-1.494299769E0,-9.092365265E0,-9.674243331E-1
2.628563906E0,-1.470345020E0,-9.142670631E0,-9.865881801E-1
2.631094740E0,-1.470345020E0,-9.087574959E0,-1.032102346E0
2.633625625E0,-1.463158607E0,-9.092365265E0,-1.053661585E0
2.636156511E0,-1.511068106E0,-9.106739044E0,-1.044079661E0
2.638687344E0,-1.518254519E0,-9.054038048E0,-1.046475053E0
2.641218229E0,-1.470345020E0,-9.094760895E0,-1.108757615E0
2.643749115E0,-1.453576684E0,-9.118715286E0,-1.135107875E0
2.646292240E0,-1.539813757E0,-9.075596809E0,-1.103966594E0
2.648823125E0,-1.494299769E0,-9.116319656E0,-1.113548517E0
2.651353959E0,-1.453576684E0,-9.116319656E0,-1.130316854E0
2.653884844E0,-1.465553999E0,-9.118715286E0,-1.115944028E0
2.656415677E0,-1.494299769E0,-9.133088112E0,-1.161458135E0
2.658946563E0,-1.446390152E0,-9.125901222E0,-1.149480700E0
2.661477448E0,-1.436808348E0,-9.152252197E0,-1.156667113E0
2.664008334E0,-1.420039892E0,-9.149856567E0,-1.108757615E0
2.666539167E0,-1.439203739E0,-9.147461891E0,-1.132712364E0
2.669070052E0,-1.412853479E0,-9.154647827E0,-1.111153126E0
2.671600938E0,-1.398480654E0,-9.154647827E0,-1.130316854E0
2.674131771E0,-1.367339373E0,-9.176206589E0,-1.111153126E0
2.676675729E0,-1.324220777E0,-9.140275002E0,-1.163853645E0
2.679206615E0,-1.340989113E0,-9.159438133E0,-1.139898896E0
2.681737448E0,-1.381712198E0,-9.169020653E0,-1.161458135E0
2.684268334E0,-1.391294241E0,-9.157043457E0,-1.106362104E0
2.686799219E0,-1.348175526E0,-9.192975998E0,-1.111153126E0
2.689330052E0,-1.369734883E0,-9.190579414E0,-1.163853645E0
2.691860938E0,-1.396085143E0,-9.190579414E0,-1.135107875E0
2.694391823E0,-1.410458088E0,-9.190579414E0,-1.056057096E0
2.696922709E0,-1.403271675E0,-9.226511955E0,-1.094384670E0
2.699453542E0,-1.417644501E0,-9.176206589E0,-1.115944028E0
2.701984427E0,-1.432017326E0,-9.197766304E0,-1.103966594E0
2.704515313E0,-1.417644501E0,-9.226511955E0,-1.094384670E0
2.707059011E0,-1.391294241E0,-9.197766304E0,-1.161458135E0
2.709589896E0,-1.429621935E0,-9.209743500E0,-1.137503386E0
2.712120729E0,-1.518254519E0,-9.216930389E0,-1.080011845E0
2.714651615E0,-1.477531433E0,-9.228907585E0,-1.183017373E0
2.717182500E0,-1.475135922E0,-9.204952240E0,-1.089593768E0
2.719713334E0,-1.467949390E0,-9.219326019E0,-1.091989279E0
2.722244219E0,-1.467949390E0,-9.209743500E0,-1.135107875E0
2.724775104E0,-1.482322335E0,-9.173811913E0,-1.135107875E0
2.727305990E0,-1.503881693E0,-9.197766304E0,-1.127921343E0
2.729836823E0,-1.451181173E0,-9.209743500E0,-1.106362104E0
2.732367709E0,-1.453576684E0,-9.209743500E0,-1.137503386E0
2.734898594E0,-1.532627344E0,-9.197766304E0,-1.127921343E0
2.737442240E0,-1.544604778E0,-9.236093521E0,-1.094384670E0
2.739973125E0,-1.439203739E0,-9.209743500E0,-1.115944028E0
2.742503959E0,-1.472740412E0,-9.233698845E0,-1.096780181E0
2.745034844E0,-1.484717846E0,-9.180997849E0,-1.123130441E0
2.747565729E0,-1.463158607E0,-9.164229393E0,-1.142294168E0
2.750096563E0,-1.479926825E0,-9.183393478E0,-1.147085190E0
2.752627448E0,-1.465553999E0,-9.178602219E0,-1.132712364E0
2.755158334E0,-1.506277084E0,-9.157043457E0,-1.132712364E0
2.757689219E0,-1.453576684E0,-9.171415329E0,-1.156667113E0
2.760220052E0,-1.465553999E0,-9.180997849E0,-1.166249156E0
2.762750938E0,-1.460763097E0,-9.176206589E0,-1.108757615E0
2.765281823E0,-1.453576684E0,-9.195370674E0,-1.130316854E0
2.767825261E0,-1.491904259E0,-9.185788155E0,-1.106362104E0
2.770356146E0,-1.475135922E0,-9.161834717E0,-1.115944028E0
2.772886979E0,-1.465553999E0,-9.171415329E0,-1.087198257E0
2.775417865E0,-1.441599250E0,-9.209743500E0,-1.166249156E0
2.777948750E0,-1.472740412E0,-9.224116325E0,-1.089593768E0
2.780479584E0,-1.443994761E0,-9.176206589E0,-1.082407355E0
2.783010469E0,-1.470345020E0,-9.204952240E0,-1.065639019E0
2.785541354E0,-1.503881693E0,-9.152252197E0,-1.053661585E0
2.788072240E0,-1.455972075E0,-9.164229393E0,-1.106362104E0
2.790603073E0,-1.460763097E0,-9.190579414E0,-1.053661585E0
2.793133959E0,-1.499090672E0,-9.214534760E0,-1.010542989E0
2.795664844E0,-1.472740412E0,-9.200161934E0,-1.003356576E0
2.798209271E0,-1.455972075E0,-9.171415329E0,-1.036893249E0
2.800740156E0,-1.453576684E0,-9.190579414E0,-9.937745929E-1
2.803270990E0,-1.417644501E0,-9.192975998E0,-9.817972183E-1
2.805801875E0,-1.453576684E0,-9.157043457E0,-9.410740733E-1
2.808332761E0,-1.412853479E0,-9.188184738E0,-9.794017076E-1
2.810863594E0,-1.340989113E0,-9.159438133E0,-1.010542989E0
2.813394479E0,-1.331407309E0,-9.157043457E0,-9.770061970E-1
2.815925365E0,-1.364943981E0,-9.152252197E0,-9.817972183E-1
2.818456250E0,-1.324220777E0,-9.164229393E0,-1.020124793E0
2.820987084E0,-1.360152960E0,-9.157043457E0,-9.482605457E-1
2.823517969E0,-1.317034364E0,-9.135483742E0,-9.841926694E-1
2.826048854E0,-1.355362058E0,-9.125901222E0,-9.554469585E-1
2.828588646E0,-1.329011679E0,-9.130692482E0,-8.907690644E-1
2.831119531E0,-1.259542823E0,-9.111528397E0,-9.913790822E-1
2.833650365E0,-1.278706789E0,-9.123506546E0,-1.000961065E0
2.836181250E0,-1.221215248E0,-9.137879372E0,-1.003356576E0
2.838712136E0,-1.218819737E0,-9.147461891E0,-9.650288224E-1
2.841243021E0,-1.214028835E0,-9.142670631E0,-1.022520304E0
2.843773854E0,-1.216424227E0,-9.140275002E0,-9.770061970E-1
2.846304740E0,-1.202051401E0,-9.133088112E0,-1.039288759E0
2.848835625E0,-1.276311159E0,-9.180997849E0,-1.015333891E0
2.851366511E0,-1.209237814E0,-9.180997849E0,-1.015333891E0
2.853897344E0,-1.197260380E0,-9.142670631E0,-1.027311325E0
2.856428229E0,-1.214028835E0,-9.176206589E0,-1.077616334E0
2.858975834E0,-1.235588074E0,-9.171415329E0,-1.106362104E0
2.861506719E0,-1.216424227E0,-9.171415329E0,-1.115944028E0
2.864037552E0,-1.221215248E0,-9.152252197E0,-1.120734930E0
2.866568438E0,-1.237983465E0,-9.169020653E0,-1.142294168E0
2.869099323E0,-1.221215248E0,-9.176206589E0,-1.178226471E0
2.871630156E0,-1.237983465E0,-9.157043457E0,-1.075220823E0
2.874161042E0,-1.247565508E0,-9.157043457E0,-1.147085190E0
2.876691927E0,-1.237983465E0,-9.200161934E0,-1.173435450E0
2.879222813E0,-1.269124746E0,-9.207348824E0,-1.149480700E0
2.881753646E0,-1.305057049E0,-9.149856567E0,-1.156667113E0
2.884284531E0,-1.249960899E0,-9.173811913E0,-1.156667113E0
2.886815417E0,-1.226006150E0,-9.219326019E0,-1.216554046E0
2.889359375E0,-1.264333844E0,-9.200161934E0,-1.101571083E0
2.891890261E0,-1.257147431E0,-9.245676041E0,-1.135107875E0
2.894421094E0,-1.273915768E0,-9.231302261E0,-1.151876211E0
2.896951979E0,-1.297870517E0,-9.209743500E0,-1.163853645E0
2.899482865E0,-1.312243462E0,-9.209743500E0,-1.149480700E0
2.902013750E0,-1.271520257E0,-9.207348824E0,-1.120734930E0
2.904544584E0,-1.293079615E0,-9.204952240E0,-1.106362104E0
2.907075469E0,-1.321825266E0,-9.176206589E0,-1.041684151E0
2.909606354E0,-1.355362058E0,-9.171415329E0,-1.056057096E0
2.912137240E0,-1.285893202E0,-9.154647827E0,-1.032102346E0
2.914668073E0,-1.281102180E0,-9.178602219E0,-1.034497738E0
2.917198959E0,-1.317034364E0,-9.169020653E0,-9.913790822E-1
2.919741302E0,-1.295475006E0,-9.161834717E0,-1.020124793E0
2.922272188E0,-1.317034364E0,-9.169020653E0,-1.024915814E0
2.924803021E0,-1.343384624E0,-9.133088112E0,-9.386786222E-1
2.927333906E0,-1.345780134E0,-9.154647827E0,-9.722152948E-1
2.929864792E0,-1.345780134E0,-9.130692482E0,-1.012938380E0
2.932395625E0,-1.293079615E0,-9.142670631E0,-9.458650351E-1
2.934926511E0,-1.338593721E0,-9.149856567E0,-9.817972183E-1
2.937457396E0,-1.340989113E0,-9.113924980E0,-9.889836907E-1
2.939988281E0,-1.324220777E0,-9.130692482E0,-9.865881801E-1
2.942519115E0,-1.321825266E0,-9.135483742E0,-9.267012477E-1
2.945050000E0,-1.386503220E0,-9.133088112E0,-9.482605457E-1
2.947580886E0,-1.391294241E0,-9.152252197E0,-9.195147753E-1
2.950124375E0,-1.379316807E0,-9.118715286E0,-9.410740733E-1
2.952655261E0,-1.434412718E0,-9.128297806E0,-9.434695244E-1
2.955186094E0,-1.422435403E0,-9.145065308E0,-9.434695244E-1
2.957716979E0,-1.410458088E0,-9.149856567E0,-9.410740733E-1
2.960247865E0,-1.420039892E0,-9.125901222E0,-9.961701035E-1
2.962778750E0,-1.458367586E0,-9.128297806E0,-1.005751967E0
2.965309584E0,-1.436808348E0,-9.128297806E0,-1.034497738E0
2.967840469E0,-1.484717846E0,-9.113924980E0,-9.889836907E-1
2.970371354E0,-1.455972075E0,-9.125901222E0,-1.010542989E0
2.972902188E0,-1.482322335E0,-9.147461891E0,-1.048870564E0
2.975433073E0,-1.487113357E0,-9.130692482E0,-1.056057096E0
2.977963959E0,-1.472740412E0,-9.101947784E0,-1.034497738E0
2.980508646E0,-1.455972075E0,-9.118715286E0,-1.108757615E0
2.983039531E0,-1.446390152E0,-9.147461891E0,-1.103966594E0
2.985570365E0,-1.460763097E0,-9.121110916E0,-1.063243508E0
2.988101250E0,-1.467949390E0,-9.140275002E0,-1.063243508E0
2.990632136E0,-1.434412718E0,-9.161834717E0,-1.094384670E0
2.993162969E0,-1.405667067E0,-9.154647827E0,-1.068034530E0
2.995693854E0,-1.458367586E0,-9.161834717E0,-1.084802747E0
2.998224740E0,-1.463158607E0,-9.173811913E0,-1.101571083E0
3.000755625E0,-1.434412718E0,-9.159438133E0,-1.091989279E0
3.003286459E0,-1.408062458E0,-9.147461891E0,-1.091989279E0
3.005817344E0,-1.427226305E0,-9.161834717E0,-1.077616334E0
3.008348229E0,-1.427226305E0,-9.173811913E0,-1.144689679E0
3.010891302E0,-1.434412718E0,-9.118715286E0,-1.111153126E0
3.013423021E0,-1.398480654E0,-9.113924980E0,-1.118339419E0
3.015954740E0,-1.420039892E0,-9.149856567E0,-1.115944028E0
3.018486459E0,-1.439203739E0,-9.094760895E0,-1.094384670E0
3.021018229E0,-1.376921415E0,-9.140275002E0,-1.137503386E0
3.023549896E0,-1.417644501E0,-9.133088112E0,-1.180621982E0
3.026081667E0,-1.458367586E0,-9.116319656E0,-1.123130441E0
3.028613386E0,-1.439203739E0,-9.116319656E0,-1.103966594E0
3.031145104E0,-1.420039892E0,-9.092365265E0,-1.113548517E0
3.033676823E0,-1.482322335E0,-9.140275002E0,-1.096780181E0
3.036208542E0,-1.487113357E0,-9.111528397E0,-1.103966594E0
3.038740313E0,-1.511068106E0,-9.121110916E0,-1.053661585E0
3.041274792E0,-1.475135922E0,-9.099551201E0,-1.099175572E0
3.043806511E0,-1.520650029E0,-9.135483742E0,-1.111153126E0
3.046338229E0,-1.508672714E0,-9.125901222E0,-1.115944028E0
3.048869948E0,-1.523045540E0,-9.152252197E0,-1.080011845E0
3.051401667E0,-1.515859127E0,-9.164229393E0,-1.099175572E0
3.053933386E0,-1.549395800E0,-9.164229393E0,-1.099175572E0
3.056465156E0,-1.523045540E0,-9.142670631E0,-1.144689679E0
3.058996875E0,-1.501486301E0,-9.157043457E0,-1.137503386E0
3.061528594E0,-1.556582212E0,-9.147461891E0,-1.096780181E0
3.064060313E0,-1.558977604E0,-9.130692482E0,-1.108757615E0
3.066592031E0,-1.535022974E0,-9.185788155E0,-1.087198257E0
3.069123802E0,-1.525440931E0,-9.178602219E0,-1.091989279E0
3.071657292E0,-1.511068106E0,-9.188184738E0,-1.089593768E0
3.074189011E0,-1.515859127E0,-9.202557564E0,-1.063243508E0
3.076720729E0,-1.508672714E0,-9.135483742E0,-1.084802747E0
3.079252500E0,-1.503881693E0,-9.106739044E0,-1.089593768E0
3.081784219E0,-1.511068106E0,-9.164229393E0,-1.135107875E0
3.084315938E0,-1.537418365E0,-9.123506546E0,-1.075220823E0
3.086847656E0,-1.527836442E0,-9.118715286E0,-1.020124793E0
3.089379375E0,-1.527836442E0,-9.133088112E0,-1.087198257E0
3.091911094E0,-1.544604778E0,-9.142670631E0,-1.101571083E0
3.094442813E0,-1.547000289E0,-9.147461891E0,-1.072825313E0
3.096974531E0,-1.558977604E0,-9.145065308E0,-1.096780181E0
3.099506302E0,-1.570955038E0,-9.147461891E0,-1.072825313E0
3.102004740E0,-1.563768625E0,-9.140275002E0,-1.058452487E0
3.104536459E0,-1.539813757E0,-9.113924980E0,-1.108757615E0
3.107068177E0,-1.542209387E0,-9.113924980E0,-1.060847998E0
3.109599948E0,-1.551791191E0,-9.142670631E0,-1.058452487E0
3.112131667E0,-1.556582212E0,-9.128297806E0,-1.108757615E0
3.114663386E0,-1.563768625E0,-9.157043457E0,-1.130316854E0
3.117195104E0,-1.602096319E0,-9.149856567E0,-1.094384670E0
3.119726823E0,-1.599700809E0,-9.121110916E0,-1.072825313E0
3.122258542E0,-1.556582212E0,-9.116319656E0,-1.080011845E0
3.124790261E0,-1.549395800E0,-9.106739044E0,-1.108757615E0
3.127321979E0,-1.563768625E0,-9.149856567E0,-1.056057096E0
3.129853750E0,-1.604491830E0,-9.157043457E0,-1.103966594E0
3.132387188E0,-1.623655558E0,-9.152252197E0,-1.125525951E0
3.134918906E0,-1.532627344E0,-9.164229393E0,-1.089593768E0
3.137450625E0,-1.580536962E0,-9.137879372E0,-1.063243508E0
3.139982344E0,-1.549395800E0,-9.113924980E0,-1.063243508E0
3.142514115E0,-1.537418365E0,-9.183393478E0,-1.075220823E0
3.145045834E0,-1.580536962E0,-9.219326019E0,-1.075220823E0
3.147577552E0,-1.513463616E0,-9.214534760E0,-1.087198257E0
3.150109271E0,-1.537418365E0,-9.209743500E0,-1.106362104E0
3.152640990E0,-1.487113357E0,-9.226511955E0,-1.096780181E0
3.155172709E0,-1.515859127E0,-9.214534760E0,-1.044079661E0
3.157704427E0,-1.489508867E0,-9.207348824E0,-1.063243508E0
3.160236198E0,-1.482322335E0,-9.221720695E0,-1.080011845E0
3.162808386E0,-1.479926825E0,-9.202557564E0,-1.017729402E0
3.165340104E0,-1.489508867E0,-9.197766304E0,-1.058452487E0
3.167871823E0,-1.482322335E0,-9.216930389E0,-1.070429921E0
3.170403594E0,-1.479926825E0,-9.157043457E0,-1.024915814E0
3.172935313E0,-1.513463616E0,-9.159438133E0,-1.046475053E0
3.175467031E0,-1.484717846E0,-9.200161934E0,-1.063243508E0
3.177998750E0,-1.463158607E0,-9.195370674E0,-1.046475053E0
3.180530469E0,-1.477531433E0,-9.171415329E0,-1.053661585E0
3.183062188E0,-1.451181173E0,-9.154647827E0,-1.063243508E0
3.185593906E0,-1.479926825E0,-9.130692482E0,-1.039288759E0
3.188125625E0,-1.472740412E0,-9.159438133E0,-1.015333891E0
3.190657396E0,-1.463158607E0,-9.152252197E0,-1.024915814E0
3.193177188E0,-1.417644501E0,-9.118715286E0,-1.039288759E0
3.195708854E0,-1.472740412E0,-9.137879372E0,-1.012938380E0
3.198240625E0,-1.465553999E0,-9.152252197E0,-1.048870564E0
3.200772344E0,-1.453576684E0,-9.183393478E0,-1.101571083E0
3.203304063E0,-1.427226305E0,-9.164229393E0,-1.068034530E0
3.205835781E0,-1.436808348E0,-9.154647827E0,-1.103966594E0
3.208367500E0,-1.434412718E0,-9.171415329E0,-1.080011845E0
3.210899271E0,-1.420039892E0,-9.169020653E0,-1.044079661E0
3.213430990E0,-1.422435403E0,-9.140275002E0,-1.065639019E0
3.215962709E0,-1.420039892E0,-9.161834717E0,-1.103966594E0
3.218494427E0,-1.391294241E0,-9.185788155E0,-1.058452487E0
3.221026146E0,-1.408062458E0,-9.173811913E0,-1.070429921E0
3.223574479E0,-1.432017326E0,-9.157043457E0,-1.063243508E0
3.226106198E0,-1.429621935E0,-9.178602219E0,-1.101571083E0
3.228637917E0,-1.417644501E0,-9.192975998E0,-1.058452487E0
3.231169688E0,-1.388898730E0,-9.161834717E0,-1.063243508E0
3.233701406E0,-1.412853479E0,-9.166625023E0,-1.080011845E0
3.236233125E0,-1.372130394E0,-9.159438133E0,-1.072825313E0
3.238764844E0,-1.412853479E0,-9.169020653E0,-1.096780181E0
3.241296563E0,-1.369734883E0,-9.166625023E0,-1.108757615E0
3.243828281E0,-1.374525785E0,-9.137879372E0,-1.118339419E0
3.246360000E0,-1.417644501E0,-9.157043457E0,-1.068034530E0
3.248891719E0,-1.343384624E0,-9.145065308E0,-1.099175572E0
3.251423490E0,-1.381712198E0,-9.147461891E0,-1.087198257E0
3.253931563E0,-1.364943981E0,-9.161834717E0,-1.075220823E0
3.256463281E0,-1.357757449E0,-9.140275002E0,-1.068034530E0
3.258995000E0,-1.379316807E0,-9.173811913E0,-1.024915814E0
3.261526771E0,-1.393689632E0,-9.183393478E0,-1.051266074E0
3.264058490E0,-1.400876045E0,-9.185788155E0,-1.046475053E0
3.266590209E0,-1.350571036E0,-9.130692482E0,-1.022520304E0
3.269121927E0,-1.379316807E0,-9.145065308E0,-1.020124793E0
3.271653646E0,-1.372130394E0,-9.176206589E0,-1.008147478E0
3.274185365E0,-1.405667067E0,-9.133088112E0,-9.674243331E-1
3.276717084E0,-1.434412718E0,-9.173811913E0,-9.889836907E-1
3.279248802E0,-1.415248990E0,-9.185788155E0,-1.003356576E0
3.281780573E0,-1.439203739E0,-9.147461891E0,-9.746108055E-1
3.284340729E0,-1.403271675E0,-9.149856567E0,-9.746108055E-1
3.286872448E0,-1.446390152E0,-9.188184738E0,-9.027464390E-1
3.289404167E0,-1.443994761E0,-9.137879372E0,-9.650288224E-1
3.291935938E0,-1.441599250E0,-9.123506546E0,-9.602379203E-1
3.294467656E0,-1.446390152E0,-9.185788155E0,-9.794017076E-1
3.296999323E0,-1.446390152E0,-9.140275002E0,-9.602379203E-1
3.299531094E0,-1.463158607E0,-9.113924980E0,-9.458650351E-1
3.302062813E0,-1.424830914E0,-9.142670631E0,-9.314921498E-1
3.304594531E0,-1.439203739E0,-9.133088112E0,-9.267012477E-1
3.307126250E0,-1.439203739E0,-9.154647827E0,-9.338876605E-1
3.309657969E0,-1.465553999E0,-9.157043457E0,-9.362831116E-1
3.312189740E0,-1.434412718E0,-9.157043457E0,-9.075373411E-1
3.314719531E0,-1.436808348E0,-9.137879372E0,-9.219102263E-1
3.317251250E0,-1.434412718E0,-9.125901222E0,-8.883735538E-1
3.319782969E0,-1.463158607E0,-9.106739044E0,-9.290966392E-1
3.322314740E0,-1.422435403E0,-9.113924980E0,-9.099328518E-1
3.324846459E0,-1.367339373E0,-9.135483742E0,-9.362831116E-1
3.327378177E0,-1.460763097E0,-9.118715286E0,-9.913790822E-1
3.329909896E0,-1.391294241E0,-9.089969635E0,-9.386786222E-1
3.332441615E0,-1.393689632E0,-9.125901222E0,-9.458650351E-1
3.334973334E0,-1.384107709E0,-9.173811913E0,-9.865881801E-1
3.337505052E0,-1.345780134E0,-9.130692482E0,-9.889836907E-1
3.340036771E0,-1.336198092E0,-9.169020653E0,-9.338876605E-1
3.342568542E0,-1.348175526E0,-9.133088112E0,-9.314921498E-1
3.345104323E0,-1.348175526E0,-9.142670631E0,-9.314921498E-1
3.347636042E0,-1.319429874E0,-9.130692482E0,-9.482605457E-1
3.350167761E0,-1.357757449E0,-9.157043457E0,-9.195147753E-1
3.352699531E0,-1.367339373E0,-9.152252197E0,-9.506559968E-1
3.355231250E0,-1.302661419E0,-9.145065308E0,-1.005751967E0
3.357762969E0,-1.295475006E0,-9.157043457E0,-9.746108055E-1
3.360294688E0,-1.314638853E0,-9.164229393E0,-9.794017076E-1
3.362826406E0,-1.352966547E0,-9.166625023E0,-9.794017076E-1
3.365358125E0,-1.293079615E0,-9.178602219E0,-9.817972183E-1
3.367889844E0,-1.297870517E0,-9.171415329E0,-9.865881801E-1
3.370421563E0,-1.312243462E0,-9.171415329E0,-9.674243331E-1
3.372953334E0,-1.312243462E0,-9.161834717E0,-9.626333714E-1
3.375488177E0,-1.352966547E0,-9.169020653E0,-9.961701035E-1
3.378019896E0,-1.367339373E0,-9.173811913E0,-9.626333714E-1
3.380551615E0,-1.340989113E0,-9.171415329E0,-9.362831116E-1
3.383083386E0,-1.333802700E0,-9.152252197E0,-9.770061970E-1
3.385615104E0,-1.369734883E0,-9.204952240E0,-9.961701035E-1
3.388146823E0,-1.369734883E0,-9.169020653E0,-9.865881801E-1
3.390678542E0,-1.388898730E0,-9.185788155E0,-9.698197842E-1
3.393210261E0,-1.312243462E0,-9.183393478E0,-9.482605457E-1
3.395741979E0,-1.355362058E0,-9.190579414E0,-9.267012477E-1
3.398273698E0,-1.348175526E0,-9.226511955E0,-9.410740733E-1
3.400805417E0,-1.348175526E0,-9.173811913E0,-9.123283625E-1
3.403337136E0,-1.343384624E0,-9.180997849E0,-9.290966392E-1
3.405874011E0,-1.364943981E0,-9.200161934E0,-9.626333714E-1
3.408405729E0,-1.386503220E0,-9.192975998E0,-9.434695244E-1
3.410937448E0,-1.369734883E0,-9.209743500E0,-9.195147753E-1
3.413469219E0,-1.307452440E0,-9.221720695E0,-8.955599666E-1
3.416000938E0,-1.352966547E0,-9.236093521E0,-9.482605457E-1
3.418532656E0,-1.391294241E0,-9.231302261E0,-9.650288224E-1
3.421064375E0,-1.338593721E0,-9.197766304E0,-9.338876605E-1
3.423596094E0,-1.312243462E0,-9.171415329E0,-9.410740733E-1
3.426127813E0,-1.314638853E0,-9.149856567E0,-9.434695244E-1
3.428659531E0,-1.340989113E0,-9.195370674E0,-9.314921498E-1
3.431191250E0,-1.343384624E0,-9.202557564E0,-9.243057370E-1
3.433723021E0,-1.362548470E0,-9.195370674E0,-9.362831116E-1
3.436245261E0,-1.357757449E0,-9.171415329E0,-9.386786222E-1
3.438776979E0,-1.350571036E0,-9.173811913E0,-9.434695244E-1
3.441308698E0,-1.357757449E0,-9.212139130E0,-9.338876605E-1
3.443840469E0,-1.379316807E0,-9.219326019E0,-9.698197842E-1
3.446372188E0,-1.381712198E0,-9.171415329E0,-9.770061970E-1
3.448903906E0,-1.326616287E0,-9.154647827E0,-9.698197842E-1
3.451435625E0,-1.396085143E0,-9.159438133E0,-9.482605457E-1
3.453967344E0,-1.350571036E0,-9.195370674E0,-9.314921498E-1
3.456499063E0,-1.300266027E0,-9.171415329E0,-9.770061970E-1
3.459030781E0,-1.350571036E0,-9.188184738E0,-9.698197842E-1
3.461562500E0,-1.329011679E0,-9.226511955E0,-9.530514479E-1
3.464094271E0,-1.297870517E0,-9.226511955E0,-9.147238135E-1
3.466627761E0,-1.338593721E0,-9.204952240E0,-9.267012477E-1
3.469159479E0,-1.345780134E0,-9.207348824E0,-9.722152948E-1
3.471691198E0,-1.355362058E0,-9.221720695E0,-9.530514479E-1
3.474222969E0,-1.355362058E0,-9.224116325E0,-9.195147753E-1
3.476754688E0,-1.352966547E0,-9.226511955E0,-9.219102263E-1
3.479286406E0,-1.314638853E0,-9.245676041E0,-9.434695244E-1
3.481818125E0,-1.273915768E0,-9.216930389E0,-9.410740733E-1
3.484349844E0,-1.295475006E0,-9.233698845E0,-9.195147753E-1
3.486881563E0,-1.295475006E0,-9.226511955E0,-9.051418900E-1
3.489413281E0,-1.273915768E0,-9.173811913E0,-9.410740733E-1
3.491945000E0,-1.254751921E0,-9.152252197E0,-9.770061970E-1
3.494476771E0,-1.249960899E0,-9.135483742E0,-9.410740733E-1
3.497023750E0,-1.273915768E0,-9.133088112E0,-9.075373411E-1
3.499555469E0,-1.297870517E0,-9.164229393E0,-8.835825920E-1
3.502087188E0,-1.266729355E0,-9.166625023E0,-9.027464390E-1
3.504618959E0,-1.235588074E0,-9.180997849E0,-8.668142557E-1
3.507150677E0,-1.259542823E0,-9.169020653E0,-8.907690644E-1
3.509682396E0,-1.237983465E0,-9.157043457E0,-9.290966392E-1
3.512214115E0,-1.254751921E0,-9.212139130E0,-9.195147753E-1
3.514745834E0,-1.245169997E0,-9.176206589E0,-8.859781027E-1
3.517277552E0,-1.240379095E0,-9.224116325E0,-8.955599666E-1
3.519809271E0,-1.249960899E0,-9.149856567E0,-9.051418900E-1
3.522340990E0,-1.273915768E0,-9.200161934E0,-8.763961792E-1
3.524872761E0,-1.281102180E0,-9.216930389E0,-8.763961792E-1
3.527406979E0,-1.297870517E0,-9.204952240E0,-8.787916899E-1
3.529938698E0,-1.271520257E0,-9.200161934E0,-9.362831116E-1
3.532470417E0,-1.329011679E0,-9.195370674E0,-9.027464390E-1
3.535002188E0,-1.302661419E0,-9.207348824E0,-8.859781027E-1
3.537533906E0,-1.293079615E0,-9.190579414E0,-8.979554772E-1
3.540065625E0,-1.338593721E0,-9.212139130E0,-8.524413705E-1
3.542597344E0,-1.338593721E0,-9.238489151E0,-8.452548981E-1
3.545129063E0,-1.324220777E0,-9.185788155E0,-8.740006685E-1
3.547660781E0,-1.278706789E0,-9.166625023E0,-8.380684853E-1
3.550192500E0,-1.305057049E0,-9.123506546E0,-8.213001490E-1
3.552724219E0,-1.355362058E0,-9.140275002E0,-8.500459194E-1
3.555255990E0,-1.281102180E0,-9.171415329E0,-8.716052175E-1
3.557787917E0,-1.333802700E0,-9.166625023E0,-8.213001490E-1
3.560319636E0,-1.352966547E0,-9.149856567E0,-8.165091872E-1
3.562851354E0,-1.338593721E0,-9.106739044E0,-8.189046383E-1
3.565383125E0,-1.326616287E0,-9.087574959E0,-8.189046383E-1
3.567914844E0,-1.305057049E0,-9.092365265E0,-8.452548981E-1
3.570446563E0,-1.384107709E0,-9.092365265E0,-7.853679657E-1
3.572978281E0,-1.372130394E0,-9.080387115E0,-8.763961792E-1
3.575510000E0,-1.307452440E0,-9.101947784E0,-8.021363616E-1
3.578041719E0,-1.348175526E0,-9.075596809E0,-7.685996294E-1
3.580573438E0,-1.384107709E0,-9.066014290E0,-7.829724550E-1
3.583105156E0,-1.343384624E0,-9.080387115E0,-7.685996294E-1
3.585636927E0,-1.340989113E0,-9.123506546E0,-7.638086677E-1
3.588169115E0,-1.348175526E0,-9.094760895E0,-7.757860422E-1
3.590700834E0,-1.355362058E0,-9.068410873E0,-7.685996294E-1
3.593232552E0,-1.355362058E0,-9.154647827E0,-7.949498892E-1
3.595764323E0,-1.410458088E0,-9.133088112E0,-7.470402718E-1
3.598296042E0,-1.369734883E0,-9.125901222E0,-7.685996294E-1
3.600827761E0,-1.362548470E0,-9.133088112E0,-8.213001490E-1
3.603359479E0,-1.360152960E0,-9.137879372E0,-7.685996294E-1
3.605891198E0,-1.398480654E0,-9.121110916E0,-7.685996294E-1
3.608422917E0,-1.400876045E0,-9.178602219E0,-8.260911107E-1
3.610954636E0,-1.396085143E0,-9.183393478E0,-8.500459194E-1
3.613486354E0,-1.410458088E0,-9.157043457E0,-8.189046383E-1
3.616018125E0,-1.398480654E0,-9.157043457E0,-8.572323322E-1
3.618553906E0,-1.396085143E0,-9.147461891E0,-8.620232940E-1
3.621085625E0,-1.388898730E0,-9.171415329E0,-8.524413705E-1
3.623617344E0,-1.417644501E0,-9.183393478E0,-8.476504087E-1
3.626149115E0,-1.434412718E0,-9.207348824E0,-8.620232940E-1
3.628680834E0,-1.432017326E0,-9.209743500E0,-9.051418900E-1
3.631212552E0,-1.441599250E0,-9.204952240E0,-9.171192646E-1
3.633744271E0,-1.410458088E0,-9.221720695E0,-8.883735538E-1
3.636275990E0,-1.396085143E0,-9.209743500E0,-8.835825920E-1
3.638807709E0,-1.391294241E0,-9.207348824E0,-9.123283625E-1
3.641339427E0,-1.412853479E0,-9.176206589E0,-9.267012477E-1
3.643871146E0,-1.391294241E0,-9.154647827E0,-8.907690644E-1
3.646402917E0,-1.443994761E0,-9.152252197E0,-8.692097068E-1
3.648939844E0,-1.376921415E0,-9.173811913E0,-8.500459194E-1
3.651471563E0,-1.391294241E0,-9.121110916E0,-8.452548981E-1
3.654003281E0,-1.408062458E0,-9.125901222E0,-8.979554772E-1
3.656535000E0,-1.417644501E0,-9.137879372E0,-8.644188046E-1
3.659066771E0,-1.405667067E0,-9.154647827E0,-8.548368812E-1
3.661598438E0,-1.410458088E0,-9.082783699E0,-8.380684853E-1
3.664130209E0,-1.455972075E0,-9.092365265E0,-8.117182255E-1
3.666661927E0,-1.436808348E0,-9.149856567E0,-8.356730342E-1
3.669193646E0,-1.467949390E0,-9.161834717E0,-8.332775235E-1
3.671725365E0,-1.479926825E0,-9.106739044E0,-8.093227148E-1
3.674257084E0,-1.436808348E0,-9.073201180E0,-7.997408509E-1
3.676788802E0,-1.487113357E0,-9.089969635E0,-8.069272637E-1
3.679322552E0,-1.499090672E0,-9.058828354E0,-7.973453403E-1
3.681854323E0,-1.530231953E0,-9.018105507E0,-8.716052175E-1
3.684385990E0,-1.551791191E0,-9.061223984E0,-7.973453403E-1
3.686917761E0,-1.513463616E0,-9.068410873E0,-8.236956000E-1
3.689449479E0,-1.547000289E0,-9.068410873E0,-8.141137362E-1
3.691981198E0,-1.561373234E0,-9.042060852E0,-8.069272637E-1
3.694512917E0,-1.523045540E0,-9.058828354E0,-8.165091872E-1
3.697044636E0,-1.568559647E0,-9.070805550E0,-9.099328518E-1
3.699576406E0,-1.606887341E0,-9.063619614E0,-8.955599666E-1
3.702108125E0,-1.580536962E0,-9.039664268E0,-9.003509283E-1
3.704639792E0,-1.578141451E0,-9.066014290E0,-8.548368812E-1
3.707171563E0,-1.580536962E0,-9.044455528E0,-9.171192646E-1
3.709706042E0,-1.570955038E0,-9.066014290E0,-9.362831116E-1
3.712237761E0,-1.633237481E0,-9.085178375E0,-9.147238135E-1
3.714769479E0,-1.628446579E0,-9.063619614E0,-9.434695244E-1
3.717301250E0,-1.604491830E0,-9.135483742E0,-9.530514479E-1
3.719832969E0,-1.626051068E0,-9.125901222E0,-9.794017076E-1
3.722364688E0,-1.666774273E0,-9.094760895E0,-9.674243331E-1
3.724896406E0,-1.621260047E0,-9.082783699E0,-9.913790822E-1
3.727428125E0,-1.635632992E0,-9.118715286E0,-1.008147478E0
3.729959844E0,-1.683542609E0,-9.133088112E0,-1.008147478E0
3.732491563E0,-1.647610307E0,-9.145065308E0,-9.985655546E-1
3.735023281E0,-1.623655558E0,-9.135483742E0,-9.961701035E-1
3.737555052E0,-1.654796839E0,-9.149856567E0,-1.024915814E0
3.740090886E0,-1.630842090E0,-9.118715286E0,-1.072825313E0
3.742622604E0,-1.652401328E0,-9.171415329E0,-1.027311325E0
3.745154323E0,-1.599700809E0,-9.197766304E0,-1.015333891E0
3.747686042E0,-1.621260047E0,-9.176206589E0,-1.077616334E0
3.750217761E0,-1.616469145E0,-9.200161934E0,-1.151876211E0
3.752749479E0,-1.642819524E0,-9.142670631E0,-1.115944028E0
3.755281198E0,-1.594909787E0,-9.164229393E0,-1.159062624E0
3.757812969E0,-1.606887341E0,-9.188184738E0,-1.159062624E0
3.760344688E0,-1.609282732E0,-9.178602219E0,-1.223740578E0
3.762876406E0,-1.580536962E0,-9.161834717E0,-1.204576731E0
3.765408125E0,-1.578141451E0,-9.149856567E0,-1.202181220E0
3.767939844E0,-1.532627344E0,-9.171415329E0,-1.259672761E0
3.770472552E0,-1.570955038E0,-9.238489151E0,-1.226135969E0
3.773004323E0,-1.578141451E0,-9.231302261E0,-1.228531480E0
3.775536042E0,-1.535022974E0,-9.219326019E0,-1.324350595E0
3.778067761E0,-1.518254519E0,-9.226511955E0,-1.295604825E0
3.780599479E0,-1.520650029E0,-9.240884781E0,-1.314768672E0
3.783131198E0,-1.539813757E0,-9.267235756E0,-1.302791357E0
3.785662917E0,-1.542209387E0,-9.255257607E0,-1.302791357E0
3.788194688E0,-1.487113357E0,-9.286398888E0,-1.357887387E0
3.790726406E0,-1.484717846E0,-9.303167343E0,-1.415378809E0
3.793258125E0,-1.518254519E0,-9.267235756E0,-1.460893035E0
3.795789844E0,-1.539813757E0,-9.317540169E0,-1.470474839E0
3.798321563E0,-1.554186702E0,-9.315144539E0,-1.537548184E0
3.800855834E0,-1.568559647E0,-9.295980453E0,-1.554316640E0
3.803387552E0,-1.570955038E0,-9.319935799E0,-1.506407022E0
3.805919271E0,-1.594909787E0,-9.339099884E0,-1.571084976E0
3.808451042E0,-1.647610307E0,-9.353472710E0,-1.642949224E0
3.810982761E0,-1.645214915E0,-9.305562973E0,-1.662113070E0
3.813514479E0,-1.661983252E0,-9.307958603E0,-1.669299603E0
3.816046198E0,-1.695519924E0,-9.353472710E0,-1.676486015E0
3.818577917E0,-1.772175193E0,-9.327122688E0,-1.789073467E0
3.821109636E0,-1.836853266E0,-9.403777122E0,-1.798655391E0
3.823641354E0,-1.865598917E0,-9.389404297E0,-1.834587574E0
3.826173073E0,-1.908717632E0,-9.384613991E0,-1.813028216E0
3.828704844E0,-1.966208935E0,-9.401381493E0,-1.820214748E0
3.831236511E0,-2.030887127E0,-9.415754318E0,-1.848960519E0
3.833768229E0,-2.129101753E0,-9.422941208E0,-1.836983085E0
3.836299948E0,-2.167429209E0,-9.420545578E0,-1.939988613E0
3.838831719E0,-2.186593056E0,-9.396590233E0,-1.928011179E0
3.841363438E0,-2.268039227E0,-9.391799927E0,-1.925615668E0
3.843895156E0,-2.299180508E0,-9.410964012E0,-1.923220277E0
3.846426875E0,-2.359067440E0,-9.444500923E0,-1.916033864E0
3.848958594E0,-2.383022308E0,-9.442104340E0,-2.002271175E0
3.851490313E0,-2.394999743E0,-9.449291229E0,-1.983107209E0
3.854022031E0,-2.466864109E0,-9.446895599E0,-2.019039392E0
3.856553750E0,-2.550705910E0,-9.427732468E0,-2.081321955E0
3.859085521E0,-2.521960258E0,-9.463665009E0,-2.011852980E0
3.861620573E0,-2.507587194E0,-9.492410660E0,-2.026225805E0
3.864152292E0,-2.541123867E0,-9.542716026E0,-2.050180674E0
3.866684011E0,-2.545914888E0,-9.535528183E0,-2.083717346E0
3.869215781E0,-2.538728237E0,-9.595415115E0,-2.148395300E0
3.871747500E0,-2.526751041E0,-9.621765137E0,-2.131627083E0
3.874279167E0,-2.545914888E0,-9.686443329E0,-2.150790691E0
3.876810938E0,-2.488423347E0,-9.760704041E0,-2.177140951E0
3.879342656E0,-2.457282066E0,-9.818195343E0,-2.145999670E0
3.881874375E0,-2.478841305E0,-9.897245407E0,-2.217864275E0
3.884406094E0,-2.481236935E0,-9.942760468E0,-2.237027884E0
3.886937813E0,-2.490818977E0,-1.004576588E1,-2.258587122E0
3.889469584E0,-2.469259501E0,-1.016074848E1,-2.316078663E0
3.892006146E0,-2.478841305E0,-1.015835381E1,-2.356801987E0
3.894537865E0,-2.512378216E0,-1.025417233E1,-2.387943029E0
3.897069584E0,-2.584242582E0,-1.030447769E1,-2.450225592E0
3.899601354E0,-2.589033365E0,-1.032124519E1,-2.443039179E0
3.902133073E0,-2.593824387E0,-1.035717773E1,-2.486157656E0
3.904664792E0,-2.646524906E0,-1.040029621E1,-2.510112524E0
3.907196511E0,-2.612988234E0,-1.044341564E1,-2.536462784E0
3.909728229E0,-2.651315928E0,-1.047216034E1,-2.558022022E0
3.912259948E0,-2.656106949E0,-1.052965260E1,-2.536462784E0
3.914791667E0,-2.677666187E0,-1.057995796E1,-2.433457136E0
3.917323386E0,-2.701621056E0,-1.056558418E1,-2.359197378E0
3.919855156E0,-2.711202860E0,-1.063505363E1,-2.258587122E0
3.922389167E0,-2.706412077E0,-1.065900898E1,-2.268169165E0
3.924920886E0,-2.682457209E0,-1.066379929E1,-2.189118385E0
3.927452604E0,-2.641733885E0,-1.068535900E1,-2.114858389E0
3.929984375E0,-2.663293123E0,-1.063984489E1,-2.047785044E0
3.932516094E0,-2.672875166E0,-1.059193420E1,-2.023830414E0
3.935047813E0,-2.689643383E0,-1.061349392E1,-2.112462997E0
3.937579531E0,-2.739948511E0,-1.056558418E1,-2.119649410E0
3.940111250E0,-2.780671835E0,-1.051288319E1,-2.138813257E0
3.942642969E0,-2.890863657E0,-1.045539284E1,-2.126836061E0
3.945174688E0,-2.974705458E0,-1.039550591E1,-2.122045040E0
3.947706406E0,-3.056151628E0,-1.031885052E1,-2.196304798E0
3.950238177E0,-3.130411386E0,-1.024459076E1,-2.225050449E0
3.952744740E0,-3.226230621E0,-1.013679314E1,-2.268169165E0
3.955276459E0,-3.324445486E0,-1.000983334E1,-2.265773773E0
3.957808177E0,-3.386727810E0,-9.873291969E0,-2.306496620E0
3.960339948E0,-3.453801155E0,-9.727166176E0,-2.445434570E0
3.962871667E0,-3.463383198E0,-9.662489891E0,-2.555626392E0
3.965403386E0,-3.528060913E0,-9.518760681E0,-2.687377930E0
3.967935104E0,-3.556806803E0,-9.324726105E0,-2.905366421E0
3.970466823E0,-3.640648365E0,-9.056432724E0,-2.948484898E0
3.972998542E0,-3.815518379E0,-8.658783913E0,-2.802361012E0
3.975530261E0,-3.659812212E0,-8.718670845E0,-3.355716467E0
3.978061979E0,-3.499315262E0,-8.883958817E0,-3.762947798E0
3.980593750E0,-3.396309614E0,-8.934263229E0,-3.715038300E0
3.983155729E0,-3.199880362E0,-8.965404510E0,-3.604846239E0
3.985687448E0,-3.056151628E0,-8.970195770E0,-3.240733385E0
3.988219167E0,-2.854931355E0,-8.895936012E0,-2.907762051E0
3.990750886E0,-2.562683105E0,-8.922286987E0,-2.608327150E0
3.993282656E0,-2.263248444E0,-8.943845749E0,-2.373570204E0
3.995814375E0,-1.935067892E0,-8.955822945E0,-2.150790691E0
3.998346094E0,-1.515859127E0,-9.022896767E0,-2.114858389E0
4.000877813E0,-1.146955490E0,-9.116319656E0,-2.155581713E0
4.003409531E0,-7.996109724E-1,-9.216930389E0,-2.284937382E0
4.005941250E0,-3.732157946E-1,-9.312749863E0,-2.423875332E0
4.008472969E0,-1.240860522E-1,-9.458873749E0,-2.581976891E0
4.011004740E0,-7.138556242E-2,-9.504387856E0,-2.890993595E0
4.013511979E0,4.838842154E-2,-9.585833549E0,-3.257501841E0
4.016043802E0,4.838842154E-2,-9.753517151E0,-3.717433691E0
4.018575625E0,-2.347594500E-2,-9.861313820E0,-3.992913723E0
4.021107500E0,-2.223006487E-1,-9.923596382E0,-4.208507061E0
4.023639323E0,-5.600631237E-1,-9.892454147E0,-4.366608620E0
4.026171146E0,-8.882436752E-1,-9.806217194E0,-4.457636833E0
4.028703021E0,-1.204446793E0,-9.686443329E0,-4.476800919E0
4.031234844E0,-1.489508867E0,-9.557087898E0,-4.474405289E0
4.033766667E0,-1.642819524E0,-9.410964012E0,-4.397749901E0
4.036298542E0,-1.913508415E0,-9.159438133E0,-4.122269630E0
4.038830365E0,-2.107542276E0,-8.958218575E0,-3.949795008E0
4.041362188E0,-2.196175098E0,-8.833653450E0,-3.913862944E0
4.043922656E0,-2.280016899E0,-8.819280624E0,-3.966563463E0
4.046454531E0,-2.502796173E0,-8.797721863E0,-3.897094488E0
4.048986354E0,-2.744739532E0,-8.694715500E0,-3.789298058E0
4.051518229E0,-2.907631874E0,-8.656388283E0,-3.707851648E0
4.054050052E0,-3.065733671E0,-8.594105721E0,-3.695874453E0
4.056581875E0,-3.161552668E0,-8.572546959E0,-3.741388559E0
4.059113750E0,-3.159157276E0,-8.515054703E0,-3.827625751E0
4.061645573E0,-3.130411386E0,-8.491100311E0,-3.873139620E0
4.064177396E0,-3.092083931E0,-8.474331856E0,-3.947399616E0
4.066709271E0,-3.065733671E0,-8.515054703E0,-3.956981421E0
4.069241094E0,-2.962728024E0,-8.601292610E0,-3.899489880E0
4.071772969E0,-2.845349789E0,-8.620455742E0,-3.863558054E0
4.074305156E0,-2.701621056E0,-8.651597977E0,-3.839602947E0
4.076837031E0,-2.526751041E0,-8.730648041E0,-3.777320623E0
4.079368854E0,-2.421350002E0,-8.697111130E0,-3.688688040E0
4.081900729E0,-2.303971529E0,-8.706693649E0,-3.667128801E0
4.084432552E0,-2.215338707E0,-8.709088326E0,-3.652755737E0
4.086964375E0,-2.114728689E0,-8.730648041E0,-3.544959307E0
4.089496250E0,-2.016514063E0,-8.665969849E0,-3.535377264E0
4.092028073E0,-1.956627131E0,-8.412049294E0,-3.521004438E0
4.094559896E0,-1.925485849E0,-8.170105934E0,-3.458721876E0
4.097091771E0,-1.889553666E0,-7.918581486E0,-3.422789812E0
4.099623594E0,-1.882367253E0,-7.801202297E0,-3.417999029E0
4.102155417E0,-2.011723042E0,-7.741316319E0,-3.389253139E0
4.104685781E0,-2.090774059E0,-7.710174084E0,-3.401230574E0
4.107217656E0,-2.045259953E0,-7.590400219E0,-3.415603399E0
4.109749479E0,-2.071609974E0,-7.465835094E0,-3.485072136E0
4.112281354E0,-2.138683319E0,-7.379598618E0,-3.549750328E0
4.114813177E0,-2.212943316E0,-7.336480141E0,-3.619219065E0
4.117345000E0,-2.306366920E0,-7.288570404E0,-3.647964716E0
4.119876875E0,-2.440513611E0,-7.199937344E0,-3.746179581E0
4.122408698E0,-2.466864109E0,-7.132863998E0,-3.865953207E0
4.124940521E0,-2.538728237E0,-7.008299351E0,-3.901885509E0
4.127472396E0,-2.612988234E0,-6.955598831E0,-3.942608833E0
4.130004219E0,-2.771089792E0,-6.974762440E0,-4.038427830E0
4.132536042E0,-2.847745180E0,-6.955598831E0,-4.069569111E0
4.135071927E0,-2.919609547E0,-6.919666767E0,-4.021659851E0
4.137603802E0,-2.993869305E0,-6.811870098E0,-4.057591915E0
4.140135625E0,-2.972310066E0,-6.694491386E0,-4.093523979E0
4.142667500E0,-2.998660326E0,-6.584299564E0,-4.146224499E0
4.145199323E0,-3.041779041E0,-6.416615963E0,-4.129456043E0
4.147731146E0,-3.041779041E0,-6.318401337E0,-4.141433716E0
4.150263021E0,-3.058547258E0,-6.277678490E0,-4.220484257E0
4.152794844E0,-3.046569824E0,-6.282469749E0,-4.184552193E0
4.155326667E0,-2.998660326E0,-6.270492077E0,-4.165388584E0
4.157858542E0,-2.967519045E0,-6.201023102E0,-4.162992954E0
4.160390365E0,-2.926795959E0,-6.138740540E0,-4.208507061E0
4.162922188E0,-2.816603899E0,-6.074062347E0,-4.254021168E0
4.165455469E0,-2.646524906E0,-5.932729721E0,-4.277975559E0
4.167987344E0,-2.598615408E0,-5.812955379E0,-4.277975559E0
4.170519167E0,-2.512378216E0,-5.750673294E0,-4.225275040E0
4.173051042E0,-2.383022308E0,-5.633294582E0,-4.304326057E0
4.175582865E0,-2.253666401E0,-5.523102760E0,-4.261207581E0
4.178114688E0,-2.148265362E0,-5.499147892E0,-4.189343452E0
4.180646563E0,-2.033282518E0,-5.367396355E0,-4.218088627E0
4.183178386E0,-1.894344687E0,-5.235645294E0,-4.261207581E0
4.185710209E0,-1.767384291E0,-5.182944775E0,-4.198925018E0
4.188242084E0,-1.642819524E0,-5.091916561E0,-4.160597324E0
4.190773906E0,-1.551791191E0,-5.017656326E0,-4.153410912E0
4.193305729E0,-1.427226305E0,-5.003283978E0,-4.194134235E0
4.195835625E0,-1.352966547E0,-4.974537849E0,-4.201320648E0
4.198367448E0,-1.288288593E0,-4.964956284E0,-4.160597324E0
4.200899271E0,-1.302661419E0,-4.924232960E0,-4.254021168E0
4.203431146E0,-1.226006150E0,-4.864346027E0,-4.242043495E0
4.205962969E0,-1.178096533E0,-4.849973202E0,-4.285162449E0
4.208494792E0,-1.168514729E0,-4.840391636E0,-4.313908100E0
4.211026667E0,-1.158932805E0,-4.902673721E0,-4.340258121E0
4.213558490E0,-1.204446793E0,-4.919442177E0,-4.383376598E0
4.216090313E0,-1.154141903E0,-4.900278091E0,-4.342653751E0
4.218622188E0,-1.161328197E0,-4.962560654E0,-4.390563011E0
4.221154011E0,-1.197260380E0,-4.993701935E0,-4.431286812E0
4.223685834E0,-1.223610640E0,-5.070356846E0,-4.404936314E0
4.226221979E0,-1.249960899E0,-5.123057365E0,-4.419309139E0
4.228753854E0,-1.264333844E0,-5.139825821E0,-4.412122726E0
4.231285677E0,-1.290684104E0,-5.192526340E0,-4.462427616E0
4.233817552E0,-1.350571036E0,-5.283555031E0,-4.431286812E0
4.236349375E0,-1.455972075E0,-5.317091465E0,-4.455241203E0
4.238881198E0,-1.530231953E0,-5.369791985E0,-4.452845573E0
4.241413073E0,-1.520650029E0,-5.386560440E0,-4.414518356E0
4.243944948E0,-1.556582212E0,-5.463215351E0,-4.503150940E0
4.246476771E0,-1.602096319E0,-5.475193024E0,-4.450450420E0
4.249008594E0,-1.628446579E0,-5.527893543E0,-4.457636833E0
4.251540417E0,-1.652401328E0,-5.580594063E0,-4.531896591E0
4.254072240E0,-1.721870184E0,-5.606944561E0,-4.553455830E0
4.256604688E0,-1.690729022E0,-5.628503323E0,-4.594179153E0
4.259136563E0,-1.786548138E0,-5.700367928E0,-4.608551502E0
4.261668386E0,-1.820084810E0,-5.726718426E0,-4.692393780E0
4.264200261E0,-1.870389819E0,-5.812955379E0,-4.694789410E0
4.266732084E0,-1.920694947E0,-5.892006397E0,-4.769049168E0
4.269263906E0,-1.973395467E0,-5.966266155E0,-4.800190449E0
4.271795781E0,-2.042864323E0,-6.050107956E0,-4.874450207E0
4.274327604E0,-2.215338707E0,-6.148322582E0,-4.924755096E0
4.276859427E0,-2.296785116E0,-6.203418732E0,-4.951105118E0
4.279391302E0,-2.414163589E0,-6.284864902E0,-5.044529438E0
4.281923125E0,-2.428536415E0,-6.356729031E0,-5.080461025E0
4.284454948E0,-2.500400543E0,-6.397452354E0,-5.133161545E0
4.286984063E0,-2.567474127E0,-6.419011593E0,-5.190653324E0
4.289515938E0,-2.636942863E0,-6.466920853E0,-5.152325630E0
4.292047761E0,-2.744739532E0,-6.481294155E0,-5.128370762E0
4.294579636E0,-2.842954159E0,-6.545971870E0,-5.125975132E0
4.297111459E0,-2.919609547E0,-6.579508781E0,-5.142743587E0
4.299643281E0,-3.008242130E0,-6.601068020E0,-5.159512043E0
4.302175156E0,-3.056151628E0,-6.637000084E0,-5.267308712E0
4.304707031E0,-3.187902927E0,-6.639395714E0,-5.343963623E0
4.307238854E0,-3.276535749E0,-6.716051102E0,-5.430201054E0
4.309770677E0,-3.331631660E0,-6.692096233E0,-5.581116199E0
4.312302500E0,-3.298094988E0,-6.677723408E0,-5.720053673E0
4.314834323E0,-3.346004725E0,-6.699282646E0,-5.863782883E0
4.317366771E0,-3.427450895E0,-6.668141365E0,-6.038652897E0
4.319898646E0,-3.482547045E0,-6.648977757E0,-6.203940868E0
4.322430469E0,-3.489733458E0,-6.728028774E0,-6.290177822E0
4.324962344E0,-3.559202194E0,-6.737610340E0,-6.441093445E0
4.327494167E0,-3.599925518E0,-6.819056511E0,-6.589612484E0
4.330026042E0,-3.592738867E0,-6.828638554E0,-6.704595566E0
4.332557865E0,-3.573575258E0,-6.828638554E0,-6.802810192E0
4.335089688E0,-3.607111692E0,-6.840616226E0,-6.905815601E0
4.337621511E0,-3.592738867E0,-6.907689095E0,-7.035171509E0
4.340153386E0,-3.590343475E0,-6.905293465E0,-7.142968178E0
4.342685209E0,-3.542433977E0,-6.910084724E0,-7.190877914E0
4.345217031E0,-3.506501675E0,-6.946017265E0,-7.217228413E0
4.347749479E0,-3.489733458E0,-6.924457550E0,-7.327420235E0
4.350281354E0,-3.475360394E0,-6.996322155E0,-7.360956669E0
4.352813177E0,-3.482547045E0,-6.996322155E0,-7.372934341E0
4.355345052E0,-3.472965002E0,-7.039440632E0,-7.432821274E0
4.357876875E0,-3.458592176E0,-7.089745522E0,-7.480730534E0
4.360408698E0,-3.511292696E0,-7.147236824E0,-7.490312576E0
4.362940573E0,-3.578366041E0,-7.180774212E0,-7.514267445E0
4.365472396E0,-3.628671169E0,-7.197542191E0,-7.535826683E0
4.368004219E0,-3.671789646E0,-7.166400909E0,-7.566967487E0
4.370536094E0,-3.758027077E0,-7.214310646E0,-7.540617943E0
4.373067917E0,-3.849055290E0,-7.243055820E0,-7.523849010E0
4.375599740E0,-3.861032486E0,-7.238265514E0,-7.617272854E0
4.378121615E0,-3.901755810E0,-7.243055820E0,-7.607691288E0
4.380653438E0,-4.011947632E0,-7.269406319E0,-7.557386398E0
4.383185313E0,-4.035902500E0,-7.235869884E0,-7.535826683E0
4.385717136E0,-4.043088913E0,-7.259824753E0,-7.478335381E0
4.388248959E0,-3.992784023E0,-7.233474731E0,-7.377725124E0
4.390780834E0,-3.949665308E0,-7.214310646E0,-7.358561039E0
4.393312656E0,-3.944874287E0,-7.247847080E0,-7.315442562E0
4.395844479E0,-3.846659660E0,-7.221497059E0,-7.214832783E0
4.398376354E0,-3.829891205E0,-7.149632454E0,-7.114222050E0
4.400908177E0,-3.758027077E0,-7.125678062E0,-7.104640484E0
4.403440000E0,-3.676580667E0,-7.147236824E0,-7.107036114E0
4.405971875E0,-3.580761433E0,-7.156818867E0,-7.119013309E0
4.408521459E0,-3.504106283E0,-7.108909607E0,-7.083081245E0
4.411053334E0,-3.456196785E0,-7.156818867E0,-7.023194313E0
4.413585156E0,-3.355586529E0,-7.096931934E0,-7.035171509E0
4.416117031E0,-3.238208294E0,-7.106513977E0,-6.951329708E0
4.418648854E0,-3.096874952E0,-7.044231415E0,-6.896233559E0
4.421180677E0,-3.046569824E0,-7.029858589E0,-6.821974277E0
4.423712552E0,-2.910027504E0,-6.989135742E0,-6.817183018E0
4.426244375E0,-2.773485184E0,-6.998717785E0,-6.783646107E0
4.428776250E0,-2.682457209E0,-7.010694981E0,-6.735736847E0
4.431308073E0,-2.550705910E0,-7.008299351E0,-6.704595566E0
4.433839896E0,-2.387813091E0,-6.965180397E0,-6.620753765E0
4.436371719E0,-2.220129728E0,-6.943621635E0,-6.553680897E0
4.438904219E0,-2.069214582E0,-6.960390091E0,-6.469838619E0
4.441436094E0,-1.860808015E0,-7.003508568E0,-6.409951687E0
4.443967917E0,-1.695519924E0,-7.041836262E0,-6.445883751E0
4.446499792E0,-1.547000289E0,-7.159214497E0,-6.414742947E0
4.449031615E0,-1.331407309E0,-7.312525272E0,-6.369228840E0
4.451563438E0,-1.151746273E0,-7.417925835E0,-6.297364235E0
4.454095313E0,-1.048740745E0,-7.585609913E0,-6.299759865E0
4.456627136E0,-8.906391859E-1,-7.829948902E0,-6.271014214E0
4.459158959E0,-8.211703300E-1,-8.122196198E0,-6.208731651E0
4.461690834E0,-7.756562233E-1,-8.388094902E0,-6.127285004E0
4.464222656E0,-6.846280098E-1,-8.814489365E0,-6.079375744E0
4.466754479E0,-6.654642224E-1,-9.252862930E0,-6.055420876E0
4.469288021E0,-6.702551842E-1,-9.700816154E0,-5.940438271E0
4.471819896E0,-6.942099333E-1,-1.024938202E1,-5.882946491E0
4.474351719E0,-8.020064831E-1,-1.090813732E1,-5.765568256E0
4.476883594E0,-1.024785995E0,-1.155252171E1,-5.576325417E0
4.479415417E0,-1.170910120E0,-1.221606922E1,-5.566743374E0
4.481947292E0,-1.424830914E0,-1.291075802E1,-5.535602093E0
4.484479115E0,-1.788943648E0,-1.361023712E1,-5.458946705E0
4.487010938E0,-2.083587646E0,-1.426180744E1,-5.437387943E0
4.489542761E0,-2.383022308E0,-1.486067772E1,-5.372709751E0
4.492074636E0,-2.653711319E0,-1.539486980E1,-5.391873360E0
4.494606459E0,-2.895654678E0,-1.578054237E1,-5.442178249E0
4.497138281E0,-3.087292910E0,-1.607039452E1,-5.514042854E0
4.499671250E0,-3.161552668E0,-1.626922035E1,-5.516438007E0
4.502203125E0,-3.139993429E0,-1.634347916E1,-5.612257004E0
4.504734948E0,-3.163948298E0,-1.626442719E1,-5.619443893E0
4.507266823E0,-3.099270582E0,-1.597457504E1,-5.514042854E0
4.509798646E0,-2.998660326E0,-1.560327530E1,-5.549975395E0
4.512330469E0,-2.905236721E0,-1.519843960E1,-5.638607502E0
4.514862344E0,-2.768694162E0,-1.481037235E1,-5.667353153E0
4.517394167E0,-2.538728237E0,-1.437918663E1,-5.777545452E0
4.519925990E0,-2.289598465E0,-1.393123150E1,-5.813477516E0
4.522457865E0,-1.956627131E0,-1.353597736E1,-5.784731865E0
4.524989688E0,-1.661983252E0,-1.303053188E1,-5.696099281E0
4.527521511E0,-1.364943981E0,-1.244363976E1,-5.490087986E0
4.530052656E0,-1.099045753E0,-1.181602478E1,-5.355941296E0
4.532584531E0,-8.139838576E-1,-1.105905247E1,-4.929546356E0
4.535116354E0,-5.744360089E-1,-1.026135826E1,-4.431286812E0
4.537648229E0,-3.827977180E-1,-9.398986816E0,-3.688688040E0
4.540180052E0,-1.408544183E-1,-8.505472183E0,-2.967648983E0
4.542711927E0,1.724714041E-2,-7.645496845E0,-2.167558908E0
4.545243750E0,1.513939500E-1,-6.744796753E0,-1.434542656E0
4.547775573E0,3.142865300E-1,-5.975848198E0,-8.380684853E-1
4.550307396E0,3.957327604E-1,-5.240436077E0,-3.350180387E-1
4.552839271E0,4.508287907E-1,-4.643961906E0,5.544496328E-2
4.555371094E0,4.843655825E-1,-4.167262077E0,1.704279333E-1
4.557902917E0,4.867609739E-1,-3.788775921E0,1.464731395E-1
4.560437500E0,4.340604544E-1,-3.508505344E0,1.009590551E-1
4.562969375E0,4.196875691E-1,-3.283330202E0,1.472182851E-2
4.565501198E0,3.789644241E-1,-3.127624273E0,-1.194249690E-1
4.568033073E0,2.903317213E-1,-2.993477345E0,-1.409842819E-1
4.570564896E0,2.400266528E-1,-2.856935024E0,-8.588826656E-2
4.573096719E0,1.969081163E-1,-2.717997313E0,4.586304724E-2
4.575628594E0,6.036579609E-2,-2.677274227E0,2.207329720E-1
4.578160417E0,-9.773579240E-2,-2.643737555E0,4.243486524E-1
4.580692240E0,-2.773966789E-1,-2.763511658E0,7.022241950E-1
4.583224115E0,-5.480857491E-1,-2.854539633E0,1.018427372E0
4.585755938E0,-8.571025133E-1,-3.062946320E0,1.293907404E0
4.588287761E0,-1.151746273E0,-3.383940220E0,1.447218060E0
4.590820209E0,-1.494299769E0,-3.743262291E0,1.660415649E0
4.593352084E0,-1.815293789E0,-4.164866447E0,1.789771438E0
4.595883959E0,-2.107542276E0,-4.682289600E0,1.876008630E0
4.598415781E0,-2.450095654E0,-5.194921970E0,1.928709149E0
4.600947604E0,-2.704016447E0,-5.743486404E0,1.967036843E0
4.603479427E0,-3.008242130E0,-6.256119251E0,1.825703621E0
4.606011302E0,-3.369959354E0,-6.847802639E0,1.720302582E0
4.608543125E0,-3.717303753E0,-7.482604504E0,1.509500384E0
4.611074948E0,-4.021529675E0,-8.071891785E0,1.327444077E0
4.613606823E0,-4.297009468E0,-8.656388283E0,1.157365203E0
4.616138646E0,-4.541348457E0,-9.214534760E0,9.441674948E-1
4.618670469E0,-4.790477753E0,-9.777471542E0,6.974332333E-1
4.621189063E0,-4.996489525E0,-1.036915588E1,4.698627293E-1
4.623720886E0,-5.161777496E0,-1.089136982E1,3.668571413E-1
4.626252761E0,-5.322274685E0,-1.141358376E1,2.925973237E-1
4.628784636E0,-5.482771397E0,-1.186632919E1,1.943827122E-1
4.631316406E0,-5.578590393E0,-1.234782028E1,7.460878789E-2
4.633848281E0,-5.497144699E0,-1.273588753E1,-4.037417844E-2
4.636380104E0,-5.427675247E0,-1.294429493E1,-2.607582211E-1
4.638911927E0,-5.389348030E0,-1.310479164E1,-4.428145587E-1
4.641443802E0,-5.336647511E0,-1.317665672E1,-4.835377038E-1
4.643975625E0,-5.188127518E0,-1.309281445E1,-5.721704364E-1
4.646507448E0,-4.943789005E0,-1.279577446E1,-6.512211561E-1
4.649039323E0,-4.651540279E0,-1.236698437E1,-8.308820128E-1
4.651587240E0,-4.304195881E0,-1.188788891E1,-9.985655546E-1
4.654119115E0,-4.011947632E0,-1.129620552E1,-1.125525951E0
4.656650938E0,-3.736467838E0,-1.069494057E1,-1.247695327E0
4.659182813E0,-3.386727810E0,-1.019668102E1,-1.350700855E0
4.661714636E0,-3.120829821E0,-9.681653023E0,-1.412983298E0
4.664246459E0,-2.893259287E0,-9.214534760E0,-1.432147264E0
4.666778334E0,-2.615383625E0,-8.797721863E0,-1.343514442E0
4.669310156E0,-2.315948963E0,-8.419235229E0,-1.317164183E0
4.671841979E0,-2.028491497E0,-8.091055870E0,-1.331537127E0
4.674373854E0,-1.719474673E0,-7.772456646E0,-1.298000336E0
4.676905677E0,-1.503881693E0,-7.475417614E0,-1.240508795E0
4.679437500E0,-1.185282946E0,-7.152028084E0,-1.331537127E0
4.681970052E0,-8.139838576E-1,-6.866966248E0,-1.669299603E0
4.684501927E0,-8.115884066E-1,-6.768751621E0,-1.492034078E0
4.687033750E0,-7.780516744E-1,-6.838220596E0,-1.240508795E0
4.689565625E0,-4.977807105E-1,-6.938830376E0,-1.604621649E0
4.692097448E0,-4.187299013E-1,-6.924457550E0,-1.592644215E0
4.694629323E0,-4.450801611E-1,-6.912479877E0,-1.302791357E0
4.697161146E0,-4.929897487E-1,-6.926853180E0,-1.161458135E0
4.699692969E0,-4.666394889E-1,-6.986740112E0,-1.185412884E0
4.702224792E0,-3.684248626E-1,-7.080163479E0,-1.384237647E0
4.704756667E0,-3.253062665E-1,-7.084954739E0,-1.381842136E0
4.707288490E0,-3.612384200E-1,-7.116096020E0,-1.341118932E0
4.709820313E0,-5.193400383E-1,-7.106513977E0,-1.226135969E0
4.712334427E0,-7.684697509E-1,-7.190355778E0,-1.106362104E0
4.714866250E0,-1.046345234E0,-7.283779621E0,-9.147238135E-1
4.717398073E0,-1.278706789E0,-7.473021984E0,-9.243057370E-1
4.719929948E0,-1.535022974E0,-7.578423023E0,-9.147238135E-1
4.722461771E0,-1.858412504E0,-7.669451237E0,-8.500459194E-1
4.724993594E0,-2.105146885E0,-7.777247906E0,-8.596277833E-1
4.727525469E0,-2.392604351E0,-7.988049984E0,-7.518312931E-1
4.730057292E0,-2.656106949E0,-8.122196198E0,-7.949498892E-1
4.732589115E0,-2.907631874E0,-8.122196198E0,-7.398538589E-1
4.735120990E0,-3.139993429E0,-8.146151543E0,-6.392437816E-1
4.737652813E0,-3.384332180E0,-8.177292824E0,-6.536166668E-1
4.740184636E0,-3.604716301E0,-8.201247215E0,-6.057071090E-1
4.742737604E0,-3.873009920E0,-8.162919998E0,-4.140688181E-1
4.745269479E0,-4.086207390E0,-7.990445614E0,-3.805321455E-1
4.747801302E0,-4.277845383E0,-7.719756603E0,-4.547919631E-1
4.750333177E0,-4.510207176E0,-8.232388496E0,-2.511762679E-1
4.752865000E0,-4.673099518E0,-8.704298019E0,-1.170294881E-1
4.755396823E0,-4.804851055E0,-9.003732681E0,-9.786566347E-2
4.757928698E0,-4.927020550E0,-9.185788155E0,2.669922262E-2
4.760460521E0,-4.953371048E0,-9.396590233E0,9.616809338E-2
4.762992344E0,-4.977325439E0,-9.583438873E0,1.512641013E-1
4.765524219E0,-4.967743397E0,-9.703212738E0,1.368912309E-1
4.768056042E0,-4.915042877E0,-9.765494347E0,2.279194146E-1
4.770587865E0,-4.771314621E0,-9.765494347E0,1.848007888E-1
4.773093959E0,-4.641958237E0,-9.688839912E0,1.129364446E-1
4.775625781E0,-4.594048977E0,-9.576251984E0,2.207329720E-1
4.778157604E0,-4.431156158E0,-9.439709663E0,1.943827122E-1
4.780689479E0,-4.244309425E0,-9.274421692E0,2.190826461E-2
4.783221302E0,-4.093394279E0,-9.176206589E0,-3.558322042E-2
4.785753177E0,-3.925710440E0,-8.998941422E0,-4.276965559E-2
4.788285000E0,-3.746049404E0,-8.898331642E0,-1.960802823E-1
4.790816875E0,-3.590343475E0,-8.826467514E0,-2.176395953E-1
4.793348698E0,-3.434637547E0,-8.840839386E0,-2.679446340E-1
4.795880521E0,-3.389123201E0,-8.711484909E0,-2.511762679E-1
4.798412396E0,-3.247789860E0,-8.622851372E0,-3.158542216E-1
4.800944219E0,-3.106456757E0,-8.584523201E0,-4.859331846E-1
4.803476094E0,-3.034592390E0,-8.675551414E0,-5.434246659E-1
4.806007917E0,-2.945959806E0,-8.718670845E0,-5.146788955E-1
4.808539792E0,-2.802231073E0,-8.797721863E0,-6.296618581E-1
4.811071615E0,-2.775880814E0,-8.838444710E0,-7.135035992E-1
4.813603438E0,-2.656106949E0,-8.721065521E0,-8.117182255E-1
4.816135313E0,-2.498005390E0,-8.668365479E0,-9.794017076E-1
4.818667136E0,-2.414163589E0,-8.488704681E0,-1.118339419E0
4.821198959E0,-2.380626678E0,-8.376117706E0,-1.209367752E0
4.823730781E0,-2.318344355E0,-8.287484169E0,-1.309977770E0
4.826262656E0,-2.291994095E0,-8.208433151E0,-1.389028549E0
4.828794479E0,-2.332717180E0,-8.136569977E0,-1.458497524E0
4.831326302E0,-2.383022308E0,-8.055122375E0,-1.508802533E0
4.833884219E0,-2.404581547E0,-7.940140247E0,-1.568689466E0
4.836416094E0,-2.409372568E0,-7.930558681E0,-1.628576398E0
4.838947969E0,-2.402185917E0,-7.873067379E0,-1.626181006E0
4.841479792E0,-2.375835896E0,-7.803597927E0,-1.705231786E0
4.844011615E0,-2.450095654E0,-7.777247906E0,-1.657322049E0
4.846543438E0,-2.474050522E0,-7.760479450E0,-1.712418079E0
4.849075313E0,-2.452491283E0,-7.762875080E0,-1.745954871E0
4.851607188E0,-2.471654892E0,-7.726943493E0,-1.671694994E0
4.854138959E0,-2.464468479E0,-7.702988148E0,-1.633367300E0
4.856670834E0,-2.533937454E0,-7.698196888E0,-1.568689466E0
4.859202709E0,-2.634547710E0,-7.700592518E0,-1.556712151E0
4.861734531E0,-2.586637974E0,-7.753293514E0,-1.463288307E0
4.864270417E0,-2.646524906E0,-7.760479450E0,-1.408192396E0
4.866802292E0,-2.742343903E0,-7.729338169E0,-1.393819451E0
4.869334115E0,-2.835767746E0,-7.734129429E0,-1.331537127E0
4.871865990E0,-2.914818525E0,-7.813180447E0,-1.257277250E0
4.874397761E0,-2.878886461E0,-7.911394596E0,-1.175830960E0
4.876929636E0,-3.005846739E0,-8.002422333E0,-1.125525951E0
4.879461511E0,-3.060942650E0,-8.023982048E0,-1.000961065E0
4.881993334E0,-3.118434191E0,-8.105427742E0,-9.338876605E-1
4.884525156E0,-3.166343689E0,-8.143755913E0,-8.548368812E-1
4.887056979E0,-3.209462404E0,-8.095846176E0,-7.925544381E-1
4.889588854E0,-3.252580881E0,-8.201247215E0,-7.781815529E-1
4.892120677E0,-3.207067013E0,-8.194060326E0,-7.518312931E-1
4.894648750E0,-3.329236269E0,-8.227597237E0,-7.470402718E-1
4.897180625E0,-3.362772942E0,-8.340184212E0,-7.111081481E-1
4.899712448E0,-3.372354984E0,-8.457563400E0,-6.057071090E-1
4.902244271E0,-3.379541397E0,-8.620455742E0,-5.649839640E-1
4.904776094E0,-3.329236269E0,-8.716275215E0,-5.050969720E-1
4.907307969E0,-3.298094988E0,-8.548591614E0,-3.685547709E-1
4.909839792E0,-3.195089579E0,-8.400071144E0,-3.254361451E-1
4.912371615E0,-2.962728024E0,-8.150942802E0,-3.326225579E-1
4.914903490E0,-2.809417486E0,-8.095846176E0,-4.044869244E-1
4.917435313E0,-2.797440052E0,-8.052727699E0,-3.733457029E-1
4.919967136E0,-2.744739532E0,-7.906604290E0,-3.853231072E-1
4.922499011E0,-2.684852362E0,-7.947327137E0,-4.188597798E-1
4.925036563E0,-2.624965668E0,-7.990445614E0,-5.122833848E-1
4.927568438E0,-2.648920536E0,-7.932954311E0,-5.386336446E-1
4.930100261E0,-2.591428995E0,-8.000026703E0,-6.272664070E-1
4.932632136E0,-2.567474127E0,-8.038354874E0,-6.703850031E-1
4.935163959E0,-2.598615408E0,-8.138964653E0,-7.877634764E-1
4.937695781E0,-2.560287714E0,-8.203642845E0,-8.596277833E-1
4.940227656E0,-2.553101063E0,-8.277902603E0,-8.907690644E-1
4.942759479E0,-2.553101063E0,-8.306648254E0,-8.931644559E-1
4.945291302E0,-2.514773607E0,-8.328207970E0,-1.003356576E0
4.947823177E0,-2.521960258E0,-8.424026489E0,-1.060847998E0
4.950355000E0,-2.531541824E0,-8.416840553E0,-1.151876211E0
4.952886875E0,-2.557892323E0,-8.459959030E0,-1.137503386E0
4.955419584E0,-2.581846952E0,-8.455167770E0,-1.194994807E0
4.957951459E0,-2.586637974E0,-8.522241592E0,-1.209367752E0
4.960483281E0,-2.605801821E0,-8.488704681E0,-1.245299816E0
4.963015156E0,-2.663293123E0,-8.491100311E0,-1.230926991E0
4.965546979E0,-2.706412077E0,-8.510263443E0,-1.197390199E0
4.968078802E0,-2.715993643E0,-8.481518745E0,-1.226135969E0
4.970610677E0,-2.790253639E0,-8.510263443E0,-1.221345067E0
4.973142500E0,-2.972310066E0,-8.620455742E0,-1.159062624E0
4.975674323E0,-3.065733671E0,-8.685133934E0,-1.166249156E0
4.978206198E0,-3.211858034E0,-8.759393692E0,-1.178226471E0
4.980738021E0,-3.329236269E0,-8.888749123E0,-1.149480700E0
4.983269844E0,-3.410682440E0,-8.979777336E0,-1.211763144E0
4.985804167E0,-3.494524240E0,-9.085178375E0,-1.178226471E0
4.988336042E0,-3.592738867E0,-9.176206589E0,-1.132712364E0
4.990867865E0,-3.681371689E0,-9.315144539E0,-1.190203905E0
4.993399740E0,-3.755631447E0,-9.432523727E0,-1.245299816E0
4.995931563E0,-3.877800941E0,-9.564274788E0,-1.300395846E0
4.998463438E0,-3.887382746E0,-9.722375870E0,-1.401005983E0
5.000995261E0,-3.801145554E0,-9.796635628E0,-1.460893035E0
5.003527084E0,-3.805936575E0,-9.937969208E0,-1.563898444E0
5.006058959E0,-3.753236055E0,-1.004816151E1,-1.678881526E0
5.008590781E0,-3.738863230E0,-1.016793442E1,-1.765118718E0
5.011122604E0,-3.748445034E0,-1.021824074E1,-1.726791024E0
5.013654427E0,-3.767608881E0,-1.022782135E1,-1.757932186E0
5.016184063E0,-3.882591724E0,-1.032364178E1,-1.860937834E0
5.018716042E0,-3.937687874E0,-1.039071465E1,-1.920824766E0
5.021247969E0,-4.052670479E0,-1.049372101E1,-1.939988613E0
5.023779948E0,-4.205981255E0,-1.051527977E1,-1.966338873E0
5.026311927E0,-4.328150749E0,-1.058953953E1,-2.035807610E0
5.028843906E0,-4.517394066E0,-1.062307549E1,-2.074135542E0
5.031375886E0,-4.649145126E0,-1.067098522E1,-2.083717346E0
5.033907813E0,-4.773709774E0,-1.074045467E1,-2.196304798E0
5.036439792E0,-4.867133617E0,-1.079794598E1,-2.294519424E0
5.038971771E0,-4.917438507E0,-1.080513287E1,-2.311287642E0
5.041503750E0,-4.917438507E0,-1.079794598E1,-2.431061745E0
5.044035729E0,-4.847969532E0,-1.092730141E1,-2.455016375E0
5.046569896E0,-4.950975418E0,-1.099437523E1,-2.488553286E0
5.049101823E0,-5.058772087E0,-1.103030777E1,-2.548440218E0
5.051633802E0,-5.176150322E0,-1.107342529E1,-2.613117933E0
5.054165781E0,-5.259992123E0,-1.113091755E1,-2.622699976E0
5.056697761E0,-5.322274685E0,-1.118122292E1,-2.629886389E0
5.059229740E0,-5.334251881E0,-1.123152733E1,-2.649050236E0
5.061761667E0,-5.449234962E0,-1.126985550E1,-2.711332798E0
5.064293646E0,-5.437257290E0,-1.126745987E1,-2.744869471E0
5.066825625E0,-5.422884464E0,-1.130578804E1,-2.708937168E0
5.069357604E0,-5.394138813E0,-1.128901863E1,-2.720914841E0
5.071889584E0,-5.300714970E0,-1.125069141E1,-2.646654844E0
5.074421563E0,-5.305505753E0,-1.116924572E1,-2.531671762E0
5.076952448E0,-5.197709560E0,-1.111415005E1,-2.457412004E0
5.079484427E0,-5.137822628E0,-1.105665779E1,-2.268169165E0
5.082016354E0,-5.125844955E0,-1.096562958E1,-2.145999670E0
5.084548334E0,-4.970139027E0,-1.098239803E1,-2.081321955E0
5.087080313E0,-4.955766201E0,-1.105186653E1,-2.052576065E0
5.089612292E0,-4.986907482E0,-1.115487289E1,-1.975920796E0
5.092144271E0,-4.979721069E0,-1.125069141E1,-1.887288094E0
5.094676198E0,-4.970139027E0,-1.147347069E1,-1.961547971E0
5.097208177E0,-5.042003632E0,-1.166750431E1,-2.076530933E0
5.099740156E0,-5.065958500E0,-1.188309765E1,-2.174745560E0
5.102272136E0,-5.180941105E0,-1.209150505E1,-2.313683271E0
5.104804115E0,-5.269574165E0,-1.225439644E1,-2.419084311E0
5.107335990E0,-5.360601902E0,-1.233344746E1,-2.531671762E0
5.109867969E0,-5.389348030E0,-1.238375282E1,-2.610722542E0
5.112399896E0,-5.564218044E0,-1.229511929E1,-2.656236649E0
5.114931875E0,-5.930726051E0,-1.224241924E1,-2.627490997E0
5.117463854E0,-6.244533539E0,-1.221846485E1,-2.649050236E0
5.119995834E0,-6.433776379E0,-1.211306381E1,-2.565208435E0
5.122527813E0,-6.611042023E0,-1.191184330E1,-2.428666115E0
5.125059740E0,-6.706861019E0,-1.176811504E1,-2.320869684E0
5.127591719E0,-6.745188236E0,-1.173218250E1,-2.208282232E0
5.130123698E0,-6.759561539E0,-1.171541500E1,-2.124440432E0
5.132655677E0,-6.781120777E0,-1.172260094E1,-2.035807610E0
