"Time (s)","Gyroscope x (rad/s)","Gyroscope y (rad/s)","Gyroscope z (rad/s)"
3.580010400E-2,-9.066258073E-1,9.115359783E-1,2.872250080E-1
4.080609400E-2,-8.949079514E-1,8.540117741E-1,2.456797361E-1
4.581203100E-2,-8.064910769E-1,7.240495682E-1,2.456797361E-1
5.081802100E-2,-6.786593795E-1,5.386937857E-1,2.414186895E-1
5.582401100E-2,-5.444362164E-1,3.789042234E-1,2.446144670E-1
6.082994800E-2,-4.112782478E-1,2.713126242E-1,2.531365752E-1
6.617885400E-2,-3.100782335E-1,2.297673523E-1,2.584629059E-1
7.118479200E-2,-2.642718852E-1,1.935483813E-1,2.627239525E-1
7.619078100E-2,-2.727939785E-1,1.338936239E-1,2.616586685E-1
8.119677100E-2,-3.324487209E-1,6.571677327E-2,2.499407679E-1
8.620276100E-2,-4.229961336E-1,1.777991466E-2,2.243744731E-1
9.120869800E-2,-5.284572244E-1,1.884517632E-2,1.870902479E-1
9.654645900E-2,-6.200699210E-1,7.636940479E-2,1.316965371E-1
1.015523960E-1,-6.925078630E-1,1.807652265E-1,4.860597849E-2
1.065583860E-1,-7.372489572E-1,3.203147650E-1,-5.685510859E-2
1.115643750E-1,-7.436404824E-1,4.928874671E-1,-1.836214662E-1
1.165703650E-1,-7.116826177E-1,6.739822030E-1,-3.178446591E-1
1.215763020E-1,-6.424404383E-1,8.316411972E-1,-4.499373436E-1
1.269318230E-1,-5.369793177E-1,9.445590973E-1,-5.649858117E-1
1.319377610E-1,-4.059519470E-1,9.924959540E-1,-6.512721777E-1
1.369437500E-1,-2.642718852E-1,9.541465044E-1,-6.896216273E-1
1.419497400E-1,-1.449623853E-1,7.954222560E-1,-6.842953563E-1
1.469557290E-1,-4.802341014E-2,5.450853109E-1,-6.544679403E-1
1.519616670E-1,2.015345544E-2,2.681168616E-1,-6.086615920E-1
1.573184380E-1,4.252399132E-2,-5.655883346E-3,-5.500721335E-1
1.623244270E-1,1.269660983E-2,-2.272306979E-1,-4.840257764E-1
1.673303650E-1,-6.400236487E-2,-3.763675988E-1,-4.030657709E-1
1.723363540E-1,-1.833118796E-1,-4.956770837E-1,-3.071920574E-1
1.773423440E-1,-3.462971747E-1,-6.171171665E-1,-1.953393519E-1
1.823482810E-1,-5.518930554E-1,-6.820982099E-1,-8.135616779E-2
1.877306770E-1,-7.787941694E-1,-6.757066250E-1,1.771333441E-2
1.927366150E-1,-1.017413259E0,-6.448140144E-1,9.654283524E-2
1.977426040E-1,-1.267750263E0,-6.235087514E-1,1.423491687E-1
2.027485940E-1,-1.513826013E0,-6.224434376E-1,1.540670842E-1
2.077545840E-1,-1.735400796E0,-6.245740056E-1,1.306312680E-1
2.127605730E-1,-1.919691443E0,-6.043339968E-1,8.162914217E-2
2.180738020E-1,-2.059241056E0,-5.574624538E-1,1.132175326E-2
2.230797400E-1,-2.165767193E0,-4.690454900E-1,-8.561722189E-2
2.280857290E-1,-2.252053499E0,-3.689107299E-1,-2.091877908E-1
2.330917190E-1,-2.313838959E0,-2.741023004E-1,-3.466067910E-1
2.380977090E-1,-2.370297909E0,-1.324222386E-1,-4.882868230E-1
2.431036460E-1,-2.420365095E0,-1.524325553E-2,-6.257058382E-1
2.484894270E-1,-2.446996689E0,7.210835069E-2,-7.514069080E-1
2.534953650E-1,-2.443800926E0,1.690473109E-1,-8.536722660E-1
2.585013540E-1,-2.413973570E0,2.649210393E-1,-9.250448346E-1
2.635073440E-1,-2.354318857E0,3.448158205E-1,-9.772427678E-1
2.685133340E-1,-2.260575771E0,4.289716482E-1,-1.008135438E0
2.735193230E-1,-2.126352549E0,5.386937857E-1,-1.002809167E0
2.788138020E-1,-1.952714562E0,6.931569576E-1,-9.570028186E-1
2.838197920E-1,-1.795055628E0,9.381675720E-1,-8.834995627E-1
2.888257810E-1,-1.632070303E0,1.185308814E0,-7.982785106E-1
2.938317190E-1,-1.404103994E0,1.500626802E0,-7.471458912E-1
2.988377090E-1,-1.153766990E0,1.973603725E0,-7.918869853E-1
3.038436980E-1,-9.694763422E-1,2.629805803E0,-1.006004930E0
3.092736980E-1,-9.300616384E-1,2.967494488E0,-1.259537578E0
3.142796880E-1,-9.833248258E-1,2.964298725E0,-1.461937785E0
3.192856250E-1,-1.037653327E0,2.916361809E0,-1.634510398E0
3.242916150E-1,-1.057893276E0,2.937667131E0,-1.801756740E0
3.292976040E-1,-1.056828022E0,3.010104895E0,-1.974329472E0
3.343035940E-1,-1.037653327E0,3.107043982E0,-2.144771338E0
3.396335420E-1,-9.769331813E-1,3.245528221E0,-2.281125069E0
3.446395310E-1,-8.427100182E-1,3.394665241E0,-2.350367308E0
3.496454690E-1,-6.605499387E-1,3.445797920E0,-2.348236799E0
3.546514590E-1,-4.911729991E-1,3.370163918E0,-2.287516832E0
3.596574480E-1,-3.441666365E-1,3.190134525E0,-2.180990458E0
3.646634380E-1,-2.525539696E-1,2.854576588E0,-2.043571472E0
3.700543230E-1,-2.397708446E-1,2.330466986E0,-1.886977792E0
3.750603130E-1,-2.727939785E-1,1.746702552E0,-1.736775637E0
3.800662500E-1,-3.281876743E-1,1.120327711E0,-1.587638736E0
3.850722400E-1,-3.921034932E-1,3.980789781E-1,-1.434240818E0
3.900782290E-1,-3.271224499E-1,-1.222186804E0,-1.335171342E0
3.950842190E-1,-1.673329324E-1,-3.068288565E0,-1.294691324E0
4.004380730E-1,-2.749245167E-1,-3.061897039E0,-1.268059731E0
4.054440630E-1,-5.028909445E-1,-2.444044113E0,-1.225449204E0
4.104500000E-1,-6.818552017E-1,-2.274667263E0,-1.177512288E0
4.154559900E-1,-7.798594832E-1,-2.224599838E0,-1.137032390E0
4.204619790E-1,-8.192741871E-1,-1.846431136E0,-1.094421744E0
4.254679690E-1,-7.947731614E-1,-1.418195248E0,-1.034766912E0
4.308193230E-1,-7.340531349E-1,-1.159336209E0,-9.665901661E-1
4.358253130E-1,-6.786593795E-1,-9.239130616E-1,-8.984132409E-1
4.408312500E-1,-6.051562428E-1,-6.224434376E-1,-8.185185790E-1
4.458372400E-1,-5.199351311E-1,-3.081907034E-1,-7.354279757E-1
4.508432290E-1,-4.315182567E-1,-3.122220747E-2,-6.587290168E-1
4.558492190E-1,-3.505582213E-1,1.903526038E-1,-5.767037272E-1
4.612025000E-1,-2.951645255E-1,4.172537327E-1,-4.563289583E-1
4.662084900E-1,-2.674676478E-1,7.048748732E-1,-2.986699343E-1
4.712144270E-1,-2.632066011E-1,1.012736082E0,-1.218361780E-1
4.762204170E-1,-2.727939785E-1,1.270529866E0,6.032387540E-2
4.812264060E-1,-2.909034789E-1,1.424993038E0,2.179828733E-1
4.862323960E-1,-3.132739961E-1,1.479321480E0,3.309007883E-1
4.915852610E-1,-3.548192680E-1,1.452689886E0,4.033387303E-1
4.965912500E-1,-4.229961336E-1,1.382382512E0,4.395576715E-1
5.015971880E-1,-5.188699365E-1,1.303552985E0,4.534060955E-1
5.066031770E-1,-6.413752437E-1,1.203418136E0,4.427534938E-1
5.116091670E-1,-8.032952547E-1,1.030845523E0,4.161219001E-1
5.166151560E-1,-9.630847573E-1,8.944917321E-1,3.703155518E-1
5.219697400E-1,-1.065350056E0,8.039443493E-1,2.978776395E-1
5.269757290E-1,-1.122874379E0,7.496159077E-1,2.083955109E-1
5.319816670E-1,-1.150571227E0,7.890306711E-1,1.039996818E-1
5.369876560E-1,-1.171876431E0,9.147318006E-1,-3.128878772E-2
5.419936460E-1,-1.184659600E0,1.093696117E0,-2.038614601E-1
5.469996360E-1,-1.191051245E0,1.301422477E0,-4.094573259E-1
5.523522400E-1,-1.171876431E0,1.548563600E0,-6.139879227E-1
5.573582290E-1,-1.114352226E0,1.858555317E0,-7.886911631E-1
5.623641670E-1,-9.982384443E-1,2.243115187E0,-9.420890808E-1
5.673701560E-1,-8.192741871E-1,2.658568144E0,-1.106139660E0
5.723761460E-1,-6.104825735E-1,3.066563845E0,-1.308539748E0
5.773821360E-1,-3.803856075E-1,3.480951309E0,-1.550354600E0
5.827315110E-1,-1.204613373E-1,3.925166368E0,-1.794299960E0
5.877375000E-1,1.426587552E-1,4.373642921E0,-2.019070387E0
5.927434380E-1,3.727557063E-1,4.797617435E0,-2.215079069E0
5.977494270E-1,5.570462346E-1,5.238636494E0,-2.381259918E0
6.027554170E-1,6.891389489E-1,5.704156399E0,-2.509091616E0
6.077614060E-1,7.583810687E-1,6.169676781E0,-2.618813753E0
6.131145310E-1,7.509242296E-1,6.622413635E0,-2.729601145E0
6.181205210E-1,6.806168556E-1,7.048519135E0,-2.861693621E0
6.231264590E-1,5.847431421E-1,7.462906837E0,-3.031070709E0
6.281324480E-1,5.123052001E-1,7.878359795E0,-3.257971764E0
6.331384380E-1,4.601072967E-1,8.177699089E0,-3.526418447E0
6.381444270E-1,4.579767585E-1,8.285290718E0,-3.806582689E0
6.435021880E-1,5.250883698E-1,8.293812752E0,-4.037744999E0
6.485081770E-1,6.422673464E-1,8.301269531E0,-4.169837475E0
6.535141150E-1,7.764905691E-1,8.326835632E0,-4.190077782E0
6.585201040E-1,9.607811570E-1,8.387556076E0,-4.148532391E0
6.635260940E-1,1.222835898E0,8.469580650E0,-4.111248016E0
6.685320840E-1,1.542414904E0,8.538823128E0,-4.099530220E0
6.738859380E-1,1.792751908E0,8.254398346E0,-4.134683609E0
6.788918750E-1,1.788490891E0,7.373424530E0,-4.284886360E0
6.838978650E-1,1.965324640E0,7.305247784E0,-4.382890224E0
6.889038540E-1,2.200747728E0,7.140131950E0,-4.534157753E0
6.939098440E-1,2.383973122E0,6.794986725E0,-4.749341011E0
6.989158340E-1,2.518196583E0,6.493516922E0,-4.921913624E0
7.042681770E-1,2.570394278E0,6.247441292E0,-5.033766270E0
7.092741670E-1,2.559741735E0,6.031192780E0,-5.098747253E0
7.142801040E-1,2.538436651E0,5.974733829E0,-5.150945663E0
7.192860940E-1,2.541632414E0,5.953428268E0,-5.191425323E0
7.242920840E-1,2.550154209E0,5.442101955E0,-5.172250748E0
7.292980730E-1,2.546958447E0,4.550476074E0,-5.082768440E0
7.346510940E-1,2.522457600E0,3.550193548E0,-4.935762405E0
7.396570840E-1,2.491564989E0,2.547780752E0,-4.731231689E0
7.446630210E-1,2.461737633E0,1.596500516E0,-4.461719990E0
7.496690110E-1,2.447888851E0,7.996833324E-1,-4.110182762E0
7.546750000E-1,2.429779530E0,1.008704677E-1,-3.687273026E0
7.596809900E-1,2.398886919E0,-6.991423965E-1,-3.220687628E0
7.650343750E-1,2.346688986E0,-1.482111096E0,-2.764754772E0
7.700403650E-1,2.283838511E0,-2.105290413E0,-2.394043207E0
7.750463020E-1,2.212465763E0,-2.568680048E0,-2.137314558E0
7.800522920E-1,2.110200405E0,-2.794515848E0,-1.957285285E0
7.850582810E-1,1.934431911E0,-2.528199911E0,-1.812409401E0
7.900642710E-1,1.622309685E0,-1.817669153E0,-1.734645128E0
7.954178650E-1,1.033218980E0,-4.956770837E-1,-1.510939837E0
8.004238020E-1,6.702504307E-2,1.754159570E0,-9.804385900E-1
8.054297920E-1,-9.620195031E-1,4.009322643E0,-5.149184465E-1
8.104357810E-1,-1.586264014E0,5.010670185E0,-3.231709898E-1
8.154417710E-1,-1.756706119E0,4.536627769E0,-3.338236511E-1
8.204477610E-1,-1.700247169E0,3.239136696E0,-3.423457444E-1
8.258017190E-1,-1.600112438E0,1.915014267E0,-2.720383704E-1
8.308077090E-1,-1.502108097E0,1.043628812E0,-2.113183141E-1
8.358136460E-1,-1.322078586E0,5.248453021E-1,-2.720383704E-1
8.408196360E-1,-9.779984355E-1,3.482412919E-2,-4.478068352E-1
8.458256250E-1,-5.497625470E-1,-3.710412681E-1,-7.173184752E-1
8.508316150E-1,-9.702554345E-2,-5.915508270E-1,-1.007070184E0
8.561852090E-1,3.621030450E-1,-6.416181922E-1,-1.239297628E0
8.611911980E-1,7.882084846E-1,-5.308308601E-1,-1.387369275E0
8.661971360E-1,1.132288456E0,-2.432096601E-1,-1.457676649E0
8.712031250E-1,1.399669528E0,9.447888285E-2,-1.438501835E0
8.762091150E-1,1.634027600E0,2.894221246E-1,-1.319192410E0
8.812151040E-1,1.794882298E0,3.362936974E-1,-1.119988203E0
8.865684380E-1,1.837492943E0,2.318978757E-1,-8.685859442E-1
8.915744270E-1,1.788490891E0,-1.239001304E-1,-5.543332100E-1
8.965803650E-1,1.667050838E0,-6.341614127E-1,-3.253014982E-1
9.015863540E-1,1.466781259E0,-1.082637191E0,-2.848215103E-1
9.065923440E-1,1.195139050E0,-1.339365721E0,-3.892173469E-1
9.115983340E-1,8.691684604E-1,-1.411803603E0,-5.617900491E-1
9.169388540E-1,5.091093779E-1,-1.373454213E0,-7.237100601E-1
9.219448440E-1,1.383976936E-1,-1.316995263E0,-8.014743328E-1
9.269507810E-1,-1.726592481E-1,-1.325517416E0,-7.588637471E-1
9.319567710E-1,-3.750592768E-1,-1.384106874E0,-6.747079492E-1
9.369627610E-1,-4.656066895E-1,-1.374519467E0,-5.873563290E-1
9.419687500E-1,-4.773245752E-1,-1.201946855E0,-4.904173613E-1
9.473344270E-1,-4.251266718E-1,-9.036730528E-1,-3.806952238E-1
9.523404170E-1,-3.111434579E-1,-5.766371489E-1,-2.699078023E-1
9.573463540E-1,-1.694634557E-1,-2.922117710E-1,-1.516635567E-1
9.623523440E-1,-3.630550951E-2,-6.744117290E-2,-3.981089219E-2
9.673583340E-1,6.595978141E-2,8.702204376E-2,2.943123318E-2
9.723642710E-1,1.298755854E-1,2.084620595E-1,2.410491370E-2
9.777078650E-1,1.458545476E-1,3.139231801E-1,-4.513721168E-2
9.827138540E-1,1.117661074E-1,4.236453176E-1,-1.633814573E-1
9.877197920E-1,3.080609068E-2,5.482810736E-1,-3.082572818E-1
9.927257810E-1,-7.145921886E-2,6.803737879E-1,-4.499373436E-1
9.977317710E-1,-1.577455699E-1,8.731864691E-1,-5.735079050E-1
1.002737709E0,-1.652023941E-1,1.128849864E0,-6.416848302E-1
1.008091615E0,-7.572026551E-2,1.431384563E0,-6.502069235E-1
1.013144219E0,8.406925201E-2,1.759485841E0,-6.235753298E-1
1.018196771E0,2.832735479E-1,2.067346811E0,-5.767037272E-1
1.023249375E0,4.824778438E-1,2.330466986E0,-5.255710483E-1
1.028301927E0,6.614421010E-1,2.540323734E0,-4.829605222E-1
1.033354531E0,7.871431708E-1,2.708635569E0,-4.584594667E-1
1.038503959E0,8.585158587E-1,2.844989300E0,-4.563289583E-1
1.043556563E0,8.681031466E-1,2.958972454E0,-4.840257764E-1
1.048609115E0,8.265579343E-1,2.932340860E0,-5.095921159E-1
1.053661719E0,7.455978990E-1,2.718222857E0,-5.330278873E-1
1.058714271E0,5.836778283E-1,2.476408005E0,-5.980089903E-1
1.063766875E0,3.759514987E-1,2.203700542E0,-6.800342798E-1
1.068889531E0,1.639640182E-1,1.917144775E0,-7.684511542E-1
1.073942136E0,-5.228446424E-2,1.673199415E0,-8.621943593E-1
1.078994688E0,-2.536192536E-1,1.459081531E0,-9.442195892E-1
1.084047292E0,-4.155393243E-1,1.232180357E0,-1.009200692E0
1.089099844E0,-5.465667248E-1,9.722560048E-1,-1.045419693E0
1.094152448E0,-6.456362605E-1,7.123317122E-1,-1.047550201E0
1.099246042E0,-7.116826177E-1,4.492116272E-1,-1.031571269E0
1.104298646E0,-7.628152370E-1,2.148536593E-1,-1.024114370E0
1.109351198E0,-7.905120850E-1,2.949781157E-2,-1.024114370E0
1.114403802E0,-7.947731614E-1,-1.121822372E-1,-1.015592337E0
1.119456354E0,-8.022299409E-1,-2.112517506E-1,-9.932217598E-1
1.124508959E0,-8.118173480E-1,-2.954075634E-1,-9.463501573E-1
1.129654011E0,-8.107520938E-1,-3.294959664E-1,-8.739122152E-1
1.134706615E0,-7.947731614E-1,-2.911464870E-1,-7.961480021E-1
1.139759167E0,-7.617499828E-1,-1.558580548E-1,-7.311669588E-1
1.144811771E0,-6.967688799E-1,2.523675747E-2,-6.949479580E-1
1.149864323E0,-5.945035815E-1,2.148536593E-1,-6.704468727E-1
1.154916927E0,-4.613456130E-1,4.225800335E-1,-6.683163643E-1
1.160019427E0,-3.292529583E-1,6.260454059E-1,-7.013395429E-1
1.165072031E0,-2.088782042E-1,8.188580871E-1,-7.482111454E-1
1.170124584E0,-9.915606678E-2,1.015931845E0,-8.046700954E-1
1.175177188E0,-1.180445123E-2,1.176786542E0,-8.547374606E-1
1.180229740E0,5.530714989E-2,1.246028781E0,-8.515416980E-1
1.185282344E0,5.211136118E-2,1.216201425E0,-8.408890367E-1
1.190417813E0,-3.524024785E-2,1.174656153E0,-8.558027148E-1
1.195470417E0,-1.460276544E-1,1.168264508E0,-8.589985371E-1
1.200522969E0,-2.504234612E-1,1.210875034E0,-8.536722660E-1
1.205575521E0,-3.271224499E-1,1.270529866E0,-8.494111896E-1
1.210628125E0,-3.707982302E-1,1.308879375E0,-8.419543505E-1
1.215680729E0,-3.707982302E-1,1.360011935E0,-8.344975114E-1
1.220806042E0,-3.473624289E-1,1.431384563E0,-8.302364349E-1
1.225858646E0,-2.930339873E-1,1.507018328E0,-8.313016891E-1
1.230911198E0,-2.205961049E-1,1.616740465E0,-8.589985371E-1
1.235963802E0,-1.353750229E-1,1.734984756E0,-9.005438089E-1
1.241016354E0,-3.737077489E-2,1.825532079E0,-9.697859287E-1
1.246068959E0,6.595978141E-2,1.845772147E0,-1.058202744E0
1.251184115E0,1.778124571E-1,1.775464654E0,-1.141293287E0
1.256236719E0,2.917956710E-1,1.675329924E0,-1.217992306E0
1.261289271E0,3.812777996E-1,1.657220602E0,-1.325583935E0
1.266341823E0,4.153662324E-1,1.755224705E0,-1.476851344E0
1.271394427E0,4.590420425E-1,1.689178467E0,-1.597226143E0
1.276447031E0,5.197620392E-1,1.362142563E0,-1.652619839E0
1.281567344E0,5.197620392E-1,9.253844023E-1,-1.753819942E0
1.286619948E0,4.302799404E-1,4.673210979E-1,-1.821996689E0
1.291672500E0,3.077746332E-1,9.554415196E-2,-1.804952502E0
1.296725104E0,2.204229832E-1,-1.707717478E-1,-1.760211468E0
1.301777656E0,1.810082346E-1,-3.380180895E-1,-1.706948280E0
1.306830261E0,1.692903340E-1,-4.317612946E-1,-1.570594549E0
1.311951146E0,1.692903340E-1,-4.754370749E-1,-1.344758630E0
1.317003750E0,1.724861264E-1,-4.839591980E-1,-1.156207085E0
1.322056302E0,1.703556031E-1,-4.860897362E-1,-1.066725016E0
1.327108906E0,1.671598107E-1,-4.828939140E-1,-1.019853354E0
1.332161459E0,1.714208573E-1,-4.679802656E-1,-9.101311564E-1
1.337214063E0,1.490503401E-1,-4.328265488E-1,-7.631248236E-1
1.342334375E0,1.096355841E-1,-3.870202005E-1,-6.075963974E-1
1.347386979E0,7.128609717E-2,-3.358875811E-1,-4.669815600E-1
1.352439531E0,4.039346427E-2,-2.911464870E-1,-3.721731305E-1
1.357492084E0,9.500817396E-3,-2.368180752E-1,-3.455415368E-1
1.362544688E0,-1.819603145E-2,-1.942075342E-1,-3.796299696E-1
1.367597292E0,-4.802341014E-2,-1.515969932E-1,-4.233057499E-1
1.372721615E0,-7.891605794E-2,-1.047253907E-1,-4.776342213E-1
1.377774219E0,-1.193960682E-1,-9.300749004E-2,-5.692468882E-1
1.382826771E0,-1.843771338E-1,-1.068559214E-1,-6.768385172E-1
1.387879323E0,-3.186003268E-1,-1.036601290E-1,-8.078659177E-1
1.392931927E0,-4.570845664E-1,-2.623843849E-1,-9.740470052E-1
1.397984531E0,-5.785246491E-1,-3.987380862E-1,-1.140228152E0
1.403105313E0,-7.234004736E-1,-3.944770396E-1,-1.275516629E0
1.408157865E0,-8.981036544E-1,-3.571928442E-1,-1.384173512E0
1.413210469E0,-1.045110106E0,-3.721065223E-1,-1.478981972E0
1.418263021E0,-1.182529092E0,-2.623843849E-1,-1.563137650E0
1.423315625E0,-1.317817569E0,-1.164432913E-1,-1.648358822E0
1.428368177E0,-1.408365011E0,-2.909168042E-2,-1.744232535E0
1.433488698E0,-1.464823961E0,5.825993046E-2,-1.849693656E0
1.438541302E0,-1.561762929E0,3.469463587E-1,-1.933849335E0
1.443593854E0,-1.691725016E0,5.408242345E-1,-2.031853437E0
1.448646459E0,-1.763097763E0,5.525421500E-1,-2.187381983E0
1.453699011E0,-1.808904052E0,7.208538055E-1,-2.327996731E0
1.458751563E0,-1.769489408E0,6.867653728E-1,-2.437718868E0
1.463872604E0,-1.645918846E0,7.506811619E-1,-2.477133751E0
1.468925209E0,-1.587329149E0,9.019485712E-1,-2.405761003E0
1.473977761E0,-1.493586063E0,6.920917034E-1,-2.264081001E0
1.479030313E0,-1.279468060E0,4.385590255E-1,-2.073398829E0
1.484082917E0,-1.006760597E0,4.268410802E-1,-1.891238928E0
1.489135469E0,-7.276615500E-1,4.034053087E-1,-1.744232535E0
1.494255938E0,-3.921034932E-1,2.968789637E-1,-1.496026158E0
1.499308542E0,-2.671813965E-2,2.979442179E-1,-1.403348088E0
1.504361094E0,3.120356798E-1,7.261801362E-1,-1.629184127E0
1.509413698E0,5.005872846E-1,1.304618239E0,-2.155424118E0
1.514466250E0,6.220273376E-1,1.530454159E0,-2.363150597E0
1.519518854E0,9.341495633E-1,1.192765594E0,-1.835845232E0
1.524638698E0,1.175964236E0,8.646643758E-1,-1.293626070E0
1.529691302E0,1.140810609E0,5.280411243E-1,-1.235036492E0
1.534743854E0,9.469327331E-1,2.417149581E-2,-1.309605002E0
1.539796459E0,6.742252707E-1,-5.223087072E-1,-1.336236596E0
1.544849011E0,3.557114899E-1,-9.366961718E-1,-1.338367105E0
1.549901615E0,5.637241155E-2,-1.181706786E0,-1.266994476E0
1.555021875E0,-1.683982015E-1,-1.316995263E0,-1.175381780E0
1.560074427E0,-3.058171570E-1,-1.338300467E0,-1.099748015E0
1.565127031E0,-3.825161159E-1,-1.216860533E0,-1.062463880E0
1.570179636E0,-4.016908705E-1,-9.718498588E-1,-9.601985216E-1
1.575232188E0,-3.814508617E-1,-7.279045582E-1,-7.918869853E-1
1.580284792E0,-3.729287386E-1,-5.585277081E-1,-6.693816781E-1
1.585403594E0,-3.846466541E-1,-4.509360492E-1,-6.289016008E-1
1.590456198E0,-3.782550693E-1,-3.721065223E-1,-6.342279911E-1
1.595508750E0,-3.217961192E-1,-2.570580542E-1,-6.597942710E-1
1.600561354E0,-2.056824267E-1,-1.047253907E-1,-6.981437206E-1
1.605613906E0,-6.187183410E-2,-1.843904518E-2,-7.290363908E-1
1.610666511E0,6.702504307E-2,1.777991466E-2,-7.482111454E-1
1.615788125E0,1.192229539E-1,1.093925685E-1,-6.789689660E-1
1.620840729E0,5.956820399E-2,1.264367849E-1,-6.587290168E-1
1.625893281E0,-1.073918771E-2,2.204096876E-2,-7.886911631E-1
1.630945834E0,-1.215265989E-1,2.204096876E-2,-8.824343085E-1
1.635998438E0,-1.865076721E-1,-4.400536790E-2,-9.761775732E-1
1.641051042E0,-2.237918824E-1,-2.187085897E-1,-1.086964965E0
1.646171719E0,-3.207308352E-1,-3.614538908E-1,-1.139162898E0
1.651224323E0,-4.592151046E-1,-5.041992068E-1,-1.166859746E0
1.656276875E0,-6.520277858E-1,-5.755718946E-1,-1.210535526E0
1.661329479E0,-8.981036544E-1,-6.458793283E-1,-1.268059731E0
1.666382031E0,-1.203834414E0,-8.855635524E-1,-1.233971357E0
1.671434636E0,-1.323143840E0,-1.160401464E0,-1.139162898E0
1.676492604E0,-1.246444941E0,-1.164662480E0,-9.910911918E-1
1.681545209E0,-1.202769160E0,-1.034700394E0,-9.218490720E-1
1.686597761E0,-1.219813347E0,-9.430878162E-1,-9.218490720E-1
1.691650365E0,-1.236857533E0,-8.834329844E-1,-9.080006480E-1
1.696702917E0,-1.309295535E0,-8.717151284E-1,-9.101311564E-1
1.701755521E0,-1.397712350E0,-8.184520006E-1,-8.291711211E-1
1.706937344E0,-1.457367182E0,-8.109951615E-1,-5.809648037E-1
1.711989948E0,-1.461628199E0,-9.175214767E-1,-3.348888755E-1
1.717042500E0,-1.461628199E0,-9.132604003E-1,-2.262319922E-1
1.722095104E0,-1.283729076E0,-6.842287779E-1,-1.378151178E-1
1.727147656E0,-1.078133225E0,-2.943422794E-1,5.995436572E-3
1.732200209E0,-9.534974098E-1,-1.611843705E-1,1.593933851E-1
1.737274948E0,-7.862510085E-1,-3.326917589E-1,3.372924030E-1
1.742327552E0,-6.317878366E-1,-4.626539350E-1,5.162566304E-1
1.747380104E0,-5.550888181E-1,-5.148518682E-1,6.270440817E-1
1.752432709E0,-5.273920298E-1,-5.382876992E-1,7.005472183E-1
1.757485261E0,-5.668067336E-1,-6.107255816E-1,7.080041170E-1
1.762537865E0,-6.871815324E-1,-8.834329844E-1,7.250483036E-1
1.767704636E0,-7.223352194E-1,-7.811677456E-1,9.402315021E-1
1.772757240E0,-6.893120408E-1,-3.561275601E-1,1.186307430E0
1.777809792E0,-6.626804471E-1,-1.803591102E-1,1.186307430E0
1.782862396E0,-6.445709467E-1,-8.235485852E-2,1.052084208E0
1.787914948E0,-5.881120563E-1,1.061967835E-1,8.155956864E-1
1.792967500E0,-4.464319646E-1,3.096621037E-1,4.779071808E-1
1.798087136E0,-2.056824267E-1,3.618600368E-1,1.231744215E-1
1.803139740E0,3.613240644E-2,3.096621037E-1,-1.431414485E-1
1.808192292E0,1.437240094E-1,3.384242356E-1,-2.720383704E-1
1.813244896E0,1.352019012E-1,2.787694633E-1,-3.146488965E-1
1.818297448E0,8.193872869E-2,1.328283697E-1,-2.954741418E-1
1.823350052E0,2.121871896E-2,2.843254991E-2,-2.230362147E-1
1.828470990E0,-5.441499129E-2,1.458412316E-2,-1.410109252E-1
1.833523594E0,-1.343097538E-1,6.465150416E-2,-7.496459037E-2
1.838576146E0,-2.003560960E-1,1.104578376E-1,-2.383194305E-2
1.843628750E0,-2.482929528E-1,1.381546855E-1,3.864909522E-3
1.848681302E0,-2.877076864E-1,1.807652265E-1,1.451754384E-2
1.853733906E0,-3.260571659E-1,2.361589223E-1,1.558280736E-2
1.858854427E0,-3.590803146E-1,2.670515776E-1,1.451754384E-2
1.863907031E0,-3.910382390E-1,2.734431624E-1,2.303965203E-2
1.868959584E0,-4.208655953E-1,2.702473700E-1,4.221439734E-2
1.874012188E0,-4.528235197E-1,2.563989460E-1,6.138913706E-2
1.879064740E0,-4.730635285E-1,2.095273435E-1,7.417230308E-2
1.884117344E0,-4.517582357E-1,4.228097573E-2,9.441231191E-2
1.889237969E0,-3.921034932E-1,-1.952728033E-1,1.508712769E-1
1.894290573E0,-3.452319205E-1,-2.442749143E-1,1.988081336E-1
1.899343125E0,-2.855771482E-1,-2.069906890E-1,1.828291863E-1
1.904395729E0,-2.035518885E-1,-1.388138235E-1,1.295660138E-1
1.909448281E0,-8.211185038E-2,-2.802641876E-2,7.310704142E-2
1.914500886E0,2.547977120E-2,7.423887402E-2,1.877859794E-2
1.919620729E0,6.809030473E-2,7.210835069E-2,2.799645998E-3
1.924673334E0,4.891556874E-2,8.169572800E-2,-3.591935150E-3
1.929725886E0,2.043973887E-3,1.296325624E-1,-1.317930594E-2
1.934778490E0,-2.032655850E-2,1.211104617E-1,-2.526671626E-3
1.939831042E0,-3.630550951E-2,7.530414313E-2,1.132175326E-2
1.944883646E0,-7.039394975E-2,3.375886753E-2,2.730070613E-2
1.950003490E0,-1.066129133E-1,-1.204746496E-2,4.860597849E-2
1.955056094E0,-1.353750229E-1,-6.104958430E-2,6.245440617E-2
1.960108646E0,-1.588108242E-1,-1.196390837E-1,7.630282640E-2
1.965161198E0,-2.078129500E-1,-2.219043821E-1,1.157175750E-1
1.970213802E0,-3.175350726E-1,-3.593233526E-1,1.934818327E-1
1.975266406E0,-4.677372277E-1,-5.116560459E-1,3.063997626E-1
1.980387031E0,-6.285920143E-1,-7.129908800E-1,4.512755871E-1
1.985439636E0,-7.830551863E-1,-9.526751637E-1,6.323703527E-1
1.990492188E0,-9.066258073E-1,-1.195555210E0,8.763157129E-1
1.995544792E0,-9.662805796E-1,-1.360671043E0,1.146892667E0
2.000597344E0,-9.343226552E-1,-1.381976366E0,1.283246398E0
2.005649948E0,-8.682763577E-1,-1.337235212E0,1.192698956E0
2.010774323E0,-8.427100182E-1,-1.255210042E0,1.054214716E0
2.015836042E0,-8.704068065E-1,-1.265862584E0,9.519494176E-1
2.020897761E0,-9.183437228E-1,-1.413934231E0,8.582062125E-1
2.025959531E0,-9.481710792E-1,-1.544961572E0,7.942904234E-1
2.031021302E0,-9.268658161E-1,-1.515134215E0,7.197219729E-1
2.036083021E0,-8.544278741E-1,-1.277580500E0,5.482145548E-1
2.041157813E0,-7.319225669E-1,-9.324351549E-1,3.170523643E-1
2.046219531E0,-5.763941407E-1,-5.947465897E-1,1.114565283E-1
2.051281250E0,-4.315182567E-1,-3.263002038E-1,-3.235404938E-2
2.056343021E0,-2.940992415E-1,-1.462706774E-1,-1.420761794E-1
2.061404740E0,-1.513539851E-1,-1.950431056E-2,-2.187751681E-1
2.066466511E0,-1.606550440E-2,5.825993046E-2,-2.517983317E-1
2.071538959E0,-8.608660661E-3,1.541336328E-1,-1.942740977E-1
2.076600677E0,-2.866424024E-1,6.004790068E-1,-2.304930538E-1
2.081662448E0,-7.873163223E-1,1.573064685E0,-4.584594667E-1
2.086724167E0,-6.733331084E-1,1.434580445E0,-3.924131095E-1
2.091785886E0,-2.568150461E-1,7.112664580E-1,-1.388803869E-1
2.096847656E0,1.362671703E-1,2.542684376E-1,-1.069224924E-1
2.101924323E0,4.132357240E-1,3.373589814E-1,-2.187751681E-1
2.106986042E0,4.473241568E-1,7.133969665E-1,-1.537940800E-1
2.112047761E0,3.322756886E-1,1.239637136E0,-4.726773873E-2
2.117109531E0,1.170924231E-1,1.892643809E0,-1.637509838E-2
2.122171250E0,1.352019012E-1,2.093978405E0,7.417230308E-2
2.127233021E0,1.682250798E-1,2.201570034E0,1.647197157E-1
2.132305729E0,1.373324394E-1,2.304900646E0,2.350271046E-1
2.137367448E0,2.566419542E-1,1.923536301E0,3.095955253E-1
2.142429219E0,3.152314723E-1,1.335510969E0,3.649892211E-1
2.147490938E0,2.917956710E-1,8.678601980E-1,3.500755429E-1
2.152552656E0,3.642335832E-1,6.100663543E-1,3.117260337E-1
2.157614427E0,4.867388904E-1,4.566684961E-1,2.435492128E-1
2.162691563E0,5.123052001E-1,4.129926860E-1,1.093259975E-1
2.167753281E0,4.856736362E-1,4.066011012E-1,-5.472458154E-2
2.172815000E0,4.505199194E-1,3.245758116E-1,-1.974698752E-1
2.177876771E0,4.185620248E-1,1.743736416E-1,-3.327583671E-1
2.182938490E0,3.823430836E-1,1.072620451E-1,-4.659163058E-1
2.188000261E0,4.036483467E-1,1.381546855E-1,-6.427500844E-1
2.193074323E0,4.217578173E-1,1.157841608E-1,-7.982785106E-1
2.198136094E0,4.803473055E-1,8.169572800E-2,-8.451501131E-1
2.203197813E0,5.687641501E-1,5.612940714E-2,-8.962827921E-1
2.208259531E0,5.900694132E-1,1.456115246E-1,-1.074181795E0
2.213321250E0,6.976610422E-1,2.468115836E-1,-1.222253442E0
2.218383021E0,7.360105515E-1,4.587990046E-1,-1.272320747E0
2.223457604E0,7.200315595E-1,5.599989891E-1,-1.261668086E0
2.228519323E0,8.127095103E-1,4.332326949E-1,-1.235036492E0
2.233581042E0,6.848778725E-1,1.583946794E-1,-1.097617507E0
2.238642813E0,5.517199636E-1,-9.833380580E-2,-1.035832286E0
2.243704531E0,4.675641358E-1,-1.292264462E-1,-1.097617507E0
2.248766302E0,3.280146420E-1,-3.228746727E-2,-1.082703829E0
2.253836198E0,1.437240094E-1,1.061967835E-1,-9.580680728E-1
2.258897969E0,1.021787375E-1,2.457462996E-1,-8.483458757E-1
2.263959636E0,1.479850709E-1,3.405547440E-1,-8.227795959E-1
2.269021406E0,1.895303428E-1,4.449505806E-1,-7.993438244E-1
2.274083125E0,1.895303428E-1,5.205842853E-1,-7.428848147E-1
2.279144896E0,1.660945565E-1,5.919569135E-1,-6.661858559E-1
2.284224740E0,1.170924231E-1,6.345674992E-1,-5.926826596E-1
2.289286459E0,1.032439992E-1,6.441547871E-1,-5.159837008E-1
2.294348177E0,1.842040271E-1,6.335022449E-1,-5.191795230E-1
2.299409948E0,2.172272056E-1,6.324369311E-1,-4.659163058E-1
2.304471667E0,1.458545476E-1,6.100663543E-1,-2.826909721E-1
2.309533438E0,5.104609579E-2,5.216494799E-1,-1.431414485E-1
2.314603021E0,-1.286971476E-2,4.321674109E-1,-6.005089730E-2
2.319664740E0,-4.482761770E-2,3.650558293E-1,3.049649857E-2
2.324726459E0,-5.121920258E-2,3.512074053E-1,9.547757357E-2
2.329788229E0,-4.163182899E-2,3.575989604E-1,1.519365460E-1
2.334849948E0,-3.310972080E-2,3.490768671E-1,1.998734027E-1
2.339911719E0,-1.606550440E-2,3.320326507E-1,2.360923588E-1
2.344990729E0,9.500817396E-3,3.203147650E-1,2.648544610E-1
2.350052448E0,4.039346427E-2,3.149884343E-1,2.840292156E-1
2.355114167E0,7.235135883E-2,3.075315952E-1,2.914860547E-1
2.360175938E0,1.011134759E-1,2.968789637E-1,2.914860547E-1
2.365237656E0,1.256145239E-1,2.723779082E-1,2.840292156E-1
2.370299427E0,1.447892785E-1,2.265715450E-1,2.648544610E-1
2.375373750E0,1.479850709E-1,1.882220656E-1,2.297007740E-1
2.380435469E0,1.096355841E-1,1.818304956E-1,1.679154932E-1
2.385497188E0,-6.826342642E-2,2.563989460E-1,-8.918252774E-3
2.390558959E0,-1.502887160E-1,2.947484553E-1,-1.111835465E-1
2.395620677E0,-1.002213284E-1,1.988746971E-1,-9.307406843E-2
2.400682448E0,-4.482761770E-2,3.482412919E-2,-9.520459920E-2
2.405736198E0,2.043973887E-3,-1.047253907E-1,-9.307406843E-2
2.410797917E0,-8.608660661E-3,-5.146221071E-2,-7.283405960E-2
2.415859636E0,-5.228446424E-2,5.399887636E-2,-5.152879283E-2
2.420921406E0,-7.572026551E-2,9.767467529E-2,-2.063615061E-2
2.425983125E0,-7.039394975E-2,1.019357294E-1,-1.461408101E-3
2.431044896E0,-5.228446424E-2,8.915256709E-2,9.191226214E-3
2.436116927E0,-3.204445913E-2,8.595678210E-2,1.451754384E-2
2.441178646E0,-1.180445123E-2,9.447888285E-2,1.664807089E-2
2.446240365E0,8.435555734E-3,1.019357294E-1,1.558280736E-2
2.451302136E0,3.187135234E-2,1.104578376E-1,1.238701679E-2
2.456363854E0,5.211136118E-2,1.125883609E-1,1.238701679E-2
2.461425625E0,6.382925063E-2,1.115230992E-1,1.132175326E-2
2.466523802E0,8.087346703E-2,1.115230992E-1,8.125962690E-3
2.471585521E0,9.472189844E-2,1.093925685E-1,9.191226214E-3
2.476647240E0,1.043092683E-1,1.072620451E-1,7.060699631E-3
2.481709011E0,1.128313690E-1,1.083273068E-1,4.930173047E-3
2.486770729E0,1.170924231E-1,1.040662527E-1,1.734382473E-3
2.491832500E0,1.224187464E-1,9.554415196E-2,-2.526671626E-3
2.496871302E0,1.213534772E-1,8.702204376E-2,-3.591935150E-3
2.501933073E0,1.170924231E-1,7.956518978E-2,-7.852989249E-3
2.506994792E0,1.117661074E-1,7.423887402E-2,-1.211404428E-2
2.512056563E0,1.043092683E-1,6.678203493E-2,-1.530983485E-2
2.517118281E0,9.898294508E-2,6.358624250E-2,-1.957088895E-2
2.522180000E0,8.726505190E-2,6.678203493E-2,-2.170141600E-2
2.527288698E0,7.661241293E-2,6.997781992E-2,-2.702773362E-2
2.532350469E0,6.809030473E-2,7.317361236E-2,-2.702773362E-2
2.537412188E0,5.743768066E-2,7.423887402E-2,-2.915825881E-2
2.542473906E0,4.571978003E-2,7.423887402E-2,-3.022352420E-2
2.547535677E0,3.826293349E-2,6.997781992E-2,-3.128878772E-2
2.552597396E0,2.974082530E-2,6.358624250E-2,-3.022352420E-2
2.557672552E0,2.334924601E-2,5.293361470E-2,-3.128878772E-2
2.562734271E0,1.908819191E-2,3.908518702E-2,-3.022352420E-2
2.567796042E0,1.908819191E-2,2.736728452E-2,-2.915825881E-2
2.572857761E0,1.163134631E-2,1.032306906E-2,-2.702773362E-2
2.577919531E0,1.056608278E-2,-4.590619821E-3,-2.489720657E-2
2.582981250E0,8.435555734E-3,-2.056957223E-2,-2.383194305E-2
2.588056927E0,3.109237878E-3,-3.122220747E-2,-2.276667953E-2
2.593118646E0,3.109237878E-3,-3.867905214E-2,-1.957088895E-2
2.598180365E0,4.174501169E-3,-4.720115662E-2,-1.744036190E-2
2.603242136E0,9.787108283E-4,-4.720115662E-2,-1.637509838E-2
2.608303854E0,9.787108283E-4,-4.507062957E-2,-1.317930594E-2
2.613365625E0,2.043973887E-3,-4.187484086E-2,-1.104878075E-2
2.618440417E0,5.239764694E-3,-4.080957547E-2,-9.983517230E-3
2.623502136E0,8.435555734E-3,-4.080957547E-2,-9.983517230E-3
2.628563906E0,1.056608278E-2,-3.974431381E-2,-7.852989249E-3
2.633625625E0,1.482713688E-2,-3.761378676E-2,-1.104878075E-2
2.638687344E0,1.802292839E-2,-3.867905214E-2,-1.104878075E-2
2.643749115E0,1.908819191E-2,-3.867905214E-2,-1.104878075E-2
2.648823125E0,2.228398249E-2,-4.080957547E-2,-1.424457133E-2
2.653884844E0,2.441450767E-2,-4.400536790E-2,-1.424457133E-2
2.658946563E0,2.334924601E-2,-4.400536790E-2,-1.530983485E-2
2.664008334E0,2.547977120E-2,-4.400536790E-2,-1.744036190E-2
2.669070052E0,2.974082530E-2,-4.400536790E-2,-2.063615061E-2
2.674131771E0,3.293661773E-2,-4.400536790E-2,-2.170141600E-2
2.679206615E0,3.506714478E-2,-3.867905214E-2,-2.063615061E-2
2.684268334E0,3.719767183E-2,-3.867905214E-2,-2.383194305E-2
2.689330052E0,3.613240644E-2,-3.548325971E-2,-2.596247010E-2
2.694391823E0,3.719767183E-2,-2.909168042E-2,-2.596247010E-2
2.699453542E0,3.719767183E-2,-2.696115337E-2,-2.702773362E-2
2.704515313E0,3.400187939E-2,-2.270009927E-2,-2.596247010E-2
2.709589896E0,3.400187939E-2,-1.843904518E-2,-2.702773362E-2
2.714651615E0,3.187135234E-2,-1.843904518E-2,-2.596247010E-2
2.719713334E0,2.867556363E-2,-1.524325553E-2,-2.702773362E-2
2.724775104E0,2.547977120E-2,-1.630851813E-2,-2.489720657E-2
2.729836823E0,2.121871896E-2,-1.737378165E-2,-2.170141600E-2
2.734898594E0,1.802292839E-2,-1.737378165E-2,-2.489720657E-2
2.739973125E0,1.802292839E-2,-1.737378165E-2,-2.170141600E-2
2.745034844E0,1.482713688E-2,-1.524325553E-2,-2.063615061E-2
2.750096563E0,1.482713688E-2,-1.311272848E-2,-2.063615061E-2
2.755158334E0,1.163134631E-2,-1.098220143E-2,-1.850562543E-2
2.760220052E0,8.435555734E-3,-8.851674385E-3,-1.744036190E-2
2.765281823E0,4.174501169E-3,-5.655883346E-3,-1.744036190E-2
2.770356146E0,5.239764694E-3,-2.460093470E-3,-1.530983485E-2
2.775417865E0,7.370292209E-3,-1.394829364E-3,-1.211404428E-2
2.780479584E0,4.174501169E-3,-1.394829364E-3,-1.104878075E-2
2.785541354E0,2.043973887E-3,-2.460093470E-3,-6.787725724E-3
2.790603073E0,-8.655275451E-5,-1.394829364E-3,-3.591935150E-3
2.795664844E0,3.109237878E-3,-2.460093470E-3,-2.526671626E-3
2.800740156E0,5.239764694E-3,-4.590619821E-3,-1.461408101E-3
2.805801875E0,3.109237878E-3,-5.655883346E-3,1.734382473E-3
2.810863594E0,9.787108283E-4,-3.525356529E-3,4.930173047E-3
2.815925365E0,3.109237878E-3,-4.590619821E-3,3.864909522E-3
2.820987084E0,9.787108283E-4,-6.721146870E-3,3.864909522E-3
2.826048854E0,2.043973887E-3,-6.721146870E-3,4.930173047E-3
2.831119531E0,9.787108283E-4,-6.721146870E-3,5.995436572E-3
2.836181250E0,9.787108283E-4,-1.204746496E-2,5.995436572E-3
2.841243021E0,4.174501169E-3,-1.417799201E-2,4.930173047E-3
2.846304740E0,6.305028219E-3,-1.737378165E-2,1.734382473E-3
2.851366511E0,3.109237878E-3,-2.056957223E-2,2.799645998E-3
2.856428229E0,7.370292209E-3,-2.376536466E-2,3.864909522E-3
2.861506719E0,4.174501169E-3,-2.696115337E-2,-3.961445764E-4
2.866568438E0,2.043973887E-3,-3.228746727E-2,-2.526671626E-3
2.871630156E0,2.043973887E-3,-3.441799805E-2,-3.591935150E-3
2.876691927E0,-4.347607028E-3,-3.867905214E-2,-6.787725724E-3
2.881753646E0,-8.608660661E-3,-4.294010624E-2,-8.918252774E-3
2.886815417E0,-1.286971476E-2,-4.187484086E-2,-9.983517230E-3
2.891890261E0,-1.393497828E-2,-4.294010624E-2,-1.104878075E-2
2.896951979E0,-1.713076793E-2,-4.507062957E-2,-1.317930594E-2
2.902013750E0,-1.819603145E-2,-4.400536790E-2,-1.530983485E-2
2.907075469E0,-1.819603145E-2,-3.867905214E-2,-1.424457133E-2
2.912137240E0,-1.926129498E-2,-3.654852509E-2,-1.530983485E-2
2.917198959E0,-1.713076793E-2,-3.335273266E-2,-1.530983485E-2
2.922272188E0,-1.713076793E-2,-3.015694581E-2,-1.530983485E-2
2.927333906E0,-1.500024181E-2,-2.589589171E-2,-1.424457133E-2
2.932395625E0,-1.180445123E-2,-2.163483761E-2,-1.424457133E-2
2.937457396E0,-9.673924185E-3,-2.056957223E-2,-1.424457133E-2
2.942519115E0,-7.543397602E-3,-1.737378165E-2,-1.424457133E-2
2.947580886E0,-3.282343270E-3,-2.056957223E-2,-1.424457133E-2
2.952655261E0,-1.151816221E-3,-2.056957223E-2,-1.317930594E-2
2.957716979E0,2.043973887E-3,-2.376536466E-2,-1.317930594E-2
2.962778750E0,5.239764694E-3,-3.015694581E-2,-1.637509838E-2
2.967840469E0,5.239764694E-3,-3.548325971E-2,-1.850562543E-2
2.972902188E0,9.500817396E-3,-4.187484086E-2,-1.957088895E-2
2.977963959E0,1.376187336E-2,-4.720115662E-2,-1.957088895E-2
2.983039531E0,1.376187336E-2,-5.039694905E-2,-2.063615061E-2
2.988101250E0,1.695766300E-2,-5.039694905E-2,-1.957088895E-2
2.993162969E0,1.908819191E-2,-5.465799943E-2,-1.850562543E-2
2.998224740E0,2.121871896E-2,-5.678853020E-2,-1.850562543E-2
3.003286459E0,2.228398249E-2,-5.359273776E-2,-1.530983485E-2
3.008348229E0,2.334924601E-2,-5.359273776E-2,-1.850562543E-2
3.013423021E0,2.547977120E-2,-5.146221071E-2,-1.744036190E-2
3.018486459E0,2.441450767E-2,-4.613589495E-2,-1.530983485E-2
3.023549896E0,2.334924601E-2,-3.867905214E-2,-1.850562543E-2
3.028613386E0,1.695766300E-2,-3.228746727E-2,-2.063615061E-2
3.033676823E0,1.589240134E-2,-2.696115337E-2,-1.744036190E-2
3.038740313E0,1.802292839E-2,-2.589589171E-2,-1.637509838E-2
3.043806511E0,2.015345544E-2,-2.483062632E-2,-1.744036190E-2
3.048869948E0,1.695766300E-2,-2.270009927E-2,-1.744036190E-2
3.053933386E0,1.802292839E-2,-2.270009927E-2,-1.850562543E-2
3.058996875E0,2.334924601E-2,-2.163483761E-2,-1.957088895E-2
3.064060313E0,2.654503658E-2,-2.056957223E-2,-1.850562543E-2
3.069123802E0,2.867556363E-2,-1.630851813E-2,-1.957088895E-2
3.074189011E0,3.187135234E-2,-1.098220143E-2,-1.850562543E-2
3.079252500E0,3.293661773E-2,-7.786410395E-3,-1.744036190E-2
3.084315938E0,2.974082530E-2,-1.394829364E-3,-1.744036190E-2
3.089379375E0,2.974082530E-2,4.996750969E-3,-1.744036190E-2
3.094442813E0,3.080609068E-2,9.257805534E-3,-1.850562543E-2
3.099506302E0,2.761030197E-2,1.032306906E-2,-1.744036190E-2
3.104536459E0,2.867556363E-2,1.458412316E-2,-1.637509838E-2
3.109599948E0,2.654503658E-2,1.671464927E-2,-1.424457133E-2
3.114663386E0,2.654503658E-2,1.777991466E-2,-1.317930594E-2
3.119726823E0,2.441450767E-2,1.777991466E-2,-1.424457133E-2
3.124790261E0,2.761030197E-2,1.564938761E-2,-1.317930594E-2
3.129853750E0,2.441450767E-2,1.351885963E-2,-1.104878075E-2
3.134918906E0,2.441450767E-2,1.458412316E-2,-1.104878075E-2
3.139982344E0,2.654503658E-2,1.458412316E-2,-8.918252774E-3
3.145045834E0,2.761030197E-2,1.458412316E-2,-8.918252774E-3
3.150109271E0,2.761030197E-2,1.564938761E-2,-8.918252774E-3
3.155172709E0,3.080609068E-2,1.671464927E-2,-9.983517230E-3
3.160236198E0,3.293661773E-2,1.777991466E-2,-7.852989249E-3
3.165340104E0,3.293661773E-2,2.523675747E-2,-4.657198675E-3
3.170403594E0,3.187135234E-2,2.843254991E-2,-4.657198675E-3
3.175467031E0,3.400187939E-2,3.056307696E-2,-7.852989249E-3
3.180530469E0,3.400187939E-2,3.908518702E-2,-5.722461734E-3
3.185593906E0,3.080609068E-2,4.334624112E-2,-3.591935150E-3
3.190657396E0,2.867556363E-2,4.228097573E-2,-3.961445764E-4
3.195708854E0,2.654503658E-2,4.015045241E-2,-1.461408101E-3
3.200772344E0,2.547977120E-2,3.908518702E-2,1.734382473E-3
3.205835781E0,2.228398249E-2,4.015045241E-2,3.864909522E-3
3.210899271E0,2.121871896E-2,3.588939831E-2,1.734382473E-3
3.215962709E0,2.121871896E-2,3.162834048E-2,-1.461408101E-3
3.221026146E0,1.908819191E-2,2.736728452E-2,-3.961445764E-4
3.226106198E0,1.802292839E-2,2.204096876E-2,6.691189483E-4
3.231169688E0,1.802292839E-2,2.097570337E-2,-3.961445764E-4
3.236233125E0,1.589240134E-2,1.564938761E-2,-1.461408101E-3
3.241296563E0,1.376187336E-2,1.351885963E-2,-3.591935150E-3
3.246360000E0,9.500817396E-3,1.351885963E-2,-1.461408101E-3
3.251423490E0,9.500817396E-3,1.351885963E-2,-2.526671626E-3
3.256463281E0,1.163134631E-2,1.138833258E-2,-5.722461734E-3
3.261526771E0,1.269660983E-2,1.245359425E-2,-6.787725724E-3
3.266590209E0,9.500817396E-3,1.245359425E-2,-5.722461734E-3
3.271653646E0,1.163134631E-2,1.138833258E-2,-4.657198675E-3
3.276717084E0,1.376187336E-2,1.351885963E-2,-6.787725724E-3
3.281780573E0,1.589240134E-2,1.458412316E-2,-4.657198675E-3
3.286872448E0,2.121871896E-2,1.564938761E-2,-5.722461734E-3
3.291935938E0,2.441450767E-2,1.671464927E-2,-8.918252774E-3
3.296999323E0,2.547977120E-2,1.991043799E-2,-7.852989249E-3
3.302062813E0,2.654503658E-2,1.884517632E-2,-9.983517230E-3
3.307126250E0,3.293661773E-2,1.991043799E-2,-7.852989249E-3
3.312189740E0,3.293661773E-2,2.204096876E-2,-7.852989249E-3
3.317251250E0,3.187135234E-2,1.991043799E-2,-6.787725724E-3
3.322314740E0,3.400187939E-2,1.991043799E-2,-6.787725724E-3
3.327378177E0,3.400187939E-2,1.884517632E-2,-7.852989249E-3
3.332441615E0,3.719767183E-2,1.777991466E-2,-7.852989249E-3
3.337505052E0,3.826293349E-2,1.671464927E-2,-8.918252774E-3
3.342568542E0,3.826293349E-2,1.671464927E-2,-8.918252774E-3
3.347636042E0,3.932819515E-2,1.564938761E-2,-9.983517230E-3
3.352699531E0,3.932819515E-2,1.458412316E-2,-1.104878075E-2
3.357762969E0,3.932819515E-2,1.671464927E-2,-1.424457133E-2
3.362826406E0,3.932819515E-2,1.991043799E-2,-1.850562543E-2
3.367889844E0,3.719767183E-2,2.097570337E-2,-1.744036190E-2
3.372953334E0,3.613240644E-2,2.097570337E-2,-2.170141600E-2
3.378019896E0,3.932819515E-2,2.523675747E-2,-2.596247010E-2
3.383083386E0,3.826293349E-2,2.523675747E-2,-2.809299529E-2
3.388146823E0,3.719767183E-2,2.630202286E-2,-2.915825881E-2
3.393210261E0,3.826293349E-2,2.630202286E-2,-3.128878772E-2
3.398273698E0,4.039346427E-2,2.630202286E-2,-2.809299529E-2
3.403337136E0,4.145872593E-2,2.523675747E-2,-2.702773362E-2
3.408405729E0,4.358925298E-2,2.097570337E-2,-2.383194305E-2
3.413469219E0,4.465451837E-2,1.884517632E-2,-2.489720657E-2
3.418532656E0,4.678504169E-2,1.777991466E-2,-2.383194305E-2
3.423596094E0,4.465451837E-2,1.351885963E-2,-2.276667953E-2
3.428659531E0,4.465451837E-2,1.351885963E-2,-2.489720657E-2
3.433723021E0,4.252399132E-2,1.138833258E-2,-2.276667953E-2
3.438776979E0,4.358925298E-2,9.257805534E-3,-1.957088895E-2
3.443840469E0,4.039346427E-2,1.245359425E-2,-1.744036190E-2
3.448903906E0,3.932819515E-2,1.351885963E-2,-1.850562543E-2
3.453967344E0,3.613240644E-2,1.138833258E-2,-1.744036190E-2
3.459030781E0,3.400187939E-2,1.351885963E-2,-1.424457133E-2
3.464094271E0,3.080609068E-2,1.671464927E-2,-1.317930594E-2
3.469159479E0,2.974082530E-2,1.564938761E-2,-1.637509838E-2
3.474222969E0,2.654503658E-2,1.458412316E-2,-1.637509838E-2
3.479286406E0,2.441450767E-2,1.458412316E-2,-1.637509838E-2
3.484349844E0,2.334924601E-2,1.351885963E-2,-1.744036190E-2
3.489413281E0,2.121871896E-2,1.351885963E-2,-1.957088895E-2
3.494476771E0,2.015345544E-2,1.351885963E-2,-2.276667953E-2
3.499555469E0,1.056608278E-2,1.351885963E-2,-2.489720657E-2
3.504618959E0,7.370292209E-3,1.032306906E-2,-2.702773362E-2
3.509682396E0,7.370292209E-3,9.257805534E-3,-3.128878772E-2
3.514745834E0,9.787108283E-4,6.062015425E-3,-3.448457643E-2
3.519809271E0,-1.151816221E-3,2.866224619E-3,-3.448457643E-2
3.524872761E0,-2.217079746E-3,-1.394829364E-3,-3.661510348E-2
3.529938698E0,-3.282343270E-3,-5.655883346E-3,-3.981089219E-2
3.535002188E0,-1.151816221E-3,-6.721146870E-3,-3.981089219E-2
3.540065625E0,-1.151816221E-3,-9.916937910E-3,-4.087615758E-2
3.545129063E0,9.787108283E-4,-9.916937910E-3,-4.300668091E-2
3.550192500E0,4.174501169E-3,-6.721146870E-3,-4.407195002E-2
3.555255990E0,4.174501169E-3,-6.721146870E-3,-4.407195002E-2
3.560319636E0,6.305028219E-3,-6.721146870E-3,-4.726773873E-2
3.565383125E0,1.056608278E-2,-3.525356529E-3,-4.833300412E-2
3.570446563E0,1.376187336E-2,-3.295658971E-4,-5.259405449E-2
3.575510000E0,1.269660983E-2,7.356976275E-4,-5.365931988E-2
3.580573438E0,1.376187336E-2,4.996750969E-3,-5.578984693E-2
3.585636927E0,1.482713688E-2,7.127278950E-3,-5.898563564E-2
3.590700834E0,1.482713688E-2,7.127278950E-3,-6.324668974E-2
3.595764323E0,1.376187336E-2,7.127278950E-3,-6.644248217E-2
3.600827761E0,1.695766300E-2,6.062015425E-3,-6.857300550E-2
3.605891198E0,1.695766300E-2,2.866224619E-3,-6.963827461E-2
3.610954636E0,1.802292839E-2,-3.295658971E-4,-7.070353627E-2
3.616018125E0,2.015345544E-2,-2.460093470E-3,-6.963827461E-2
3.621085625E0,2.015345544E-2,-5.655883346E-3,-7.070353627E-2
3.626149115E0,2.015345544E-2,-1.098220143E-2,-7.070353627E-2
3.631212552E0,2.121871896E-2,-1.417799201E-2,-6.750774384E-2
3.636275990E0,2.121871896E-2,-1.843904518E-2,-6.644248217E-2
3.641339427E0,2.015345544E-2,-1.843904518E-2,-6.537722051E-2
3.646402917E0,2.547977120E-2,-1.630851813E-2,-6.537722051E-2
3.651471563E0,2.441450767E-2,-1.204746496E-2,-6.644248217E-2
3.656535000E0,2.867556363E-2,-8.851674385E-3,-6.537722051E-2
3.661598438E0,3.187135234E-2,-1.394829364E-3,-6.857300550E-2
3.666661927E0,3.187135234E-2,6.062015425E-3,-7.070353627E-2
3.671725365E0,3.400187939E-2,1.138833258E-2,-7.389932871E-2
3.676788802E0,3.719767183E-2,1.777991466E-2,-7.496459037E-2
3.681854323E0,4.465451837E-2,2.523675747E-2,-7.709511369E-2
3.686917761E0,4.891556874E-2,2.949781157E-2,-7.816037536E-2
3.691981198E0,5.104609579E-2,3.375886753E-2,-8.242142946E-2
3.697044636E0,5.317662284E-2,3.908518702E-2,-8.348669857E-2
3.702108125E0,5.743768066E-2,4.228097573E-2,-8.561722189E-2
3.707171563E0,5.850294232E-2,4.334624112E-2,-8.561722189E-2
3.712237761E0,6.063347310E-2,4.547676817E-2,-8.561722189E-2
3.717301250E0,6.063347310E-2,4.441150278E-2,-8.668248355E-2
3.722364688E0,6.063347310E-2,4.334624112E-2,-8.774774522E-2
3.727428125E0,6.169873103E-2,4.015045241E-2,-8.987828344E-2
3.732491563E0,6.382925063E-2,3.695465997E-2,-9.413933754E-2
3.737555052E0,6.169873103E-2,3.482412919E-2,-9.840039164E-2
3.742622604E0,6.063347310E-2,3.056307696E-2,-1.037267074E-1
3.747686042E0,6.382925063E-2,2.523675747E-2,-1.026614383E-1
3.752749479E0,6.382925063E-2,1.991043799E-2,-1.026614383E-1
3.757812969E0,5.850294232E-2,1.564938761E-2,-1.069224924E-1
3.762876406E0,5.743768066E-2,8.192542009E-3,-1.079877615E-1
3.767939844E0,5.317662284E-2,-1.394829364E-3,-1.079877615E-1
3.773004323E0,4.678504169E-2,-9.916937910E-3,-1.079877615E-1
3.778067761E0,4.252399132E-2,-1.950431056E-2,-1.069224924E-1
3.783131198E0,3.719767183E-2,-2.589589171E-2,-1.058572307E-1
3.788194688E0,3.293661773E-2,-3.441799805E-2,-1.026614383E-1
3.793258125E0,2.761030197E-2,-4.507062957E-2,-9.840039164E-2
3.798321563E0,1.908819191E-2,-5.785379559E-2,-9.733512253E-2
3.803387552E0,9.500817396E-3,-6.104958430E-2,-9.307406843E-2
3.808451042E0,4.174501169E-3,-6.744117290E-2,-8.668248355E-2
3.813514479E0,-8.608660661E-3,-6.957169622E-2,-8.242142946E-2
3.818577917E0,-1.926129498E-2,-7.170221955E-2,-7.709511369E-2
3.823641354E0,-3.310972080E-2,-6.850643456E-2,-7.070353627E-2
3.828704844E0,-4.802341014E-2,-5.998432264E-2,-6.537722051E-2
3.833768229E0,-6.293710321E-2,-5.146221071E-2,-5.898563564E-2
3.838831719E0,-7.785079628E-2,-3.654852509E-2,-5.259405449E-2
3.843895156E0,-9.382974356E-2,-2.056957223E-2,-3.981089219E-2
3.848958594E0,-1.140697524E-1,-5.655883346E-3,-3.022352420E-2
3.854022031E0,-1.321792305E-1,1.245359425E-2,-1.637509838E-2
3.859085521E0,-1.481581926E-1,3.162834048E-2,2.799645998E-3
3.864152292E0,-1.683982015E-1,5.186834559E-2,2.410491370E-2
3.869215781E0,-1.875729412E-1,7.104308903E-2,4.647544771E-2
3.874279167E0,-2.067476809E-1,9.234835953E-2,7.310704142E-2
3.879342656E0,-2.248571664E-1,1.104578376E-1,9.760810435E-2
3.884406094E0,-2.397708446E-1,1.232409999E-1,1.253049523E-1
3.889469584E0,-2.546845078E-1,1.317631006E-1,1.530018151E-1
3.894537865E0,-2.717287242E-1,1.317631006E-1,1.860249788E-1
3.899601354E0,-2.909034789E-1,1.285673082E-1,2.201133966E-1
3.904664792E0,-3.154045045E-1,1.243062690E-1,2.573976219E-1
3.909728229E0,-3.452319205E-1,1.232409999E-1,3.042692244E-1
3.914791667E0,-3.857119083E-1,1.328283697E-1,3.543366194E-1
3.919855156E0,-4.293877184E-1,1.573294252E-1,4.086650312E-1
3.924920886E0,-4.719982743E-1,1.999399662E-1,4.704503119E-1
3.929984375E0,-5.114130378E-1,2.457462996E-1,5.375619531E-1
3.935047813E0,-5.582846403E-1,3.043358028E-1,6.078693271E-1
3.940111250E0,-6.136783361E-1,3.725126684E-1,6.835030317E-1
3.945174688E0,-6.775941253E-1,4.460158348E-1,7.719199061E-1
3.950238177E0,-7.510973215E-1,5.227147937E-1,8.720546961E-1
3.955276459E0,-8.299268484E-1,5.983484983E-1,9.902988672E-1
3.960339948E0,-9.172784090E-1,6.750474572E-1,1.120261073E0
3.965403386E0,-1.014217496E0,7.560074925E-1,1.256614804E0
3.970466823E0,-1.121809006E0,8.380327821E-1,1.391903162E0
3.975530261E0,-1.224074483E0,9.679949880E-1,1.506951690E0
3.980593750E0,-1.326339722E0,1.153350830E0,1.610282183E0
3.985687448E0,-1.460562825E0,1.269464612E0,1.718939185E0
3.990750886E0,-1.584133506E0,1.449494123E0,1.809486628E0
3.995814375E0,-1.677876711E0,1.713679433E0,1.867010713E0
4.000877813E0,-1.743922949E0,1.989582777E0,1.890446544E0
4.005941250E0,-1.786533594E0,2.191982746E0,1.874467611E0
4.011004740E0,-1.812099814E0,2.275073290E0,1.809486628E0
4.016043802E0,-1.822752595E0,2.287856340E0,1.700829744E0
4.021107500E0,-1.832339764E0,2.256963730E0,1.565541267E0
4.026171146E0,-1.862167239E0,2.185590982E0,1.422795892E0
4.031234844E0,-1.886668324E0,2.121675253E0,1.287507415E0
4.036298542E0,-1.894125104E0,2.049237251E0,1.160741091E0
4.041362188E0,-1.861101985E0,1.946972132E0,1.033974767E0
4.046454531E0,-1.787598729E0,1.795704842E0,9.050778151E-1
4.051518229E0,-1.704508305E0,1.543237329E0,7.857683301E-1
4.056581875E0,-1.602242947E0,1.296096206E0,6.941556334E-1
4.061645573E0,-1.501042962E0,1.091565490E0,6.313050985E-1
4.066709271E0,-1.421148181E0,9.083401561E-1,5.791071653E-1
4.071772969E0,-1.360428095E0,7.623990774E-1,5.269092917E-1
4.076837031E0,-1.312491298E0,6.569380164E-1,4.789724052E-1
4.081900729E0,-1.268815398E0,5.876958966E-1,4.384923875E-1
4.086964375E0,-1.223009109E0,5.386937857E-1,3.980123997E-1
4.092028073E0,-1.167615414E0,4.950179756E-1,3.607281744E-1
4.097091771E0,-1.107960701E0,4.587990046E-1,3.298355341E-1
4.102155417E0,-1.046175361E0,4.268410802E-1,2.882902622E-1
4.107217656E0,-9.843900204E-1,4.044705927E-1,2.573976219E-1
4.112281354E0,-9.183437228E-1,3.927526772E-1,2.435492128E-1
4.117345000E0,-8.522973657E-1,3.852958381E-1,2.328965813E-1
4.122408698E0,-7.905120850E-1,3.703821301E-1,2.318313122E-1
4.127472396E0,-7.297920585E-1,3.565337360E-1,2.350271046E-1
4.132536042E0,-6.648110151E-1,3.405547440E-1,2.414186895E-1
4.137603802E0,-5.891773105E-1,3.256410956E-1,2.552670836E-1
4.142667500E0,-5.114130378E-1,3.181842268E-1,2.787028849E-1
4.147731146E0,-4.379098117E-1,3.139231801E-1,2.989428937E-1
4.152794844E0,-3.665371835E-1,3.085968494E-1,3.127913177E-1
4.157858542E0,-2.898381948E-1,3.117926717E-1,3.330313563E-1
4.162922188E0,-2.152697891E-1,3.181842268E-1,3.617934287E-1
4.167987344E0,-1.428318620E-1,3.256410956E-1,3.841639757E-1
4.173051042E0,-7.998131961E-2,3.352284431E-1,3.958818614E-1
4.178114688E0,-2.884866670E-2,3.501421213E-1,4.033387303E-1
4.183178386E0,1.589240134E-2,3.682516217E-1,4.022734761E-1
4.188242084E0,4.998083413E-2,3.821000457E-1,3.926860988E-1
4.193305729E0,7.235135883E-2,3.927526772E-1,3.788376451E-1
4.198367448E0,9.685242176E-2,3.938179314E-1,3.596628904E-1
4.203431146E0,1.075050533E-1,3.874263465E-1,3.404881656E-1
4.208494792E0,1.213534772E-1,3.618600368E-1,3.191829026E-1
4.213558490E0,1.245492697E-1,3.245758116E-1,2.957471013E-1
4.218622188E0,1.234840006E-1,2.734431624E-1,2.723113000E-1
4.223685834E0,1.256145239E-1,2.042010128E-1,2.531365752E-1
4.228753854E0,1.256145239E-1,1.317631006E-1,2.360923588E-1
4.233817552E0,1.277450621E-1,5.293361470E-2,2.243744731E-1
4.238881198E0,1.288103312E-1,-2.802641876E-2,2.147870958E-1
4.243944948E0,1.352019012E-1,-9.939906746E-2,2.115913033E-1
4.249008594E0,1.479850709E-1,-1.643801630E-1,2.105260342E-1
4.254072240E0,1.554419249E-1,-2.229696512E-1,2.126565725E-1
4.259136563E0,1.692903340E-1,-2.709065080E-1,2.179828733E-1
4.264200261E0,1.820735037E-1,-3.081907034E-1,2.254397273E-1
4.269263906E0,1.948566735E-1,-3.348222971E-1,2.243744731E-1
4.274327604E0,2.033787668E-1,-3.433444202E-1,2.265049964E-1
4.279391302E0,2.129661292E-1,-3.348222971E-1,2.307660580E-1
4.284454948E0,2.193577290E-1,-3.177780807E-1,2.339618355E-1
4.289515938E0,2.278798372E-1,-2.943422794E-1,2.360923588E-1
4.294579636E0,2.406629920E-1,-2.559928000E-1,2.339618355E-1
4.299643281E0,2.566419542E-1,-2.037949115E-1,2.328965813E-1
4.304707031E0,2.768819928E-1,-1.515969932E-1,2.307660580E-1
4.309770677E0,2.981872559E-1,-9.939906746E-2,2.286355197E-1
4.314834323E0,3.109704256E-1,-4.400536790E-2,2.297007740E-1
4.319898646E0,3.173619807E-1,1.458412316E-2,2.222439498E-1
4.324962344E0,3.162967563E-1,7.636940479E-2,2.126565725E-1
4.330026042E0,3.120356798E-1,1.456115246E-1,2.030691952E-1
4.335089688E0,3.120356798E-1,2.127231359E-1,1.977428794E-1
4.340153386E0,3.045788109E-1,2.883568406E-1,1.902860254E-1
4.345217031E0,2.992525399E-1,3.607947826E-1,1.838944554E-1
4.350281354E0,2.960567176E-1,4.342979491E-1,1.721765548E-1
4.355345052E0,2.981872559E-1,5.035400987E-1,1.551323384E-1
4.360408698E0,3.024483025E-1,5.653253198E-1,1.338270754E-1
4.365472396E0,3.013830483E-1,6.207190156E-1,1.061302051E-1
4.370536094E0,2.949914634E-1,6.633295417E-1,7.523756474E-2
4.375599740E0,2.949914634E-1,6.984832287E-1,4.541018605E-2
4.380653438E0,2.939262092E-1,7.229843736E-1,1.558280736E-2
4.385717136E0,2.981872559E-1,7.293758988E-1,-1.104878075E-2
4.390780834E0,3.067093790E-1,7.208538055E-1,-3.128878772E-2
4.395844479E0,3.258841336E-1,6.974179745E-1,-4.939826578E-2
4.400908177E0,3.471893966E-1,6.707863808E-1,-6.218142807E-2
4.405971875E0,3.610378206E-1,6.643948555E-1,-7.070353627E-2
4.411053334E0,3.759514987E-1,6.686559319E-1,-7.389932871E-2
4.416117031E0,3.834083080E-1,6.739822030E-1,-7.176879793E-2
4.421180677E0,3.929956853E-1,6.761127710E-1,-6.644248217E-2
4.426244375E0,4.025830626E-1,6.718516946E-1,-5.792037025E-2
4.431308073E0,4.153662324E-1,6.505464315E-1,-4.833300412E-2
4.436371719E0,4.217578173E-1,6.068706512E-1,-3.341931105E-2
4.441436094E0,4.228230715E-1,5.557379723E-1,-1.744036190E-2
4.446499792E0,4.228230715E-1,5.088663697E-1,-3.961445764E-4
4.451563438E0,4.153662324E-1,4.481464028E-1,1.771333441E-2
4.456627136E0,3.961915076E-1,3.725126684E-1,3.262702376E-2
4.461690834E0,3.802125454E-1,2.936831713E-1,3.475755453E-2
4.466754479E0,3.844735920E-1,2.031357586E-1,1.025648974E-2
4.471819896E0,4.068441391E-1,7.743466645E-2,-4.300668091E-2
4.476883594E0,4.451936185E-1,-7.702854276E-2,-1.197056547E-1
4.481947292E0,4.803473055E-1,-2.485359609E-1,-2.049267292E-1
4.487010938E0,5.027178526E-1,-4.125865400E-1,-2.944088876E-1
4.492074636E0,4.878041744E-1,-5.713108182E-1,-3.636510074E-1
4.497138281E0,4.196272790E-1,-7.193824649E-1,-3.870867789E-1
4.502203125E0,2.896651626E-1,-8.493446112E-1,-3.540636301E-1
4.507266823E0,1.107008457E-1,-9.526751637E-1,-2.635162473E-1
4.512330469E0,-7.678553462E-2,-9.931551814E-1,-1.420761794E-1
4.517394167E0,-2.365750670E-1,-9.601320028E-1,-3.022352420E-2
4.522457865E0,-3.633413613E-1,-9.004772902E-1,5.073650554E-2
4.527521511E0,-4.613456130E-1,-8.536056876E-1,8.482493460E-2
4.532584531E0,-5.295224786E-1,-8.354961872E-1,8.695546538E-2
4.537648229E0,-5.731983185E-1,-8.450835347E-1,8.162914217E-2
4.542711927E0,-5.678719878E-1,-9.004772902E-1,7.417230308E-2
4.547775573E0,-4.954340458E-1,-1.011264563E0,6.458493322E-2
4.552839271E0,-3.569498062E-1,-1.161466718E0,5.180177093E-2
4.557902917E0,-1.833118796E-1,-1.312734127E0,3.795334324E-2
4.562969375E0,-1.713076793E-2,-1.437370062E0,2.197438851E-2
4.568033073E0,1.266798079E-1,-1.546026945E0,6.691189483E-4
4.573096719E0,2.555767298E-1,-1.655749083E0,-3.448457643E-2
4.578160417E0,3.802125454E-1,-1.768666863E0,-8.029090613E-2
4.583224115E0,5.037830472E-1,-1.876258612E0,-1.410109252E-1
4.588287761E0,6.198968291E-1,-1.959349155E0,-2.155793607E-1
4.593352084E0,7.253578901E-1,-1.996633291E0,-2.890825570E-1
4.598415781E0,8.116442561E-1,-1.987045884E0,-3.593899608E-1
4.603479427E0,8.734295368E-1,-1.927391291E0,-4.307625890E-1
4.608543125E0,9.064526558E-1,-1.812342763E0,-4.925478697E-1
4.613606823E0,9.213663340E-1,-1.647226930E0,-5.468763709E-1
4.618670469E0,9.181705713E-1,-1.449087977E0,-5.937479138E-1
4.623720886E0,9.032569528E-1,-1.244557261E0,-6.395542622E-1
4.628784636E0,8.915390372E-1,-1.048548818E0,-6.810995340E-1
4.633848281E0,8.989958167E-1,-8.738456964E-1,-7.013395429E-1
4.638911927E0,9.181705713E-1,-7.385572195E-1,-6.896216273E-1
4.643975625E0,9.341495633E-1,-6.490750313E-1,-6.459458470E-1
4.649039323E0,9.490631819E-1,-5.894203186E-1,-5.703121424E-1
4.654119115E0,9.586505890E-1,-5.606581569E-1,-5.021352768E-1
4.659182813E0,9.501284957E-1,-5.787676573E-1,-4.818952680E-1
4.664246459E0,9.266927242E-1,-6.458793283E-1,-4.904173613E-1
4.669310156E0,9.011263847E-1,-7.406877279E-1,-5.117226839E-1
4.674373854E0,8.883432150E-1,-8.376266956E-1,-5.383542180E-1
4.679437500E0,8.755600452E-1,-9.228478074E-1,-5.798994899E-1
4.684501927E0,8.531895280E-1,-1.012329817E0,-6.534026861E-1
4.689565625E0,8.169705272E-1,-1.115660429E0,-7.460806370E-1
4.694629323E0,7.946000099E-1,-1.194489956E0,-7.961480021E-1
4.699692969E0,7.935347557E-1,-1.237100482E0,-8.174532652E-1
4.704756667E0,8.063179255E-1,-1.255210042E0,-8.174532652E-1
4.709820313E0,8.095136881E-1,-1.308473229E0,-8.195837736E-1
4.714866250E0,8.095136881E-1,-1.359605789E0,-8.195837736E-1
4.719929948E0,8.191010952E-1,-1.381976366E0,-8.110616803E-1
4.724993594E0,8.276231885E-1,-1.407542586E0,-7.876259089E-1
4.730057292E0,8.308190107E-1,-1.445892096E0,-7.631248236E-1
4.735120990E0,8.286884427E-1,-1.477849960E0,-7.301017046E-1
4.740184636E0,8.254926205E-1,-1.508742690E0,-7.056005597E-1
4.745269479E0,8.169705272E-1,-1.539635301E0,-6.970784664E-1
4.750333177E0,8.031221628E-1,-1.571593165E0,-7.066658139E-1
4.755396823E0,7.818168402E-1,-1.608877420E0,-7.279711366E-1
4.760460521E0,7.764905691E-1,-1.592898488E0,-7.141226530E-1
4.765524219E0,7.796863317E-1,-1.537504792E0,-6.757732034E-1
4.770587865E0,7.839474082E-1,-1.461871147E0,-6.257058382E-1
4.775625781E0,7.860779166E-1,-1.370258451E0,-5.745731592E-1
4.780689479E0,7.796863317E-1,-1.271188855E0,-5.308973789E-1
4.785753177E0,7.583810687E-1,-1.178511024E0,-5.063963532E-1
4.790816875E0,7.253578901E-1,-1.105007887E0,-4.978742003E-1
4.795880521E0,6.923347712E-1,-1.034700394E0,-4.925478697E-1
4.800944219E0,6.614421010E-1,-9.590667486E-1,-4.904173613E-1
4.806007917E0,6.316146851E-1,-8.834329844E-1,-4.840257764E-1
4.811071615E0,6.071135998E-1,-8.120604157E-1,-4.637857676E-1
4.816135313E0,5.900694132E-1,-7.438834906E-1,-4.318278730E-1
4.821198959E0,5.740904808E-1,-7.076646090E-1,-4.126531482E-1
4.826262656E0,5.538504720E-1,-7.097950578E-1,-4.126531482E-1
4.831326302E0,5.442630649E-1,-7.247087955E-1,-4.190447032E-1
4.836416094E0,5.421326160E-1,-7.513403893E-1,-4.211752415E-1
4.841479792E0,5.368062258E-1,-7.790371776E-1,-4.265015423E-1
4.846543438E0,5.314799547E-1,-8.163214326E-1,-4.371542037E-1
4.851607188E0,5.272188783E-1,-8.514751196E-1,-4.446110129E-1
4.856670834E0,5.229578614E-1,-8.834329844E-1,-4.595247209E-1
4.861734531E0,5.197620392E-1,-9.111298919E-1,-4.765689373E-1
4.866802292E0,5.250883698E-1,-9.430878162E-1,-4.936131537E-1
4.871865990E0,5.272188783E-1,-9.675888419E-1,-5.127878785E-1
4.876929636E0,5.378714800E-1,-9.846330881E-1,-5.351584554E-1
4.881993334E0,5.538504720E-1,-9.910246134E-1,-5.585942268E-1
4.887056979E0,5.623725653E-1,-9.856983423E-1,-5.852258205E-1
4.892120677E0,5.708946586E-1,-9.771762490E-1,-6.139879227E-1
4.897180625E0,5.740904808E-1,-9.548056722E-1,-6.459458470E-1
4.902244271E0,5.751557350E-1,-9.260436296E-1,-6.715121269E-1
4.907307969E0,5.868736506E-1,-8.685193658E-1,-6.779037714E-1
4.912371615E0,6.071135998E-1,-7.715803385E-1,-6.757732034E-1
4.917435313E0,6.294841766E-1,-6.948813796E-1,-6.885563731E-1
4.922499011E0,6.475936770E-1,-6.448140144E-1,-7.279711366E-1
4.927568438E0,6.593115330E-1,-5.936813951E-1,-7.684511542E-1
4.932632136E0,6.752904654E-1,-5.425487161E-1,-8.036048412E-1
4.937695781E0,6.923347712E-1,-5.052644610E-1,-8.313016891E-1
4.942759479E0,7.104441524E-1,-4.743718207E-1,-8.547374606E-1
4.947823177E0,7.349452972E-1,-4.456097186E-1,-8.813690543E-1
4.952886875E0,7.551852465E-1,-4.253696799E-1,-9.026743174E-1
4.957951459E0,7.732947469E-1,-4.061949551E-1,-9.175879955E-1
4.963015156E0,7.892736793E-1,-3.859549463E-1,-9.303712249E-1
4.968078802E0,8.052526712E-1,-3.678454459E-1,-9.367627501E-1
4.973142500E0,8.084484339E-1,-3.529317975E-1,-9.378280640E-1
4.978206198E0,8.041874170E-1,-3.401486278E-1,-9.303712249E-1
4.983269844E0,7.935347557E-1,-3.316265345E-1,-9.048048854E-1
4.988336042E0,7.796863317E-1,-3.294959664E-1,-8.707164526E-1
4.993399740E0,7.541199923E-1,-3.316265345E-1,-8.323669434E-1
4.998463438E0,7.168357968E-1,-3.284307122E-1,-7.908216715E-1
5.003527084E0,6.688989401E-1,-3.305612504E-1,-7.396890521E-1
5.008590781E0,6.135051847E-1,-3.486707211E-1,-6.896216273E-1
5.013654427E0,5.538504720E-1,-3.667802215E-1,-6.459458470E-1
5.018716042E0,4.899346828E-1,-3.753023148E-1,-6.012047529E-1
5.023779948E0,4.196272790E-1,-3.763675988E-1,-5.596594810E-1
5.028843906E0,3.503851593E-1,-3.646496832E-1,-5.191795230E-1
5.033907813E0,2.822082937E-1,-3.433444202E-1,-4.786994755E-1
5.038971771E0,2.193577290E-1,-3.231044114E-1,-4.371542037E-1
5.044035729E0,1.724861264E-1,-3.135170341E-1,-3.934783936E-1
5.049101823E0,1.469198167E-1,-3.358875811E-1,-3.498025835E-1
5.054165781E0,1.277450621E-1,-3.305612504E-1,-3.274320364E-1
5.059229740E0,1.149618998E-1,-3.135170341E-1,-3.061267734E-1
5.064293646E0,1.107008457E-1,-3.039296567E-1,-2.858867645E-1
5.069357604E0,1.043092683E-1,-2.911464870E-1,-2.731035948E-1
5.074421563E0,8.726505190E-2,-2.719717324E-1,-2.624509931E-1
5.079484427E0,6.382925063E-2,-2.496012449E-1,-2.486025244E-1
5.084548334E0,3.826293349E-2,-2.048601657E-1,-2.368846238E-1
5.089612292E0,1.376187336E-2,-1.473359317E-1,-2.219709456E-1
5.094676198E0,-2.032655850E-2,-9.194222838E-2,-1.974698752E-1
5.099740156E0,-6.400236487E-2,-3.761378676E-2,-1.750993431E-1
5.104804115E0,-1.215265989E-1,-8.851674385E-3,-1.495330334E-1
5.109867969E0,-2.046171427E-1,1.138833258E-2,-1.292930096E-1
5.114931875E0,-3.090129495E-1,1.777991466E-2,-1.058572307E-1
5.119995834E0,-4.368445873E-1,3.908518702E-2,-7.496459037E-2
5.125059740E0,-5.700025558E-1,5.506413803E-2,-1.104878075E-2
5.130123698E0,-6.925078630E-1,7.530414313E-2,7.523756474E-2
5.135187656E0,-8.064910769E-1,1.211104617E-1,1.721765548E-1
5.140250938E0,-9.194089770E-1,2.042010128E-1,2.765723467E-1
5.145314844E0,-1.037653327E0,3.256410956E-1,3.884250224E-1
5.150378802E0,-1.161223888E0,4.705169201E-1,5.087997913E-1
5.155442709E0,-1.297577620E0,6.313716769E-1,6.238482594E-1
5.160506667E0,-1.450975537E0,8.295106888E-1,7.346357107E-1
5.165570573E0,-1.597981930E0,1.061738253E0,8.400967121E-1
5.170634427E0,-1.752444983E0,1.307814002E0,9.498189092E-1
5.175698334E0,-1.917560935E0,1.561346769E0,1.062736869E0
5.180762292E0,-2.053914547E0,1.809553146E0,1.166067362E0
5.185826198E0,-2.147657633E0,2.036454201E0,1.264071703E0
5.190890156E0,-2.203051567E0,2.255898476E0,1.350358009E0
5.195954115E0,-2.246727228E0,2.468951225E0,1.403621078E0
5.201017448E0,-2.307447195E0,2.670285940E0,1.417469621E0
5.206081354E0,-2.383080959E0,2.849250317E0,1.395099044E0
5.211145313E0,-2.461910486E0,2.977081776E0,1.340770602E0
5.216209219E0,-2.520499945E0,3.022888184E0,1.248092651E0
5.221273177E0,-2.558849335E0,2.956841707E0,1.128783226E0
5.226337136E0,-2.591872454E0,2.782138586E0,9.796463251E-1
5.231396771E0,-2.618504047E0,2.527540684E0,8.209220171E-1
5.236460677E0,-2.624895811E0,2.206896544E0,6.685893536E-1
5.241524636E0,-2.605720997E0,1.822336435E0,5.311703682E-1
5.246588542E0,-2.559914827E0,1.396230936E0,4.246439934E-1
5.251652500E0,-2.497064114E0,9.541465044E-1,3.660545051E-1
5.256716459E0,-2.428887129E0,5.472158790E-1,3.692502677E-1
5.261784479E0,-2.347927332E0,2.318978757E-1,4.406229556E-1
5.266848386E0,-2.253118753E0,1.671464927E-2,5.673893094E-1
5.271912344E0,-2.172158957E0,-1.526622623E-1,7.175914049E-1
5.276976250E0,-2.118895769E0,-2.496012449E-1,8.965557218E-1
5.282040209E0,-2.107177734E0,-2.549275458E-1,1.074454665E0
5.287104167E0,-2.123156786E0,-1.867506802E-1,1.221461058E0
5.292167709E0,-2.160440922E0,-7.276748866E-2,1.320530653E0
5.297231615E0,-2.184941769E0,7.530414313E-2,1.368467450E0
5.302295521E0,-2.188137770E0,2.606599927E-1,1.373793840E0
5.307359479E0,-2.173224211E0,5.003442764E-1,1.357814789E0
5.312423438E0,-2.143396616E0,7.741169930E-1,1.322661161E0
5.317487396E0,-2.110373497E0,1.062803388E0,1.286442161E0
5.322550990E0,-2.073089361E0,1.346163511E0,1.252353787E0
5.327614896E0,-2.018760920E0,1.607153177E0,1.223591685E0
5.332678854E0,-1.967628241E0,1.814879537E0,1.204416871E0
5.337742761E0,-1.915430427E0,1.953363776E0,1.191633701E0
5.342806719E0,-1.834470391E0,2.065216303E0,1.190568447E0
5.347870677E0,-1.727944016E0,2.167481661E0,1.209743142E0
5.352934427E0,-1.600112438E0,2.252702713E0,1.249157906E0
5.357998386E0,-1.472280741E0,2.284660578E0,1.292833686E0
5.363062344E0,-1.346579671E0,2.252702713E0,1.322661161E0
5.368126250E0,-1.231531262E0,2.181329966E0,1.343966484E0
5.373190209E0,-1.125004888E0,2.063085556E0,1.354619026E0
5.378254167E0,-1.024870038E0,1.902231097E0,1.361010671E0
5.383312813E0,-9.236699939E-1,1.733919501E0,1.359945297E0
5.388376719E0,-8.203394413E-1,1.566673040E0,1.345031619E0
5.393440677E0,-7.234004736E-1,1.397296190E0,1.318400025E0
5.398504584E0,-6.243309379E-1,1.237506628E0,1.287507415E0
5.403568542E0,-5.210003853E-1,1.116066575E0,1.256614804E0
5.408632500E0,-4.261919260E-1,1.031910896E0,1.222526312E0
5.413700729E0,-3.409708738E-1,9.775823355E-1,1.179915786E0
5.418764636E0,-2.632066011E-1,9.562770724E-1,1.136240005E0
5.423828594E0,-1.897034645E-1,9.530812502E-1,1.096825361E0
5.428892500E0,-1.151350215E-1,9.488202333E-1,1.066997886E0
5.433956459E0,-4.589288309E-2,9.371023178E-1,1.042496800E0
5.439020417E0,1.589240134E-2,9.211233258E-1,9.945599437E-1
5.444084271E0,6.595978141E-2,9.360370040E-1,9.263831377E-1
5.449148177E0,9.578716010E-2,9.562770724E-1,8.400967121E-1
5.454212084E0,1.202882230E-1,9.647991657E-1,7.570062280E-1
5.459276042E0,1.469198167E-1,9.711906910E-1,6.930903792E-1
5.464340000E0,1.895303428E-1,9.797128439E-1,6.376967430E-1
5.469403959E0,2.364019454E-1,9.818433523E-1,5.876293182E-1
5.474412240E0,3.056440949E-1,9.775823355E-1,5.407577157E-1
5.479476146E0,3.940609694E-1,9.594728351E-1,5.045387745E-1
5.484540104E0,5.048483610E-1,9.264496565E-1,4.811029732E-1
5.489604063E0,6.305494905E-1,8.763822913E-1,4.704503119E-1
5.494667969E0,7.722294331E-1,8.103359938E-1,4.597977102E-1
5.499731927E0,9.213663340E-1,7.251148224E-1,4.512755871E-1
5.504845781E0,1.081155777E0,6.015442610E-1,4.438187182E-1
5.509909740E0,1.250532746E0,4.513421655E-1,4.289050400E-1
5.514973698E0,1.422040224E0,2.745084167E-1,4.097302854E-1
5.520037604E0,1.591417074E0,6.891255826E-2,3.767071366E-1
5.525101563E0,1.748010755E0,-1.547927856E-1,3.372924030E-1
5.530165469E0,1.882233977E0,-3.912812769E-1,2.797681689E-1
5.535177604E0,1.988760352E0,-6.203129292E-1,2.073302418E-1
5.540241563E0,2.053741455E0,-8.333656192E-1,1.178481057E-1
5.545305469E0,2.077177286E0,-1.025112987E0,1.877859794E-2
5.550369427E0,2.054806948E0,-1.185967803E0,-9.200880677E-2
5.555433386E0,1.993021369E0,-1.312734127E0,-2.081225216E-1
5.560497292E0,1.898212910E0,-1.412868977E0,-3.306278288E-1
5.565616250E0,1.775707722E0,-1.467197418E0,-4.499373436E-1
5.570680156E0,1.645745516E0,-1.464001656E0,-5.522026420E-1
5.575744115E0,1.505130768E0,-1.400085688E0,-6.342279911E-1
5.580808021E0,1.360254884E0,-1.259470940E0,-6.906868815E-1
5.585871979E0,1.202595830E0,-1.034700394E0,-7.098616362E-1
5.590935938E0,1.017240047E0,-7.332308888E-1,-6.992089748E-1
5.595995052E0,8.041874170E-1,-3.667802215E-1,-6.491416097E-1
5.601058959E0,5.676988959E-1,1.245359425E-2,-5.575289726E-1
5.606122865E0,3.365367353E-1,3.490768671E-1,-4.179794490E-1
5.611186823E0,1.234840006E-1,5.876958966E-1,-2.422109544E-1
5.616250781E0,-5.441499129E-2,6.974179745E-1,-4.833300412E-2
5.621314740E0,-1.854424030E-1,6.739822030E-1,1.285007447E-1
5.626383490E0,-2.909034789E-1,6.004790068E-1,2.882902622E-1
5.631447448E0,-3.910382390E-1,5.642600656E-1,4.416882098E-1
5.636511354E0,-4.837161601E-1,5.845000744E-1,5.673893094E-1
5.641575313E0,-5.604151487E-1,6.484158635E-1,6.526103616E-1
5.646639271E0,-6.126130819E-1,7.528117299E-1,7.016124725E-1
5.651703229E0,-6.296573281E-1,9.179275632E-1,7.111998796E-1
5.656766563E0,-6.317878366E-1,1.093696117E0,6.898946166E-1
5.661830469E0,-6.839857697E-1,1.118197083E0,6.696546078E-1
5.666894427E0,-7.457710505E-1,1.061738253E0,6.142608523E-1
5.671958334E0,-7.468363047E-1,9.317759871E-1,5.002776980E-1
5.677022292E0,-6.648110151E-1,5.876958966E-1,3.511407971E-1
5.682086250E0,-4.922382534E-1,1.245359425E-2,1.806986481E-1
5.687149792E0,-2.791855931E-1,-7.108603120E-1,-1.744036190E-2
5.692213698E0,-9.915606678E-2,-1.438435197E0,-2.368846238E-1
5.697277656E0,-3.310972080E-2,-2.055222988E0,-4.350236356E-1
5.702341563E0,-1.279181689E-1,-2.424869299E0,-5.990742445E-1
5.707405521E0,-3.260571659E-1,-2.356692314E0,-7.311669588E-1
5.712469427E0,-5.668067336E-1,-1.907151103E0,-7.908216715E-1
5.717533542E0,-7.638804913E-1,-1.238165736E0,-6.970784664E-1
5.722597448E0,-8.043605089E-1,-4.807634056E-1,-4.414152503E-1
5.727661406E0,-6.775941253E-1,1.093925685E-1,-1.601856649E-1
5.732725313E0,-4.837161601E-1,3.671863377E-1,-1.211404428E-2
5.737789271E0,-2.855771482E-1,3.054010570E-1,6.138913706E-2
5.742853177E0,-8.850342780E-2,4.547676817E-2,1.231744215E-1
5.747916563E0,1.000482142E-1,-2.570580542E-1,1.679154932E-1
5.752980469E0,2.683598995E-1,-5.180476904E-1,1.838944554E-1
5.758044375E0,4.206925631E-1,-7.619929910E-1,1.636544466E-1
5.763108334E0,5.932652354E-1,-1.024047732E0,1.114565283E-1
5.768172292E0,7.967305779E-1,-1.315930009E0,2.836596966E-2
5.773236250E0,1.019370556E0,-1.593963742E0,-7.816037536E-2
5.778296146E0,1.235619068E0,-1.791037560E0,-1.953393519E-1
5.783360052E0,1.401800156E0,-1.892237544E0,-3.306278288E-1
5.788424011E0,1.495543361E0,-1.901824832E0,-5.010700226E-1
5.793487917E0,1.503000140E0,-1.840039611E0,-7.066658139E-1
5.798551875E0,1.423105359E0,-1.732447982E0,-9.420890808E-1
5.803615834E0,1.289947510E0,-1.601420522E0,-1.183903933E0
5.808683334E0,1.152528524E0,-1.467197418E0,-1.401217699E0
5.813747240E0,1.044936895E0,-1.369193196E0,-1.576986194E0
5.818811198E0,9.895432591E-1,-1.321256280E0,-1.661141992E0
5.823875104E0,9.671726823E-1,-1.309538364E0,-1.594030380E0
5.828939063E0,9.756947756E-1,-1.288233042E0,-1.374586105E0
5.834003021E0,1.010848522E0,-1.262666821E0,-1.078442812E0
5.839054323E0,1.040675759E0,-1.287167907E0,-8.313016891E-1
5.844118229E0,1.025762081E0,-1.406477332E0,-6.949479580E-1
5.849182188E0,9.938042760E-1,-1.604616404E0,-6.235753298E-1
5.854246094E0,9.778253436E-1,-1.826191187E0,-5.852258205E-1
5.859310052E0,9.831516147E-1,-2.023265123E0,-5.585942268E-1
5.864374011E0,1.006587386E0,-2.183054447E0,-5.394194722E-1
5.869437917E0,1.032153726E0,-2.286385059E0,-5.490068197E-1
5.874501823E0,1.050263166E0,-2.327930450E0,-5.873563290E-1
5.879565781E0,1.051328540E0,-2.323669434E0,-6.470111012E-1
5.884629740E0,1.050263166E0,-2.256557703E0,-7.173184752E-1
5.889693646E0,1.046002150E0,-2.144705057E0,-8.057353497E-1
5.894757552E0,1.023631573E0,-2.028591394E0,-9.080006480E-1
5.899830781E0,1.023631573E0,-1.901824832E0,-9.655249119E-1
5.904894688E0,1.046002150E0,-1.755883813E0,-9.591333270E-1
5.909958646E0,1.069437861E0,-1.622725844E0,-9.080006480E-1
5.915022552E0,1.089678049E0,-1.525786877E0,-8.430196047E-1
5.920086511E0,1.101395845E0,-1.459740520E0,-7.759079337E-1
5.925150417E0,1.108852744E0,-1.406477332E0,-6.981437206E-1
5.930176719E0,1.107787371E0,-1.352149010E0,-6.107921004E-1
5.935240677E0,1.089678049E0,-1.294624686E0,-5.426152945E-1
5.940304584E0,1.057719946E0,-1.246687770E0,-5.063963532E-1
5.945368542E0,1.018305302E0,-1.207273126E0,-4.936131537E-1
5.950432448E0,9.735642672E-1,-1.176380396E0,-4.968089461E-1
5.955496406E0,9.256274104E-1,-1.160401464E0,-5.191795230E-1
5.960600156E0,8.883432150E-1,-1.155075192E0,-5.607247353E-1
5.965664063E0,8.606463075E-1,-1.140161514E0,-6.118574142E-1
5.970728021E0,8.318842649E-1,-1.135900378E0,-6.597942710E-1
5.975791927E0,7.935347557E-1,-1.124182582E0,-7.045353651E-1
5.980855886E0,7.551852465E-1,-1.087963581E0,-7.460806370E-1
5.985919844E0,7.210968137E-1,-1.036831021E0,-7.844300866E-1
5.990982604E0,6.827473640E-1,-1.016590953E0,-8.153227568E-1
5.996046563E0,6.539852619E-1,-1.019786716E0,-8.558027148E-1
6.001110469E0,6.412020326E-1,-1.045353055E0,-8.952175379E-1
6.006174375E0,6.380063295E-1,-1.080506802E0,-9.250448346E-1
6.011238334E0,6.401367784E-1,-1.123117208E0,-9.474154115E-1
6.016302292E0,6.518546939E-1,-1.167858362E0,-9.665901661E-1
6.021349636E0,6.657031775E-1,-1.203011990E0,-9.846996665E-1
6.026413490E0,6.827473640E-1,-1.216860533E0,-9.985480309E-1
6.031477344E0,6.933999658E-1,-1.218991041E0,-1.024114370E0
6.036541198E0,6.912694573E-1,-1.215795159E0,-1.057137609E0
6.041605000E0,6.784862876E-1,-1.200881481E0,-1.093356609E0
6.046668854E0,6.507894397E-1,-1.174249887E0,-1.123183846E0
6.051744063E0,6.156357527E-1,-1.139096260E0,-1.147684932E0
6.056807917E0,5.708946586E-1,-1.096485615E0,-1.160468102E0
6.061871771E0,5.229578614E-1,-1.048548818E0,-1.165794492E0
6.066935573E0,4.792820513E-1,-9.995467663E-1,-1.161533356E0
6.071999427E0,4.366714954E-1,-9.430878162E-1,-1.144489169E0
6.077063229E0,3.919304311E-1,-8.749108911E-1,-1.118922830E0
6.082132344E0,3.514504433E-1,-7.854288220E-1,-1.086964965E0
6.087196198E0,3.120356798E-1,-6.831634641E-1,-1.050745964E0
6.092260052E0,2.758167088E-1,-5.734413862E-1,-1.011331201E0
6.097323854E0,2.438587844E-1,-4.594581425E-1,-9.697859287E-1
6.102387709E0,2.214882523E-1,-3.444096744E-1,-9.186533093E-1
6.107451511E0,2.097703516E-1,-2.272306979E-1,-8.664553761E-1
6.112515313E0,1.959219277E-1,-1.057906598E-1,-8.099964261E-1
6.117579167E0,1.927261353E-1,1.800961210E-3,-7.492763996E-1
6.122643021E0,1.873998195E-1,9.767467529E-2,-6.938827038E-1
6.127706823E0,1.767471880E-1,1.637210101E-1,-6.374236941E-1
6.132770677E0,1.682250798E-1,1.690473109E-1,-5.692468882E-1
6.137834479E0,1.628987491E-1,2.670515776E-1,-5.117226839E-1
6.142895990E0,1.447892785E-1,3.757084608E-1,-4.243710339E-1
6.147959844E0,1.341366321E-1,4.151231945E-1,-3.221057355E-1
6.153023698E0,1.362671703E-1,4.417547882E-1,-2.422109544E-1
6.158087500E0,1.394629627E-1,4.460158348E-1,-1.719035655E-1
6.163151354E0,1.405282319E-1,4.438853264E-1,-1.069224924E-1
6.168215156E0,1.288103312E-1,4.119274318E-1,-5.152879283E-2
6.173282136E0,9.791768342E-2,3.448158205E-1,-2.526671626E-3
6.178345938E0,4.145872593E-2,2.755737007E-1,3.369228914E-2
6.183409740E0,-3.737077489E-2,2.148536593E-1,6.245440617E-2
6.188473594E0,-1.417666078E-1,1.466767937E-1,7.949861884E-2
6.193537448E0,-2.781203091E-1,1.030009910E-1,7.736809552E-2
6.198601250E0,-4.336487651E-1,8.915256709E-2,6.565019488E-2
6.203661459E0,-5.987645984E-1,1.061967835E-1,6.778072566E-2
6.208725313E0,-7.564236522E-1,1.573294252E-1,8.056388050E-2
6.213789167E0,-9.194089770E-1,2.244410217E-1,1.050649434E-1
6.218852969E0,-1.091981649E0,3.085968494E-1,1.402186453E-1
6.223916823E0,-1.286924958E0,4.012747705E-1,1.881555021E-1
6.228980625E0,-1.504238725E0,5.461506248E-1,2.478102595E-1
6.234028542E0,-1.737531304E0,7.251148224E-1,3.436839581E-1
6.239092344E0,-1.991064072E0,9.200580716E-1,4.715155959E-1
6.244156198E0,-2.214769363E0,1.190635085E0,6.195872426E-1
6.249220052E0,-2.347927332E0,1.531519413E0,7.942904234E-1
6.254283854E0,-2.412908316E0,1.881991029E0,9.977557659E-1
6.259347709E0,-2.458714485E0,2.156829119E0,1.227852702E0
6.264431927E0,-2.510912657E0,2.330466986E0,1.459014893E0
6.269495781E0,-2.576958895E0,2.428471088E0,1.662480235E0
6.274559584E0,-2.668571472E0,2.468951225E0,1.814812899E0
6.279623438E0,-2.794272661E0,2.440188885E0,1.892577171E0
6.284687292E0,-2.928495884E0,2.317683697E0,1.884055018E0
6.289751094E0,-3.052066326E0,2.093978405E0,1.783920169E0
6.294792500E0,-3.154331684E0,1.766942620E0,1.616673827E0
6.299856354E0,-3.221443415E0,1.332315207E0,1.410012722E0
6.304920209E0,-3.247009754E0,7.837044001E-1,1.178850532E0
6.309984011E0,-3.210790634E0,1.956789047E-1,9.412968159E-1
6.315047865E0,-3.082959175E0,-2.389486134E-1,7.410272360E-1
6.320111667E0,-2.860319138E0,-3.955423236E-1,6.217176914E-1
6.325193698E0,-2.592937946E0,-3.603886068E-1,6.057387590E-1
6.330257552E0,-2.331948280E0,-2.613191307E-1,6.376967430E-1
6.335321406E0,-2.083741903E0,-1.398790926E-1,6.685893536E-1
6.340385209E0,-1.869624138E0,-5.891905725E-2,7.080041170E-1
6.345449063E0,-1.719421983E0,-6.104958430E-2,7.697893977E-1
6.350512865E0,-1.641657710E0,-1.654454172E-1,8.763157129E-1
6.355579011E0,-1.633135557E0,-3.465401828E-1,1.037170529E0
6.360642865E0,-1.666158795E0,-5.148518682E-1,1.245962143E0
6.365706719E0,-1.711965084E0,-5.414834023E-1,1.472863317E0
6.370770521E0,-1.748184085E0,-3.369528055E-1,1.701894879E0
6.375834375E0,-1.765228271E0,5.825993046E-2,1.912817121E0
6.380898177E0,-1.769489408E0,5.291063786E-1,2.086455107E0
6.385964896E0,-1.760967255E0,9.978223443E-1,2.196177483E0
6.391028750E0,-1.742857814E0,1.405818343E0,2.237722635E0
6.396092604E0,-1.716226220E0,1.707287908E0,2.233461618E0
6.401156406E0,-1.670419812E0,1.910753250E0,2.202569008E0
6.406220261E0,-1.589459777E0,2.048171997E0,2.166349888E0
6.411284063E0,-1.471215606E0,2.158959389E0,2.133326769E0
6.416347865E0,-1.312491298E0,2.238854170E0,2.092846870E0
6.421411719E0,-1.126070142E0,2.301704884E0,2.047040462E0
6.426475573E0,-9.151479006E-1,2.386925936E0,1.996972919E0
6.431539375E0,-6.967688799E-1,2.520083666E0,1.944774985E0
6.436603229E0,-4.869119525E-1,2.655372381E0,1.904295087E0
6.441667031E0,-3.100782335E-1,2.739527941E0,1.870206594E0
6.446730886E0,-1.609413475E-1,2.770420551E0,1.830791831E0
6.451794740E0,-4.802341014E-2,2.757637739E0,1.778593898E0
6.456858594E0,3.719767183E-2,2.703309059E0,1.700829744E0
6.461922396E0,1.117661074E-1,2.642589092E0,1.609217048E0
6.466986250E0,1.820735037E-1,2.575477600E0,1.518669605E0
6.472050052E0,2.545114458E-1,2.492386818E0,1.433448434E0
6.477115469E0,3.280146420E-1,2.410361767E0,1.352488518E0
6.482179323E0,3.919304311E-1,2.333662748E0,1.275789499E0
6.487243177E0,4.451936185E-1,2.277203798E0,1.195894718E0
6.492306979E0,4.899346828E-1,2.252702713E0,1.104282141E0
6.497370834E0,5.208272934E-1,2.235658407E0,1.009473681E0
6.502434636E0,5.336104631E-1,2.217549086E0,9.167957306E-1
6.507497136E0,5.346757174E-1,2.204765797E0,8.230525255E-1
6.512560990E0,5.293493867E-1,2.193047762E0,7.431578040E-1
6.517624844E0,5.123052001E-1,2.169611931E0,6.653935313E-1
6.522688646E0,4.909999371E-1,2.134458542E0,5.886945724E-1
6.527752500E0,4.771515131E-1,2.087586880E0,5.173218846E-1
6.532816354E0,4.664988816E-1,2.030062675E0,4.651239812E-1
6.537878594E0,4.707599580E-1,1.940580487E0,4.310355783E-1
6.542942448E0,5.037830472E-1,1.828727841E0,4.054692388E-1
6.548006302E0,5.634378195E-1,1.691308975E0,3.777723908E-1
6.553070104E0,6.507894397E-1,1.528323531E0,3.607281744E-1
6.558133959E0,7.679684162E-1,1.363207698E0,3.522060513E-1
6.563197761E0,9.085832238E-1,1.189569831E0,3.522060513E-1
6.568224948E0,1.067307353E0,1.012736082E0,3.660545051E-1
6.573288750E0,1.232423186E0,8.486854434E-1,3.990776539E-1
6.578352604E0,1.409256935E0,6.920917034E-1,4.395576715E-1
6.583416406E0,1.588221192E0,5.461506248E-1,4.821682274E-1
6.588480261E0,1.771446586E0,3.970137239E-1,5.130608678E-1
6.593544115E0,1.957867742E0,2.382894456E-1,5.258439779E-1
6.598643281E0,2.142158508E0,7.423887402E-2,5.194524527E-1
6.603707136E0,2.313665867E0,-9.833380580E-2,4.970819056E-1
6.608770990E0,2.467063665E0,-2.730370164E-1,4.555366337E-1
6.613834792E0,2.585308075E0,-4.530665576E-1,3.948166072E-1
6.618898646E0,2.657745838E0,-6.288350224E-1,3.127913177E-1
6.623962448E0,2.684377432E0,-7.950161695E-1,2.083955109E-1
6.629030781E0,2.657745838E0,-9.548056722E-1,7.630282640E-2
6.634094636E0,2.581046820E0,-1.112464666E0,-8.455196023E-2
6.639158490E0,2.461737633E0,-1.275449991E0,-2.571246624E-1
6.644222292E0,2.298752308E0,-1.421391010E0,-4.275668263E-1
6.649286146E0,2.096352100E0,-1.520460606E0,-5.830952525E-1
6.654349948E0,1.837492943E0,-1.537504792E0,-6.949479580E-1
6.659413959E0,1.495543361E0,-1.462936282E0,-7.471458912E-1
6.664477813E0,1.090743184E0,-1.262666821E0,-7.279711366E-1
6.669541667E0,6.454631090E-1,-9.377614856E-1,-6.225100756E-1
6.674605469E0,2.044440359E-1,-5.414834023E-1,-4.350236356E-1
6.679669323E0,-1.960950494E-1,-1.771633178E-1,-1.846867204E-1
6.684733125E0,-5.316530466E-1,8.169572800E-2,9.228178114E-2
6.689797761E0,-7.873163223E-1,3.299021423E-1,3.404881656E-1
6.694861615E0,-9.801290035E-1,6.707863808E-1,5.929556489E-1
6.699925469E0,-1.127135515E0,1.046824574E0,8.283788562E-1
6.704989271E0,-1.216617584E0,1.384513021E0,9.892336726E-1
6.710053125E0,-1.252836466E0,1.663612008E0,1.060606360E0
6.715116927E0,-1.237922788E0,1.888382673E0,1.047823071E0
6.720180261E0,-1.143114328E0,2.142980337E0,9.444925785E-1
6.725244115E0,-1.033392191E0,2.245245934E0,8.028125763E-1
6.730307969E0,-9.524321556E-1,2.063085556E0,6.536756754E-1
6.735371771E0,-8.810594678E-1,1.703026772E0,4.672545195E-1
6.740435625E0,-7.926425934E-1,1.226853967E0,2.222439498E-1
6.745499427E0,-6.669415236E-1,6.878306866E-1,-4.620247707E-2
6.750564479E0,-5.156741142E-1,7.743466645E-2,-3.071920574E-1
6.755628334E0,-3.175350726E-1,-5.105907917E-1,-5.330278873E-1
6.760692188E0,-1.012865975E-1,-1.093289971E0,-6.832300425E-1
6.765755990E0,3.613240644E-2,-1.752688050E0,-7.375584841E-1
6.770819844E0,-3.950130194E-2,-2.485589266E0,-6.981437206E-1
6.775883646E0,-2.781203091E-1,-2.911694765E0,-6.363584399E-1
6.780946979E0,-5.955688953E-1,-2.952174902E0,-5.628553033E-1
6.786010834E0,-8.767984509E-1,-2.738056898E0,-4.318278730E-1
6.791074688E0,-1.009956479E0,-2.320473671E0,-2.251667380E-1
6.796138490E0,-9.779984355E-1,-1.731382728E0,-3.961445764E-4
6.801202344E0,-8.128826022E-1,-1.070919394E0,1.817639172E-1
6.806266146E0,-5.721330643E-1,-4.935465753E-1,2.691155076E-1
6.811328177E0,-3.367098272E-1,-1.207043454E-1,2.456797361E-1
6.816392031E0,-1.396360844E-1,2.417149581E-2,1.796333939E-1
6.821455886E0,3.293661773E-2,5.825993046E-2,1.018691584E-1
6.826519688E0,1.842040271E-1,6.678203493E-2,2.836596966E-2
6.831583542E0,3.344062269E-1,4.015045241E-2,-4.194141924E-2
6.836647344E0,5.112399459E-1,-5.891905725E-2,-1.154446006E-1
6.841713802E0,7.306842208E-1,-2.932770252E-1,-2.155793607E-1
6.846777656E0,9.980652928E-1,-6.757066250E-1,-3.636510074E-1
6.851841511E0,1.288882256E0,-1.119921446E0,-5.415499806E-1
6.856905313E0,1.557328582E0,-1.516199470E0,-7.247753143E-1
6.861969167E0,1.760793924E0,-1.808081746E0,-9.090659022E-1
6.867032969E0,1.880103469E0,-1.987045884E0,-1.095487118E0
6.872097240E0,1.903539181E0,-2.061614513E0,-1.300017595E0
6.877161094E0,1.835362434E0,-2.055222988E0,-1.500287175E0
6.882224948E0,1.708596110E0,-1.976393342E0,-1.659011483E0
6.887288750E0,1.549871683E0,-1.829386950E0,-1.748493552E0
6.892352604E0,1.385821223E0,-1.638704896E0,-1.762342095E0
6.897416406E0,1.242010593E0,-1.438435197E0,-1.676055670E0
6.902481042E0,1.140810609E0,-1.273319364E0,-1.459807158E0
6.907544896E0,1.113113761E0,-1.152944565E0,-1.124249101E0
6.912608698E0,1.162115932E0,-1.068788886E0,-7.556679845E-1
6.917672552E0,1.217509508E0,-1.075180411E0,-4.723078907E-1
6.922736406E0,1.221770644E0,-1.231774211E0,-3.029310107E-1
6.927800209E0,1.186617017E0,-1.485306859E0,-1.910783052E-1
6.932864063E0,1.151463270E0,-1.762275457E0,-1.175751239E-1
6.937927917E0,1.151463270E0,-1.992372394E0,-9.094354510E-2
6.942991771E0,1.187682152E0,-2.172401905E0,-1.197056547E-1
6.948055573E0,1.228162289E0,-2.347105265E0,-1.953393519E-1
6.953119427E0,1.283555984E0,-2.439783096E0,-3.146488965E-1
6.958183229E0,1.349602222E0,-2.425934553E0,-4.659163058E-1
6.963245990E0,1.383690715E0,-2.341778755E0,-6.193142533E-1
6.968309844E0,1.376233816E0,-2.199033499E0,-7.609943151E-1
6.973373698E0,1.352797985E0,-2.028591394E0,-8.941522241E-1
6.978437500E0,1.341080070E0,-1.876258612E0,-9.644596577E-1
6.983501354E0,1.341080070E0,-1.747361779E0,-9.825690985E-1
6.988565156E0,1.336819172E0,-1.645096302E0,-9.729817510E-1
6.993593854E0,1.319774985E0,-1.558810115E0,-9.420890808E-1
6.998657656E0,1.298469663E0,-1.486372113E0,-8.962827921E-1
7.003721511E0,1.276099086E0,-1.421391010E0,-8.291711211E-1
7.008785313E0,1.264381170E0,-1.339365721E0,-7.652553916E-1
7.013849167E0,1.251598001E0,-1.252014160E0,-7.226448059E-1
7.018912969E0,1.239880204E0,-1.184902549E0,-7.087963820E-1
7.024013959E0,1.211117983E0,-1.154009938E0,-7.205142975E-1
7.029077865E0,1.169572711E0,-1.206207752E0,-7.641900778E-1
7.034141823E0,1.134418964E0,-1.289298415E0,-8.291711211E-1
7.039205729E0,1.099265337E0,-1.336169958E0,-8.994785547E-1
7.044269636E0,1.058785319E0,-1.322321534E0,-9.495459795E-1
7.049333594E0,1.024696946E0,-1.275449991E0,-9.942870140E-1
7.054357500E0,9.724990726E-1,-1.267993093E0,-1.045419693E0
7.059421406E0,8.979305625E-1,-1.245622635E0,-1.085899711E0
7.064485365E0,8.446673751E-1,-1.161466718E0,-1.102943897E0
7.069549271E0,8.159052730E-1,-1.083702564E0,-1.099748015E0
7.074613229E0,7.988610268E-1,-1.047483563E0,-1.083769202E0
7.079677136E0,7.818168402E-1,-1.062397242E0,-1.062463880E0
7.084781042E0,7.615768909E-1,-1.114595175E0,-1.041158557E0
7.089844948E0,7.317494750E-1,-1.190228939E0,-1.024114370E0
7.094908906E0,6.976610422E-1,-1.281841636E0,-1.009200692E0
7.099972813E0,6.550505161E-1,-1.381976366E0,-9.964175224E-1
7.105036771E0,6.049830914E-1,-1.483176351E0,-9.942870140E-1
7.110100677E0,5.485241413E-1,-1.571593165E0,-9.921565056E-1
7.115140521E0,4.782167971E-1,-1.629117489E0,-9.846996665E-1
7.120204479E0,3.993873000E-1,-1.664271116E0,-9.719164371E-1
7.125268386E0,3.141661882E-1,-1.670662761E0,-9.516764283E-1
7.130332344E0,2.310756147E-1,-1.642965794E0,-9.207838178E-1
7.135396250E0,1.543766409E-1,-1.593963742E0,-8.813690543E-1
7.140460209E0,8.833031356E-2,-1.528982639E0,-8.430196047E-1
7.145535573E0,2.974082530E-2,-1.444826841E0,-8.142574430E-1
7.150599479E0,-1.286971476E-2,-1.335104823E0,-7.897564173E-1
7.155663438E0,-4.695814475E-2,-1.206207752E0,-7.599290013E-1
7.160727344E0,-6.506762654E-2,-1.059201479E0,-7.269058824E-1
7.165791302E0,-7.145921886E-2,-9.036730528E-1,-7.024047971E-1
7.170855209E0,-6.932868809E-2,-7.534708977E-1,-6.800342798E-1
7.175926875E0,-5.334972963E-2,-6.448140144E-1,-6.459458470E-1
7.180990781E0,-3.524024785E-2,-5.169823766E-1,-6.267710924E-1
7.186054740E0,-3.204445913E-2,-3.710412681E-1,-6.012047529E-1
7.191118646E0,-2.991393022E-2,-2.698412240E-1,-5.575289726E-1
7.196182552E0,-2.352234907E-2,-1.963380575E-1,-5.085268617E-1
7.201246511E0,-1.819603145E-2,-1.420096308E-1,-4.510026276E-1
7.206312448E0,-1.606550440E-2,-8.022432774E-2,-3.817605078E-1
7.211376406E0,-1.713076793E-2,-1.311272848E-2,-2.997351885E-1
7.216440365E0,-2.458761260E-2,6.039045379E-2,-2.166446149E-1
7.221504271E0,-4.269709066E-2,1.424157470E-1,-1.335540712E-1
7.226568229E0,-6.400236487E-2,2.265715450E-1,-5.472458154E-2
7.231632136E0,-9.809080511E-2,3.171189427E-1,2.090912499E-2
7.236696042E0,-1.375055611E-1,4.055358171E-1,1.103912592E-1
7.241759948E0,-1.779855639E-1,4.630600512E-1,2.211786807E-1
7.246823906E0,-2.280529588E-1,5.237800479E-1,3.266397417E-1
7.251887813E0,-3.026213646E-1,5.823695660E-1,4.331661165E-1
7.256951771E0,-4.187350869E-1,6.015442610E-1,5.375619531E-1
7.262015677E0,-5.657414794E-1,6.164579988E-1,6.281093359E-1
7.267074636E0,-7.372489572E-1,6.409590244E-1,7.048082948E-1
7.272138542E0,-9.194089770E-1,7.091358900E-1,7.687241435E-1
7.277202500E0,-1.102634430E0,8.135316968E-1,8.337051868E-1
7.282266406E0,-1.274141788E0,9.530812502E-1,9.018819928E-1
7.287330313E0,-1.449910283E0,1.125653982E0,9.626020789E-1
7.292394271E0,-1.638461828E0,1.264138222E0,1.025452614E0
7.297423750E0,-1.858971357E0,1.352555156E0,1.101086259E0
7.302487709E0,-2.089068413E0,1.427123666E0,1.172459006E0
7.307551615E0,-2.257379770E0,1.560281515E0,1.223591685E0
7.312615573E0,-2.380950451E0,1.759485841E0,1.264071703E0
7.317679479E0,-2.508781910E0,1.982125878E0,1.278985381E0
7.322743438E0,-2.658984184E0,2.221810102E0,1.271528482E0
7.327846302E0,-2.813447475E0,2.472146988E0,1.254484296E0
7.332910261E0,-2.951931715E0,2.661763906E0,1.207612634E0
7.337974219E0,-3.047805309E0,2.711831331E0,1.117065310E0
7.343038125E0,-3.093611717E0,2.586130142E0,9.785810113E-1
7.348102084E0,-3.093611717E0,2.303835392E0,8.134651780E-1
7.353165990E0,-3.089350462E0,1.903296351E0,6.387619376E-1
7.358225104E0,-3.088285446E0,1.402622581E0,4.651239812E-1
7.363289063E0,-3.080828667E0,7.922264934E-1,3.138566017E-1
7.368353021E0,-3.070175886E0,1.285673082E-1,2.030691952E-1
7.373416927E0,-3.053131819E0,-5.148518682E-1,1.444797069E-1
7.378480886E0,-3.027565479E0,-1.063462615E0,1.412838995E-1
7.383544792E0,-2.981759071E0,-1.452283740E0,2.105260342E-1
7.388608386E0,-2.902929544E0,-1.670662761E0,3.340965807E-1
7.393672292E0,-2.777228594E0,-1.712208033E0,4.821682274E-1
7.398736250E0,-2.622765303E0,-1.571593165E0,6.366314292E-1
7.403800156E0,-2.481085062E0,-1.318060398E0,7.932251692E-1
7.408864063E0,-2.376689434E0,-1.013395071E0,9.466230869E-1
7.413928021E0,-2.298925161E0,-6.778371930E-1,1.084042072E0
7.418991927E0,-2.232878923E0,-3.273654580E-1,1.219330549E0
7.424055834E0,-2.177484989E0,2.736728452E-2,1.336509466E0
7.429119792E0,-2.128482819E0,3.863610923E-1,1.434513807E0
7.434183698E0,-2.080546141E0,7.592032552E-1,1.523995996E0
7.439247656E0,-2.004912376E0,1.156546593E0,1.608151793E0
7.444311563E0,-1.899451494E0,1.515540481E0,1.668871880E0
7.449375209E0,-1.770554543E0,1.808487892E0,1.706156015E0
7.454439115E0,-1.633135557E0,2.031127930E0,1.730657101E0
7.459503073E0,-1.504238725E0,2.184525967E0,1.740244389E0
7.464566979E0,-1.389190316E0,2.298509121E0,1.725330710E0
7.469630938E0,-1.277337670E0,2.409296274E0,1.684850693E0
7.474694844E0,-1.156962752E0,2.538193226E0,1.640109658E0
7.479750365E0,-1.025935411E0,2.663894415E0,1.601760149E0
7.484814271E0,-9.002342224E-1,2.742723942E0,1.565541267E0
7.489878229E0,-7.841205001E-1,2.756572247E0,1.531452775E0
7.494942136E0,-6.861162186E-1,2.727810383E0,1.498429537E0
7.500006094E0,-5.945035815E-1,2.683068991E0,1.465406537E0
7.505070000E0,-5.103477836E-1,2.597848177E0,1.433448434E0
7.510133854E0,-4.336487651E-1,2.457233429E0,1.406816840E0
7.515197813E0,-3.505582213E-1,2.301704884E0,1.371663213E0
7.520261771E0,-2.504234612E-1,2.155763626E0,1.337574840E0
7.525325677E0,-1.492234468E-1,2.002365589E0,1.297094822E0
7.530389636E0,-4.163182899E-2,1.845772147E0,1.255549550E0
7.535453542E0,6.915556639E-2,1.719005823E0,1.218265295E0
7.540525521E0,1.831387579E-1,1.622066736E0,1.180981040E0
7.545589427E0,2.949914634E-1,1.542172074E0,1.139435768E0
7.550653386E0,4.004525542E-1,1.469734073E0,1.088303089E0
7.555717292E0,4.941957295E-1,1.416470885E0,1.027583122E0
7.560781198E0,5.666336417E-1,1.393035173E0,9.594062567E-1
7.565845156E0,6.284189224E-1,1.389839292E0,8.880336285E-1
7.570908229E0,6.774210334E-1,1.395165563E0,8.241177797E-1
7.575972136E0,7.104441524E-1,1.407948852E0,7.655283213E-1
7.581036094E0,7.370757461E-1,1.419666767E0,7.101345658E-1
7.586100000E0,7.573158145E-1,1.430319309E0,6.526103616E-1
7.591163959E0,7.775558233E-1,1.435645700E0,5.982819200E-1
7.596227865E0,8.041874170E-1,1.424993038E0,5.428882241E-1
7.601290156E0,8.457326889E-1,1.393035173E0,4.906903505E-1
7.606354063E0,9.053874016E-1,1.340837240E0,4.459492564E-1
7.611417969E0,9.799559116E-1,1.253485560E0,4.065345228E-1
7.616481927E0,1.075829506E0,1.137371898E0,3.777723908E-1
7.621545886E0,1.196204305E0,1.006344557E0,3.681850433E-1
7.626609792E0,1.340014935E0,8.593380451E-1,3.745765984E-1
7.631673959E0,1.495543361E0,6.867653728E-1,3.894903064E-1
7.636737865E0,1.662789702E0,4.833000898E-1,3.937513530E-1
7.641801823E0,1.840688705E0,2.553336918E-1,3.884250224E-1
7.646865729E0,2.023914099E0,1.671464927E-2,3.671197593E-1
7.651929688E0,2.198617458E0,-2.219043821E-1,3.351618648E-1
7.656993594E0,2.360537291E0,-4.583928883E-1,2.904207706E-1
7.662057396E0,2.491564989E0,-6.895551085E-1,2.328965813E-1
7.667121354E0,2.588503838E0,-9.111298919E-1,1.593933851E-1
7.672185313E0,2.643897533E0,-1.123117208E0,6.991124898E-2
7.677249219E0,2.653484821E0,-1.321256280E0,-4.407195002E-2
7.682313177E0,2.622592211E0,-1.499155283E0,-1.836214662E-1
7.687377084E0,2.537371159E0,-1.675989032E0,-3.253014982E-1
7.692441042E0,2.377581596E0,-1.834713340E0,-4.563289583E-1
7.697504948E0,2.131505966E0,-1.940174341E0,-5.724426508E-1
7.702568906E0,1.774642348E0,-1.909281731E0,-6.672511101E-1
7.707632813E0,1.316579103E0,-1.716469049E0,-7.151879668E-1
7.712696719E0,7.999263406E-1,-1.369193196E0,-6.842953563E-1
7.717760677E0,2.555767298E-1,-9.707846642E-1,-5.426152945E-1
7.722822917E0,-3.068824112E-1,-6.096603274E-1,-2.720383704E-1
7.727886823E0,-8.544278741E-1,-2.410791367E-1,1.039996818E-1
7.732950781E0,-1.347645044E0,2.478768080E-1,4.427534938E-1
7.738014688E0,-1.759902000E0,8.454896808E-1,6.739156246E-1
7.743078646E0,-2.013434649E0,1.398361444E0,8.273136020E-1
7.748142552E0,-2.084807158E0,1.823401570E0,9.455578327E-1
7.753199792E0,-2.007042885E0,2.101435184E0,9.977557659E-1
7.758263698E0,-1.838731408E0,2.284660578E0,9.519494176E-1
7.763327604E0,-1.642722964E0,2.395447969E0,8.283788562E-1
7.768391563E0,-1.452040792E0,2.359229088E0,6.643283367E-1
7.773455521E0,-1.261358619E0,2.166416168E0,4.736461043E-1
7.778519427E0,-1.063219547E0,1.878795266E0,2.595281303E-1
7.783590261E0,-8.288615346E-1,1.483582497E0,6.778072566E-2
7.788654167E0,-5.348488688E-1,9.711906910E-1,-1.026614383E-1
7.793718125E0,-2.056824267E-1,3.480115831E-1,-2.581899166E-1
7.798782031E0,1.618334949E-1,-3.401486278E-1,-4.222404957E-1
7.803845990E0,5.538504720E-1,-1.037896156E0,-6.054658294E-1
7.808909896E0,8.627768755E-1,-1.791037560E0,-7.514069080E-1
7.813910521E0,1.012978911E0,-2.499437809E0,-8.440848589E-1
7.818974479E0,9.629116654E-1,-2.988393784E0,-9.367627501E-1
7.824038386E0,6.667683721E-1,-3.137530804E0,-1.034766912E0
7.829102344E0,1.117661074E-1,-2.863758087E0,-1.080573320E0
7.834166250E0,-6.019604206E-1,-2.261883974E0,-9.996132851E-1
7.839230209E0,-1.235792279E0,-1.546026945E0,-7.546027303E-1
7.844357240E0,-1.513826013E0,-8.014077544E-1,-4.169141948E-1
7.849421146E0,-1.404103994E0,-1.633148938E-1,-1.367498636E-1
7.854485104E0,-1.121809006E0,2.340283990E-1,3.901860490E-2
7.859549011E0,-8.299268484E-1,3.245758116E-1,1.423491687E-1
7.864612969E0,-5.657414794E-1,1.189799383E-1,1.870902479E-1
7.869676875E0,-3.090129495E-1,-2.123170197E-1,1.924165636E-1
7.874719427E0,-5.548025668E-2,-4.956770837E-1,1.700460166E-1
7.879783334E0,1.969871968E-1,-7.247087955E-1,1.178481057E-1
7.884847240E0,4.494546652E-1,-9.750456810E-1,1.771333441E-2
7.889911198E0,7.157705426E-1,-1.238165736E0,-9.840039164E-2
7.894975104E0,9.938042760E-1,-1.492763758E0,-1.910783052E-1
7.900039063E0,1.251598001E0,-1.755883813E0,-2.826909721E-1
7.905124063E0,1.464650631E0,-1.976393342E0,-3.988047242E-1
7.910187969E0,1.623375058E0,-2.106355429E0,-5.532678962E-1
7.915251927E0,1.717118144E0,-2.140444040E0,-7.311669588E-1
7.920315834E0,1.746945620E0,-2.092507124E0,-9.080006480E-1
7.925379792E0,1.723509789E0,-1.987045884E0,-1.079508066E0
7.930443698E0,1.639353871E0,-1.863475323E0,-1.255276561E0
7.935506823E0,1.512587547E0,-1.762275457E0,-1.420392513E0
7.940570729E0,1.377299070E0,-1.704751134E0,-1.542897701E0
7.945634688E0,1.257989526E0,-1.720730186E0,-1.578051448E0
7.950698594E0,1.187682152E0,-1.788907051E0,-1.490699887E0
7.955762552E0,1.154659033E0,-1.867736459E0,-1.251015544E0
7.960826459E0,1.173833728E0,-1.874128103E0,-8.781732917E-1
7.965867448E0,1.238814831E0,-1.836843729E0,-4.680468440E-1
7.970931406E0,1.283555984E0,-1.856018543E0,-1.836214662E-1
7.975995313E0,1.280360103E0,-1.967871189E0,-2.702773362E-2
7.981059271E0,1.261185288E0,-2.123399973E0,5.393229425E-2
7.986123177E0,1.255859017E0,-2.257622957E0,6.565019488E-2
7.991187084E0,1.277164340E0,-2.337517738E0,2.410491370E-2
7.996277500E0,1.303795934E0,-2.386519909E0,-6.005089730E-2
8.001341406E0,1.331492782E0,-2.420608521E0,-1.825561970E-1
8.006405365E0,1.375168562E0,-2.388650417E0,-3.540636301E-1
8.011469271E0,1.414583325E0,-2.252296686E0,-5.330278873E-1
8.016533229E0,1.410322309E0,-2.089311361E0,-6.683163643E-1
8.021597136E0,1.380494952E0,-1.896498561E0,-7.854953408E-1
8.026661771E0,1.338949561E0,-1.687706947E0,-9.133269787E-1
8.031725625E0,1.303795934E0,-1.510873199E0,-1.004939675E0
8.036789531E0,1.272903204E0,-1.397955179E0,-1.044354320E0
8.041853438E0,1.236684322E0,-1.355344772E0,-1.045419693E0
8.046917344E0,1.204726458E0,-1.378780603E0,-1.037962794E0
8.051981250E0,1.163181186E0,-1.452283740E0,-1.018788099E0
8.057040104E0,1.117374778E0,-1.530047894E0,-9.804385900E-1
8.062104011E0,1.083286405E0,-1.588637471E0,-9.271754026E-1
8.067167865E0,1.053459048E0,-1.628052115E0,-8.834995627E-1
8.072231771E0,1.014044166E0,-1.682380676E0,-8.717816472E-1
8.077295677E0,9.852821827E-1,-1.730317473E0,-8.771080375E-1
8.082359584E0,9.693032503E-1,-1.755883813E0,-8.941522241E-1
8.087423021E0,9.597158432E-1,-1.766536355E0,-9.207838178E-1
8.092486927E0,9.586505890E-1,-1.760144830E0,-9.463501573E-1
8.097550781E0,9.661074281E-1,-1.727121711E0,-9.740470052E-1
8.102614688E0,9.629116654E-1,-1.658944845E0,-1.007070184E0
8.107678594E0,9.479979277E-1,-1.562005877E0,-1.039028049E0
8.112742500E0,9.256274104E-1,-1.440565825E0,-1.063529134E0
8.117806875E0,9.075179696E-1,-1.351083636E0,-1.073116422E0
8.122870781E0,8.872779012E-1,-1.273319364E0,-1.085899711E0
8.127934636E0,8.638421297E-1,-1.228578448E0,-1.093356609E0
8.132998542E0,8.436021209E-1,-1.205142617E0,-1.097617507E0
8.138062448E0,8.297536969E-1,-1.206207752E0,-1.106139660E0
8.143126354E0,8.169705272E-1,-1.226447821E0,-1.116792321E0
8.148190625E0,8.041874170E-1,-1.258405805E0,-1.130640745E0
8.153254531E0,7.796863317E-1,-1.282906771E0,-1.143423915E0
8.158318386E0,7.583810687E-1,-1.295689940E0,-1.154076576E0
8.163382292E0,7.274884582E-1,-1.287167907E0,-1.155141830E0
8.168446146E0,7.019220591E-1,-1.270123720E0,-1.148750186E0
8.173510052E0,6.657031775E-1,-1.256275177E0,-1.134901762E0
8.178565886E0,6.113747358E-1,-1.269058347E0,-1.125314474E0
8.183629792E0,5.410673022E-1,-1.301016212E0,-1.116792321E0
8.188693646E0,4.664988816E-1,-1.338300467E0,-1.102943897E0
8.193757604E0,3.887346387E-1,-1.347887874E0,-1.078442812E0
8.198821459E0,3.131009340E-1,-1.316995263E0,-1.043289185E0
8.203885365E0,2.449240386E-1,-1.253079414E0,-9.974827766E-1
8.208948646E0,1.852692962E-1,-1.158270955E0,-9.484806657E-1
8.214012552E0,1.426587552E-1,-1.044287801E0,-8.973480463E-1
8.219076459E0,1.160271615E-1,-9.185867906E-1,-8.600637913E-1
8.224140313E0,9.685242176E-2,-7.886245847E-1,-8.355627656E-1
8.229204219E0,9.152610600E-2,-6.746413708E-1,-8.227795959E-1
8.234268125E0,8.513452113E-2,-5.713108182E-1,-8.313016891E-1
8.239332136E0,6.702504307E-2,-4.647844434E-1,-8.494111896E-1
8.244396042E0,5.211136118E-2,-3.816938996E-1,-8.558027148E-1
8.249459896E0,4.891556874E-2,-3.145823181E-1,-8.558027148E-1
8.254523802E0,5.530714989E-2,-2.591885924E-1,-8.344975114E-1
8.259587709E0,7.767767459E-2,-2.112517506E-1,-8.004090786E-1
8.264651615E0,8.726505190E-2,-1.057906598E-1,-7.609943151E-1
8.269715417E0,1.032439992E-1,-1.524325553E-2,-6.970784664E-1
8.274779323E0,1.330713779E-1,5.186834559E-2,-6.310321689E-1
8.279843229E0,1.714208573E-1,1.296325624E-1,-5.649858117E-1
8.284907084E0,2.108356059E-1,2.265715450E-1,-4.904173613E-1
8.289970990E0,2.438587844E-1,3.384242356E-1,-4.147836566E-1
8.295034896E0,2.715556622E-1,4.492116272E-1,-3.391499519E-1
8.300105729E0,2.928609252E-1,5.301716328E-1,-2.677772939E-1
8.305169636E0,2.875346243E-1,5.834347606E-1,-2.123835683E-1
8.310233490E0,2.406629920E-1,6.100663543E-1,-1.569898725E-1
8.315297396E0,1.650292873E-1,6.217842698E-1,-9.840039164E-2
8.320361302E0,7.341662049E-2,6.516116858E-1,-4.407195002E-2
8.325425209E0,-3.417498618E-2,6.867653728E-1,3.864909522E-3
8.330489271E0,-1.545497626E-1,6.920917034E-1,4.754071683E-2
8.335553177E0,-2.823813558E-1,6.718516946E-1,8.162914217E-2
8.340617031E0,-4.240614176E-1,6.569380164E-1,1.178481057E-1
8.345680938E0,-5.763941407E-1,6.675906181E-1,1.647197157E-1
8.350744844E0,-7.255309820E-1,7.006137967E-1,2.201133966E-1
8.355808750E0,-8.672110438E-1,7.442895770E-1,2.818986773E-1
8.360873021E0,-1.004630089E0,8.124664426E-1,3.532713354E-1
8.365936927E0,-1.146310210E0,8.891654611E-1,4.427534938E-1
8.371000781E0,-1.296512246E0,9.999528527E-1,5.439534783E-1
8.376064688E0,-1.452040792E0,1.095826626E0,6.685893536E-1
8.381128594E0,-1.606503963E0,1.165068746E0,8.028125763E-1
8.386192500E0,-1.753510356E0,1.264138222E0,9.199914932E-1
8.391241719E0,-1.871754646E0,1.426058292E0,1.044627309E0
8.396305573E0,-1.966563106E0,1.615675211E0,1.171393633E0
8.401369479E0,-2.050718784E0,1.799965739E0,1.278985381E0
8.406433386E0,-2.141266108E0,1.975734234E0,1.362075925E0
8.411497240E0,-2.245661974E0,2.119544744E0,1.416404247E0
8.416561146E0,-2.343666315E0,2.198374271E0,1.437709570E0
8.421638594E0,-2.406516790E0,2.173873186E0,1.411077976E0
8.426702500E0,-2.435278893E0,2.031127930E0,1.341835856E0
8.431766354E0,-2.435278893E0,1.788247943E0,1.263006330E0
8.436830261E0,-2.420365095E0,1.480386853E0,1.189503193E0
8.441894167E0,-2.391602993E0,1.136306643E0,1.127717853E0
8.446958073E0,-2.345796824E0,8.028790951E-1,1.082976818E0
8.452021615E0,-2.273358822E0,5.109969378E-1,1.066997886E0
8.457085521E0,-2.177484989E0,2.723779082E-1,1.086172581E0
8.462149375E0,-2.063501835E0,1.019357294E-1,1.143696904E0
8.467213281E0,-1.938866138E0,-1.098220143E-2,1.232113719E0
8.472277188E0,-1.799316764E0,-8.342012018E-2,1.332248569E0
8.477341094E0,-1.649114490E0,-1.068559214E-1,1.390838027E0
8.482405625E0,-1.536196589E0,-8.768117428E-2,1.470732808E0
8.487469531E0,-1.453106046E0,7.356976275E-4,1.609217048E0
8.492533386E0,-1.391320825E0,2.116578668E-1,1.766875982E0
8.497597292E0,-1.376407027E0,5.078011155E-1,1.897903442E0
8.502661198E0,-1.409430265E0,8.273801804E-1,1.977798223E0
8.507725104E0,-1.457367182E0,1.149089813E0,1.961819172E0
8.512754636E0,-1.504238725E0,1.456950903E0,1.880859256E0
8.517818490E0,-1.563893437E0,1.681721568E0,1.804160237E0
8.522882396E0,-1.637396574E0,1.798900485E0,1.725330710E0
8.527946302E0,-1.688529253E0,1.854294300E0,1.644370675E0
8.533010156E0,-1.716226220E0,1.869207978E0,1.580454946E0
8.538074063E0,-1.724748254E0,1.869207978E0,1.536779046E0
8.543174531E0,-1.694920897E0,1.921405911E0,1.499494910E0
8.548238386E0,-1.636331439E0,2.027932167E0,1.455819130E0
8.553302292E0,-1.580937743E0,2.115283728E0,1.414273858E0
8.558366198E0,-1.538327098E0,2.149372101E0,1.371663213E0
8.563430052E0,-1.503173470E0,2.162155151E0,1.321595788E0
8.568493959E0,-1.461628199E0,2.172807932E0,1.268332601E0
8.573537448E0,-1.419017673E0,2.176003695E0,1.223591685E0
8.578601354E0,-1.380668163E0,2.158959389E0,1.173524261E0
8.583665209E0,-1.351905942E0,2.103565931E0,1.110673666E0
8.588729115E0,-1.329535484E0,2.017279387E0,1.048888445E0
8.593793021E0,-1.306099653E0,1.911818504E0,9.924294353E-1
8.598856927E0,-1.267750263E0,1.820205808E0,9.498189092E-1
8.603942865E0,-1.209160686E0,1.722201467E0,9.274483919E-1
8.609006771E0,-1.149505973E0,1.594370008E0,9.231873155E-1
8.614070625E0,-1.084524870E0,1.465473056E0,9.221220613E-1
8.619134531E0,-1.008891106E0,1.377056241E0,9.189262986E-1
8.624198438E0,-9.204742312E-1,1.342967749E0,9.061430693E-1
8.629262292E0,-8.277962804E-1,1.355750918E0,8.869683146E-1
8.634301719E0,-7.340531349E-1,1.407948852E0,8.614020348E-1
8.639365625E0,-6.477667689E-1,1.483582497E0,8.273136020E-1
8.644429479E0,-5.646762252E-1,1.583717227E0,7.974861860E-1
8.649493386E0,-4.837161601E-1,1.680656314E0,7.687241435E-1
8.654557292E0,-4.112782478E-1,1.770138383E0,7.410272360E-1
8.659621198E0,-3.399055898E-1,1.857490063E0,7.080041170E-1
8.664709688E0,-2.653371394E-1,1.930993199E0,6.685893536E-1
8.669773594E0,-1.843771338E-1,1.992778420E0,6.355661750E-1
8.674837448E0,-8.530763537E-2,2.053498507E0,6.014777422E-1
8.679901354E0,2.015345544E-2,2.108891964E0,5.631282330E-1
8.684965261E0,1.352019012E-1,2.133393288E0,5.322356224E-1
8.690029115E0,2.736861706E-1,2.116348743E0,5.066692829E-1
8.695091302E0,4.132357240E-1,2.064151049E0,4.683198035E-1
8.700155209E0,5.442630649E-1,1.957624793E0,4.235787392E-1
8.705219115E0,6.720947027E-1,1.814879537E0,3.852292597E-1
8.710283021E0,8.031221628E-1,1.626327872E0,3.575323820E-1
8.715346875E0,9.394758344E-1,1.393035173E0,3.500755429E-1
8.720410781E0,1.089678049E0,1.126719236E0,3.564671278E-1
8.725475938E0,1.259054780E0,8.295106888E-1,3.681850433E-1
8.730539844E0,1.441214919E0,5.067358613E-1,3.777723908E-1
8.735603698E0,1.624440193E0,1.615904868E-1,3.788376451E-1
8.740667604E0,1.808730841E0,-1.984685808E-1,3.777723908E-1
8.745731459E0,1.973846674E0,-5.468097925E-1,3.703155518E-1
8.750795417E0,2.107004642E0,-8.738456964E-1,3.607281744E-1
8.755855313E0,2.197551966E0,-1.163597345E0,3.415534496E-1
8.760919219E0,2.247619390E0,-1.406477332E0,3.085302711E-1
8.765983073E0,2.255076408E0,-1.605681658E0,2.595281303E-1
8.771046979E0,2.218857527E0,-1.771862745E0,1.966776103E-1
8.776110886E0,2.142158508E0,-1.899694324E0,1.178481057E-1
8.781174792E0,2.030305862E0,-1.992372394E0,2.090912499E-2
8.786242761E0,1.877972960E0,-2.026460886E0,-8.668248355E-2
8.791306667E0,1.683029652E0,-1.990241766E0,-1.889477819E-1
8.796370521E0,1.453998089E0,-1.866671205E0,-2.901478410E-1
8.801434427E0,1.185551643E0,-1.661075354E0,-3.657815158E-1
8.806498334E0,8.840821981E-1,-1.332974195E0,-3.988047242E-1
8.811562240E0,5.613073111E-1,-8.908898830E-1,-3.860215545E-1
8.816626615E0,2.481198311E-1,-4.072602093E-1,-3.253014982E-1
8.821690469E0,-3.524024785E-2,4.654202983E-2,-2.123835683E-1
8.826754375E0,-2.664024234E-1,4.193842709E-1,-4.726773873E-2
8.831818281E0,-4.432361424E-1,6.814390421E-1,1.391533762E-1
8.836882188E0,-5.593498945E-1,8.316411972E-1,3.095955253E-1
8.841946094E0,-6.296573281E-1,9.488202333E-1,4.427534938E-1
8.846977865E0,-6.818552017E-1,1.046824574E0,5.482145548E-1
8.852041771E0,-7.202047110E-1,1.135241389E0,6.313050985E-1
8.857105625E0,-7.372489572E-1,1.224723458E0,6.771114469E-1
8.862169531E0,-7.276615500E-1,1.337641478E0,6.600672007E-1
8.867233438E0,-6.914426088E-1,1.510214090E0,5.673893094E-1
8.872297292E0,-6.818552017E-1,1.594370008E0,4.427534938E-1
8.877392865E0,-7.255309820E-1,1.505953074E0,3.063997626E-1
8.882456771E0,-7.937078476E-1,1.334445596E0,1.498060226E-1
8.887520625E0,-8.522973657E-1,1.136306643E0,-2.915825881E-2
8.892584531E0,-8.895815611E-1,8.433591127E-1,-2.070572525E-1
8.897648438E0,-8.512321115E-1,4.864958525E-1,-3.498025835E-1
8.902712344E0,-7.329878211E-1,1.800961210E-3,-4.595247209E-1
8.907775886E0,-6.158088446E-1,-6.597276926E-1,-5.362237096E-1
8.912839792E0,-5.529583693E-1,-1.237100482E0,-5.990742445E-1
8.917903646E0,-5.497625470E-1,-1.618464708E0,-6.480763555E-1
8.922967552E0,-5.657414794E-1,-1.829386950E0,-6.736426950E-1
8.928031459E0,-5.433709621E-1,-1.894368052E0,-6.576637626E-1
8.933095365E0,-4.922382534E-1,-1.842170238E0,-5.788342357E-1
8.938159740E0,-4.421708584E-1,-1.707946897E0,-4.414152503E-1
8.943223646E0,-3.420360982E-1,-1.532178521E0,-2.848215103E-1
8.948287500E0,-1.833118796E-1,-1.410738468E0,-1.974698752E-1
8.953351406E0,-8.608660661E-3,-1.395824790E0,-1.772298664E-1
8.958415261E0,1.639640182E-1,-1.404346824E0,-1.495330334E-1
8.963479219E0,3.397325277E-1,-1.386237383E0,-1.175751239E-1
8.968543229E0,5.218925476E-1,-1.367062688E0,-7.709511369E-2
8.973607136E0,7.274884582E-1,-1.390498400E0,-5.152879283E-2
8.978671042E0,9.554548264E-1,-1.451218367E0,-6.644248217E-2
8.983734896E0,1.219640017E0,-1.520460606E0,-1.346193403E-1
8.988798802E0,1.489151716E0,-1.608877420E0,-2.496678084E-1
8.993862656E0,1.711791873E0,-1.699424863E0,-3.966741562E-1
8.998925209E0,1.857732892E0,-1.752688050E0,-5.905521512E-1
9.003989115E0,1.930170774E0,-1.748426914E0,-8.206490278E-1
9.009052969E0,1.937627673E0,-1.668532133E0,-1.062463880E0
9.014116875E0,1.885429859E0,-1.544961572E0,-1.297887087E0
9.019180781E0,1.794882298E0,-1.393694282E0,-1.487504005E0
9.024244688E0,1.687290788E0,-1.213664651E0,-1.597226143E0
9.029309011E0,1.588221192E0,-1.037896156E0,-1.601487160E0
9.034372865E0,1.513652802E0,-8.951508999E-1,-1.506678700E0
9.039436771E0,1.472107530E0,-7.907550931E-1,-1.350084901E0
9.044500625E0,1.450802326E0,-7.534708977E-1,-1.176447034E0
9.049564479E0,1.436953902E0,-7.971466780E-1,-9.996132851E-1
9.054628386E0,1.422040224E0,-9.121951461E-1,-8.483458757E-1
9.059689948E0,1.390082359E0,-1.125247836E0,-7.556679845E-1
9.064753802E0,1.346406341E0,-1.416064739E0,-7.130574584E-1
9.069817709E0,1.312317967E0,-1.733513236E0,-7.066658139E-1
9.074881563E0,1.289947510E0,-2.027526140E0,-7.301017046E-1
9.079945469E0,1.278229594E0,-2.276797771E0,-7.865605950E-1
9.085009323E0,1.264381170E0,-2.451500893E0,-8.685859442E-1
9.090075573E0,1.247336984E0,-2.547374725E0,-9.687206745E-1
9.095139427E0,1.217509508E0,-2.582528353E0,-1.108270168E0
9.100203281E0,1.195139050E0,-2.540983200E0,-1.227579713E0
9.105267188E0,1.193008542E0,-2.428065300E0,-1.286169171E0
9.110331094E0,1.190877914E0,-2.262949228E0,-1.295756578E0
9.115394948E0,1.195139050E0,-2.053092480E0,-1.270190358E0
9.120459115E0,1.210052729E0,-1.802755356E0,-1.220122933E0
9.125522969E0,1.242010593E0,-1.556679487E0,-1.135967016E0
9.130586875E0,1.287816882E0,-1.345757365E0,-1.016657472E0
9.135650729E0,1.342145443E0,-1.180641532E0,-8.685859442E-1
9.140714636E0,1.397539139E0,-1.075180411E0,-7.237100601E-1
9.145778490E0,1.425235987E0,-1.028308749E0,-6.150532365E-1
9.150842136E0,1.423105359E0,-1.035765648E0,-5.404847264E-1
9.155906042E0,1.385821223E0,-1.077310920E0,-4.936131537E-1
9.160969844E0,1.308056951E0,-1.115660429E0,-4.584594667E-1
9.166033750E0,1.201530695E0,-1.149748802E0,-4.233057499E-1
9.171097656E0,1.082221150E0,-1.168923616E0,-3.966741562E-1
9.176161511E0,9.533243179E-1,-1.189163566E0,-3.817605078E-1
9.181225417E0,8.297536969E-1,-1.203011990E0,-3.881520629E-1
9.186289271E0,7.210968137E-1,-1.178511024E0,-4.051962793E-1
9.191353177E0,6.252231002E-1,-1.105007887E0,-4.201099873E-1
9.196417031E0,5.389367938E-1,-1.011264563E0,-4.435457885E-1
9.201480938E0,4.750210047E-1,-9.196519852E-1,-4.744384289E-1
9.206544792E0,4.345409870E-1,-8.397572041E-1,-5.170489550E-1
9.211607136E0,4.121704400E-1,-7.769067287E-1,-5.607247353E-1
9.216670990E0,4.047136307E-1,-7.481445670E-1,-6.033353209E-1
9.221734896E0,3.951262534E-1,-7.577319741E-1,-6.470111012E-1
9.226798750E0,3.919304311E-1,-7.982119322E-1,-6.874910593E-1
9.231862656E0,3.940609694E-1,-8.610625267E-1,-7.258405685E-1
9.236926511E0,4.068441391E-1,-9.548056722E-1,-7.567332387E-1
9.241989167E0,4.015178084E-1,-1.098616242E0,-7.546027303E-1
9.247053021E0,3.940609694E-1,-1.209403634E0,-7.556679845E-1
9.252116927E0,4.004525542E-1,-1.264797330E0,-7.641900778E-1
9.257180781E0,4.100399017E-1,-1.274384618E0,-7.737774849E-1
9.262244688E0,4.196272790E-1,-1.241361499E0,-7.791037560E-1
9.267308542E0,4.238883555E-1,-1.177445769E0,-7.876259089E-1
9.272352448E0,4.217578173E-1,-1.082637191E0,-8.014743328E-1
9.277416302E0,4.228230715E-1,-9.739804268E-1,-8.270406723E-1
9.282480209E0,4.249536097E-1,-8.578667045E-1,-8.621943593E-1
9.287544063E0,4.238883555E-1,-7.449487448E-1,-9.005438089E-1
9.292607969E0,4.260188937E-1,-6.384224296E-1,-9.474154115E-1
9.297671823E0,4.292146564E-1,-5.521360636E-1,-9.921565056E-1
9.302744792E0,4.238883555E-1,-4.903507829E-1,-1.030506015E0
9.307808646E0,4.164315164E-1,-4.477402270E-1,-1.059268117E0
9.312872552E0,4.036483467E-1,-4.285655022E-1,-1.075247049E0
9.317936459E0,3.834083080E-1,-4.104560316E-1,-1.068855524E0
9.323000313E0,3.567767441E-1,-3.816938996E-1,-1.028375506E0
9.328064167E0,3.333409429E-1,-3.412139118E-1,-9.697859287E-1
9.333099219E0,3.120356798E-1,-2.826243937E-1,-8.898911476E-1
9.338163021E0,2.843388319E-1,-2.219043821E-1,-8.089311719E-1
9.343226927E0,2.491850853E-1,-1.569233090E-1,-7.279711366E-1
9.348290781E0,2.161619365E-1,-9.726854414E-2,-6.427500844E-1
9.353354688E0,1.895303428E-1,-2.483062632E-2,-5.639205575E-1
9.358418542E0,1.628987491E-1,5.506413803E-2,-4.893521070E-1
9.363525677E0,1.383976936E-1,1.402852088E-1,-4.233057499E-1
9.368589531E0,1.160271615E-1,2.265715450E-1,-3.647162914E-1
9.373653438E0,9.472189844E-2,3.096621037E-1,-3.103878498E-1
9.378717292E0,7.341662049E-2,3.789042234E-1,-2.635162473E-1
9.383781198E0,6.915556639E-2,4.172537327E-1,-2.155793607E-1
9.388845052E0,5.530714989E-2,5.078011155E-1,-1.836214662E-1
9.393870834E0,2.867556363E-2,5.866305828E-1,-1.282277554E-1
9.398934688E0,-1.606550440E-2,6.132621765E-1,-5.365931988E-2
9.403998542E0,-5.654551834E-2,6.601337790E-1,2.623544261E-2
9.409062448E0,-1.012865975E-1,7.464201450E-1,1.210438907E-1
9.414126302E0,-1.630718708E-1,7.666601539E-1,2.328965813E-1
9.419190209E0,-2.355097979E-1,7.453548908E-1,3.330313563E-1
9.424292500E0,-3.207308352E-1,7.165927291E-1,4.171871245E-1
9.429356354E0,-4.336487651E-1,6.984832287E-1,4.938861132E-1
9.434420261E0,-5.700025558E-1,6.825042963E-1,5.684545636E-1
9.439484115E0,-7.244657278E-1,6.303064227E-1,6.355661750E-1
9.444548021E0,-8.629499674E-1,6.153927445E-1,6.866987944E-1
9.449611875E0,-9.897163510E-1,6.324369311E-1,7.719199061E-1
9.454674740E0,-1.134592295E0,6.739822030E-1,8.507493734E-1
9.459738594E0,-1.311426044E0,8.156622648E-1,9.018819928E-1
9.464802500E0,-1.513826013E0,9.647991657E-1,9.668630958E-1
9.469866354E0,-1.725813508E0,1.118197083E0,1.058475852E0
9.474930261E0,-1.937801003E0,1.329119325E0,1.140501142E0
9.479994115E0,-2.109308243E0,1.596500516E0,1.210808516E0
9.485058334E0,-2.195594788E0,1.885186911E0,1.278985381E0
9.490122188E0,-2.242466211E0,2.177068949E0,1.331183195E0
9.495186042E0,-2.303186178E0,2.456167936E0,1.350358009E0
9.500249948E0,-2.386276722E0,2.700113297E0,1.341835856E0
9.505313802E0,-2.491737843E0,2.865229130E0,1.298160076E0
9.510377709E0,-2.597198963E0,2.902513504E0,1.205482125E0
9.515441615E0,-2.689877033E0,2.791726112E0,1.068063140E0
9.520505469E0,-2.764445305E0,2.543519497E0,9.125346541E-1
9.525569375E0,-2.819839001E0,2.187721729E0,7.602019906E-1
9.530633229E0,-2.845405340E0,1.769073248E0,6.249135137E-1
9.535697084E0,-2.848601103E0,1.303552985E0,5.173218846E-1
9.540760990E0,-2.831556797E0,8.124664426E-1,4.491450489E-1
9.545825886E0,-2.801729441E0,3.288368583E-1,4.278397858E-1
9.550889740E0,-2.745270491E0,-1.036601290E-1,4.395576715E-1
9.555953646E0,-2.655788660E0,-4.828939140E-1,4.917555749E-1
9.561017500E0,-2.525826454E0,-7.726456523E-1,5.823029876E-1
9.566081406E0,-2.366036892E0,-9.569362402E-1,6.941556334E-1
9.571145261E0,-2.197725058E0,-1.008068800E0,8.273136020E-1
9.576205573E0,-2.052849293E0,-9.409572482E-1,9.796463251E-1
9.581269427E0,-1.954845190E0,-7.886245847E-1,1.138370514E0
9.586333334E0,-1.904777765E0,-5.808982253E-1,1.293899059E0
9.591397188E0,-1.888798833E0,-3.614538908E-1,1.421730638E0
9.596461094E0,-1.894125104E0,-1.377485693E-1,1.497364402E0
9.601524948E0,-1.907973647E0,1.466767937E-1,1.535713911E0
9.606591198E0,-1.914365053E0,5.099316239E-1,1.569802284E0
9.611655052E0,-1.911169410E0,9.104707241E-1,1.598564386E0
9.616718959E0,-1.903712511E0,1.264138222E0,1.613478065E0
9.621782813E0,-1.886668324E0,1.531519413E0,1.603890777E0
9.626846719E0,-1.856840968E0,1.723266840E0,1.577259183E0
9.631910573E0,-1.815295577E0,1.854294300E0,1.544235945E0
9.636974740E0,-1.757771492E0,1.936319590E0,1.530387402E0
9.642038594E0,-1.689594626E0,1.994908929E0,1.534648538E0
9.647102500E0,-1.599047065E0,2.039649963E0,1.538909674E0
9.652166354E0,-1.489325047E0,2.092913151E0,1.537844419E0
9.657230261E0,-1.362558722E0,2.151502609E0,1.525061131E0
9.662294115E0,-1.223009109E0,2.215418339E0,1.508016944E0
9.667353334E0,-1.078133225E0,2.287856340E0,1.490972757E0
9.672417188E0,-9.556279182E-1,2.320879698E0,1.459014893E0
9.677481094E0,-8.501668572E-1,2.289986849E0,1.425991654E0
9.682544948E0,-7.617499828E-1,2.197309017E0,1.390838027E0
9.687608802E0,-6.818552017E-1,2.063085556E0,1.349292755E0
9.692672709E0,-6.008951664E-1,1.897970080E0,1.300290704E0
9.697735313E0,-5.199351311E-1,1.726462603E0,1.241701007E0
9.702799219E0,-4.187350869E-1,1.592239499E0,1.190568447E0
9.707863073E0,-3.100782335E-1,1.500626802E0,1.152218938E0
9.712926979E0,-2.099434733E-1,1.429254174E0,1.106412649E0
9.717990834E0,-1.140697524E-1,1.374925613E0,1.054214716E0
9.723054740E0,-2.352234907E-2,1.352555156E0,9.977557659E-1
9.728120156E0,5.530714989E-2,1.346163511E0,9.434273243E-1
9.733184011E0,1.202882230E-1,1.342967749E0,8.837726116E-1
9.738247917E0,1.714208573E-1,1.341902375E0,8.262483478E-1
9.743311771E0,2.119008750E-1,1.358946800E0,7.655283213E-1
9.748375677E0,2.427935153E-1,1.380251884E0,7.026777267E-1
9.753439531E0,2.747514546E-1,1.391969800E0,6.515451074E-1
9.758502917E0,3.077746332E-1,1.395165563E0,6.004124880E-1
9.763566771E0,3.407977819E-1,1.394100428E0,5.546061397E-1
9.768630677E0,3.812777996E-1,1.394100428E0,5.162566304E-1
9.773694531E0,4.366714954E-1,1.388774157E0,4.811029732E-1
9.778758438E0,5.016525388E-1,1.377056241E0,4.512755871E-1
9.783822292E0,5.836778283E-1,1.362142563E0,4.289050400E-1
9.788886459E0,6.795515418E-1,1.324858189E0,4.203829467E-1
9.793950313E0,7.999263406E-1,1.260942459E0,4.107955694E-1
9.799014167E0,9.448021650E-1,1.170395136E0,4.054692388E-1
9.804078073E0,1.107787371E0,1.050020218E0,4.044039845E-1
9.809141979E0,1.292078018E0,8.998180628E-1,3.990776539E-1
9.814205834E0,1.487021327E0,7.219191194E-1,3.916208148E-1
9.819270521E0,1.683029652E0,5.088663697E-1,3.756418824E-1
9.824334375E0,1.877972960E0,2.691820860E-1,3.447492421E-1
9.829398281E0,2.072916269E0,1.458412316E-2,3.074649870E-1
9.834462136E0,2.246554136E0,-2.442749143E-1,2.520712912E-1
9.839526042E0,2.389299631E0,-4.860897362E-1,1.913512945E-1
9.844589896E0,2.499021769E0,-7.065992951E-1,1.253049523E-1
9.849653021E0,2.558676481E0,-9.058035612E-1,4.967124388E-2
9.854716875E0,2.572525024E0,-1.090094090E0,-4.087615758E-2
9.859780781E0,2.546958447E0,-1.254144669E0,-1.474024951E-1
9.864844636E0,2.479846954E0,-1.393694282E0,-2.667120397E-1
9.869908542E0,2.361602783E0,-1.492763758E0,-3.881520629E-1
9.874972396E0,2.176246881E0,-1.551353216E0,-4.968089461E-1
9.880036302E0,1.909930825E0,-1.520460606E0,-5.948131680E-1
9.885100156E0,1.553067565E0,-1.367062688E0,-6.640552878E-1
9.890164063E0,1.096069455E0,-1.108203530E0,-6.683163643E-1
9.895227917E0,5.698294044E-1,-7.470793128E-1,-6.012047529E-1
9.900291823E0,3.719767183E-2,-3.231044114E-1,-4.520678818E-1
9.905355677E0,-4.251266718E-1,5.612940714E-2,-1.964046210E-1
9.910420417E0,-7.819899917E-1,2.723779082E-1,1.604586542E-1
9.915484323E0,-1.017413259E0,4.066011012E-1,5.247787237E-1
9.920548177E0,-1.167615414E0,6.335022449E-1,8.305094242E-1
9.925612031E0,-1.282663941E0,9.253844023E-1,1.088303089E0
9.930675938E0,-1.342318654E0,1.198091865E0,1.270463228E0
9.935739792E0,-1.338057637E0,1.423927784E0,1.349292755E0
9.940803125E0,-1.281598568E0,1.631654143E0,1.327987432E0
9.945866979E0,-1.202769160E0,1.831923723E0,1.231048465E0
9.950930886E0,-1.120743871E0,2.015148878E0,1.077650547E0
9.955994740E0,-1.035522819E0,2.199439526E0,8.560757041E-1
9.961058646E0,-9.503015876E-1,2.242049932E0,5.950860977E-1
9.966122500E0,-8.874511123E-1,1.998104930E0,3.138566017E-1
9.971186719E0,-7.979689240E-1,1.607153177E0,8.125962690E-3
9.976250573E0,-6.328530908E-1,1.155481458E0,-2.965393960E-1
9.981314479E0,-3.654718995E-1,6.217842698E-1,-5.607247353E-1
9.986378334E0,-1.606550440E-2,1.800961210E-3,-7.833648324E-1
9.991442240E0,2.832735479E-1,-8.014077544E-1,-9.218490720E-1
9.996506094E0,4.249536097E-1,-1.596094251E0,-1.008135438E0
1.000157021E1,3.834083080E-1,-2.090376854E0,-1.096552253E0
1.000663406E1,1.724861264E-1,-2.221404076E0,-1.162598610E0
1.001169797E1,-1.396360844E-1,-2.064810276E0,-1.164729118E0
1.001676182E1,-5.092825294E-1,-1.710077405E0,-1.041158557E0
1.002182568E1,-8.949079514E-1,-1.244557261E0,-7.865605950E-1
1.002688958E1,-1.147375464E0,-8.046035171E-1,-5.032005310E-1
1.003193240E1,-1.151636481E0,-5.489403009E-1,-2.635162473E-1
1.003699615E1,-9.779984355E-1,-4.988729060E-1,-5.898563564E-2
1.004205995E1,-7.489668131E-1,-6.032686830E-1,1.018691584E-1
1.004712375E1,-4.943688214E-1,-8.354961872E-1,1.998734027E-1
1.005218750E1,-2.248571664E-1,-1.140161514E0,2.435492128E-1
1.005725130E1,3.506714478E-2,-1.422456384E0,2.446144670E-1
1.006233620E1,2.843388319E-1,-1.636574268E0,2.009386569E-1
1.006739995E1,5.336104631E-1,-1.802755356E0,1.295660138E-1
1.007246380E1,7.999263406E-1,-1.959349155E0,3.901860490E-2
1.007752755E1,1.077960134E0,-2.080789328E0,-6.963827461E-2
1.008259130E1,1.345341206E0,-2.137248278E0,-2.017309368E-1
1.008765510E1,1.578633904E0,-2.112747192E0,-3.615204692E-1
1.009268234E1,1.738423467E0,-2.020069361E0,-5.479415655E-1
1.009774615E1,1.816187620E0,-1.876258612E0,-7.684511542E-1
1.010280990E1,1.798078179E0,-1.730317473E0,-1.025179744E0
1.010787370E1,1.699008703E0,-1.588637471E0,-1.277647138E0
1.011293750E1,1.557328582E0,-1.418195248E0,-1.473655581E0
1.011800125E1,1.407126546E0,-1.231774211E0,-1.586573482E0
1.012310719E1,1.281425476E0,-1.053875208E0,-1.606813431E0
1.012817094E1,1.198334813E0,-9.196519852E-1,-1.516266108E0
1.013323474E1,1.156789541E0,-8.706498742E-1,-1.314931273E0
1.013829854E1,1.152528524E0,-8.908898830E-1,-1.043289185E0
1.014336229E1,1.188747406E0,-9.121951461E-1,-7.609943151E-1
1.014842604E1,1.218574882E0,-9.707846642E-1,-5.458111167E-1
1.015346323E1,1.221770644E0,-1.107138395E0,-4.041310251E-1
1.015852703E1,1.207922101E0,-1.325517416E0,-2.933436334E-1
1.016359078E1,1.182355881E0,-1.597159624E0,-2.209056914E-1
1.016865458E1,1.167442203E0,-1.846431136E0,-1.825561970E-1
1.017371839E1,1.185551643E0,-2.060549259E0,-1.836214662E-1
1.017878214E1,1.224966407E0,-2.260818958E0,-2.241014689E-1
1.018387375E1,1.275033832E0,-2.400368452E0,-3.039962351E-1
1.018893750E1,1.328297019E0,-2.442978859E0,-4.105226099E-1
1.019400130E1,1.376233816E0,-2.402498722E0,-5.234405398E-1
1.019906510E1,1.399669528E0,-2.336452484E0,-6.352931857E-1
1.020412891E1,1.396473765E0,-2.246970415E0,-7.620595694E-1
1.020919266E1,1.395408630E0,-2.119138718E0,-8.494111896E-1
1.021425755E1,1.393278122E0,-1.975328088E0,-8.728469610E-1
