"Time (s)","Acceleration x (m/s^2)","Acceleration y (m/s^2)","Acceleration z (m/s^2)"
0.000000000E0,-1.180793881E0,3.866492748E0,9.052734375E0
2.402969000E-3,-1.180793881E0,3.866492748E0,9.052734375E0
4.805937000E-3,-1.180793881E0,3.866492748E0,9.052734375E0
7.208906000E-3,-1.180793881E0,3.866492748E0,9.052734375E0
9.611875000E-3,-9.485663176E-1,4.053232670E0,9.055128098E0
1.201484400E-2,-9.485663176E-1,4.053232670E0,9.055128098E0
1.567458300E-2,-9.485663176E-1,4.053232670E0,9.055128098E0
1.933432300E-2,-9.485663176E-1,4.053232670E0,9.055128098E0
2.173729100E-2,-9.485663176E-1,4.053232670E0,9.055128098E0
2.414026000E-2,-9.485663176E-1,4.053232670E0,9.055128098E0
2.654322900E-2,-9.844778776E-1,3.825793266E0,8.832477570E0
2.897854100E-2,-1.006024718E0,3.746788025E0,8.784595490E0
3.144604100E-2,-1.044330239E0,3.643841743E0,8.748684883E0
3.391317700E-2,-1.051512599E0,3.588777304E0,8.693619728E0
3.638015600E-2,-1.087424159E0,3.531319141E0,8.640950203E0
3.884734400E-2,-1.082635880E0,3.471466780E0,8.602643967E0
4.131458300E-2,-1.077847600E0,3.378096581E0,8.605038643E0
4.378177100E-2,-1.034753799E0,3.325426579E0,8.569127083E0
4.624895800E-2,-1.015601158E0,3.284726858E0,8.617009163E0
4.871619800E-2,-9.677190781E-1,3.241633177E0,8.564338684E0
5.118348900E-2,-9.557485580E-1,3.196145058E0,8.526033401E0
5.365078100E-2,-9.485663176E-1,3.203327656E0,8.461392403E0
5.611802100E-2,-9.222311974E-1,3.162627935E0,8.411116600E0
5.858526000E-2,-9.030784369E-1,3.157839775E0,8.358446121E0
6.105255200E-2,-9.294134378E-1,3.143475056E0,8.346475601E0
6.351432300E-2,-9.581427574E-1,3.129110336E0,8.293805122E0
6.595203100E-2,-9.916601181E-1,3.100381374E0,8.257893562E0
6.837156200E-2,-1.044330239E0,3.069257975E0,8.250711441E0
7.079109400E-2,-1.085029960E0,3.026164055E0,8.226770401E0
7.320984400E-2,-1.135306001E0,2.997435093E0,8.224375725E0
7.562859400E-2,-1.214311242E0,2.966311932E0,8.253106117E0
7.804812500E-2,-1.360351324E0,2.925612211E0,8.312958717E0
8.046765600E-2,-1.496814966E0,2.901671171E0,8.336899757E0
8.288640600E-2,-1.602155209E0,2.872941971E0,8.332111359E0
8.530515600E-2,-1.659613609E0,2.841818571E0,8.341687202E0
8.772468700E-2,-1.702707529E0,2.825059891E0,8.370416641E0
9.014421900E-2,-1.724254370E0,2.793936729E0,8.415904045E0
9.256291600E-2,-1.745801210E0,2.774783850E0,8.449421883E0
9.498166600E-2,-1.774530411E0,2.781966209E0,8.494910240E0
9.740119800E-2,-1.757771730E0,2.815483570E0,8.461392403E0
9.982072900E-2,-1.769742250E0,2.817877769E0,8.432662964E0
1.022394790E-1,-1.776924372E0,2.822665930E0,8.394357681E0
1.046582290E-1,-1.781712770E0,2.834636450E0,8.332111359E0
1.070777600E-1,-1.803259373E0,2.774783850E0,8.236346245E0
1.094972910E-1,-1.791289091E0,2.750842810E0,8.207617760E0
1.119160410E-1,-1.788894892E0,2.702960968E0,8.174099922E0
1.143347910E-1,-1.784106731E0,2.645502567E0,8.147765160E0
1.167543230E-1,-1.762559891E0,2.619167328E0,8.174099922E0
1.191738540E-1,-1.757771730E0,2.576073647E0,8.164524078E0
1.215925520E-1,-1.719466209E0,2.559314966E0,8.183676720E0
1.240113020E-1,-1.729042530E0,2.540162086E0,8.186070442E0
1.264308330E-1,-1.726648569E0,2.516221285E0,8.138188362E0
1.288503640E-1,-1.748195410E0,2.470733404E0,8.092700958E0
1.312691140E-1,-1.760165930E0,2.449186325E0,8.018484116E0
1.336878640E-1,-1.767348051E0,2.430033684E0,7.958631039E0
1.361073960E-1,-1.776924372E0,2.398910522E0,7.893990517E0
1.385269270E-1,-1.796077251E0,2.372575521E0,7.870049477E0
1.409456770E-1,-1.820018291E0,2.324693441E0,7.834137917E0
1.433644270E-1,-1.822412491E0,2.245688200E0,7.793438435E0
1.457839580E-1,-1.858323812E0,2.188229561E0,7.733585835E0
1.482034890E-1,-1.851141453E0,2.125983238E0,7.700068474E0
1.506222390E-1,-1.829594612E0,2.058948517E0,7.668944836E0
1.530409890E-1,-1.836776972E0,2.003884077E0,7.621063232E0
1.554605210E-1,-1.817624331E0,1.956002355E0,7.577969551E0
1.578800520E-1,-1.738618851E0,1.908120275E0,7.532481670E0
1.602987500E-1,-1.714678049E0,1.867420554E0,7.479811668E0
1.627175000E-1,-1.676372409E0,1.819538713E0,7.386441231E0
1.651370310E-1,-1.611731768E0,1.783627152E0,7.302648067E0
1.675565620E-1,-1.556667328E0,1.742927432E0,7.230824947E0
1.699753120E-1,-1.527938247E0,1.692651391E0,7.170972347E0
1.723940620E-1,-1.460903525E0,1.620828390E0,7.106331825E0
1.748135940E-1,-1.429780245E0,1.575340509E0,7.060843945E0
1.772331250E-1,-1.393868685E0,1.477182508E0,6.996203423E0
1.796518750E-1,-1.365139484E0,1.405359507E0,6.907621861E0
1.820706250E-1,-1.305287004E0,1.350295305E0,6.854951382E0
1.844901560E-1,-1.219099522E0,1.266501784E0,6.773552418E0
1.869096870E-1,-1.125729561E0,1.182708263E0,6.718487740E0
1.893284370E-1,-1.068271279E0,1.115673542E0,6.620329857E0
1.917471870E-1,-1.022783399E0,1.031880140E0,6.560477257E0
1.941667190E-1,-9.820836782E-1,9.911803603E-1,6.459925652E0
1.965862500E-1,-9.246253967E-1,9.480865598E-1,6.345008373E0
1.990050000E-1,-8.623787165E-1,9.002047181E-1,6.225303650E0
2.014237500E-1,-7.761912346E-1,8.666872382E-1,6.158268929E0
2.038432290E-1,-7.067623138E-1,8.188052773E-1,6.107993126E0
2.062627600E-1,-6.038161516E-1,7.493764162E-1,6.040957928E0
2.086815100E-1,-5.056580305E-1,6.703711748E-1,6.007440567E0
2.111002600E-1,-3.739826381E-1,5.913659334E-1,6.002652645E0
2.135197910E-1,-2.207603753E-1,5.195429325E-1,5.966741085E0
2.159393230E-1,-9.866127372E-2,4.094144106E-1,5.990682125E0
2.183580730E-1,4.737873375E-2,2.992858887E-1,6.009834766E0
2.207768230E-1,1.862364560E-1,1.891573519E-1,6.014623165E0
2.231963540E-1,2.796063125E-1,1.438812912E-2,6.012228966E0
2.256158850E-1,3.849466443E-1,-1.651692837E-1,5.981105328E0
2.280346350E-1,4.184640348E-1,-3.878204823E-1,5.918859005E0
2.304533850E-1,4.783164859E-1,-6.344126463E-1,5.842247963E0
2.328729160E-1,5.118339062E-1,-8.881871700E-1,5.808730602E0
2.352924480E-1,5.405631065E-1,-1.139567494E0,5.729724884E0
2.377111980E-1,5.357748866E-1,-1.378977299E0,5.657902241E0
2.401299480E-1,5.381689668E-1,-1.587263942E0,5.598050117E0
2.425494790E-1,5.046516061E-1,-1.795550466E0,5.519044399E0
2.449690100E-1,4.735283256E-1,-1.967925549E0,5.404128075E0
2.473877080E-1,3.921289444E-1,-2.135512590E0,5.270058632E0
2.498064580E-1,3.250941634E-1,-2.293523073E0,5.212599754E0
2.522259890E-1,2.317243218E-1,-2.432380915E0,5.164718151E0
2.546455210E-1,1.263839751E-1,-2.571238518E0,5.107259274E0
2.570642710E-1,4.737873375E-2,-2.657426119E0,5.040225029E0
2.594830210E-1,-3.162655234E-2,-2.789101601E0,4.994737148E0
2.619025520E-1,-7.950851321E-2,-2.853742361E0,4.937278271E0
2.643220830E-1,-8.669081330E-2,-2.937535763E0,4.915731430E0
2.667408330E-1,-8.429670334E-2,-2.983023643E0,4.906155586E0
2.691595830E-1,-4.599112272E-2,-3.035693884E0,4.925307751E0
2.715791140E-1,2.822592854E-2,-3.073999405E0,4.949248791E0
2.739986460E-1,1.455367804E-1,-3.076393366E0,5.013889313E0
2.764173960E-1,2.796063125E-1,-3.083575726E0,5.121623993E0
2.788361460E-1,4.256463349E-1,-3.073999405E0,5.277240276E0
2.812556770E-1,5.884450674E-1,-3.112304926E0,5.504680157E0
2.836752080E-1,7.584260702E-1,-3.141034126E0,5.756060600E0
2.860939580E-1,9.882595539E-1,-3.155398607E0,6.014623165E0
2.885127080E-1,1.249216318E0,-3.172157288E0,6.266003609E0
2.909322390E-1,1.512567163E0,-3.184127808E0,6.479077816E0
2.933517710E-1,1.773523927E0,-3.205674887E0,6.696940899E0
2.957704690E-1,2.084756613E0,-3.200886488E0,6.929168224E0
2.981892190E-1,2.386413336E0,-3.193704367E0,7.182942867E0
3.006087500E-1,2.740739822E0,-3.162580967E0,7.396018028E0
3.030282810E-1,3.063943386E0,-3.131457806E0,7.587545872E0
3.054470310E-1,3.387146473E0,-3.105122566E0,7.767103672E0
3.078657810E-1,3.700773478E0,-3.093152046E0,7.939478397E0
3.102853120E-1,3.988065243E0,-3.038087845E0,8.142976761E0
3.127048440E-1,4.275356770E0,-3.023723364E0,8.317746162E0
3.151235940E-1,4.521949291E0,-2.968659163E0,8.427874565E0
3.175423440E-1,4.744600296E0,-2.904018402E0,8.600250244E0
3.199618750E-1,4.957675457E0,-2.872895002E0,8.674467087E0
3.223814060E-1,5.137232304E0,-2.827407122E0,8.722349167E0
3.248001560E-1,5.266513824E0,-2.832195282E0,8.767837524E0
3.272189060E-1,5.395795345E0,-2.863318682E0,8.772624969E0
3.296384370E-1,5.505923748E0,-2.892047882E0,8.810930252E0
3.320579690E-1,5.589717388E0,-2.956688643E0,8.820507050E0
3.344767190E-1,5.654357910E0,-3.040482044E0,8.892330170E0
3.368954690E-1,5.709422112E0,-3.129063606E0,8.887541771E0
3.393150000E-1,5.718998432E0,-3.220039368E0,8.837265015E0
3.417345310E-1,5.726180553E0,-3.313409328E0,8.760654449E0
3.441532290E-1,5.711816311E0,-3.425931931E0,8.648132324E0
3.465719790E-1,5.628022671E0,-3.545636892E0,8.470969200E0
3.489915100E-1,5.520288467E0,-3.694070816E0,8.375205040E0
3.514110410E-1,5.407765865E0,-3.871234417E0,8.241135597E0
3.538297910E-1,5.223419666E0,-4.041215420E0,8.030454636E0
3.562485410E-1,5.067803860E0,-4.204013824E0,7.807803154E0
3.586680730E-1,4.895428181E0,-4.417088509E0,7.628245354E0
3.610876040E-1,4.691930294E0,-4.618193150E0,7.498963833E0
3.635063540E-1,4.529131413E0,-4.819297314E0,7.264342308E0
3.659251040E-1,4.371120930E0,-5.003643036E0,7.008173943E0
3.683446350E-1,4.263386250E0,-5.204747200E0,6.761581898E0
3.707641660E-1,4.124528885E0,-5.477674484E0,6.550900936E0
3.731829160E-1,4.021582603E0,-5.791301727E0,6.371343613E0
3.756016660E-1,3.911453962E0,-6.143234253E0,6.234879971E0
3.780211980E-1,3.801325560E0,-6.535866261E0,6.103204250E0
3.804407290E-1,3.691196918E0,-6.957227707E0,6.000258446E0
3.828594790E-1,3.590645075E0,-7.333101273E0,5.904494286E0
3.852782290E-1,3.540368795E0,-7.687427521E0,5.842247963E0
3.876977600E-1,3.559521437E0,-8.044148445E0,5.763242245E0
3.901172910E-1,3.600221157E0,-8.455932617E0,5.564532280E0
3.925360410E-1,3.679226637E0,-8.841382980E0,5.358639717E0
3.949547910E-1,3.830054760E0,-9.188526154E0,5.214993954E0
3.973743230E-1,3.980883121E0,-9.533277512E0,5.126412392E0
3.997938540E-1,4.198745728E0,-9.779870033E0,5.037830353E0
4.022125520E-1,4.445338249E0,-9.942668915E0,4.951642990E0
4.046313020E-1,4.706295013E0,-1.005758476E1,4.870244026E0
4.070508330E-1,5.051044941E0,-1.013898468E1,4.887002468E0
4.094703640E-1,5.400583267E0,-1.018926048E1,4.882214546E0
4.118891140E-1,5.781244755E0,-1.019404888E1,4.906155586E0
4.143078640E-1,6.209788799E0,-1.017010784E1,4.903760910E0
4.167273960E-1,6.659879208E0,-1.009349632E1,4.980372429E0
4.191469270E-1,7.138698578E0,-9.983367920E0,5.054589272E0
4.215656770E-1,7.641459942E0,-9.813386917E0,5.164718151E0
4.239844270E-1,8.139432907E0,-9.597917557E0,5.356245995E0
4.264039580E-1,8.625433922E0,-9.327384949E0,5.598050117E0
4.288234890E-1,9.094677925E0,-9.035305023E0,5.830277443E0
4.312422390E-1,9.516038895E0,-8.697736740E0,6.040957928E0
4.336609890E-1,9.899094582E0,-8.415232658E0,6.254033089E0
4.360805210E-1,1.028215122E1,-8.137517929E0,6.519777775E0
4.385000520E-1,1.063887215E1,-7.883743763E0,6.826222420E0
4.409188020E-1,1.093334579E1,-7.567722797E0,6.986627102E0
4.433375520E-1,1.119669724E1,-7.124814510E0,6.617936134E0
4.457570830E-1,1.152229404E1,-6.921316147E0,6.972262383E0
4.481766140E-1,1.183352661E1,-6.799217224E0,7.269130230E0
4.505953640E-1,1.211124134E1,-6.950045109E0,8.011301994E0
4.530141140E-1,1.229558754E1,-6.997927189E0,8.324929237E0
4.554336460E-1,1.254457378E1,-6.820764065E0,7.810196877E0
4.578531770E-1,1.282947159E1,-7.067356110E0,8.485333443E0
4.602718750E-1,1.291805363E1,-7.199031353E0,9.191592216E0
4.626906250E-1,1.298029995E1,-7.062568188E0,9.119769096E0
4.651102080E-1,1.317182732E1,-6.763305664E0,8.626585007E0
4.675297390E-1,1.336335564E1,-6.744152546E0,9.270597458E0
4.699484370E-1,1.338490295E1,-6.741758347E0,1.006065083E1
4.723671870E-1,1.339687252E1,-6.610083103E0,1.019471931E1
4.747867190E-1,1.337772083E1,-6.411373138E0,1.001755619E1
4.772062500E-1,1.334659672E1,-6.195904255E0,9.768570900E0
4.796250000E-1,1.329632092E1,-5.987617493E0,9.641683578E0
4.820437500E-1,1.322210407E1,-5.829607010E0,9.565071106E0
4.844632810E-1,1.311676407E1,-5.729054928E0,9.514795303E0
4.868828120E-1,1.298029995E1,-5.719478607E0,9.440578461E0
4.893015620E-1,1.284144211E1,-5.764966488E0,9.325662613E0
4.917203120E-1,1.268582535E1,-5.791301727E0,9.158075333E0
4.941398440E-1,1.250866318E1,-5.894247532E0,8.949788094E0
4.965593750E-1,1.235783386E1,-5.975646973E0,8.751078606E0
4.989781250E-1,1.220221806E1,-6.076199055E0,8.590673447E0
5.013968750E-1,1.208490658E1,-6.131263733E0,8.444633484E0
5.038164060E-1,1.201787186E1,-6.174356937E0,8.281834602E0
5.062359370E-1,1.198914242E1,-6.222239017E0,8.150158882E0
5.086546870E-1,1.197238445E1,-6.224633217E0,8.035243034E0
5.110734370E-1,1.199872017E1,-6.238997936E0,7.879625797E0
5.134929690E-1,1.205857182E1,-6.277303696E0,7.798226357E0
5.159125000E-1,1.213757706E1,-6.294062138E0,7.716826916E0
5.183312500E-1,1.224291801E1,-6.344337940E0,7.625851631E0
5.207500000E-1,1.236741066E1,-6.425737381E0,7.546845913E0
5.231695310E-1,1.253260422E1,-6.552624702E0,7.486993313E0
5.255890620E-1,1.274328423E1,-6.650783062E0,7.424746990E0
5.280078120E-1,1.299945259E1,-6.753728867E0,7.314618587E0
5.304265620E-1,1.330110836E1,-6.772881985E0,7.340953350E0
5.328460940E-1,1.363867664E1,-6.744152546E0,7.475022793E0
5.352656250E-1,1.406722069E1,-6.557413101E0,7.582757473E0
5.376843230E-1,1.452928162E1,-6.272515297E0,7.700068474E0
5.401030730E-1,1.503922462E1,-5.875094891E0,7.776679516E0
5.425226040E-1,1.548213291E1,-5.453733444E0,7.814985275E0
5.449421350E-1,1.595137691E1,-5.037159920E0,7.800620556E0
5.473608850E-1,1.636316299E1,-4.618193150E0,7.862866879E0
5.497796350E-1,1.673903656E1,-4.283019543E0,7.984966278E0
5.521991660E-1,1.704069328E1,-3.986150980E0,8.063971519E0
5.546186980E-1,1.727531433E1,-3.753923416E0,8.186070442E0
5.570374480E-1,1.739980698E1,-3.631824255E0,8.255499840E0
5.594561980E-1,1.742374802E1,-3.536060333E0,8.322534561E0
5.618757290E-1,1.740220261E1,-3.509725332E0,8.320140839E0
5.642952600E-1,1.729686165E1,-3.507331371E0,8.176494598E0
5.667140100E-1,1.712448502E1,-3.610277653E0,8.248316765E0
5.691327600E-1,1.688507652E1,-3.706041336E0,8.207617760E0
5.715522910E-1,1.661214828E1,-3.830534697E0,8.016089439E0
5.739718230E-1,1.630331039E1,-3.876022339E0,7.922719479E0
5.763905730E-1,1.591546440E1,-3.856869459E0,7.714432716E0
5.788093230E-1,1.552522659E1,-3.483390331E0,6.311491013E0
5.812288540E-1,1.537679291E1,-3.856869459E0,7.367289066E0
5.836483850E-1,1.484769726E1,-4.268654346E0,8.360840797E0
5.860671350E-1,1.435930061E1,-4.508064747E0,7.898778439E0
5.884858850E-1,1.391399860E1,-4.591857910E0,7.233219624E0
5.909054160E-1,1.346630192E1,-4.524823189E0,6.864528179E0
5.933249480E-1,1.301860619E1,-4.383571625E0,6.699335098E0
5.957436980E-1,1.259963799E1,-4.249501705E0,6.570054054E0
5.981624480E-1,1.223334122E1,-4.086702824E0,6.431195736E0
6.005819790E-1,1.190774345E1,-3.909539938E0,6.287550449E0
6.030015100E-1,1.157017612E1,-3.782652617E0,6.194180489E0
6.054202600E-1,1.123978996E1,-3.665341854E0,6.072081566E0
6.078390100E-1,1.087349319E1,-3.607883215E0,5.947587967E0
6.102585410E-1,1.060056591E1,-3.643794775E0,5.873371124E0
6.126780730E-1,1.034918594E1,-3.737164497E0,5.813518524E0
6.150967710E-1,1.016962814E1,-3.825746298E0,5.847035885E0
6.175155210E-1,1.005231667E1,-3.890387058E0,5.880553246E0
6.199350520E-1,9.932611465E0,-3.921510220E0,5.849430084E0
6.223545830E-1,9.817695618E0,-3.887992859E0,5.799153805E0
6.247733330E-1,9.688413620E0,-3.852081299E0,5.681843281E0
6.271920830E-1,9.539979935E0,-3.818564177E0,5.564532280E0
6.296116140E-1,9.324510574E0,-3.832928658E0,5.449615479E0
6.320311460E-1,9.042007446E0,-3.890387058E0,5.325122356E0
6.344498960E-1,8.730774879E0,-3.971786261E0,5.267663956E0
6.368686460E-1,8.390812874E0,-4.065155983E0,5.234147072E0
6.392881770E-1,8.055639267E0,-4.127402782E0,5.176688671E0
6.417077080E-1,7.722859383E0,-4.213590145E0,5.100077629E0
6.441264580E-1,7.411626339E0,-4.251895905E0,4.954037189E0
6.465452080E-1,6.961535931E0,-4.290201664E0,4.992342949E0
6.489647390E-1,6.401316643E0,-4.268654346E0,5.286817074E0
6.513842710E-1,6.166694641E0,-4.206408024E0,5.626779079E0
6.538030210E-1,5.944043636E0,-4.074732304E0,5.751271725E0
6.562217710E-1,5.716604233E0,-3.890387058E0,5.712966442E0
6.586413020E-1,5.517894268E0,-3.682100296E0,5.684237480E0
6.610608330E-1,5.374248505E0,-3.428326130E0,5.825489044E0
6.634795830E-1,5.223419666E0,-3.220039368E0,5.981105328E0
6.658983330E-1,5.101320744E0,-3.050058365E0,6.117568970E0
6.683178640E-1,4.945704937E0,-2.904018402E0,6.160663128E0
6.707373960E-1,4.821211338E0,-2.856136322E0,6.167845249E0
6.731561460E-1,4.691930294E0,-2.834589481E0,6.167845249E0
6.755748960E-1,4.581801891E0,-2.856136322E0,6.198968410E0
6.779944270E-1,4.428579330E0,-2.906412363E0,6.376132011E0
6.804139580E-1,4.275356770E0,-2.951900244E0,6.548506737E0
6.828327080E-1,4.155652046E0,-2.963870764E0,6.615541935E0
6.852514580E-1,4.064676285E0,-2.954294443E0,6.610753536E0
6.876709890E-1,3.988065243E0,-2.896836042E0,6.519777775E0
6.900905210E-1,3.877936840E0,-2.865712881E0,6.476684093E0
6.925092710E-1,3.774990559E0,-2.868106842E0,6.744822979E0
6.949280210E-1,3.712743998E0,-2.834589481E0,6.790310860E0
6.973475520E-1,3.648103237E0,-2.796283722E0,6.574841976E0
6.997670830E-1,3.561915874E0,-2.822618961E0,6.402466774E0
7.021857810E-1,3.494880915E0,-2.899230003E0,6.244456291E0
7.046045310E-1,3.480516195E0,-3.018934965E0,6.146298409E0
7.070240620E-1,3.463757753E0,-3.143428326E0,6.031381607E0
7.094435940E-1,3.458969593E0,-3.279891729E0,5.897312164E0
7.118623440E-1,3.502063274E0,-3.375655890E0,5.732119560E0
7.142810940E-1,3.583462477E0,-3.459449291E0,5.523832798E0
7.167006250E-1,3.674438238E0,-3.524089813E0,5.327516556E0
7.191201560E-1,3.712743998E0,-3.615065575E0,5.147958755E0
7.215389060E-1,3.760626078E0,-3.694070816E0,4.946855068E0
7.239576560E-1,3.858783960E0,-3.706041336E0,4.776874065E0
7.263771870E-1,3.928212881E0,-3.751529217E0,4.743356228E0
7.287967190E-1,4.088617325E0,-3.806593657E0,4.774479866E0
7.312154690E-1,4.316056728E0,-3.864051819E0,4.831937790E0
7.336342190E-1,4.529131413E0,-3.837716818E0,4.894185066E0
7.360537500E-1,4.859516621E0,-3.785046577E0,4.846302986E0
7.384732810E-1,5.153991222E0,-3.763499737E0,4.798420906E0
7.408920310E-1,5.419736385E0,-3.732376575E0,4.683504105E0
7.433107810E-1,5.730968952E0,-3.677312374E0,4.573375225E0
7.457303120E-1,6.018260956E0,-3.619853735E0,4.401000500E0
7.481498440E-1,6.245700359E0,-3.564789534E0,4.367483139E0
7.505685940E-1,6.386951923E0,-3.593518734E0,4.389029980E0
7.529873440E-1,6.499475002E0,-3.655765295E0,4.511128902E0
7.554068750E-1,6.552145004E0,-3.761105537E0,4.697868347E0
7.578264060E-1,6.576085567E0,-3.899963379E0,4.889396667E0
7.602451560E-1,6.561721325E0,-4.065155983E0,4.949248791E0
7.626639060E-1,6.532991886E0,-4.321324825E0,4.975584030E0
7.650834370E-1,6.564115047E0,-4.625375271E0,5.001918793E0
7.675029690E-1,6.619179726E0,-4.941396713E0,4.992342949E0
7.699217190E-1,6.667061806E0,-5.219111443E0,4.934884548E0
7.723404690E-1,6.724519730E0,-5.523162365E0,4.788844585E0
7.747600000E-1,6.779584408E0,-5.815242767E0,4.570981503E0
7.771795310E-1,6.791554928E0,-6.107322693E0,4.415364742E0
7.795982810E-1,6.801131248E0,-6.408978939E0,4.250172138E0
7.820170310E-1,6.796342850E0,-6.686694622E0,4.094555855E0
7.844365620E-1,6.817889690E0,-6.945257187E0,3.814446211E0
7.868560940E-1,6.822677612E0,-7.213396072E0,3.474484205E0
7.892747910E-1,6.928018093E0,-7.457593918E0,3.117763519E0
7.916935410E-1,7.045329094E0,-7.742492199E0,2.832865715E0
7.941131250E-1,7.327832699E0,-8.101606369E0,2.686825752E0
7.965326560E-1,7.581607342E0,-8.439173698E0,2.658096552E0
7.989513540E-1,7.835381985E0,-8.743224144E0,2.734707594E0
8.013701040E-1,8.070003510E0,-8.989816666E0,2.784983635E0
8.037896350E-1,8.244772911E0,-9.188526154E0,2.837653875E0
8.062091660E-1,8.445877075E0,-9.253167152E0,2.902294397E0
8.086279160E-1,8.658951759E0,-9.284290314E0,2.969329357E0
8.110466660E-1,8.819356918E0,-9.200497627E0,2.938205957E0
8.134661980E-1,9.027643204E0,-9.064033508E0,2.897506475E0
8.158857290E-1,9.166501045E0,-8.949117661E0,2.890324116E0
8.183044790E-1,9.173683167E0,-8.822229385E0,2.880747795E0
8.207232290E-1,9.223958969E0,-8.688160896E0,2.878353596E0
8.231427600E-1,9.250293732E0,-8.522967339E0,2.923841476E0
8.255622910E-1,9.233535767E0,-8.422415733E0,3.021999359E0
8.279810410E-1,9.149742126E0,-8.300316811E0,3.132128000E0
8.303997910E-1,9.080312729E0,-8.154276848E0,3.244650602E0
8.328193230E-1,8.991731644E0,-8.046542168E0,3.361961365E0
8.352388540E-1,8.891180038E0,-7.934019566E0,3.488848686E0
8.376576040E-1,8.797809601E0,-7.783191681E0,3.642071247E0
8.400763540E-1,8.690074921E0,-7.644333839E0,3.759382010E0
8.424958850E-1,8.587128639E0,-7.534204960E0,3.867116451E0
8.449154160E-1,8.455452919E0,-7.436047077E0,3.917392492E0
8.473341660E-1,8.295048714E0,-7.318736553E0,3.926969051E0
8.497529160E-1,8.141826630E0,-7.163120270E0,3.929363012E0
8.521724480E-1,7.990998268E0,-7.060173512E0,3.953304052E0
8.545919790E-1,7.847352505E0,-6.971591949E0,3.996397734E0
8.570107290E-1,7.749194145E0,-6.873434067E0,3.965274572E0
8.594294790E-1,7.643853664E0,-6.844705105E0,3.950909615E0
8.618490100E-1,7.581607342E0,-6.741758347E0,3.958092213E0
8.642685410E-1,7.521754742E0,-6.669935703E0,3.859933853E0
8.666872910E-1,7.528937340E0,-6.590930462E0,3.685164928E0
8.691060410E-1,7.586395264E0,-6.483196259E0,3.493636847E0
8.715255730E-1,7.593577862E0,-6.425737381E0,3.321261883E0
8.739451040E-1,7.655824184E0,-6.346732140E0,3.184798241E0
8.763638540E-1,7.670188904E0,-6.270121098E0,3.093822479E0
8.787826040E-1,7.674977303E0,-6.193510056E0,2.940600157E0
8.812021350E-1,7.689342022E0,-6.076199055E0,2.777801514E0
8.836216660E-1,7.691735744E0,-5.973253250E0,2.672461271E0
8.860403640E-1,7.732435226E0,-5.846365452E0,2.660490751E0
8.884591140E-1,7.775529385E0,-5.709902287E0,2.670067072E0
8.908786460E-1,7.797076225E0,-5.609350204E0,2.696402311E0
8.932981770E-1,7.856928825E0,-5.482462406E0,2.835259676E0
8.957169270E-1,7.926357269E0,-5.403457642E0,2.909476995E0
8.981356770E-1,7.969451427E0,-5.329240799E0,2.981299877E0
9.005552080E-1,8.046062469E0,-5.281358719E0,2.981299877E0
9.029747390E-1,8.101126671E0,-5.223899841E0,3.007634878E0
9.053934890E-1,8.175344467E0,-5.168835640E0,2.969329357E0
9.078122390E-1,8.208861351E0,-5.140106678E0,2.923841476E0
9.102317710E-1,8.251955032E0,-5.106588840E0,2.832865715E0
9.126513020E-1,8.326171875E0,-5.135318756E0,2.744283915E0
9.150700520E-1,8.395600319E0,-5.128136158E0,2.555150270E0
9.174888020E-1,8.539246559E0,-5.147289276E0,2.375592947E0
9.199083330E-1,8.682892799E0,-5.176018238E0,2.155335903E0
9.223278640E-1,8.785839081E0,-5.247840881E0,1.927896500E0
9.247466140E-1,8.867238998E0,-5.357969761E0,1.693274736E0
9.271653640E-1,8.900755882E0,-5.480068684E0,1.379647970E0
9.295848960E-1,8.903149605E0,-5.583014488E0,1.049262285E0
9.320044270E-1,8.867238998E0,-5.702719688E0,7.595762610E-1
9.344231770E-1,8.795415878E0,-5.798483372E0,4.124319553E-1
9.368419270E-1,8.687681198E0,-5.908612251E0,1.035932004E-1
9.392614580E-1,8.551217079E0,-6.001982212E0,-1.262402534E-1
9.416809890E-1,8.395600319E0,-6.107322693E0,-2.435511351E-1
9.440997390E-1,8.268713951E0,-6.205480576E0,-3.177681565E-1
9.465184890E-1,8.201679230E0,-6.303638458E0,-3.393150568E-1
9.489380210E-1,8.153797150E0,-6.380249500E0,-3.728324175E-1
9.513575520E-1,8.105915070E0,-6.430525780E0,-3.824088573E-1
9.537763020E-1,8.105915070E0,-6.464043140E0,-3.824088573E-1
9.561950520E-1,8.074791908E0,-6.459255219E0,-3.297386765E-1
9.586145830E-1,8.084367752E0,-6.519107342E0,-2.818566561E-1
9.610341140E-1,8.125067711E0,-6.595718384E0,-2.531275153E-1
9.634528640E-1,8.182526588E0,-6.679512024E0,-1.549694538E-1
9.658716140E-1,8.297442436E0,-6.849493027E0,1.131695956E-1
9.682911460E-1,8.386024475E0,-6.981168747E0,2.879388034E-1
9.707106770E-1,8.500941277E0,-7.050597668E0,3.860968351E-1
9.731294270E-1,8.589522362E0,-7.076932430E0,3.645499647E-1
9.755481770E-1,8.709227562E0,-7.084114552E0,3.382148743E-1
9.779677080E-1,8.793021202E0,-7.079326630E0,3.214561939E-1
9.803872390E-1,8.888784409E0,-7.124814510E0,1.897807568E-1
9.828059370E-1,8.974972725E0,-7.105661392E0,-1.747131348E-3
9.852246870E-1,9.082706451E0,-7.110449791E0,-1.693340540E-1
9.876442710E-1,9.188047409E0,-7.129602432E0,-3.081917763E-1
9.900638020E-1,9.231142044E0,-7.208608150E0,-3.919852376E-1
9.924825000E-1,9.247900009E0,-7.301977634E0,-4.350790381E-1
9.949012500E-1,9.314934731E0,-7.412106037E0,-4.470494986E-1
9.973207810E-1,9.334087372E0,-7.529417038E0,-4.087439179E-1
9.997403120E-1,9.391546249E0,-7.594057560E0,-3.584678769E-1
1.002159062E0,9.489704132E0,-7.553358078E0,-2.842507958E-1
1.004577812E0,9.539979935E0,-7.625181198E0,-2.363688350E-1
1.006997344E0,9.544767380E0,-7.644333839E0,-2.172160149E-1
1.009416875E0,9.556738853E0,-7.615604401E0,-1.645458639E-1
1.011835625E0,9.547163010E0,-7.567722797E0,-2.794626355E-1
1.014254375E0,9.542373657E0,-7.476747036E0,-3.871970773E-1
1.016673906E0,9.513645172E0,-7.395347595E0,-5.116901994E-1
1.019093437E0,9.523221970E0,-7.376194477E0,-5.499957204E-1
1.021512187E0,9.516038895E0,-7.323524475E0,-5.571780205E-1
1.023930937E0,9.724326134E0,-6.648388386E0,-5.164783597E-1
1.026350469E0,9.686019897E0,-6.768093586E0,-4.398672581E-1
1.028770000E0,9.420274734E0,-7.012291431E0,-7.104003429E-1
1.031188750E0,9.092284203E0,-7.385771275E0,-6.409714818E-1
1.033607500E0,8.630222321E0,-8.262010574E0,-3.526452184E-2
1.036027031E0,8.158585548E0,-8.882082939E0,1.466869712E-1
1.038446562E0,7.677371502E0,-9.068822861E0,-2.339747548E-1
1.040865312E0,7.289527416E0,-8.985028267E0,-4.925373793E-1
1.043284062E0,7.117152214E0,-8.532543182E0,-6.050600410E-1
1.045703594E0,7.095605373E0,-7.974719524E0,-5.811190605E-1
1.048123125E0,6.987870693E0,-7.673063278E0,-6.529420018E-1
1.050541875E0,6.789160728E0,-7.541387558E0,-8.779872060E-1
1.052960625E0,6.568903446E0,-7.507870197E0,-9.282633662E-1
1.055380156E0,6.228941441E0,-7.610816479E0,-6.529420018E-1
1.057799687E0,5.836309433E0,-7.732915401E0,-4.829609990E-1
1.060218437E0,5.520288467E0,-7.790374279E0,-5.452075601E-1
1.062637187E0,5.266513824E0,-7.804738522E0,-6.960358024E-1
1.065056719E0,5.084562302E0,-7.711368561E0,-7.008239627E-1
1.067476250E0,4.936128139E0,-7.665880680E0,-6.768829823E-1
1.069894948E0,4.766147137E0,-7.560540676E0,-7.032180429E-1
1.072313698E0,4.684747696E0,-7.455200195E0,-6.649124622E-1
1.074733281E0,4.605742455E0,-7.412106037E0,-5.404193401E-1
1.077152812E0,4.526737213E0,-7.323524475E0,-3.824088573E-1
1.079571510E0,4.553072453E0,-7.136785030E0,-2.818566561E-1
1.081990260E0,4.653624058E0,-6.981168747E0,-1.429989934E-1
1.084409791E0,4.737417698E0,-6.835128784E0,-6.878191233E-2
1.086829323E0,4.847546101E0,-6.708240986E0,1.059872955E-1
1.089248073E0,4.948098660E0,-6.540654182E0,1.682338715E-1
1.091666823E0,5.017527103E0,-6.356308460E0,1.778102666E-1
1.094086354E0,5.103715420E0,-6.205480576E0,2.232981324E-1
1.096505885E0,5.110897064E0,-6.040287495E0,3.813086450E-1
1.098924635E0,5.082168102E0,-5.934947491E0,3.789145350E-1
1.101343385E0,5.065409184E0,-5.875094891E0,3.549735546E-1
1.103762916E0,4.991192341E0,-5.803272247E0,3.262443841E-1
1.106182448E0,4.936128139E0,-5.762572289E0,2.017512470E-1
1.108601198E0,4.893034458E0,-5.764966488E0,9.641090035E-2
1.111019948E0,4.866699219E0,-5.843971729E0,-9.272289276E-2
1.113439479E0,4.976827621E0,-5.918188572E0,-2.770684958E-1
1.115859010E0,5.213843822E0,-5.973253250E0,-3.201622963E-1
1.118277760E0,5.501135349E0,-5.997194290E0,-4.350790381E-1
1.120696510E0,5.745333195E0,-6.049864292E0,-4.374731183E-1
1.123116041E0,5.994319916E0,-6.083381653E0,-3.632560372E-1
1.125535573E0,6.200212479E0,-5.980434895E0,-2.962213159E-1
1.127954323E0,6.355828762E0,-5.939735413E0,-2.267924249E-1
1.130373073E0,6.499475002E0,-5.944523811E0,-2.890390158E-1
1.132792604E0,6.616785049E0,-5.980434895E0,-3.464973569E-1
1.135212135E0,6.712549210E0,-6.013952732E0,-4.566259384E-1
1.137630885E0,6.789160728E0,-6.080987453E0,-6.026659012E-1
1.140049635E0,6.920835972E0,-6.140840054E0,-6.649124622E-1
1.142469166E0,6.999841213E0,-6.272515297E0,-7.343413234E-1
1.144888698E0,7.093211174E0,-6.370673180E0,-7.582823634E-1
1.147307448E0,7.186580658E0,-6.377855778E0,-6.697006822E-1
1.149726198E0,7.279950619E0,-6.301244736E0,-4.925373793E-1
1.152145729E0,7.327832699E0,-6.195904255E0,-4.494436383E-1
1.154565260E0,7.323044777E0,-6.035499573E0,-3.848029375E-1
1.156984010E0,7.284739017E0,-5.872700691E0,-3.752265573E-1
1.159402760E0,7.117152214E0,-5.858335972E0,-4.590199590E-1
1.161822291E0,6.997447491E0,-5.853548050E0,-5.021138191E-1
1.164241823E0,6.803525448E0,-5.879883289E0,-4.278967381E-1
1.166660521E0,6.614391327E0,-5.932553291E0,-2.986153364E-1
1.169079271E0,6.465957165E0,-5.985223770E0,-2.808225155E-2
1.171498802E0,6.355828762E0,-5.997194290E0,3.693381548E-1
1.173918333E0,6.281611919E0,-6.078593254E0,6.350830793E-1
1.176337083E0,6.303158760E0,-6.358702660E0,6.135362387E-1
1.178755833E0,6.317523479E0,-6.796823025E0,4.914371967E-1
1.181175364E0,6.427651882E0,-7.148755550E0,3.262443841E-1
1.183594896E0,6.461169243E0,-7.503082275E0,-4.141241312E-3
1.186013646E0,6.585662365E0,-7.799950123E0,-3.105858564E-1
1.188432396E0,6.698184967E0,-8.044148445E0,-7.032180429E-1
1.190851927E0,6.803525448E0,-8.161458969E0,-7.630705237E-1
1.193271458E0,7.035752773E0,-8.190188408E0,-8.923518062E-1
1.195690208E0,7.167428493E0,-8.295528412E0,-9.545984864E-1
1.198108958E0,7.440355301E0,-8.345804214E0,-8.899577260E-1
1.200528489E0,7.615124702E0,-8.640278816E0,-1.270619392E0
1.202948021E0,7.832987785E0,-8.915599823E0,-1.684798717E0
1.205366771E0,8.079580307E0,-9.087974548E0,-1.838021040E0
1.207785521E0,8.383630753E0,-9.147827148E0,-1.979272842E0
1.210205052E0,8.522488594E0,-9.315414429E0,-2.216288567E0
1.212624583E0,8.630222321E0,-9.289079666E0,-2.156435966E0
1.215043333E0,8.548823357E0,-9.336961746E0,-2.283323288E0
1.217462083E0,8.374053955E0,-9.502153397E0,-2.498792410E0
1.219881614E0,8.259137154E0,-9.511730194E0,-2.407816648E0
1.222301146E0,8.055639267E0,-9.538065910E0,-2.321628809E0
1.224719896E0,7.789893627E0,-9.605100632E0,-2.192347527E0
1.227138646E0,7.459508419E0,-9.638617516E0,-2.043913603E0
1.229558177E0,7.186580658E0,-9.566794395E0,-1.766197920E0
1.231977708E0,6.973506451E0,-9.389631271E0,-1.356806993E0
1.234396458E0,6.896894932E0,-8.999393463E0,-6.649124622E-1
1.236815208E0,6.860983849E0,-8.475085258E0,3.041058779E-3
1.239234739E0,6.760431290E0,-8.060906410E0,3.956732452E-1
1.241654271E0,6.525809765E0,-7.754462719E0,6.470535994E-1
1.244073021E0,6.228941441E0,-7.500688076E0,8.313992023E-1
1.246491771E0,6.054172516E0,-7.297189713E0,9.367395639E-1
1.248911302E0,6.049384117E0,-7.052991390E0,1.243184209E0
1.251330833E0,6.193029881E0,-6.789640427E0,1.580752134E0
1.253749583E0,6.604815006E0,-6.454466343E0,2.076330423E0
1.256168333E0,6.822677612E0,-6.200692177E0,2.377986908E0
1.258587864E0,7.109969616E0,-5.934947491E0,2.804136515E0
1.261007396E0,7.203339577E0,-5.812848091E0,2.885535955E0
1.263426094E0,7.363744259E0,-5.688354969E0,3.050728798E0
1.265844844E0,7.378108978E0,-5.678778648E0,3.141704559E0
1.268264375E0,7.366138458E0,-5.676384449E0,3.045940399E0
1.270683906E0,7.313468456E0,-5.695537567E0,2.907082796E0
1.273102656E0,7.203339577E0,-5.717084408E0,2.624579191E0
1.275521406E0,7.009418011E0,-5.812848091E0,2.212794065E0
1.277940937E0,6.700578690E0,-6.037893772E0,1.597510815E0
1.280360469E0,6.305552959E0,-6.344337940E0,1.046868086E0
1.282779219E0,5.675904751E0,-6.813581467E0,1.730220616E-1
1.285197969E0,5.177932262E0,-7.199031353E0,-4.662023187E-1
1.287617500E0,4.347179890E0,-7.689821720E0,-1.354413033E0
1.290037031E0,3.849207640E0,-7.974719524E0,-1.747045279E0
1.292455781E0,4.083828926E0,-7.804738522E0,-1.498058796E0
1.294874531E0,4.047917843E0,-7.847832203E0,-1.318501472E0
1.297294062E0,3.923424482E0,-8.048935890E0,-1.347230673E0
1.299713594E0,3.741472960E0,-8.240464211E0,-1.921814203E0
1.302132344E0,3.856389761E0,-8.484662056E0,-2.189953566E0
1.304551094E0,4.244233608E0,-8.573243141E0,-2.041519403E0
1.306970625E0,4.438155651E0,-8.659431458E0,-2.118130445E0
1.309390156E0,4.632077694E0,-8.707313538E0,-2.376693010E0
1.311808906E0,4.593772411E0,-8.879688263E0,-3.511496067E0
1.314227656E0,4.780511856E0,-8.771953583E0,-2.889030218E0
1.316647187E0,4.955280781E0,-8.580425262E0,-2.379087210E0
1.319066719E0,4.962463379E0,-8.312287331E0,-2.711867094E0
1.321485469E0,4.893034458E0,-8.104000092E0,-3.262509823E0
1.323904219E0,5.108503342E0,-7.902896404E0,-3.257721663E0
1.326323750E0,5.587322712E0,-7.711368561E0,-2.886636257E0
1.328743281E0,6.224153519E0,-7.567722797E0,-2.429363251E0
1.331162031E0,6.774796009E0,-7.491111755E0,-2.204318047E0
1.333580781E0,7.157851696E0,-7.507870197E0,-2.024760485E0
1.336000312E0,7.351773739E0,-7.560540676E0,-1.847597361E0
1.338419844E0,7.473872662E0,-7.615604401E0,-1.629734278E0
1.340838541E0,7.550483704E0,-7.680245399E0,-1.569881916E0
1.343257291E0,7.840169907E0,-7.584481716E0,-1.249072552E0
1.345676875E0,7.967057228E0,-7.608422756E0,-1.167673349E0
1.348096406E0,8.137038231E0,-7.687427521E0,-1.076697588E0
1.350515104E0,8.520093918E0,-7.752068043E0,-8.492581248E-1
1.352933854E0,8.996520042E0,-7.835861683E0,-6.361833215E-1
1.355353385E0,9.614196777E0,-7.888532162E0,-3.081917763E-1
1.357772916E0,1.023666286E1,-7.883743763E0,4.134663939E-2
1.360191666E0,1.069633007E1,-7.957960606E0,3.813086450E-1
1.362610416E0,1.108896160E1,-7.955566406E0,8.505520225E-1
1.365029948E0,1.191971397E1,-7.689821720E0,1.755521297E0
1.367449479E0,1.304733467E1,-7.282824993E0,2.636549711E0
1.369868229E0,1.387329865E1,-7.052991390E0,2.875959396E0
1.372286979E0,1.452449417E1,-6.964409351E0,2.828077555E0
1.374706510E0,1.490036678E1,-7.088902950E0,2.543179750E0
1.377126041E0,1.570717907E1,-7.062568188E0,2.646126032E0
1.379544791E0,1.619796944E1,-7.268460751E0,2.569514990E0
1.381963541E0,1.636795044E1,-7.620393276E0,2.411504507E0
1.384383073E0,1.611656952E1,-8.120759010E0,2.119424343E0
1.386802604E0,1.570717907E1,-8.513391495E0,1.947049379E0
1.389221354E0,1.525948143E1,-8.771953583E0,1.820162058E0
1.391640104E0,1.475432682E1,-8.996999741E0,1.520899534E0
1.394059635E0,1.394272804E1,-9.279502869E0,9.319514036E-1
1.396479166E0,1.063408279E1,-1.077342033E1,6.877533197E-1
1.398897916E0,7.648642063E0,-1.212608624E1,6.973297000E-1
1.401316666E0,6.568903446E0,-1.232719040E1,6.398713589E-1
1.403736198E0,7.093211174E0,-1.163290119E1,1.969630420E-1
1.406155729E0,8.766685486E0,-1.004800892E1,-8.133465648E-1
1.408574479E0,1.082082272E1,-7.955566406E0,-2.139677286E0
1.410993229E0,1.202505493E1,-6.703453064E0,-3.683871031E0
1.413412760E0,1.208011913E1,-6.930892467E0,-5.342981339E0
1.415832291E0,1.130682468E1,-8.556484222E0,-6.087545872E0
1.418251041E0,1.072027111E1,-9.973792076E0,-6.417932034E0
1.420669791E0,1.034679222E1,-1.072553825E1,-7.614981174E0
1.423089323E0,1.034918594E1,-1.118281174E1,-8.072253227E0
1.425508854E0,1.067957115E1,-1.053879833E1,-8.606137276E0
1.427927552E0,1.064605331E1,-1.080214977E1,-8.469673157E0
1.430346302E0,1.059338379E1,-1.050528145E1,-8.809635162E0
1.432765833E0,8.163373947E0,-9.073610306E0,-7.868755817E0
1.435185364E0,5.800397873E0,-1.070399189E1,-5.204123497E0
1.437604114E0,4.641654015E0,-1.262166500E1,-4.095655918E0
1.440022864E0,3.607403517E0,-1.386180782E1,-4.239302158E0
1.442442396E0,2.776651382E0,-1.441484451E1,-5.223276615E0
1.444861927E0,1.993780971E0,-1.388335419E1,-6.899145603E0
1.447280677E0,1.981810570E0,-1.138152122E1,-1.229544353E1
1.449699427E0,1.747188926E0,-1.187231159E1,-9.221420288E0
1.452118958E0,1.967445850E0,-1.201595783E1,-5.819406986E0
1.454538489E0,2.053633451E0,-1.165684223E1,-3.880187511E0
1.456957239E0,2.132638693E0,-1.065371513E1,-4.648693085E0
1.459375989E0,2.094333172E0,-9.830145836E0,-5.311858177E0
1.461795521E0,2.106303692E0,-8.908417702E0,-5.417198658E0
1.464215052E0,2.300225735E0,-7.989084244E0,-4.967108250E0
1.466633802E0,2.417536497E0,-7.026656628E0,-4.272819519E0
1.469052552E0,2.446265697E0,-6.126474857E0,-3.535437107E0
1.471472083E0,2.372048616E0,-5.305299759E0,-2.731019735E0
1.473891614E0,2.328954935E0,-4.558340549E0,-1.833232880E0
1.476310364E0,2.276284695E0,-3.808987617E0,-8.085584044E-1
1.478729114E0,1.996175170E0,-2.992599964E0,8.601284027E-1
1.481148646E0,1.550872803E0,-2.157059669E0,1.719609976E0
1.483568177E0,5.740804672E-1,-1.369400978E0,3.778534651E0
1.485986927E0,-4.841112196E-1,-5.482251048E-1,5.428069115E0
1.488405677E0,-1.331622124E0,2.418275028E-1,6.663424015E0
1.490825208E0,-1.987605333E0,9.456924796E-1,7.386441231E0
1.493244739E0,-2.504730463E0,1.467606068E0,7.661763191E0
1.495663489E0,-2.945244789E0,1.908120275E0,7.702462673E0
1.498082239E0,-3.328300476E0,2.216959000E0,7.757526875E0
1.500501719E0,-3.522222519E0,2.257658720E0,7.599516392E0
1.502921250E0,-3.297177315E0,2.037401438E0,6.979444981E0
1.505340000E0,-2.729775667E0,1.374236345E0,5.586079597E0
1.507758750E0,-2.248561859E0,5.099665523E-1,4.350724220E0
1.510178281E0,-1.999575615E0,-2.489627451E-1,3.558277607E0
1.512597812E0,-2.097733736E0,-1.094079614E0,3.091428518E0
1.515016562E0,-2.399390221E0,-1.857797027E0,2.648520231E0
1.517435312E0,-2.416148901E0,-2.027778149E0,1.374859571E0
1.519854844E0,-2.803992987E0,-3.133851767E0,1.932684660E0
1.522274375E0,-3.199019194E0,-4.251895905E0,1.961413860E0
1.524693125E0,-3.543769360E0,-5.051525116E0,1.087567806E0
1.527111875E0,-3.768814802E0,-6.088169575E0,4.052496552E-1
1.529531406E0,-4.137506008E0,-7.055385590E0,5.571122468E-2
1.531950937E0,-4.281152248E0,-7.675457001E0,-3.656501770E-1
1.534369687E0,-4.163841248E0,-8.111183167E0,-5.763308406E-1
1.536788437E0,-3.895702124E0,-8.405656815E0,-5.978777409E-1
1.539207969E0,-3.471946478E0,-8.628307343E0,-6.673066020E-1
1.541627500E0,-2.928485870E0,-8.767165184E0,-6.409714818E-1
1.544046250E0,-2.217438698E0,-8.894052505E0,-5.619662404E-1
1.546465000E0,-1.413021445E0,-8.917993546E0,-6.026659012E-1
1.548884531E0,-4.793229997E-1,-8.920387268E0,-5.571780205E-1
1.551304062E0,5.381689668E-1,-8.987422943E0,-4.757786989E-1
1.553722812E0,2.063209772E0,-9.083186150E0,-4.805669188E-1
1.556141562E0,5.508317947E0,-1.030417633E1,2.376627326E-1
1.558561094E0,8.151403427E0,-1.112056446E1,8.697048426E-1
1.560980625E0,9.659685135E0,-1.122351074E1,1.365283251E0
1.563399375E0,1.080406380E1,-1.100804234E1,1.360495090E0
1.565818125E0,1.175930977E1,-1.063935089E1,1.372465611E0
1.568237656E0,1.260682106E1,-1.023714256E1,1.348524570E0
1.570657187E0,1.334899044E1,-9.873239517E0,1.413165331E0
1.573075885E0,1.409355545E1,-9.748746872E0,1.494564533E0
1.575494635E0,1.438563538E1,-9.767898560E0,9.032222033E-1
1.577914166E0,1.424438381E1,-1.020123100E1,1.418987811E-1
1.580333698E0,1.364107037E1,-1.068723297E1,-5.452075601E-1
1.582752448E0,1.293959999E1,-1.117562866E1,-1.100638390E0
1.585171198E0,1.193886662E1,-1.155389690E1,-1.505241156E0
1.587590729E0,1.192450237E1,-1.170472431E1,-2.795660496E0
1.590010260E0,1.045931339E1,-1.190343475E1,-3.542619228E0
1.592429010E0,9.252687454E0,-1.169036102E1,-5.433957100E0
1.594847760E0,7.624701500E0,-1.081890869E1,-7.121797085E0
1.597267291E0,9.700385094E0,-6.638812542E0,-1.108163548E1
1.599686823E0,1.186464977E1,-7.364223957E0,-1.365768528E1
1.602105573E0,1.236741066E1,-1.000730896E1,-1.256597614E1
1.604524323E0,1.449097538E1,-1.221945572E1,-9.527865410E0
1.606943854E0,1.723221970E1,-1.402221298E1,-6.207251072E0
1.609363385E0,1.755063629E1,-1.489845276E1,-6.434690475E0
1.611782135E0,1.753627205E1,-1.112535286E1,-1.416284084E1
1.614200885E0,1.949943161E1,-1.191540527E1,-1.052620411E1
1.616620416E0,1.887457085E1,-1.257378292E1,-5.795465946E0
1.619039948E0,1.775173950E1,-1.354339218E1,-4.210573196E0
1.621458698E0,1.666481781E1,-1.429992771E1,-2.177983046E0
1.623877448E0,1.503443718E1,-1.518813896E1,-9.976922870E-1
1.626296979E0,1.290847683E1,-1.612423134E1,-2.770684958E-1
1.628716510E0,1.145765305E1,-1.578187466E1,-8.516522050E-1
1.631135260E0,1.049283218E1,-1.456088448E1,-2.048701525E0
1.633554010E0,1.031806183E1,-1.205905151E1,-2.374299049E0
1.635973541E0,1.048564911E1,-9.815780640E0,-2.079824686E0
1.638393073E0,9.065948486E0,-9.913938522E0,-2.388663530E0
1.640811771E0,7.323044777E0,-1.005758476E1,-2.537097692E0
1.643230521E0,5.659145832E0,-1.058907413E1,-2.070248604E0
1.645650052E0,4.328027248E0,-1.075666142E1,-1.562699556E0
1.648069583E0,3.458969593E0,-1.020123100E1,-1.136549950E0
1.650488333E0,3.248288870E0,-9.102339745E0,-7.104003429E-1
1.652907083E0,3.332082272E0,-8.238070488E0,6.768171489E-2
1.655326614E0,3.432634354E0,-8.082453728E0,9.151927233E-1
1.657746146E0,3.365599632E0,-7.998660564E0,1.568781614E0
1.660164896E0,3.157313108E0,-7.821496964E0,2.356440067E0
1.662583646E0,2.989726067E0,-7.608422756E0,3.067487478E0
1.665003177E0,2.910720825E0,-7.392953396E0,3.634888649E0
1.667422708E0,2.987332106E0,-7.222972393E0,4.029915333E0
1.669841458E0,3.150130749E0,-7.175090790E0,4.128073215E0
1.672260208E0,3.229135990E0,-7.079326630E0,3.998791695E0
1.674679739E0,3.107037067E0,-7.017080307E0,3.713893890E0
1.677099271E0,2.922691345E0,-6.875828266E0,3.558277607E0
1.679518021E0,2.747921944E0,-6.844705105E0,3.491242886E0
1.681936771E0,2.683281422E0,-6.823158264E0,3.591794968E0
1.684356302E0,2.597094059E0,-6.849493027E0,3.886269093E0
1.686775833E0,2.573153019E0,-6.911739349E0,4.137649536E0
1.689194583E0,2.489359617E0,-6.914133549E0,4.286083698E0
1.691613333E0,2.628217220E0,-6.748940945E0,4.283689499E0
1.694032812E0,2.798198223E0,-6.416161060E0,4.439305782E0
1.696452344E0,3.035213947E0,-6.198297977E0,4.329177380E0
1.698871094E0,3.375175953E0,-6.169569016E0,3.632494688E0
1.701289844E0,3.521215916E0,-5.968464375E0,3.172827721E0
1.703709375E0,3.731896877E0,-5.729054928E0,2.811318636E0
1.706128906E0,3.889907360E0,-5.477674484E0,2.684431791E0
1.708547656E0,4.074252605E0,-5.317270279E0,2.373198748E0
1.710966406E0,4.167622566E0,-5.231081963E0,1.865649939E0
1.713385937E0,4.181987286E0,-5.104195118E0,1.642998695E0
1.715805469E0,4.301692009E0,-4.989278793E0,1.518505573E0
1.718224219E0,4.466884613E0,-4.848026752E0,1.317401171E0
1.720642969E0,4.483643532E0,-4.809720993E0,7.571821809E-1
1.723062500E0,4.481249332E0,-4.733109474E0,1.371105760E-1
1.725482031E0,4.634471893E0,-4.067550182E0,-3.848029375E-1
1.727900781E0,4.876276016E0,-3.966998100E0,-3.105858564E-1
1.730319531E0,4.878669739E0,-4.776203632E0,-2.722802758E-1
1.732739062E0,4.797270298E0,-5.319664001E0,-5.906954408E-1
1.735158594E0,4.490825653E0,-6.341944218E0,1.022332907E-2
1.737577344E0,4.323238850E0,-6.844705105E0,5.345309973E-1
1.739996094E0,3.753443480E0,-7.278036594E0,6.469488144E-4
1.742415625E0,3.990459204E0,-5.152077198E0,-7.056121826E-1
1.744835156E0,4.373515129E0,-3.485784292E0,-1.821262360E0
1.747253906E0,4.696718216E0,-3.646188736E0,-2.230653048E0
1.749672656E0,4.699112415E0,-3.892781019E0,-2.034337044E0
1.752092187E0,4.215504646E0,-4.101067543E0,-2.223470688E0
1.754511719E0,4.110164165E0,-3.868839979E0,-1.529182196E0
1.756930416E0,3.978488684E0,-3.990939140E0,-8.301053643E-1
1.759349166E0,3.789355040E0,-4.484123707E0,-2.794626355E-1
1.761768698E0,3.377569914E0,-5.147289276E0,3.286384940E-1
1.764188229E0,3.080701828E0,-5.827213287E0,6.111421585E-1
1.766606979E0,2.745527983E0,-6.339550018E0,7.978818417E-1
1.769025729E0,2.393595457E0,-7.079326630E0,1.518505573E0
1.771445260E0,1.936322689E0,-8.846170425E0,1.293460369E0
1.773864791E0,2.178126574E0,-8.929965019E0,1.650181055E0
1.776283541E0,2.099121332E0,-8.494238853E0,2.035630941E0
1.778702291E0,1.749583006E0,-8.618731499E0,2.298981667E0
1.781121823E0,1.493414402E0,-9.011363983E0,2.267858505E0
1.783541354E0,1.605937004E0,-8.973058701E0,3.033969879E0
1.785960104E0,1.716065526E0,-9.559612274E0,3.479272366E0
1.788378854E0,2.379230976E0,-1.037121201E1,3.539124966E0
1.790798385E0,2.836503744E0,-1.052443504E1,2.619791031E0
1.793217916E0,3.178859949E0,-1.018926048E1,1.868043900E0
1.795636666E0,3.377569914E0,-9.949851036E0,1.137843847E0
1.798055416E0,3.554733515E0,-9.313020706E0,6.049941480E-2
1.800474948E0,3.712743998E0,-8.736042976E0,-7.175827026E-1
1.802894479E0,3.827660799E0,-8.439173698E0,-1.328077793E0
1.805313229E0,3.662467718E0,-8.171034813E0,-1.387930393E0
1.807731979E0,3.537974834E0,-7.823891163E0,-1.148520470E0
1.810151510E0,3.818084240E0,-7.419288635E0,-1.258648872E0
1.812571041E0,4.220292568E0,-7.093690872E0,-1.320895672E0
1.814989739E0,4.258598328E0,-6.911739349E0,-8.995342851E-1
1.817408489E0,4.081434727E0,-6.909345627E0,-8.929461241E-3
1.819828021E0,3.801325560E0,-6.938074589E0,4.651021063E-1
1.822247552E0,3.561915874E0,-6.988350391E0,3.525794744E-1
1.824666302E0,2.893962383E0,-6.772881985E0,-1.334225833E-1
1.827085052E0,2.278678656E0,-6.698665142E0,-5.332370400E-1
1.829504583E0,2.039268732E0,-6.538259983E0,-1.016844988E0
1.831924114E0,1.754371166E0,-6.569383621E0,-1.198796511E0
1.834342864E0,1.538902283E0,-6.566989422E0,-1.038391829E0
1.836761614E0,1.230063438E0,-6.533472061E0,-8.851695657E-1
1.839181146E0,1.007412314E0,-6.495166779E0,-5.380252600E-1
1.841600677E0,8.278548717E-1,-6.499954700E0,-3.225563765E-1
1.844019427E0,5.836568475E-1,-6.401796341E0,2.137217522E-1
1.846438177E0,3.490351737E-1,-6.186327457E0,9.654687643E-1
1.848857708E0,8.568429947E-2,-5.915794373E0,1.803403378E0
1.851277239E0,-1.034494936E-1,-5.604561806E0,2.708372355E0
1.853695989E0,-3.835590780E-1,-5.427398682E0,3.740229130E0
1.856114739E0,-4.912935197E-1,-5.209535599E0,5.023466110E0
1.858534271E0,-4.673524797E-1,-4.967731476E0,6.275579929E0
1.860953802E0,-5.655105114E-1,-4.749868393E0,7.161396503E0
1.863372500E0,-6.852154732E-1,-4.529611588E0,7.561211109E0
1.865791250E0,-8.982902765E-1,-4.294989586E0,7.338559628E0
1.868210781E0,-1.027571559E0,-4.120220661E0,6.826222420E0
1.870630312E0,-9.581427574E-1,-3.710829496E0,6.419225216E0
1.873049062E0,-9.437781572E-1,-3.306226730E0,5.863794804E0
1.875467812E0,-1.283740044E0,-3.167369127E0,4.762509346E0
1.877887344E0,-1.645249128E0,-3.279891729E0,4.310024738E0
1.880306875E0,-2.351508141E0,-3.682100296E0,3.654041767E0
1.882725625E0,-3.378576517E0,-4.311748505E0,2.974117517E0
1.885144375E0,-4.932346821E0,-5.051525116E0,4.262142658E0
1.887563906E0,-6.660886288E0,-6.332367420E0,1.125873327E0
1.889983437E0,-7.386298180E0,-7.598845959E0,-2.477245331E0
1.892402187E0,-6.703979492E0,-7.974719524E0,-6.410749435E0
1.894820937E0,-6.155731201E0,-7.136785030E0,-5.326222897E0
1.897240469E0,-6.038420677E0,-7.079326630E0,-4.198602676E0
1.899660000E0,-5.478201389E0,-7.170301914E0,-3.638383389E0
1.902078750E0,-5.133450985E0,-7.148755550E0,-3.427702665E0
1.904497500E0,-4.776730061E0,-7.120026112E0,-3.296026945E0
1.906917031E0,-4.441556931E0,-7.163120270E0,-3.128440142E0
1.909336562E0,-4.125535488E0,-7.301977634E0,-3.035070181E0
1.911755260E0,-4.075259686E0,-7.457593918E0,-2.810024977E0
1.914174010E0,-3.878943205E0,-7.783191681E0,-2.546674252E0
1.916593541E0,-3.780785322E0,-7.754462719E0,-2.314446449E0
1.919013073E0,-3.522222519E0,-7.886137486E0,-1.818868160E0
1.921431823E0,-3.143954992E0,-8.001054764E0,-1.634522438E0
1.923850573E0,-2.873421669E0,-7.977113724E0,-1.237102032E0
1.926270104E0,-2.471213341E0,-8.202158928E0,-1.325683832E0
1.928689635E0,-2.279685259E0,-8.178217888E0,-1.361595154E0
1.931108385E0,-2.274896860E0,-8.187793732E0,-1.354413033E0
1.933527135E0,-2.274896860E0,-8.264405251E0,-1.450176954E0
1.935946666E0,-2.303626299E0,-8.206946373E0,-1.476511955E0
1.938366198E0,-2.301232338E0,-8.252434731E0,-1.442994595E0
1.940784948E0,-2.203073978E0,-8.317074776E0,-1.138944149E0
1.943203698E0,-2.011546135E0,-8.494238853E0,-9.282633662E-1
1.945623229E0,-1.762559891E0,-8.680978775E0,-8.085584044E-1
1.948042760E0,-1.331622124E0,-8.317074776E0,-6.864593625E-1
1.950461458E0,-7.642207146E-1,-7.929231644E0,-2.076396346E-1
1.952880208E0,-4.505937994E-1,-7.649122238E0,1.778102666E-1
1.955299791E0,-2.782187164E-1,-7.522234440E0,4.459493160E-1
1.957719323E0,-1.058436036E-1,-7.357042313E0,5.967775583E-1
1.960138021E0,-2.444422245E-2,-7.397741795E0,7.691526413E-1
1.962556771E0,6.653150916E-2,-7.740097523E0,1.733974457E0
1.964976302E0,3.203059733E-1,-8.341015816E0,4.128073215E0
1.967395833E0,6.482975483E-1,-8.783925056E0,6.469501972E0
1.969814583E0,8.350372314E-1,-9.198103905E0,8.353657722E0
1.972233333E0,9.523481131E-1,-9.672134399E0,9.325662613E0
1.974652864E0,1.112752676E0,-9.923515320E0,9.557888985E0
1.977072396E0,1.373709440E0,-1.017489529E1,9.014429092E0
1.979491146E0,1.584390163E0,-1.010067844E1,8.760654449E0
1.981909896E0,1.921957970E0,-9.899574280E0,8.090306282E0
1.984329427E0,2.350501776E0,-1.040472984E1,7.000991344E0
1.986748958E0,2.633005619E0,-1.175739479E1,6.462319374E0
1.989167708E0,2.716798782E0,-1.282755756E1,5.997864246E0
1.991586458E0,2.982543707E0,-1.297838593E1,5.827883244E0
1.994005989E0,3.231529951E0,-1.318667126E1,5.947587967E0
1.996425521E0,3.107037067E0,-1.305260277E1,6.194180489E0
1.998844219E0,2.977755547E0,-1.262645245E1,6.653847218E0
2.001262969E0,3.068731308E0,-1.243731880E1,6.208544731E0
2.003682552E0,3.320111752E0,-1.234155560E1,4.812785625E0
2.006102083E0,3.322505713E0,-1.228170300E1,3.941333532E0
2.008520781E0,3.140554190E0,-1.253547764E1,2.995664358E0
2.010939531E0,3.631344557E0,-1.286107445E1,2.607820511E0
2.013359062E0,3.830054760E0,-1.340453434E1,2.954964638E0
2.015778594E0,3.990459204E0,-1.484099483E1,3.314079523E0
2.018197344E0,4.474067211E0,-1.657911110E1,3.369143963E0
2.020616094E0,5.036680222E0,-1.822385597E1,3.275774002E0
2.023035625E0,5.010345459E0,-2.006252480E1,2.550361872E0
2.025455156E0,4.888246059E0,-2.184373474E1,1.702851057E0
2.027873906E0,4.696718216E0,-2.371831322E1,7.643644810E-1
2.030292656E0,4.622501373E0,-2.540136528E1,-3.047633171E-2
2.032712187E0,4.488431931E0,-2.692640686E1,-7.894056439E-1
2.035131719E0,4.794876099E0,-2.790559196E1,-1.179643631E0
2.037550469E0,5.065409184E0,-2.873394966E1,-7.151885629E-1
2.039969219E0,5.347913265E0,-2.894223595E1,-2.603098154E-1
2.042388750E0,5.709422112E0,-2.872916222E1,6.949355602E-1
2.044808281E0,6.066142559E0,-2.822400665E1,1.870438099E0
2.047226979E0,6.707761288E0,-2.708681107E1,3.024393797E0
2.049645729E0,7.306285858E0,-2.512125397E1,4.283689499E0
2.052065260E0,7.294315338E0,-2.242789459E1,5.293999672E0
2.054484791E0,6.607209206E0,-1.958609772E1,5.971529007E0
2.056903541E0,5.747727871E0,-1.723270035E1,6.289944649E0
2.059322291E0,5.084562302E0,-1.529587269E1,6.385708332E0
2.061741823E0,4.533919811E0,-1.371337318E1,6.371343613E0
2.064161354E0,4.014400005E0,-1.231043148E1,6.263609409E0
2.066580104E0,3.561915874E0,-1.116365814E1,6.165451050E0
2.068998854E0,3.130978107E0,-1.018686676E1,5.942800045E0
2.071418385E0,2.779045582E0,-9.341749191E0,5.629172802E0
2.073837916E0,2.506118298E0,-8.582819939E0,5.222176552E0
2.076256666E0,2.247555494E0,-7.926837444E0,4.760115147E0
2.078675416E0,2.027298450E0,-7.426471233E0,4.221443176E0
2.081094948E0,1.883652568E0,-6.985956669E0,3.610947609E0
2.083514479E0,1.670577645E0,-6.634024143E0,3.017211199E0
2.085933177E0,1.493414402E0,-6.313215256E0,2.471356630E0
2.088351927E0,1.340192080E0,-6.078593254E0,1.949443340E0
2.090771458E0,1.170211077E0,-5.889459610E0,1.417953491E0
2.093190989E0,1.060082436E0,-5.750601768E0,9.582864642E-1
2.095609739E0,8.972837925E-1,-5.633291245E0,6.398713589E-1
2.098028489E0,7.680024505E-1,-5.590197086E0,3.477912545E-1
2.100448021E0,5.716863275E-1,-5.604561806E0,1.730220616E-1
2.102867552E0,4.878928959E-1,-5.583014488E0,6.049941480E-2
2.105286302E0,3.993112445E-1,-5.621320724E0,-6.535321474E-3
2.107705052E0,2.221479267E-1,-5.748207569E0,-3.047633171E-2
2.110124583E0,-5.291432142E-3,-5.994799614E0,-4.484093189E-2
2.112544114E0,-2.447012961E-1,-6.262938976E0,-6.535321474E-3
2.114962864E0,-4.888993800E-1,-6.629236221E0,6.049941480E-2
2.117381614E0,-7.498561144E-1,-7.019474030E0,2.041453421E-1
2.119801146E0,-1.022783399E0,-7.416894436E0,4.411611259E-1
2.122220677E0,-1.259799123E0,-7.809526443E0,6.877533197E-1
2.124639427E0,-1.499208927E0,-8.161458969E0,1.061232686E0
2.127058177E0,-1.659613609E0,-8.475085258E0,1.446682692E0
2.129477708E0,-1.817624331E0,-8.745618820E0,1.865649939E0
2.131897239E0,-1.949299574E0,-8.953906059E0,2.265464306E0
2.134315937E0,-2.052245617E0,-9.155009270E0,2.662884712E0
2.136734687E0,-2.066610575E0,-9.279502869E0,3.038758278E0
2.139154219E0,-2.102521896E0,-9.415966988E0,3.371537924E0
2.141573750E0,-2.076186657E0,-9.473424911E0,3.711499929E0
2.143992500E0,-2.040275574E0,-9.511730194E0,4.063432693E0
2.146411250E0,-1.954087734E0,-9.526094437E0,4.417759418E0
2.148830781E0,-1.908600092E0,-9.547641754E0,4.733779907E0
2.151250312E0,-1.839170933E0,-9.573976517E0,5.042618752E0
2.153669062E0,-1.731436491E0,-9.626647949E0,5.334699154E0
2.156087812E0,-1.645249128E0,-9.741563797E0,5.641143322E0
2.158507344E0,-1.563849688E0,-9.849298477E0,5.940405846E0
2.160926875E0,-1.484844446E0,-1.002406788E1,6.287550449E0
2.163345625E0,-1.405839205E0,-1.018686676E1,6.625117779E0
2.165764375E0,-1.353168964E0,-1.038318253E1,6.933957100E0
2.168183854E0,-1.269375563E0,-1.056513405E1,7.226037025E0
2.170603385E0,-1.180793881E0,-1.072553825E1,7.463052273E0
2.173022135E0,-1.082635880E0,-1.083087826E1,7.585152149E0
2.175440885E0,-9.749013186E-1,-1.090509605E1,7.652186394E0
2.177860416E0,-8.456201553E-1,-1.092664242E1,7.563604832E0
2.180279948E0,-7.187328339E-1,-1.087157822E1,7.400805950E0
2.182698698E0,-6.516981125E-1,-1.077820873E1,7.113514423E0
2.185117448E0,-5.846632719E-1,-1.063216877E1,6.780734539E0
2.187536979E0,-5.607223511E-1,-1.043824673E1,6.488654613E0
2.189956510E0,-5.631164312E-1,-1.007673740E1,6.036170006E0
2.192375260E0,-5.559341908E-1,-9.748746872E0,5.554955959E0
2.194794010E0,-5.463577509E-1,-9.396813393E0,5.135989189E0
2.197213541E0,-5.798751116E-1,-9.066427231E0,4.728991985E0
2.199633073E0,-5.702987909E-1,-8.714495659E0,4.254960537E0
2.202051823E0,-5.559341908E-1,-8.420022011E0,3.807263851E0
2.204470573E0,-5.535401106E-1,-8.132729530E0,3.338020563E0
2.206890104E0,-5.008698702E-1,-7.890925884E0,2.849624395E0
2.209309635E0,-4.553820193E-1,-7.632363796E0,2.327710867E0
2.211728333E0,-3.859531581E-1,-7.366618633E0,1.712427616E0
2.214147083E0,-3.261006773E-1,-7.131996632E0,1.104326487E0
2.216566614E0,-2.566718161E-1,-6.947650909E0,4.579198062E-1
2.218986146E0,-2.255485356E-1,-6.777669907E0,-1.813045442E-1
2.221404896E0,-1.872429550E-1,-6.681906223E0,-8.037702441E-1
2.223823646E0,-1.393609643E-1,-6.657965183E0,-1.435812235E0
2.226243177E0,-7.472032309E-2,-6.677118301E0,-1.969696283E0
2.228662708E0,-2.444422245E-2,-6.744152546E0,-2.400634050E0
2.231081458E0,8.089610934E-2,-6.839916706E0,-2.819601536E0
2.233500208E0,2.269361317E-1,-7.009897709E0,-3.126045942E0
2.235919739E0,3.466410637E-1,-7.249307632E0,-3.418126106E0
2.238339271E0,4.783164859E-1,-7.519840717E0,-3.662324190E0
2.240758021E0,6.315388083E-1,-7.766433239E0,-3.932857513E0
2.243176771E0,7.344850302E-1,-8.063301086E0,-4.186632156E0
2.245596250E0,8.206726313E-1,-8.384110451E0,-4.347036362E0
2.248015781E0,8.517959118E-1,-8.642672539E0,-4.617569447E0
2.250434531E0,9.379833937E-1,-8.803077698E0,-4.919226170E0
2.252853281E0,1.052900195E0,-9.013757706E0,-5.048507690E0
2.255272812E0,1.093599916E0,-9.257955551E0,-5.113148212E0
2.257692344E0,1.069658875E0,-9.485395432E0,-5.173000336E0
2.260111094E0,1.033747435E0,-9.741563797E0,-5.247217655E0
2.262529844E0,9.499539137E-1,-1.004561424E1,-5.256793976E0
2.264949375E0,7.225145698E-1,-1.041191196E1,-5.263976097E0
2.267368906E0,4.424050450E-1,-1.082369614E1,-5.314252377E0
2.269787656E0,1.599013656E-1,-1.119238758E1,-5.405228138E0
2.272206406E0,-1.656960845E-1,-1.149164963E1,-5.455503941E0
2.274625937E0,-2.566718161E-1,-1.198244095E1,-5.247217655E0
2.277045469E0,-2.351249158E-1,-1.256899452E1,-4.943167210E0
2.279464166E0,-5.415695906E-1,-1.313639545E1,-4.900073051E0
2.281882916E0,-8.192850351E-1,-1.369900990E1,-5.058083534E0
2.284302448E0,-9.318076372E-1,-1.419458771E1,-5.139482975E0
2.286721979E0,-1.085029960E0,-1.470213699E1,-5.000625610E0
2.289140729E0,-1.219099522E0,-1.531263161E1,-4.667845726E0
2.291559479E0,-1.295710564E0,-1.588482189E1,-4.105232716E0
2.293979010E0,-1.499208927E0,-1.662459946E1,-3.039858580E0
2.296398541E0,-1.748195410E0,-1.756068993E1,-8.612286448E-1
2.298817291E0,-2.145615816E0,-1.868831253E1,1.987748861E0
2.301236041E0,-2.521489143E0,-1.973692703E1,5.425674438E0
2.303655573E0,-2.950032949E0,-2.048628044E1,8.451815605E0
2.306075104E0,-3.153531313E0,-2.100579834E1,1.054665279E1
2.308493854E0,-3.203807116E0,-2.102734566E1,1.159287357E1
2.310912604E0,-3.184654474E0,-2.059162140E1,1.164554310E1
2.313332135E0,-2.928485870E0,-1.965073776E1,1.075493908E1
2.315751666E0,-2.710623026E0,-1.820470428E1,9.045552254E0
2.318170364E0,-2.411360741E0,-1.650249863E1,7.091967583E0
2.320589114E0,-2.109704256E0,-1.490563488E1,5.042618752E0
2.323008646E0,-1.791289091E0,-1.343326473E1,3.048334599E0
2.325428177E0,-1.456115246E0,-1.220987988E1,1.262336969E0
2.327846927E0,-1.068271279E0,-1.107747078E1,-1.860927343E-1
2.330265677E0,-8.264672756E-1,-1.011743736E1,-1.349624634E0
2.332685208E0,-7.402796745E-1,-9.449483871E0,-2.300081968E0
2.335104739E0,-4.338351190E-1,-8.810259819E0,-2.915365219E0
2.337523489E0,-2.135780156E-1,-8.408051491E0,-3.140410662E0
2.339942239E0,-2.683836222E-2,-7.931625366E0,-3.315179825E0
2.342361771E0,2.343773842E-2,-7.522234440E0,-3.645565510E0
2.344781302E0,2.197538316E-1,-7.000320911E0,-4.093262196E0
2.347200052E0,3.250941634E-1,-6.571777344E0,-4.603205204E0
2.349618802E0,4.783164859E-1,-6.152810574E0,-4.940773010E0
2.352038281E0,6.243565083E-1,-5.798483372E0,-4.734880447E0
2.354457812E0,7.177263498E-1,-5.511191845E0,-4.521805763E0
2.356876562E0,7.608201504E-1,-5.250235081E0,-4.351824760E0
2.359295312E0,8.996778727E-1,-5.022795677E0,-4.203390598E0
2.361714844E0,1.086417556E0,-4.807327271E0,-4.062138557E0
2.364134375E0,1.414409161E0,-4.512852669E0,-3.999892235E0
2.366553125E0,1.701701045E0,-4.302172184E0,-3.963980675E0
2.368971875E0,2.056027651E0,-4.077126503E0,-3.975951195E0
2.371391406E0,2.340925455E0,-4.007697582E0,-4.004680634E0
2.373810937E0,2.549211979E0,-4.000515461E0,-4.064532757E0
2.376229687E0,2.767075062E0,-4.057973862E0,-4.138750076E0
2.378648437E0,2.908326864E0,-4.136979103E0,-4.258454323E0
2.381067969E0,3.059154987E0,-4.362024784E0,-4.363795280E0
2.383487500E0,3.186042309E0,-4.634951591E0,-4.514623642E0
2.385906198E0,3.272229671E0,-4.955760956E0,-4.663057327E0
2.388324948E0,3.277018070E0,-5.300510883E0,-4.770792007E0
2.390744479E0,3.257865191E0,-5.805665970E0,-4.794733047E0
2.393164010E0,3.243500471E0,-6.363491058E0,-4.756427765E0
2.395582760E0,3.236318350E0,-6.894980907E0,-4.737274647E0
2.398001510E0,3.219559431E0,-7.436047077E0,-4.746850967E0
2.400421041E0,3.186042309E0,-7.886137486E0,-4.770792007E0
2.402840573E0,3.231529951E0,-8.211734772E0,-4.871344090E0
2.405259323E0,3.253077030E0,-8.599578857E0,-4.847403049E0
2.407678073E0,3.176465750E0,-9.008969307E0,-4.835432529E0
2.410097604E0,3.044790268E0,-9.425542831E0,-4.782762527E0
2.412517135E0,2.934661865E0,-9.851692200E0,-4.689392567E0
2.414935885E0,2.774257183E0,-1.019883633E1,-4.514623642E0
2.417354635E0,2.647370100E0,-1.056273937E1,-4.227331638E0
2.419774166E0,2.554000139E0,-1.095537186E1,-3.942433357E0
2.422193698E0,2.427113056E0,-1.133363914E1,-3.607259750E0
2.424612396E0,2.300225735E0,-1.157304955E1,-3.185898542E0
2.427031146E0,2.223614454E0,-1.181006527E1,-2.731019735E0
2.429450677E0,2.123062372E0,-1.204947472E1,-2.280929327E0
2.431870208E0,2.067998171E0,-1.227691460E1,-1.835626841E0
2.434288958E0,2.048845291E0,-1.245168400E1,-1.387930393E0
2.436707708E0,2.010539770E0,-1.258575344E1,-9.378396869E-1
2.439127239E0,1.962657809E0,-1.260729980E1,-3.824088573E-1
2.441546771E0,1.945899010E0,-1.256181240E1,3.286384940E-1
2.443965521E0,1.898017049E0,-1.245647144E1,1.089961886E0
2.446384271E0,1.835770488E0,-1.228888416E1,1.817767859E0
2.448803802E0,1.785494447E0,-1.201595783E1,2.567120790E0
2.451223333E0,1.711277366E0,-1.169514847E1,3.294926643E0
2.453642031E0,1.629878044E0,-1.133842754E1,3.996397734E0
2.456060781E0,1.522143483E0,-1.102719498E1,4.554223061E0
2.458480312E0,1.352162480E0,-1.065610981E1,5.025859833E0
2.460899844E0,1.239639878E0,-1.026108360E1,5.392157555E0
2.463318594E0,1.064870715E0,-9.921121597E0,5.689025402E0
2.465737344E0,8.589781523E-1,-9.638617516E0,5.868582726E0
2.468156875E0,6.387211084E-1,-9.315414429E0,5.981105328E0
2.470576406E0,3.657938540E-1,-9.056851387E0,5.930829525E0
2.472995156E0,1.263839751E-1,-8.858141899E0,5.614808559E0
2.475413906E0,-1.178140938E-1,-8.757589340E0,5.179082394E0
2.477833437E0,-1.824547648E-1,-8.836594582E0,4.731386185E0
2.480252969E0,-2.734304965E-1,-8.992210388E0,4.290872097E0
2.482671719E0,-5.128403902E-1,-9.143039703E0,3.783323050E0
2.485090469E0,-8.073145151E-1,-9.257955551E0,3.266197681E0
2.487510000E0,-9.940541983E-1,-9.281896591E0,2.670067072E0
2.489929531E0,-1.142488360E0,-9.334567070E0,2.215188265E0
2.492348229E0,-1.178399801E0,-9.334567070E0,1.832132578E0
2.494766979E0,-1.199946761E0,-9.377660751E0,1.432317972E0
2.497186510E0,-1.269375563E0,-9.353719711E0,1.135449767E0
2.499606041E0,-1.343592644E0,-9.317808151E0,9.008280635E-1
2.502024791E0,-1.379504085E0,-9.308231354E0,6.853592396E-1
2.504443541E0,-1.381898284E0,-9.305837631E0,6.111421585E-1
2.506863073E0,-1.322045684E0,-9.250773430E0,5.153781772E-1
2.509282604E0,-1.233464122E0,-9.128674507E0,3.430030942E-1
2.511701354E0,-1.108971000E0,-9.006575584E0,2.232981324E-1
2.514120104E0,-9.940541983E-1,-8.901235580E0,1.371105760E-1
2.516539635E0,-9.078665972E-1,-8.846170425E0,-3.287041187E-2
2.518959166E0,-7.881617546E-1,-8.774347305E0,-2.028514445E-1
2.521377864E0,-6.253629923E-1,-8.700130463E0,-4.159262180E-1
2.523796614E0,-4.505937994E-1,-8.611549377E0,-6.601243019E-1
2.526216146E0,-2.494895160E-1,-8.568455696E0,-9.498102069E-1
2.528635677E0,-9.147900343E-2,-8.542120934E0,-1.196402311E0
2.531054427E0,7.610791922E-2,-8.506209373E0,-1.414265394E0
2.533473177E0,2.029951513E-1,-8.482268333E0,-1.632128477E0
2.535892708E0,3.633997440E-1,-8.431992531E0,-1.847597361E0
2.538312239E0,4.807105958E-1,-8.372139931E0,-2.015184402E0
2.540730989E0,6.099919081E-1,-8.348198891E0,-2.197135687E0
2.543149739E0,7.153322697E-1,-8.338622093E0,-2.340781689E0
2.545569271E0,8.230667114E-1,-8.333833694E0,-2.520339012E0
2.547988802E0,8.996778727E-1,-8.321863174E0,-2.678349495E0
2.550407552E0,9.355893135E-1,-8.331439972E0,-2.862695217E0
2.552826302E0,9.595303535E-1,-8.384110451E0,-3.066193581E0
2.555245781E0,1.000230074E0,-8.388897896E0,-3.269691944E0
2.557665312E0,1.038535595E0,-8.436779976E0,-3.489948988E0
2.560084062E0,1.084023476E0,-8.427203178E0,-3.657536030E0
2.562502812E0,1.131905437E0,-8.436779976E0,-3.772452831E0
2.564922344E0,1.174999237E0,-8.441568375E0,-3.851458073E0
2.567341875E0,1.220487118E0,-8.515785217E0,-3.899340153E0
2.569760625E0,1.246822238E0,-8.549303055E0,-3.925674915E0
2.572179375E0,1.242033958E0,-8.578031540E0,-3.947222233E0
2.574598906E0,1.287521839E0,-8.637884140E0,-3.930462837E0
2.577018437E0,1.316251040E0,-8.683372498E0,-3.873004913E0
2.579437187E0,1.328221560E0,-8.748012543E0,-3.839487553E0
2.581855937E0,1.325827479E0,-8.836594582E0,-3.774847031E0
2.584275469E0,1.311462879E0,-8.901235580E0,-3.681477070E0
2.586695000E0,1.333009720E0,-8.958693504E0,-3.604865789E0
2.589113698E0,1.321039319E0,-9.028122902E0,-3.525860548E0
2.591532448E0,1.280339599E0,-9.066427231E0,-3.487555027E0
2.593951979E0,1.242033958E0,-9.092763901E0,-3.430096626E0
2.596371510E0,1.242033958E0,-9.140645027E0,-3.355879545E0
2.598790260E0,1.208516598E0,-9.159797668E0,-3.317574024E0
2.601209010E0,1.191757917E0,-9.145433426E0,-3.298421383E0
2.603628541E0,1.158240557E0,-9.176556587E0,-3.217021704E0
2.606048073E0,1.129511356E0,-9.092763901E0,-3.190686703E0
2.608466823E0,1.024170995E0,-9.159797668E0,-3.126045942E0
2.610885573E0,9.978358746E-1,-9.219650269E0,-3.035070181E0
2.613305104E0,9.930477142E-1,-9.219650269E0,-2.987188339E0
2.615724635E0,9.619244337E-1,-9.202891350E0,-2.936912298E0
2.618143333E0,8.494018316E-1,-9.291473389E0,-2.821995497E0
2.620562083E0,8.039139509E-1,-9.356113434E0,-2.726231575E0
2.622981614E0,7.632142305E-1,-9.420754433E0,-2.644832373E0
2.625401146E0,6.985735893E-1,-9.408784866E0,-2.544280052E0
2.627819896E0,6.195683479E-1,-9.542853355E0,-2.393451691E0
2.630238646E0,5.261985064E-1,-9.629041672E0,-2.223470688E0
2.632658177E0,4.783164859E-1,-9.734381676E0,-2.063066244E0
2.635077708E0,4.328286052E-1,-9.782263756E0,-1.885902882E0
2.637496458E0,3.370646834E-1,-9.897180557E0,-1.632128477E0
2.639915208E0,2.532712221E-1,-9.945062637E0,-1.397506714E0
2.642334739E0,1.622954607E-1,-9.983367920E0,-1.182037830E0
2.644754271E0,8.089610934E-2,-1.007194996E1,-8.181348443E-1
2.647173021E0,1.386132836E-2,-1.004561424E1,-4.638081789E-1
2.649591771E0,-8.190259337E-2,-1.006476784E1,-8.314651251E-2
2.652011302E0,-1.776665747E-1,-1.006476784E1,3.406089842E-1
2.654430833E0,-2.782187164E-1,-1.008152580E1,7.859113812E-1
2.656849531E0,-4.266528189E-1,-1.003603745E1,1.319795370E0
2.659268281E0,-5.726928711E-1,-1.004082680E1,1.798615217E0
2.661687812E0,-7.402796745E-1,-1.006716156E1,2.246311665E0
2.664107344E0,-9.461722374E-1,-1.011025429E1,2.626973152E0
2.666526094E0,-1.190370321E0,-1.017489529E1,2.933418036E0
2.668944844E0,-1.391474605E0,-1.020841312E1,3.148886681E0
2.671364375E0,-1.606943488E0,-1.030657196E1,3.218315601E0
2.673783906E0,-1.796077251E0,-1.039515305E1,3.146492720E0
2.676202656E0,-2.009151936E0,-1.053879833E1,2.887929916E0
2.678621406E0,-2.171950817E0,-1.066807938E1,2.502480268E0
2.681040937E0,-2.282079220E0,-1.083327293E1,2.033236742E0
2.683460469E0,-2.385025501E0,-1.099846554E1,1.523293734E0
2.685879166E0,-2.432907581E0,-1.116365814E1,1.042079926E0
2.688297916E0,-2.468818903E0,-1.135039902E1,5.560778379E-1
2.690717448E0,-2.466424942E0,-1.152756119E1,9.401680529E-2
2.693136979E0,-2.425725222E0,-1.165923691E1,-3.105858564E-1
2.695555729E0,-2.298837900E0,-1.175500107E1,-6.385774016E-1
2.697974479E0,-2.116886377E0,-1.182442951E1,-9.186870456E-1
2.700394010E0,-1.910994053E0,-1.190582943E1,-1.119791269E0
2.702813541E0,-1.635672688E0,-1.189864635E1,-1.251466751E0
2.705232291E0,-1.326833963E0,-1.179330635E1,-1.330471992E0
2.707651041E0,-9.796895981E-1,-1.169036102E1,-1.373565674E0
2.710070573E0,-6.421216726E-1,-1.163529587E1,-1.368777514E0
2.712490104E0,-2.710363567E-1,-1.156107903E1,-1.402294874E0
2.714908802E0,6.413741410E-2,-1.151559067E1,-1.361595154E0
2.717327552E0,4.088876247E-1,-1.142222118E1,-1.397506714E0
2.719747083E0,6.937854290E-1,-1.139588642E1,-1.419053555E0
2.722166614E0,9.116483927E-1,-1.140306854E1,-1.469329834E0
2.724585364E0,1.143875957E0,-1.137194538E1,-1.557911396E0
2.727004114E0,1.292309999E0,-1.139588642E1,-1.670433998E0
2.729423646E0,1.440744281E0,-1.144616222E1,-1.756621599E0
2.731843177E0,1.596360683E0,-1.150122643E1,-1.802109480E0
2.734261927E0,1.749583006E0,-1.156107903E1,-1.869144201E0
2.736680677E0,1.869287848E0,-1.163529587E1,-1.912238121E0
2.739100208E0,1.991386890E0,-1.168796635E1,-1.931390762E0
2.741519739E0,2.070392132E0,-1.179330635E1,-1.952937841E0
2.743938489E0,2.180520773E0,-1.189146423E1,-1.881114721E0
2.746357239E0,2.237979174E0,-1.204947472E1,-1.782956600E0
2.748776719E0,2.288254976E0,-1.220509148E1,-1.682404518E0
2.751196250E0,2.321772575E0,-1.233676624E1,-1.538758516E0
2.753615000E0,2.302619696E0,-1.244689560E1,-1.354413033E0
2.756033750E0,2.338531256E0,-1.252350616E1,-1.162884951E0
2.758453281E0,2.273890495E0,-1.261927032E1,-9.234750867E-1
2.760872812E0,2.273890495E0,-1.273658180E1,-6.074541211E-1
2.763291562E0,2.216432095E0,-1.278925133E1,-1.908809543E-1
2.765710312E0,2.170944452E0,-1.284192181E1,3.477912545E-1
2.768129844E0,2.070392132E0,-1.289219761E1,9.630746245E-1
2.770549375E0,2.022510290E0,-1.297120285E1,1.621451855E0
2.772968125E0,1.936322689E0,-1.303344917E1,2.277434826E0
2.775386875E0,1.850135207E0,-1.303584385E1,2.911870956E0
2.777806406E0,1.785494447E0,-1.304781437E1,3.455331564E0
2.780225937E0,1.787888527E0,-1.306696701E1,3.788111210E0
2.782644635E0,1.730430126E0,-1.308611965E1,4.082585335E0
2.785063385E0,1.749583006E0,-1.303344917E1,4.300448418E0
2.787482916E0,1.735218406E0,-1.300950813E1,4.436912060E0
2.789902448E0,1.778312206E0,-1.299035549E1,4.544646263E0
2.792321198E0,1.857317448E0,-1.286825657E1,4.549434662E0
2.794739948E0,1.914775729E0,-1.266715240E1,4.554223061E0
2.797159479E0,2.005751371E0,-1.240380192E1,4.489582062E0
2.799579010E0,2.130244493E0,-1.211411572E1,4.429729462E0
2.801997760E0,2.261919975E0,-1.180048847E1,4.422547340E0
2.804416510E0,2.388807297E0,-1.150601482E1,4.398606300E0
2.806836041E0,2.515694618E0,-1.121632862E1,4.441699982E0
2.809255573E0,2.630611181E0,-1.096973705E1,4.489582062E0
2.811674271E0,2.762286663E0,-1.077820873E1,4.549434662E0
2.814093021E0,2.872415304E0,-1.068723297E1,4.623651505E0
2.816512552E0,2.992120266E0,-1.064653397E1,4.664351463E0
2.818932083E0,3.109431028E0,-1.069202042E1,4.664351463E0
2.821350833E0,3.190830469E0,-1.080693722E1,4.597316265E0
2.823769583E0,3.257865191E0,-1.097452450E1,4.515916824E0
2.826189114E0,3.324899912E0,-1.124505806E1,4.357906818E0
2.828608646E0,3.375175953E0,-1.150122643E1,4.168772697E0
2.831027396E0,3.430240154E0,-1.179809475E1,3.967668533E0
2.833446146E0,3.435028553E0,-1.209735680E1,3.752199650E0
2.835865677E0,3.494880915E0,-1.234873772E1,3.522366285E0
2.838285208E0,3.499669075E0,-1.254984188E1,3.256621122E0
2.840703906E0,3.499669075E0,-1.278446388E1,3.005240679E0
2.843122656E0,3.478122234E0,-1.299274921E1,2.780195475E0
2.845542187E0,3.451787233E0,-1.314597225E1,2.535997391E0
2.847961719E0,3.446999073E0,-1.323455334E1,2.200823784E0
2.850380469E0,3.444604874E0,-1.327764797E1,1.808191538E0
2.852799219E0,3.425451994E0,-1.329201221E1,1.408376932E0
2.855218750E0,3.451787233E0,-1.329201221E1,9.798333049E-1
2.857638281E0,3.502063274E0,-1.334228897E1,5.249545574E-1
2.860057031E0,3.552339315E0,-1.341411114E1,1.155637056E-1
2.862475781E0,3.480516195E0,-1.337580585E1,-3.943793774E-1
2.864895312E0,3.566704035E0,-1.338298798E1,-9.474161267E-1
2.867314844E0,3.645709276E0,-1.338298798E1,-1.490876675E0
2.869733541E0,3.600221157E0,-1.331116581E1,-2.108554125E0
2.872152291E0,3.458969593E0,-1.331595325E1,-2.659196854E0
2.874571823E0,3.253077030E0,-1.334947014E1,-3.243356705E0
2.876991354E0,2.963391066E0,-1.333989429E1,-3.803575993E0
2.879410104E0,2.618640661E0,-1.330158901E1,-4.390130043E0
2.881828854E0,2.178126574E0,-1.308372593E1,-4.928802490E0
2.884248385E0,1.742400646E0,-1.304542065E1,-5.280735016E0
2.886667916E0,1.359344840E0,-1.293289757E1,-5.663790703E0
2.889086666E0,9.044660330E-1,-1.283952713E1,-5.910383224E0
2.891505416E0,4.424050450E-1,-1.277009869E1,-6.089940548E0
2.893924948E0,-8.190259337E-2,-1.269588184E1,-6.173733711E0
2.896344479E0,-5.679045916E-1,-1.259054184E1,-6.185704231E0
2.898763229E0,-1.120941520E0,-1.260729980E1,-6.125852108E0
2.901181979E0,-1.705101490E0,-1.270306396E1,-5.989387989E0
2.903601458E0,-2.306020260E0,-1.295683861E1,-5.735613346E0
2.906020989E0,-2.921303749E0,-1.324891853E1,-5.390863419E0
2.908439739E0,-3.570104361E0,-1.357930470E1,-4.969501972E0
2.910858489E0,-4.283546448E0,-1.390729523E1,-4.540958405E0
2.913278021E0,-5.071204662E0,-1.429992771E1,-4.184237480E0
2.915697552E0,-5.846892834E0,-1.459200764E1,-3.645565510E0
2.918116302E0,-6.572304726E0,-1.502533913E1,-3.020705700E0
2.920535052E0,-7.137311935E0,-1.547543049E1,-2.551462412E0
2.922954583E0,-7.702319145E0,-1.585848618E1,-1.928996801E0
2.925374114E0,-8.197896957E0,-1.608831978E1,-1.318501472E0
2.927792864E0,-8.482794762E0,-1.619605446E1,-6.816712022E-1
2.930211614E0,-8.636016846E0,-1.627027321E1,-2.052455544E-1
2.932631094E0,-8.815575600E0,-1.641391754E1,-4.141241312E-3
2.935050625E0,-9.026256561E0,-1.643546486E1,1.754161716E-1
2.937469375E0,-9.090896606E0,-1.627745438E1,2.472391278E-1
2.939888125E0,-9.021467209E0,-1.610507965E1,2.568155229E-1
2.942307656E0,-8.813180923E0,-1.580581570E1,2.639978230E-1
2.944727187E0,-8.427731514E0,-1.536769581E1,2.472391278E-1
2.947145937E0,-7.848359108E0,-1.487211800E1,2.568155229E-1
2.949564687E0,-7.194770336E0,-1.424246979E1,2.424509227E-1
2.951984219E0,-6.541181087E0,-1.361282158E1,2.951211035E-1
2.954403750E0,-6.009691238E0,-1.297838593E1,4.818608165E-1
2.956822500E0,-5.461442947E0,-1.225057983E1,6.805710196E-1
2.959241250E0,-4.810247898E0,-1.159220219E1,8.361873627E-1
2.961660781E0,-4.273969650E0,-1.106071281E1,8.816752434E-1
2.964080312E0,-3.950765848E0,-1.059386253E1,8.888576031E-1
2.966499010E0,-3.687415123E0,-1.015095425E1,7.859113812E-1
2.968917760E0,-3.385758638E0,-9.645799637E0,6.446595192E-1
2.971337291E0,-3.108043432E0,-9.210073471E0,4.698902965E-1
2.973756823E0,-3.043402672E0,-8.817441940E0,3.046974838E-1
2.976175573E0,-2.835116148E0,-8.451144218E0,7.965222001E-2
2.978594323E0,-2.528671503E0,-8.154276848E0,-1.693340540E-1
2.981013854E0,-2.090551376E0,-7.787979603E0,-6.792771220E-1
2.983433385E0,-1.614125729E0,-7.347465515E0,-1.313713312E0
2.985852135E0,-1.195158482E0,-7.033838749E0,-1.636916637E0
2.988270885E0,-1.104182720E0,-7.141572952E0,-1.794927120E0
2.990690416E0,-1.300498843E0,-7.373800755E0,-1.969696283E0
2.993109948E0,-1.255010962E0,-7.706580639E0,-2.091795206E0
2.995528646E0,-1.015601158E0,-8.060906410E0,-2.063066244E0
2.997947396E0,-5.511459112E-1,-8.441568375E0,-2.288111448E0
3.000366927E0,-1.106317937E-1,-8.774347305E0,-2.872271538E0
3.002786458E0,4.543755054E-1,-8.929965019E0,-3.365456104E0
3.005205208E0,9.571362734E-1,-8.944328308E0,-3.341515064E0
3.007623958E0,1.313856959E0,-8.788712502E0,-3.329544544E0
3.010043489E0,1.725641966E0,-8.566061974E0,-2.963247299E0
3.012463021E0,2.166156054E0,-8.235675812E0,-2.422181129E0
3.014881771E0,2.486965179E0,-7.924443722E0,-1.914632082E0
3.017300521E0,2.565970421E0,-7.632363796E0,-1.306530952E0
3.019720052E0,2.824533224E0,-7.404923916E0,-6.673066020E-1
3.022139583E0,3.219559431E0,-7.213396072E0,5.331712961E-2
3.024558281E0,3.396723032E0,-7.005109787E0,6.997237802E-1
3.026977031E0,3.420663834E0,-6.849493027E0,1.140237927E0
3.029396562E0,3.200406790E0,-6.782458305E0,1.178543568E0
3.031816094E0,2.913115025E0,-6.758517265E0,8.720988631E-1
3.034234844E0,2.587517500E0,-6.808793545E0,2.927269936E-1
3.036653594E0,2.431900978E0,-6.926104069E0,-1.789104640E-1
3.039073125E0,2.214038134E0,-6.859069347E0,-6.601243019E-1
3.041492656E0,1.984204650E0,-6.770487785E0,-1.067121029E0
3.043911406E0,1.787888527E0,-6.689088345E0,-1.337654352E0
3.046330156E0,1.687336445E0,-6.610083103E0,-1.584246397E0
3.048749687E0,1.570025563E0,-6.543048382E0,-1.794927120E0
3.051169219E0,1.519749522E0,-6.435314178E0,-2.127706766E0
3.053587916E0,1.402438641E0,-6.318003178E0,-2.534703732E0
3.056006666E0,1.136693716E0,-6.145627975E0,-2.860301018E0
3.058426198E0,9.906536341E-1,-5.973253250E0,-2.939306259E0
3.060845729E0,8.685545921E-1,-5.760178089E0,-2.896212578E0
3.063264479E0,7.057558298E-1,-5.518373966E0,-2.860301018E0
3.065683229E0,5.381689668E-1,-5.204747200E0,-2.766931295E0
3.068102760E0,3.538233638E-1,-4.919849396E0,-2.637650013E0
3.070522291E0,1.575072557E-1,-4.584675789E0,-2.496397972E0
3.072941041E0,-6.514391303E-2,-4.318930626E0,-2.403028250E0
3.075359791E0,-2.279426157E-1,-4.057973862E0,-2.321628809E0
3.077779271E0,-2.973715365E-1,-3.775470257E0,-2.326416969E0
3.080198802E0,-3.883472383E-1,-3.478602171E0,-2.252200127E0
3.082617552E0,-4.266528189E-1,-3.253556728E0,-2.252200127E0
3.085036302E0,-4.912935197E-1,-3.062028885E0,-2.319234848E0
3.087455833E0,-5.846632719E-1,-2.932747602E0,-2.340781689E0
3.089875364E0,-6.756390333E-1,-2.822618961E0,-2.489215851E0
3.092294114E0,-7.043682337E-1,-2.683761358E0,-2.620891333E0
3.094712864E0,-6.923978329E-1,-2.578420877E0,-2.757354736E0
3.097132396E0,-7.091565132E-1,-2.516174316E0,-2.826783895E0
3.099551927E0,-7.474620342E-1,-2.418016434E0,-2.845936537E0
3.101970677E0,-7.809793949E-1,-2.425198555E0,-2.884242058E0
3.104389427E0,-7.857675552E-1,-2.365346193E0,-2.927335739E0
3.106808958E0,-7.905558348E-1,-2.298311234E0,-3.047040701E0
3.109228489E0,-8.767433167E-1,-2.269582033E0,-3.123651981E0
3.111647187E0,-9.102606773E-1,-2.216912031E0,-3.142804861E0
3.114065937E0,-8.815315962E-1,-2.137906790E0,-3.130834341E0
3.116485469E0,-9.006843567E-1,-2.063689709E0,-3.159563541E0
3.118905000E0,-8.743492365E-1,-2.013413429E0,-3.070981741E0
3.121323750E0,-8.097085953E-1,-1.958349228E0,-2.972823858E0
3.123742500E0,-8.121026754E-1,-1.867373466E0,-2.855512857E0
3.126162031E0,-8.695610762E-1,-1.838644266E0,-2.920153618E0
3.128581562E0,-9.078665972E-1,-1.812309265E0,-2.905789137E0
3.131000312E0,-9.198371172E-1,-1.795550466E0,-2.857907057E0
3.133419062E0,-9.246253967E-1,-1.788368225E0,-2.742990255E0
3.135838594E0,-9.270194769E-1,-1.783579946E0,-2.549068213E0
3.138258125E0,-9.150489569E-1,-1.747668505E0,-2.335993528E0
3.140676823E0,-9.246253967E-1,-1.742880344E0,-2.110948324E0
3.143095573E0,-9.246253967E-1,-1.649510503E0,-1.878720522E0
3.145515104E0,-9.030784369E-1,-1.604022622E0,-1.653675318E0
3.147934635E0,-9.198371172E-1,-1.575293422E0,-1.486088276E0
3.150353385E0,-1.006024718E0,-1.546564221E0,-1.308925152E0
3.152772135E0,-1.063483119E0,-1.536987782E0,-1.225131512E0
3.155191666E0,-1.094606400E0,-1.587263942E0,-1.189220190E0
3.157611198E0,-1.142488360E0,-1.608810782E0,-1.007268667E0
3.160029948E0,-1.207129002E0,-1.706968784E0,-8.301053643E-1
3.162448698E0,-1.276557803E0,-1.814703345E0,-5.787249207E-1
3.164868177E0,-1.360351324E0,-1.982290268E0,-3.345268369E-1
3.167287708E0,-1.381898284E0,-2.159453630E0,-8.793470263E-2
3.169706458E0,-1.417809725E0,-2.425198555E0,1.275341809E-1
3.172125208E0,-1.405839205E0,-2.753190041E0,4.339788258E-1
3.174544739E0,-1.286134243E0,-3.112304926E0,7.069060802E-1
3.176964271E0,-1.051512599E0,-3.548030853E0,8.888576031E-1
3.179383021E0,-7.522501945E-1,-3.993333340E0,1.183331728E0
3.181801771E0,-5.056580305E-1,-4.599040031E0,1.499352694E0
3.184221302E0,-2.231544554E-1,-5.216717720E0,1.915925980E0
3.186640833E0,7.850201428E-2,-5.922976971E0,2.485721350E0
3.189059531E0,3.203059733E-1,-6.691482544E0,3.364355803E0
3.191478281E0,6.650562286E-1,-7.589269638E0,4.432123661E0
3.193897812E0,9.403775930E-1,-8.623519897E0,5.906888485E0
3.196317344E0,1.045717955E0,-9.801416397E0,8.123824120E0
3.198736094E0,1.313856959E0,-1.121632862E1,1.139416313E1
3.201154844E0,1.747188926E0,-1.296402073E1,1.535639668E1
3.203574375E0,1.830982327E0,-1.512349796E1,1.966337967E1
3.205993906E0,1.931534529E0,-1.819273186E1,2.475802231E1
3.208412656E0,2.158973932E0,-2.163544655E1,2.993645668E1
3.210831406E0,2.944238186E0,-2.516913605E1,3.421231842E1
3.213250937E0,4.457308292E0,-2.820006561E1,3.630715561E1
3.215670469E0,5.668722153E0,-3.038827324E1,3.519629669E1
3.218089166E0,6.030231476E0,-3.163559914E1,3.132263947E1
3.220507916E0,5.726180553E0,-3.205935287E1,2.627827263E1
3.222927448E0,4.756570816E0,-3.180079079E1,2.148289299E1
3.225346979E0,3.262653351E0,-3.095088577E1,1.762121391E1
3.227765729E0,1.720853806E0,-2.961019135E1,1.473871899E1
3.230184479E0,5.956273079E-1,-2.787207413E1,1.266064167E1
3.232604010E0,-3.402063251E-2,-2.594243050E1,1.102786636E1
3.235023541E0,-3.404652774E-1,-2.405827522E1,9.510007858E0
3.237442291E0,-2.830068767E-1,-2.198259163E1,8.066365242E0
3.239861041E0,-6.753799319E-2,-1.988296700E1,6.926774502E0
3.242280573E0,1.766600609E-1,-1.777137184E1,5.949982643E0
3.244700104E0,4.184640348E-1,-1.567892838E1,5.080924511E0
3.247118802E0,6.435092688E-1,-1.375167942E1,4.214261055E0
3.249537552E0,7.512437105E-1,-1.200159264E1,3.558277607E0
3.251957083E0,6.052037477E-1,-1.053640461E1,3.156069040E0
3.254376614E0,2.891826928E-1,-9.257955551E0,3.024393797E0
3.256795364E0,-1.609078944E-1,-8.228493690E0,3.065093279E0
3.259214114E0,-7.211269140E-1,-7.285219193E0,3.397872925E0
3.261633646E0,-1.441750765E0,-6.538259983E0,3.766564131E0
3.264053177E0,-2.198286057E0,-5.968464375E0,4.252566338E0
3.266471927E0,-2.990732431E0,-5.501615524E0,4.611680984E0
3.268890677E0,-3.649109840E0,-5.173624039E0,4.877426147E0
3.271310156E0,-4.147082806E0,-4.833662033E0,4.903760910E0
3.273729687E0,-4.499015331E0,-4.488911629E0,4.791238308E0
3.276148437E0,-4.812641621E0,-4.187255383E0,4.487187862E0
3.278567187E0,-5.097539902E0,-3.914328098E0,4.111314774E0
3.280986719E0,-5.284279346E0,-3.696465015E0,3.464907646E0
3.283406250E0,-5.492566109E0,-3.478602171E0,2.792165995E0
3.285825000E0,-5.799010754E0,-3.416355610E0,1.803403378E0
3.288243750E0,-6.074332237E0,-3.447478771E0,3.166679740E-1
3.290663281E0,-6.498087406E0,-3.830534697E0,-1.091062069E0
3.293082812E0,-6.984089851E0,-4.464970589E0,-2.048701525E0
3.295501562E0,-7.235469818E0,-4.950972557E0,-2.697502375E0
3.297920312E0,-7.304898739E0,-5.389092922E0,-3.499525547E0
3.300339791E0,-7.247440338E0,-5.733842850E0,-4.634327888E0
3.302759323E0,-7.149281979E0,-6.071411133E0,-5.721249104E0
3.305178073E0,-6.957754135E0,-6.509531021E0,-6.726770401E0
3.307596823E0,-6.787773132E0,-6.942862988E0,-7.650892735E0
3.310016354E0,-6.684827328E0,-7.471958637E0,-8.488826752E0
3.312435885E0,-6.586669445E0,-8.120759010E0,-8.926946640E0
3.314854635E0,-6.641733170E0,-8.850959778E0,-9.104110718E0
3.317273385E0,-6.830867290E0,-9.602706909E0,-9.163962364E0
3.319692916E0,-6.957754135E0,-1.041909313E1,-9.120868683E0
3.322112448E0,-7.218711376E0,-1.125942230E1,-8.886247635E0
3.324531146E0,-7.486850262E0,-1.212608624E1,-8.347574234E0
3.326949896E0,-7.774142265E0,-1.290416813E1,-7.385147572E0
3.329369427E0,-8.140439034E0,-1.387138462E1,-5.505780220E0
3.331788958E0,-8.712629318E0,-1.506364536E1,-2.383875608E0
3.334207708E0,-9.481134415E0,-1.666769218E1,2.064359903E0
3.336626458E0,-1.007247734E1,-1.853030014E1,6.067293167E0
3.339045989E0,-9.806732178E0,-1.991409111E1,7.455870628E0
3.341465521E0,-8.777269363E0,-2.084060669E1,6.900439262E0
3.343884219E0,-7.314475060E0,-2.123802567E1,5.016283989E0
3.346302969E0,-5.808587074E0,-2.122366333E1,2.744283915E0
3.348722552E0,-4.396068573E0,-2.084539413E1,1.873866618E-1
3.351142083E0,-3.268447876E0,-2.020138168E1,-2.010396004E0
3.353560781E0,-2.284473419E0,-1.945202827E1,-3.382214546E0
3.355979531E0,-1.264587402E0,-1.851593590E1,-4.042985916E0
3.358399062E0,-4.242587388E-1,-1.751280785E1,-4.251272678E0
3.360818594E0,2.460889220E-1,-1.635167122E1,-4.184237480E0
3.363237344E0,6.554797888E-1,-1.505646229E1,-3.987921715E0
3.365656094E0,9.427716732E-1,-1.377562046E1,-3.779634953E0
3.368075625E0,1.062476635E0,-1.254265976E1,-3.626412868E0
3.370495156E0,9.499539137E-1,-1.140546227E1,-3.444461346E0
3.372913854E0,8.924955130E-1,-1.035445404E1,-3.329544544E0
3.375332604E0,9.523481131E-1,-9.377660751E0,-3.312785864E0
3.377752135E0,1.014594674E0,-8.510996819E0,-3.430096626E0
3.380171666E0,1.215698957E0,-7.728127003E0,-3.568954229E0
3.382590416E0,1.452714801E0,-7.084114552E0,-3.767664433E0
3.385009166E0,1.615513444E0,-6.504743099E0,-3.980739594E0
3.387428698E0,1.684942245E0,-6.148022175E0,-4.287184238E0
3.389848229E0,1.718459606E0,-5.841577530E0,-4.476317406E0
3.392266979E0,1.728036046E0,-5.666808128E0,-4.651087284E0
3.394685729E0,1.766341686E0,-5.568650246E0,-4.849797249E0
3.397105260E0,1.766341686E0,-5.549497604E0,-4.940773010E0
3.399524791E0,1.787888527E0,-5.566256046E0,-5.003019333E0
3.401943489E0,1.735218406E0,-5.709902287E0,-5.012596130E0
3.404362239E0,1.605937004E0,-5.973253250E0,-5.010201454E0
3.406781771E0,1.486232162E0,-6.356308460E0,-4.981472492E0
3.409201302E0,1.586784244E0,-6.581354141E0,-4.847403049E0
3.411620052E0,1.670577645E0,-6.808793545E0,-4.801915169E0
3.414038802E0,1.795070887E0,-7.045809269E0,-4.655875206E0
3.416458333E0,1.902805328E0,-7.304371357E0,-4.483500004E0
3.418877864E0,1.979416370E0,-7.582087040E0,-4.270424843E0
3.421296614E0,2.096727133E0,-7.843044281E0,-4.153114319E0
3.423715364E0,2.226008654E0,-8.068088531E0,-4.124384880E0
3.426134844E0,2.340925455E0,-8.230887413E0,-4.157902718E0
3.428554375E0,2.400777817E0,-8.410445213E0,-4.277607441E0
3.430973125E0,2.400777817E0,-8.578031540E0,-4.505046844E0
3.433391875E0,2.477389097E0,-8.779136658E0,-4.732486725E0
3.435811406E0,2.640187740E0,-8.941934586E0,-4.842615128E0
3.438230937E0,2.652158260E0,-9.210073471E0,-4.852190971E0
3.440649687E0,2.695251942E0,-9.463849068E0,-4.811491489E0
3.443068437E0,2.738345861E0,-9.691287994E0,-4.763609409E0
3.445487969E0,2.721586943E0,-9.923515320E0,-4.737274647E0
3.447907500E0,2.704828262E0,-1.015095425E1,-4.696575165E0
3.450326198E0,2.666522741E0,-1.033530045E1,-4.564899445E0
3.452744948E0,2.666522741E0,-1.051485729E1,-4.390130043E0
3.455164479E0,2.644975662E0,-1.073990250E1,-4.126779556E0
3.457584010E0,2.580335379E0,-1.092185497E1,-3.837093353E0
3.460002760E0,2.474994659E0,-1.107747078E1,-3.595289469E0
3.462421510E0,2.376836777E0,-1.115887070E1,-3.387002707E0
3.464841041E0,2.257131815E0,-1.125702858E1,-3.097316742E0
3.467260573E0,2.166156054E0,-1.131688023E1,-2.769325256E0
3.469679323E0,2.053633451E0,-1.133124542E1,-2.362328529E0
3.472098073E0,1.960263610E0,-1.130969906E1,-1.991243362E0
3.474517604E0,1.780706286E0,-1.123548126E1,-1.632128477E0
3.476937135E0,1.615513444E0,-1.118041801E1,-1.347230673E0
3.479355833E0,1.452714801E0,-1.113014126E1,-1.062332869E0
3.481774583E0,1.285127759E0,-1.099607182E1,-7.894056439E-1
3.484194114E0,1.151058197E0,-1.084284973E1,-5.260547996E-1
3.486613646E0,9.643185139E-1,-1.057710457E1,-2.483393550E-1
3.489032396E0,7.656083107E-1,-1.030657196E1,-4.005274177E-2
3.491451146E0,5.788686275E-1,-1.003125000E1,1.299282759E-1
3.493870677E0,3.538233638E-1,-9.741563797E0,2.735742033E-1
3.496290208E0,1.192016751E-1,-9.442301750E0,4.291906357E-1
3.498708906E0,-1.226022840E-1,-9.107127190E0,5.441073179E-1
3.501127656E0,-3.763767779E-1,-8.769559860E0,6.374772191E-1
3.503547187E0,-6.397275925E-1,-8.436779976E0,7.284529805E-1
3.505966719E0,-8.480142355E-1,-8.130335808E0,8.385815024E-1
3.508385469E0,-1.068271279E0,-7.890925884E0,8.385815024E-1
3.510804219E0,-1.283740044E0,-7.661092758E0,9.032222033E-1
3.513223750E0,-1.365139484E0,-7.438441753E0,9.726510644E-1
3.515643281E0,-1.463297606E0,-7.266066074E0,9.918038249E-1
3.518062031E0,-1.559061527E0,-7.167908192E0,1.145026207E0
3.520480781E0,-1.729042530E0,-7.120026112E0,1.245578289E0
3.522900260E0,-1.781712770E0,-7.127208710E0,1.310219049E0
3.525319791E0,-1.827200413E0,-7.017080307E0,1.338948250E0
3.527738541E0,-1.803259373E0,-6.954833508E0,1.355706930E0
3.530157291E0,-1.882264614E0,-7.036232471E0,1.326977730E0
3.532576823E0,-1.851141453E0,-7.160726070E0,1.322189569E0
3.534996354E0,-1.793683290E0,-7.268460751E0,1.247972369E0
3.537415104E0,-1.650037169E0,-7.354648113E0,1.326977730E0
3.539833854E0,-1.571031928E0,-7.567722797E0,1.281489849E0
3.542253385E0,-1.554273367E0,-7.766433239E0,1.233607769E0
3.544672916E0,-1.453721046E0,-7.957960606E0,1.123479247E0
3.547091614E0,-1.288528323E0,-8.080059052E0,9.870156646E-1
3.549510364E0,-1.209523082E0,-8.142306328E0,8.218228221E-1
3.551929896E0,-1.116153240E0,-8.183005333E0,6.470535994E-1
3.554349427E0,-1.063483119E0,-8.259616852E0,5.010135770E-1
3.556768177E0,-9.150489569E-1,-8.369745255E0,3.142738938E-1
3.559186927E0,-8.144968748E-1,-8.506209373E0,2.209040374E-1
3.561606458E0,-6.995800734E-1,-8.630702019E0,1.897807568E-1
3.564025989E0,-6.732449532E-1,-8.783925056E0,2.137217522E-1
3.566444739E0,-5.655105114E-1,-8.858141899E0,2.352686226E-1
3.568863489E0,-5.032639503E-1,-8.889265060E0,2.209040374E-1
3.571282969E0,-4.745348394E-1,-8.925176620E0,7.965222001E-2
3.573702500E0,-4.098941386E-1,-8.879688263E0,-1.813045442E-1
3.576121250E0,-3.404652774E-1,-8.738436699E0,-4.231085777E-1
3.578540000E0,-3.620121181E-1,-8.819835663E0,-5.739367604E-1
3.580959531E0,-3.907413185E-1,-8.877294540E0,-8.109524846E-1
3.583379062E0,-3.955295980E-1,-8.860535622E0,-9.809334874E-1
3.585797812E0,-3.428593576E-1,-8.927570343E0,-1.038391829E0
3.588216562E0,-3.261006773E-1,-8.941934586E0,-1.047968149E0
3.590636094E0,-2.303367555E-1,-8.937146187E0,-9.354456067E-1
3.593055625E0,-1.154200137E-1,-8.908417702E0,-8.420758843E-1
3.595474323E0,2.343773842E-2,-8.896446228E0,-7.127944827E-1
3.597893073E0,1.120193899E-1,-8.932358742E0,-5.356311798E-1
3.600312604E0,1.982069463E-1,-9.028122902E0,-4.207144380E-1
3.602732135E0,3.322764635E-1,-9.025728226E0,-3.560737371E-1
3.605150885E0,3.969171345E-1,-9.061639786E0,-2.603098154E-1
3.607569635E0,4.639518857E-1,-9.099946022E0,-1.980632246E-1
3.609989166E0,5.261985064E-1,-9.111915588E0,-9.751108289E-2
3.612408698E0,5.597158670E-1,-9.128674507E0,-4.244682193E-2
3.614827396E0,6.506916285E-1,-9.123887062E0,-1.747131348E-3
3.617246146E0,7.153322697E-1,-9.145433426E0,7.486401498E-2
3.619665677E0,7.775788307E-1,-9.155009270E0,2.328745276E-1
3.622085208E0,8.110961914E-1,-9.198103905E0,4.220083356E-1
3.624503958E0,8.254607916E-1,-9.248379707E0,6.135362387E-1
3.626922708E0,8.182785511E-1,-9.303443909E0,8.864635229E-1
3.629342239E0,7.273027897E-1,-9.336961746E0,1.152208447E0
3.631761771E0,6.195683479E-1,-9.423148155E0,1.422741652E0
3.634180521E0,5.022574663E-1,-9.540459633E0,1.650181055E0
3.636599271E0,3.250941634E-1,-9.674530029E0,1.884802580E0
3.639018802E0,1.455367804E-1,-9.794233322E0,2.014084101E0
3.641438333E0,-4.359704256E-2,-9.973792076E0,2.038024902E0
3.643857031E0,-2.494895160E-1,-1.015095425E1,1.975778341E0
3.646275781E0,-3.931354582E-1,-1.040712357E1,1.810585737E0
3.648695312E0,-6.038161516E-1,-1.060343933E1,1.614269495E0
3.651114844E0,-7.905558348E-1,-1.081412029E1,1.355706930E0
3.653533594E0,-9.413839579E-1,-1.094818974E1,1.073203206E0
3.655952344E0,-1.085029960E0,-1.108944130E1,7.093001604E-1
3.658371875E0,-1.214311242E0,-1.124026966E1,4.220083356E-1
3.660791406E0,-1.307681084E0,-1.135758018E1,1.706279665E-1
3.663210104E0,-1.396262884E0,-1.142940331E1,-5.202320218E-2
3.665628854E0,-1.424991965E0,-1.147968006E1,-2.914330959E-1
3.668048385E0,-1.396262884E0,-1.146770859E1,-4.662023187E-1
3.670467916E0,-1.307681084E0,-1.138630962E1,-5.835131407E-1
3.672886666E0,-1.166429400E0,-1.130251694E1,-6.505479217E-1
3.675305416E0,-9.772955179E-1,-1.111338234E1,-6.625184417E-1
3.677724948E0,-7.642207146E-1,-1.086918449E1,-6.002718806E-1
3.680144479E0,-5.319931507E-1,-1.062259293E1,-4.255025983E-1
3.682563177E0,-3.691944182E-1,-1.039994049E1,-1.980632246E-1
3.684981927E0,-2.183662355E-1,-1.017250156E1,6.768171489E-2
3.687401458E0,-9.387311339E-2,-1.000970268E1,3.238502741E-1
3.689820989E0,-5.556753278E-2,-9.880421638E0,6.159303188E-1
3.692239739E0,-1.130258739E-1,-9.782263756E0,8.266110420E-1
3.694658489E0,-2.135780156E-1,-9.710440636E0,9.846215248E-1
3.697078021E0,-3.380711973E-1,-9.655376434E0,1.145026207E0
3.699497552E0,-5.439636707E-1,-9.700864792E0,1.238395929E0
3.701916302E0,-7.594324350E-1,-9.787051201E0,1.267125130E0
3.704335052E0,-9.868718386E-1,-9.851692200E0,1.257548809E0
3.706754531E0,-1.176005721E0,-1.000012684E1,1.192908168E0
3.709174062E0,-1.360351324E0,-1.019404888E1,1.099538326E0
3.711592812E0,-1.508785486E0,-1.036402988E1,9.846215248E-1
3.714011562E0,-1.683554649E0,-1.055555725E1,8.146405220E-1
3.716431094E0,-1.776924372E0,-1.078060246E1,6.350830793E-1
3.718850625E0,-1.884659052E0,-1.098410130E1,4.579198062E-1
3.721269375E0,-1.913388252E0,-1.120914650E1,2.879388034E-1
3.723688125E0,-1.875082493E0,-1.142222118E1,1.083814055E-1
3.726107656E0,-1.891841173E0,-1.154192638E1,-7.357010245E-2
3.728527187E0,-1.853535652E0,-1.163290119E1,-2.483393550E-1
3.730945885E0,-1.719466209E0,-1.148925591E1,-3.824088573E-1
3.733364635E0,-1.757771730E0,-1.169993687E1,-6.170305610E-1
3.735784166E0,-1.566243887E0,-1.176936531E1,-8.037702441E-1
3.738203698E0,-1.367533565E0,-1.176457787E1,-1.002480268E0
3.740622448E0,-1.159246922E0,-1.175500107E1,-1.150914431E0
3.743041198E0,-9.054726362E-1,-1.177175999E1,-1.294560432E0
3.745460729E0,-6.229689121E-1,-1.184358215E1,-1.419053555E0
3.747880260E0,-2.949773967E-1,-1.183400631E1,-1.524394035E0
3.750299010E0,1.146724820E-2,-1.187231159E1,-1.550729036E0
3.752717760E0,3.681879640E-1,-1.188907051E1,-1.584246397E0
3.755137239E0,6.961795092E-1,-1.190822315E1,-1.567487717E0
3.757556771E0,1.040929675E0,-1.194174099E1,-1.505241156E0
3.759975521E0,1.356950760E0,-1.194652843E1,-1.421447754E0
3.762394271E0,1.672971725E0,-1.199201679E1,-1.361595154E0
3.764813802E0,1.972234130E0,-1.198004627E1,-1.306530952E0
3.767233333E0,2.245161295E0,-1.199919891E1,-1.241890192E0
3.769652083E0,2.484571218E0,-1.203511047E1,-1.124579430E0
3.772070833E0,2.714404821E0,-1.201116943E1,-1.000086308E0
3.774490364E0,2.927479506E0,-1.201835155E1,-9.330516458E-1
3.776909896E0,3.028031826E0,-1.202792835E1,-8.277112842E-1
3.779328594E0,3.171677589E0,-1.196568203E1,-7.702528834E-1
3.781747344E0,3.274623871E0,-1.189625263E1,-6.481537819E-1
3.784166875E0,3.324899912E0,-1.184118843E1,-5.787249207E-1
3.786586406E0,3.291382551E0,-1.177894115E1,-4.662023187E-1
3.789005156E0,3.248288870E0,-1.176936531E1,-3.871970773E-1
3.791423906E0,3.130978107E0,-1.177175999E1,-2.938271761E-1
3.793843437E0,2.915508986E0,-1.188188839E1,-1.621517539E-1
3.796262969E0,2.654552221E0,-1.209017467E1,-1.611173153E-2
3.798681666E0,2.388807297E0,-1.222663879E1,1.610515714E-1
3.801100416E0,2.041662931E0,-1.240858936E1,3.645499647E-1
3.803519948E0,1.696912766E0,-1.257617664E1,5.752305984E-1
3.805939479E0,1.371315360E0,-1.271742821E1,8.577343225E-1
3.808358229E0,1.048112035E0,-1.278685760E1,1.145026207E0
3.810776979E0,6.842089891E-1,-1.281798077E1,1.456259012E0
3.813196510E0,3.873407245E-1,-1.279643345E1,1.805797338E0
3.815616041E0,1.215957850E-1,-1.273179340E1,2.167306185E0
3.818034739E0,-1.226022840E-1,-1.260729980E1,2.581485510E0
3.820453489E0,-3.404652774E-1,-1.240140724E1,2.981299877E0
3.822873021E0,-4.865052998E-1,-1.219312096E1,3.383508444E0
3.825292552E0,-6.349394321E-1,-1.193695259E1,3.797687531E0
3.827711302E0,-8.049203157E-1,-1.167360115E1,4.204684258E0
3.830130052E0,-8.911080360E-1,-1.135518646E1,4.570981503E0
3.832549583E0,-9.725073576E-1,-1.098410130E1,4.908549309E0
3.834969114E0,-9.749013186E-1,-1.057231617E1,5.222176552E0
3.837387864E0,-9.940541983E-1,-1.020841312E1,5.487921238E0
3.839806614E0,-9.246253967E-1,-9.904362679E0,5.746483803E0
3.842226094E0,-8.336496353E-1,-9.679317474E0,5.926041603E0
3.844645625E0,-7.570384741E-1,-9.475818634E0,6.036170006E0
3.847064375E0,-6.588803530E-1,-9.413572311E0,6.091233730E0
3.849483125E0,-5.128403902E-1,-9.447089195E0,6.060111046E0
3.851902656E0,-3.093419969E-1,-9.480607986E0,5.978711605E0
3.854322187E0,-1.178140938E-1,-9.648193359E0,5.830277443E0
3.856740937E0,1.455367804E-1,-9.779870033E0,5.660296440E0
3.859159687E0,4.040994346E-1,-9.918727875E0,5.406521797E0
3.861579219E0,6.387211084E-1,-1.004322052E1,5.092895031E0
3.863998750E0,8.924955130E-1,-1.018447304E1,4.757720947E0
3.866417448E0,1.167816877E0,-1.028263092E1,4.389029980E0
3.868836198E0,1.416803241E0,-1.035924149E1,4.032309532E0
3.871255729E0,1.701701045E0,-1.050767517E1,3.716288090E0
3.873675260E0,1.926746249E0,-1.059865189E1,3.421813965E0
3.876094010E0,2.139821053E0,-1.078778458E1,3.115369558E0
3.878512760E0,2.345713615E0,-1.097452450E1,2.825683355E0
3.880932291E0,2.537241459E0,-1.116126442E1,2.449810028E0
3.883351823E0,2.712010860E0,-1.138630962E1,2.095483303E0
3.885770521E0,2.889173985E0,-1.162093163E1,1.659757376E0
3.888189271E0,3.059154987E0,-1.188907051E1,1.221637249E0
3.890608802E0,3.243500471E0,-1.211890316E1,7.691526413E-1
3.893028333E0,3.478122234E0,-1.230324936E1,3.142738938E-1
3.895447083E0,3.717531919E0,-1.250674725E1,-9.032881260E-2
3.897865833E0,4.000035763E0,-1.262405872E1,-5.499957204E-1
3.900285364E0,4.138893604E0,-1.259532928E1,-1.115003109E0
3.902704896E0,4.459702492E0,-1.264799976E1,-1.718316078E0
3.905123594E0,4.687141895E0,-1.274136925E1,-2.218682528E0
3.907542344E0,4.991192341E0,-1.280122185E1,-2.716655254E0
3.909961875E0,5.146808624E0,-1.296880817E1,-3.293632984E0
3.912381406E0,5.173143864E0,-1.311006069E1,-3.782029152E0
3.914800156E0,5.182720184E0,-1.319624901E1,-4.349430561E0
3.917218906E0,5.089350224E0,-1.320582485E1,-4.955137730E0
3.919638437E0,4.893034458E0,-1.315794277E1,-5.582391739E0
3.922057969E0,4.538707733E0,-1.312442589E1,-6.089940548E0
3.924476666E0,3.980883121E0,-1.296641445E1,-6.393990993E0
3.926895416E0,3.420663834E0,-1.294486713E1,-6.626218319E0
3.929314948E0,2.779045582E0,-1.295444489E1,-6.657341480E0
3.931734479E0,2.187702894E0,-1.298556805E1,-6.580730438E0
3.934153229E0,1.481443882E0,-1.305739021E1,-6.511301517E0
3.936571979E0,5.908391476E-1,-1.329440689E1,-6.518484116E0
3.938991510E0,-2.949773967E-1,-1.365591526E1,-6.544818878E0
3.941411041E0,-1.288528323E0,-1.421134663E1,-6.379626274E0
3.943829791E0,-2.294049740E0,-1.481466007E1,-6.137822151E0
3.946248541E0,-3.457581758E0,-1.538445473E1,-5.788283825E0
3.948668073E0,-4.616325855E0,-1.599734402E1,-5.271158695E0
3.951087604E0,-5.767887115E0,-1.655995941E1,-4.754033089E0
3.953506302E0,-6.976907253E0,-1.727818871E1,-3.944828033E0
3.955925052E0,-8.099739075E0,-1.795571899E1,-3.157169342E0
3.958344583E0,-9.201025009E0,-1.854706001E1,-2.513156891E0
3.960764114E0,-1.018499947E1,-1.901869583E1,-2.003213882E0
3.963182864E0,-1.109475708E1,-1.943048286E1,-9.282633662E-1
3.965601614E0,-1.174355793E1,-1.960046196E1,-1.501812637E-1
3.968021146E0,-1.207154942E1,-1.953342819E1,3.310325742E-1
3.970440677E0,-1.242827034E1,-1.942329979E1,6.111421585E-1
3.972859375E0,-1.252163982E1,-1.915994835E1,6.949355602E-1
3.975278125E0,-1.244023991E1,-1.865958214E1,8.673107028E-1
3.977697656E0,-1.219604206E1,-1.812091064E1,9.798333049E-1
3.980117187E0,-1.183453369E1,-1.740746880E1,9.343454242E-1
3.982535937E0,-1.132459068E1,-1.639955330E1,7.930936217E-1
3.984954687E0,-1.069494247E1,-1.532939053E1,8.625225425E-1
3.987374219E0,-9.852220535E0,-1.423528767E1,1.123479247E0
3.989793750E0,-8.930492401E0,-1.313878918E1,1.401194811E0
3.992212448E0,-7.972851753E0,-1.204468632E1,1.669333696E0
3.994631198E0,-7.020001411E0,-1.097691822E1,1.891984940E0
3.997050729E0,-6.246707439E0,-1.004322052E1,2.073936462E0
3.999470260E0,-5.669729233E0,-9.255561829E0,2.117030382E0
4.001889010E0,-5.195697784E0,-8.530149460E0,1.906349421E0
4.004307760E0,-4.812641621E0,-7.876561642E0,1.650181055E0
4.006727291E0,-4.530138016E0,-7.282824993E0,1.202484488E0
4.009146823E0,-4.343398571E0,-6.842310429E0,6.566300392E-1
4.011565521E0,-4.242846012E0,-6.521501541E0,1.825984567E-1
4.013984271E0,-3.986677408E0,-6.248574257E0,-1.884868741E-1
4.016403802E0,-3.775996923E0,-6.215056896E0,-4.566259384E-1
4.018823333E0,-3.649109840E0,-6.478407383E0,-7.199767828E-1
4.021242083E0,-3.759238005E0,-6.849493027E0,-1.028815508E0
4.023660833E0,-3.778391123E0,-7.129602432E0,-1.301742792E0
4.026080364E0,-3.744873762E0,-7.357042313E0,-1.565093517E0
4.028499896E0,-3.531799078E0,-7.493505478E0,-1.756621599E0
4.030918646E0,-3.258871794E0,-7.603633881E0,-1.773380280E0
4.033337396E0,-2.993126631E0,-7.692215443E0,-1.895479202E0
4.035756875E0,-2.143221378E0,-7.536599636E0,-2.079824686E0
4.038176406E0,-1.310075283E0,-7.574904919E0,-1.840415001E0
4.040595156E0,-3.715885580E-1,-7.522234440E0,-1.548335075E0
4.043013906E0,3.274882734E-1,-7.495899677E0,-1.191614151E0
4.045433437E0,9.475598335E-1,-7.369012356E0,-8.253170848E-1
4.047852969E0,1.565237403E0,-7.237337112E0,-5.140842795E-1
4.050271719E0,2.087150812E0,-7.124814510E0,-5.787249207E-1
4.052690469E0,2.565970421E0,-7.021868229E0,-1.067121029E0
4.055109948E0,3.075913668E0,-6.923709869E0,-1.636916637E0
4.057529479E0,3.406299353E0,-6.921316147E0,-1.907449722E0
4.059948229E0,3.684014797E0,-6.844705105E0,-1.873932600E0
4.062366979E0,4.055099964E0,-6.775276184E0,-1.502847195E0
4.064786510E0,4.514766693E0,-6.784852505E0,-8.708049655E-1
4.067206041E0,4.811635017E0,-6.832734585E0,-2.579157352E-1
4.069624791E0,4.900216579E0,-6.909345627E0,2.698203921E-2
4.072043541E0,4.653624058E0,-7.067356110E0,7.007580996E-2
4.074463021E0,4.208322048E0,-7.222972393E0,-1.190579832E-1
4.076882552E0,3.593039036E0,-7.414500713E0,-4.350790381E-1
4.079301302E0,2.956208706E0,-7.560540676E0,-8.396816850E-1
4.081720052E0,2.415142536E0,-7.591663361E0,-1.280195951E0
4.084139583E0,1.948293090E0,-7.507870197E0,-1.565093517E0
4.086559114E0,1.613119245E0,-7.421682358E0,-1.909843683E0
4.088977864E0,1.371315360E0,-7.261278152E0,-2.223470688E0
4.091396614E0,1.186969757E0,-7.093690872E0,-2.517945051E0
4.093816146E0,9.595303535E-1,-6.892587185E0,-2.695108414E0
4.096235677E0,8.134903908E-1,-6.617265701E0,-2.762143135E0
4.098654375E0,6.650562286E-1,-6.246180058E0,-2.663985014E0
4.101073125E0,4.495872855E-1,-5.966070652E0,-2.582585573E0
4.103492656E0,3.633997440E-1,-5.693143368E0,-2.410210609E0
4.105912187E0,1.838423610E-1,-5.401062965E0,-2.362328529E0
4.108330937E0,1.386132836E-2,-5.099407196E0,-2.419786930E0
4.110749687E0,-2.135780156E-1,-4.828873634E0,-2.613708973E0
4.113169166E0,-3.955295980E-1,-4.555946350E0,-2.824389458E0
4.115588698E0,-6.253629923E-1,-4.292595387E0,-3.015917540E0
4.118007448E0,-8.432259560E-1,-4.043609142E0,-3.173928022E0
4.120426198E0,-1.049118519E0,-3.873628378E0,-3.298421383E0
4.122845729E0,-1.262193203E0,-3.677312374E0,-3.430096626E0
4.125265260E0,-1.420203686E0,-3.545636892E0,-3.521072388E0
4.127684010E0,-1.518361807E0,-3.387626410E0,-3.609653950E0
4.130102760E0,-1.583002448E0,-3.284680128E0,-3.729359150E0
4.132522291E0,-1.635672688E0,-3.205674887E0,-3.805970192E0
4.134941823E0,-1.724254370E0,-3.141034126E0,-3.887369633E0
4.137360521E0,-1.805653811E0,-3.057240486E0,-3.971163273E0
4.139779271E0,-1.834383011E0,-2.959082603E0,-4.057350636E0
4.142198802E0,-1.831988811E0,-2.863318682E0,-4.150720596E0
4.144618333E0,-1.831988811E0,-2.734037399E0,-4.220149040E0
4.147037083E0,-1.843959332E0,-2.580815077E0,-4.327883720E0
4.149455833E0,-1.846353531E0,-2.444351435E0,-4.397312641E0
4.151875364E0,-1.901417732E0,-2.293523073E0,-4.445194721E0
4.154294896E0,-1.925358772E0,-2.101995230E0,-4.466741562E0
4.156713594E0,-1.942117214E0,-1.972713828E0,-4.390130043E0
4.159132344E0,-1.937329292E0,-1.857797027E0,-4.323095322E0
4.161551875E0,-1.956481934E0,-1.766821384E0,-4.220149040E0
4.163971406E0,-1.980422974E0,-1.620781302E0,-4.074109077E0
4.166390156E0,-2.047457695E0,-1.505864620E0,-3.975951195E0
4.168808906E0,-2.052245617E0,-1.364612699E0,-3.841881752E0
4.171228437E0,-2.080975056E0,-1.285607457E0,-3.719782591E0
4.173647969E0,-2.148009777E0,-1.204208136E0,-3.549801588E0
4.176066666E0,-2.191103458E0,-1.180267096E0,-3.317574024E0
4.178485416E0,-2.262926579E0,-1.137173295E0,-3.169139862E0
4.180904948E0,-2.306020260E0,-1.144355655E0,-3.059011221E0
4.183324479E0,-2.303626299E0,-1.141961575E0,-2.922547817E0
4.185743229E0,-2.332355499E0,-1.189843416E0,-2.783689976E0
4.188161979E0,-2.375449181E0,-1.220966816E0,-2.580191612E0
4.190581510E0,-2.437695742E0,-1.314336538E0,-2.482033491E0
4.193001041E0,-2.464030743E0,-1.398130059E0,-2.319234848E0
4.195419739E0,-2.430513382E0,-1.467558980E0,-2.089401245E0
4.197838489E0,-2.413754702E0,-1.548958302E0,-1.821262360E0
4.200258021E0,-2.377843142E0,-1.685421944E0,-1.519605637E0
4.202677552E0,-2.303626299E0,-1.900890827E0,-1.179643631E0
4.205096302E0,-2.210256577E0,-2.195365191E0,-7.702528834E-1
4.207515052E0,-2.040275574E0,-2.501809835E0,-3.512855768E-1
4.209934583E0,-1.848747492E0,-2.901624441E0,1.514751762E-1
4.212354114E0,-1.606943488E0,-3.368473530E0,6.542359591E-1
4.214772812E0,-1.396262884E0,-3.943057060E0,1.238395929E0
4.217191562E0,-1.125729561E0,-4.503275871E0,1.839314699E0
4.219611094E0,-8.791375160E-1,-5.130529881E0,2.428262949E0
4.222030625E0,-5.894515514E-1,-5.796089649E0,3.153674841E0
4.224449375E0,-3.524357378E-1,-6.528684139E0,4.080191135E0
4.226868125E0,-1.633019745E-1,-7.328312397E0,5.128806591E0
4.229287656E0,-3.880882263E-2,-8.161458969E0,6.012228966E0
4.231707187E0,7.131971419E-2,-9.030516624E0,7.118302345E0
4.234125885E0,2.149656415E-1,-9.973792076E0,8.480545044E0
4.236544635E0,1.982069463E-1,-1.111338234E1,1.042934132E1
4.238964166E0,7.610791922E-2,-1.240619564E1,1.299581528E1
4.241383698E0,-3.620121181E-1,-1.401503086E1,1.629009438E1
4.243802448E0,-1.262193203E0,-1.599494934E1,2.008952904E1
4.246221198E0,-2.799204826E0,-1.840580940E1,2.429596138E1
4.248640729E0,-4.266787052E0,-2.110156250E1,2.899557495E1
4.251060260E0,-4.712089539E0,-2.401757622E1,3.298175430E1
4.253478958E0,-3.641927481E0,-2.696471024E1,3.549795151E1
4.255897708E0,-1.379504085E0,-2.936599350E1,3.594804001E1
4.258317239E0,9.044660330E-1,-3.103467941E1,3.409021759E1
4.260736771E0,2.367260456E0,-3.197556114E1,3.021896172E1
4.263155521E0,2.862838745E0,-3.249507523E1,2.572284317E1
4.265574271E0,2.240373135E0,-3.226045609E1,2.158344841E1
4.267993802E0,1.057688355E0,-3.146561623E1,1.822931290E1
4.270413333E0,1.146724820E-2,-3.008901024E1,1.547370720E1
4.272832031E0,-6.325453520E-1,-2.815457916E1,1.320410252E1
4.275250781E0,-8.025263548E-1,-2.584427261E1,1.148513985E1
4.277670312E0,-7.378857136E-1,-2.314851761E1,9.749417305E0
4.280089844E0,-5.248109102E-1,-2.032587433E1,8.164524078E0
4.282508594E0,-3.332829773E-1,-1.755829620E1,6.819039822E0
4.284927344E0,-3.500417173E-1,-1.504928017E1,5.655508041E0
4.287346875E0,-5.990279913E-1,-1.284192181E1,4.841514587E0
4.289766406E0,-1.039542079E0,-1.094100761E1,4.396212101E0
4.292185104E0,-1.604549408E0,-9.322596550E0,4.367483139E0
4.294603854E0,-2.329961300E0,-8.003448486E0,4.640410423E0
4.297023385E0,-3.110437393E0,-6.880616665E0,5.009101391E0
4.299442916E0,-3.859790564E0,-5.875094891E0,5.370610237E0
4.301861666E0,-4.487044811E0,-5.068283558E0,5.803942680E0
4.304280416E0,-4.836582661E0,-4.333294868E0,6.297126293E0
4.306699948E0,-5.061628342E0,-3.607883215E0,6.730458260E0
4.309119479E0,-5.013746262E0,-2.961476564E0,6.842980862E0
4.311538177E0,-4.977834702E0,-2.501809835E0,6.773552418E0
4.313956927E0,-4.872494221E0,-2.068477869E0,6.471896172E0
4.316376458E0,-4.738424778E0,-1.637539983E0,5.938012123E0
4.318795989E0,-4.625902176E0,-1.213784456E0,5.186264992E0
4.321214739E0,-4.551685333E0,-8.307287693E-1,4.408182621E0
4.323633489E0,-4.446344852E0,-4.692198038E-1,3.572642088E0
4.326053021E0,-4.293122768E0,-1.364400983E-1,2.509662390E0
4.328472552E0,-4.013012886E0,1.939455420E-1,8.290051222E-1
4.330891250E0,-3.773602724E0,4.046261907E-1,-9.522044063E-1
4.333310000E0,-3.570104361E0,4.501141310E-1,-2.673561335E0
4.335729531E0,-3.503069639E0,2.968917489E-1,-4.332672119E0
4.338149062E0,-3.301965475E0,1.508517414E-1,-6.003752708E0
4.340567812E0,-2.964397430E0,-5.264664441E-2,-7.808903217E0
4.342986562E0,-2.799204826E0,-5.171018243E-1,-9.664329529E0
4.345406041E0,-2.784839869E0,-1.261666417E0,-1.149102688E1
4.347825573E0,-2.717805147E0,-2.145089149E0,-1.326026535E1
4.350244323E0,-3.014673471E0,-3.308621168E0,-1.476615334E1
4.352663073E0,-3.558134079E0,-4.701986790E0,-1.606136322E1
4.355082604E0,-4.192570210E0,-6.186327457E0,-1.730150414E1
4.357502135E0,-4.494226933E0,-7.694610119E0,-1.826153946E1
4.359920885E0,-4.968258381E0,-9.449483871E0,-1.915693283E1
4.362339635E0,-5.720005035E0,-1.130491066E1,-1.962617493E1
4.364759114E0,-6.387958527E0,-1.312203121E1,-1.980812645E1
4.367178646E0,-7.192376137E0,-1.501097584E1,-1.958547401E1
4.369597396E0,-7.987216949E0,-1.699328995E1,-1.904440880E1
4.372016146E0,-8.748539925E0,-1.892772293E1,-1.819689941E1
4.374435677E0,-9.540987015E0,-2.083102989E1,-1.665988731E1
4.376855208E0,-1.012754154E1,-2.271039772E1,-1.411017036E1
4.379273958E0,-1.076915932E1,-2.552585793E1,-6.640583038E0
4.381692708E0,-1.250248718E1,-3.094849014E1,1.308679104E1
4.384112187E0,-1.406822681E1,-3.648843384E1,2.887108421E1
4.386531719E0,-1.422863197E1,-3.901660156E1,3.054216385E1
4.388950469E0,-1.306031227E1,-3.806854248E1,2.422413826E1
4.391369219E0,-1.114742756E1,-3.601200867E1,1.936172295E1
4.393788750E0,-8.394213676E0,-3.253338242E1,1.446100330E1
4.396208281E0,-5.681699753E0,-2.855199814E1,9.541130066E0
4.398627031E0,-3.457581758E0,-2.434556580E1,5.229358673E0
4.401045781E0,-2.054640055E0,-2.025884056E1,1.920714140E0
4.403465260E0,-1.456115246E0,-1.678739738E1,1.442928910E-1
4.405884791E0,-1.513573647E0,-1.403178883E1,-7.726469636E-1
4.408303541E0,-1.738618851E0,-1.184118843E1,-1.340048313E0
4.410722291E0,-1.757771730E0,-1.007434368E1,-1.909843683E0
4.413141823E0,-1.705101490E0,-8.563667297E0,-2.553856611E0
4.415561354E0,-1.532726526E0,-7.206213474E0,-3.157169342E0
4.417980104E0,-1.343592644E0,-6.030711174E0,-3.556983709E0
4.420398854E0,-1.334016204E0,-5.044342518E0,-3.738935471E0
4.422818333E0,-1.266981483E0,-4.215984344E0,-3.793999672E0
4.425237864E0,-1.089818120E0,-3.473813772E0,-3.834699154E0
4.427656614E0,-8.480142355E-1,-2.853742361E0,-4.066926956E0
4.430075364E0,-5.631164312E-1,-2.341405153E0,-4.476317406E0
4.432494896E0,-2.590659559E-1,-1.898496747E0,-4.897678852E0
4.434914427E0,3.062003851E-2,-1.513046861E0,-5.421986580E0
4.437333125E0,4.831047058E-1,-1.211390376E0,-6.010934830E0
4.439751875E0,9.499539137E-1,-9.887392521E-1,-6.568759918E0
4.442171406E0,1.476655602E0,-8.091818690E-1,-7.234319687E0
4.444590937E0,2.020116091E0,-6.727182269E-1,-7.823268414E0
4.447009687E0,2.642581701E0,-5.673778653E-1,-8.371515274E0
4.449428437E0,3.217165470E0,-5.458310246E-1,-8.850335121E0
4.451847969E0,3.652891636E0,-6.822946668E-1,-9.269302368E0
4.454267500E0,3.887512922E0,-9.863451719E-1,-9.494348526E0
4.456686198E0,4.012006283E0,-1.388553739E0,-9.774457932E0
4.459104948E0,4.038341045E0,-1.807520986E0,-1.007611465E1
4.461524479E0,4.112558365E0,-2.317464113E0,-1.033946514E1
4.463944010E0,4.186775208E0,-2.865712881E0,-1.043522835E1
4.466362760E0,4.184381008E0,-3.617459774E0,-1.054775143E1
4.468781510E0,4.122134686E0,-4.402724266E0,-1.070097351E1
4.471201041E0,3.923424482E0,-5.353181362E0,-1.083504391E1
4.473620573E0,3.600221157E0,-6.377855778E0,-1.099065971E1
4.476039271E0,3.157313108E0,-7.471958637E0,-1.112951756E1
4.478458021E0,2.659340620E0,-8.606760979E0,-1.119176483E1
4.480877552E0,2.264314175E0,-9.708046913E0,-1.099065971E1
4.483297083E0,2.048845291E0,-1.062019825E1,-1.063872719E1
4.485715833E0,1.981810570E0,-1.141503906E1,-1.018624210E1
4.488134583E0,1.929140449E0,-1.215960407E1,-9.664329529E0
4.490554062E0,1.876470089E0,-1.282755756E1,-9.061017036E0
4.492973594E0,1.914775729E0,-1.344044685E1,-8.337998390E0
4.495392344E0,1.936322689E0,-1.389771938E1,-7.514429092E0
4.497811094E0,1.996175170E0,-1.418740559E1,-6.511301517E0
4.500230625E0,2.089545012E0,-1.443399715E1,-5.520144939E0
4.502650156E0,2.166156054E0,-1.462552547E1,-4.555323124E0
4.505068906E0,2.192491293E0,-1.473325920E1,-3.602471828E0
4.507487656E0,2.221220255E0,-1.474283695E1,-2.647226334E0
4.509907135E0,2.295437574E0,-1.468777180E1,-1.766197920E0
4.512326666E0,2.427113056E0,-1.458961391E1,-8.708049655E-1
4.514745416E0,2.530059338E0,-1.446512032E1,4.387670159E-1
4.517164166E0,2.731163502E0,-1.444357395E1,2.763437033E0
4.519583698E0,2.903538465E0,-1.446512032E1,5.282029152E0
4.522003229E0,3.104642868E0,-1.447948551E1,7.889202595E0
4.524421979E0,3.243500471E0,-1.447948551E1,1.040540028E1
4.526840729E0,3.162101269E0,-1.434302139E1,1.221773338E1
4.529260208E0,3.004090786E0,-1.387377834E1,1.291681004E1
4.531679739E0,2.767075062E0,-1.311006069E1,1.243080807E1
4.534098489E0,2.460630178E0,-1.235113144E1,1.147556210E1
4.536517239E0,2.192491293E0,-1.166163063E1,1.049637604E1
4.538936771E0,1.996175170E0,-1.103198242E1,9.452548981E0
4.541356302E0,1.819011807E0,-1.044782257E1,8.324929237E0
4.543775052E0,1.605937004E0,-9.913938522E0,7.132667065E0
4.546193802E0,1.481443882E0,-9.423148155E0,5.897312164E0
4.548613281E0,1.234851718E0,-9.001787186E0,4.781661987E0
4.551032812E0,1.000230074E0,-8.676189423E0,3.716288090E0
4.553451562E0,8.422194719E-1,-8.360169411E0,2.717948914E0
4.555870312E0,7.057558298E-1,-8.034571648E0,1.812979698E0
4.558289844E0,5.261985064E-1,-7.742492199E0,9.965919852E-1
4.560709375E0,3.514292538E-1,-7.512658596E0,2.831506133E-1
4.563128073E0,1.575072557E-1,-7.397741795E0,-4.039557576E-1
4.565546823E0,-2.205014229E-2,-7.330707073E0,-1.177249670E0
4.567966354E0,-1.752724648E-1,-7.328312397E0,-1.905055761E0
4.570385885E0,-2.949773967E-1,-7.414500713E0,-2.534703732E0
4.572804635E0,-3.859531581E-1,-7.445623398E0,-3.030282021E0
4.575223385E0,-4.218646586E-1,-7.404923916E0,-3.279268265E0
4.577642916E0,-4.338351190E-1,-7.459988117E0,-3.413337708E0
4.580062448E0,-5.367814302E-1,-7.527023315E0,-3.542619228E0
4.582481146E0,-5.415695906E-1,-7.548570156E0,-3.609653950E0
4.584899896E0,-5.080522299E-1,-7.615604401E0,-3.578530788E0
4.587319427E0,-4.912935197E-1,-7.653910160E0,-3.511496067E0
4.589738958E0,-5.224167109E-1,-7.649122238E0,-3.454037428E0
4.592157708E0,-6.852154732E-1,-7.644333839E0,-3.595289469E0
4.594576458E0,-9.222311974E-1,-7.665880680E0,-3.683871031E0
4.596995989E0,-1.125729561E0,-7.646728039E0,-3.734147072E0
4.599415521E0,-1.257405162E0,-7.625181198E0,-3.741329670E0
4.601834219E0,-1.338804483E0,-7.601240158E0,-3.705418110E0
4.604252969E0,-1.439356565E0,-7.644333839E0,-3.576136589E0
4.606672500E0,-1.525544047E0,-7.749673843E0,-3.513890028E0
4.609092031E0,-1.630884528E0,-7.859802723E0,-3.375032187E0
4.611510781E0,-1.683554649E0,-8.029783249E0,-3.264903784E0
4.613929531E0,-1.752983570E0,-8.206946373E0,-3.068587780E0
4.616349010E0,-1.757771730E0,-8.329045296E0,-2.819601536E0
4.618768541E0,-1.755377531E0,-8.393686295E0,-2.596950293E0
4.621187291E0,-1.772136450E0,-8.503814697E0,-2.350358009E0
4.623606041E0,-1.808047771E0,-8.580425262E0,-2.142071486E0
4.626025573E0,-1.786500931E0,-8.647460938E0,-1.948149443E0
4.628445104E0,-1.767348051E0,-8.728860855E0,-1.730286598E0
4.630863802E0,-1.736224890E0,-8.704919815E0,-1.550729036E0
4.633282552E0,-1.678766489E0,-8.683372498E0,-1.344836473E0
4.635702083E0,-1.659613609E0,-8.666613579E0,-1.134155750E0
4.638121614E0,-1.669190049E0,-8.613944054E0,-9.306574464E-1
4.640540364E0,-1.669190049E0,-8.561273575E0,-7.295531631E-1
4.642959114E0,-1.626096249E0,-8.566061974E0,-5.140842795E-1
4.645378646E0,-1.597367048E0,-8.467903137E0,-2.531275153E-1
4.647798177E0,-1.614125729E0,-8.360169411E0,-6.535321474E-3
4.650216875E0,-1.594972968E0,-8.211734772E0,1.969630420E-1
4.652635625E0,-1.599761248E0,-8.077665329E0,3.813086450E-1
4.655055156E0,-1.580608368E0,-7.998660564E0,5.919893980E-1
4.657474687E0,-1.556667328E0,-7.869379044E0,7.667585611E-1
4.659893437E0,-1.571031928E0,-7.828679562E0,1.049262285E0
4.662312187E0,-1.623702168E0,-7.811920643E0,1.281489849E0
4.664731719E0,-1.717072010E0,-7.828679562E0,1.394012451E0
4.667151250E0,-1.805653811E0,-7.835861683E0,1.417953491E0
4.669569948E0,-1.846353531E0,-7.855014801E0,1.405982971E0
4.671988698E0,-1.922964573E0,-7.938807964E0,1.372465611E0
4.674408229E0,-1.982816935E0,-8.087242126E0,1.250366449E0
4.676827760E0,-1.963664293E0,-8.264405251E0,9.989861250E-1
4.679246510E0,-1.891841173E0,-8.412838936E0,7.404234409E-1
4.681665260E0,-1.800865412E0,-8.561273575E0,5.345309973E-1
4.684084791E0,-1.721860170E0,-8.709707260E0,3.118797839E-1
4.686504323E0,-1.635672688E0,-8.867717743E0,7.965222001E-2
4.688923021E0,-1.602155209E0,-9.032910347E0,-2.028514445E-1
4.691341771E0,-1.551879287E0,-9.224438667E0,-5.523898602E-1
4.693761302E0,-1.458509326E0,-9.387237549E0,-8.492581248E-1
4.696180833E0,-1.377110004E0,-9.526094437E0,-1.148520470E0
4.698599583E0,-1.252616882E0,-9.686499596E0,-1.411871433E0
4.701018333E0,-1.106576800E0,-9.815780640E0,-1.569881916E0
4.703437812E0,-9.581427574E-1,-9.935485840E0,-1.696768999E0
4.705857344E0,-7.809793949E-1,-1.001449203E1,-1.744651079E0
4.708276094E0,-6.421216726E-1,-1.006476784E1,-1.711133718E0
4.710694844E0,-4.769288599E-1,-1.009110260E1,-1.634522438E0
4.713114375E0,-3.189183772E-1,-9.966609955E0,-1.531576157E0
4.715533906E0,-3.165242374E-1,-1.003843307E1,-1.349624634E0
4.717952604E0,-2.662481964E-1,-1.004322052E1,-1.150914431E0
4.720371354E0,-2.494895160E-1,-9.961820602E0,-8.755932450E-1
4.722790885E0,-2.830068767E-1,-9.878027916E0,-5.883013606E-1
4.725210416E0,-3.787708580E-1,-9.825357437E0,-2.459452152E-1
4.727629166E0,-5.176285505E-1,-9.801416397E0,1.083814055E-1
4.730047916E0,-7.426738739E-1,-9.822963715E0,4.555256963E-1
4.732467448E0,-1.008418798E0,-9.892391205E0,8.720988631E-1
4.734886979E0,-1.305287004E0,-9.969003677E0,1.243184209E0
4.737305677E0,-1.580608368E0,-1.008631325E1,1.619057655E0
4.739724427E0,-1.834383011E0,-1.023953629E1,1.970990181E0
4.742143958E0,-2.059428215E0,-1.036402988E1,2.301375866E0
4.744563489E0,-2.193497658E0,-1.047176361E1,2.574302912E0
4.746982239E0,-2.267714739E0,-1.058907413E1,2.746678114E0
4.749400989E0,-2.267714739E0,-1.073272038E1,2.880747795E0
4.751820521E0,-2.171950817E0,-1.090030766E1,2.897506475E0
4.754240052E0,-2.080975056E0,-1.105592346E1,2.899900436E0
4.756658750E0,-1.949299574E0,-1.131688023E1,2.801742554E0
4.759077500E0,-1.791289091E0,-1.146531487E1,2.588667631E0
4.761497031E0,-1.650037169E0,-1.171908951E1,2.358834267E0
4.763916562E0,-1.434568405E0,-1.215242195E1,2.112241983E0
4.766335312E0,-1.156852961E0,-1.237986088E1,1.803403378E0
4.768754062E0,-8.360437155E-1,-1.253068829E1,1.422741652E0
4.771173541E0,-5.391753912E-1,-1.267912292E1,1.056444526E0
4.773593073E0,-2.231544554E-1,-1.269348717E1,7.116943002E-1
4.776011823E0,8.568429947E-2,-1.266475868E1,3.908850551E-1
4.778430573E0,3.466410637E-1,-1.258575344E1,1.323223859E-1
4.780850104E0,5.740804672E-1,-1.245647144E1,-1.166639030E-1
4.783269635E0,7.512437105E-1,-1.237986088E1,-3.297386765E-1
4.785688333E0,8.972837925E-1,-1.222903252E1,-4.733846188E-1
4.788107083E0,1.021776915E0,-1.210214520E1,-6.577301621E-1
4.790526614E0,1.115146756E0,-1.203271675E1,-7.463118434E-1
4.792946146E0,1.225275278E0,-1.201116943E1,-8.324993253E-1
4.795364896E0,1.342586160E0,-1.198004627E1,-9.234750867E-1
4.797783646E0,1.395256400E0,-1.190822315E1,-9.569924474E-1
4.800203177E0,1.443138242E0,-1.181485367E1,-1.079091549E0
4.802622708E0,1.526931763E0,-1.180048847E1,-1.167673349E0
4.805041406E0,1.620301604E0,-1.182682323E1,-1.208372831E0
4.807460156E0,1.759159446E0,-1.185076427E1,-1.277801752E0
4.809879687E0,1.888440609E0,-1.184837055E1,-1.282589912E0
4.812299219E0,2.020116091E0,-1.185794735E1,-1.320895672E0
4.814717969E0,2.120668173E0,-1.192737579E1,-1.311319113E0
4.817136719E0,2.242767096E0,-1.197765255E1,-1.304136753E0
4.819556198E0,2.355289936E0,-1.210693359E1,-1.253860712E0
4.821975729E0,2.367260456E0,-1.222424507E1,-1.148520470E0
4.824394479E0,2.338531256E0,-1.246604824E1,-9.713571668E-1
4.826813229E0,2.276284695E0,-1.264321136E1,-7.726469636E-1
4.829232760E0,2.156579733E0,-1.287543964E1,-4.973255992E-1
4.831652291E0,2.020116091E0,-1.310527229E1,-1.334225833E-1
4.834070989E0,1.833376408E0,-1.331355953E1,2.280863374E-1
4.836489739E0,1.634666324E0,-1.342368793E1,6.183243990E-1
4.838909271E0,1.433561921E0,-1.344284058E1,1.022927165E0
4.841328802E0,1.165422916E0,-1.343087006E1,1.496958733E0
4.843747552E0,9.116483927E-1,-1.337341118E1,1.978172541E0
4.846166302E0,6.411151886E-1,-1.328961849E1,2.519238710E0
4.848585833E0,4.495872855E-1,-1.307175541E1,3.060305119E0
4.851005364E0,2.652417123E-1,-1.286107445E1,3.551095486E0
4.853424062E0,1.386132836E-2,-1.266475868E1,4.041885853E0
4.855842812E0,-3.093419969E-1,-1.250674725E1,4.520705223E0
4.858262344E0,-7.019741535E-1,-1.228888416E1,4.975584030E0
4.860681875E0,-1.039542079E0,-1.206862736E1,5.444827557E0
4.863100625E0,-1.281346083E0,-1.180288219E1,5.890130043E0
4.865519375E0,-1.460903525E0,-1.150362015E1,6.294732571E0
4.867938906E0,-1.628490329E0,-1.122351074E1,6.603571415E0
4.870358437E0,-1.695525050E0,-1.093382454E1,6.852557659E0
4.872777135E0,-1.714678049E0,-1.063456249E1,7.020144463E0
4.875195885E0,-1.681160569E0,-1.036402988E1,7.103938103E0
4.877615416E0,-1.549485087E0,-1.008391953E1,7.065632343E0
4.880034948E0,-1.401050925E0,-9.901968956E0,6.996203423E0
4.882453698E0,-1.290922523E0,-9.767898560E0,6.852557659E0
4.884872448E0,-1.152064681E0,-9.743957520E0,6.591600895E0
4.887291927E0,-1.015601158E0,-9.758322716E0,6.237274170E0
4.889711458E0,-9.174431562E-1,-9.856480598E0,5.748878002E0
4.892130208E0,-7.330974340E-1,-9.969003677E0,5.291604996E0
4.894548958E0,-5.032639503E-1,-1.012940788E1,4.796026230E0
4.896968489E0,-2.614600360E-1,-1.033051300E1,4.288477898E0
4.899388021E0,-3.402063251E-2,-1.052682877E1,3.814446211E0
4.901806719E0,2.221479267E-1,-1.074229717E1,3.321261883E0
4.904225469E0,4.400109053E-1,-1.096494865E1,2.847230196E0
4.906645000E0,6.267505884E-1,-1.123548126E1,2.490509748E0
4.909064531E0,7.440614700E-1,-1.151319695E1,2.121818304E0
4.911483281E0,8.661605120E-1,-1.177894115E1,1.805797338E0
4.913902031E0,9.308011532E-1,-1.206862736E1,1.561599493E0
4.916321562E0,1.038535595E0,-1.233437252E1,1.281489849E0
4.918741094E0,1.182181597E0,-1.254744720E1,1.001380205E0
4.921159791E0,1.356950760E0,-1.277728081E1,7.308471203E-1
4.923578541E0,1.538902283E0,-1.297120285E1,3.789145350E-1
4.925998073E0,1.632272124E0,-1.325131226E1,7.965222001E-2
4.928417604E0,1.725641966E0,-1.362239742E1,-1.549694538E-1
4.930836354E0,1.819011807E0,-1.395278358E1,-4.662023187E-1
4.933255104E0,1.967445850E0,-1.421374035E1,-8.636227250E-1
4.935674583E0,2.077574492E0,-1.440047932E1,-1.318501472E0
4.938094114E0,2.154185534E0,-1.461834240E1,-1.782956600E0
4.940512864E0,2.214038134E0,-1.475720024E1,-2.266564608E0
4.942931614E0,2.032086611E0,-1.460158443E1,-2.685531855E0
4.945351146E0,1.835770488E0,-1.440766239E1,-3.264903784E0
4.947770677E0,1.692124605E0,-1.427119827E1,-3.868216991E0
4.950189375E0,1.450320601E0,-1.402700043E1,-4.555323124E0
4.952608125E0,1.028959155E0,-1.379956150E1,-5.151453495E0
4.955027656E0,4.974693060E-1,-1.356493950E1,-5.630273342E0
4.957447187E0,-1.007962227E-2,-1.335425854E1,-5.986994267E0
4.959865937E0,-4.912935197E-1,-1.318667126E1,-6.317379475E0
