"Time (s)","Gyroscope x (rad/s)","Gyroscope y (rad/s)","Gyroscope z (rad/s)"
1.809692300E-2,2.018890381E-1,3.165435791E-1,5.603027344E-2
2.313232400E-2,2.123413086E-1,3.431701660E-1,5.282592773E-2
2.816772400E-2,2.572174072E-1,4.443664551E-1,5.282592773E-2
3.320312500E-2,3.104705811E-1,5.594177246E-1,6.135559082E-2
3.826904300E-2,3.543090820E-1,6.520996094E-1,7.412719727E-2
4.333496100E-2,3.908538818E-1,7.287902832E-1,8.584594727E-2
4.837036100E-2,4.253082275E-1,7.873840332E-1,1.071624756E-1
5.343627900E-2,4.482727051E-1,8.257293701E-1,1.348571777E-1
5.850219700E-2,4.681091309E-1,8.587646484E-1,1.593475342E-1
6.353759700E-2,4.848022461E-1,8.853912354E-1,1.806640625E-1
6.860351500E-2,4.952545166E-1,9.088287354E-1,2.030334473E-1
7.366943300E-2,5.140380859E-1,9.216156006E-1,2.360534668E-1
7.873535100E-2,5.328369141E-1,9.237365723E-1,2.680053711E-1
8.377075200E-2,5.610198975E-1,9.375915527E-1,2.989044189E-1
8.883666900E-2,5.860748291E-1,9.780731201E-1,3.191375732E-1
9.390258700E-2,6.069488525E-1,1.050506592E0,3.383178711E-1
9.896850500E-2,6.320037842E-1,1.143188477E0,3.564300537E-1
1.040039060E-1,6.570587158E-1,1.265686035E0,3.606872559E-1
1.090698240E-1,6.549682617E-1,1.465957642E0,3.553619385E-1
1.141357420E-1,5.192565918E-1,1.925094604E0,3.244781494E-1
1.192016600E-1,3.344726562E-1,2.347991943E0,3.159484863E-1
1.242370600E-1,1.810150146E-1,2.686752319E0,3.606872559E-1
1.293029780E-1,6.304931641E-2,3.019119263E0,4.448394775E-1
1.343688960E-1,-1.107788086E-2,3.328033447E0,5.503082275E-1
1.394042960E-1,-5.075073242E-2,3.624191284E0,6.791992188E-1
1.444702140E-1,-6.118774414E-2,3.922454834E0,8.325958252E-1
1.495361320E-1,-4.447937012E-2,4.201553345E0,1.011566162E0
1.545715330E-1,-4.806518555E-3,4.452957153E0,1.210769653E0
1.596374510E-1,7.348632812E-2,4.674530029E0,1.424896240E0
1.647033690E-1,1.862335205E-1,4.858825684E0,1.639007568E0
1.697692870E-1,3.449096680E-1,5.012222290E0,1.843536377E0
1.748046870E-1,5.578918457E-1,5.132598877E0,2.042739868E0
1.798706050E-1,8.324432373E-1,5.227401733E0,2.227035522E0
1.849060050E-1,1.156066895E0,5.304107666E0,2.386825562E0
1.899719230E-1,1.514144897E0,5.380798340E0,2.523178101E0
1.950378410E-1,1.902511597E0,5.444717407E0,2.643554688E0
2.001037590E-1,2.313827515E0,5.482009888E0,2.753280640E0
2.051391600E-1,2.740798950E0,5.485198975E0,2.860870361E0
2.102050780E-1,3.177185059E0,5.448974609E0,2.966323853E0
2.152709960E-1,3.605194092E0,5.399978638E0,3.056869507E0
2.203063960E-1,4.010253906E0,5.348846436E0,3.127182007E0
2.253723140E-1,4.380859375E0,5.312622070E0,3.182571411E0
2.304382320E-1,4.706573486E0,5.326477051E0,3.265670776E0
2.355041500E-1,4.980102539E0,5.397842407E0,3.392425537E0
2.405395500E-1,5.205596924E0,5.527816772E0,3.568206787E0
2.456054680E-1,5.388290405E0,5.736602783E0,3.808944702E0
2.506713860E-1,5.538619995E0,6.027420044E0,4.111480713E0
2.557067870E-1,5.673278809E0,6.371505737E0,4.472610474E0
2.607727050E-1,5.803787231E0,6.711318970E0,4.874221802E0
2.658386230E-1,5.939498901E0,6.996810913E0,5.277954102E0
2.709045410E-1,6.072082520E0,7.227966309E0,5.649734497E0
2.759399410E-1,6.197357178E0,7.398422241E0,5.969314575E0
2.810058590E-1,6.316360474E0,7.476181030E0,6.228164673E0
2.860717770E-1,6.442687988E0,7.454879761E0,6.438018799E0
2.911071770E-1,6.583618164E0,7.332366943E0,6.603134155E0
2.961730950E-1,6.742294312E0,7.115051270E0,6.737365723E0
3.012390130E-1,6.903076172E0,6.822113037E0,6.848144531E0
3.062744140E-1,7.049224854E0,6.490814209E0,6.945083618E0
3.113403320E-1,7.157791138E0,6.133941650E0,7.034576416E0
3.164062500E-1,7.223571777E0,5.814361572E0,7.126190186E0
3.214721680E-1,7.236099243E0,5.615158081E0,7.242294312E0
3.265075680E-1,7.179718018E0,5.582138062E0,7.394638062E0
3.315734860E-1,7.066970825E0,5.672683716E0,7.572525024E0
3.366394040E-1,6.927078247E0,5.779220581E0,7.768539429E0
3.416748040E-1,6.777786255E0,5.806915283E0,7.958160400E0
3.467407220E-1,6.629547119E0,5.739791870E0,8.107299805E0
3.518066400E-1,6.485488892E0,5.621551514E0,8.201034546E0
3.568420410E-1,6.360214233E0,5.468154907E0,8.228729248E0
3.619079590E-1,6.248504639E0,5.252975464E0,8.195709229E0
3.669738770E-1,6.148284912E0,4.935531616E0,8.108352661E0
3.720397940E-1,6.062683105E0,4.508346558E0,7.991180420E0
3.770751950E-1,5.977081299E0,4.000228882E0,7.871871948E0
3.821411130E-1,5.876861572E0,3.446289062E0,7.762145996E0
3.872070310E-1,5.744277954E0,2.882766724E0,7.654556274E0
3.922729490E-1,5.574111938E0,2.318176270E0,7.528854370E0
3.973083490E-1,5.377838135E0,1.778076172E0,7.349884033E0
4.023742670E-1,5.143997192E0,1.250778198E0,7.050552368E0
4.074401850E-1,4.812011719E0,4.475708008E-1,6.585037231E0
4.124755860E-1,4.532241821E0,8.750915527E-2,6.020446777E0
4.175415030E-1,4.262893677E0,1.663360596E-1,5.401519775E0
4.226074210E-1,3.929870605E0,5.767822266E-2,4.864624023E0
4.276733390E-1,3.640701294E0,7.685852051E-2,4.280868530E0
4.327087400E-1,3.369262695E0,1.716613770E-1,3.684310913E0
4.377746580E-1,3.074874878E0,1.993560791E-1,3.198547363E0
4.428405760E-1,2.759597778E0,1.290588379E-1,2.862991333E0
4.478759760E-1,2.430740356E0,4.409790039E-3,2.674438477E0
4.529418940E-1,2.098770142E0,-8.932495117E-2,2.615859985E0
4.580078120E-1,1.741729736E0,-8.186340332E-2,2.657394409E0
4.630432120E-1,1.317886353E0,3.956604004E-2,2.747940063E0
4.681091300E-1,8.856811523E-1,1.535491943E-1,2.843826294E0
4.731750480E-1,4.315643311E-1,1.141357422E-1,2.880035400E0
4.782104490E-1,-8.206176758E-2,6.086730957E-2,2.734100342E0
4.832763670E-1,-4.808502197E-1,3.090820312E-1,2.533828735E0
4.883422850E-1,-8.170166016E-1,5.178680420E-1,2.380432129E0
4.934082030E-1,-1.140640259E0,6.190795898E-1,2.248336792E0
4.984436030E-1,-1.416244507E0,6.702117920E-1,2.105590820E0
5.035095210E-1,-1.623992920E0,6.915130615E-1,1.990539551E0
5.085754390E-1,-1.756576538E0,7.298583984E-1,1.938339233E0
5.136413570E-1,-1.835906982E0,7.809906006E-1,1.938339233E0
5.186767570E-1,-1.878723145E0,8.022918701E-1,1.959655762E0
5.237426750E-1,-1.920471191E0,7.543640137E-1,1.956451416E0
5.288085930E-1,-2.015472412E0,5.753936768E-1,1.874435425E0
5.338745110E-1,-2.213821411E0,3.325195312E-1,1.683746338E0
5.389099120E-1,-2.495697021E0,1.524810791E-1,1.346054077E0
5.439758300E-1,-2.801574707E0,1.194610596E-1,9.071655273E-1
5.490417480E-1,-3.102233887E0,1.780548096E-1,5.343322754E-1
5.540771480E-1,-3.356964111E0,1.972351074E-1,3.606872559E-1
5.591430660E-1,-3.461364746E0,1.876373291E-1,4.022369385E-1
5.642089840E-1,-3.359054565E0,8.111572266E-2,5.321960449E-1
5.692443840E-1,-3.117889404E0,-1.543121338E-1,5.961151123E-1
5.743103020E-1,-2.830810547E0,-4.312744141E-1,5.630950928E-1
5.793762200E-1,-2.545806885E0,-6.102447510E-1,5.055694580E-1
5.844116210E-1,-2.273330688E0,-6.549835205E-1,4.874572754E-1
5.894775390E-1,-2.036346436E0,-5.878753662E-1,4.991760254E-1
5.945434570E-1,-1.844268799E0,-4.983825684E-1,5.215454102E-1
5.996093750E-1,-1.688720703E0,-4.334106445E-1,5.513763428E-1
6.046447750E-1,-1.559265137E0,-3.971862793E-1,5.929107666E-1
6.097106930E-1,-1.456954956E0,-3.694915771E-1,6.451110840E-1
6.147766110E-1,-1.384918213E0,-3.471221924E-1,7.047729492E-1
6.198120110E-1,-1.335861206E0,-3.258209229E-1,7.409820557E-1
6.248779290E-1,-1.302444458E0,-2.938537598E-1,7.367248535E-1
6.299438470E-1,-1.270080566E0,-2.842712402E-1,7.143554688E-1
6.349792480E-1,-1.205368042E0,-3.279418945E-1,6.834716797E-1
6.400451660E-1,-1.095748901E0,-4.259490967E-1,6.855926514E-1
6.451110840E-1,-9.495849609E-1,-5.367431641E-1,7.154235840E-1
6.501770020E-1,-8.034362793E-1,-6.272888184E-1,6.589660645E-1
6.552124020E-1,-6.823425293E-1,-5.793457031E-1,5.481719971E-1
6.602783200E-1,-5.111236572E-1,-5.175628662E-1,5.545654297E-1
6.653442380E-1,-2.866821289E-1,-7.146453857E-1,6.131591797E-1
6.703796380E-1,-1.248626709E-1,-6.634979248E-1,6.067657471E-1
6.754455560E-1,-1.942443848E-2,1.077423096E-1,4.618835449E-1
6.805114740E-1,5.783081055E-2,7.863159180E-1,2.903747559E-1
6.855773920E-1,6.408691406E-2,1.043045044E0,1.966400146E-1
6.906127930E-1,-2.777099609E-2,1.105895996E0,1.636199951E-1
6.956787110E-1,-2.031555176E-1,1.075012207E0,1.476440430E-1
7.007446280E-1,-4.464111328E-1,1.076065063E0,1.071624756E-1
7.058105460E-1,-7.105255127E-1,1.173004150E0,4.856872559E-2
7.108459470E-1,-9.621124268E-1,1.286987305E0,2.761840820E-3
7.159118650E-1,-1.192840576E0,1.445724487E0,-4.943847656E-2
7.209777830E-1,-1.403717041E0,1.705642700E0,-1.399841309E-1
7.260131830E-1,-1.590576172E0,1.962371826E0,-2.678222656E-1
7.310791010E-1,-1.758666992E0,2.122161865E0,-4.116210938E-1
7.361450190E-1,-1.921524048E0,2.256378174E0,-5.426483154E-1
7.411804190E-1,-2.084381104E0,2.423629761E0,-6.118927002E-1
7.462463370E-1,-2.227401733E0,2.591949463E0,-6.172180176E-1
7.513122550E-1,-2.328659058E0,2.687820435E0,-5.905914307E-1
7.563781730E-1,-2.383987427E0,2.545074463E0,-5.479736328E-1
7.614135740E-1,-2.432006836E0,2.337341309E0,-4.808654785E-1
7.664794920E-1,-2.504043579E0,2.308578491E0,-3.604888916E-1
7.715454100E-1,-2.548934937E0,2.227615356E0,-2.337341309E-1
7.765808100E-1,-2.573989868E0,2.079544067E0,-1.346588135E-1
7.816467280E-1,-2.589645386E0,1.974090576E0,-3.771972656E-2
7.867126460E-1,-2.591735840E0,1.927215576E0,5.815124512E-2
7.917480460E-1,-2.576080322E0,1.913375854E0,1.550903320E-1
7.968139640E-1,-2.523880005E0,1.922958374E0,2.562866211E-1
8.018798820E-1,-2.429931641E0,1.981552124E0,3.585662842E-1
8.069458000E-1,-2.301513672E0,2.127487183E0,4.544372559E-1
8.119812010E-1,-2.142837524E0,2.350128174E0,5.417785645E-1
8.170471190E-1,-1.961181641E0,2.628158569E0,6.110229492E-1
8.221130370E-1,-1.777450562E0,2.904067993E0,6.333923340E-1
8.271789550E-1,-1.608337402E0,3.133102417E0,6.025085449E-1
8.322143550E-1,-1.459045410E0,3.279037476E0,5.268707275E-1
8.372802730E-1,-1.348388672E0,3.335494995E0,4.086303711E-1
8.423461910E-1,-1.270080566E0,3.330169678E0,2.690734863E-1
8.473815910E-1,-1.221023560E0,3.255599976E0,1.295318604E-1
8.524475090E-1,-1.197006226E0,3.092620850E0,1.127624512E-2
8.575134270E-1,-1.189697266E0,2.868911743E0,-6.967163086E-2
8.625793450E-1,-1.192840576E0,2.579162598E0,-9.204101562E-2
8.676147460E-1,-1.188659668E0,2.226562500E0,-5.050659180E-2
8.726806640E-1,-1.158386230E0,1.839859009E0,3.259277344E-2
8.777160640E-1,-1.075912476E0,1.491531372E0,1.316528320E-1
8.827819820E-1,-9.318389893E-1,1.226272583E0,2.275390625E-1
8.878479000E-1,-7.366180420E-1,1.066482544E0,3.212738037E-1
8.929138180E-1,-4.839935303E-1,1.038787842E0,4.150238037E-1
8.979492180E-1,-1.760253906E-1,1.155960083E0,4.991760254E-1
9.030151360E-1,1.768341064E-1,1.386062622E0,5.449829102E-1
9.080810540E-1,5.547485352E-1,1.642791748E0,5.332641602E-1
9.131164550E-1,9.086608887E-1,1.867568970E0,4.661560059E-1
9.181823730E-1,1.193649292E0,2.044403076E0,3.660125732E-1
9.232482910E-1,1.397232056E0,2.160507202E0,2.605590820E-1
9.283142090E-1,1.522506714E0,2.207382202E0,1.785278320E-1
9.333496090E-1,1.586181641E0,2.190338135E0,1.242065430E-1
9.384155270E-1,1.593490601E0,2.100860596E0,9.970092773E-2
9.434814450E-1,1.538162231E0,1.960235596E0,1.305999756E-1
9.485473630E-1,1.434814453E0,1.772750854E0,2.168731689E-1
9.535827630E-1,1.302230835E0,1.535202026E0,3.393859863E-1
9.586486810E-1,1.182174683E0,1.300842285E0,4.821319580E-1
9.637145990E-1,1.095520020E0,1.100570679E0,6.206207275E-1
9.687500000E-1,1.046463013E0,9.343872070E-1,7.399291992E-1
9.738159180E-1,1.031845093E0,8.065643311E-1,8.240814209E-1
9.788818360E-1,1.054809570E0,7.415771484E-1,8.698883057E-1
9.839172360E-1,1.109100342E0,7.511596680E-1,8.847961426E-1
9.889831540E-1,1.193649292E0,8.278656006E-1,8.847961426E-1
9.940490720E-1,1.305358887E0,9.578247070E-1,8.762817383E-1
9.990844720E-1,1.445251465E0,1.114425659E0,8.549652100E-1
1.004150390E0,1.596618652E0,1.262496948E0,8.134307861E-1
1.009216308E0,1.723983765E0,1.357299805E0,7.644195557E-1
1.014282226E0,1.816894531E0,1.363693237E0,7.164916992E-1
1.019317627E0,1.862838745E0,1.424407959E0,6.717529297E-1
1.024383544E0,1.858657837E0,1.428680420E0,6.483154297E-1
1.029449462E0,1.801239014E0,1.354110718E0,6.504364014E-1
1.034484863E0,1.710418701E0,1.233734131E0,6.824035645E-1
1.039550781E0,1.601837158E0,1.093109131E0,7.143554688E-1
1.044616699E0,1.475524902E0,9.290618896E-1,7.324676514E-1
1.049682617E0,1.329376221E0,7.256011963E-1,7.335357666E-1
1.054718017E0,1.175903320E0,4.912414551E-1,7.132873535E-1
1.059783935E0,1.023483276E0,2.387695312E-1,6.760101318E-1
1.064849853E0,8.752441406E-1,8.682250977E-3,6.259460449E-1
1.069915771E0,7.384948730E-1,-1.915893555E-1,5.630950928E-1
1.074951171E0,6.100769043E-1,-3.663024902E-1,4.938507080E-1
1.080017089E0,5.004730225E-1,-4.930572510E-1,4.384613037E-1
1.085083007E0,4.106903076E-1,-5.644378662E-1,3.947753906E-1
1.090118408E0,3.501434326E-1,-5.782775879E-1,3.606872559E-1
1.095184326E0,3.052520752E-1,-5.441894531E-1,3.265991211E-1
1.100250244E0,2.739257812E-1,-4.611053467E-1,3.020935059E-1
1.105285644E0,2.561798096E-1,-3.471221924E-1,2.786712646E-1
1.110351562E0,2.373962402E-1,-2.299499512E-1,2.530975342E-1
1.115417480E0,2.227783203E-1,-1.170196533E-1,2.254028320E-1
1.120483398E0,2.206878662E-1,-1.475524902E-2,1.881103516E-1
1.125518798E0,2.259063721E-1,7.791137695E-2,1.423034668E-1
1.130584716E0,2.279968262E-1,1.354370117E-1,9.863281250E-2
1.135650634E0,2.165069580E-1,1.258544922E-1,6.880187988E-2
1.140716552E0,1.966705322E-1,6.620788574E-2,4.856872559E-2
1.145751953E0,1.935424805E-1,3.356933594E-3,2.832031250E-2
1.150817871E0,1.883239746E-1,-9.785461426E-2,8.087158203E-3
1.155853271E0,1.872863770E-1,-2.065124512E-1,1.693725586E-3
1.160919189E0,2.018890381E-1,-3.108978271E-1,-3.631591797E-3
1.165985107E0,2.185974121E-1,-4.025115967E-1,-1.853942871E-2
1.171051025E0,2.353057861E-1,-4.834747314E-1,-3.665161133E-2
1.176086425E0,2.488708496E-1,-5.505828857E-1,-6.008911133E-2
1.181152343E0,2.572174072E-1,-5.910644531E-1,-8.992004395E-2
1.186218261E0,2.624511719E-1,-5.750885010E-1,-1.229400635E-1
1.191284179E0,2.707977295E-1,-5.111694336E-1,-1.602172852E-1
1.196319580E0,2.728881836E-1,-4.152984619E-1,-1.847229004E-1
1.201385498E0,2.634887695E-1,-2.959899902E-1,-1.889801025E-1
1.206451416E0,2.467803955E-1,-1.660308838E-1,-1.740722656E-1
1.211486816E0,2.133789062E-1,-3.393554688E-2,-1.421203613E-1
1.216552734E0,1.737060547E-1,9.922790527E-2,-1.144256592E-1
1.221618652E0,1.256866455E-1,2.259979248E-1,-1.080322266E-1
1.226654052E0,8.183288574E-2,3.122711182E-1,-1.186828613E-1
1.231719970E0,6.304931641E-2,3.410339355E-1,-1.357269287E-1
1.236785888E0,7.975769043E-2,3.303833008E-1,-1.527709961E-1
1.241851806E0,1.267242432E-1,2.824554443E-1,-1.517028809E-1
1.246887207E0,2.050323486E-1,2.132110596E-1,-1.431732178E-1
1.251953125E0,3.125610352E-1,1.247863770E-1,-1.399841309E-1
1.257019043E0,4.420013428E-1,3.105163574E-2,-1.431732178E-1
1.262054443E0,5.892028809E-1,-4.672241211E-2,-1.591644287E-1
1.267120361E0,7.499694824E-1,-9.358215332E-2,-1.836547852E-1
1.272186279E0,9.222259521E-1,-1.074371338E-1,-2.113647461E-1
1.277252197E0,1.084045410E0,-9.678649902E-2,-2.358551025E-1
1.282287597E0,1.224975586E0,-7.867431641E-2,-2.550354004E-1
1.287353515E0,1.333541870E0,-4.458618164E-2,-2.571563721E-1
1.292419433E0,1.413925171E0,1.525878906E-4,-2.497100830E-1
1.297454834E0,1.473434448E0,5.554199219E-2,-2.443847656E-1
1.302520752E0,1.511016846E0,1.173400879E-1,-2.465057373E-1
1.307586669E0,1.531906128E0,1.737976074E-1,-2.465057373E-1
1.312622070E0,1.540252686E0,2.206573486E-1,-2.326660156E-1
1.317687988E0,1.539199829E0,2.632751465E-1,-2.060241699E-1
1.322753906E0,1.527725220E0,3.090820312E-1,-1.676788330E-1
1.327819824E0,1.501617432E0,3.453063965E-1,-1.218719482E-1
1.332855224E0,1.474487305E0,3.591461182E-1,-7.073974609E-2
1.337921142E0,1.434814453E0,3.484954834E-1,-1.853942871E-2
1.342987060E0,1.380523682E0,3.080139160E-1,2.299499512E-2
1.348052978E0,1.326232910E0,2.462310791E-1,4.110717773E-2
1.353088378E0,1.266738892E0,1.578063965E-1,3.578186035E-2
1.358154296E0,1.208267212E0,4.489135742E-2,1.022338867E-2
1.363220214E0,1.157119751E0,-7.015991211E-2,-2.706909180E-2
1.368255615E0,1.096572876E0,-1.734771729E-1,-6.541442871E-2
1.373321533E0,1.030792236E0,-2.448577881E-1,-9.950256348E-2
1.378387451E0,9.681549072E-1,-2.725524902E-1,-1.122894287E-1
1.383422851E0,9.264068604E-1,-2.075653076E-1,-1.112213135E-1
1.388488769E0,9.128265381E-1,-8.613586426E-2,-1.112213135E-1
1.393554687E0,9.211883545E-1,6.300354004E-2,-1.154785156E-1
1.398620605E0,9.545898438E-1,2.504882812E-1,-1.027069092E-1
1.403656005E0,1.018264771E0,4.443664551E-1,-7.073974609E-2
1.408721923E0,1.111190796E0,6.212005615E-1,-4.304504395E-2
1.413787841E0,1.210357666E0,7.778015137E-1,-2.493286133E-2
1.418823242E0,1.307449341E0,9.141540527E-1,-1.535034180E-2
1.423889160E0,1.395141602E0,1.022811890E0,-1.535034180E-2
1.428955078E0,1.465087891E0,1.094177246E0,-1.960754395E-2
1.433990478E0,1.517288208E0,1.126144409E0,-1.853942871E-2
1.439056396E0,1.554870605E0,1.128265381E0,-2.174377441E-2
1.444122314E0,1.578872681E0,1.109100342E0,-2.174377441E-2
1.449188232E0,1.599761963E0,1.081390381E0,-1.428222656E-2
1.454223632E0,1.628982544E0,1.053695679E0,-4.425048828E-4
1.459289550E0,1.659255981E0,1.016418457E0,-4.425048828E-4
1.464355468E0,1.695800781E0,9.610290527E-1,-2.813720703E-2
1.469390869E0,1.733383179E0,8.875122070E-1,-7.606506348E-2
1.474456787E0,1.761566162E0,7.948455811E-1,-1.453094482E-1
1.479522705E0,1.777221680E0,7.117462158E-1,-2.262725830E-1
1.484588623E0,1.763656616E0,6.403808594E-1,-3.157501221E-1
1.489624023E0,1.720855713E0,6.137542725E-1,-3.977813721E-1
1.494689941E0,1.684310913E0,6.925811768E-1,-4.521026611E-1
1.499755859E0,1.609146118E0,7.309265137E-1,-4.851226807E-1
1.504791259E0,1.503707886E0,7.756652832E-1,-5.085601807E-1
1.509857177E0,1.406616211E0,8.619537354E-1,-5.352020264E-1
1.514923095E0,1.277175903E0,8.630218506E-1,-5.596923828E-1
1.519958496E0,1.158157349E0,8.331909180E-1,-5.703582764E-1
1.525024414E0,1.074645996E0,7.980346680E-1,-5.554351807E-1
1.530090332E0,1.023483276E0,7.170715332E-1,-5.160217285E-1
1.535156250E0,1.009918213E0,6.137542725E-1,-4.830017090E-1
1.540191650E0,1.041244507E0,5.200042725E-1,-4.648895264E-1
1.545257568E0,1.100738525E0,4.219970703E-1,-4.574279785E-1
1.550323486E0,1.189483643E0,3.197326660E-1,-4.542388916E-1
1.555358886E0,1.293869019E0,2.281188965E-1,-4.382629395E-1
1.560424804E0,1.404541016E0,1.439666748E-1,-4.148254395E-1
1.565490722E0,1.523544312E0,5.235290527E-2,-3.828582764E-1
1.570556640E0,1.635253906E0,-4.565429688E-2,-3.487701416E-1
1.575592041E0,1.729202271E0,-1.361999512E-1,-3.168182373E-1
1.580657959E0,1.798110962E0,-2.160949707E-1,-2.710113525E-1
1.585723877E0,1.843002319E0,-3.013153076E-1,-2.070922852E-1
1.590789794E0,1.868057251E0,-4.057159424E-1,-1.229400635E-1
1.595825195E0,1.872222900E0,-5.133056641E-1,-2.813720703E-2
1.600891113E0,1.858657837E0,-6.240844727E-1,5.708312988E-2
1.605957031E0,1.840911865E0,-7.519226074E-1,1.188812256E-1
1.610992431E0,1.830474854E0,-8.882751465E-1,1.614837646E-1
1.616058349E0,1.841949463E0,-1.017166138E0,1.774597168E-1
1.621124267E0,1.901458740E0,-1.146072388E0,1.519012451E-1
1.626190185E0,2.011077881E0,-1.321838379E0,8.905029297E-2
1.631225586E0,2.166625977E0,-1.544479370E0,3.259277344E-2
1.636291503E0,2.358718872E0,-1.758590698E0,2.406311035E-2
1.641326904E0,2.566467285E0,-1.925842285E0,9.756469727E-2
1.646392822E0,2.778381348E0,-2.043029785E0,2.797241211E-1
1.651458740E0,2.987182617E0,-2.098419189E0,5.716094971E-1
1.656524658E0,3.161514282E0,-2.126113892E0,9.082336426E-1
1.661560058E0,3.049819946E0,-2.337036133E0,1.082931519E0
1.666625976E0,2.511138916E0,-2.667266846E0,1.044586182E0
1.671691894E0,1.538162231E0,-2.957015991E0,8.890533447E-1
1.676727294E0,1.705780029E-1,-3.170074463E0,5.758666992E-1
1.681793212E0,-1.258605957E0,-3.434265137E0,1.519012451E-1
1.686859130E0,-2.186691284E0,-3.714416504E0,-1.485137939E-1
1.691925048E0,-2.388168335E0,-3.703765869E0,-2.550354004E-1
1.696960449E0,-2.026962280E0,-3.242507935E0,-1.474456787E-1
1.702026367E0,-1.366134644E0,-2.453155518E0,1.156768799E-1
1.707092285E0,-6.113433838E-1,-1.600936890E0,4.128875732E-1
1.712127685E0,3.277587891E-2,-8.904113770E-1,6.099548340E-1
1.717193603E0,4.169464111E-1,-4.142303467E-1,6.269989014E-1
1.722259521E0,5.610198975E-1,-1.457824707E-1,4.970397949E-1
1.727325439E0,5.860748291E-1,-3.073120117E-2,2.978363037E-1
1.732360839E0,6.121673584E-1,-4.104614258E-3,1.039581299E-1
1.737426757E0,6.862945557E-1,1.220703125E-3,-3.132629395E-2
1.742492675E0,7.969512939E-1,3.424072266E-2,-9.950256348E-2
1.747528076E0,9.149169922E-1,7.791137695E-2,-1.058959961E-1
1.752593994E0,9.984283447E-1,9.283447266E-2,-8.778381348E-2
1.757659912E0,1.037063599E0,6.300354004E-2,-8.139038086E-2
1.762725830E0,1.036010742E0,4.409790039E-3,-1.080322266E-1
1.767761230E0,1.025573730E0,-4.244995117E-2,-1.975097656E-1
1.772827148E0,1.000518799E0,-6.163024902E-2,-3.839263916E-1
1.777893066E0,9.337158203E-1,-5.204772949E-2,-6.939239502E-1
1.782928466E0,7.875518799E-1,9.735107422E-3,-1.143463135E0
1.787994384E0,5.860748291E-1,7.258605957E-2,-1.704864502E0
1.793060302E0,3.814544678E-1,1.152038574E-1,-2.247070312E0
1.798126220E0,1.883239746E-1,2.068176270E-1,-2.636962891E0
1.803161621E0,5.364990234E-2,3.847198486E-1,-2.858535767E0
1.808227539E0,3.695678711E-2,6.116180420E-1,-2.877716064E0
1.813293457E0,1.361236572E-1,9.013671875E-1,-2.821258545E0
1.818328857E0,2.624511719E-1,1.230529785E0,-2.973587036E0
1.823394775E0,3.125610352E-1,1.519226074E0,-2.982116699E0
1.828460693E0,2.833251953E-1,1.815368652E0,-2.570922852E0
1.833526611E0,2.185974121E-1,1.906982422E0,-2.089416504E0
1.838562011E0,1.194152832E-1,1.708831787E0,-1.778366089E0
1.843627929E0,7.975769043E-2,1.429733276E0,-1.526962280E0
1.848693847E0,1.329956055E-1,1.115493774E0,-1.340530396E0
1.853729248E0,1.674499512E-1,7.490386963E-1,-1.329879761E0
1.858795166E0,9.645080566E-2,3.932342529E-1,-1.442810059E0
1.863861084E0,-4.135131836E-2,4.809570312E-2,-1.436416626E0
1.868896484E0,-4.969787598E-2,-7.228088379E-2,-1.417236328E0
1.873962402E0,1.084899902E-2,-8.361816406E-3,-1.502456665E0
1.879028320E0,1.712036133E-2,1.173400879E-1,-1.697402954E0
1.884094238E0,-3.768920898E-3,2.632751465E-1,-1.938156128E0
1.889129638E0,-5.178833008E-2,3.634033203E-1,-2.125640869E0
1.894195556E0,-6.222534180E-2,4.923095703E-1,-2.197006226E0
1.899261474E0,-1.316833496E-2,6.574249268E-1,-2.143753052E0
1.904296875E0,-1.678466797E-3,7.703399658E-1,-2.096878052E0
1.909362793E0,-5.804443359E-2,7.948455811E-1,-2.148010254E0
1.914428711E0,-1.426086426E-1,7.341156006E-1,-2.231094360E0
1.919464111E0,-2.188262939E-1,6.648864746E-1,-2.309921265E0
1.924530029E0,-2.438812256E-1,6.606140137E-1,-2.338684082E0
1.929595947E0,-2.323913574E-1,7.085571289E-1,-2.276901245E0
1.934661865E0,-2.407379150E-1,7.820587158E-1,-2.178894043E0
1.939697265E0,-2.699737549E-1,8.523712158E-1,-2.068115234E0
1.944763183E0,-3.138275146E-1,9.205474854E-1,-1.926437378E0
1.949829101E0,-3.827209473E-1,9.311981201E-1,-1.769836426E0
1.954895019E0,-4.495391846E-1,8.566284180E-1,-1.629226685E0
1.959930419E0,-5.393218994E-1,7.703399658E-1,-1.552520752E0
1.964996337E0,-6.562347412E-1,7.245330811E-1,-1.508850098E0
1.970062255E0,-7.501983643E-1,6.307983398E-1,-1.435348511E0
1.975097656E0,-8.629455566E-1,4.443664551E-1,-1.528030396E0
1.980163574E0,-9.370574951E-1,3.133392334E-1,-1.757049561E0
1.985229492E0,-8.034362793E-1,2.686004639E-1,-1.816711426E0
1.990295410E0,-5.904693604E-1,3.005523682E-1,-1.622833252E0
1.995330810E0,-4.557952881E-1,4.156036377E-1,-1.342666626E0
2.000396728E0,-3.848114014E-1,5.402374268E-1,-1.104049683E0
2.005432128E0,-3.242645264E-1,4.752655029E-1,-9.847412109E-1
2.010498046E0,-2.564086914E-1,2.451629639E-1,-9.005889893E-1
2.015563964E0,-1.979370117E-1,6.513977051E-2,-9.027099609E-1
2.020629882E0,-1.363525391E-1,2.572631836E-2,-9.836730957E-1
2.025665283E0,-2.046203613E-2,-2.647399902E-2,-1.068893433E0
2.030731201E0,9.959411621E-2,-3.286743164E-2,-1.246795654E0
2.035797119E0,2.102508545E-1,-2.008056641E-2,-1.605789185E0
2.040863037E0,3.804168701E-1,5.477905273E-3,-2.042541504E0
2.045898437E0,7.228240967E-1,1.567535400E-1,-2.206604004E0
2.050964355E0,1.090301514E0,2.749938965E-1,-1.964782715E0
2.056030273E0,1.045410156E0,1.727294922E-1,-1.619644165E0
2.061065673E0,7.176055908E-1,3.105163574E-2,-1.342666626E0
2.066131591E0,3.699798584E-1,-1.116943359E-1,-1.259582520E0
2.071197509E0,3.695678711E-2,-2.629699707E-1,-1.397003174E0
2.076263427E0,-1.687164307E-1,-3.769531250E-1,-1.534408569E0
2.081298828E0,-2.386627197E-1,-4.270172119E-1,-1.597259521E0
2.086364746E0,-2.511901855E-1,-4.962615967E-1,-1.588745117E0
2.091430664E0,-2.908477783E-1,-5.718994141E-1,-1.546127319E0
2.096466064E0,-3.649749756E-1,-6.390075684E-1,-1.491806030E0
2.101531982E0,-4.223937988E-1,-6.794891357E-1,-1.447067261E0
2.106597900E0,-4.641571045E-1,-6.762847900E-1,-1.441741943E0
2.111663818E0,-4.985961914E-1,-6.272888184E-1,-1.470504761E0
2.116699218E0,-5.497589111E-1,-5.686950684E-1,-1.507781982E0
2.121765136E0,-6.343231201E-1,-5.303497314E-1,-1.541870117E0
2.126800537E0,-7.105255127E-1,-4.813385010E-1,-1.565307617E0
2.131866455E0,-7.700347900E-1,-4.025115967E-1,-1.563171387E0
2.136932373E0,-7.971801758E-1,-3.130340576E-1,-1.542938232E0
2.141998291E0,-8.107452393E-1,-2.437896729E-1,-1.493942261E0
2.147033691E0,-8.232727051E-1,-2.192840576E-1,-1.411911011E0
2.152099609E0,-8.316192627E-1,-2.448577881E-1,-1.333084106E0
2.157165527E0,-8.472900391E-1,-3.481903076E-1,-1.259582520E0
2.162200927E0,-8.671264648E-1,-5.505828857E-1,-1.188201904E0
2.167266845E0,-8.796539307E-1,-7.274169922E-1,-1.095520020E0
2.172332763E0,-8.629455566E-1,-8.701629639E-1,-1.000717163E0
2.177398681E0,-8.044891357E-1,-9.415435791E-1,-9.431915283E-1
2.182434082E0,-6.917266846E-1,-8.286285400E-1,-8.984527588E-1
2.187500000E0,-5.476684570E-1,-6.549835205E-1,-8.505096436E-1
2.192535400E0,-4.150848389E-1,-5.367431641E-1,-8.217468262E-1
2.197570800E0,-2.971191406E-1,-4.983825684E-1,-7.983245850E-1
2.202636718E0,-1.561889648E-1,-5.473937988E-1,-7.514495850E-1
2.207702636E0,3.381347656E-2,-5.963897705E-1,-7.120361328E-1
2.212768554E0,2.154693604E-1,-5.441894531E-1,-7.173614502E-1
2.217834472E0,3.229980469E-1,-4.632415771E-1,-7.748870850E-1
2.222900390E0,3.887634277E-1,-3.417968750E-1,-8.047027588E-1
2.227966308E0,4.618377686E-1,-1.937255859E-1,-8.164215088E-1
2.233032226E0,5.526580811E-1,-4.884338379E-2,-8.196258545E-1
2.238067627E0,6.330566406E-1,7.153320312E-2,-7.887268066E-1
2.243133544E0,7.186584473E-1,1.439666748E-1,-7.141571045E-1
2.248199462E0,8.136596680E-1,2.494201660E-1,-6.470489502E-1
2.253234863E0,7.927703857E-1,4.582214355E-1,-6.182861328E-1
2.258270263E0,6.789855957E-1,6.222686768E-1,-5.543670654E-1
2.263336181E0,5.286560059E-1,8.267974854E-1,-4.542388916E-1
2.268371582E0,3.209075928E-1,1.052642822E0,-4.031066895E-1
2.273406982E0,2.050323486E-1,1.105895996E0,-3.967132568E-1
2.278503418E0,1.340332031E-1,1.153839111E0,-4.584960938E-1
2.283569336E0,1.293945312E-2,1.263565063E0,-5.565032959E-1
2.288635253E0,-1.624450684E-1,1.464889526E0,-7.280120850E-1
2.293701171E0,-3.534851074E-1,1.504302979E0,-9.953918457E-1
2.298736572E0,-5.873413086E-1,1.540527344E0,-1.375686646E0
2.303802490E0,-9.370574951E-1,1.486190796E0,-1.846542358E0
2.308868408E0,-1.207443237E0,1.022811890E0,-1.990356445E0
2.313934326E0,-1.363006592E0,4.805908203E-1,-1.789016724E0
2.319000244E0,-1.451736450E0,1.982879639E-1,-1.475830078E0
2.324035644E0,-1.478881836E0,9.709167480E-2,-1.130676270E0
2.329101562E0,-1.435028076E0,8.430480957E-2,-7.674255371E-1
2.334136962E0,-1.284698486E0,5.128479004E-2,-4.190826416E-1
2.339202880E0,-9.882202148E-1,-7.121276855E-2,-8.671569824E-2
2.344268798E0,-6.228332520E-1,-1.393890381E-1,1.455078125E-1
2.349334716E0,-2.793731689E-1,-1.457824707E-1,2.392425537E-1
2.354400634E0,2.502441406E-3,-6.481933594E-2,2.371215820E-1
2.359466552E0,1.684875488E-1,2.572631836E-2,1.689453125E-1
2.364501953E0,2.321624756E-1,1.045532227E-1,8.265686035E-2
2.369537353E0,2.259063721E-1,1.386413574E-1,1.448059082E-2
2.374603271E0,1.820526123E-1,1.492919922E-1,1.341247559E-2
2.379669189E0,1.413421631E-1,1.556854248E-1,5.070495605E-2
2.384735107E0,1.246490479E-1,1.301116943E-1,6.880187988E-2
2.389801025E0,1.590881348E-1,1.556854248E-1,6.028747559E-2
2.394836425E0,2.259063721E-1,1.652679443E-1,4.217529297E-2
2.399871826E0,2.373962402E-1,8.857727051E-2,2.194213867E-2
2.404937744E0,1.883239746E-1,5.342102051E-2,-7.888793945E-3
2.410003662E0,1.225585938E-1,6.300354004E-2,-3.025817871E-2
2.415069580E0,6.304931641E-2,6.193542480E-2,-4.304504395E-2
2.420135498E0,1.815795898E-2,4.063415527E-2,-5.690002441E-2
2.425170898E0,-4.806518555E-3,1.400756836E-2,-7.287597656E-2
2.430236816E0,-1.316833496E-2,-9.155273438E-4,-8.671569824E-2
2.435272216E0,-6.896972656E-3,-6.240844727E-3,-9.417724609E-2
2.440338134E0,2.546691895E-2,2.288818359E-3,-1.112213135E-1
2.445404052E0,7.870483398E-2,1.080322266E-2,-1.453094482E-1
2.450469970E0,1.465606689E-1,1.525878906E-4,-1.836547852E-1
2.455535888E0,1.977233887E-1,6.546020508E-3,-2.070922852E-1
2.460601806E0,2.290344238E-1,1.826477051E-2,-2.039031982E-1
2.465637207E0,2.206878662E-1,5.477905273E-3,-1.580963135E-1
2.470703125E0,3.486633301E-2,9.735107422E-3,-8.992004395E-2
2.475738525E0,-3.200836182E-1,5.477905273E-3,-1.453094482E-1
2.480804443E0,-5.236511230E-1,-1.681518555E-1,-1.644897461E-1
2.485839843E0,-6.551971436E-1,-3.183593750E-1,-1.793975830E-1
2.490905761E0,-7.011260986E-1,-3.354034424E-1,-2.592926025E-1
2.495971679E0,-6.906890869E-1,-2.874603271E-1,-3.722076416E-1
2.501037597E0,-6.698150635E-1,-2.544403076E-1,-4.787445068E-1
2.506072998E0,-6.165618896E-1,-2.491149902E-1,-5.756835938E-1
2.511138916E0,-5.153045654E-1,-2.619018555E-1,-6.662292480E-1
2.516174316E0,-4.004669189E-1,-3.322143555E-1,-7.397308350E-1
2.521240234E0,-2.835388184E-1,-3.663024902E-1,-8.079071045E-1
2.526306152E0,-1.634979248E-1,-3.375396729E-1,-9.005889893E-1
2.531372070E0,-4.029846191E-2,-2.693634033E-1,-9.985809326E-1
2.536437988E0,8.392333984E-2,-1.873321533E-1,-1.081680298E0
2.541503906E0,2.071075439E-1,-1.074371338E-1,-1.162643433E0
2.546539306E0,3.146362305E-1,-2.221679688E-2,-1.224426270E0
2.551605224E0,3.856353760E-1,5.128479004E-2,-1.253189087E0
2.556671142E0,4.326171875E-1,1.407623291E-1,-1.260635376E0
2.561737060E0,4.420013428E-1,2.036132812E-1,-1.232940674E0
2.566772461E0,3.772735596E-1,2.153320312E-1,-1.155181885E0
2.571838378E0,2.415618896E-1,1.780548096E-1,-1.032669067E0
2.576782226E0,7.348632812E-2,1.641998291E-1,-9.069824219E-1
2.581909179E0,-1.300811768E-1,1.450347900E-1,-8.132324219E-1
2.587005615E0,-3.305206299E-1,1.162719727E-1,-7.546386719E-1
2.592071533E0,-4.777221680E-1,1.152038574E-1,-7.184295654E-1
2.597106933E0,-5.654144287E-1,1.056213379E-1,-7.013854980E-1
2.602172851E0,-6.050872803E-1,1.120147705E-1,-6.790008545E-1
2.607238769E0,-6.301422119E-1,1.098785400E-1,-6.140289307E-1
2.612274169E0,-6.604156494E-1,1.439666748E-1,-5.213470459E-1
2.617340087E0,-6.802520752E-1,1.801910400E-1,-4.105682373E-1
2.622406005E0,-6.687622070E-1,2.132110596E-1,-2.347869873E-1
2.627471923E0,-6.082153320E-1,2.430419922E-1,6.561279297E-2
2.632537841E0,-5.769042969E-1,3.719329834E-1,3.020935059E-1
2.637603759E0,-5.320129395E-1,4.294586182E-1,4.150238037E-1
2.642639160E0,-1.781005859E-1,1.929626465E-1,7.963867188E-1
2.647674560E0,-1.154632568E-1,6.893768311E-1,1.143661499E0
2.652740478E0,-4.839935303E-1,1.236923218E0,1.155380249E0
2.657775878E0,-7.073974609E-1,1.131469727E0,1.042465210E0
2.662841796E0,-8.211822510E-1,8.001708984E-1,8.911895752E-1
2.667907714E0,-9.308013916E-1,3.634033203E-1,6.280670166E-1
2.672973632E0,-1.066513062E0,-5.844116211E-2,2.211456299E-1
2.678039550E0,-1.294097900E0,-1.969146729E-1,-2.901916504E-1
2.683105468E0,-1.520645142E0,-4.472503662E-1,-8.153686523E-1
2.688140869E0,-1.730468750E0,-9.063873291E-1,-1.287277222E0
2.693206787E0,-1.976852417E0,-1.361251831E0,-1.569564819E0
2.698272705E0,-2.118820190E0,-1.619049072E0,-1.653732300E0
2.703338623E0,-2.139709473E0,-1.604141235E0,-1.683547974E0
2.708374023E0,-2.080200195E0,-1.570037842E0,-1.812454224E0
2.713439941E0,-1.810852051E0,-1.622238159E0,-2.073440552E0
2.718475341E0,-1.403717041E0,-1.427307129E0,-2.436691284E0
2.723541259E0,-1.188659668E0,-1.114105225E0,-2.811660767E0
2.728607177E0,-8.660736084E-1,-9.394073486E-1,-3.080108643E0
2.733673095E0,-4.422302246E-1,-5.655059814E-1,-3.188766479E0
2.738708496E0,-8.833312988E-2,-1.564331055E-1,-3.097152710E0
2.743774414E0,1.235961914E-1,5.981445312E-2,-2.842559814E0
2.748840332E0,2.989807129E-1,3.772583008E-1,-2.595413208E0
2.753875732E0,4.503631592E-1,7.128143311E-1,-2.360000610E0
2.758941650E0,5.599670410E-1,9.865875244E-1,-2.120315552E0
2.764007568E0,6.100769043E-1,1.104827881E0,-1.869979858E0
2.769073486E0,5.986022949E-1,1.182601929E0,-1.616439819E0
2.774108886E0,5.724945068E-1,1.244384766E0,-1.397003174E0
2.779174804E0,5.223846436E-1,1.208160400E0,-1.177551270E0
2.784210205E0,4.493103027E-1,1.150634766E0,-9.858093262E-1
2.789276123E0,3.668365479E-1,1.112289429E0,-8.430633545E-1
2.794342041E0,2.927246094E-1,1.054763794E0,-7.173614502E-1
2.799407959E0,2.394714355E-1,9.972381592E-1,-6.054992676E-1
2.804443359E0,2.060699463E-1,9.439849854E-1,-5.053710938E-1
2.809509277E0,1.831054688E-1,8.864593506E-1,-4.116210938E-1
2.814575195E0,1.726684570E-1,8.236083984E-1,-3.114929199E-1
2.819641113E0,1.851959229E-1,7.724761963E-1,-2.358551025E-1
2.824707031E0,2.227783203E-1,7.351837158E-1,-1.932525635E-1
2.829742431E0,2.645263672E-1,6.968383789E-1,-1.602172852E-1
2.834808349E0,2.937622070E-1,6.457061768E-1,-1.325225830E-1
2.839843750E0,3.052520752E-1,5.881805420E-1,-1.144256592E-1
2.844879150E0,3.052520752E-1,5.871124268E-1,-9.631347656E-2
2.849945068E0,2.927246094E-1,6.073608398E-1,-9.098815918E-2
2.855010986E0,3.115081787E-1,5.018920898E-1,-1.154785156E-1
2.860076904E0,3.198547363E-1,4.614105225E-1,-1.421203613E-1
2.865142822E0,3.083801270E-1,4.976348877E-1,-1.804656982E-1
2.870208740E0,2.979431152E-1,5.572814941E-1,-2.156219482E-1
2.875244140E0,3.459625244E-1,6.915130615E-1,-3.200073242E-1
2.880310058E0,2.739257812E-1,2.856445312E-1,-1.399841309E-1
2.885375976E0,1.486511230E-1,-7.441711426E-2,9.756469727E-2
2.890441894E0,1.455230713E-1,-8.399963379E-2,1.455078125E-1
2.895477294E0,2.071075439E-1,-1.425933838E-1,1.881103516E-1
2.900543212E0,2.655792236E-1,-1.564331055E-1,2.648162842E-1
2.905609130E0,3.250885010E-1,-1.415252686E-1,3.574981689E-1
2.910675048E0,3.668365479E-1,-1.543121338E-1,4.618835449E-1
2.915710449E0,4.033813477E-1,-1.468505859E-1,5.748138428E-1
2.920745849E0,4.253082275E-1,-1.074371338E-1,6.728057861E-1
2.925811767E0,4.232177734E-1,-3.926086426E-2,7.164916992E-1
2.930877685E0,3.198547363E-1,3.744506836E-2,5.598907471E-1
2.935943603E0,1.497039795E-1,9.815979004E-2,1.827850342E-1
2.941009521E0,9.019470215E-2,1.535491943E-1,-6.008911133E-2
2.946075439E0,1.549224854E-1,2.057495117E-1,-6.861877441E-2
2.951110839E0,2.488708496E-1,3.069458008E-1,1.341247559E-2
2.956176757E0,3.135986328E-1,3.687286377E-1,8.905029297E-2
2.961212158E0,3.177795410E-1,3.154754639E-1,1.284637451E-1
2.966278076E0,2.791442871E-1,1.993560791E-1,1.167449951E-1
2.971343994E0,2.300872803E-1,5.235290527E-2,1.873779297E-2
2.976409912E0,2.196350098E-1,-4.991149902E-2,-1.165466309E-1
2.981475830E0,2.342529297E-1,-9.358215332E-2,-1.623535156E-1
2.986511230E0,2.488708496E-1,-9.039306641E-2,-1.506347656E-1
2.991577148E0,2.645263672E-1,-6.481933594E-2,-1.538391113E-1
2.996643066E0,2.760162354E-1,-4.351806641E-2,-1.548919678E-1
3.001678466E0,2.854156494E-1,-3.393554688E-2,-1.580963135E-1
3.006744384E0,2.968902588E-1,-2.435302734E-2,-1.634216309E-1
3.011810302E0,3.000335693E-1,-2.221679688E-2,-1.719360352E-1
3.016845703E0,3.010711670E-1,-3.073120117E-2,-1.762084961E-1
3.021911621E0,2.958526611E-1,-4.032897949E-2,-1.826019287E-1
3.026977539E0,2.875061035E-1,-4.672241211E-2,-1.857910156E-1
3.032043457E0,2.822723389E-1,-5.416870117E-2,-1.911163330E-1
3.037109375E0,2.749786377E-1,-5.844116211E-2,-1.932525635E-1
3.042144775E0,2.676696777E-1,-6.269836426E-2,-1.953735352E-1
3.047180175E0,2.634887695E-1,-6.376647949E-2,-1.921844482E-1
3.052246093E0,2.645263672E-1,-6.481933594E-2,-1.868591309E-1
3.057312011E0,2.666168213E-1,-6.269836426E-2,-1.783294678E-1
3.062347412E0,2.718353271E-1,-5.949401855E-2,-1.676788330E-1
3.067413330E0,2.812347412E-1,-5.311584473E-2,-1.559600830E-1
3.072479248E0,2.916717529E-1,-4.351806641E-2,-1.421203613E-1
3.077545166E0,3.000335693E-1,-3.073120117E-2,-1.261291504E-1
3.082611084E0,3.031616211E-1,-1.902770996E-2,-1.122894287E-1
3.087677002E0,3.052520752E-1,-6.240844727E-3,-9.738159180E-2
3.092712402E0,3.083801270E-1,9.735107422E-3,-8.459472656E-2
3.097747802E0,3.104705811E-1,2.998352051E-2,-7.180786133E-2
3.102813720E0,3.062896729E-1,5.235290527E-2,-6.434631348E-2
3.107879638E0,3.073272705E-1,7.579040527E-2,-6.222534180E-2
3.112945556E0,3.010711670E-1,9.922790527E-2,-6.115722656E-2
3.117980957E0,2.968902588E-1,1.215972900E-1,-6.222534180E-2
3.123046875E0,2.895812988E-1,1.386413574E-1,-6.008911133E-2
3.128112793E0,2.812347412E-1,1.503601074E-1,-5.795288086E-2
3.133178711E0,2.739257812E-1,1.631469727E-1,-5.476379395E-2
3.138214111E0,2.655792236E-1,1.727294922E-1,-5.157470703E-2
3.143280029E0,2.551422119E-1,1.791229248E-1,-4.197692871E-2
3.148345947E0,2.467803955E-1,1.855163574E-1,-3.453063965E-2
3.153411865E0,2.363433838E-1,1.940307617E-1,-3.025817871E-2
3.158447265E0,2.279968262E-1,1.972351074E-1,-2.174377441E-2
3.163513183E0,2.238159180E-1,1.993560791E-1,-1.535034180E-2
3.168579101E0,2.165069580E-1,2.068176270E-1,-1.109313965E-2
3.173614502E0,2.217254639E-1,2.121429443E-1,-4.699707031E-3
3.178680419E0,2.238159180E-1,2.164001465E-1,7.019042969E-3
3.183715820E0,2.332153320E-1,2.430419922E-1,1.873779297E-2
3.188781738E0,2.426147461E-1,2.707366943E-1,4.898071289E-3
3.193847656E0,2.499237061E-1,2.803192139E-1,-5.767822266E-3
3.198883056E0,2.551422119E-1,2.931060791E-1,-1.214599609E-2
3.203948974E0,2.603607178E-1,3.112182617E-1,-2.067565918E-2
3.209014892E0,2.666168213E-1,3.261260986E-1,-2.919006348E-2
3.214080810E0,2.728881836E-1,3.389129639E-1,-3.878784180E-2
3.219146728E0,2.791442871E-1,3.602142334E-1,-4.623413086E-2
3.224182128E0,2.843627930E-1,3.815155029E-1,-5.262756348E-2
3.229248046E0,2.864532471E-1,4.017639160E-1,-5.476379395E-2
3.234283447E0,2.885437012E-1,4.294586182E-1,-5.476379395E-2
3.239349365E0,2.843627930E-1,4.571533203E-1,-5.476379395E-2
3.244415283E0,2.791442871E-1,4.805908203E-1,-5.262756348E-2
3.249481201E0,2.749786377E-1,5.008239746E-1,-4.943847656E-2
3.254516601E0,2.707977295E-1,5.136108398E-1,-4.090881348E-2
3.259582519E0,2.718353271E-1,5.210723877E-1,-3.558349609E-2
3.264648437E0,2.697448730E-1,5.221405029E-1,-2.386474609E-2
3.269714355E0,2.697448730E-1,5.306549072E-1,-6.820678711E-3
3.274749755E0,2.728881836E-1,5.306549072E-1,7.019042969E-3
3.279815673E0,2.760162354E-1,5.157470703E-1,-2.563476562E-3
3.284851074E0,2.770538330E-1,4.869842529E-1,-4.699707031E-3
3.289916992E0,2.749786377E-1,4.635467529E-1,2.761840820E-3
3.294982910E0,2.728881836E-1,4.496917725E-1,1.693725586E-3
3.300048828E0,2.749786377E-1,4.337158203E-1,2.761840820E-3
3.305084228E0,2.739257812E-1,4.145355225E-1,5.950927734E-3
3.310150146E0,2.697448730E-1,3.964385986E-1,5.950927734E-3
3.315185546E0,2.666168213E-1,3.932342529E-1,2.299499512E-2
3.320251464E0,2.666168213E-1,3.847198486E-1,1.127624512E-2
3.325317382E0,2.655792236E-1,3.591461182E-1,-1.853942871E-2
3.330383300E0,2.582702637E-1,3.378448486E-1,-2.706909180E-2
3.335449218E0,2.530517578E-1,3.282623291E-1,-2.813720703E-2
3.340515136E0,2.488708496E-1,3.282623291E-1,-3.558349609E-2
3.345550537E0,2.436523438E-1,3.261260986E-1,-4.090881348E-2
3.350616455E0,2.353057861E-1,3.239898682E-1,-4.518127441E-2
3.355682373E0,2.269439697E-1,3.218688965E-1,-5.050659180E-2
3.360717773E0,2.227783203E-1,3.261260986E-1,-4.837036133E-2
3.365783691E0,2.185974121E-1,3.271942139E-1,-5.157470703E-2
3.370849609E0,2.144165039E-1,3.218688965E-1,-5.157470703E-2
3.375885009E0,2.112884521E-1,3.208007812E-1,-5.050659180E-2
3.380950927E0,2.091979980E-1,3.133392334E-1,-4.837036133E-2
3.386016845E0,2.008514404E-1,3.026885986E-1,-4.623413086E-2
3.391082763E0,1.851959229E-1,2.792510986E-1,-5.476379395E-2
3.396118164E0,1.851959229E-1,2.728576660E-1,-4.623413086E-2
3.401184082E0,1.904144287E-1,2.611389160E-1,-3.346252441E-2
3.406250000E0,1.831054688E-1,2.387695312E-1,-3.132629395E-2
3.411285400E0,1.768341064E-1,2.164001465E-1,-2.706909180E-2
3.416351318E0,1.757965088E-1,1.993560791E-1,-2.281188965E-2
3.421417236E0,1.757965088E-1,1.769866943E-1,-2.281188965E-2
3.426483154E0,1.768341064E-1,1.716613770E-1,-1.853942871E-2
3.431549072E0,1.778869629E-1,1.865692139E-1,7.019042969E-3
3.436614990E0,1.737060547E-1,1.599426270E-1,-2.563476562E-3
3.441680908E0,1.622314453E-1,1.130676270E-1,-3.771972656E-2
3.446716308E0,1.486511230E-1,9.495544434E-2,-6.115722656E-2
3.451751709E0,1.528320312E-1,8.111572266E-2,-6.755065918E-2
3.456817627E0,1.444702148E-1,7.153320312E-2,-8.032226562E-2
3.461853027E0,1.434326172E-1,3.956604004E-2,-6.115722656E-2
3.466918945E0,1.392517090E-1,-3.036499023E-3,-5.583190918E-2
3.471984863E0,1.350860596E-1,-1.475524902E-2,-6.222534180E-2
3.477050781E0,1.267242432E-1,-2.967834473E-2,-6.541442871E-2
3.482116699E0,1.183776855E-1,-4.991149902E-2,-6.648254395E-2
3.487152099E0,1.068878174E-1,-7.015991211E-2,-6.541442871E-2
3.492218017E0,9.332275391E-2,-8.932495117E-2,-6.222534180E-2
3.497283935E0,8.288574219E-2,-1.042480469E-1,-5.583190918E-2
3.502349853E0,6.930541992E-2,-1.063690186E-1,-3.132629395E-2
3.507385253E0,5.783081055E-2,-1.138305664E-1,-2.600097656E-2
3.512451171E0,4.425048828E-2,-1.404571533E-1,-4.623413086E-2
3.517517089E0,3.381347656E-2,-1.745452881E-1,-5.262756348E-2
3.522583007E0,2.233886719E-2,-1.937255859E-1,-4.304504395E-2
3.527618408E0,1.084899902E-2,-2.001190186E-1,-3.771972656E-2
3.532684326E0,4.592895508E-3,-2.054443359E-1,-3.132629395E-2
3.537750244E0,4.119873047E-4,-2.075653076E-1,-2.386474609E-2
3.542785644E0,-2.716064453E-3,-2.054443359E-1,-1.748657227E-2
3.547851562E0,-2.716064453E-3,-1.969146729E-1,-1.214599609E-2
3.552886962E0,-2.716064453E-3,-1.851959229E-1,-7.888793945E-3
3.557952880E0,-2.716064453E-3,-1.724243164E-1,3.829956055E-3
3.563018798E0,-4.806518555E-3,-1.457824707E-1,2.513122559E-2
3.568084716E0,-1.678466797E-3,-1.308746338E-1,8.087158203E-3
3.573120117E0,2.502441406E-3,-1.276702881E-1,-3.631591797E-3
3.578155517E0,4.592895508E-3,-1.159667969E-1,4.898071289E-3
3.583221435E0,6.668090820E-3,-9.358215332E-2,8.087158203E-3
3.588287353E0,1.084899902E-2,-6.802368164E-2,1.127624512E-2
3.593353271E0,1.502990723E-2,-4.139709473E-2,1.766967773E-2
3.598419189E0,1.502990723E-2,-1.902770996E-2,1.980590820E-2
3.603454589E0,1.502990723E-2,9.735107422E-3,1.980590820E-2
3.608520507E0,1.397705078E-2,3.744506836E-2,1.980590820E-2
3.613586425E0,1.397705078E-2,6.086730957E-2,1.766967773E-2
3.618652343E0,1.606750488E-2,8.218383789E-2,1.661682129E-2
3.623718261E0,1.606750488E-2,1.034851074E-1,1.341247559E-2
3.628753662E0,1.815795898E-2,1.258544922E-1,8.087158203E-3
3.633819580E0,1.919555664E-2,1.428985596E-1,4.898071289E-3
3.638854980E0,2.128601074E-2,1.567535400E-1,6.256103516E-4
3.643920898E0,2.337646484E-2,1.727294922E-1,6.256103516E-4
3.648986816E0,2.337646484E-2,1.833801270E-1,-1.495361328E-3
3.654052734E0,2.337646484E-2,1.897735596E-1,-4.425048828E-4
3.659088134E0,2.233886719E-2,1.961669922E-1,2.761840820E-3
3.664154052E0,1.919555664E-2,1.961669922E-1,7.019042969E-3
3.669189453E0,1.502990723E-2,1.929626465E-1,1.127624512E-2
3.674255371E0,1.293945312E-2,1.961669922E-1,1.980590820E-2
3.679321289E0,1.293945312E-2,1.940307617E-1,2.406311035E-2
3.684387207E0,6.668090820E-3,1.876373291E-1,3.152465820E-2
3.689453125E0,1.449584961E-3,1.887054443E-1,3.898620605E-2
3.694519043E0,-1.678466797E-3,1.865692139E-1,4.324340820E-2
3.699554443E0,-4.806518555E-3,1.833801270E-1,4.963684082E-2
3.704620361E0,-7.934570312E-3,1.791229248E-1,5.389404297E-2
3.709686279E0,-1.211547852E-2,1.759185791E-1,5.603027344E-2
3.714721679E0,-1.211547852E-2,1.695251465E-1,6.135559082E-2
3.719757080E0,-1.002502441E-2,1.610107422E-1,6.347656250E-2
3.724822998E0,-1.211547852E-2,1.503601074E-1,6.347656250E-2
3.729888916E0,-1.316833496E-2,1.428985596E-1,6.561279297E-2
3.734954834E0,-1.629638672E-2,1.247863770E-1,6.668090820E-2
3.740020752E0,-1.211547852E-2,1.098785400E-1,7.945251465E-2
3.745056152E0,-1.316833496E-2,9.922790527E-2,7.626342773E-2
3.750122070E0,-1.942443848E-2,8.004760742E-2,6.347656250E-2
3.755187988E0,-2.360534668E-2,6.300354004E-2,6.135559082E-2
3.760223388E0,-2.882385254E-2,4.702758789E-2,5.815124512E-2
3.765289306E0,-3.091430664E-2,2.891540527E-2,5.708312988E-2
3.770355224E0,-3.507995605E-2,1.187133789E-2,5.496215820E-2
3.775421142E0,-3.926086426E-2,-6.240844727E-3,5.815124512E-2
3.780456543E0,-4.135131836E-2,-2.328491211E-2,5.708312988E-2
3.785522461E0,-4.656982422E-2,-4.032897949E-2,5.921936035E-2
3.790588378E0,-4.760742188E-2,-5.630493164E-2,5.921936035E-2
3.795623779E0,-5.075073242E-2,-7.121276855E-2,5.815124512E-2
3.800689697E0,-5.178833008E-2,-8.186340332E-2,6.240844727E-2
3.805755615E0,-4.969787598E-2,-9.039306641E-2,6.347656250E-2
3.810821533E0,-5.491638184E-2,-9.785461426E-2,6.240844727E-2
3.815856933E0,-5.700683594E-2,-1.085052490E-1,6.240844727E-2
3.820892334E0,-5.596923828E-2,-1.191558838E-1,6.135559082E-2
3.825958252E0,-5.700683594E-2,-1.255493164E-1,6.135559082E-2
3.831024169E0,-5.700683594E-2,-1.298065186E-1,6.135559082E-2
3.836090087E0,-6.013488770E-2,-1.266174316E-1,5.815124512E-2
3.841156005E0,-6.431579590E-2,-1.223449707E-1,5.389404297E-2
3.846221923E0,-6.535339355E-2,-1.148986816E-1,5.175781250E-2
3.851257324E0,-6.744384766E-2,-1.053009033E-1,4.750061035E-2
3.856323242E0,-6.535339355E-2,-9.785461426E-2,4.217529297E-2
3.861389160E0,-5.909729004E-2,-8.720397949E-2,3.791809082E-2
3.866455078E0,-5.387878418E-2,-7.760620117E-2,3.578186035E-2
3.871490478E0,-4.866027832E-2,-7.228088379E-2,3.684997559E-2
3.876556396E0,-4.238891602E-2,-6.695556641E-2,3.898620605E-2
3.881591796E0,-3.822326660E-2,-6.269836426E-2,4.110717773E-2
3.886657714E0,-3.298950195E-2,-5.630493164E-2,4.324340820E-2
3.891723632E0,-3.195190430E-2,-5.523681641E-2,4.536437988E-2
3.896759033E0,-3.091430664E-2,-5.844116211E-2,4.431152344E-2
3.901824951E0,-3.195190430E-2,-6.163024902E-2,4.324340820E-2
3.906890869E0,-3.507995605E-2,-6.269836426E-2,4.536437988E-2
3.911956787E0,-3.404235840E-2,-6.163024902E-2,4.963684082E-2
3.917022705E0,-3.507995605E-2,-5.523681641E-2,5.070495605E-2
3.922058105E0,-3.507995605E-2,-4.672241211E-2,4.856872559E-2
3.927093505E0,-3.507995605E-2,-3.819274902E-2,5.070495605E-2
3.932159423E0,-3.613281250E-2,-3.179931641E-2,5.175781250E-2
3.937194824E0,-3.717041016E-2,-2.221679688E-2,5.070495605E-2
3.942260742E0,-3.717041016E-2,-1.049804688E-2,4.750061035E-2
3.947326660E0,-3.717041016E-2,-4.104614258E-3,4.431152344E-2
3.952392578E0,-3.507995605E-2,2.288818359E-3,4.324340820E-2
3.957458496E0,-2.986145020E-2,7.614135742E-3,4.003906250E-2
3.962524414E0,-3.091430664E-2,7.614135742E-3,4.003906250E-2
3.967590332E0,-3.298950195E-2,7.614135742E-3,3.578186035E-2
3.972656250E0,-3.404235840E-2,5.477905273E-3,3.366088867E-2
3.977691650E0,-3.717041016E-2,4.409790039E-3,3.259277344E-2
3.982757568E0,-4.135131836E-2,-9.155273438E-4,3.045654297E-2
3.987823486E0,-4.344177246E-2,-9.429931641E-3,2.513122559E-2
3.992858886E0,-4.656982422E-2,-1.795959473E-2,2.619934082E-2
3.997924804E0,-4.656982422E-2,-2.861022949E-2,2.513122559E-2
4.002990722E0,-4.760742188E-2,-3.926086426E-2,2.406311035E-2
4.008056640E0,-4.551696777E-2,-4.991149902E-2,2.299499512E-2
4.013092041E0,-4.656982422E-2,-6.056213379E-2,2.194213867E-2
4.018127441E0,-5.178833008E-2,-7.334899902E-2,1.980590820E-2
4.023193359E0,-5.804443359E-2,-8.186340332E-2,1.980590820E-2
4.028259277E0,-5.909729004E-2,-9.146118164E-2,2.299499512E-2
4.033325195E0,-5.909729004E-2,-9.785461426E-2,2.087402344E-2
4.038391113E0,-5.700683594E-2,-1.063690186E-1,2.087402344E-2
4.043426513E0,-5.700683594E-2,-1.106262207E-1,1.980590820E-2
4.048492431E0,-5.387878418E-2,-1.148986816E-1,1.980590820E-2
4.053527832E0,-4.656982422E-2,-1.170196533E-1,1.766967773E-2
4.058593750E0,-4.135131836E-2,-1.180877686E-1,1.448059082E-2
4.063659668E0,-3.717041016E-2,-1.191558838E-1,8.087158203E-3
4.068695068E0,-3.404235840E-2,-1.202239990E-1,1.693725586E-3
4.073760986E0,-2.986145020E-2,-1.202239990E-1,-2.563476562E-3
4.078826904E0,-2.882385254E-2,-1.212921143E-1,-6.820678711E-3
4.083862304E0,-2.777099609E-2,-1.266174316E-1,-1.109313965E-2
4.088928222E0,-2.777099609E-2,-1.255493164E-1,-1.428222656E-2
4.093994140E0,-2.986145020E-2,-1.298065186E-1,-1.641845703E-2
4.099060058E0,-3.507995605E-2,-1.383361816E-1,-1.748657227E-2
4.104125976E0,-4.029846191E-2,-1.447143555E-1,-1.853942871E-2
4.109191894E0,-4.447937012E-2,-1.489868164E-1,-1.853942871E-2
4.114227294E0,-4.447937012E-2,-1.553802490E-1,-1.853942871E-2
4.119262695E0,-4.551696777E-2,-1.596374512E-1,-1.535034180E-2
4.124328613E0,-4.344177246E-2,-1.628265381E-1,-1.748657227E-2
4.129394531E0,-3.926086426E-2,-1.649627686E-1,-1.641845703E-2
4.134460449E0,-3.822326660E-2,-1.628265381E-1,-1.321411133E-2
4.139526367E0,-3.507995605E-2,-1.649627686E-1,-1.002502441E-2
4.144592285E0,-3.091430664E-2,-1.670989990E-1,-8.956909180E-3
4.149627685E0,-2.255249023E-2,-1.617584229E-1,-5.767822266E-3
4.154663086E0,-1.838684082E-2,-1.575012207E-1,-3.631591797E-3
4.159729003E0,-1.524353027E-2,-1.500549316E-1,-5.767822266E-3
4.164794921E0,4.119873047E-4,-1.212921143E-1,-1.321411133E-2
4.169860839E0,4.119873047E-4,-1.212921143E-1,-5.767822266E-3
4.174896240E0,-1.524353027E-2,-1.447143555E-1,2.761840820E-3
4.179962158E0,-1.524353027E-2,-1.298065186E-1,-1.495361328E-3
4.185028076E0,-1.316833496E-2,-1.116943359E-1,-1.109313965E-2
4.190093994E0,-1.316833496E-2,-1.031799316E-1,-1.641845703E-2
4.195129394E0,-1.524353027E-2,-9.465026855E-2,-1.853942871E-2
4.200195312E0,-1.942443848E-2,-8.932495117E-2,-2.281188965E-2
4.205261230E0,-2.360534668E-2,-7.974243164E-2,-2.600097656E-2
4.210327148E0,-2.360534668E-2,-7.228088379E-2,-2.493286133E-2
4.215362548E0,-2.569580078E-2,-7.015991211E-2,-2.281188965E-2
4.220428466E0,-3.091430664E-2,-6.376647949E-2,-2.067565918E-2
4.225463867E0,-3.298950195E-2,-6.056213379E-2,-1.321411133E-2
4.230529785E0,-3.091430664E-2,-5.844116211E-2,-1.109313965E-2
4.235595703E0,-2.986145020E-2,-5.630493164E-2,-5.767822266E-3
4.240661621E0,-2.882385254E-2,-5.311584473E-2,1.693725586E-3
4.245727539E0,-2.777099609E-2,-5.204772949E-2,3.829956055E-3
4.250762939E0,-2.464294434E-2,-4.458618164E-2,3.829956055E-3
4.255828857E0,-2.255249023E-2,-4.139709473E-2,4.898071289E-3
4.260894775E0,-1.733398438E-2,-3.607177734E-2,4.898071289E-3
4.265960693E0,-1.524353027E-2,-2.647399902E-2,5.950927734E-3
4.271026611E0,-1.211547852E-2,-2.114868164E-2,7.019042969E-3
4.276062011E0,-1.107788086E-2,-1.689147949E-2,5.950927734E-3
4.281097412E0,-7.934570312E-3,-8.361816406E-3,7.019042969E-3
4.286163330E0,-5.859375000E-3,1.525878906E-4,9.155273438E-3
4.291229248E0,-8.987426758E-3,6.546020508E-3,7.019042969E-3
4.296264648E0,-1.211547852E-2,1.400756836E-2,7.019042969E-3
4.301330566E0,-1.420593262E-2,2.040100098E-2,8.087158203E-3
4.306396484E0,-1.420593262E-2,2.145385742E-2,5.950927734E-3
4.311462402E0,-1.524353027E-2,2.465820312E-2,8.087158203E-3
4.316528320E0,-1.733398438E-2,2.998352051E-2,5.950927734E-3
4.321594238E0,-2.151489258E-2,3.105163574E-2,7.019042969E-3
4.326629638E0,-2.464294434E-2,2.891540527E-2,1.022338867E-2
4.331695556E0,-2.569580078E-2,2.891540527E-2,8.087158203E-3
4.336730957E0,-2.673339844E-2,2.891540527E-2,7.019042969E-3
4.341796875E0,-2.673339844E-2,3.211975098E-2,8.087158203E-3
4.346862793E0,-2.777099609E-2,3.105163574E-2,1.022338867E-2
4.351898193E0,-2.882385254E-2,2.998352051E-2,9.155273438E-3
4.356964111E0,-2.882385254E-2,3.317260742E-2,1.234436035E-2
4.362030029E0,-3.298950195E-2,3.530883789E-2,1.127624512E-2
4.367095947E0,-3.091430664E-2,3.637695312E-2,1.022338867E-2
4.372131347E0,-3.195190430E-2,3.956604004E-2,1.448059082E-2
4.377197265E0,-3.298950195E-2,4.277038574E-2,1.554870605E-2
4.382263183E0,-3.507995605E-2,4.916381836E-2,1.234436035E-2
4.387298584E0,-3.613281250E-2,5.874633789E-2,1.127624512E-2
4.392364502E0,-3.507995605E-2,6.620788574E-2,1.127624512E-2
4.397399902E0,-3.613281250E-2,7.472229004E-2,5.950927734E-3
4.402465820E0,-3.404235840E-2,8.218383789E-2,4.898071289E-3
4.407531738E0,-3.195190430E-2,8.750915527E-2,1.693725586E-3
4.412597656E0,-3.091430664E-2,9.390258789E-2,6.256103516E-4
4.417663574E0,-3.091430664E-2,1.013488770E-1,-1.495361328E-3
4.422729492E0,-2.882385254E-2,1.056213379E-1,-2.563476562E-3
4.427764892E0,-2.464294434E-2,1.077423096E-1,-3.631591797E-3
4.432830810E0,-1.838684082E-2,1.120147705E-1,-5.767822266E-3
4.437896728E0,-1.942443848E-2,1.152038574E-1,-5.767822266E-3
4.442932128E0,-1.838684082E-2,1.205291748E-1,-6.820678711E-3
4.447998046E0,-1.838684082E-2,1.247863770E-1,-1.109313965E-2
4.453063964E0,-2.151489258E-2,1.247863770E-1,-8.956909180E-3
4.458099365E0,-2.255249023E-2,1.247863770E-1,-8.956909180E-3
4.463134765E0,-2.464294434E-2,1.279907227E-1,-8.956909180E-3
4.468200683E0,-2.882385254E-2,1.301116943E-1,-1.109313965E-2
4.473266601E0,-3.195190430E-2,1.301116943E-1,-8.956909180E-3
4.478332519E0,-3.298950195E-2,1.322479248E-1,-7.888793945E-3
4.483398437E0,-3.507995605E-2,1.354370117E-1,-5.767822266E-3
4.488464355E0,-3.404235840E-2,1.375732422E-1,-4.699707031E-3
4.493530273E0,-3.091430664E-2,1.397094727E-1,-3.631591797E-3
4.498565673E0,-2.986145020E-2,1.407623291E-1,-2.563476562E-3
4.503631591E0,-2.986145020E-2,1.397094727E-1,-6.820678711E-3
4.508697509E0,-2.777099609E-2,1.407623291E-1,-5.767822266E-3
4.513732910E0,-2.777099609E-2,1.418304443E-1,-8.956909180E-3
4.518768310E0,-2.882385254E-2,1.450347900E-1,-8.956909180E-3
4.523834228E0,-2.777099609E-2,1.439666748E-1,-8.956909180E-3
4.528900146E0,-2.569580078E-2,1.439666748E-1,-8.956909180E-3
4.533966064E0,-2.673339844E-2,1.482238770E-1,-8.956909180E-3
4.539031982E0,-2.777099609E-2,1.492919922E-1,-1.002502441E-2
4.544067382E0,-2.882385254E-2,1.524810791E-1,-8.956909180E-3
4.549133300E0,-2.673339844E-2,1.546173096E-1,-1.109313965E-2
4.554199218E0,-2.882385254E-2,1.567535400E-1,-1.321411133E-2
4.559234619E0,-2.464294434E-2,1.631469727E-1,-1.321411133E-2
4.564270019E0,-2.673339844E-2,1.652679443E-1,-1.641845703E-2
4.569335937E0,-2.986145020E-2,1.684722900E-1,-1.748657227E-2
4.574401855E0,-2.777099609E-2,1.674041748E-1,-1.748657227E-2
4.579467773E0,-2.673339844E-2,1.663360596E-1,-1.960754395E-2
4.584533691E0,-2.882385254E-2,1.641998291E-1,-2.067565918E-2
4.589599609E0,-2.673339844E-2,1.641998291E-1,-1.748657227E-2
4.594635009E0,-3.091430664E-2,1.641998291E-1,-1.428222656E-2
4.599700927E0,-3.195190430E-2,1.631469727E-1,-1.214599609E-2
4.604766845E0,-2.986145020E-2,1.641998291E-1,-1.428222656E-2
4.609802246E0,-3.195190430E-2,1.641998291E-1,-1.109313965E-2
4.614868164E0,-3.195190430E-2,1.588745117E-1,-1.321411133E-2
4.619934082E0,-3.091430664E-2,1.588745117E-1,-1.109313965E-2
4.625000000E0,-3.298950195E-2,1.567535400E-1,-1.321411133E-2
4.630035400E0,-3.613281250E-2,1.514282227E-1,-1.641845703E-2
4.635101318E0,-3.404235840E-2,1.418304443E-1,-1.535034180E-2
4.640167236E0,-3.717041016E-2,1.311798096E-1,-1.214599609E-2
4.645233154E0,-3.822326660E-2,1.258544922E-1,-1.428222656E-2
4.650268554E0,-3.926086426E-2,1.205291748E-1,-8.956909180E-3
4.655334472E0,-4.029846191E-2,1.141357422E-1,-3.631591797E-3
4.660400390E0,-4.029846191E-2,1.066741943E-1,-4.699707031E-3
4.665466308E0,-4.447937012E-2,1.013488770E-1,-2.563476562E-3
4.670532226E0,-4.447937012E-2,9.390258789E-2,-2.563476562E-3
4.675567627E0,-4.447937012E-2,9.069824219E-2,-2.563476562E-3
4.680633544E0,-4.344177246E-2,8.430480957E-2,-4.699707031E-3
4.685668945E0,-4.866027832E-2,7.897949219E-2,-3.631591797E-3
4.690734863E0,-5.075073242E-2,7.472229004E-2,-4.699707031E-3
4.695800781E0,-4.969787598E-2,6.726074219E-2,-6.820678711E-3
4.700836181E0,-4.760742188E-2,6.086730957E-2,-5.767822266E-3
4.705871582E0,-4.656982422E-2,5.342102051E-2,-3.631591797E-3
4.710937500E0,-4.447937012E-2,4.702758789E-2,-5.767822266E-3
4.716003418E0,-4.238891602E-2,4.063415527E-2,-3.631591797E-3
4.721130371E0,-4.029846191E-2,3.105163574E-2,-6.820678711E-3
4.726135253E0,-3.717041016E-2,2.359008789E-2,-1.002502441E-2
4.731170654E0,-3.613281250E-2,1.719665527E-2,-1.109313965E-2
4.736206054E0,-3.298950195E-2,1.187133789E-2,-1.535034180E-2
4.741241455E0,-3.195190430E-2,4.409790039E-3,-1.641845703E-2
4.746307373E0,-3.091430664E-2,-5.172729492E-3,-1.535034180E-2
4.751373291E0,-3.091430664E-2,-1.263427734E-2,-1.321411133E-2
4.756439209E0,-3.091430664E-2,-1.902770996E-2,-1.535034180E-2
4.761505127E0,-3.195190430E-2,-2.861022949E-2,-1.002502441E-2
4.766571044E0,-2.882385254E-2,-3.500366211E-2,-8.956909180E-3
4.771606445E0,-2.986145020E-2,-3.500366211E-2,-1.002502441E-2
4.776672363E0,-3.404235840E-2,-4.032897949E-2,-8.956909180E-3
4.781738281E0,-3.195190430E-2,-4.032897949E-2,-1.002502441E-2
4.786804199E0,-2.986145020E-2,-4.351806641E-2,-1.535034180E-2
4.791839599E0,-2.986145020E-2,-4.777526855E-2,-1.641845703E-2
4.796905517E0,-2.673339844E-2,-5.097961426E-2,-1.853942871E-2
4.801971435E0,-2.464294434E-2,-5.416870117E-2,-1.960754395E-2
4.807037353E0,-2.569580078E-2,-5.844116211E-2,-1.960754395E-2
4.812072753E0,-2.673339844E-2,-6.376647949E-2,-2.067565918E-2
4.817108154E0,-2.464294434E-2,-6.909179688E-2,-2.281188965E-2
4.822174072E0,-2.046203613E-2,-7.653808594E-2,-2.281188965E-2
4.827209472E0,-2.151489258E-2,-8.293151855E-2,-2.493286133E-2
4.832275390E0,-1.838684082E-2,-8.720397949E-2,-2.281188965E-2
4.837341308E0,-1.838684082E-2,-8.932495117E-2,-2.174377441E-2
4.842437744E0,-1.838684082E-2,-1.010437012E-1,-2.600097656E-2
4.847503662E0,-1.733398438E-2,-1.085052490E-1,-2.600097656E-2
4.852569580E0,-1.942443848E-2,-1.159667969E-1,-2.493286133E-2
4.857604980E0,-2.046203613E-2,-1.223449707E-1,-2.919006348E-2
4.862670898E0,-1.838684082E-2,-1.255493164E-1,-3.025817871E-2
4.867706298E0,-1.942443848E-2,-1.255493164E-1,-2.919006348E-2
4.872772216E0,-2.569580078E-2,-1.266174316E-1,-3.025817871E-2
4.877838134E0,-2.360534668E-2,-1.223449707E-1,-3.132629395E-2
4.882873535E0,-2.569580078E-2,-1.223449707E-1,-3.025817871E-2
4.887939453E0,-2.777099609E-2,-1.191558838E-1,-2.813720703E-2
4.893005371E0,-2.986145020E-2,-1.170196533E-1,-2.706909180E-2
4.898071289E0,-3.091430664E-2,-1.159667969E-1,-2.281188965E-2
4.903106689E0,-2.777099609E-2,-1.085052490E-1,-1.748657227E-2
4.908172607E0,-2.569580078E-2,-1.053009033E-1,-1.535034180E-2
4.913208007E0,-2.360534668E-2,-1.031799316E-1,-1.535034180E-2
4.918273925E0,-2.255249023E-2,-1.021118164E-1,-1.002502441E-2
4.923339843E0,-2.569580078E-2,-1.053009033E-1,-7.888793945E-3
4.928405761E0,-2.569580078E-2,-1.063690186E-1,-5.767822266E-3
4.933471679E0,-2.569580078E-2,-1.085052490E-1,-3.631591797E-3
4.938537597E0,-2.360534668E-2,-1.127624512E-1,-3.631591797E-3
4.943603515E0,-2.151489258E-2,-1.138305664E-1,-1.495361328E-3
4.948638916E0,-2.151489258E-2,-1.180877686E-1,-3.631591797E-3
4.953674316E0,-2.151489258E-2,-1.180877686E-1,-4.425048828E-4
4.958740234E0,-2.046203613E-2,-1.180877686E-1,6.256103516E-4
4.963806152E0,-1.629638672E-2,-1.191558838E-1,-2.563476562E-3
4.968872070E0,-1.107788086E-2,-1.148986816E-1,-2.563476562E-3
4.973907470E0,-4.806518555E-3,-1.116943359E-1,-6.820678711E-3
4.978973388E0,4.119873047E-4,-1.085052490E-1,-1.214599609E-2
4.984039306E0,7.720947266E-3,-1.085052490E-1,-1.428222656E-2
4.989074707E0,1.712036133E-2,-1.053009033E-1,-1.853942871E-2
4.994140625E0,9.811401367E-3,-1.116943359E-1,-2.281188965E-2
4.999206543E0,8.758544922E-3,-1.148986816E-1,-2.919006348E-2
5.004241943E0,5.630493164E-3,-1.170196533E-1,-3.132629395E-2
5.009307861E0,2.502441406E-3,-1.202239990E-1,-3.665161133E-2
5.014373779E0,2.502441406E-3,-1.244812012E-1,-3.558349609E-2
5.019439697E0,4.119873047E-4,-1.287384033E-1,-3.771972656E-2
5.024475097E0,1.449584961E-3,-1.266174316E-1,-3.771972656E-2
5.029541015E0,7.720947266E-3,-1.244812012E-1,-3.985595703E-2
5.034606933E0,1.084899902E-2,-1.244812012E-1,-4.090881348E-2
5.039672851E0,1.397705078E-2,-1.244812012E-1,-4.090881348E-2
5.044738769E0,1.712036133E-2,-1.212921143E-1,-4.304504395E-2
5.049774169E0,2.128601074E-2,-1.212921143E-1,-4.304504395E-2
5.054840087E0,2.650451660E-2,-1.223449707E-1,-4.518127441E-2
5.059875488E0,2.755737305E-2,-1.212921143E-1,-4.623413086E-2
5.064941406E0,2.859497070E-2,-1.255493164E-1,-4.623413086E-2
5.070007324E0,2.964782715E-2,-1.266174316E-1,-4.518127441E-2
5.075073242E0,2.964782715E-2,-1.308746338E-1,-4.518127441E-2
5.080108642E0,3.172302246E-2,-1.330108643E-1,-4.730224609E-2
5.085174560E0,3.277587891E-2,-1.319427490E-1,-4.943847656E-2
5.090209961E0,3.277587891E-2,-1.287384033E-1,-4.943847656E-2
5.095275878E0,3.695678711E-2,-1.234130859E-1,-5.157470703E-2
5.100341796E0,4.112243652E-2,-1.180877686E-1,-5.583190918E-2
5.105407714E0,3.903198242E-2,-1.116943359E-1,-5.902099609E-2
5.110473632E0,3.695678711E-2,-1.042480469E-1,-6.222534180E-2
5.115539550E0,3.799438477E-2,-9.465026855E-2,-6.327819824E-2
5.120574951E0,4.112243652E-2,-8.613586426E-2,-6.541442871E-2
5.125640869E0,3.903198242E-2,-7.653808594E-2,-6.755065918E-2
5.130706787E0,3.486633301E-2,-6.909179688E-2,-6.648254395E-2
5.135742187E0,3.381347656E-2,-6.269836426E-2,-6.434631348E-2
5.140808105E0,3.172302246E-2,-5.949401855E-2,-6.327819824E-2
5.145843505E0,2.650451660E-2,-5.523681641E-2,-6.327819824E-2
5.150909423E0,2.442932129E-2,-5.204772949E-2,-6.541442871E-2
5.155975341E0,2.546691895E-2,-4.991149902E-2,-6.648254395E-2
5.161041259E0,2.442932129E-2,-4.565429688E-2,-6.648254395E-2
5.166076660E0,2.337646484E-2,-4.672241211E-2,-6.434631348E-2
5.171142578E0,2.442932129E-2,-4.672241211E-2,-6.541442871E-2
5.176208496E0,2.233886719E-2,-4.672241211E-2,-6.541442871E-2
5.181243896E0,2.755737305E-2,-4.991149902E-2,-6.541442871E-2
5.186309814E0,2.964782715E-2,-4.884338379E-2,-6.648254395E-2
5.191375732E0,3.068542480E-2,-4.672241211E-2,-6.648254395E-2
5.196441650E0,3.486633301E-2,-4.991149902E-2,-6.648254395E-2
5.201507568E0,3.277587891E-2,-4.991149902E-2,-6.861877441E-2
5.206573486E0,3.172302246E-2,-4.777526855E-2,-6.967163086E-2
5.211608886E0,2.964782715E-2,-4.458618164E-2,-6.861877441E-2
5.216674804E0,2.859497070E-2,-4.032897949E-2,-6.861877441E-2
5.221740722E0,2.546691895E-2,-3.500366211E-2,-7.180786133E-2
5.226776123E0,2.024841309E-2,-3.073120117E-2,-7.180786133E-2
5.231842041E0,2.337646484E-2,-2.754211426E-2,-7.287597656E-2
5.236877441E0,2.337646484E-2,-2.435302734E-2,-7.499694824E-2
5.241943359E0,2.128601074E-2,-2.328491211E-2,-7.287597656E-2
5.247009277E0,2.442932129E-2,-2.221679688E-2,-7.394409180E-2
5.252075195E0,2.546691895E-2,-1.795959473E-2,-7.287597656E-2
5.257141113E0,2.650451660E-2,-1.475524902E-2,-7.073974609E-2
5.262207031E0,2.755737305E-2,-1.368713379E-2,-7.180786133E-2
5.267242431E0,2.546691895E-2,-1.156616211E-2,-7.073974609E-2
5.272277832E0,2.964782715E-2,-1.049804688E-2,-7.073974609E-2
5.277343750E0,3.068542480E-2,-9.429931641E-3,-7.499694824E-2
5.282409668E0,3.068542480E-2,-9.429931641E-3,-7.287597656E-2
5.287475586E0,3.381347656E-2,-1.049804688E-2,-7.180786133E-2
5.292541503E0,3.381347656E-2,-9.429931641E-3,-7.394409180E-2
5.297576904E0,3.277587891E-2,-1.156616211E-2,-7.394409180E-2
5.302642822E0,3.277587891E-2,-8.361816406E-3,-7.926940918E-2
5.307708740E0,3.486633301E-2,-1.983642578E-3,-8.245849609E-2
5.312744140E0,3.381347656E-2,2.288818359E-3,-8.139038086E-2
5.317779541E0,2.859497070E-2,7.614135742E-3,-8.245849609E-2
5.322845459E0,2.859497070E-2,1.507568359E-2,-7.820129395E-2
5.327880859E0,2.859497070E-2,2.252197266E-2,-7.287597656E-2
5.332946777E0,2.964782715E-2,3.105163574E-2,-6.115722656E-2
5.338012695E0,3.381347656E-2,3.956604004E-2,-5.690002441E-2
5.343078613E0,3.381347656E-2,3.317260742E-2,-7.394409180E-2
5.348114013E0,2.964782715E-2,2.145385742E-2,-9.310913086E-2
5.353179931E0,2.337646484E-2,1.933288574E-2,-9.843444824E-2
5.358245849E0,2.024841309E-2,1.826477051E-2,-9.631347656E-2
5.363311767E0,2.024841309E-2,1.507568359E-2,-9.098815918E-2
5.368377685E0,1.397705078E-2,5.477905273E-3,-8.671569824E-2
5.373443603E0,8.758544922E-3,-3.036499023E-3,-7.394409180E-2
5.378479003E0,1.449584961E-3,-1.983642578E-3,-5.157470703E-2
5.383544921E0,-7.934570312E-3,-1.983642578E-3,-4.837036133E-2
5.388610839E0,-1.107788086E-2,-1.983642578E-3,-4.837036133E-2
5.393646240E0,-1.211547852E-2,-4.104614258E-3,-6.755065918E-2
5.398712158E0,-1.733398438E-2,1.220703125E-3,-7.180786133E-2
5.403747558E0,-1.838684082E-2,1.187133789E-2,-7.073974609E-2
5.408813476E0,-1.524353027E-2,2.465820312E-2,-5.050659180E-2
5.413879394E0,-1.316833496E-2,6.620788574E-2,-1.214599609E-2
5.418945312E0,-1.420593262E-2,8.963012695E-2,-2.067565918E-2
5.424011230E0,-6.896972656E-3,7.258605957E-2,-6.648254395E-2
5.429046630E0,-6.408691406E-4,5.554199219E-2,-7.394409180E-2
5.434112548E0,7.720947266E-3,5.342102051E-2,-6.222534180E-2
5.439178466E0,2.233886719E-2,5.661010742E-2,-6.115722656E-2
5.444213867E0,2.755737305E-2,4.916381836E-2,-6.115722656E-2
5.449279785E0,2.442932129E-2,4.063415527E-2,-6.327819824E-2
5.454345703E0,2.128601074E-2,3.849792480E-2,-6.648254395E-2
5.459381103E0,1.919555664E-2,3.744506836E-2,-6.861877441E-2
5.464447021E0,1.397705078E-2,3.530883789E-2,-7.394409180E-2
5.469512939E0,9.811401367E-3,3.211975098E-2,-7.606506348E-2
5.474578857E0,4.592895508E-3,2.891540527E-2,-7.820129395E-2
5.479614257E0,-1.678466797E-3,2.465820312E-2,-7.926940918E-2
5.484680175E0,-6.896972656E-3,2.359008789E-2,-7.926940918E-2
5.489746093E0,-1.316833496E-2,2.465820312E-2,-7.606506348E-2
5.494812011E0,-1.524353027E-2,2.784729004E-2,-6.967163086E-2
5.499877929E0,-2.046203613E-2,3.317260742E-2,-6.648254395E-2
5.504913330E0,-2.464294434E-2,3.956604004E-2,-5.902099609E-2
5.509979248E0,-2.986145020E-2,5.021667480E-2,-5.262756348E-2
5.515045166E0,-3.091430664E-2,5.767822266E-2,-4.197692871E-2
5.520080566E0,-3.613281250E-2,6.407165527E-2,-3.346252441E-2
5.525146484E0,-4.029846191E-2,7.579040527E-2,-2.386474609E-2
5.530181884E0,-4.447937012E-2,8.857727051E-2,-1.535034180E-2
5.535247802E0,-5.282592773E-2,1.120147705E-1,1.341247559E-2
5.540313720E0,-6.640625000E-2,1.354370117E-1,3.471374512E-2
5.545379638E0,-7.580566406E-2,1.503601074E-1,4.003906250E-2
5.550445556E0,-8.206176758E-2,1.428985596E-1,3.259277344E-2
5.555480957E0,-8.833312988E-2,1.535491943E-1,6.028747559E-2
5.560546875E0,-1.039886475E-1,1.780548096E-1,7.200622559E-2
5.565612793E0,-1.071166992E-1,1.780548096E-1,5.708312988E-2
5.570678711E0,-1.081542969E-1,1.748504639E-1,5.282592773E-2
5.575714111E0,-1.144256592E-1,1.780548096E-1,5.815124512E-2
5.580749511E0,-1.206817627E-1,1.855163574E-1,6.668090820E-2
5.585815429E0,-1.384429932E-1,1.887054443E-1,7.093811035E-2
5.590850830E0,-1.540985107E-1,1.897735596E-1,7.200622559E-2
5.595916748E0,-1.697540283E-1,1.865692139E-1,7.945251465E-2
5.600982666E0,-1.833190918E-1,1.759185791E-1,9.437561035E-2
5.606048584E0,-1.968994141E-1,1.695251465E-1,1.103515625E-1
5.611083984E0,-2.083740234E-1,1.684722900E-1,1.295318604E-1
5.616149902E0,-2.198638916E-1,1.695251465E-1,1.508331299E-1
5.621185302E0,-2.303009033E-1,1.737976074E-1,1.732025146E-1
5.626251220E0,-2.376098633E-1,1.855163574E-1,1.913146973E-1
5.631317138E0,-2.543182373E-1,2.036132812E-1,2.019653320E-1
5.636383056E0,-2.647552490E-1,2.206573486E-1,2.126159668E-1
5.641448974E0,-2.751922607E-1,2.440948486E-1,2.158203125E-1
5.646514892E0,-2.825012207E-1,2.643432617E-1,2.243347168E-1
5.651580810E0,-2.887725830E-1,2.835083008E-1,2.328643799E-1
5.656646728E0,-2.929382324E-1,3.016204834E-1,2.392425537E-1
5.661682128E0,-3.002471924E-1,3.208007812E-1,2.499084473E-1
5.666717529E0,-3.075561523E-1,3.357086182E-1,2.616271973E-1
5.671783447E0,-3.179931641E-1,3.463592529E-1,2.712097168E-1
5.676849365E0,-3.284301758E-1,3.559570312E-1,2.818603516E-1
5.681884765E0,-3.388824463E-1,3.697967529E-1,2.967681885E-1
5.686950683E0,-3.472290039E-1,3.804473877E-1,3.138122559E-1
5.692016601E0,-3.576660156E-1,3.943023682E-1,3.223419189E-1
5.697082519E0,-3.691558838E-1,4.102783203E-1,3.287353516E-1
5.702117919E0,-3.764648438E-1,4.305267334E-1,3.287353516E-1
5.707183837E0,-3.848114014E-1,4.592895508E-1,3.329925537E-1
5.712249755E0,-4.067382812E-1,4.891052246E-1,3.393859863E-1
5.717315673E0,-4.286499023E-1,5.210723877E-1,3.447113037E-1
5.722381591E0,-4.568481445E-1,5.530242920E-1,3.500366211E-1
5.727447509E0,-4.892120361E-1,5.743255615E-1,3.468475342E-1
5.732482910E0,-5.121765137E-1,5.998992920E-1,3.202056885E-1
5.737548828E0,-5.581054688E-1,6.201324463E-1,3.489685059E-1
5.742614746E0,-5.977783203E-1,6.116180420E-1,3.681488037E-1
5.747650146E0,-6.176147461E-1,6.094818115E-1,3.596191406E-1
5.752716064E0,-6.322326660E-1,6.094818115E-1,3.542938232E-1
5.757751464E0,-6.437072754E-1,6.052246094E-1,3.489685059E-1
5.762817382E0,-6.468505859E-1,5.966949463E-1,3.457794189E-1
5.767852783E0,-6.531066895E-1,5.828552246E-1,3.489685059E-1
5.772918701E0,-6.562347412E-1,5.722045898E-1,3.585662842E-1
5.777984619E0,-6.687622070E-1,5.615539551E-1,3.766632080E-1
5.783050537E0,-7.000885010E-1,5.455627441E-1,4.054260254E-1
5.788085937E0,-7.460174561E-1,5.263977051E-1,4.384613037E-1
5.793182373E0,-8.065643311E-1,5.029602051E-1,4.704132080E-1
5.798217773E0,-8.838195801E-1,4.805908203E-1,5.023651123E-1
5.803283691E0,-9.506378174E-1,4.688720703E-1,5.183563232E-1
5.808349609E0,-9.934387207E-1,4.880523682E-1,5.119628906E-1
5.813385009E0,-1.016403198E0,5.359802246E-1,4.821319580E-1
5.818450927E0,-1.017456055E0,5.903167725E-1,4.384613037E-1
5.823516845E0,-1.011184692E0,6.467742920E-1,3.915863037E-1
5.828582763E0,-9.986572266E-1,7.128143311E-1,3.383178711E-1
5.833618164E0,-9.610748291E-1,7.767333984E-1,2.797241211E-1
5.838684082E0,-8.942565918E-1,8.246765137E-1,2.275390625E-1
5.843719482E0,-8.274536133E-1,8.470458984E-1,1.838531494E-1
5.848785400E0,-7.919616699E-1,8.395843506E-1,1.508331299E-1
5.853851318E0,-7.721252441E-1,8.161468506E-1,1.242065430E-1
5.858886718E0,-7.543792725E-1,7.884521484E-1,1.018371582E-1
5.863952636E0,-7.428894043E-1,7.586212158E-1,7.093811035E-2
5.869018554E0,-7.345428467E-1,7.319946289E-1,3.471374512E-2
5.874084472E0,-7.199249268E-1,7.085571289E-1,2.761840820E-3
5.879119873E0,-7.021789551E-1,6.840515137E-1,-2.493286133E-2
5.884185791E0,-6.844329834E-1,6.659393311E-1,-3.985595703E-2
5.889251709E0,-6.677246094E-1,6.371765137E-1,-5.476379395E-2
5.894287109E0,-6.583251953E-1,5.956420898E-1,-6.434631348E-2
5.899353027E0,-6.572875977E-1,5.487670898E-1,-6.327819824E-2
5.904418945E0,-6.562347412E-1,5.082855225E-1,-5.369567871E-2
5.909484863E0,-6.562347412E-1,4.678039551E-1,-3.665161133E-2
5.914550781E0,-6.562347412E-1,4.337158203E-1,-1.535034180E-2
5.919586181E0,-6.468505859E-1,4.124145508E-1,1.022338867E-2
5.924652099E0,-6.332702637E-1,3.953704834E-1,3.578186035E-2
5.929718017E0,-6.103057861E-1,3.868408203E-1,5.815124512E-2
5.934753418E0,-5.800323486E-1,3.804473877E-1,7.839965820E-2
5.939819336E0,-5.466308594E-1,3.825836182E-1,1.007690430E-1
5.944854736E0,-5.100860596E-1,3.900451660E-1,1.252593994E-1
5.949920654E0,-4.662322998E-1,3.964385986E-1,1.412506104E-1
5.954986572E0,-4.182128906E-1,4.060211182E-1,1.540222168E-1
5.960052490E0,-3.712463379E-1,4.188079834E-1,1.646881104E-1
5.965087890E0,-3.273925781E-1,4.305267334E-1,1.732025146E-1
5.970123291E0,-2.856292725E-1,4.443664551E-1,1.817321777E-1
5.975189209E0,-2.459564209E-1,4.528961182E-1,1.870574951E-1
5.980255127E0,-2.104644775E-1,4.539642334E-1,1.849212646E-1
5.985321044E0,-1.770629883E-1,4.560852051E-1,1.721343994E-1
5.990386962E0,-1.520080566E-1,4.528961182E-1,1.582946777E-1
5.995452880E0,-1.238250732E-1,4.454345703E-1,1.391143799E-1
6.000518798E0,-1.008605957E-1,4.337158203E-1,1.178131104E-1
6.005584716E0,-7.788085938E-2,4.166717529E-1,9.117126465E-2
6.010620117E0,-5.700683594E-2,4.017639160E-1,6.454467773E-2
6.015686035E0,-4.760742188E-2,3.911132812E-1,4.217529297E-2
6.020721435E0,-3.507995605E-2,3.836517334E-1,2.726745605E-2
6.025787353E0,-1.942443848E-2,3.772583008E-1,1.234436035E-2
6.030853271E0,-5.859375000E-3,3.687286377E-1,-4.425048828E-4
6.035888671E0,5.630493164E-3,3.570251465E-1,-4.699707031E-3
6.040954589E0,1.502990723E-2,3.431701660E-1,-1.002502441E-2
6.046020507E0,2.442932129E-2,3.346405029E-1,-1.321411133E-2
6.051086425E0,3.486633301E-2,3.335876465E-1,-1.960754395E-2
6.056121826E0,4.634094238E-2,3.346405029E-1,-2.813720703E-2
6.061187744E0,5.574035645E-2,3.335876465E-1,-3.558349609E-2
6.066253662E0,6.201171875E-2,3.208007812E-1,-4.090881348E-2
6.071289062E0,6.930541992E-2,3.101501465E-1,-4.518127441E-2
6.076354980E0,8.392333984E-2,3.005523682E-1,-4.623413086E-2
6.081420898E0,9.228515625E-2,2.973632812E-1,-4.730224609E-2
6.086456298E0,1.027221680E-1,2.952270508E-1,-4.623413086E-2
6.091522216E0,1.048126221E-1,2.941741943E-1,-3.878784180E-2
6.096588134E0,9.436035156E-2,2.941741943E-1,-3.239440918E-2
6.101623535E0,8.601379395E-2,2.984313965E-1,-1.960754395E-2
6.106689453E0,8.183288574E-2,3.069458008E-1,-1.109313965E-2
6.111755371E0,7.557678223E-2,3.229370117E-1,-1.495361328E-3
6.116821289E0,7.139587402E-2,3.410339355E-1,9.155273438E-3
6.121856689E0,6.930541992E-2,3.602142334E-1,1.341247559E-2
6.126892089E0,7.139587402E-2,3.804473877E-1,1.766967773E-2
6.131958007E0,7.557678223E-2,4.006958008E-1,2.087402344E-2
6.137023925E0,7.870483398E-2,4.188079834E-1,2.087402344E-2
6.142089843E0,8.601379395E-2,4.294586182E-1,2.194213867E-2
6.147125244E0,9.854125977E-2,4.326477051E-1,2.726745605E-2
6.152191162E0,1.183776855E-1,4.337158203E-1,3.366088867E-2
6.157257080E0,1.340332031E-1,4.347839355E-1,4.324340820E-2
6.162292480E0,1.517791748E-1,4.326477051E-1,5.603027344E-2
6.167358398E0,1.590881348E-1,4.454345703E-1,6.347656250E-2
6.172424316E0,1.538696289E-1,4.507598877E-1,6.880187988E-2
6.177490234E0,1.444702148E-1,4.582214355E-1,7.093811035E-2
6.182556152E0,1.246490479E-1,4.763336182E-1,7.733154297E-2
6.187622070E0,9.750366211E-2,4.933776855E-1,8.052062988E-2
6.192687988E0,6.930541992E-2,5.082855225E-1,8.479309082E-2
6.197753906E0,4.634094238E-2,5.221405029E-1,8.584594727E-2
6.202789306E0,3.381347656E-2,5.317230225E-1,9.330749512E-2
6.207855224E0,2.442932129E-2,5.381164551E-1,9.756469727E-2
6.212890625E0,1.919555664E-2,5.466308594E-1,1.050262451E-1
6.217926025E0,1.397705078E-2,5.540924072E-1,1.050262451E-1
6.222991943E0,1.084899902E-2,5.445098877E-1,9.649658203E-2
6.228057861E0,1.084899902E-2,5.413055420E-1,9.117126465E-2
6.233123779E0,1.293945312E-2,5.402374268E-1,8.691406250E-2
6.238159179E0,2.128601074E-2,5.338592529E-1,8.158874512E-2
6.243194580E0,2.964782715E-2,5.242614746E-1,7.412719727E-2
6.248260498E0,3.068542480E-2,5.146789551E-1,7.093811035E-2
6.253326416E0,3.277587891E-2,5.029602051E-1,7.626342773E-2
6.258392334E0,3.799438477E-2,4.880523682E-1,8.372497559E-2
6.263458252E0,5.052185059E-2,4.582214355E-1,9.863281250E-2
6.268524169E0,6.826782227E-2,4.134826660E-1,1.199340820E-1
6.273590087E0,9.541320801E-2,3.591461182E-1,1.465759277E-1
6.278625488E0,1.340332031E-1,2.984313965E-1,1.774597168E-1
6.283691406E0,1.862335205E-1,2.302551270E-1,2.030334473E-1
6.288757324E0,2.405242920E-1,1.599426270E-1,2.200775146E-1
6.293823242E0,3.000335693E-1,9.815979004E-2,2.317962646E-1
6.298858642E0,3.616180420E-1,5.021667480E-2,2.371215820E-1
6.303924560E0,4.065093994E-1,3.105163574E-2,2.317962646E-1
6.308990478E0,4.409637451E-1,2.359008789E-2,2.126159668E-1
6.314025878E0,4.785461426E-1,7.614135742E-3,1.795959473E-1
6.319091796E0,5.265655518E-1,-1.368713379E-2,1.359252930E-1
6.324127197E0,6.017303467E-1,-3.500366211E-2,8.372497559E-2
6.329193115E0,6.936035156E-1,-5.630493164E-2,2.406311035E-2
6.334259033E0,7.802429199E-1,-9.358215332E-2,-5.157470703E-2
6.339324951E0,8.324432373E-1,-1.575012207E-1,-1.357269287E-1
6.344360351E0,8.230438232E-1,-2.373962402E-1,-2.017669678E-1
6.349426269E0,7.531127930E-1,-3.343353271E-1,-2.454528809E-1
6.354492187E0,6.633300781E-1,-4.525756836E-1,-2.678222656E-1
6.359558105E0,5.818939209E-1,-6.091766357E-1,-2.827301025E-1
6.364624023E0,5.109100342E-1,-7.934722900E-1,-2.965850830E-1
6.369659423E0,4.503631592E-1,-9.788208008E-1,-3.104248047E-1
6.374725341E0,4.085998535E-1,-1.154586792E0,-3.168182373E-1
6.379760742E0,4.002532959E-1,-1.314376831E0,-3.146820068E-1
6.384826660E0,4.273834229E-1,-1.443283081E0,-2.955169678E-1
6.389892578E0,4.294738770E-1,-1.539154053E0,-2.497100830E-1
6.394958496E0,3.793640137E-1,-1.577499390E0,-1.719360352E-1
6.400024414E0,2.989807129E-1,-1.548736572E0,-6.861877441E-2
6.405090332E0,2.248687744E-1,-1.463516235E0,4.963684082E-2
6.410125732E0,1.851959229E-1,-1.351669312E0,2.072906494E-1
6.415191650E0,1.663970947E-1,-1.245132446E0,2.648162842E-1
6.420257568E0,1.684875488E-1,-1.173767090E0,2.626800537E-1
6.425292968E0,2.133789062E-1,-1.120498657E0,2.552337646E-1
6.430358886E0,2.937622070E-1,-1.073638916E0,2.317962646E-1
6.435424804E0,3.793640137E-1,-1.049133301E0,1.923828125E-1
6.440490722E0,4.649658203E-1,-1.041671753E0,1.497650146E-1
6.445526123E0,5.484924316E-1,-1.024627686E0,1.082153320E-1
6.450561523E0,6.173858643E-1,-1.018234253E0,6.028747559E-2
6.455627441E0,6.779327393E-1,-1.039550781E0,9.155273438E-3
6.460693359E0,7.228240967E-1,-1.061920166E0,-3.239440918E-2
6.465759277E0,7.531127930E-1,-1.085357666E0,-7.287597656E-2
6.470825195E0,7.593688965E-1,-1.143936157E0,-1.176147461E-1
6.475860595E0,7.478790283E-1,-1.238754272E0,-1.580963135E-1
6.480926513E0,7.541503906E-1,-1.274963379E0,-1.985778809E-1
6.485992431E0,7.886047363E-1,-1.289886475E0,-2.262725830E-1
6.491058349E0,8.293151855E-1,-1.309051514E0,-2.454528809E-1
6.496093750E0,8.616790771E-1,-1.305862427E0,-2.507781982E-1
6.501129150E0,8.668975830E-1,-1.298400879E0,-2.294616699E-1
6.506195068E0,8.470611572E-1,-1.295211792E0,-1.900482178E-1
6.511260986E0,8.105163574E-1,-1.297332764E0,-1.378479004E-1
6.516326904E0,7.645874023E-1,-1.310119629E0,-7.820129395E-2
6.521362304E0,7.029876709E-1,-1.325027466E0,-2.174377441E-2
6.526428222E0,6.246948242E-1,-1.333557129E0,2.619934082E-2
6.531494140E0,5.443115234E-1,-1.343139648E0,6.135559082E-2
6.536560058E0,4.701995850E-1,-1.334625244E0,8.372497559E-2
6.541625976E0,4.023284912E-1,-1.314376831E0,8.905029297E-2
6.546661377E0,3.459625244E-1,-1.289886475E0,8.691406250E-2
6.551696777E0,3.135986328E-1,-1.268569946E0,8.372497559E-2
6.556762695E0,3.031616211E-1,-1.255798340E0,6.774902344E-2
6.561828613E0,3.094177246E-1,-1.232360840E0,4.856872559E-2
6.566894531E0,3.313446045E-1,-1.212112427E0,3.152465820E-2
6.571960449E0,3.699798584E-1,-1.194000244E0,1.766967773E-2
6.577026367E0,4.221649170E-1,-1.182281494E0,1.234436035E-2
6.582061767E0,4.806365967E-1,-1.168441772E0,1.661682129E-2
6.587097168E0,5.390930176E-1,-1.156723022E0,2.406311035E-2
6.592163086E0,6.059112549E-1,-1.143936157E0,4.003906250E-2
6.597229003E0,6.779327393E-1,-1.125823975E0,6.135559082E-2
6.602294921E0,7.489318848E-1,-1.083221436E0,9.649658203E-2
6.607360839E0,8.220062256E-1,-1.022506714E0,1.295318604E-1
6.612396240E0,8.888244629E-1,-9.745635986E-1,1.582946777E-1
6.617462158E0,9.347534180E-1,-9.415435791E-1,1.859893799E-1
6.622528076E0,9.608459473E-1,-9.095764160E-1,2.094268799E-1
6.627593994E0,9.671173096E-1,-8.669738770E-1,2.243347168E-1
6.632629394E0,9.566802979E-1,-8.254241943E-1,2.285919189E-1
6.637695312E0,9.295349121E-1,-7.945404053E-1,2.296600342E-1
6.642730712E0,8.836059570E-1,-7.678985596E-1,2.211456299E-1
6.647796630E0,8.220062256E-1,-7.455291748E-1,2.019653320E-1
6.652862548E0,7.645874023E-1,-7.103729248E-1,1.721343994E-1
6.657897949E0,7.102966309E-1,-6.794891357E-1,1.423034668E-1
6.662963867E0,6.518402100E-1,-6.539154053E-1,1.071624756E-1
6.668029785E0,5.975494385E-1,-6.262207031E-1,6.668090820E-2
6.673095703E0,5.390930176E-1,-6.272888184E-1,2.513122559E-2
6.678131103E0,4.816741943E-1,-6.539154053E-1,-1.214599609E-2
6.683197021E0,4.420013428E-1,-6.730957031E-1,-5.690002441E-2
6.688232421E0,4.190368652E-1,-6.826782227E-1,-1.058959961E-1
6.693298339E0,4.075622559E-1,-7.029266357E-1,-1.485137939E-1
6.698364257E0,4.127807617E-1,-7.242279053E-1,-1.879272461E-1
6.703430175E0,4.305267334E-1,-7.295532227E-1,-2.273406982E-1
6.708465576E0,4.555816650E-1,-7.338104248E-1,-2.646179199E-1
6.713531494E0,4.858551025E-1,-7.444610596E-1,-2.912597656E-1
6.718597412E0,5.130004883E-1,-7.604370117E-1,-3.232116699E-1
6.723663330E0,5.443115234E-1,-7.647094727E-1,-3.466491699E-1
6.728729248E0,5.662384033E-1,-7.764282227E-1,-3.647613525E-1
6.733764648E0,5.798034668E-1,-7.934722900E-1,-3.818054199E-1
6.738830566E0,5.850219727E-1,-8.126373291E-1,-3.999023438E-1
6.743896484E0,5.892028809E-1,-8.275604248E-1,-4.180145264E-1
6.748962402E0,5.881652832E-1,-8.371429443E-1,-4.308013916E-1
6.753997802E0,5.829467773E-1,-8.414001465E-1,-4.457092285E-1
6.759063720E0,5.798034668E-1,-8.350067139E-1,-4.553070068E-1
6.764099121E0,5.798034668E-1,-8.232879639E-1,-4.617004395E-1
6.769165039E0,5.787658691E-1,-8.030548096E-1,-4.627532959E-1
6.774200439E0,5.829467773E-1,-7.838745117E-1,-4.659576416E-1
6.779266357E0,5.798034668E-1,-7.615051270E-1,-4.638214111E-1
6.784332275E0,5.756378174E-1,-7.295532227E-1,-4.659576416E-1
6.789398193E0,5.724945068E-1,-6.890716553E-1,-4.712829590E-1
6.794464111E0,5.651855469E-1,-6.539154053E-1,-4.766082764E-1
6.799530029E0,5.484924316E-1,-6.240844727E-1,-4.851226807E-1
6.804595947E0,5.370025635E-1,-6.070404053E-1,-4.925842285E-1
6.809631347E0,5.244750977E-1,-6.059875488E-1,-4.979095459E-1
6.814697265E0,5.140380859E-1,-6.155700684E-1,-5.032348633E-1
6.819732666E0,5.098571777E-1,-6.187591553E-1,-5.043029785E-1
6.824798584E0,5.004730225E-1,-6.113128662E-1,-5.011138916E-1
6.829833984E0,4.868927002E-1,-5.985260010E-1,-4.872589111E-1
6.834899902E0,4.660186768E-1,-5.836029053E-1,-4.553070068E-1
6.839965820E0,4.378356934E-1,-5.761566162E-1,-4.105682373E-1
6.845031738E0,4.054718018E-1,-5.814819336E-1,-3.668823242E-1
6.850097656E0,3.626708984E-1,-5.942687988E-1,-3.210754395E-1
6.855133056E0,3.188171387E-1,-6.070404053E-1,-2.720794678E-1
6.860198974E0,2.687072754E-1,-6.177062988E-1,-2.252044678E-1
6.865264892E0,2.071075439E-1,-6.145019531E-1,-1.793975830E-1
6.870300293E0,1.403045654E-1,-5.995941162E-1,-1.357269287E-1
6.875366211E0,6.617736816E-2,-5.729522705E-1,-1.016387939E-1
6.880432128E0,-4.806518555E-3,-5.410003662E-1,-7.499694824E-2
6.885467529E0,-6.013488770E-2,-4.941253662E-1,-5.157470703E-2
6.890533447E0,-9.355163574E-2,-4.504547119E-1,-3.025817871E-2
6.895599365E0,-1.311340332E-1,-4.525756836E-1,8.087158203E-3
6.900634765E0,-1.812438965E-1,-4.674987793E-1,4.963684082E-2
6.905700683E0,-2.292633057E-1,-4.717559814E-1,8.052062988E-2
6.910766601E0,-2.939910889E-1,-4.461975098E-1,1.103515625E-1
6.915832519E0,-3.660125732E-1,-3.790740967E-1,1.380462646E-1
6.920867919E0,-4.735412598E-1,-3.332672119E-1,1.732025146E-1
6.925933837E0,-6.029968262E-1,-2.938537598E-1,2.200775146E-1
6.930999755E0,-7.293243408E-1,-2.469940186E-1,2.712097168E-1
6.936065673E0,-8.462371826E-1,-1.841430664E-1,3.234100342E-1
6.941101074E0,-9.777832031E-1,-6.163024902E-2,3.873138428E-1
6.946136474E0,-1.138549805E0,1.237182617E-1,4.576263428E-1
6.951202392E0,-1.323333740E0,3.431701660E-1,5.375213623E-1
6.956268310E0,-1.513336182E0,5.402374268E-1,6.184844971E-1
6.961303711E0,-1.686630249E0,6.712646484E-1,7.037048340E-1
6.966369628E0,-1.852615356E0,7.575531006E-1,7.825317383E-1
6.971435546E0,-2.019653320E0,8.267974854E-1,8.507080078E-1
6.976501464E0,-2.169982910E0,8.832550049E-1,9.135589600E-1
6.981567382E0,-2.288986206E0,9.482421875E-1,9.678955078E-1
6.986602783E0,-2.342239380E0,1.056900024E0,9.891967773E-1
6.991668701E0,-2.329711914E0,1.187927246E0,9.646911621E-1
6.996734619E0,-2.249328613E0,1.284866333E0,9.103698730E-1
7.001800537E0,-2.110473633E0,1.363693237E0,8.571014404E-1
7.006835937E0,-1.931961060E0,1.409500122E0,7.963867188E-1
7.011901855E0,-1.735687256E0,1.394592285E0,7.303314209E-1
7.016967773E0,-1.551956177E0,1.315750122E0,6.578979492E-1
7.022033691E0,-1.412063599E0,1.166625977E0,5.886535645E-1
7.027099609E0,-1.330642700E0,9.620819092E-1,5.343322754E-1
7.032135009E0,-1.297225952E0,7.405090332E-1,4.959716797E-1
7.037200927E0,-1.304534912E0,5.200042725E-1,4.832000732E-1
7.042266845E0,-1.359863281E0,3.186645508E-1,4.959716797E-1
7.047302246E0,-1.456954956E0,1.322479248E-1,5.204772949E-1
7.052368164E0,-1.581192017E0,-3.500366211E-2,5.567016602E-1
7.057434082E0,-1.708557129E0,-1.660308838E-1,6.142272949E-1
7.062469482E0,-1.810852051E0,-2.416534424E-1,6.962432861E-1
7.067535400E0,-1.874542236E0,-2.778778076E-1,7.857360840E-1
7.072601318E0,-1.889160156E0,-2.608337402E-1,8.549652100E-1
7.077667236E0,-1.867233276E0,-1.596374512E-1,8.975830078E-1
7.082733154E0,-1.834869385E0,1.933288574E-2,9.263458252E-1
7.087768554E0,-1.782669067E0,2.462310791E-1,9.497833252E-1
7.092834472E0,-1.702285767E0,4.976348877E-1,9.710845947E-1
7.097869873E0,-1.601028442E0,7.703399658E-1,9.806671143E-1
7.102905273E0,-1.475753784E0,1.045181274E0,9.689483643E-1
7.107971191E0,-1.323333740E0,1.311492920E0,9.476470947E-1
7.113037109E0,-1.158386230E0,1.547988892E0,9.167633057E-1
7.118072509E0,-1.005966187E0,1.753585815E0,8.794708252E-1
7.123107910E0,-8.786010742E-1,1.897384644E0,8.315429688E-1
7.128173828E0,-7.773437500E-1,1.986877441E0,7.835998535E-1
7.133239746E0,-6.959075928E-1,2.029479980E0,7.473754883E-1
7.138305664E0,-6.343231201E-1,2.033737183E0,7.132873535E-1
7.143371582E0,-5.925598145E-1,2.017761230E0,6.696166992E-1
7.148437500E0,-5.727233887E-1,1.974090576E0,6.206207275E-1
7.153503418E0,-5.727233887E-1,1.903778076E0,5.620269775E-1
7.158569336E0,-5.873413086E-1,1.820693970E0,4.959716797E-1
7.163635253E0,-6.165618896E-1,1.724822998E0,4.203491211E-1
7.168701171E0,-6.478881836E-1,1.628936768E0,3.521728516E-1
7.173736572E0,-6.760711670E-1,1.535202026E0,2.903747559E-1
7.178771972E0,-7.053070068E-1,1.437194824E0,2.381896973E-1
7.183837890E0,-7.407989502E-1,1.326416016E0,1.881103516E-1
7.188903808E0,-7.804718018E-1,1.215621948E0,1.391143799E-1
7.193969726E0,-8.076171875E-1,1.115493774E0,9.223937988E-2
7.199035644E0,-8.107452393E-1,1.061157227E0,5.070495605E-2
7.204101562E0,-7.856903076E-1,1.036651611E0,1.448059082E-2
7.209136962E0,-7.313995361E-1,1.015350342E0,-1.960754395E-2
7.214202880E0,-6.457977295E-1,1.003631592E0,-4.411315918E-2
7.219238281E0,-5.236511230E-1,1.010025024E0,-6.222534180E-2
7.224273681E0,-3.785400391E-1,1.032394409E0,-7.926940918E-2
7.229339599E0,-2.094268799E-1,1.065414429E0,-8.885192871E-2
7.234405517E0,-1.733398438E-2,1.100570679E0,-9.950256348E-2
7.239471435E0,1.935424805E-1,1.146377563E0,-1.144256592E-1
7.244537353E0,4.033813477E-1,1.202835083E0,-1.271972656E-1
7.249572753E0,5.986022949E-1,1.265686035E0,-1.410522461E-1
7.254638671E0,7.687683105E-1,1.296585083E0,-1.655578613E-1
7.259704589E0,9.023895264E-1,1.288055420E0,-1.793975830E-1
7.264770507E0,1.014099121E0,1.262496948E0,-1.932525635E-1
7.269805908E0,1.093429565E0,1.214553833E0,-1.985778809E-1
7.274871826E0,1.139373779E0,1.138916016E0,-1.953735352E-1
7.279937744E0,1.161300659E0,1.033462524E0,-1.836547852E-1
7.284973144E0,1.173828125E0,9.162750244E-1,-1.559600830E-1
7.290039062E0,1.171737671E0,8.044281006E-1,-1.122894287E-1
7.295074462E0,1.152938843E0,6.989746094E-1,-6.222534180E-2
7.300140380E0,1.118484497E0,6.052246094E-1,-2.563476562E-3
7.305206298E0,1.068374634E0,5.136108398E-1,6.240844727E-2
7.310241699E0,1.005737305E0,4.145355225E-1,1.284637451E-1
7.315307617E0,9.284973145E-1,3.080139160E-1,1.923828125E-1
7.320373535E0,8.355712891E-1,2.142791748E-1,2.435150146E-1
7.325439453E0,7.332763672E-1,1.812438965E-1,2.807922363E-1
7.330505371E0,6.215667725E-1,2.249298096E-1,3.020935059E-1
7.335540771E0,5.036010742E-1,3.389129639E-1,3.170166016E-1
7.340606689E0,3.918914795E-1,4.880523682E-1,3.340606689E-1
7.345672607E0,2.906341553E-1,6.275939941E-1,3.511047363E-1
7.350708007E0,1.914520264E-1,7.362518311E-1,3.532257080E-1
7.355773925E0,9.854125977E-2,8.097534180E-1,3.415222168E-1
7.360839843E0,2.233886719E-2,8.555603027E-1,3.180847168E-1
7.365905761E0,-3.613281250E-2,8.853912354E-1,2.893218994E-1
7.370941162E0,-8.309936523E-2,8.821868896E-1,2.680053711E-1
7.376007080E0,-1.175537109E-1,8.459777832E-1,2.584228516E-1
7.381072998E0,-1.415710449E-1,7.767333984E-1,2.541656494E-1
7.386108398E0,-1.593170166E-1,6.723327637E-1,2.541656494E-1
7.391174316E0,-1.697540283E-1,5.498352051E-1,2.530975342E-1
7.396240234E0,-1.645355225E-1,4.262542725E-1,2.445831299E-1
7.401275634E0,-1.384429932E-1,3.271942139E-1,2.285919189E-1
7.406341552E0,-8.518981934E-2,2.536926270E-1,2.104949951E-1
7.411407470E0,-8.987426758E-3,2.206573486E-1,1.785278320E-1
7.416473388E0,8.601379395E-2,2.217254639E-1,1.380462646E-1
7.421539306E0,1.904144287E-1,2.238616943E-1,9.223937988E-2
7.426605224E0,2.666168213E-1,2.185363770E-1,4.431152344E-2
7.431640625E0,2.989807129E-1,2.068176270E-1,-3.631591797E-3
7.436706543E0,3.104705811E-1,1.450347900E-1,-3.665161133E-2
7.441749406E0,3.135986328E-1,5.981445312E-2,-3.025817871E-2
7.446815324E0,3.021087646E-1,-5.416870117E-2,5.950927734E-3
7.451850724E0,2.781066895E-1,-1.713562012E-1,5.496215820E-2
7.456886125E0,2.593078613E-1,-2.565765381E-1,9.970092773E-2
7.461982560E0,2.446899414E-1,-3.300781250E-1,1.305999756E-1
7.467048478E0,2.154693604E-1,-4.302062988E-1,1.316528320E-1
7.472083879E0,1.799774170E-1,-5.271453857E-1,1.007690430E-1
7.477149797E0,1.831054688E-1,-6.379394531E-1,3.471374512E-2
7.482215715E0,2.812347412E-1,-7.806854248E-1,-7.287597656E-2
7.487251115E0,4.649658203E-1,-9.138488770E-1,-2.305297852E-1
7.492317033E0,6.894226074E-1,-9.820251465E-1,-4.308013916E-1
7.497382951E0,8.898620605E-1,-9.394073486E-1,-6.385345459E-1
7.502448869E0,9.754638672E-1,-7.924041748E-1,-7.855377197E-1
7.507514787E0,8.815155029E-1,-6.368713379E-1,-8.121643066E-1
7.512550187E0,6.267852783E-1,-5.548553467E-1,-6.992492676E-1
7.517616105E0,3.135986328E-1,-5.250244141E-1,-5.277404785E-1
7.522682023E0,4.948425293E-2,-4.930572510E-1,-3.540954590E-1
7.527747941E0,-1.238250732E-1,-4.781494141E-1,-1.666107178E-1
7.532783341E0,-2.010803223E-1,-5.378112793E-1,9.155273438E-3
7.537818742E0,-1.916809082E-1,-6.421966553E-1,1.476440430E-1
7.542884660E0,-1.394805908E-1,-7.444610596E-1,2.381896973E-1
7.547950578E0,-7.893371582E-2,-8.467254639E-1,2.829284668E-1
7.553016496E0,-1.678466797E-3,-9.489898682E-1,3.127593994E-1
7.558082414E0,1.089782715E-1,-1.027832031E0,3.255310059E-1
7.563117814E0,2.405242920E-1,-1.064041138E0,3.116912842E-1
7.568183732E0,3.835449219E-1,-1.069366455E0,2.776031494E-1
7.573219132E0,5.182189941E-1,-1.062973022E0,2.285919189E-1
7.578285050E0,6.330566406E-1,-1.062973022E0,1.646881104E-1
7.583350968E0,7.123870850E-1,-1.064041138E0,8.798217773E-2
7.588416886E0,7.583312988E-1,-1.090682983E0,1.341247559E-2
7.593482804E0,7.771148682E-1,-1.167373657E0,-5.476379395E-2
7.598548722E0,7.635498047E-1,-1.237686157E0,-1.293334961E-1
7.603584123E0,7.280578613E-1,-1.225967407E0,-2.081604004E-1
7.608650041E0,6.894226074E-1,-1.197204590E0,-2.795410156E-1
7.613715959E0,6.549682617E-1,-1.187622070E0,-3.083038330E-1
7.618751359E0,6.257476807E-1,-1.194000244E0,-2.869873047E-1
7.623817277E0,5.996398926E-1,-1.225967407E0,-2.124176025E-1
7.628883195E0,5.798034668E-1,-1.287750244E0,-1.122894287E-1
7.633918595E0,5.558013916E-1,-1.372970581E0,-1.853942871E-2
7.638984513E0,5.255279541E-1,-1.461395264E0,6.028747559E-2
7.644050431E0,4.921112061E-1,-1.545547485E0,1.231384277E-1
7.649085832E0,4.733276367E-1,-1.598800659E0,1.785278320E-1
7.654151750E0,4.670562744E-1,-1.617980957E0,2.275390625E-1
7.659217668E0,4.670562744E-1,-1.615844727E0,2.594909668E-1
7.664253068E0,4.743652344E-1,-1.589218140E0,2.701416016E-1
7.669318986E0,4.827270508E-1,-1.551940918E0,2.637481689E-1
7.674384904E0,4.931640625E-1,-1.510391235E0,2.328643799E-1
7.679450822E0,5.077819824E-1,-1.464584351E0,1.859893799E-1
7.684516740E0,5.328369141E-1,-1.418777466E0,1.348571777E-1
7.689582658E0,5.756378174E-1,-1.369781494E0,8.158874512E-2
7.694618058E0,6.163482666E-1,-1.331420898E0,3.471374512E-2
7.699653459E0,6.601867676E-1,-1.290939331E0,-7.888793945E-3
7.704719377E0,6.925506592E-1,-1.245132446E0,-4.943847656E-2
7.709754777E0,7.144775391E-1,-1.201461792E0,-9.098815918E-2
7.714820695E0,7.416229248E-1,-1.155654907E0,-1.271972656E-1
7.719886613E0,7.729339600E-1,-1.103454590E0,-1.580963135E-1
7.724952531E0,8.167877197E-1,-1.050201416E0,-1.879272461E-1
7.730018449E0,8.668975830E-1,-1.000122070E0,-2.145538330E-1
7.735084367E0,9.065704346E-1,-9.426116943E-1,-2.369232178E-1
7.740119767E0,9.357910156E-1,-8.936004639E-1,-2.614288330E-1
7.745185685E0,9.462432861E-1,-8.552551270E-1,-2.891235352E-1
7.750251603E0,9.295349121E-1,-8.211669922E-1,-3.210754395E-1
7.755287004E0,8.856811523E-1,-7.945404053E-1,-3.658142090E-1
7.760352922E0,8.230438232E-1,-7.721557617E-1,-4.073638916E-1
7.765418840E0,7.624969482E-1,-7.583160400E-1,-4.563751221E-1
7.770484757E0,7.071685791E-1,-7.572479248E-1,-5.202789307E-1
7.775550675E0,6.727142334E-1,-7.391357422E-1,-5.874023438E-1
7.780586076E0,6.674957275E-1,-7.093048096E-1,-6.566314697E-1
7.785621476E0,6.821136475E-1,-6.933288574E-1,-7.194824219E-1
7.790687394E0,6.988220215E-1,-6.858825684E-1,-7.823333740E-1
7.795722795E0,7.134399414E-1,-6.826782227E-1,-8.419952393E-1
7.800788713E0,7.238769531E-1,-6.667022705E-1,-8.888702393E-1
7.805854631E0,7.290954590E-1,-6.485900879E-1,-9.229583740E-1
7.810890031E0,7.196960449E-1,-6.315460205E-1,-9.463958740E-1
7.815955949E0,7.092590332E-1,-6.038513184E-1,-9.613037109E-1
7.821021867E0,6.873321533E-1,-5.825500488E-1,-9.676971436E-1
7.826087785E0,6.581115723E-1,-5.644378662E-1,-9.687652588E-1
7.831123185E0,6.320037842E-1,-5.452575684E-1,-9.644927979E-1
7.836189103E0,6.090393066E-1,-5.143737793E-1,-9.591674805E-1
7.841255021E0,5.798034668E-1,-4.824066162E-1,-9.485168457E-1
7.846320939E0,5.464019775E-1,-4.611053467E-1,-9.346771240E-1
7.851386857E0,5.223846436E-1,-4.515228271E-1,-9.101715088E-1
7.856452775E0,5.046386719E-1,-4.515228271E-1,-8.718261719E-1
7.861488175E0,4.994201660E-1,-4.515228271E-1,-8.228149414E-1
7.866554093E0,4.962921143E-1,-4.472503662E-1,-7.663574219E-1
7.871620011E0,4.921112061E-1,-4.557800293E-1,-6.960601807E-1
7.876685929E0,4.858551025E-1,-4.685668945E-1,-6.193542480E-1
7.881721330E0,4.795837402E-1,-4.781494141E-1,-5.469207764E-1
7.886756730E0,4.733276367E-1,-4.674987793E-1,-4.723510742E-1
7.891822648E0,4.701995850E-1,-4.376678467E-1,-3.945770264E-1
7.896888566E0,4.649658203E-1,-3.876037598E-1,-3.274688721E-1
7.901954484E0,4.545288086E-1,-3.108978271E-1,-2.678222656E-1
7.907020402E0,4.420013428E-1,-2.597656250E-1,-2.081604004E-1
7.912086320E0,4.096374512E-1,-2.363281250E-1,-1.580963135E-1
7.917121720E0,3.720550537E-1,-2.075653076E-1,-1.165466309E-1
7.922187638E0,3.334350586E-1,-1.596374512E-1,-7.820129395E-2
7.927253556E0,2.947998047E-1,-1.170196533E-1,-4.411315918E-2
7.932288957E0,2.499237061E-1,-9.039306641E-2,-1.428222656E-2
7.937354875E0,1.893615723E-1,-7.121276855E-2,1.341247559E-2
7.942420793E0,1.162872314E-1,-5.844116211E-2,4.003906250E-2
7.947456193E0,3.695678711E-2,-4.139709473E-2,6.668090820E-2
7.952522111E0,-4.866027832E-2,-1.582336426E-2,9.437561035E-2
7.957557511E0,-1.384429932E-1,3.744506836E-2,1.220703125E-1
7.962623429E0,-2.261352539E-1,1.205291748E-1,1.561584473E-1
7.967689347E0,-3.200836182E-1,1.812438965E-1,1.977081299E-1
7.972724748E0,-4.140472412E-1,2.323760986E-1,2.530975342E-1
7.977790666E0,-5.215759277E-1,3.133392334E-1,3.084869385E-1
7.982856584E0,-6.541442871E-1,4.230651855E-1,3.628234863E-1
7.987922502E0,-8.076171875E-1,5.445098877E-1,4.320678711E-1
7.992957902E0,-9.725646973E-1,6.861877441E-1,5.076904297E-1
7.998023820E0,-1.135421753E0,8.438415527E-1,5.875854492E-1
8.003089738E0,-1.290969849E0,9.908447266E-1,6.674804688E-1
8.008155656E0,-1.447555542E0,1.129333496E0,7.420501709E-1
8.013191056E0,-1.618774414E0,1.272079468E0,8.144989014E-1
8.018256974E0,-1.785797119E0,1.393524170E0,8.890533447E-1
8.023322892E0,-1.945526123E0,1.510696411E0,9.657592773E-1
8.028388810E0,-2.049926758E0,1.661972046E0,1.026473999E0
8.033454728E0,-2.071853638E0,1.860107422E0,1.062698364E0
8.038520646E0,-2.023818970E0,2.024154663E0,1.066955566E0
8.043556047E0,-1.931961060E0,2.095535278E0,1.038192749E0
8.048621965E0,-1.792068481E0,2.068893433E0,9.806671143E-1
8.053657365E0,-1.622940063E0,1.944259644E0,9.029083252E-1
8.058692765E0,-1.452774048E0,1.743988037E0,8.059692383E-1
8.063758683E0,-1.293060303E0,1.494720459E0,7.132873535E-1
8.068824601E0,-1.175094604E0,1.193252563E0,6.344604492E-1
8.073890519E0,-1.119750977E0,8.758087158E-1,5.694885254E-1
8.078956437E0,-1.143768311E0,5.860443115E-1,5.258026123E-1
8.083991838E0,-1.234588623E0,3.197326660E-1,4.970397949E-1
8.089057756E0,-1.373443604E0,6.620788574E-2,4.821319580E-1
8.094123674E0,-1.532119751E0,-1.330108643E-1,4.906463623E-1
8.099189591E0,-1.688720703E0,-2.895965576E-1,5.290069580E-1
8.104224992E0,-1.808776855E0,-3.886718750E-1,5.865325928E-1
8.109290910E0,-1.880798340E0,-4.184875488E-1,6.568298340E-1
8.114356828E0,-1.895416260E0,-4.014434814E-1,7.186126709E-1
8.119422746E0,-1.883941650E0,-3.854675293E-1,7.633666992E-1
8.124458146E0,-1.858886719E0,-3.332672119E-1,8.091735840E-1
8.129524064E0,-1.815032959E0,-1.692199707E-1,8.603057861E-1
8.134589982E0,-1.745086670E0,9.390258789E-2,9.093017578E-1
8.139625382E0,-1.651138306E0,3.740692139E-1,9.167633057E-1
8.144691300E0,-1.535247803E0,6.499633789E-1,8.858642578E-1
8.149726701E0,-1.396408081E0,9.290618896E-1,8.347320557E-1
8.154792619E0,-1.246078491E0,1.215621948E0,7.729492188E-1
8.159858537E0,-1.100967407E0,1.478744507E0,6.994476318E-1
8.164893937E0,-9.642028809E-1,1.697128296E0,6.291351318E-1
8.169959855E0,-8.337097168E-1,1.849456787E0,5.577697754E-1
8.175025773E0,-7.209625244E-1,1.945327759E0,4.917144775E-1
8.180091691E0,-6.176147461E-1,1.999649048E0,4.491119385E-1
8.185127091E0,-5.330505371E-1,2.017761230E0,4.096984863E-1
8.190193009E0,-4.672851562E-1,1.992202759E0,3.670806885E-1
8.195258927E0,-4.213562012E-1,1.937866211E0,3.202056885E-1
8.200294328E0,-3.973388672E-1,1.845199585E0,2.733306885E-1
8.205360246E0,-4.015197754E-1,1.716293335E0,2.285919189E-1
8.210426164E0,-4.192657471E-1,1.576751709E0,1.923828125E-1
8.215492082E0,-4.422302246E-1,1.436126709E0,1.572265625E-1
8.220558000E0,-4.683227539E-1,1.296585083E0,1.178131104E-1
8.225623918E0,-5.059051514E-1,1.170883179E0,7.839965820E-2
8.230689836E0,-5.455780029E-1,1.054763794E0,3.791809082E-2
8.235725236E0,-5.831604004E-1,9.514312744E-1,4.898071289E-3
8.240760636E0,-6.061248779E-1,8.843231201E-1,-2.281188965E-2
8.245826554E0,-6.071777344E-1,8.491668701E-1,-4.837036133E-2
8.250861955E0,-5.883789062E-1,8.417205811E-1,-7.926940918E-2
8.255927873E0,-5.466308594E-1,8.406524658E-1,-1.069641113E-1
8.260993791E0,-4.808502197E-1,8.491668701E-1,-1.346588135E-1
8.266059709E0,-3.795928955E-1,8.683471680E-1,-1.644897461E-1
8.271095109E0,-2.480468750E-1,9.035034180E-1,-1.900482178E-1
8.276130509E0,-9.355163574E-2,9.503631592E-1,-2.166900635E-1
8.281196427E0,8.497619629E-2,1.002563477E0,-2.369232178E-1
8.286262345E0,2.770538330E-1,1.060089111E0,-2.571563721E-1
8.291328263E0,4.701995850E-1,1.104827881E0,-2.731475830E-1
8.296394181E0,6.560211182E-1,1.105895996E0,-2.827301025E-1
8.301460099E0,8.314056396E-1,1.089920044E0,-2.880554199E-1
8.306495500E0,9.900817871E-1,1.075012207E0,-2.859191895E-1
8.311561418E0,1.135192871E0,1.024932861E0,-2.869873047E-1
8.316627336E0,1.256286621E0,9.439849854E-1,-2.774047852E-1
8.321693254E0,1.357559204E0,8.513031006E-1,-2.624969482E-1
8.326728654E0,1.440032959E0,7.586212158E-1,-2.454528809E-1
8.331794572E0,1.499542236E0,6.691436768E-1,-2.273406982E-1
8.336860490E0,1.531906128E0,5.860443115E-1,-2.006988525E-1
8.341895890E0,1.541290283E0,5.104217529E-1,-1.666107178E-1
8.346961808E0,1.524597168E0,4.379730225E-1,-1.229400635E-1
8.352027726E0,1.477615356E0,3.708648682E-1,-6.861877441E-2
8.357093644E0,1.408706665E0,3.026885986E-1,-1.495361328E-3
8.362159562E0,1.307449341E0,2.504882812E-1,7.093811035E-2
8.367194963E0,1.159210205E0,2.313232422E-1,1.380462646E-1
8.372260881E0,9.692077637E-1,2.536926270E-1,1.998291016E-1
8.377326799E0,7.624969482E-1,3.271942139E-1,2.509613037E-1
8.382362199E0,5.422210693E-1,4.422454834E-1,2.978363037E-1
8.387428117E0,3.365631104E-1,5.636749268E-1,3.436431885E-1
8.392494035E0,1.497039795E-1,6.638183594E-1,3.873138428E-1
8.397559953E0,-1.211547852E-2,7.181396484E-1,4.277954102E-1
8.402595353E0,-1.509704590E-1,7.330627441E-1,4.576263428E-1
8.407661271E0,-2.626647949E-1,7.096252441E-1,4.863891602E-1
8.412727189E0,-3.524475098E-1,6.574249268E-1,5.215454102E-1
8.417762590E0,-4.223937988E-1,5.913696289E-1,5.481719971E-1
8.422828507E0,-4.704132080E-1,5.146789551E-1,5.556335449E-1
8.427863908E0,-4.933776855E-1,4.358520508E-1,5.417785645E-1
8.432899308E0,-4.975585938E-1,3.538208008E-1,5.087585449E-1
8.437965226E0,-4.787597656E-1,2.941741943E-1,4.586944580E-1
8.443031144E0,-4.203033447E-1,2.643432617E-1,3.894500732E-1
8.448097062E0,-3.179931641E-1,2.920379639E-1,3.031616211E-1
8.453162980E0,-1.875000000E-1,3.932342529E-1,2.083587646E-1
8.458198381E0,-9.040832520E-2,5.146789551E-1,1.028900146E-1
8.463264299E0,-2.673339844E-2,5.700683594E-1,-8.956909180E-3
8.468330216E0,3.172302246E-2,5.722045898E-1,-1.037597656E-1
8.473396134E0,1.006317139E-1,5.242614746E-1,-1.559600830E-1
8.478462052E0,1.517791748E-1,4.432983398E-1,-1.762084961E-1
8.483527970E0,1.309051514E-1,3.666076660E-1,-1.793975830E-1
8.488563371E0,4.217529297E-2,2.856445312E-1,-1.815338135E-1
8.493629289E0,-7.997131348E-2,1.918945312E-1,-1.793975830E-1
8.498664689E0,-1.843719482E-1,9.283447266E-2,-1.666107178E-1
8.503730607E0,-2.146453857E-1,-2.435302734E-2,-1.453094482E-1
8.508766007E0,-1.822814941E-1,-2.203521729E-1,-1.250762939E-1
8.513831925E0,-1.018981934E-1,-5.026550293E-1,-1.144256592E-1
8.518897843E0,4.008483887E-2,-7.615051270E-1,-1.357269287E-1
8.523963761E0,2.384338379E-1,-8.999938965E-1,-1.985778809E-1
8.528999162E0,4.138183594E-1,-9.436645508E-1,-2.603607178E-1
8.534065080E0,4.900207520E-1,-9.543151855E-1,-2.518310547E-1
8.539130998E0,4.743652344E-1,-9.372711182E-1,-1.975097656E-1
8.544196916E0,4.075622559E-1,-9.085235596E-1,-1.485137939E-1
8.549232316E0,3.355255127E-1,-8.754882812E-1,-9.524536133E-2
8.554298234E0,2.875061035E-1,-8.211669922E-1,-3.453063965E-2
8.559364152E0,2.791442871E-1,-7.540588379E-1,4.898071289E-3
8.564430070E0,2.906341553E-1,-7.093048096E-1,8.087158203E-3
8.569465470E0,2.906341553E-1,-6.965332031E-1,-7.888793945E-3
8.574531388E0,2.801971436E-1,-7.007904053E-1,-3.132629395E-2
8.579597306E0,2.770538330E-1,-7.348785400E-1,-5.795288086E-2
8.584632707E0,2.937622070E-1,-7.828216553E-1,-8.139038086E-2
8.589698625E0,3.365631104E-1,-8.403320312E-1,-1.037597656E-1
8.594764543E0,3.918914795E-1,-8.989257812E-1,-1.208038330E-1
8.599830461E0,4.545288086E-1,-9.649810791E-1,-1.442413330E-1
8.604865861E0,5.359649658E-1,-1.041671753E0,-1.719360352E-1
8.609931779E0,6.320037842E-1,-1.088546753E0,-1.911163330E-1
8.614997697E0,7.228240967E-1,-1.103454590E0,-2.081604004E-1
8.620033097E0,8.094787598E-1,-1.119445801E0,-2.262725830E-1
8.625099015E0,8.992614746E-1,-1.152465820E0,-2.454528809E-1
8.630134416E0,9.712982178E-1,-1.200393677E0,-2.571563721E-1
8.635200334E0,1.014099121E0,-1.271774292E0,-2.635498047E-1
8.640266252E0,1.030792236E0,-1.303726196E0,-2.731475830E-1
8.645332170E0,1.021408081E0,-1.299468994E0,-2.763366699E-1
8.650398088E0,9.911346436E-1,-1.309051514E0,-2.550354004E-1
8.655464006E0,9.389343262E-1,-1.338882446E0,-2.124176025E-1
8.660499406E0,8.762969971E-1,-1.382553101E0,-1.580963135E-1
8.665565324E0,8.032226562E-1,-1.435821533E0,-8.992004395E-2
8.670631242E0,7.353515625E-1,-1.494415283E0,-2.281188965E-2
8.675697160E0,6.654052734E-1,-1.537017822E0,4.217529297E-2
8.680732560E0,5.923309326E-1,-1.564712524E0,1.007690430E-1
8.685767961E0,5.286560059E-1,-1.592422485E0,1.508331299E-1
8.690833879E0,4.816741943E-1,-1.612655640E0,2.008972168E-1
8.695899797E0,4.493103027E-1,-1.616912842E0,2.488403320E-1
8.700965715E0,4.273834229E-1,-1.632888794E0,2.871856689E-1
8.706031632E0,4.085998535E-1,-1.652069092E0,3.063659668E-1
8.711097550E0,4.148559570E-1,-1.638229370E0,3.095550537E-1
8.716132951E0,4.367828369E-1,-1.630767822E0,2.957153320E-1
8.721198869E0,4.722747803E-1,-1.613723755E0,2.754669189E-1
8.726264787E0,5.150756836E-1,-1.586029053E0,2.467041016E-1
8.731300187E0,5.672760010E-1,-1.556198120E0,2.200775146E-1
8.736335588E0,6.184387207E-1,-1.519973755E0,1.870574951E-1
8.741401506E0,6.643676758E-1,-1.479492188E0,1.401824951E-1
8.746467424E0,7.113494873E-1,-1.424102783E0,9.223937988E-2
8.751533341E0,7.478790283E-1,-1.354858398E0,3.045654297E-2
8.756568742E0,7.645874023E-1,-1.293075562E0,-3.985595703E-2
8.761634660E0,7.698059082E-1,-1.239807129E0,-1.090850830E-1
8.766700578E0,7.677154541E-1,-1.190811157E0,-1.751403809E-1
8.771766496E0,7.593688965E-1,-1.141815186E0,-2.369232178E-1
8.776832414E0,7.447509766E-1,-1.097061157E0,-2.933807373E-1
8.781867814E0,7.280578613E-1,-1.050201416E0,-3.423919678E-1
8.786903215E0,7.009124756E-1,-1.000122070E0,-3.860626221E-1
8.791969132E0,6.674957275E-1,-9.585876465E-1,-4.265441895E-1
8.797035050E0,6.267852783E-1,-9.287567139E-1,-4.499816895E-1
8.802100968E0,5.798034668E-1,-9.117126465E-1,-4.744720459E-1
8.807136369E0,5.317840576E-1,-9.031829834E-1,-5.000457764E-1
8.812202287E0,4.962921143E-1,-8.957366943E-1,-5.309295654E-1
8.817268205E0,4.733276367E-1,-9.031829834E-1,-5.692901611E-1
8.822303605E0,4.576721191E-1,-9.053192139E-1,-6.044464111E-1
8.827369523E0,4.743652344E-1,-8.584442139E-1,-6.438598633E-1
8.832435441E0,5.067291260E-1,-8.222351074E-1,-6.917877197E-1
8.837501359E0,5.338745117E-1,-7.945404053E-1,-7.386627197E-1
8.842567277E0,5.495300293E-1,-7.540588379E-1,-7.844696045E-1
8.847633195E0,5.505828857E-1,-7.189025879E-1,-8.260192871E-1
8.852668595E0,5.411834717E-1,-6.912078857E-1,-8.686218262E-1
8.857734513E0,5.265655518E-1,-6.613769531E-1,-9.069824219E-1
8.862769914E0,5.088195801E-1,-6.294097900E-1,-9.389343262E-1
8.867835832E0,5.015106201E-1,-5.899963379E-1,-9.613037109E-1
8.872901750E0,4.879455566E-1,-5.527191162E-1,-9.804840088E-1
8.877937150E0,4.722747803E-1,-5.207672119E-1,-9.858093262E-1
8.883003068E0,4.555816650E-1,-4.930572510E-1,-9.847412109E-1
8.888068986E0,4.367828369E-1,-4.781494141E-1,-9.740905762E-1
8.893104386E0,4.273834229E-1,-4.696197510E-1,-9.474487305E-1
8.898170304E0,4.294738770E-1,-4.738922119E-1,-9.069824219E-1
8.903236222E0,4.284362793E-1,-4.792175293E-1,-8.515777588E-1
8.908271623E0,4.284362793E-1,-4.920043945E-1,-7.834014893E-1
8.913337541E0,4.221649170E-1,-4.973297119E-1,-7.077636719E-1
8.918403459E0,4.023284912E-1,-4.983825684E-1,-6.182861328E-1
8.923469377E0,3.825073242E-1,-4.792175293E-1,-5.192260742E-1
8.928504777E0,3.657989502E-1,-4.227600098E-1,-4.095001221E-1
8.933570695E0,3.543090820E-1,-3.279418945E-1,-2.987060547E-1
8.938636613E0,3.428344727E-1,-2.619018555E-1,-1.911163330E-1
8.943702531E0,3.271636963E-1,-2.192840576E-1,-9.738159180E-2
8.948768449E0,3.146362305E-1,-1.713562012E-1,-2.706909180E-2
8.953803849E0,2.885437012E-1,-1.255493164E-1,2.406311035E-2
8.958869767E0,2.436523438E-1,-7.653808594E-2,5.603027344E-2
8.963935685E0,1.862335205E-1,-2.647399902E-2,7.200622559E-2
8.968971086E0,1.121215820E-1,2.572631836E-2,8.158874512E-2
8.974037004E0,3.799438477E-2,6.726074219E-2,9.011840820E-2
8.979102922E0,-4.029846191E-2,1.002960205E-1,9.863281250E-2
8.984168840E0,-1.154632568E-1,1.258544922E-1,1.146087646E-1
8.989234757E0,-1.989898682E-1,1.492919922E-1,1.455078125E-1
8.994270158E0,-2.877197266E-1,1.918945312E-1,1.891784668E-1
8.999336076E0,-3.921203613E-1,2.579498291E-1,2.371215820E-1
9.004371476E0,-4.965209961E-1,3.293151855E-1,2.946472168E-1
9.009437394E0,-6.301422119E-1,4.070892334E-1,3.670806885E-1
9.014503312E0,-8.003082275E-1,4.997558594E-1,4.491119385E-1
9.019538713E0,-9.871673584E-1,6.094818115E-1,5.417785645E-1
9.024604631E0,-1.174041748E0,7.724761963E-1,6.440429688E-1
9.029670549E0,-1.350479126E0,9.855194092E-1,7.250061035E-1
9.034705949E0,-1.495590210E0,1.169815063E0,7.995758057E-1
9.039771867E0,-1.632339478E0,1.311492920E0,8.847961426E-1
9.044837785E0,-1.775360107E0,1.416961670E0,9.710845947E-1
9.049903703E0,-1.914215088E0,1.478744507E0,1.048843384E0
9.054969621E0,-2.007125854E0,1.565032959E0,1.112762451E0
9.060005021E0,-2.018600464E0,1.680068970E0,1.162826538E0
9.065070939E0,-1.967453003E0,1.737594604E0,1.177749634E0
9.070136857E0,-1.891250610E0,1.736541748E0,1.154312134E0
9.075172257E0,-1.775360107E0,1.679016113E0,1.099990845E0
9.080238175E0,-1.627120972E0,1.540527344E0,1.036071777E0
9.085304093E0,-1.469482422E0,1.326416016E0,9.817352295E-1
9.090339494E0,-1.324371338E0,1.072875977E0,9.402008057E-1
9.095405412E0,-1.211624146E0,8.182830811E-1,9.007720947E-1
9.100471330E0,-1.144805908E0,5.956420898E-1,8.581695557E-1
9.105506730E0,-1.142730713E0,4.060211182E-1,8.017120361E-1
9.110572648E0,-1.188659668E0,2.302551270E-1,7.409820557E-1
9.115638566E0,-1.260696411E0,7.153320312E-2,7.015686035E-1
9.120704484E0,-1.345245361E0,-4.139709473E-2,6.834716797E-1
9.125739884E0,-1.429809570E0,-1.191558838E-1,6.855926514E-1
9.130805802E0,-1.498718262E0,-1.564331055E-1,7.058410645E-1
9.135871720E0,-1.538391113E0,-1.436614990E-1,7.431182861E-1
9.140907121E0,-1.578048706E0,-1.308746338E-1,7.761383057E-1
9.145973039E0,-1.625030518E0,-9.358215332E-2,7.974548340E-1
9.151038957E0,-1.666793823E0,4.170227051E-2,8.219451904E-1
9.156104875E0,-1.675140381E0,2.515563965E-1,8.411254883E-1
9.161140275E0,-1.635467529E0,4.912414551E-1,8.176879883E-1
9.166206193E0,-1.558227539E0,7.469024658E-1,7.665557861E-1
9.171272111E0,-1.455917358E0,1.000442505E0,6.919860840E-1
9.176307511E0,-1.323333740E0,1.242248535E0,6.056976318E-1
9.181373429E0,-1.164642334E0,1.464889526E0,5.194091797E-1
9.186439347E0,-9.965667725E-1,1.664093018E0,4.480438232E-1
9.191505265E0,-8.431091309E-1,1.821762085E0,3.883819580E-1
9.196540666E0,-7.094879150E-1,1.932540894E0,3.319244385E-1
9.201606584E0,-5.988159180E-1,1.986877441E0,2.829284668E-1
9.206672502E0,-5.100860596E-1,1.995391846E0,2.392425537E-1
9.211707902E0,-4.349212646E-1,1.968765259E0,1.987762451E-1
9.216773820E0,-3.785400391E-1,1.927215576E0,1.710662842E-1
9.221839738E0,-3.420104980E-1,1.872894287E0,1.380462646E-1
9.226875138E0,-3.284301758E-1,1.784469604E0,9.756469727E-2
9.231941056E0,-3.357391357E-1,1.674743652E0,5.175781250E-2
9.237006974E0,-3.545379639E-1,1.569290161E0,1.448059082E-2
9.242072892E0,-3.733215332E-1,1.465957642E0,-1.321411133E-2
9.247108293E0,-3.900299072E-1,1.364761353E0,-4.837036133E-2
9.252174211E0,-4.140472412E-1,1.269943237E0,-8.992004395E-2
9.257240129E0,-4.370117188E-1,1.175140381E0,-1.325225830E-1
9.262275529E0,-4.725036621E-1,1.067550659E0,-1.708831787E-1
9.267341447E0,-5.194854736E-1,9.695434570E-1,-2.113647461E-1
9.272407365E0,-5.591583252E-1,9.152221680E-1,-2.486419678E-1
9.277473283E0,-5.789794922E-1,8.896484375E-1,-2.869873047E-1
9.282508683E0,-5.601959229E-1,8.949737549E-1,-3.242797852E-1
9.287574601E0,-5.059051514E-1,9.258728027E-1,-3.562316895E-1
9.292640519E0,-4.182128906E-1,9.887237549E-1,-3.860626221E-1
9.297675920E0,-3.013000488E-1,1.066482544E0,-4.137573242E-1
9.302741838E0,-1.572265625E-1,1.155960083E0,-4.403839111E-1
9.307807756E0,1.606750488E-2,1.248641968E0,-4.659576416E-1
9.312873674E0,2.091979980E-1,1.344512939E0,-4.861907959E-1
9.317909074E0,4.096374512E-1,1.432937622E0,-4.968414307E-1
9.322974992E0,6.080017090E-1,1.488327026E0,-4.968414307E-1
9.328040910E0,7.875518799E-1,1.492584229E0,-5.021820068E-1
9.333076310E0,9.410247803E-1,1.451049805E0,-4.840698242E-1
9.338142228E0,1.065246582E0,1.373275757E0,-4.553070068E-1
9.343208146E0,1.163375854E0,1.249710083E0,-4.169464111E-1
9.348274064E0,1.240631104E0,1.088851929E0,-3.647613525E-1
9.353309465E0,1.294921875E0,9.141540527E-1,-3.019104004E-1
9.358375382E0,1.336685181E0,7.415771484E-1,-2.326660156E-1
9.363441300E0,1.363815308E0,5.743255615E-1,-1.570281982E-1
9.368476701E0,1.367996216E0,4.241333008E-1,-7.820129395E-2
9.373542619E0,1.355468750E0,2.856445312E-1,2.761840820E-3
9.378608537E0,1.326232910E0,1.631469727E-1,7.519531250E-2
9.383643937E0,1.278213501E0,5.235290527E-2,1.423034668E-1
9.388709855E0,1.210357666E0,-4.991149902E-2,1.977081299E-1
9.393775773E0,1.120574951E0,-1.223449707E-1,2.328643799E-1
9.398811174E0,9.900817871E-1,-1.575012207E-1,2.509613037E-1
9.403877091E0,8.199157715E-1,-1.436614990E-1,2.584228516E-1
9.408943009E0,6.215667725E-1,-7.334899902E-2,2.530975342E-1
9.414008927E0,4.023284912E-1,4.595947266E-2,2.520294189E-1
9.419074845E0,1.810150146E-1,1.929626465E-1,2.637481689E-1
9.424110246E0,-3.404235840E-2,3.197326660E-1,2.871856689E-1
9.429176164E0,-2.428283691E-1,3.889770508E-1,3.138122559E-1
9.434242082E0,-4.297027588E-1,4.156036377E-1,3.489685059E-1
9.439277482E0,-5.852508545E-1,4.060211182E-1,3.979797363E-1
9.444343400E0,-6.990356445E-1,3.548889160E-1,4.586944580E-1
9.449409318E0,-7.616729736E-1,2.813873291E-1,5.236816406E-1
9.454444718E0,-7.804718018E-1,2.132110596E-1,5.726776123E-1
9.459510636E0,-7.637634277E-1,1.514282227E-1,5.875854492E-1
9.464576554E0,-7.240905762E-1,1.077423096E-1,5.684204102E-1
9.469611955E0,-6.708526611E-1,9.069824219E-2,5.151519775E-1
9.474677873E0,-5.956878662E-1,1.130676270E-1,4.309997559E-1
9.479743791E0,-4.975585938E-1,1.705932617E-1,3.276672363E-1
9.484779191E0,-3.889923096E-1,2.547454834E-1,2.200775146E-1
9.489845109E0,-2.981567383E-1,3.389129639E-1,1.103515625E-1
9.494911027E0,-2.261352539E-1,3.932342529E-1,6.256103516E-4
9.499976945E0,-1.634979248E-1,4.177398682E-1,-9.204101562E-2
9.505012345E0,-1.008605957E-1,4.252014160E-1,-1.570281982E-1
9.510078263E0,-4.760742188E-2,4.145355225E-1,-1.826019287E-1
9.515144181E0,-2.716064453E-3,3.740692139E-1,-1.826019287E-1
9.520179582E0,2.859497070E-2,3.208007812E-1,-1.793975830E-1
9.525245500E0,2.859497070E-2,2.632751465E-1,-1.793975830E-1
9.530311418E0,-1.733398438E-2,1.823120117E-1,-1.889801025E-1
9.535377336E0,-1.238250732E-1,7.472229004E-2,-1.932525635E-1
9.540443254E0,-2.689361572E-1,-5.311584473E-2,-1.932525635E-1
9.545478654E0,-3.983764648E-1,-1.798706055E-1,-1.751403809E-1
9.550544572E0,-4.370117188E-1,-3.119659424E-1,-1.548919678E-1
9.555579972E0,-3.670654297E-1,-4.802856445E-1,-1.506347656E-1
9.560645890E0,-2.490997314E-1,-6.986541748E-1,-1.623535156E-1
9.565711808E0,-1.217346191E-1,-9.159698486E-1,-1.666107178E-1
9.570777726E0,1.397705078E-2,-1.039550781E0,-1.421203613E-1
9.575813127E0,1.684875488E-1,-1.044876099E0,-1.218719482E-1
9.580879045E0,3.041992188E-1,-1.016113281E0,-7.713317871E-2
9.585944963E0,4.002532959E-1,-1.015045166E0,-1.748657227E-2
9.591010881E0,4.858551025E-1,-1.016113281E0,4.431152344E-2
9.596046281E0,5.558013916E-1,-9.990692139E-1,9.544372559E-2
9.601112199E0,5.954742432E-1,-9.788208008E-1,1.082153320E-1
9.606178117E0,5.933837891E-1,-9.628448486E-1,8.479309082E-2
9.611213517E0,5.558013916E-1,-9.436645508E-1,3.152465820E-2
9.616279435E0,5.130004883E-1,-9.085235596E-1,-3.132629395E-2
9.621345353E0,4.827270508E-1,-8.563232422E-1,-8.245849609E-2
9.626380754E0,4.743652344E-1,-8.073120117E-1,-1.293334961E-1
9.631446672E0,4.921112061E-1,-7.849426270E-1,-1.793975830E-1
9.636512590E0,5.140380859E-1,-7.870788574E-1,-2.220153809E-1
9.641547990E0,5.547485352E-1,-8.062438965E-1,-2.561035156E-1
9.646613908E0,6.090393066E-1,-8.392791748E-1,-2.816619873E-1
9.651679826E0,6.716766357E-1,-8.776245117E-1,-2.933807373E-1
9.656745744E0,7.280578613E-1,-9.244995117E-1,-2.955169678E-1
9.661781144E0,7.854614258E-1,-9.841461182E-1,-2.827301025E-1
9.666847062E0,8.460235596E-1,-1.054458618E0,-2.646179199E-1
9.671912980E0,8.961334229E-1,-1.136489868E0,-2.528991699E-1
9.676948381E0,9.243164062E-1,-1.217437744E0,-2.422485352E-1
9.682014299E0,9.316253662E-1,-1.299468994E0,-2.337341309E-1
9.687080216E0,9.211883545E-1,-1.374038696E0,-2.315979004E-1
9.692146134E0,8.867340088E-1,-1.439010620E0,-2.305297852E-1
9.697181535E0,8.293151855E-1,-1.494415283E0,-2.305297852E-1
9.702247453E0,7.624969482E-1,-1.543411255E0,-2.198791504E-1
9.707313371E0,6.936035156E-1,-1.591354370E0,-1.943206787E-1
9.712348771E0,6.340942383E-1,-1.639282227E0,-1.634216309E-1
9.717414689E0,5.808563232E-1,-1.680831909E0,-1.271972656E-1
9.722480607E0,5.380554199E-1,-1.725570679E0,-8.992004395E-2
9.727546525E0,5.077819824E-1,-1.763916016E0,-4.943847656E-2
9.732581925E0,4.994201660E-1,-1.793746948E0,-5.767822266E-3
9.737647843E0,4.983825684E-1,-1.804397583E0,3.578186035E-2
9.742713761E0,5.140380859E-1,-1.792678833E0,7.626342773E-2
9.747749162E0,5.317840576E-1,-1.776702881E0,1.092834473E-1
9.752815080E0,5.422210693E-1,-1.779907227E0,1.273956299E-1
9.757880998E0,5.610198975E-1,-1.724502563E0,1.337890625E-1
9.762916398E0,5.871124268E-1,-1.661651611E0,1.210021973E-1
9.767982316E0,6.142578125E-1,-1.616912842E0,9.756469727E-2
9.773048234E0,6.424407959E-1,-1.559387207E0,6.347656250E-2
9.778114152E0,6.748046875E-1,-1.490158081E0,1.341247559E-2
9.783149552E0,7.113494873E-1,-1.407058716E0,-3.771972656E-2
9.788215470E0,7.468414307E-1,-1.305862427E0,-8.566284180E-2
9.793281388E0,7.844238281E-1,-1.220642090E0,-1.378479004E-1
9.798347306E0,8.251342773E-1,-1.138610840E0,-1.921844482E-1
9.803382707E0,8.658599854E-1,-1.065109253E0,-2.411804199E-1
9.808448625E0,8.919525146E-1,-9.873504639E-1,-2.827301025E-1
9.813514543E0,9.055175781E-1,-9.117126465E-1,-3.253479004E-1
9.818549943E0,9.065704346E-1,-8.477935791E-1,-3.594360352E-1
9.823615861E0,9.023895264E-1,-7.806854248E-1,-3.860626221E-1
9.828681779E0,8.950805664E-1,-7.125091553E-1,-4.084320068E-1
9.833717179E0,8.815155029E-1,-6.613769531E-1,-4.329376221E-1
9.838783097E0,8.595886230E-1,-6.272888184E-1,-4.638214111E-1
9.843849015E0,8.293151855E-1,-6.177062988E-1,-4.702148438E-1
9.848884416E0,7.938232422E-1,-6.113128662E-1,-4.808654785E-1
9.853950334E0,7.499694824E-1,-6.006622314E-1,-5.085601807E-1
9.859016252E0,7.019500732E-1,-6.049194336E-1,-5.458526611E-1
9.864082170E0,6.518402100E-1,-6.368713379E-1,-5.735473633E-1
9.869117570E0,6.246948242E-1,-6.368713379E-1,-5.980529785E-1
9.874183488E0,6.163482666E-1,-6.251525879E-1,-6.278686523E-1
9.879249406E0,6.132202148E-1,-6.283569336E-1,-6.619567871E-1
9.884284806E0,6.132202148E-1,-6.368713379E-1,-6.949920654E-1
9.889350724E0,6.205291748E-1,-6.390075684E-1,-7.258758545E-1
9.894416642E0,6.361846924E-1,-6.358032227E-1,-7.546386719E-1
9.899482560E0,6.424407959E-1,-6.219635010E-1,-7.738189697E-1
9.904517961E0,6.455841064E-1,-6.081085205E-1,-7.940521240E-1
9.909583879E0,6.466217041E-1,-5.921325684E-1,-8.174896240E-1
9.914649797E0,6.508026123E-1,-5.655059814E-1,-8.377380371E-1
9.919715715E0,6.508026123E-1,-5.356750488E-1,-8.590393066E-1
9.924751115E0,6.361846924E-1,-5.015869141E-1,-8.782196045E-1
9.929817033E0,6.152954102E-1,-4.749603271E-1,-8.973846436E-1
9.934882951E0,5.902404785E-1,-4.632415771E-1,-9.133605957E-1
9.939918351E0,5.683288574E-1,-4.621734619E-1,-9.197540283E-1
9.944984269E0,5.547485352E-1,-4.642944336E-1,-9.123077393E-1
9.950050187E0,5.495300293E-1,-4.696197510E-1,-8.878021240E-1
9.955085588E0,5.411834717E-1,-4.749603271E-1,-8.473205566E-1
9.960151506E0,5.234375000E-1,-4.749603271E-1,-7.823333740E-1
9.965217424E0,5.056915283E-1,-4.525756836E-1,-7.045745850E-1
9.970283341E0,5.046386719E-1,-4.163665771E-1,-6.033782959E-1
9.975318742E0,5.067291260E-1,-3.726806641E-1,-5.011138916E-1
9.980384660E0,5.067291260E-1,-3.162231445E-1,-3.967132568E-1
9.985450578E0,5.015106201E-1,-2.597656250E-1,-3.050994873E-1
9.990485978E0,4.900207520E-1,-1.926574707E-1,-2.166900635E-1
9.995551896E0,4.774932861E-1,-1.234130859E-1,-1.389160156E-1
1.000061781E1,4.514007568E-1,-6.481933594E-2,-8.139038086E-2
1.000568373E1,4.065093994E-1,-2.647399902E-2,-4.730224609E-2
1.001071913E1,3.563995361E-1,-1.983642578E-3,-3.346252441E-2
1.001578505E1,3.041992188E-1,1.293945312E-2,-2.813720703E-2
1.002085097E1,2.415618896E-1,1.933288574E-2,-3.771972656E-2
1.002588637E1,1.883239746E-1,1.400756836E-2,-4.090881348E-2
1.003095229E1,1.507415771E-1,2.784729004E-2,-2.600097656E-2
1.003601821E1,1.194152832E-1,6.513977051E-2,9.155273438E-3
1.004105360E1,9.019470215E-2,1.013488770E-1,6.454467773E-2
1.004611952E1,4.948425293E-2,1.237182617E-1,1.295318604E-1
1.005118544E1,-1.420593262E-2,1.482238770E-1,1.977081299E-1
1.005625136E1,-1.060791016E-1,1.918945312E-1,2.690734863E-1
1.006128676E1,-2.052459717E-1,2.899017334E-1,3.436431885E-1
1.006635268E1,-3.253021240E-1,4.326477051E-1,4.182128906E-1
1.007141860E1,-4.662322998E-1,5.626068115E-1,5.045013428E-1
1.007648451E1,-6.144866943E-1,6.904449463E-1,5.950469971E-1
1.008151991E1,-7.721252441E-1,8.321228027E-1,6.770782471E-1
1.008658583E1,-9.360198975E-1,9.748687744E-1,7.463226318E-1
1.009165175E1,-1.096786499E0,1.118682861E0,8.112945557E-1
1.009668715E1,-1.261734009E0,1.258224487E0,8.634948730E-1
1.010175307E1,-1.424591064E0,1.370086670E0,9.029083252E-1
1.010681899E1,-1.564483643E0,1.449981689E0,9.295349121E-1
1.011188490E1,-1.665740967E0,1.526672363E0,9.540405273E-1
1.011692030E1,-1.713775635E0,1.641723633E0,9.551086426E-1
1.012198622E1,-1.710632324E0,1.746124268E0,9.252777100E-1
