"Time (s)","Gyroscope x (rad/s)","Gyroscope y (rad/s)","Gyroscope z (rad/s)"
5.480000000E-3,1.659633517E-1,2.035053968E-1,3.855781257E-1
7.480000000E-3,1.650557816E-1,2.362477630E-1,3.974638283E-1
9.480000000E-3,1.631010175E-1,2.666164935E-1,4.108330607E-1
1.148000000E-2,1.616698503E-1,2.947511971E-1,4.254240096E-1
1.348000000E-2,1.604655683E-1,3.200933933E-1,4.401894808E-1
1.548000000E-2,1.580744684E-1,3.424161375E-1,4.550422430E-1
1.748000000E-2,1.552121341E-1,3.612831533E-1,4.705582261E-1
1.948000000E-2,1.521577984E-1,3.777939677E-1,4.866676033E-1
2.148000000E-2,1.487020552E-1,3.920882046E-1,5.036321878E-1
2.348000000E-2,1.454033852E-1,4.032757878E-1,5.215916634E-1
2.548000000E-2,1.421570629E-1,4.128925502E-1,5.393067598E-1
2.748000000E-2,1.392598152E-1,4.237310290E-1,5.572661757E-1
2.948000000E-2,1.368163526E-1,4.379380047E-1,5.765694976E-1
3.148000000E-2,1.342507303E-1,4.563512504E-1,5.973563790E-1
3.348000000E-2,1.297303289E-1,4.780456722E-1,6.197140813E-1
3.548000000E-2,1.228362694E-1,5.010840297E-1,6.442708373E-1
3.748000000E-2,1.140398160E-1,5.233893394E-1,6.706951261E-1
3.948000000E-2,1.028871611E-1,5.429021120E-1,6.975382566E-1
4.148000000E-2,9.044296294E-2,5.596747398E-1,7.239276767E-1
4.348000000E-2,7.749261707E-2,5.747020245E-1,7.495141625E-1
4.548000000E-2,6.401867419E-2,5.890311599E-1,7.750832438E-1
4.748000000E-2,5.063199997E-2,6.027669311E-1,8.009490371E-1
4.948000000E-2,3.729768470E-2,6.162408590E-1,8.269544244E-1
5.148000000E-2,2.335250564E-2,6.296100616E-1,8.536230922E-1
5.348000000E-2,9.145525284E-3,6.413735747E-1,8.796459436E-1
5.548000000E-2,-5.131267942E-3,6.505714655E-1,9.044296145E-1
5.748000000E-2,-1.853539608E-2,6.571688056E-1,9.290387630E-1
5.948000000E-2,-3.155555204E-2,6.611132622E-1,9.529497623E-1
6.148000000E-2,-4.537856206E-2,6.630331278E-1,9.762499332E-1
6.348000000E-2,-5.890486389E-2,6.622302532E-1,9.986773729E-1
6.548000000E-2,-7.134906203E-2,6.577971578E-1,1.020424247E0
6.748000000E-2,-8.304276317E-2,6.496813297E-1,1.040966749E0
6.948000000E-2,-9.412560612E-2,6.372371316E-1,1.059432268E0
7.148000000E-2,-1.043008789E-1,6.207961440E-1,1.077356815E0
7.348000000E-2,-1.144586951E-1,6.005328894E-1,1.096642733E0
7.548000000E-2,-1.245816052E-1,5.771454573E-1,1.117447019E0
7.748000000E-2,-1.340761930E-1,5.511924028E-1,1.139473081E0
7.948000000E-2,-1.439198554E-1,5.220105052E-1,1.163593531E0
8.148000000E-2,-1.539380401E-1,4.912054539E-1,1.189511657E0
8.348000000E-2,-1.633802652E-1,4.597197175E-1,1.217419505E0
8.548000000E-2,-1.722639948E-1,4.279721975E-1,1.247404218E0
8.748000000E-2,-1.806241274E-1,3.970449567E-1,1.279186726E0
8.948000000E-2,-1.878148764E-1,3.671125472E-1,1.313587189E0
9.148000000E-2,-1.929461509E-1,3.378782868E-1,1.350308895E0
9.348000000E-2,-1.962971836E-1,3.089232743E-1,1.388304710E0
9.548000000E-2,-1.973443776E-1,2.797762752E-1,1.427749157E0
9.748000000E-2,-1.965240687E-1,2.508736253E-1,1.468432784E0
9.948000000E-2,-1.933301240E-1,2.249031216E-1,1.509605050E0
1.014800000E-1,-1.873087287E-1,2.032959461E-1,1.550358534E0
1.034800000E-1,-1.798038185E-1,1.859648377E-1,1.590309143E0
1.054800000E-1,-1.710597128E-1,1.732413769E-1,1.630556345E0
1.074800000E-1,-1.618269235E-1,1.652128696E-1,1.671239972E0
1.094800000E-1,-1.520705372E-1,1.625774205E-1,1.710527420E0
1.114800000E-1,-1.417905539E-1,1.662426144E-1,1.748627901E0
1.134800000E-1,-1.331860721E-1,1.765749604E-1,1.787478924E0
1.154800000E-1,-1.268330812E-1,1.943424046E-1,1.826347470E0
1.174800000E-1,-1.220508739E-1,2.198940367E-1,1.864884257E0
1.194800000E-1,-1.194677874E-1,2.530029416E-1,1.903927326E0
1.214800000E-1,-1.193630695E-1,2.939483523E-1,1.942237258E0
1.234800000E-1,-1.212131158E-1,3.415609300E-1,1.979290605E0
1.254800000E-1,-1.248084977E-1,3.953345418E-1,2.015837908E0
1.274800000E-1,-1.303761005E-1,4.547804296E-1,2.051861525E0
1.294800000E-1,-1.373748630E-1,5.190783739E-1,2.086733103E0
1.314800000E-1,-1.449496001E-1,5.875301957E-1,2.119859457E0
1.334800000E-1,-1.543569118E-1,6.589664817E-1,2.150071144E0
1.354800000E-1,-1.654397547E-1,7.322354317E-1,2.178153515E0
1.374800000E-1,-1.765749604E-1,8.052949309E-1,2.205049038E0
1.394800000E-1,-1.880592257E-1,8.776562810E-1,2.230513334E0
1.414800000E-1,-2.006255984E-1,9.490751624E-1,2.255715847E0
1.434800000E-1,-2.142566144E-1,1.017300010E0,2.280813694E0
1.454800000E-1,-2.286555916E-1,1.081039429E0,2.304288387E0
1.474800000E-1,-2.420771718E-1,1.138565540E0,2.321095943E0
1.494800000E-1,-2.548180819E-1,1.186596990E0,2.329839945E0
1.514800000E-1,-2.688330710E-1,1.224138975E0,2.338444471E0
1.534800000E-1,-2.846283019E-1,1.254560113E0,2.352686405E0
1.554800000E-1,-3.024306595E-1,1.283689618E0,2.373944521E0
1.574800000E-1,-3.213500082E-1,1.313517332E0,2.403423071E0
1.594800000E-1,-3.394840062E-1,1.344933271E0,2.440057516E0
1.614800000E-1,-3.563264310E-1,1.378862500E0,2.483359098E0
1.634800000E-1,-3.720169365E-1,1.415078044E0,2.532874107E0
1.654800000E-1,-3.869220316E-1,1.453492761E0,2.584919930E0
1.674800000E-1,-4.024729133E-1,1.493757486E0,2.637017965E0
1.694800000E-1,-4.182507098E-1,1.533498645E0,2.687597513E0
1.714800000E-1,-4.344648123E-1,1.569557190E0,2.734372377E0
1.734800000E-1,-4.508534372E-1,1.601287246E0,2.776138067E0
1.754800000E-1,-4.657410979E-1,1.627781272E0,2.813977003E0
1.774800000E-1,-4.784122109E-1,1.647712946E0,2.848953247E0
1.794800000E-1,-4.879940450E-1,1.659930229E0,2.880857944E0
1.814800000E-1,-4.934743941E-1,1.663002014E0,2.909621000E0
1.834800000E-1,-4.947659373E-1,1.657940626E0,2.936167479E0
1.854800000E-1,-4.927588105E-1,1.647049785E0,2.962137938E0
1.874800000E-1,-4.856378734E-1,1.631882787E0,2.987218380E0
1.894800000E-1,-4.723035395E-1,1.614342332E0,3.011949539E0
1.914800000E-1,-4.549026191E-1,1.596784234E0,3.036541224E0
1.934800000E-1,-4.342379272E-1,1.579854608E0,3.060120583E0
1.954800000E-1,-4.097335041E-1,1.564443350E0,3.082338810E0
1.974800000E-1,-3.820700347E-1,1.551545382E0,3.104329824E0
1.994800000E-1,-3.534640670E-1,1.539973855E0,3.126530409E0
2.014800000E-1,-3.241425455E-1,1.531473994E0,3.146933317E0
2.034800000E-1,-2.964092791E-1,1.522660136E0,3.165032387E0
2.054800000E-1,-2.769314051E-1,1.515277386E0,3.175539255E0
2.074800000E-1,-2.664768696E-1,1.526168227E0,3.172886372E0
2.094800000E-1,-2.571568191E-1,1.553639770E0,3.163269520E0
2.114800000E-1,-2.448522449E-1,1.583764076E0,3.154001951E0
2.134800000E-1,-2.300518453E-1,1.614639044E0,3.148643732E0
2.154800000E-1,-2.148849368E-1,1.645513892E0,3.148992777E0
2.174800000E-1,-2.017600536E-1,1.673561335E0,3.154490709E0
2.194800000E-1,-1.913578957E-1,1.696006298E0,3.165259361E0
2.214800000E-1,-1.852492392E-1,1.710841537E0,3.179745436E0
2.234800000E-1,-1.830675900E-1,1.718451142E0,3.194476128E0
2.254800000E-1,-1.856506765E-1,1.722186208E0,3.208054781E0
2.274800000E-1,-1.933301240E-1,1.727806091E0,3.219259739E0
2.294800000E-1,-2.059313953E-1,1.740180492E0,3.223815203E0
2.314800000E-1,-2.236813903E-1,1.761333942E0,3.219050407E0
2.334800000E-1,-2.454282045E-1,1.792034268E0,3.206047535E0
2.354800000E-1,-2.703689635E-1,1.831042409E0,3.187826395E0
2.374800000E-1,-2.975786328E-1,1.875321388E0,3.166515827E0
2.394800000E-1,-3.260100484E-1,1.921764612E0,3.142692089E0
2.414800000E-1,-3.546334505E-1,1.966863871E0,3.117210388E0
2.434800000E-1,-3.836408257E-1,2.007320642E0,3.091379404E0
2.454800000E-1,-4.121769667E-1,2.040202618E0,3.066019773E0
2.474800000E-1,-4.395786226E-1,2.064934015E0,3.040869713E0
2.494800000E-1,-4.649208188E-1,2.081008434E0,3.014218569E0
2.514800000E-1,-4.872435629E-1,2.087239265E0,2.985054016E0
2.534800000E-1,-5.076813698E-1,2.082823515E0,2.953306437E0
2.554800000E-1,-5.254837275E-1,2.066836357E0,2.918923616E0
2.574800000E-1,-5.393590927E-1,2.041372061E0,2.882184267E0
2.594800000E-1,-5.500404835E-1,2.007023811E0,2.843577623E0
2.614800000E-1,-5.575628877E-1,1.963373184E0,2.803225756E0
2.634800000E-1,-5.628337860E-1,1.912147760E0,2.761564732E0
2.654800000E-1,-5.662371516E-1,1.855005741E0,2.718716860E0
2.674800000E-1,-5.676159859E-1,1.793535233E0,2.675711870E0
2.694800000E-1,-5.685061216E-1,1.727806091E0,2.632637262E0
2.714800000E-1,-5.691693425E-1,1.659389257E0,2.588585138E0
2.734800000E-1,-5.697627068E-1,1.590501070E0,2.544148922E0
2.754800000E-1,-5.706353784E-1,1.522695065E0,2.498281717E0
2.774800000E-1,-5.728868842E-1,1.459112644E0,2.450878620E0
2.794800000E-1,-5.791700482E-1,1.404187202E0,2.400979519E0
2.814800000E-1,-5.902354717E-1,1.364149332E0,2.345617771E0
2.834800000E-1,-6.042155027E-1,1.334286809E0,2.286782742E0
2.854800000E-1,-6.196966171E-1,1.304144979E0,2.229692936E0
2.874800000E-1,-6.348286271E-1,1.272292614E0,2.177420378E0
2.894800000E-1,-6.485643387E-1,1.239131451E0,2.130889893E0
2.914800000E-1,-6.614274383E-1,1.204486609E0,2.089857340E0
2.934800000E-1,-6.732782125E-1,1.168602705E0,2.052000999E0
2.954800000E-1,-6.844308376E-1,1.132212520E0,2.015453815E0
2.974800000E-1,-6.952693462E-1,1.096572876E0,1.980058551E0
2.994800000E-1,-7.063173056E-1,1.063760757E0,1.944174647E0
3.014800000E-1,-7.177491784E-1,1.038086891E0,1.904642940E0
3.034800000E-1,-7.290414572E-1,1.021017551E0,1.860782743E0
3.054800000E-1,-7.405781150E-1,1.010912180E0,1.813571572E0
3.074800000E-1,-7.512769699E-1,1.006793141E0,1.763725042E0
3.094800000E-1,-7.603526711E-1,1.007334232E0,1.713145375E0
3.114800000E-1,-7.694283724E-1,1.011016846E0,1.662565708E0
3.134800000E-1,-7.788008451E-1,1.013460279E0,1.611043572E0
3.154800000E-1,-7.892378569E-1,1.012570262E0,1.558823347E0
3.174800000E-1,-7.991688251E-1,1.009358764E0,1.506952167E0
3.194800000E-1,-8.073195219E-1,1.003634095E0,1.457105517E0
3.214800000E-1,-8.147371411E-1,9.959372282E-1,1.409685016E0
3.234800000E-1,-8.199731112E-1,9.864950180E-1,1.364166737E0
3.254800000E-1,-8.236732483E-1,9.763371944E-1,1.321022272E0
3.274800000E-1,-8.258199692E-1,9.662142992E-1,1.280425906E0
3.294800000E-1,-8.254185319E-1,9.554630518E-1,1.241801739E0
3.314800000E-1,-8.227307796E-1,9.438216686E-1,1.203666329E0
3.334800000E-1,-8.184896111E-1,9.318313003E-1,1.166682839E0
3.354800000E-1,-8.139168620E-1,9.209404588E-1,1.131741285E0
3.374800000E-1,-8.085761070E-1,9.105207920E-1,1.098580003E0
3.394800000E-1,-8.019962311E-1,8.996474147E-1,1.067722678E0
3.414800000E-1,-7.948927283E-1,8.889136314E-1,1.038435936E0
3.434800000E-1,-7.872656584E-1,8.775864244E-1,1.010737658E0
3.454800000E-1,-7.788008451E-1,8.654040694E-1,9.843133092E-1
3.474800000E-1,-7.718718648E-1,8.519300818E-1,9.577668905E-1
3.494800000E-1,-7.655887008E-1,8.372867703E-1,9.321280122E-1
3.514800000E-1,-7.579790354E-1,8.234463334E-1,9.074839354E-1
3.534800000E-1,-7.504566908E-1,8.108625412E-1,8.838871121E-1
3.554800000E-1,-7.429866791E-1,7.990989685E-1,8.613374233E-1
3.574800000E-1,-7.355166674E-1,7.889586091E-1,8.388925195E-1
3.594800000E-1,-7.283782363E-1,7.797781825E-1,8.165173531E-1
3.614800000E-1,-7.210478783E-1,7.703534365E-1,7.941422462E-1
3.634800000E-1,-7.146075964E-1,7.598989010E-1,7.714704275E-1
3.655050000E-1,-7.091272473E-1,7.474372387E-1,7.489731312E-1
3.674800000E-1,-7.031233311E-1,7.325670719E-1,7.265630960E-1
3.694800000E-1,-6.959325671E-1,7.145203352E-1,7.038738132E-1
3.714800000E-1,-6.882705688E-1,6.926687956E-1,6.813765168E-1
3.734800000E-1,-6.810624003E-1,6.670299172E-1,6.589664817E-1
3.754800000E-1,-6.743254066E-1,6.386159658E-1,6.368880868E-1
3.774800000E-1,-6.671695709E-1,6.081076264E-1,6.156125069E-1
3.794800000E-1,-6.604675055E-1,5.764299035E-1,5.949478149E-1
3.814800000E-1,-6.545857191E-1,5.442809463E-1,5.748590827E-1
3.834800000E-1,-6.487214565E-1,5.113116503E-1,5.559397340E-1
3.854800000E-1,-6.444453597E-1,4.783249199E-1,5.381548405E-1
3.874800000E-1,-6.414259672E-1,4.469090104E-1,5.211204290E-1
3.894800000E-1,-6.383192539E-1,4.183379710E-1,5.063025355E-1
3.914800000E-1,-6.345144510E-1,3.918613195E-1,4.936314821E-1
3.934800000E-1,-6.304478049E-1,3.665715158E-1,4.824788272E-1
3.954800000E-1,-6.275331378E-1,3.427128494E-1,4.732111096E-1
3.974800000E-1,-6.254038215E-1,3.194127083E-1,4.659680128E-1
3.994800000E-1,-6.248453259E-1,2.970026731E-1,4.604876637E-1
4.014800000E-1,-6.265208125E-1,2.755525708E-1,4.560545385E-1
4.034800000E-1,-6.287723184E-1,2.548355162E-1,4.529827535E-1
4.054800000E-1,-6.306397915E-1,2.334552407E-1,4.517261088E-1
4.074800000E-1,-6.313903332E-1,2.099281996E-1,4.521624446E-1
4.094800000E-1,-6.282312870E-1,1.823520064E-1,4.542393982E-1
4.114800000E-1,-6.177942157E-1,1.458746195E-1,4.607669115E-1
4.134800000E-1,-5.977578163E-1,9.662142396E-2,4.735252857E-1
4.154800000E-1,-5.668829679E-1,3.364994749E-2,4.919734001E-1
4.174800000E-1,-5.271592736E-1,-3.614576906E-2,5.162160397E-1
4.194800000E-1,-4.825835228E-1,-1.021366641E-1,5.472305417E-1
4.214800000E-1,-4.369780719E-1,-1.551946700E-1,5.857325196E-1
4.234800000E-1,-3.957010508E-1,-1.884606481E-1,6.295053363E-1
4.254800000E-1,-3.627841473E-1,-1.982170492E-1,6.769782901E-1
4.274800000E-1,-3.396061659E-1,-1.838878840E-1,7.272437811E-1
4.294800000E-1,-3.276506662E-1,-1.464854777E-1,7.777012587E-1
4.314800000E-1,-3.262543976E-1,-8.991936594E-2,8.272686005E-1
4.334800000E-1,-3.335847855E-1,-2.080432512E-2,8.748986721E-1
4.354800000E-1,-3.479313850E-1,5.686282739E-2,9.182875156E-1
4.374800000E-1,-3.676536083E-1,1.396263391E-1,9.564578533E-1
4.394800000E-1,-3.905174136E-1,2.228610963E-1,9.884148836E-1
4.414800000E-1,-4.146553278E-1,3.009471297E-1,1.013407946E0
4.434800000E-1,-4.396309853E-1,3.718598485E-1,1.030843854E0
4.454800000E-1,-4.640132189E-1,4.363846779E-1,1.040792227E0
4.474800000E-1,-4.865454435E-1,4.932824075E-1,1.044823885E0
4.494800000E-1,-5.077162981E-1,5.410520434E-1,1.044265389E0
4.514800000E-1,-5.270719528E-1,5.791177154E-1,1.039937019E0
4.534800000E-1,-5.425181389E-1,6.078807116E-1,1.031856060E0
4.554800000E-1,-5.532344580E-1,6.274807453E-1,1.021314263E0
4.574800000E-1,-5.588544011E-1,6.373418570E-1,1.009446025E0
4.594800000E-1,-5.595700145E-1,6.372545958E-1,9.960942864E-1
4.614800000E-1,-5.566902161E-1,6.274284124E-1,9.818175435E-1
4.634800000E-1,-5.498484969E-1,6.092420816E-1,9.668600559E-1
4.654800000E-1,-5.385388136E-1,5.847899914E-1,9.512916803E-1
4.674800000E-1,-5.235115290E-1,5.555732250E-1,9.361248016E-1
4.694800000E-1,-5.066691041E-1,5.241223574E-1,9.214290977E-1
4.714800000E-1,-4.881336689E-1,4.930031598E-1,9.066112638E-1
4.734800000E-1,-4.679751396E-1,4.623551667E-1,8.926835656E-1
4.754800000E-1,-4.480783641E-1,4.328241944E-1,8.791223168E-1
4.774800000E-1,-4.286179543E-1,4.069235027E-1,8.653866053E-1
4.794800000E-1,-4.102745354E-1,3.862762749E-1,8.522267938E-1
4.814800000E-1,-3.942873180E-1,3.725056350E-1,8.396080732E-1
4.834800000E-1,-3.808482885E-1,3.678455949E-1,8.265879154E-1
4.854800000E-1,-3.715806007E-1,3.719471097E-1,8.133932352E-1
4.874800000E-1,-3.665540516E-1,3.811973631E-1,8.014028072E-1
4.894800000E-1,-3.638662398E-1,3.909537494E-1,7.898836732E-1
4.914800000E-1,-3.640407622E-1,4.021762311E-1,7.788881063E-1
4.934800000E-1,-3.663271666E-1,4.190710187E-1,7.687302828E-1
4.954800000E-1,-3.691371381E-1,4.369780719E-1,7.585899234E-1
4.974800000E-1,-3.728197813E-1,4.556356668E-1,7.475244999E-1
4.994800000E-1,-3.780906796E-1,4.812221825E-1,7.344868779E-1
5.014800000E-1,-3.849847317E-1,5.093219876E-1,7.216238379E-1
5.034800000E-1,-3.925245404E-1,5.362175107E-1,7.100697756E-1
5.054800000E-1,-4.012686610E-1,5.642125607E-1,6.987251043E-1
5.074800000E-1,-4.117755294E-1,5.904448628E-1,6.881135106E-1
5.094800000E-1,-4.220555127E-1,6.131166816E-1,6.787585616E-1
5.114800000E-1,-4.319166243E-1,6.318091750E-1,6.698922515E-1
5.134800000E-1,-4.416032135E-1,6.428920031E-1,6.605896950E-1
5.154800000E-1,-4.493350089E-1,6.464699507E-1,6.508158445E-1
5.174800000E-1,-4.546931684E-1,6.472902298E-1,6.405183673E-1
5.194800000E-1,-4.584630728E-1,6.463477612E-1,6.297147870E-1
5.214800000E-1,-4.606272876E-1,6.418797374E-1,6.183527112E-1
5.234800000E-1,-4.611858130E-1,6.353173256E-1,6.064844728E-1
5.254800000E-1,-4.623551667E-1,6.332752705E-1,5.899736285E-1
5.274800000E-1,-4.691619575E-1,6.453878284E-1,5.617865920E-1
5.294800000E-1,-4.810650945E-1,6.626316905E-1,5.256931782E-1
5.314800000E-1,-4.906644225E-1,6.705904007E-1,4.926889837E-1
5.334800000E-1,-4.945564866E-1,6.706776619E-1,4.688477814E-1
5.354800000E-1,-4.932998717E-1,6.666110754E-1,4.553389549E-1
5.374800000E-1,-4.852189720E-1,6.573782563E-1,4.498586059E-1
5.394800000E-1,-4.715181589E-1,6.416179538E-1,4.491953850E-1
5.414800000E-1,-4.548851550E-1,6.210055947E-1,4.511327147E-1
5.434800000E-1,-4.364370406E-1,5.965186357E-1,4.528780282E-1
5.454800000E-1,-4.175700247E-1,5.701292753E-1,4.504171312E-1
5.474800000E-1,-4.000992775E-1,5.433035493E-1,4.415333867E-1
5.494800000E-1,-3.847927451E-1,5.172283053E-1,4.275009334E-1
5.514800000E-1,-3.703414202E-1,4.924097359E-1,4.101174772E-1
5.534800000E-1,-3.571990728E-1,4.680972993E-1,3.913551867E-1
5.554800000E-1,-3.449119627E-1,4.449542463E-1,3.736226261E-1
5.574800000E-1,-3.323281407E-1,4.228932858E-1,3.585080802E-1
5.594800000E-1,-3.196395934E-1,4.028743505E-1,3.469889164E-1
5.614800000E-1,-3.078411818E-1,3.846356571E-1,3.375641406E-1
5.634800000E-1,-2.986258268E-1,3.674092591E-1,3.283662498E-1
5.654800000E-1,-2.929709554E-1,3.509333432E-1,3.176848292E-1
5.674800000E-1,-2.913129032E-1,3.357140720E-1,3.035476506E-1
5.694800000E-1,-2.915747166E-1,3.235142231E-1,2.870543003E-1
5.714800000E-1,-2.916794121E-1,3.141243458E-1,2.711892724E-1
5.734800000E-1,-2.901609838E-1,3.084171414E-1,2.562143207E-1
5.754800000E-1,-2.870019376E-1,3.070383072E-1,2.412743121E-1
5.774800000E-1,-2.847679257E-1,3.077364564E-1,2.263517529E-1
5.794800000E-1,-2.845061123E-1,3.099181056E-1,2.111324817E-1
5.814800000E-1,-2.856405973E-1,3.130073547E-1,1.954594254E-1
5.834800000E-1,-2.877000868E-1,3.171088696E-1,1.789835095E-1
5.854800000E-1,-2.907369435E-1,3.232000768E-1,1.621759981E-1
5.874800000E-1,-2.954493463E-1,3.297799528E-1,1.455604583E-1
5.894800000E-1,-3.017848730E-1,3.375117779E-1,1.283689588E-1
5.914800000E-1,-3.075270057E-1,3.472855985E-1,1.125388294E-1
5.934800000E-1,-3.123790324E-1,3.582113683E-1,9.978047013E-2
5.954800000E-1,-3.181386292E-1,3.683342934E-1,8.859290928E-2
5.974800000E-1,-3.242821693E-1,3.778288662E-1,7.866198570E-2
5.994800000E-1,-3.299370408E-1,3.880041540E-1,7.115707546E-2
6.014800000E-1,-3.360282481E-1,3.984586596E-1,6.620033830E-2
6.034800000E-1,-3.429223001E-1,4.099778533E-1,6.387905031E-2
6.054800000E-1,-3.504621089E-1,4.231899679E-1,6.419321150E-2
6.074800000E-1,-3.582637310E-1,4.383394420E-1,6.653194875E-2
6.094800000E-1,-3.661875427E-1,4.558799863E-1,7.220426947E-2
6.114800000E-1,-3.747570813E-1,4.734380245E-1,8.241444826E-2
6.134800000E-1,-3.842516840E-1,4.900535345E-1,9.793042392E-2
6.154800000E-1,-3.953868747E-1,5.081700683E-1,1.181413382E-1
6.174800000E-1,-4.077961743E-1,5.275432467E-1,1.411971301E-1
6.194800000E-1,-4.194898903E-1,5.452234149E-1,1.676388681E-1
6.214800000E-1,-4.305552840E-1,5.599889159E-1,1.963844448E-1
6.234800000E-1,-4.410621524E-1,5.704259276E-1,2.254441828E-1
6.254800000E-1,-4.497538805E-1,5.752954483E-1,2.533694506E-1
6.274800000E-1,-4.564385116E-1,5.741260648E-1,2.789385319E-1
6.294800000E-1,-4.607494771E-1,5.670225620E-1,3.022910357E-1
6.314800000E-1,-4.618664682E-1,5.559222698E-1,3.237934709E-1
6.334800000E-1,-4.598069787E-1,5.397256017E-1,3.432713449E-1
6.354800000E-1,-4.548502564E-1,5.173504949E-1,3.594156504E-1
6.374800000E-1,-4.474675059E-1,4.911880195E-1,3.719820082E-1
6.394800000E-1,-4.378507435E-1,4.616046846E-1,3.827681541E-1
6.414800000E-1,-4.257207215E-1,4.299967587E-1,3.912678957E-1
6.434800000E-1,-4.128925502E-1,3.978827000E-1,3.969402313E-1
6.454800000E-1,-4.004134238E-1,3.655417562E-1,4.008323252E-1
6.474800000E-1,-3.874281943E-1,3.343876302E-1,4.027172625E-1
6.494800000E-1,-3.742684126E-1,3.037222028E-1,4.028743505E-1
6.514800000E-1,-3.619638383E-1,2.751336992E-1,4.026125371E-1
6.534800000E-1,-3.506366313E-1,2.527760267E-1,4.018795192E-1
6.554800000E-1,-3.406533599E-1,2.348340452E-1,4.009370208E-1
6.574800000E-1,-3.321885169E-1,2.183755934E-1,4.002389014E-1
6.594800000E-1,-3.258878887E-1,2.047271132E-1,3.987030089E-1
6.614800000E-1,-3.208089769E-1,1.950754523E-1,3.964864314E-1
6.634800000E-1,-3.152588308E-1,1.895602047E-1,3.930656016E-1
6.654800000E-1,-3.101624548E-1,1.870120317E-1,3.878819644E-1
6.674800000E-1,-3.052580953E-1,1.865931451E-1,3.810402751E-1
6.694800000E-1,-3.004060686E-1,1.886351854E-1,3.725754321E-1
6.714800000E-1,-2.962347269E-1,1.885304600E-1,3.625048697E-1
6.734800000E-1,-2.923251987E-1,1.802750528E-1,3.492403924E-1
6.754800000E-1,-2.878920734E-1,1.649161577E-1,3.334276974E-1
6.774800000E-1,-2.841919661E-1,1.441467404E-1,3.156428039E-1
6.794800000E-1,-2.820452154E-1,1.192758009E-1,2.957634926E-1
6.814800000E-1,-2.802300751E-1,9.337511659E-2,2.737897933E-1
6.834800000E-1,-2.788687050E-1,6.768386811E-2,2.503325641E-1
6.854800000E-1,-2.776644230E-1,4.459316283E-2,2.275211215E-1
6.874800000E-1,-2.759191096E-1,2.635447122E-2,2.062281072E-1
6.894800000E-1,-2.739468813E-1,1.452113967E-2,1.884257495E-1
6.914800000E-1,-2.722015381E-1,1.033234876E-2,1.742187589E-1
6.934800000E-1,-2.711718082E-1,1.146681327E-2,1.627694070E-1
6.954800000E-1,-2.710670829E-1,1.445132587E-2,1.539904028E-1
6.974800000E-1,-2.722888291E-1,1.724385284E-2,1.475850344E-1
6.994800000E-1,-2.743657529E-1,1.806415804E-2,1.433962435E-1
7.014800000E-1,-2.767917514E-1,1.619665511E-2,1.407433450E-1
7.034800000E-1,-2.796715498E-1,1.354375482E-2,1.403070241E-1
7.054800000E-1,-2.830575109E-1,9.930923581E-3,1.426457614E-1
7.074800000E-1,-2.872637510E-1,4.363323096E-3,1.470789015E-1
7.094800000E-1,-2.918190360E-1,-2.617993858E-3,1.520356238E-1
7.114800000E-1,-2.965139747E-1,-1.146681327E-2,1.572018117E-1
7.134800000E-1,-3.015928864E-1,-2.234021388E-2,1.627868563E-1
7.154800000E-1,-3.068114221E-1,-3.338814899E-2,1.688431501E-1
7.174800000E-1,-3.124139309E-1,-4.450589418E-2,1.744631082E-1
7.194800000E-1,-3.181560636E-1,-5.503023043E-2,1.789660603E-1
7.214800000E-1,-3.233397007E-1,-6.342526525E-2,1.836260855E-1
7.234800000E-1,-3.286105990E-1,-6.747443229E-2,1.893158704E-1
7.254800000E-1,-3.342131078E-1,-6.469935179E-2,1.969953179E-1
7.274800000E-1,-3.406009972E-1,-5.536184460E-2,2.077116370E-1
7.294800000E-1,-3.479488492E-1,-4.241150245E-2,2.218488008E-1
7.314800000E-1,-3.553490341E-1,-2.956587821E-2,2.389704734E-1
7.334800000E-1,-3.624699712E-1,-1.738347858E-2,2.572964430E-1
7.354800000E-1,-3.694687486E-1,-3.909537569E-3,2.764427066E-1
7.374800000E-1,-3.767293096E-1,1.481784508E-2,2.974913716E-1
7.394800000E-1,-3.818954825E-1,3.981095925E-2,3.193079829E-1
7.414800000E-1,-3.849498332E-1,6.733480096E-2,3.401821256E-1
7.434800000E-1,-3.874630928E-1,1.003215238E-1,3.591015041E-1
7.454800000E-1,-3.884753883E-1,1.431169957E-1,3.759613633E-1
7.474800000E-1,-3.892084360E-1,1.927192509E-1,3.913377225E-1
7.494800000E-1,-3.907617629E-1,2.469989955E-1,4.058065116E-1
7.514800000E-1,-3.932924867E-1,3.038269281E-1,4.199087620E-1
7.534800000E-1,-3.971671164E-1,3.607246578E-1,4.338539541E-1
7.554800000E-1,-4.018969536E-1,4.167148173E-1,4.477293193E-1
7.574800000E-1,-4.072900414E-1,4.723210037E-1,4.606447518E-1
7.594800000E-1,-4.145506024E-1,5.240002275E-1,4.722162783E-1
7.614800000E-1,-4.275882244E-1,5.611408353E-1,4.848175645E-1
7.634800000E-1,-4.499458671E-1,5.809851885E-1,4.997226596E-1
7.654800000E-1,-4.779933095E-1,5.972691178E-1,5.143136382E-1
7.674800000E-1,-5.074021220E-1,6.203074455E-1,5.259374976E-1
7.694800000E-1,-5.370377898E-1,6.489483118E-1,5.335122347E-1
7.714800000E-1,-5.655215979E-1,6.808005571E-1,5.378581285E-1
7.734800000E-1,-5.919458866E-1,7.136651278E-1,5.393067598E-1
7.754800000E-1,-6.159616113E-1,7.475419641E-1,5.367410779E-1
7.774800000E-1,-6.380574703E-1,7.818551660E-1,5.319065452E-1
7.794800000E-1,-6.593504548E-1,8.144404292E-1,5.271068811E-1
7.814800000E-1,-6.797010303E-1,8.447567821E-1,5.219930410E-1
7.834800000E-1,-6.993359923E-1,8.709890842E-1,5.164428949E-1
7.854800000E-1,-7.196515799E-1,8.923868537E-1,5.113291144E-1
7.874800000E-1,-7.405431867E-1,9.137322307E-1,5.070530772E-1
7.894800000E-1,-7.616791129E-1,9.378875494E-1,5.040336251E-1
7.914800000E-1,-7.825881839E-1,9.616066217E-1,5.024977326E-1
7.934800000E-1,-8.037241101E-1,9.816778898E-1,5.021835566E-1
7.954800000E-1,-8.255756497E-1,9.986773729E-1,5.023755431E-1
7.974800000E-1,-8.471130133E-1,1.013181090E0,5.040336251E-1
7.994800000E-1,-8.678649664E-1,1.023181796E0,5.075417161E-1
8.014800000E-1,-8.876744509E-1,1.028522491E0,5.108753443E-1
8.034800000E-1,-9.067857862E-1,1.033531666E0,5.147499442E-1
8.054800000E-1,-9.246580005E-1,1.042205930E0,5.201255679E-1
8.074800000E-1,-9.398423433E-1,1.053620338E0,5.260946155E-1
8.094800000E-1,-9.532639384E-1,1.065837622E0,5.329362750E-1
8.114800000E-1,-9.647307396E-1,1.082505584E0,5.423610806E-1
8.134800000E-1,-9.725497961E-1,1.108214259E0,5.556604862E-1
8.154800000E-1,-9.785886407E-1,1.138879657E0,5.746496320E-1
8.174800000E-1,-9.854478240E-1,1.170313120E0,6.016324162E-1
8.194800000E-1,-9.933018088E-1,1.203613997E0,6.359630823E-1
8.214800000E-1,-1.002499700E0,1.237368584E0,6.761405468E-1
8.234800000E-1,-1.011924386E0,1.273846030E0,7.228106260E-1
8.254800000E-1,-1.020808220E0,1.315838575E0,7.774569392E-1
8.274800000E-1,-1.031367421E0,1.364166737E0,8.385260105E-1
8.294800000E-1,-1.044178128E0,1.417940378E0,9.047437906E-1
8.314800000E-1,-1.057931304E0,1.472656488E0,9.758833647E-1
8.334800000E-1,-1.072365165E0,1.527442336E0,1.049972653E0
8.354800000E-1,-1.087392449E0,1.584148049E0,1.125911951E0
8.374800000E-1,-1.102332473E0,1.643524170E0,1.203212500E0
8.394800000E-1,-1.117272496E0,1.701154947E0,1.279500842E0
8.414800000E-1,-1.131549358E0,1.751437902E0,1.353171229E0
8.434800000E-1,-1.143679380E0,1.795263171E0,1.424502850E0
8.454800000E-1,-1.153662682E0,1.836138725E0,1.493932009E0
8.474800000E-1,-1.161830783E0,1.872668505E0,1.561668277E0
8.494800000E-1,-1.166420937E0,1.903316498E0,1.627100587E0
8.514800000E-1,-1.165757775E0,1.932201624E0,1.691311359E0
8.534800000E-1,-1.159806132E0,1.964804411E0,1.752781749E0
8.554800000E-1,-1.149805427E0,1.997948170E0,1.811581969E0
8.574800000E-1,-1.136593342E0,2.022819042E0,1.870242476E0
8.594800000E-1,-1.119838119E0,2.041145086E0,1.928833127E0
8.614800000E-1,-1.098824382E0,2.062176228E0,1.985835671E0
8.634800000E-1,-1.071963787E0,2.091881752E0,2.037445068E0
8.654800000E-1,-1.040512919E0,2.131430864E0,2.079908848E0
8.674800000E-1,-1.007194638E0,2.180352449E0,2.112982750E0
8.694800000E-1,-9.734224677E-1,2.239728689E0,2.138429642E0
8.714800000E-1,-9.391616583E-1,2.312194824E0,2.157314301E0
8.734800000E-1,-9.043946862E-1,2.395342112E0,2.170683384E0
8.754800000E-1,-8.697150350E-1,2.478437424E0,2.177699566E0
8.774800000E-1,-8.347735405E-1,2.548861265E0,2.176774740E0
8.794800000E-1,-7.997098565E-1,2.599318743E0,2.171346664E0
8.814800000E-1,-7.649254203E-1,2.632794142E0,2.166302681E0
8.834800000E-1,-7.277150154E-1,2.655570745E0,2.164871454E0
8.854800000E-1,-6.829124093E-1,2.675903797E0,2.173441172E0
8.874800000E-1,-6.271142364E-1,2.701525211E0,2.197770834E0
8.894800000E-1,-5.595700145E-1,2.733115673E0,2.238925695E0
8.914800000E-1,-4.806287587E-1,2.765858173E0,2.297342062E0
8.934800000E-1,-3.923151195E-1,2.795912743E0,2.371291637E0
8.954800000E-1,-2.995508611E-1,2.820766211E0,2.451908350E0
8.974800000E-1,-2.084446698E-1,2.836247206E0,2.527969837E0
8.994800000E-1,-1.236914843E-1,2.841919661E0,2.592372417E0
9.014800000E-1,-4.911356419E-2,2.843281031E0,2.641957283E0
9.034800000E-1,1.499237865E-2,2.846998453E0,2.676340342E0
9.054800000E-1,7.171557844E-2,2.855445862E0,2.695713282E0
9.074800000E-1,1.216319948E-1,2.866144896E0,2.702013969E0
9.094800000E-1,1.650034338E-1,2.876180410E0,2.697947502E0
9.114800000E-1,2.022138536E-1,2.883755207E0,2.683670521E0
9.134800000E-1,2.341010123E-1,2.886198521E0,2.660178423E0
9.154800000E-1,2.615899444E-1,2.883091927E0,2.628204107E0
9.174800000E-1,2.838428915E-1,2.876145601E0,2.587101460E0
9.194800000E-1,3.014183640E-1,2.865725994E0,2.539750814E0
9.214800000E-1,3.161314726E-1,2.852339268E0,2.490497589E0
9.234800000E-1,3.271794319E-1,2.837102413E0,2.442658186E0
9.254800000E-1,3.345272541E-1,2.818602085E0,2.398885250E0
9.274800000E-1,3.384542465E-1,2.796855211E0,2.359615326E0
9.294800000E-1,3.369008899E-1,2.773171186E0,2.326261997E0
9.314800000E-1,3.290120065E-1,2.748387337E0,2.299750566E0
9.335378120E-1,3.150668442E-1,2.724092484E0,2.279487371E0
9.354800000E-1,2.961300015E-1,2.700949430E0,2.266187906E0
9.374800000E-1,2.723237276E-1,2.678260088E0,2.258246660E0
9.394800000E-1,2.427578419E-1,2.657036781E0,2.253115416E0
9.414800000E-1,2.089333683E-1,2.640194416E0,2.252295017E0
9.434800000E-1,1.721243709E-1,2.628605366E0,2.257635832E0
9.454800000E-1,1.340936422E-1,2.621362448E0,2.269922972E0
9.474800000E-1,9.588839114E-2,2.615881920E0,2.289121389E0
9.494800000E-1,5.635667965E-2,2.609546423E0,2.313660860E0
9.514800000E-1,1.722639985E-2,2.603193521E0,2.343226671E0
9.534800000E-1,-2.015855350E-2,2.598062277E0,2.380192757E0
9.554800000E-1,-5.494296551E-2,2.593454599E0,2.426496267E0
9.574800000E-1,-8.614945412E-2,2.588742256E0,2.481631279E0
9.594800000E-1,-1.133765876E-1,2.582720757E0,2.543852329E0
9.614800000E-1,-1.373923123E-1,2.573330879E0,2.610523939E0
9.634800000E-1,-1.594881862E-1,2.558774948E0,2.676811457E0
9.654800000E-1,-1.795245707E-1,2.539279461E0,2.739451408E0
9.674800000E-1,-1.984090358E-1,2.516188860E0,2.797466040E0
9.694800000E-1,-2.155656219E-1,2.488804579E0,2.849808455E0
9.714800000E-1,-2.301391214E-1,2.456498623E0,2.896356344E0
9.734800000E-1,-2.417455465E-1,2.421260357E0,2.937720776E0
9.754800000E-1,-2.502453029E-1,2.384817839E0,2.973814249E0
9.774800000E-1,-2.549751401E-1,2.347258329E0,3.003327608E0
9.794800000E-1,-2.562666833E-1,2.308616877E0,3.025772572E0
9.814800000E-1,-2.545911670E-1,2.270149708E0,3.042475462E0
9.834800000E-1,-2.485348880E-1,2.232398272E0,3.054954529E0
9.854800000E-1,-2.378709167E-1,2.195571899E0,3.062878370E0
9.874800000E-1,-2.237337530E-1,2.160071850E0,3.066107035E0
9.894800000E-1,-2.069436908E-1,2.125095367E0,3.064885378E0
9.914800000E-1,-1.865233332E-1,2.090345860E0,3.059981108E0
9.934800000E-1,-1.630661041E-1,2.055997849E0,3.052301645E0
9.954800000E-1,-1.386838555E-1,2.022766829E0,3.043173552E0
9.974800000E-1,-1.132893190E-1,1.990617871E0,3.032823801E0
9.994800000E-1,-8.527678996E-2,1.958590984E0,3.020414352E0
1.001480000E0,-5.431464687E-2,1.927244902E0,3.006835699E0
1.003480000E0,-2.244493365E-2,1.896492243E0,2.992785931E0
1.005480000E0,1.038470864E-2,1.864727259E0,2.978229761E0
1.007480000E0,4.522148147E-2,1.832857490E0,2.963150263E0
1.009480000E0,8.117526025E-2,1.801249623E0,2.946918726E0
1.011480000E0,1.185427606E-1,1.768821359E0,2.928627491E0
1.013480000E0,1.577428579E-1,1.735433221E0,2.908870459E0
1.015480000E0,1.983217597E-1,1.701626182E0,2.888520002E0
1.017480000E0,2.397733331E-1,1.667976260E0,2.866982460E0
1.019480000E0,2.822197378E-1,1.634413600E0,2.844013929E0
1.021480000E0,3.250501156E-1,1.601165056E0,2.820137978E0
1.023480000E0,3.674267232E-1,1.569644451E0,2.795266867E0
1.025480000E0,4.092971683E-1,1.539450169E0,2.769366264E0
1.027480000E0,4.506440163E-1,1.509168744E0,2.743046761E0
1.029480000E0,4.914672673E-1,1.480440617E0,2.715906858E0
1.031480000E0,5.308069587E-1,1.452951670E0,2.687510252E0
1.033480000E0,5.682792068E-1,1.425043821E0,2.658904314E0
1.035480000E0,6.034301519E-1,1.397572398E0,2.630839586E0
1.037480000E0,6.363470554E-1,1.370624542E0,2.603315592E0
1.039480000E0,6.674313545E-1,1.342908740E0,2.576018810E0
1.041480000E0,6.961769462E-1,1.315227747E0,2.548809052E0
1.043480000E0,7.230375409E-1,1.287860990E0,2.522279978E0
1.045480000E0,7.481703162E-1,1.261558890E0,2.496309519E0
1.047480000E0,7.722907662E-1,1.237612963E0,2.471229076E0
1.049480000E0,7.947356701E-1,1.215220451E0,2.447457790E0
1.051480000E0,8.145975471E-1,1.193805218E0,2.425134897E0
1.053480000E0,8.330979943E-1,1.173733950E0,2.403440475E0
1.055480000E0,8.516857624E-1,1.154186249E0,2.382287264E0
1.057480000E0,8.690343499E-1,1.133608818E0,2.362634659E0
1.059480000E0,8.846026659E-1,1.111338377E0,2.343593121E0
1.061480000E0,9.001011848E-1,1.086816549E0,2.324795961E0
1.063480000E0,9.158789515E-1,1.059153080E0,2.305771828E0
1.065480000E0,9.308364391E-1,1.027388096E0,2.285718203E0
1.067480000E0,9.451132417E-1,9.923592806E-1,2.264616966E0
1.069480000E0,9.597740173E-1,9.566324353E-1,2.242765427E0
1.071480000E0,9.730036259E-1,9.215687513E-1,2.219674826E0
1.073480000E0,9.846972823E-1,8.874126673E-1,2.195432186E0
1.075480000E0,9.960768819E-1,8.548971415E-1,2.170107365E0
1.077480000E0,1.006723404E0,8.245982528E-1,2.144014835E0
1.079480000E0,1.016095757E0,7.971267700E-1,2.117608070E0
1.081480000E0,1.024333715E0,7.720463872E-1,2.090136528E0
1.083480000E0,1.031157970E0,7.492175102E-1,2.062211275E0
1.085480000E0,1.036463737E0,7.279419303E-1,2.034128904E0
1.087480000E0,1.040512919E0,7.066488862E-1,2.005645037E0
1.089480000E0,1.043113470E0,6.856700182E-1,1.977964163E0
1.091480000E0,1.043846488E0,6.644992232E-1,1.950265765E0
1.093480000E0,1.044143200E0,6.420019269E-1,1.922270775E0
1.095480000E0,1.044597030E0,6.199060678E-1,1.894467592E0
1.097480000E0,1.043829083E0,5.995380282E-1,1.866420150E0
1.099480000E0,1.042554975E0,5.808281302E-1,1.838582158E0
1.101480000E0,1.041734695E0,5.647012591E-1,1.810848951E0
1.103480000E0,1.041403055E0,5.521349311E-1,1.783133030E0
1.105480000E0,1.041891694E0,5.435478687E-1,1.755452156E0
1.107480000E0,1.043986082E0,5.390973091E-1,1.727753758E0
1.109480000E0,1.048000455E0,5.385562181E-1,1.700072885E0
1.111480000E0,1.053725123E0,5.405459404E-1,1.671449423E0
1.113480000E0,1.061107874E0,5.429370403E-1,1.642127872E0
1.115480000E0,1.071056247E0,5.442285538E-1,1.612823844E0
1.117480000E0,1.083639979E0,5.441063643E-1,1.582280636E0
1.119480000E0,1.098230958E0,5.412266254E-1,1.550585389E0
1.121480000E0,1.114898920E0,5.350131989E-1,1.518436432E0
1.123480000E0,1.133992791E0,5.245761871E-1,1.484507203E0
1.125480000E0,1.154709816E0,5.108753443E-1,1.448291659E0
1.127480000E0,1.177346706E0,4.967556000E-1,1.410191178E0
1.129480000E0,1.202654004E0,4.821821153E-1,1.370066047E0
1.131480000E0,1.229043365E0,4.680449367E-1,1.328474760E0
1.133480000E0,1.256532311E0,4.556531012E-1,1.286935925E0
1.135480000E0,1.285696745E0,4.449367821E-1,1.244140506E0
1.137480000E0,1.315891027E0,4.361577928E-1,1.199250579E0
1.139480000E0,1.347114921E0,4.287924767E-1,1.154465437E0
1.141480000E0,1.379386067E0,4.216890037E-1,1.110046864E0
1.143480000E0,1.411779404E0,4.143760800E-1,1.065139532E0
1.145480000E0,1.443910837E0,4.066791534E-1,1.021279454E0
1.147480000E0,1.476548553E0,3.965911567E-1,9.800722003E-1
1.149480000E0,1.508784771E0,3.833266497E-1,9.415178895E-1
1.151480000E0,1.539572358E0,3.684564531E-1,9.053197503E-1
1.153480000E0,1.569784045E0,3.516838551E-1,8.710065484E-1
1.155480000E0,1.598808885E0,3.309667706E-1,8.384212852E-1
1.157480000E0,1.626088381E0,3.073699474E-1,8.074765801E-1
1.159480000E0,1.652041435E0,2.823069990E-1,7.784692049E-1
1.161480000E0,1.676476002E0,2.566332221E-1,7.511897087E-1
1.163480000E0,1.698746443E0,2.323033214E-1,7.243116498E-1
1.165480000E0,1.718538404E0,2.088286430E-1,6.972764730E-1
1.167480000E0,1.736061573E0,1.860171854E-1,6.698573828E-1
1.169480000E0,1.751402974E0,1.659982651E-1,6.406928897E-1
1.171480000E0,1.765226007E0,1.493129134E-1,6.105161905E-1
1.173480000E0,1.776535749E0,1.352804750E-1,5.802521706E-1
1.175480000E0,1.785227418E0,1.235693097E-1,5.493074656E-1
1.177480000E0,1.793517828E0,1.134289503E-1,5.174552202E-1
1.179480000E0,1.799399495E0,1.048768312E-1,4.855505824E-1
1.181480000E0,1.802122235E0,9.761626273E-2,4.545710087E-1
1.183480000E0,1.803535938E0,9.213592857E-2,4.249178469E-1
1.185480000E0,1.802855253E0,9.021607041E-2,3.970623910E-1
1.187480000E0,1.799748659E0,9.070476145E-2,3.696258366E-1
1.189480000E0,1.794373035E0,9.311331809E-2,3.423637748E-1
1.191480000E0,1.787129879E0,9.819222242E-2,3.167423606E-1
1.193480000E0,1.778193831E0,1.065698043E-1,2.927440703E-1
1.195480000E0,1.767599702E0,1.175653785E-1,2.694090307E-1
1.197480000E0,1.755085588E0,1.302364618E-1,2.463357747E-1
1.199480000E0,1.740529537E0,1.458222568E-1,2.236813903E-1
1.201480000E0,1.725118279E0,1.628915817E-1,2.015157193E-1
1.203480000E0,1.708764553E0,1.805717647E-1,1.798736304E-1
1.205480000E0,1.691677809E0,2.000845522E-1,1.578126699E-1
1.207480000E0,1.674311757E0,2.225294858E-1,1.355597228E-1
1.209480000E0,1.656509399E0,2.468244582E-1,1.132544130E-1
1.211480000E0,1.638218403E0,2.718699276E-1,9.091419727E-2
1.213480000E0,1.619403720E0,2.978404462E-1,6.920230389E-2
1.215480000E0,1.600693822E0,3.245090544E-1,4.710643739E-2
1.217480000E0,1.582036257E0,3.527310491E-1,2.516764775E-2
1.219480000E0,1.563396096E0,3.812671602E-1,3.926991019E-3
1.221480000E0,1.544441819E0,4.086513817E-1,-1.795943826E-2
1.223480000E0,1.525051236E0,4.352676570E-1,-4.043927789E-2
1.225480000E0,1.505486131E0,4.618839324E-1,-6.253514439E-2
1.227480000E0,1.485205412E0,4.885002077E-1,-8.321730047E-2
1.229480000E0,1.465273738E0,5.144881606E-1,-1.036201939E-1
1.231480000E0,1.446424127E0,5.405284762E-1,-1.245641485E-1
1.233480000E0,1.427382588E0,5.662895441E-1,-1.447576135E-1
1.235480000E0,1.407642961E0,5.912826657E-1,-1.637118906E-1
1.237480000E0,1.387938142E0,6.156648993E-1,-1.821600199E-1
1.239480000E0,1.367919207E0,6.388603449E-1,-1.997703910E-1
1.241480000E0,1.347132325E0,6.599613428E-1,-2.164033800E-1
1.243480000E0,1.325734615E0,6.783396602E-1,-2.335948646E-1
1.245480000E0,1.303778410E0,6.934018731E-1,-2.500533164E-1
1.247480000E0,1.281577826E0,7.042577863E-1,-2.656041980E-1
1.249480000E0,1.259918332E0,7.112216949E-1,-2.810852826E-1
1.251480000E0,1.237839818E0,7.146773934E-1,-2.965314388E-1
1.253480000E0,1.214330316E0,7.145028710E-1,-3.113492727E-1
1.255480000E0,1.190873027E0,7.109598517E-1,-3.255737126E-1
1.257480000E0,1.167450786E0,7.057238817E-1,-3.402170241E-1
1.259480000E0,1.143696785E0,6.998072267E-1,-3.543716371E-1
1.261480000E0,1.119838119E0,6.920405030E-1,-3.670951128E-1
1.263480000E0,1.095909715E0,6.822491884E-1,-3.785793781E-1
1.265480000E0,1.072609544E0,6.722659469E-1,-3.883008361E-1
1.267480000E0,1.049850464E0,6.628411412E-1,-3.963642716E-1
1.269480000E0,1.027021527E0,6.539399624E-1,-4.034328461E-1
1.271480000E0,1.004786015E0,6.455972791E-1,-4.091575444E-1
1.273480000E0,9.840689898E-1,6.377782226E-1,-4.136779308E-1
1.275480000E0,9.642595053E-1,6.311284900E-1,-4.164879322E-1
1.277480000E0,9.448339939E-1,6.236759424E-1,-4.176223874E-1
1.279480000E0,9.265080094E-1,6.159092188E-1,-4.174478352E-1
1.281480000E0,9.099099636E-1,6.095911264E-1,-4.161213934E-1
1.283480000E0,8.955633640E-1,6.029239893E-1,-4.139921069E-1
1.285480000E0,8.831017017E-1,5.960997343E-1,-4.112344682E-1
1.287480000E0,8.726646304E-1,5.901656151E-1,-4.088608325E-1
1.289480000E0,8.652644157E-1,5.842838883E-1,-4.072551131E-1
1.291480000E0,8.609883785E-1,5.790478587E-1,-4.053352773E-1
1.293480000E0,8.592430353E-1,5.750162005E-1,-4.032932222E-1
1.295480000E0,8.588415980E-1,5.714905858E-1,-4.021587670E-1
1.297480000E0,8.602727652E-1,5.687853694E-1,-4.026300013E-1
1.299480000E0,8.646361232E-1,5.670574903E-1,-4.047243893E-1
1.301480000E0,8.711462021E-1,5.660277009E-1,-4.077787101E-1
1.303480000E0,8.785289526E-1,5.653121471E-1,-4.121769667E-1
1.305480000E0,8.865749240E-1,5.643696785E-1,-4.183903337E-1
1.307480000E0,8.952317238E-1,5.640031695E-1,-4.256508946E-1
1.309480000E0,9.047437906E-1,5.647885203E-1,-4.333477914E-1
1.311480000E0,9.152506590E-1,5.657484531E-1,-4.412192404E-1
1.313480000E0,9.261415005E-1,5.651899576E-1,-4.494571984E-1
1.315480000E0,9.362643957E-1,5.630606413E-1,-4.572413564E-1
1.317480000E0,9.467014670E-1,5.596747398E-1,-4.632453024E-1
1.319480000E0,9.575749040E-1,5.538802147E-1,-4.682194889E-1
1.321480000E0,9.683086872E-1,5.448917747E-1,-4.718148410E-1
1.323480000E0,9.786759019E-1,5.342801809E-1,-4.739092588E-1
1.325480000E0,9.879610538E-1,5.217661858E-1,-4.747644663E-1
1.327480000E0,9.961466789E-1,5.059360266E-1,-4.741710424E-1
1.329480000E0,1.003581762E0,4.874879122E-1,-4.717101455E-1
1.331480000E0,1.009777665E0,4.673642516E-1,-4.675562382E-1
1.333480000E0,1.014175892E0,4.465425014E-1,-4.630358517E-1
1.335480000E0,1.017876029E0,4.254414439E-1,-4.577125907E-1
1.337480000E0,1.020319462E0,4.035899341E-1,-4.514468610E-1
1.339480000E0,1.020057678E0,3.814417124E-1,-4.454254806E-1
1.341480000E0,1.018364668E0,3.601312339E-1,-4.385488927E-1
1.343480000E0,1.016741514E0,3.397632539E-1,-4.313406646E-1
1.345480000E0,1.013547659E0,3.213674724E-1,-4.252494574E-1
1.347480000E0,1.008137107E0,3.044203222E-1,-4.192979038E-1
1.349480000E0,1.001522303E0,2.896373868E-1,-4.133986831E-1
1.351480000E0,9.950470924E-1,2.766695917E-1,-4.078310728E-1
1.353480000E0,9.882926941E-1,2.647664547E-1,-4.027347267E-1
1.355480000E0,9.798802137E-1,2.548704445E-1,-3.981270492E-1
1.357480000E0,9.704554081E-1,2.473655194E-1,-3.937288225E-1
1.359480000E0,9.609259367E-1,2.430371046E-1,-3.897320330E-1
1.361480000E0,9.497907162E-1,2.425484061E-1,-3.858923018E-1
1.363480000E0,9.351648688E-1,2.496169955E-1,-3.811798990E-1
1.365505000E0,9.168912768E-1,2.651154995E-1,-3.751585186E-1
1.367480000E0,8.933642507E-1,2.859372795E-1,-3.682819307E-1
1.369480000E0,8.642172217E-1,3.101973534E-1,-3.604454100E-1
1.371480000E0,8.327838778E-1,3.364820182E-1,-3.518758416E-1
1.373480000E0,8.000938296E-1,3.645469248E-1,-3.436553180E-1
1.375480000E0,7.634419203E-1,3.974289298E-1,-3.365169466E-1
1.377480000E0,7.210478783E-1,4.392295480E-1,-3.288898468E-1
1.379480000E0,6.722310185E-1,4.909611046E-1,-3.188367486E-1
1.381480000E0,6.173229814E-1,5.521000028E-1,-3.068463206E-1
1.383480000E0,5.586798787E-1,6.218084693E-1,-2.924997211E-1
1.385480000E0,4.963018298E-1,6.984807849E-1,-2.762507200E-1
1.387480000E0,4.305029213E-1,7.798829079E-1,-2.585879862E-1
1.389480000E0,3.636393547E-1,8.638332486E-1,-2.397209704E-1
1.391480000E0,2.953795195E-1,9.507157207E-1,-2.187770158E-1
1.393480000E0,2.256187052E-1,1.040373325E0,-1.951103508E-1
1.395480000E0,1.558753550E-1,1.131793618E0,-1.699950695E-1
1.397480000E0,8.581783623E-2,1.224557877E0,-1.427330226E-1
1.399480000E0,1.469567232E-2,1.318177342E0,-1.123817489E-1
1.401480000E0,-5.590289459E-2,1.411849141E0,-7.857472450E-2
1.403480000E0,-1.253670007E-1,1.504578471E0,-4.239404574E-2
1.405480000E0,-1.946740299E-1,1.594724774E0,-4.939281847E-3
1.407480000E0,-2.620262802E-1,1.681607246E0,3.333579004E-2
1.409480000E0,-3.257482648E-1,1.765575051E0,7.133160532E-2
1.411480000E0,-3.863984346E-1,1.845528603E0,1.092052534E-1
1.413480000E0,-4.432787299E-1,1.920682430E0,1.454557329E-1
1.415480000E0,-4.957956672E-1,1.990722537E0,1.781981140E-1
1.417480000E0,-5.440016985E-1,2.055544138E0,2.082526833E-1
1.419480000E0,-5.872858167E-1,2.114431381E0,2.365968376E-1
1.421480000E0,-6.260670424E-1,2.166494608E0,2.629513144E-1
1.423480000E0,-6.601533294E-1,2.211052895E0,2.860071063E-1
1.425480000E0,-6.882357001E-1,2.247163773E0,3.064274490E-1
1.427480000E0,-7.097555995E-1,2.275123835E0,3.251548409E-1
1.429480000E0,-7.264235020E-1,2.295352221E0,3.413165808E-1
1.431480000E0,-7.388851643E-1,2.308006048E0,3.548254371E-1
1.433480000E0,-7.452206612E-1,2.312840462E0,3.660129905E-1
1.435480000E0,-7.439989448E-1,2.308494568E0,3.749839962E-1
1.437480000E0,-7.362496853E-1,2.295980692E0,3.821049333E-1
1.439480000E0,-7.233167887E-1,2.277323008E0,3.869045973E-1
1.441480000E0,-7.054097056E-1,2.253638983E0,3.888418972E-1
1.443480000E0,-6.839247346E-1,2.225678682E0,3.877423406E-1
1.445480000E0,-6.631901860E-1,2.199149847E0,3.847752810E-1
1.447480000E0,-6.402216554E-1,2.170997620E0,3.810402751E-1
1.449480000E0,-6.100449562E-1,2.133961678E0,3.754203320E-1
1.451480000E0,-5.734628439E-1,2.088897228E0,3.674441576E-1
1.453480000E0,-5.304753780E-1,2.036467552E0,3.575656116E-1
1.455480000E0,-4.820424914E-1,1.978522658E0,3.462907672E-1
1.457480000E0,-4.282339811E-1,1.917052150E0,3.325550258E-1
1.459480000E0,-3.700447083E-1,1.853836417E0,3.168470860E-1
1.461480000E0,-3.097435832E-1,1.789904952E0,3.006853163E-1
1.463480000E0,-2.488839477E-1,1.726340055E0,2.846283019E-1
1.465480000E0,-1.878323406E-1,1.662897348E0,2.698802650E-1
1.467480000E0,-1.260302216E-1,1.597918749E0,2.569473684E-1
1.469480000E0,-6.459463388E-2,1.530758500E0,2.453583926E-1
1.471480000E0,-5.480333697E-3,1.463022232E0,2.346420586E-1
1.473480000E0,5.106833205E-2,1.395687461E0,2.258630544E-1
1.475480000E0,1.122770309E-1,1.318072677E0,2.182010561E-1
1.477480000E0,1.656142920E-1,1.245466948E0,2.116037160E-1
1.479480000E0,2.062630057E-1,1.182757258E0,2.070135027E-1
1.481480000E0,2.467895597E-1,1.113048792E0,2.035752088E-1
1.483480000E0,2.850646377E-1,1.040792227E0,2.015506178E-1
1.485480000E0,3.199014068E-1,9.681341052E-1,2.000845522E-1
1.487480000E0,3.504970074E-1,8.962614536E-1,1.975887269E-1
1.489480000E0,3.777939677E-1,8.253487349E-1,1.943773180E-1
1.491480000E0,4.015129805E-1,7.560766339E-1,1.899092793E-1
1.493480000E0,4.216017425E-1,6.896843314E-1,1.836609989E-1
1.495480000E0,4.379729331E-1,6.266779304E-1,1.764004230E-1
1.497480000E0,4.493699074E-1,5.663244128E-1,1.680752039E-1
1.499480000E0,4.562290609E-1,5.082922578E-1,1.596278101E-1
1.501480000E0,4.590215981E-1,4.531049132E-1,1.511455178E-1
1.503480000E0,4.573111832E-1,4.006577730E-1,1.426457614E-1
1.505480000E0,4.509407282E-1,3.505842984E-1,1.350710243E-1
1.507480000E0,4.391771853E-1,3.052580953E-1,1.288402081E-1
1.509480000E0,4.211479425E-1,2.672448158E-1,1.250353903E-1
1.511480000E0,3.983364999E-1,2.363001257E-1,1.253844500E-1
1.513480000E0,3.710570037E-1,2.123542130E-1,1.299397647E-1
1.515480000E0,3.328168392E-1,1.953372508E-1,1.400103122E-1
1.517480000E0,2.932502329E-1,1.849350929E-1,1.526290476E-1
1.519480000E0,2.553765774E-1,1.803972274E-1,1.675516069E-1
1.521480000E0,2.093347907E-1,1.801179796E-1,1.887748092E-1
1.523480000E0,1.577603072E-1,1.825265288E-1,2.166651785E-1
1.525480000E0,1.011069268E-1,1.866629571E-1,2.510656118E-1
1.527480000E0,4.080579802E-2,1.915149838E-1,2.912605405E-1
1.529480000E0,-2.223549411E-2,1.956863105E-1,3.376165032E-1
1.531480000E0,-8.735372871E-2,1.980250627E-1,3.892956972E-1
1.533480000E0,-1.517389268E-1,1.977109015E-1,4.450589716E-1
1.535480000E0,-2.129825205E-1,1.950580031E-1,5.037543774E-1
1.537480000E0,-2.685363591E-1,1.895602047E-1,5.639333129E-1
1.539480000E0,-3.163932860E-1,1.813222617E-1,6.247231364E-1
1.541480000E0,-3.551395833E-1,1.719672978E-1,6.854606271E-1
1.543480000E0,-3.863635361E-1,1.659633517E-1,7.464773059E-1
1.545480000E0,-4.148647487E-1,1.685639024E-1,8.098327518E-1
1.547480000E0,-4.419348240E-1,1.784599125E-1,8.753873110E-1
1.549480000E0,-4.665265083E-1,1.891238838E-1,9.408895373E-1
1.551480000E0,-4.878893495E-1,1.956688613E-1,1.004803538E0
1.553480000E0,-5.070006847E-1,1.973792911E-1,1.067111731E0
1.555480000E0,-5.226737261E-1,1.838704348E-1,1.133835673E0
1.557480000E0,-5.312607884E-1,1.591216624E-1,1.190977812E0
1.559480000E0,-5.338089466E-1,1.313709319E-1,1.234122276E0
1.561480000E0,-5.335994959E-1,9.609782696E-2,1.277249336E0
1.563480000E0,-5.312956572E-1,5.679301545E-2,1.318159938E0
1.565480000E0,-5.268799663E-1,1.743583940E-2,1.356277943E0
1.567480000E0,-5.222548842E-1,-2.097885683E-2,1.392615676E0
1.569480000E0,-5.184674859E-1,-5.902703479E-2,1.426981211E0
1.571480000E0,-5.137725472E-1,-9.628981352E-2,1.458658934E0
1.573480000E0,-5.074370503E-1,-1.322959512E-1,1.488591313E0
1.575480000E0,-4.998099506E-1,-1.687384248E-1,1.517808080E0
1.577480000E0,-4.910309315E-1,-2.078687102E-1,1.546763182E0
1.579480000E0,-4.820773900E-1,-2.474702299E-1,1.576538444E0
1.581480000E0,-4.733856618E-1,-2.847330272E-1,1.607902050E0
1.583480000E0,-4.644844830E-1,-3.188542128E-1,1.638986349E0
1.585480000E0,-4.536110759E-1,-3.472507000E-1,1.668988585E0
1.587480000E0,-4.387583137E-1,-3.629237711E-1,1.697943568E0
1.589480000E0,-4.213573933E-1,-3.604628444E-1,1.723599911E0
1.591480000E0,-4.019667804E-1,-3.389429450E-1,1.743845701E0
1.593480000E0,-3.773401976E-1,-3.027099073E-1,1.756813526E0
1.595480000E0,-3.401646614E-1,-2.592512071E-1,1.760199428E0
1.597480000E0,-2.969503105E-1,-2.121971250E-1,1.753689408E0
1.599480000E0,-2.635621727E-1,-1.690525860E-1,1.742519259E0
1.601480000E0,-2.342057377E-1,-1.230980754E-1,1.727230191E0
1.603480000E0,-2.010968328E-1,-6.335545331E-2,1.705221534E0
1.605480000E0,-1.674294323E-1,3.560471581E-3,1.677017093E0
1.607480000E0,-1.328893751E-1,7.342600077E-2,1.642494440E0
1.609480000E0,-9.894271195E-2,1.441467404E-1,1.602875471E0
1.611480000E0,-6.775368005E-2,2.130348831E-1,1.559277177E0
1.613480000E0,-3.803072497E-2,2.779960334E-1,1.513130665E0
1.615480000E0,-9.826203808E-3,3.388382196E-1,1.464994431E0
1.617480000E0,1.647590846E-2,3.932924867E-1,1.414467216E0
1.619480000E0,4.202752933E-2,4.378507435E-1,1.361705899E0
1.621480000E0,6.630505621E-2,4.702091515E-1,1.308665276E0
1.623480000E0,8.944812417E-2,4.884129465E-1,1.256130934E0
1.625480000E0,1.124341115E-1,4.932998717E-1,1.203509212E0
1.627480000E0,1.350535750E-1,4.864581525E-1,1.151149392E0
1.629480000E0,1.572018117E-1,4.694761038E-1,1.100482464E0
1.631480000E0,1.785297245E-1,4.448844194E-1,1.051456094E0
1.633480000E0,1.979377866E-1,4.137128592E-1,1.004035592E0
1.635480000E0,2.146755010E-1,3.754726946E-1,9.585348368E-1
1.637480000E0,2.306452543E-1,3.314903975E-1,9.138194919E-1
1.639480000E0,2.478891164E-1,2.861292660E-1,8.703607917E-1
1.641480000E0,2.656216621E-1,2.424087822E-1,8.274257183E-1
1.643480000E0,2.832669318E-1,2.006255984E-1,7.840716839E-1
1.645480000E0,3.005456924E-1,1.612160653E-1,7.398974299E-1
1.647480000E0,3.186272979E-1,1.259080470E-1,6.938381791E-1
1.649480000E0,3.386113346E-1,9.480628371E-2,6.460336447E-1
1.651480000E0,3.596948981E-1,6.731735170E-2,5.969200730E-1
1.653480000E0,3.815289736E-1,4.317944497E-2,5.478762984E-1
1.655480000E0,4.052479863E-1,2.167698927E-2,5.017297864E-1
1.657480000E0,4.316373765E-1,2.199114766E-3,4.611508846E-1
1.659480000E0,4.587947130E-1,-1.612684131E-2,4.285481572E-1
1.661480000E0,4.859345555E-1,-3.242821619E-2,4.051607251E-1
1.663480000E0,5.127777457E-1,-4.475024343E-2,3.915471733E-1
1.665480000E0,5.385388136E-1,-5.166174471E-2,3.869569600E-1
1.667480000E0,5.632177591E-1,-5.131268129E-2,3.901334405E-1
1.669480000E0,5.855754018E-1,-4.108504951E-2,3.999421895E-1
1.671480000E0,6.044598818E-1,-1.923352852E-2,4.153010845E-1
1.673480000E0,6.187890172E-1,1.363102160E-2,4.329289198E-1
1.675480000E0,6.268175244E-1,5.447172746E-2,4.508185387E-1
1.677480000E0,6.291388273E-1,9.855873883E-2,4.682194889E-1
1.679480000E0,6.266255379E-1,1.433438957E-1,4.822344780E-1
1.681480000E0,6.199060678E-1,1.874483675E-1,4.917290509E-1
1.683480000E0,6.096085906E-1,2.262295783E-1,4.984311163E-1
1.685480000E0,5.953143239E-1,2.587450743E-1,5.033704042E-1
1.687480000E0,5.768662095E-1,2.865132391E-1,5.063374639E-1
1.689480000E0,5.542118549E-1,3.104242682E-1,5.069134235E-1
1.691480000E0,5.272988677E-1,3.343701661E-1,5.036671162E-1
1.693480000E0,4.958305955E-1,3.602184951E-1,4.988849163E-1
1.695480000E0,4.618839324E-1,3.836757243E-1,4.959876537E-1
1.697480000E0,4.278500080E-1,4.055272639E-1,4.954291582E-1
1.699480000E0,3.934844732E-1,4.292637408E-1,4.961622059E-1
1.701480000E0,3.593109250E-1,4.521799088E-1,4.983438551E-1
1.703480000E0,3.270747066E-1,4.744502902E-1,5.023930073E-1
1.705480000E0,2.981720567E-1,4.977329969E-1,5.065643787E-1
1.707480000E0,2.744181156E-1,5.191830993E-1,5.104739070E-1
1.709480000E0,2.571742535E-1,5.351877809E-1,5.158495307E-1
1.711480000E0,2.460565120E-1,5.464276671E-1,5.237209201E-1
1.713480000E0,2.412045002E-1,5.560619235E-1,5.326046944E-1
1.715480000E0,2.427054793E-1,5.637762547E-1,5.412789583E-1
1.717480000E0,2.496344447E-1,5.684886575E-1,5.501626730E-1
1.719480000E0,2.619215548E-1,5.726076365E-1,5.585228205E-1
1.721480000E0,2.795493901E-1,5.752430558E-1,5.653994083E-1
1.723480000E0,3.015579879E-1,5.731486678E-1,5.713509917E-1
1.725480000E0,3.281916976E-1,5.659928322E-1,5.762902498E-1
1.727480000E0,3.614402413E-1,5.558175445E-1,5.789431930E-1
1.729480000E0,4.021238685E-1,5.463054776E-1,5.787512064E-1
1.731480000E0,4.483576417E-1,5.377010107E-1,5.752081871E-1
1.733480000E0,4.974711835E-1,5.285205841E-1,5.696580410E-1
1.735480000E0,5.483999252E-1,5.190958381E-1,5.636191964E-1
1.737492500E0,6.025923491E-1,5.095837712E-1,5.557826161E-1
1.739480000E0,6.599962711E-1,4.993910491E-1,5.466021895E-1
1.741500312E0,7.180982828E-1,4.879940450E-1,5.378232002E-1
1.743480000E0,7.748738527E-1,4.738743305E-1,5.307720900E-1
1.745480000E0,8.317715526E-1,4.573984444E-1,5.263214707E-1
1.747480000E0,8.887041807E-1,4.424933195E-1,5.235638618E-1
1.749480000E0,9.434376955E-1,4.323180616E-1,5.199161172E-1
1.751480000E0,9.969669580E-1,4.262792170E-1,5.152735710E-1
1.753480000E0,1.047791004E0,4.238182902E-1,5.086587667E-1
1.755480000E0,1.094373822E0,4.247258604E-1,4.990070760E-1
1.757480000E0,1.137623072E0,4.238182902E-1,4.881511331E-1
1.759480000E0,1.177329302E0,4.165053666E-1,4.770857394E-1
1.761480000E0,1.213056207E0,4.021762311E-1,4.662821591E-1
1.763480000E0,1.244332433E0,3.814940751E-1,4.558799863E-1
1.765480000E0,1.271594524E0,3.550872207E-1,4.469090104E-1
1.767480000E0,1.294039488E0,3.241425455E-1,4.388455749E-1
1.769480000E0,1.311702251E0,2.888170779E-1,4.311486781E-1
1.771480000E0,1.326153517E0,2.491806597E-1,4.242197275E-1
1.773480000E0,1.337393403E0,2.071705759E-1,4.176049232E-1
1.775480000E0,1.345456839E0,1.651430577E-1,4.098731279E-1
1.777480000E0,1.350308895E0,1.237263903E-1,3.991393447E-1
1.779480000E0,1.351652741E0,8.286823332E-2,3.834139407E-1
1.781480000E0,1.351879716E0,4.415683076E-2,3.628190458E-1
1.783480000E0,1.352612734E0,5.986479111E-3,3.424336016E-1
1.785480000E0,1.351635337E0,-3.289945796E-2,3.278251886E-1
1.787480000E0,1.347778201E0,-7.429866493E-2,3.190287352E-1
1.789480000E0,1.338946819E0,-1.233424172E-1,3.119775951E-1
1.791480000E0,1.325560093E0,-1.777094305E-1,3.046995699E-1
1.793480000E0,1.310009241E0,-2.298249602E-1,2.957285941E-1
1.795480000E0,1.291683316E0,-2.725157142E-1,2.829353213E-1
1.797480000E0,1.271926165E0,-3.018721342E-1,2.654122114E-1
1.799480000E0,1.252518058E0,-3.207740486E-1,2.412219495E-1
1.801480000E0,1.234192133E0,-3.319441676E-1,2.105565220E-1
1.803480000E0,1.218222380E0,-3.358536959E-1,1.766098738E-1
1.805480000E0,1.204137564E0,-3.317696452E-1,1.416334659E-1
1.807480000E0,1.190523982E0,-3.193603456E-1,1.062556431E-1
1.809480000E0,1.177399158E0,-3.004235327E-1,7.007496804E-2
1.811480000E0,1.166368604E0,-2.778913081E-1,3.389429301E-2
1.813480000E0,1.158409953E0,-2.560921609E-1,-4.014257283E-4
1.815480000E0,1.151393652E0,-2.380629033E-1,-3.204424679E-2
1.817480000E0,1.143801570E0,-2.247285992E-1,-6.195918843E-2
1.819480000E0,1.136279106E0,-2.155132592E-1,-9.054768085E-2
1.821480000E0,1.128494978E0,-2.098583877E-1,-1.170243248E-1
1.823480000E0,1.120588660E0,-2.066120803E-1,-1.413716674E-1
1.825480000E0,1.112944126E0,-2.015157193E-1,-1.635897160E-1
1.827480000E0,1.105735898E0,-1.924923658E-1,-1.821076572E-1
1.829480000E0,1.098702192E0,-1.809208244E-1,-1.969080418E-1
1.831480000E0,1.091406703E0,-1.667487621E-1,-2.098758370E-1
1.833480000E0,1.084338188E0,-1.508662552E-1,-2.220931500E-1
1.835480000E0,1.077671051E0,-1.343205422E-1,-2.330712676E-1
1.837480000E0,1.073080778E0,-1.171639487E-1,-2.410125136E-1
1.839480000E0,1.071824193E0,-1.003913358E-1,-2.458121777E-1
1.841480000E0,1.073534608E0,-8.471827954E-2,-2.477669418E-1
1.843480000E0,1.078962564E0,-6.920230389E-2,-2.457249016E-1
1.845480000E0,1.087793946E0,-5.309291556E-2,-2.389006615E-1
1.847480000E0,1.098335743E0,-3.673918173E-2,-2.275909334E-1
1.849480000E0,1.107673168E0,-1.809906401E-2,-2.122669369E-1
1.851480000E0,1.114951253E0,5.881759338E-3,-1.952848881E-1
1.853480000E0,1.120449066E0,3.712315485E-2,-1.785995364E-1
1.855480000E0,1.121408939E0,7.698646933E-2,-1.594881862E-1
1.857480000E0,1.115492225E0,1.250877529E-1,-1.352979243E-1
1.859480000E0,1.102664113E0,1.796990931E-1,-1.046324894E-1
1.861480000E0,1.086397648E0,2.398082316E-1,-7.129669935E-2
1.863480000E0,1.071893930E0,3.043679595E-1,-4.354596511E-2
1.865480000E0,1.060304999E0,3.685088158E-1,-2.403318323E-2
1.867480000E0,1.050216913E0,4.287226796E-1,-1.008800324E-2
1.869480000E0,1.039169073E0,4.873133898E-1,2.199114766E-3
1.871480000E0,1.024560571E0,5.449441671E-1,1.478293911E-2
1.873480000E0,1.009480953E0,5.993286371E-1,2.652900480E-2
1.875480000E0,9.957452416E-1,6.501874924E-1,3.352777660E-2
1.877480000E0,9.816429615E-1,6.961420178E-1,3.478441015E-2
1.879480000E0,9.676977992E-1,7.334746122E-1,3.277728334E-2
1.881480000E0,9.534907937E-1,7.625517845E-1,3.038618155E-2
1.883480000E0,9.410815239E-1,7.841764092E-1,2.846631967E-2
1.885480000E0,9.338209629E-1,7.989768386E-1,2.389355749E-2
1.887480000E0,9.299288988E-1,8.106879592E-1,1.855284907E-2
1.889480000E0,9.254957438E-1,8.236557841E-1,1.733111963E-2
1.891480000E0,9.205390215E-1,8.377754688E-1,1.841322333E-2
1.893480000E0,9.185144305E-1,8.498356938E-1,1.633628085E-2
1.895480000E0,9.195965528E-1,8.588415980E-1,1.106538717E-2
1.897480000E0,9.231744409E-1,8.628384471E-1,5.759586580E-3
1.899480000E0,9.293878078E-1,8.597142696E-1,-1.745329209E-4
1.901480000E0,9.353743196E-1,8.508828878E-1,-6.370451767E-3
1.903480000E0,9.387602210E-1,8.384386897E-1,-1.237438433E-2
1.905480000E0,9.391965866E-1,8.229576349E-1,-1.923352852E-2
1.907480000E0,9.374687076E-1,8.056090474E-1,-2.834414691E-2
1.909480000E0,9.326690435E-1,7.865501046E-1,-3.961897269E-2
1.911480000E0,9.234536886E-1,7.633371949E-1,-5.178391933E-2
1.913480000E0,9.102415442E-1,7.380997539E-1,-6.178465486E-2
1.915480000E0,8.922297359E-1,7.142585516E-1,-6.524040550E-2
1.917480000E0,8.691216111E-1,6.916041374E-1,-6.253514439E-2
1.919480000E0,8.420341015E-1,6.710267067E-1,-5.574581772E-2
1.921480000E0,8.136550188E-1,6.516011953E-1,-4.763003439E-2
1.923480000E0,7.878940105E-1,6.301162243E-1,-4.337143153E-2
1.925480000E0,7.685731649E-1,6.062226892E-1,-4.700171575E-2
1.927480000E0,7.562860847E-1,5.807234049E-1,-5.921902135E-2
1.929480000E0,7.506486773E-1,5.510702729E-1,-7.712610066E-2
1.931480000E0,7.508929968E-1,5.150291920E-1,-9.861110151E-2
1.933480000E0,7.544534802E-1,4.722511768E-1,-1.218937933E-1
1.935480000E0,7.593752742E-1,4.236088693E-1,-1.420872509E-1
1.937480000E0,7.642273307E-1,3.709697425E-1,-1.553692073E-1
1.939480000E0,7.683986425E-1,3.167248964E-1,-1.614080518E-1
1.941480000E0,7.694807649E-1,2.630734742E-1,-1.616524011E-1
1.943480000E0,7.667580247E-1,2.102947235E-1,-1.592263877E-1
1.945480000E0,7.637560964E-1,1.550375968E-1,-1.585457027E-1
1.947480000E0,7.625343204E-1,9.562659264E-2,-1.592263877E-1
1.949480000E0,7.620282173E-1,3.419100121E-2,-1.582315564E-1
1.951480000E0,7.612078786E-1,-3.056071512E-2,-1.531002820E-1
1.953480000E0,7.614871264E-1,-1.011243761E-1,-1.421745270E-1
1.955480000E0,7.650825381E-1,-1.753008664E-1,-1.260476708E-1
1.957480000E0,7.728667259E-1,-2.474702299E-1,-1.093797833E-1
1.959480000E0,7.839146256E-1,-3.137753010E-1,-9.501572698E-2
1.961480000E0,7.991513610E-1,-3.758043051E-1,-8.159413934E-2
1.963480000E0,8.192400932E-1,-4.376762211E-1,-6.635741889E-2
1.965480000E0,8.406727314E-1,-4.978900850E-1,-4.909611121E-2
1.967480000E0,8.594874144E-1,-5.520650744E-1,-2.912954427E-2
1.969480000E0,8.747240901E-1,-6.003234386E-1,-2.059488557E-3
1.971480000E0,8.885121942E-1,-6.439566612E-1,3.103195317E-2
1.973480000E0,9.013752937E-1,-6.828600764E-1,6.660176069E-2
1.975480000E0,9.123010635E-1,-7.160562277E-1,1.009672955E-1
1.977480000E0,9.205390215E-1,-7.437720299E-1,1.345299780E-1
1.979480000E0,9.260891676E-1,-7.673689127E-1,1.705884784E-1
1.981480000E0,9.302430153E-1,-7.870736718E-1,2.064200938E-1
1.983480000E0,9.325643182E-1,-8.042477369E-1,2.390053868E-1
1.985480000E0,9.338384271E-1,-8.175471425E-1,2.683618367E-1
1.987480000E0,9.356011748E-1,-8.254883885E-1,2.926219106E-1
1.989480000E0,9.372767210E-1,-8.303054571E-1,3.107035160E-1
1.991480000E0,9.376432300E-1,-8.332027197E-1,3.227986395E-1
1.993480000E0,9.368403554E-1,-8.337612152E-1,3.289771080E-1
1.995480000E0,9.352521300E-1,-8.311432600E-1,3.299195766E-1
1.997480000E0,9.330355525E-1,-8.250171542E-1,3.246312439E-1
1.999480000E0,9.318138361E-1,-8.149640560E-1,3.107907772E-1
2.001480000E0,9.319534302E-1,-8.013854027E-1,2.884331048E-1
2.003480000E0,9.323199987E-1,-7.854505181E-1,2.581691146E-1
2.005480000E0,9.327737689E-1,-7.682415843E-1,2.202954590E-1
2.007480000E0,9.329657555E-1,-7.495490909E-1,1.767843962E-1
2.009480000E0,9.327388406E-1,-7.296348810E-1,1.290845573E-1
2.011480000E0,9.323199987E-1,-7.069979906E-1,7.904595882E-2
2.013480000E0,9.312029481E-1,-6.804340482E-1,3.059562109E-2
2.015480000E0,9.288642406E-1,-6.513045430E-1,-1.246165112E-2
2.017480000E0,9.244310856E-1,-6.186144948E-1,-4.893903062E-2
2.019480000E0,9.178860784E-1,-5.813342929E-1,-8.147197217E-2
2.021480000E0,9.108175039E-1,-5.402666926E-1,-1.126959100E-1
2.023480000E0,9.035046101E-1,-4.945041239E-1,-1.399230510E-1
2.025480000E0,8.929628134E-1,-4.424235225E-1,-1.573239714E-1
2.027480000E0,8.763647079E-1,-3.843040466E-1,-1.590344012E-1
2.029480000E0,8.557174802E-1,-3.202330172E-1,-1.458571702E-1
2.031480000E0,8.337437510E-1,-2.505943775E-1,-1.240754575E-1
2.033480000E0,8.121715188E-1,-1.774301678E-1,-9.878563881E-2
2.035480000E0,7.939153910E-1,-1.034631208E-1,-7.524114102E-2
2.037480000E0,7.811220884E-1,-3.295181692E-2,-5.996951461E-2
2.039480000E0,7.756068707E-1,2.982767671E-2,-5.785766616E-2
2.041480000E0,7.768285871E-1,8.159413934E-2,-6.773623079E-2
2.043480000E0,7.807905078E-1,1.212829277E-1,-8.375835419E-2
2.045480000E0,7.824136615E-1,1.544790864E-1,-1.006880477E-1
2.047480000E0,7.786437273E-1,1.856681257E-1,-1.148426607E-1
2.049480000E0,7.685906291E-1,2.141519040E-1,-1.231329814E-1
2.051480000E0,7.512420416E-1,2.393195480E-1,-1.258731484E-1
2.053480000E0,7.283957005E-1,2.628116906E-1,-1.269901544E-1
2.055480000E0,7.042752504E-1,2.834240198E-1,-1.296430528E-1
2.057480000E0,6.811845303E-1,3.003362417E-1,-1.354724616E-1
2.059480000E0,6.613750458E-1,3.122743070E-1,-1.450892240E-1
2.061480000E0,6.416354179E-1,3.187145591E-1,-1.543743759E-1
2.063480000E0,6.156125069E-1,3.225892186E-1,-1.572192609E-1
2.065480000E0,5.829225183E-1,3.229033649E-1,-1.514247656E-1
2.067480000E0,5.478239655E-1,3.189414740E-1,-1.411796808E-1
2.069480000E0,5.152386427E-1,3.129026294E-1,-1.313185692E-1
2.071480000E0,4.883954823E-1,3.069685102E-1,-1.235169470E-1
2.073480000E0,4.661076367E-1,3.042457998E-1,-1.165530905E-1
2.075480000E0,4.440990388E-1,3.050137460E-1,-1.067792401E-1
2.077480000E0,4.218809903E-1,3.059736788E-1,-9.175195545E-2
2.079480000E0,4.021064043E-1,3.057293296E-1,-7.332128286E-2
2.081480000E0,3.848974705E-1,3.043679595E-1,-5.351179466E-2
2.083480000E0,3.703239560E-1,3.019244969E-1,-3.220132366E-2
2.085480000E0,3.580717444E-1,2.990272641E-1,-1.089085452E-2
2.087480000E0,3.464653194E-1,2.959554791E-1,8.813912980E-3
2.089480000E0,3.366914690E-1,2.905973196E-1,2.473131567E-2
2.091480000E0,3.295530677E-1,2.843141258E-1,3.783873841E-2
2.093480000E0,3.234967887E-1,2.801777124E-1,4.948008433E-2
2.095480000E0,3.162885606E-1,2.775596976E-1,5.770058557E-2
2.097480000E0,3.079982400E-1,2.758492827E-1,6.387905031E-2
2.099480000E0,3.001966178E-1,2.720095515E-1,6.860889494E-2
2.101480000E0,2.916619778E-1,2.571742535E-1,7.084291428E-2
2.103480000E0,2.755525708E-1,2.025279999E-1,7.333873212E-2
2.105480000E0,2.450093180E-1,8.307766914E-2,8.035495877E-2
2.107480000E0,2.085842937E-1,2.528982051E-2,9.108873457E-2
2.109480000E0,1.842893213E-1,9.899507463E-2,9.641198814E-2
2.111480000E0,1.756673902E-1,1.728748679E-1,8.752825856E-2
2.113480000E0,1.765749604E-1,1.909390241E-1,6.372196972E-2
2.115480000E0,1.864186227E-1,1.938886195E-1,3.382448107E-2
2.117480000E0,2.071531266E-1,2.020218670E-1,8.709193207E-3
2.119480000E0,2.370506227E-1,2.094395161E-1,-7.801621687E-3
2.121480000E0,2.694264650E-1,2.092998773E-1,-1.736602560E-2
2.123480000E0,2.971248627E-1,2.083050460E-1,-2.347467840E-2
2.125480000E0,3.172310293E-1,2.119876891E-1,-2.848377265E-2
2.127480000E0,3.339512944E-1,2.052856237E-1,-3.242821619E-2
2.129480000E0,3.508460820E-1,1.823694557E-1,-3.529055789E-2
2.131480000E0,3.681423068E-1,1.540951133E-1,-3.708824515E-2
2.133480000E0,3.852814436E-1,1.264840066E-1,-3.654719517E-2
2.135480000E0,4.010941088E-1,1.023112014E-1,-3.223622963E-2
2.137480000E0,4.147949517E-1,8.646360785E-2,-2.446951531E-2
2.139480000E0,4.244815111E-1,7.970918715E-2,-1.500983164E-2
2.141480000E0,4.309392571E-1,8.073893189E-2,-4.834562074E-3
2.143480000E0,4.354596436E-1,8.810421824E-2,6.230825558E-3
2.145480000E0,4.379380047E-1,9.930923581E-2,1.768018492E-2
2.147480000E0,4.379903674E-1,1.127133593E-1,2.802998759E-2
2.149480000E0,4.361228645E-1,1.292067170E-1,3.792600334E-2
2.151480000E0,4.328416586E-1,1.485449672E-1,4.825835302E-2
2.153480000E0,4.286703169E-1,1.684242785E-1,5.846852809E-2
2.155480000E0,4.250749350E-1,1.878672391E-1,6.892304868E-2
2.157480000E0,4.229805470E-1,2.062106431E-1,8.108799905E-2
2.159480000E0,4.218111634E-1,2.212379426E-1,9.454448521E-2
2.161480000E0,4.206941724E-1,2.333679795E-1,1.088736355E-1
2.163480000E0,4.192979038E-1,2.449220568E-1,1.238485649E-1
2.165480000E0,4.184252322E-1,2.553067505E-1,1.387885809E-1
2.167480000E0,4.177445471E-1,2.633178234E-1,1.549677849E-1
2.169480000E0,4.162086546E-1,2.694264650E-1,1.729272157E-1
2.171480000E0,4.143237174E-1,2.719222903E-1,1.906423122E-1
2.173480000E0,4.116533697E-1,2.700896859E-1,2.070135027E-1
2.175480000E0,4.067838788E-1,2.649235129E-1,2.228261828E-1
2.177480000E0,3.972194791E-1,2.549227774E-1,2.406285405E-1
2.179480000E0,3.810228407E-1,2.281319797E-1,2.617644668E-1
2.181480000E0,3.558028340E-1,1.806066632E-1,2.858325839E-1
2.183480000E0,3.237585723E-1,1.505346447E-1,3.120474219E-1
2.185480000E0,2.933549285E-1,1.553343087E-1,3.372325301E-1
2.187480000E0,2.693043053E-1,1.623505205E-1,3.569547236E-1
2.189480000E0,2.513099611E-1,1.541474760E-1,3.693989217E-1
2.191480000E0,2.389355749E-1,1.378635615E-1,3.763628006E-1
2.193480000E0,2.329490930E-1,1.198866665E-1,3.801327050E-1
2.195480000E0,2.339788377E-1,1.002517119E-1,3.823143840E-1
2.197480000E0,2.416582853E-1,7.585200667E-2,3.844611347E-1
2.199480000E0,2.542595565E-1,4.602433369E-2,3.862762749E-1
2.201480000E0,2.694788277E-1,1.399754081E-2,3.851243556E-1
2.203480000E0,2.835811079E-1,-1.637118869E-2,3.808657527E-1
2.205480000E0,2.918365002E-1,-4.326671362E-2,3.747221828E-1
2.207480000E0,2.926742733E-1,-6.653194875E-2,3.649483323E-1
2.209480000E0,2.863910794E-1,-8.735372871E-2,3.527659476E-1
2.211480000E0,2.753082216E-1,-1.100430116E-1,3.408628106E-1
2.213480000E0,2.625847757E-1,-1.363102198E-1,3.300243020E-1
2.215480000E0,2.495122701E-1,-1.640609503E-1,3.192905188E-1
2.217480000E0,2.372600585E-1,-1.895427555E-1,3.073524833E-1
2.219480000E0,2.278352827E-1,-2.116037160E-1,2.961823642E-1
2.221480000E0,2.227563709E-1,-2.300518453E-1,2.878397107E-1
2.223480000E0,2.219360620E-1,-2.438748628E-1,2.816088796E-1
2.225480000E0,2.253918201E-1,-2.542421222E-1,2.749766111E-1
2.227480000E0,2.331236303E-1,-2.612932324E-1,2.687981427E-1
2.229480000E0,2.447824329E-1,-2.644872069E-1,2.643824816E-1
2.231480000E0,2.590068579E-1,-2.648362517E-1,2.594431937E-1
2.233480000E0,2.736327052E-1,-2.634050846E-1,2.542595565E-1
2.235480000E0,2.874731719E-1,-2.587101460E-1,2.515368462E-1
2.237480000E0,2.987829149E-1,-2.501755059E-1,2.507340014E-1
2.239480000E0,3.068637848E-1,-2.403841913E-1,2.510481477E-1
2.241480000E0,3.123615682E-1,-2.300867587E-1,2.524269819E-1
2.243480000E0,3.149097562E-1,-2.189515531E-1,2.548878789E-1
2.245480000E0,3.147003055E-1,-2.062106431E-1,2.580992877E-1
2.247480000E0,3.098657429E-1,-1.912531853E-1,2.635098100E-1
2.249480000E0,2.987480164E-1,-1.740965992E-1,2.735978067E-1
2.251480000E0,2.825513482E-1,-1.532399058E-1,2.862339914E-1
2.253480000E0,2.639461458E-1,-1.292765439E-1,2.983116806E-1
2.255480000E0,2.456550896E-1,-1.049990058E-1,3.092374504E-1
2.257480000E0,2.293711752E-1,-8.155923337E-2,3.177720904E-1
2.259480000E0,2.161066681E-1,-5.780530348E-2,3.234618604E-1
2.261480000E0,2.062979192E-1,-3.392919898E-2,3.279997110E-1
2.263480000E0,2.000845522E-1,-1.253146399E-2,3.314205706E-1
2.265480000E0,1.962971836E-1,5.934119225E-3,3.327993751E-1
2.267480000E0,1.935046464E-1,2.230530791E-2,3.330611885E-1
2.269480000E0,1.914102584E-1,3.623303398E-2,3.318918049E-1
2.271480000E0,1.896125674E-1,4.726351425E-2,3.295356035E-1
2.273480000E0,1.879370511E-1,5.616469681E-2,3.260449469E-1
2.275480000E0,1.853539646E-1,6.326818466E-2,3.208264112E-1
2.277480000E0,1.811477244E-1,6.899286807E-2,3.146130443E-1
2.279480000E0,1.759640872E-1,7.449065149E-2,3.076666296E-1
2.281480000E0,1.703790426E-1,7.956956327E-2,2.997777462E-1
2.283480000E0,1.652652323E-1,8.319984376E-2,2.905798554E-1
2.285480000E0,1.594009250E-1,8.405505866E-2,2.805093229E-1
2.287480000E0,1.525941342E-1,8.251916617E-2,2.694788277E-1
2.289480000E0,1.457175314E-1,7.841764390E-2,2.574011683E-1
2.291480000E0,1.391376406E-1,7.136651129E-2,2.449220568E-1
2.293480000E0,1.332907975E-1,6.220353395E-2,2.322509587E-1
2.295480000E0,1.265014708E-1,4.993386939E-2,2.192133516E-1
2.297480000E0,1.199564785E-1,3.358013555E-2,2.050761878E-1
2.299480000E0,1.144412383E-1,1.366592757E-2,1.898394674E-1
2.301480000E0,1.080882400E-1,-9.250245057E-3,1.738522500E-1
2.303480000E0,1.014036313E-1,-3.310889751E-2,1.566258520E-1
2.305480000E0,9.457939118E-2,-5.639158934E-2,1.385616958E-1
2.307480000E0,8.770279586E-2,-7.976154983E-2,1.201484650E-1
2.309480000E0,8.143706620E-2,-1.025206372E-1,1.019272283E-1
2.311480000E0,7.698646933E-2,-1.241103634E-1,8.408996463E-2
2.313480000E0,7.422885299E-2,-1.445656270E-1,6.611306965E-2
2.315480000E0,7.183775306E-2,-1.639387757E-1,4.804891348E-2
2.317480000E0,7.054620981E-2,-1.819331199E-1,3.059562109E-2
2.319480000E0,7.098253816E-2,-1.984090358E-1,1.466076542E-2
2.321480000E0,7.367035002E-2,-2.152165473E-1,-6.457717973E-4
2.323480000E0,7.887142897E-2,-2.340486497E-1,-1.509709843E-2
2.325480000E0,8.604472876E-2,-2.543468177E-1,-2.855358645E-2
2.327480000E0,9.527752548E-2,-2.761808932E-1,-4.096287861E-2
2.329480000E0,1.066047102E-1,-3.005282283E-1,-5.106833205E-2
2.331480000E0,1.184729487E-1,-3.268478215E-1,-5.991715193E-2
2.333480000E0,1.302539259E-1,-3.523994386E-1,-6.700319052E-2
2.335480000E0,1.410400569E-1,-3.751061559E-1,-7.335618883E-2
2.337480000E0,1.492256522E-1,-3.950901926E-1,-8.004079759E-2
2.339480000E0,1.554041207E-1,-4.104839861E-1,-8.496262878E-2
2.341480000E0,1.601165086E-1,-4.249527752E-1,-8.918632567E-2
2.343480000E0,1.651954204E-1,-4.475722313E-1,-9.405579418E-2
2.345480000E0,1.732588410E-1,-4.804542363E-1,-9.826203436E-2
2.347480000E0,1.831723005E-1,-5.175075531E-1,-1.012290940E-1
2.349480000E0,1.909913868E-1,-5.518556833E-1,-1.027475297E-1
2.351480000E0,1.957561225E-1,-5.825560093E-1,-1.030442417E-1
2.353480000E0,1.980075985E-1,-6.080029011E-1,-1.034980267E-1
2.355480000E0,1.970302165E-1,-6.271840930E-1,-1.043008789E-1
2.357480000E0,1.938013583E-1,-6.422637105E-1,-1.046324894E-1
2.359480000E0,1.896300167E-1,-6.540796161E-1,-1.041263416E-1
2.361480000E0,1.838355362E-1,-6.633123755E-1,-1.026777178E-1
2.363480000E0,1.764353365E-1,-6.705380678E-1,-1.011243761E-1
2.365505000E0,1.693143845E-1,-6.756867766E-1,-1.014385372E-1
2.367480000E0,1.638864130E-1,-6.793693900E-1,-1.031489596E-1
2.369480000E0,1.597848982E-1,-6.824411750E-1,-1.054353416E-1
2.371480000E0,1.555961072E-1,-6.855827570E-1,-1.082453206E-1
2.373480000E0,1.510407925E-1,-6.887592673E-1,-1.112821922E-1
2.375480000E0,1.460316926E-1,-6.913074851E-1,-1.137954667E-1
2.377480000E0,1.398881376E-1,-6.945537925E-1,-1.163785532E-1
2.379480000E0,1.336049587E-1,-6.993534565E-1,-1.202880889E-1
2.381480000E0,1.275835633E-1,-7.066663504E-1,-1.253320873E-1
2.383480000E0,1.213352904E-1,-7.172256112E-1,-1.308647841E-1
2.385480000E0,1.153139025E-1,-7.297221422E-1,-1.362753063E-1
2.387480000E0,1.087689176E-1,-7.411366105E-1,-1.425759494E-1
2.389480000E0,1.013687253E-1,-7.495665550E-1,-1.495747119E-1
2.391480000E0,9.424778074E-2,-7.555181384E-1,-1.565211266E-1
2.393480000E0,8.756317198E-2,-7.582582831E-1,-1.643925607E-1
2.395480000E0,8.201301843E-2,-7.568445802E-1,-1.732762903E-1
2.397480000E0,7.815584540E-2,-7.521671057E-1,-1.819505692E-1
2.399480000E0,7.628834248E-2,-7.452206612E-1,-1.892635077E-1
2.401480000E0,7.646287233E-2,-7.354468107E-1,-1.957212240E-1
2.403480000E0,7.937757671E-2,-7.238927484E-1,-2.021265775E-1
2.405480000E0,8.625417203E-2,-7.119197845E-1,-2.066295296E-1
2.407480000E0,9.567894787E-2,-6.982189417E-1,-2.084621191E-1
2.409480000E0,1.055051535E-1,-6.815859675E-1,-2.095267773E-1
2.411480000E0,1.151917279E-1,-6.628236771E-1,-2.093347907E-1
2.413480000E0,1.248084977E-1,-6.441486478E-1,-2.073625624E-1
2.415480000E0,1.344078034E-1,-6.254910827E-1,-2.055997849E-1
2.417480000E0,1.443212777E-1,-6.052627563E-1,-2.052158117E-1
2.419480000E0,1.537111402E-1,-5.828352571E-1,-2.056695968E-1
2.421480000E0,1.629090309E-1,-5.579293966E-1,-2.080781460E-1
2.423480000E0,1.726479679E-1,-5.335820317E-1,-2.112721056E-1
2.425480000E0,1.829279512E-1,-5.119923353E-1,-2.125636488E-1
2.427480000E0,1.943598688E-1,-4.931078851E-1,-2.146755010E-1
2.429480000E0,2.065946162E-1,-4.762654305E-1,-2.202605456E-1
2.431480000E0,2.197893113E-1,-4.605574906E-1,-2.275909334E-1
2.433480000E0,2.330363542E-1,-4.459665418E-1,-2.340486497E-1
2.435480000E0,2.444333583E-1,-4.324576855E-1,-2.388832122E-1
2.437480000E0,2.544341087E-1,-4.203276336E-1,-2.430545539E-1
2.439480000E0,2.638763189E-1,-4.093844295E-1,-2.469640821E-1
2.441480000E0,2.715034187E-1,-3.995756805E-1,-2.513972223E-1
2.443480000E0,2.771408260E-1,-3.911632001E-1,-2.579421997E-1
2.445480000E0,2.819579542E-1,-3.852116168E-1,-2.659707367E-1
2.447480000E0,2.855009437E-1,-3.824714422E-1,-2.749068141E-1
2.449480000E0,2.878746092E-1,-3.822969198E-1,-2.848726511E-1
2.451480000E0,2.901086211E-1,-3.831870258E-1,-2.955540419E-1
2.453480000E0,2.916619778E-1,-3.841644228E-1,-3.059038520E-1
2.455480000E0,2.922903001E-1,-3.845658600E-1,-3.145257831E-1
2.457480000E0,2.934945524E-1,-3.847403824E-1,-3.230953515E-1
2.459480000E0,2.968106866E-1,-3.851243556E-1,-3.328866363E-1
2.461480000E0,3.025877178E-1,-3.833790123E-1,-3.409849703E-1
2.463480000E0,3.090454638E-1,-3.773052692E-1,-3.458544314E-1
2.465480000E0,3.148224950E-1,-3.713711500E-1,-3.500432372E-1
2.467480000E0,3.200235665E-1,-3.724183440E-1,-3.542669415E-1
2.469480000E0,3.246661425E-1,-3.782128394E-1,-3.566231132E-1
2.471480000E0,3.293959796E-1,-3.849847317E-1,-3.553839326E-1
2.473480000E0,3.335324228E-1,-3.940604329E-1,-3.510729671E-1
2.475480000E0,3.358362615E-1,-4.043753445E-1,-3.461686075E-1
2.477480000E0,3.367787302E-1,-4.129972458E-1,-3.403915763E-1
2.479480000E0,3.359060585E-1,-4.190360904E-1,-3.326772153E-1
2.481480000E0,3.327121139E-1,-4.236961305E-1,-3.238458335E-1
2.483480000E0,3.279299140E-1,-4.284434319E-1,-3.139323592E-1
2.485480000E0,3.215769231E-1,-4.332081676E-1,-3.039141893E-1
2.487480000E0,3.139323592E-1,-4.373620450E-1,-2.935120165E-1
2.489480000E0,3.057642281E-1,-4.406258166E-1,-2.813994288E-1
2.491480000E0,2.964441776E-1,-4.425980449E-1,-2.688854337E-1
2.493480000E0,2.876127958E-1,-4.427551329E-1,-2.578025758E-1
2.495480000E0,2.808583677E-1,-4.399800599E-1,-2.494948208E-1
2.497480000E0,2.749417126E-1,-4.353898466E-1,-2.445380837E-1
2.499480000E0,2.700198889E-1,-4.303632975E-1,-2.425134927E-1
2.501480000E0,2.661103606E-1,-4.242022634E-1,-2.445380837E-1
2.503480000E0,2.626371384E-1,-4.172907770E-1,-2.523047924E-1
2.505480000E0,2.599493265E-1,-4.106759727E-1,-2.646268308E-1
2.507480000E0,2.575931549E-1,-4.067315161E-1,-2.787814438E-1
2.509480000E0,2.547482550E-1,-4.066966176E-1,-2.918190360E-1
2.511480000E0,2.513797581E-1,-4.085815847E-1,-3.024830222E-1
2.513480000E0,2.474876940E-1,-4.099778533E-1,-3.115587234E-1
2.515480000E0,2.439970225E-1,-4.099080265E-1,-3.177720904E-1
2.517480000E0,2.416408360E-1,-4.083023369E-1,-3.209486008E-1
2.519480000E0,2.397209704E-1,-4.054399729E-1,-3.215943575E-1
2.521480000E0,2.383247018E-1,-4.001691043E-1,-3.193428814E-1
2.523480000E0,2.377487570E-1,-3.923500180E-1,-3.162012994E-1
2.525480000E0,2.381501794E-1,-3.831695914E-1,-3.127281070E-1
2.527480000E0,2.395638973E-1,-3.734306395E-1,-3.084695041E-1
2.529480000E0,2.414139360E-1,-3.641105890E-1,-3.032684028E-1
2.531480000E0,2.440493852E-1,-3.552617729E-1,-2.973517478E-1
2.533480000E0,2.482905388E-1,-3.456624448E-1,-2.921157479E-1
2.535480000E0,2.538057864E-1,-3.357490003E-1,-2.877698839E-1
2.537480000E0,2.601413131E-1,-3.269874454E-1,-2.844188511E-1
2.539480000E0,2.668259442E-1,-3.193079829E-1,-2.805267572E-1
2.541480000E0,2.736501694E-1,-3.133563995E-1,-2.757969201E-1
2.543480000E0,2.802300751E-1,-3.096563220E-1,-2.710321844E-1
2.545480000E0,2.857278585E-1,-3.081553280E-1,-2.662499845E-1
2.547480000E0,2.895501256E-1,-3.091327250E-1,-2.611361742E-1
2.549480000E0,2.911209166E-1,-3.142639697E-1,-2.562143207E-1
2.551480000E0,2.914350629E-1,-3.245439827E-1,-2.529505789E-1
2.553480000E0,2.912431061E-1,-3.388382196E-1,-2.503674924E-1
2.555480000E0,2.905449569E-1,-3.569721878E-1,-2.474178672E-1
2.557480000E0,2.883633077E-1,-3.791902363E-1,-2.443286479E-1
2.559480000E0,2.852566242E-1,-4.046371281E-1,-2.408554405E-1
2.561480000E0,2.814692557E-1,-4.323529601E-1,-2.365968376E-1
2.563480000E0,2.752035260E-1,-4.635245502E-1,-2.320240736E-1
2.565480000E0,2.666513920E-1,-4.986231029E-1,-2.251125723E-1
2.567480000E0,2.565284967E-1,-5.372123122E-1,-2.140995413E-1
2.569480000E0,2.451664060E-1,-5.784893632E-1,-2.017251551E-1
2.571480000E0,2.329490930E-1,-6.221225858E-1,-1.881639510E-1
2.573480000E0,2.207317948E-1,-6.692464948E-1,-1.709550023E-1
2.575480000E0,2.084970325E-1,-7.187265754E-1,-1.494350880E-1
2.577480000E0,1.959306598E-1,-7.688524127E-1,-1.248957589E-1
2.579480000E0,1.835562736E-1,-8.186118007E-1,-9.944885969E-2
2.581480000E0,1.725257933E-1,-8.675857186E-1,-7.424630970E-2
2.583480000E0,1.626646817E-1,-9.159313440E-1,-4.820599407E-2
2.585480000E0,1.542347521E-1,-9.637010098E-1,-1.898918301E-2
2.587480000E0,1.479690075E-1,-1.009969711E0,1.436406001E-2
2.589480000E0,1.435184181E-1,-1.053114176E0,5.035274848E-2
2.591480000E0,1.407608092E-1,-1.090237379E0,8.583529294E-2
2.593480000E0,1.399579495E-1,-1.118616462E0,1.179493517E-1
2.595480000E0,1.421570629E-1,-1.137745261E0,1.452288479E-1
2.597480000E0,1.465203911E-1,-1.149630904E0,1.692620367E-1
2.599480000E0,1.517738253E-1,-1.156350493E0,1.935744733E-1
2.601480000E0,1.573763341E-1,-1.159422159E0,2.201907337E-1
2.603480000E0,1.631359309E-1,-1.156245708E0,2.465102971E-1
2.605480000E0,1.683195531E-1,-1.146105409E0,2.698279023E-1
2.607480000E0,1.713738739E-1,-1.130938411E0,2.916445136E-1
2.609480000E0,1.726130694E-1,-1.109610558E0,3.125186563E-1
2.611480000E0,1.724908948E-1,-1.082941890E0,3.323805034E-1
2.613480000E0,1.702394187E-1,-1.050932527E0,3.518234789E-1
2.615480000E0,1.652128696E-1,-1.013914108E0,3.698352575E-1
2.617480000E0,1.581093818E-1,-9.723404050E-1,3.860144615E-1
2.619480000E0,1.498539746E-1,-9.244834185E-1,4.001691043E-1
2.621480000E0,1.414589286E-1,-8.705877066E-1,4.125609398E-1
2.623480000E0,1.336049587E-1,-8.107752204E-1,4.210781455E-1
2.625480000E0,1.256811619E-1,-7.457093596E-1,4.229630828E-1
2.627480000E0,1.180366203E-1,-6.794566512E-1,4.196295142E-1
2.629480000E0,1.111425683E-1,-6.117728353E-1,4.106934369E-1
2.631480000E0,1.039169058E-1,-5.406680703E-1,3.953694403E-1
2.633480000E0,9.655161202E-2,-4.684812725E-1,3.746174574E-1
2.635480000E0,8.881980181E-2,-3.977430761E-1,3.519805372E-1
2.637480000E0,8.030259609E-2,-3.275983036E-1,3.291865587E-1
2.639480000E0,7.115707546E-2,-2.551671267E-1,3.028495312E-1
2.641480000E0,6.080726907E-2,-1.799259931E-1,2.716255784E-1
2.643480000E0,4.934045672E-2,-1.019446775E-1,2.358637899E-1
2.645480000E0,3.803072497E-2,-2.127556317E-2,1.944820434E-1
2.647480000E0,2.680825815E-2,6.108652428E-2,1.479690075E-1
2.649480000E0,1.591740362E-2,1.432391703E-1,9.810495377E-2
2.651480000E0,7.714355364E-3,2.240130156E-1,4.876450077E-2
2.653480000E0,8.901178953E-4,3.001442850E-1,9.738937020E-3
2.655480000E0,-6.283185445E-3,3.705857694E-1,-7.068583276E-3
2.657480000E0,-1.363102160E-2,4.409225285E-1,2.617993741E-4
2.659480000E0,-1.977458037E-2,5.159542561E-1,2.157226950E-2
2.661480000E0,-2.323033288E-2,5.979498029E-1,4.790928960E-2
2.663480000E0,-2.368411794E-2,6.856176853E-1,7.726572454E-2
2.665480000E0,-2.165953629E-2,7.752752304E-1,1.068839654E-1
2.667480000E0,-1.705186628E-2,8.625940681E-1,1.321912408E-1
2.669480000E0,-1.012290921E-2,9.420065284E-1,1.516516656E-1
2.671480000E0,-3.193952609E-3,1.010632873E0,1.662077010E-1
2.673480000E0,2.129301662E-3,1.067286253E0,1.755975783E-1
2.675480000E0,3.979350906E-3,1.109907269E0,1.794198453E-1
2.677480000E0,3.141592606E-4,1.138635397E0,1.790882349E-1
2.679480000E0,-9.354964830E-3,1.154116392E0,1.761037260E-1
2.681480000E0,-2.593559213E-2,1.156612277E0,1.701521426E-1
2.683480000E0,-4.846779257E-2,1.149438977E0,1.614255011E-1
2.685480000E0,-7.499679923E-2,1.135458827E0,1.506044567E-1
2.687480000E0,-1.050513685E-1,1.116522074E0,1.376890242E-1
2.689480000E0,-1.371654272E-1,1.094914794E0,1.239009202E-1
2.691480000E0,-1.701172441E-1,1.070340633E0,1.107236892E-1
2.693480000E0,-2.037322819E-1,1.043619633E0,9.840166569E-2
2.695480000E0,-2.369982600E-1,1.017265201E0,8.676031977E-2
2.697480000E0,-2.688330710E-1,9.945409894E-1,7.665485889E-2
2.699480000E0,-2.997952104E-1,9.780476093E-1,6.876597553E-2
2.701480000E0,-3.281742632E-1,9.691115022E-1,6.270968169E-2
2.703480000E0,-3.523470759E-1,9.676803350E-1,5.897467583E-2
2.705480000E0,-3.732386529E-1,9.743649364E-1,5.873033032E-2
2.707480000E0,-3.905872405E-1,9.884497523E-1,6.209881604E-2
2.709480000E0,-4.026823640E-1,1.009009719E0,6.852162629E-2
2.711480000E0,-4.101523757E-1,1.037266612E0,7.744026184E-2
2.713480000E0,-4.141317308E-1,1.071509957E0,8.895943314E-2
2.715480000E0,-4.141666293E-1,1.108476043E0,1.018574163E-1
2.717480000E0,-4.107108712E-1,1.147519112E0,1.146855876E-1
2.719480000E0,-4.042531550E-1,1.188342333E0,1.284387857E-1
2.721480000E0,-3.962595463E-1,1.229270339E0,1.428551972E-1
2.723480000E0,-3.866951466E-1,1.268016577E0,1.575683206E-1
2.725480000E0,-3.746000230E-1,1.302417040E0,1.720894575E-1
2.727480000E0,-3.614576757E-1,1.335037231E0,1.849350929E-1
2.729480000E0,-3.482280970E-1,1.369472623E0,1.971174777E-1
2.731480000E0,-3.346319795E-1,1.405897617E0,2.086890191E-1
2.733480000E0,-3.224670291E-1,1.444713712E0,2.200336605E-1
2.735480000E0,-3.118379712E-1,1.483861446E0,2.328618318E-1
2.737480000E0,-3.008773029E-1,1.519693136E0,2.462834120E-1
2.739480000E0,-2.907369435E-1,1.552260876E0,2.577502131E-1
2.741480000E0,-2.818706632E-1,1.581931472E0,2.649409771E-1
2.743480000E0,-2.741563320E-1,1.607587814E0,2.681872845E-1
2.745480000E0,-2.681872845E-1,1.628130436E0,2.685538232E-1
2.747480000E0,-2.635447085E-1,1.643122792E0,2.649235129E-1
2.749480000E0,-2.629163861E-1,1.653629661E0,2.580818236E-1
2.751480000E0,-2.661277950E-1,1.655392408E0,2.493028343E-1
2.753480000E0,-2.728124261E-1,1.648219109E0,2.413092256E-1
2.755480000E0,-2.853089571E-1,1.638986349E0,2.364746630E-1
2.757480000E0,-3.023957312E-1,1.627973318E0,2.319717109E-1
2.759480000E0,-3.229208291E-1,1.614324808E0,2.257234305E-1
2.761480000E0,-3.457846344E-1,1.597098470E0,2.171887755E-1
2.763480000E0,-3.696258366E-1,1.572087884E0,2.058266848E-1
2.765480000E0,-3.951076269E-1,1.539502621E0,1.901536286E-1
2.767480000E0,-4.231550694E-1,1.503199697E0,1.711469889E-1
2.769480000E0,-4.516213834E-1,1.461591125E0,1.498365104E-1
2.771480000E0,-4.808731079E-1,1.414345026E0,1.237962022E-1
2.773480000E0,-5.129871964E-1,1.366714954E0,9.489355236E-2
2.775480000E0,-5.465847850E-1,1.321755290E0,6.639232486E-2
2.777480000E0,-5.798158050E-1,1.278209329E0,3.806563094E-2
2.779480000E0,-6.097656488E-1,1.234907746E0,1.043706853E-2
2.781480000E0,-6.336243153E-1,1.193613172E0,-1.436406001E-2
2.783480000E0,-6.496639252E-1,1.156280637E0,-3.583160788E-2
2.785480000E0,-6.561914086E-1,1.122473598E0,-5.403539166E-2
2.787480000E0,-6.528403759E-1,1.092610955E0,-6.775368005E-2
2.789480000E0,-6.439043283E-1,1.070043921E0,-7.840018719E-2
2.791480000E0,-6.348984241E-1,1.052328825E0,-8.967501670E-2
2.793480000E0,-6.249325871E-1,1.033130169E0,-1.005658731E-1
2.795480000E0,-6.101322174E-1,1.011418343E0,-1.065872535E-1
2.797480000E0,-5.914920568E-1,9.912248254E-1,-1.036725566E-1
2.799480000E0,-5.747368932E-1,9.789028168E-1,-9.332275391E-2
2.801480000E0,-5.606695414E-1,9.735621214E-1,-7.869689912E-2
2.803480000E0,-5.448394418E-1,9.691813588E-1,-6.422811747E-2
2.805480000E0,-5.254487991E-1,9.642420411E-1,-5.328490213E-2
2.807480000E0,-5.049412251E-1,9.625490904E-1,-4.345869645E-2
2.809480000E0,-4.842765033E-1,9.672265649E-1,-3.188716620E-2
2.811480000E0,-4.616570473E-1,9.741729498E-1,-1.928588748E-2
2.813480000E0,-4.385663271E-1,9.792169929E-1,-9.424777701E-3
2.815480000E0,-4.155977964E-1,9.828472733E-1,-3.822271014E-3
2.817480000E0,-3.939382732E-1,9.818000793E-1,-5.969026126E-3
2.819480000E0,-3.765896857E-1,9.753772616E-1,-1.883210242E-2
2.821480000E0,-3.648087084E-1,9.642420411E-1,-4.174827412E-2
2.823480000E0,-3.590491414E-1,9.432981014E-1,-7.222172618E-2
2.825480000E0,-3.560820818E-1,9.151983261E-1,-1.048244759E-1
2.827480000E0,-3.517187536E-1,8.857720494E-1,-1.351583004E-1
2.829480000E0,-3.452086747E-1,8.529598713E-1,-1.620014608E-1
2.831480000E0,-3.381401002E-1,8.149815202E-1,-1.839926094E-1
2.833480000E0,-3.333579004E-1,7.752228975E-1,-2.039766312E-1
2.835480000E0,-3.301639259E-1,7.369303703E-1,-2.263343036E-1
2.837480000E0,-3.256959021E-1,7.005227804E-1,-2.534218132E-1
2.839480000E0,-3.210358620E-1,6.636090875E-1,-2.884331048E-1
2.841480000E0,-3.191508949E-1,6.220702529E-1,-3.320314288E-1
2.843480000E0,-3.212103844E-1,5.732708573E-1,-3.832393885E-1
2.845480000E0,-3.274237812E-1,5.155353546E-1,-4.419697225E-1
2.847480000E0,-3.387858570E-1,4.468915462E-1,-5.097408891E-1
2.849480000E0,-3.532022834E-1,3.690847754E-1,-5.897293091E-1
2.851480000E0,-3.675837815E-1,2.884854674E-1,-6.822666526E-1
2.853480000E0,-3.800803423E-1,2.111848444E-1,-7.811570168E-1
2.855480000E0,-3.908315897E-1,1.405688226E-1,-8.791747093E-1
2.857480000E0,-3.974289298E-1,7.616616786E-2,-9.724276662E-1
2.859480000E0,-3.909537494E-1,1.994911395E-2,-1.058350205E0
2.861480000E0,-3.684389889E-1,-2.216568217E-2,-1.133416772E0
2.863480000E0,-3.352777362E-1,-4.593706504E-2,-1.193962336E0
2.865480000E0,-2.971597612E-1,-5.403539166E-2,-1.232481718E0
2.867480000E0,-2.608219981E-1,-5.859070271E-2,-1.236181855E0
2.869480000E0,-2.334028780E-1,-5.761331692E-2,-1.199494958E0
2.871480000E0,-2.149721980E-1,-3.827507049E-2,-1.128058672E0
2.873480000E0,-2.036973834E-1,-7.365289610E-3,-1.025747418E0
2.875480000E0,-1.997354776E-1,2.792526782E-2,-8.969770670E-1
2.877480000E0,-2.000147253E-1,7.354817539E-2,-7.523939610E-1
2.879480000E0,-2.007477731E-1,1.293638051E-1,-6.045471430E-1
2.881480000E0,-2.013760954E-1,1.868200451E-1,-4.635419846E-1
2.883480000E0,-1.994213164E-1,2.382898033E-1,-3.360806108E-1
2.885480000E0,-1.910437346E-1,2.835461795E-1,-2.302263826E-1
2.887480000E0,-1.762782484E-1,3.234269619E-1,-1.508313566E-1
2.889480000E0,-1.576381326E-1,3.560820818E-1,-9.485864639E-2
2.891480000E0,-1.383697093E-1,3.823143840E-1,-6.133086979E-2
2.893480000E0,-1.191710830E-1,4.059286714E-1,-5.431464687E-2
2.895480000E0,-1.028173491E-1,4.240626395E-1,-7.229153812E-2
2.897480000E0,-9.175195545E-2,4.323878586E-1,-1.111774743E-1
2.899480000E0,-8.724901080E-2,4.332605302E-1,-1.661378890E-1
2.901480000E0,-9.236282110E-2,4.272915125E-1,-2.311165035E-1
2.903480000E0,-1.051735431E-1,4.094018936E-1,-3.017674387E-1
2.905480000E0,-1.236391217E-1,3.737098873E-1,-3.769212961E-1
2.907480000E0,-1.491558403E-1,3.197268546E-1,-4.580093026E-1
2.909480000E0,-1.810081005E-1,2.504023910E-1,-5.490980148E-1
2.911480000E0,-2.151118368E-1,1.754754037E-1,-6.505714655E-1
2.913480000E0,-2.485697865E-1,1.042485163E-1,-7.597418427E-1
2.915480000E0,-2.786069214E-1,3.328342736E-2,-8.786685467E-1
2.917480000E0,-2.996555865E-1,-4.040437192E-2,-1.005362034E0
2.919480000E0,-3.069685102E-1,-1.190140024E-1,-1.135197043E0
2.921480000E0,-2.995333970E-1,-2.002590746E-1,-1.265712738E0
2.923480000E0,-2.772455513E-1,-2.740516067E-1,-1.387641430E0
2.925480000E0,-2.419724464E-1,-3.451214135E-1,-1.489987612E0
2.927537812E0,-2.001543641E-1,-4.239055812E-1,-1.568562269E0
2.929480000E0,-1.581966430E-1,-5.109102130E-1,-1.620136738E0
2.931480000E0,-1.187172979E-1,-5.933595896E-1,-1.643332243E0
2.933480000E0,-8.211774379E-2,-6.622651815E-1,-1.637607574E0
2.935480000E0,-5.017821491E-2,-7.231422663E-1,-1.604987264E0
2.937480000E0,-2.361430414E-2,-7.728492618E-1,-1.553831697E0
2.939480000E0,-3.001966281E-3,-8.038288355E-1,-1.488189936E0
2.941480000E0,1.104793418E-2,-8.211599588E-1,-1.410644889E0
2.943480000E0,1.991420612E-2,-8.351749778E-1,-1.330481887E0
2.945480000E0,2.385865152E-2,-8.459087014E-1,-1.254595041E0
2.947480000E0,2.419026382E-2,-8.474445939E-1,-1.184886575E0
2.949480000E0,2.242748067E-2,-8.404982090E-1,-1.121792912E0
2.951480000E0,1.857030392E-2,-8.345116973E-1,-1.067076802E0
2.953480000E0,1.415462047E-2,-8.371297121E-1,-1.025223851E0
2.955480000E0,1.045452245E-2,-8.476540446E-1,-9.987297654E-1
2.957480000E0,5.794493016E-3,-8.611105680E-1,-9.854128957E-1
2.959480000E0,-1.919862116E-4,-8.750906587E-1,-9.818873405E-1
2.961480000E0,-6.108652335E-3,-8.924741149E-1,-9.867742658E-1
2.963480000E0,-1.134464052E-2,-9.187936783E-1,-1.000108600E0
2.965480000E0,-1.506219152E-2,-9.576097727E-1,-1.022902608E0
2.967480000E0,-1.752310619E-2,-1.001819015E0,-1.054911852E0
2.969480000E0,-1.914626174E-2,-1.040006757E0,-1.091930389E0
2.971480000E0,-1.886700839E-2,-1.072277904E0,-1.130362511E0
2.973480000E0,-1.717403904E-2,-1.106573701E0,-1.168410659E0
2.975480000E0,-1.459095255E-2,-1.147676110E0,-1.204416752E0
2.977480000E0,-1.101302728E-2,-1.196597695E0,-1.238642693E0
2.979480000E0,-6.719517522E-3,-1.249027371E0,-1.269290686E0
2.981480000E0,-1.815142459E-3,-1.296884298E0,-1.292189360E0
2.983480000E0,3.316125600E-3,-1.339400530E0,-1.305296779E0
2.985480000E0,9.197885171E-3,-1.380695105E0,-1.307792664E0
2.987480000E0,1.633628085E-2,-1.425288200E0,-1.299659371E0
2.989480000E0,2.555162087E-2,-1.476880193E0,-1.282450438E0
2.991480000E0,3.656464815E-2,-1.533568501E0,-1.257457376E0
2.993480000E0,4.797910154E-2,-1.584409833E0,-1.226460338E0
2.995480000E0,5.989969894E-2,-1.620887280E0,-1.189214945E0
2.997480000E0,7.201228291E-2,-1.642372251E0,-1.144080758E0
2.999480000E0,8.356636763E-2,-1.645112395E0,-1.092558622E0
3.001480000E0,9.363691509E-2,-1.628863454E0,-1.036865234E0
3.003480000E0,9.962339699E-2,-1.609315753E0,-9.778905511E-1
3.005480000E0,9.985028952E-2,-1.601671219E0,-9.166468978E-1
3.007480000E0,9.363691509E-2,-1.601706147E0,-8.547924757E-1
3.009480000E0,8.037241548E-2,-1.599210262E0,-7.936186790E-1
3.011480000E0,6.014404446E-2,-1.590919971E0,-7.330557108E-1
3.013480000E0,3.359758854E-2,-1.573344469E0,-6.730512977E-1
3.015480000E0,1.640609466E-3,-1.539362907E0,-6.132737994E-1
3.017480000E0,-3.502875939E-2,-1.486078024E0,-5.516985655E-1
3.019480000E0,-7.646287233E-2,-1.421465993E0,-4.868595898E-1
3.021480000E0,-1.223824844E-1,-1.356958628E0,-4.191233516E-1
3.023480000E0,-1.707281023E-1,-1.293777704E0,-3.479837477E-1
3.025480000E0,-2.204001844E-1,-1.229863763E0,-2.723237276E-1
3.027480000E0,-2.709274590E-1,-1.159038186E0,-1.910088360E-1
3.029480000E0,-3.224146664E-1,-1.079381466E0,-1.045801267E-1
3.031480000E0,-3.752632439E-1,-1.004035592E0,-1.572541706E-2
3.033480000E0,-4.277103841E-1,-9.455844760E-1,7.312929630E-2
3.035480000E0,-4.742932320E-1,-9.129642844E-1,1.585457027E-1
3.037480000E0,-5.134758353E-1,-8.984082341E-1,2.390751988E-1
3.039480000E0,-5.480333567E-1,-8.861734867E-1,3.122743070E-1
3.041480000E0,-5.797809362E-1,-8.714079857E-1,3.748792708E-1
3.043480000E0,-6.103765368E-1,-8.527853489E-1,4.294033647E-1
3.045480000E0,-6.395584345E-1,-8.281412721E-1,4.768588543E-1
3.047480000E0,-6.669077873E-1,-7.953988910E-1,5.163730979E-1
3.049480000E0,-6.941348910E-1,-7.571238279E-1,5.488711596E-1
3.051480000E0,-7.225837708E-1,-7.245036364E-1,5.737769604E-1
3.053480000E0,-7.508929968E-1,-7.027044892E-1,5.911779404E-1
3.055480000E0,-7.775616050E-1,-6.818477511E-1,6.029937863E-1
3.057480000E0,-8.026245832E-1,-6.509379745E-1,6.125407815E-1
3.059480000E0,-8.251392841E-1,-6.112142801E-1,6.208310723E-1
3.061480000E0,-8.434478045E-1,-5.707401037E-1,6.267477274E-1
3.063480000E0,-8.581609130E-1,-5.321683288E-1,6.304129362E-1
3.065480000E0,-8.701513410E-1,-4.984660447E-1,6.318964362E-1
3.067480000E0,-8.785114884E-1,-4.743455946E-1,6.306223869E-1
3.069480000E0,-8.831714988E-1,-4.648335278E-1,6.253514886E-1
3.071480000E0,-8.850739002E-1,-4.707502127E-1,6.159616113E-1
3.073480000E0,-8.833111525E-1,-4.750611782E-1,6.039188504E-1
3.075480000E0,-8.778657317E-1,-4.625995159E-1,5.908288360E-1
3.077480000E0,-8.674460649E-1,-4.417428374E-1,5.753827095E-1
3.079480000E0,-8.524711728E-1,-4.247433245E-1,5.564807653E-1
3.081480000E0,-8.343721032E-1,-4.133986831E-1,5.358335376E-1
3.083480000E0,-8.127998114E-1,-4.043578804E-1,5.151339173E-1
3.085480000E0,-7.885572314E-1,-3.987902701E-1,4.918686748E-1
3.087480000E0,-7.626041770E-1,-4.047243893E-1,4.634547234E-1
3.089480000E0,-7.352897525E-1,-4.219857156E-1,4.313755631E-1
3.091480000E0,-7.052526474E-1,-4.340459406E-1,3.987379074E-1
3.093480000E0,-6.728069782E-1,-4.364370406E-1,3.671649098E-1
3.095480000E0,-6.384589076E-1,-4.405734539E-1,3.366216421E-1
3.097480000E0,-6.026970744E-1,-4.491953850E-1,3.065147102E-1
3.099480000E0,-5.663593411E-1,-4.577649534E-1,2.772106528E-1
3.101480000E0,-5.279097557E-1,-4.587248862E-1,2.495122701E-1
3.103480000E0,-4.876275361E-1,-4.468042850E-1,2.237163037E-1
3.105480000E0,-4.456698298E-1,-4.173256755E-1,2.015331686E-1
3.107480000E0,-4.017573297E-1,-3.437775075E-1,1.824043542E-1
3.109480000E0,-3.557853699E-1,-2.207317948E-1,1.692445725E-1
3.111480000E0,-3.102497160E-1,-1.157153323E-1,1.616872996E-1
3.113480000E0,-2.689901292E-1,-7.833037525E-2,1.548281610E-1
3.115480000E0,-2.300867587E-1,-8.332201838E-2,1.485624313E-1
3.117480000E0,-1.931206882E-1,-9.513789415E-2,1.434835196E-1
3.119480000E0,-1.581791937E-1,-9.995500743E-2,1.388933063E-1
3.121480000E0,-1.256462485E-1,-9.780824929E-2,1.344950646E-1
3.123480000E0,-9.662142396E-2,-9.409070015E-2,1.308124214E-1
3.125480000E0,-7.124433666E-2,-9.288642555E-2,1.283689588E-1
3.127480000E0,-4.986405745E-2,-9.934414178E-2,1.273741275E-1
3.129480000E0,-3.232349828E-2,-1.145983189E-1,1.276010275E-1
3.131480000E0,-1.980948634E-2,-1.391201913E-1,1.311614960E-1
3.133480000E0,-1.630137488E-2,-1.986533701E-1,1.465029418E-1
3.135480000E0,-2.717477642E-2,-3.283138871E-1,1.884082854E-1
3.137480000E0,-5.180137232E-2,-5.183976889E-1,2.562841475E-1
3.139480000E0,-8.330456167E-2,-7.232993245E-1,3.341083825E-1
3.141480000E0,-1.159945801E-1,-9.086533189E-1,4.121769667E-1
3.143480000E0,-1.476199478E-1,-1.062050343E0,4.872086644E-1
3.145480000E0,-1.765924096E-1,-1.184781909E0,5.578246713E-1
3.147480000E0,-2.019520402E-1,-1.279570699E0,6.235014200E-1
3.149480000E0,-2.249031216E-1,-1.354131103E0,6.830695271E-1
3.151480000E0,-2.449744195E-1,-1.422984362E0,7.357261181E-1
3.153480000E0,-2.623055279E-1,-1.495520234E0,7.823961973E-1
3.155480000E0,-2.781880200E-1,-1.571127892E0,8.225561976E-1
3.157480000E0,-2.928662598E-1,-1.641691566E0,8.572009802E-1
3.159480000E0,-3.067241609E-1,-1.694383144E0,8.908858895E-1
3.161480000E0,-3.208962381E-1,-1.728469372E0,9.257400632E-1
3.163480000E0,-3.364471197E-1,-1.759379148E0,9.616938829E-1
3.165480000E0,-3.541447520E-1,-1.795332909E0,9.987472296E-1
3.167480000E0,-3.755424917E-1,-1.836470366E0,1.036882639E0
3.169480000E0,-3.997327685E-1,-1.886351824E0,1.074808598E0
3.171480000E0,-4.253541827E-1,-1.947700143E0,1.112647414E0
3.173480000E0,-4.525115192E-1,-2.016553402E0,1.151742816E0
3.175480000E0,-4.802971482E-1,-2.086226940E0,1.193525910E0
3.177480000E0,-5.076988339E-1,-2.153736353E0,1.238625288E0
3.179480000E0,-5.336867571E-1,-2.211838245E0,1.286342502E0
3.181480000E0,-5.572138429E-1,-2.251265287E0,1.335752845E0
3.183480000E0,-5.794144273E-1,-2.272680521E0,1.384587169E0
3.185480000E0,-6.001314521E-1,-2.281703711E0,1.430977941E0
3.187480000E0,-6.183527112E-1,-2.279714108E0,1.474489093E0
3.189480000E0,-6.349158883E-1,-2.266257763E0,1.513968349E0
3.191480000E0,-6.492275596E-1,-2.245331049E0,1.551510453E0
3.193480000E0,-6.604325771E-1,-2.220076323E0,1.589820385E0
3.195480000E0,-6.675186157E-1,-2.185815334E0,1.627205372E0
3.197480000E0,-6.707125902E-1,-2.134293318E0,1.662618041E0
3.199480000E0,-6.704333425E-1,-2.059348822E0,1.693772197E0
3.201480000E0,-6.655812860E-1,-1.960982084E0,1.718433738E0
3.203480000E0,-6.573084593E-1,-1.851497650E0,1.737632394E0
3.205480000E0,-6.463477612E-1,-1.745067477E0,1.752397776E0
3.207480000E0,-6.308492422E-1,-1.636420727E0,1.762503266E0
3.209480000E0,-6.100100279E-1,-1.506323814E0,1.766936421E0
3.211480000E0,-5.857499242E-1,-1.356155753E0,1.765575051E0
3.213480000E0,-5.591511130E-1,-1.203805923E0,1.759972572E0
3.215480000E0,-5.297074318E-1,-1.053725123E0,1.751699686E0
3.217480000E0,-4.981344342E-1,-9.036267400E-1,1.742973089E0
3.219480000E0,-4.657236636E-1,-7.544709444E-1,1.735311031E0
3.221480000E0,-4.317072034E-1,-5.930628777E-1,1.729027867E0
3.223480000E0,-3.948109150E-1,-4.033106863E-1,1.726479650E0
3.225480000E0,-3.576877713E-1,-1.985661089E-1,1.728277326E0
3.227480000E0,-3.230255246E-1,-1.136209350E-2,1.733757734E0
3.229480000E0,-2.902831733E-1,1.358389705E-1,1.743548989E0
3.231480000E0,-2.605427504E-1,2.352180183E-1,1.754492283E0
3.233480000E0,-2.326523811E-1,2.952398956E-1,1.764615178E0
3.235480000E0,-2.045700401E-1,3.357664347E-1,1.776954651E0
3.237480000E0,-1.773603559E-1,3.689800501E-1,1.793640018E0
3.239480000E0,-1.517563760E-1,3.954567015E-1,1.814653754E0
3.241480000E0,-1.274613887E-1,4.112693965E-1,1.839611888E0
3.243480000E0,-1.033583954E-1,4.180412591E-1,1.867135763E0
3.245480000E0,-7.902850956E-2,4.188964665E-1,1.896963477E0
3.247480000E0,-5.461135134E-2,4.126132727E-1,1.929932714E0
3.249480000E0,-2.951351739E-2,4.024729133E-1,1.964804411E0
3.251480000E0,-2.879793290E-3,3.923500180E-1,2.002363920E0
3.253480000E0,2.403318323E-2,3.790855110E-1,2.043536186E0
3.255480000E0,5.108578876E-2,3.597996235E-1,2.087448597E0
3.257480000E0,7.946483791E-2,3.345796168E-1,2.133403301E0
3.259480000E0,1.090132669E-1,3.012787402E-1,2.181783676E0
3.261480000E0,1.390329301E-1,2.571044564E-1,2.232415676E0
3.263480000E0,1.685988009E-1,2.037671953E-1,2.284269571E0
3.265480000E0,1.970651299E-1,1.429250091E-1,2.337571859E0
3.267480000E0,2.253743708E-1,7.522369176E-2,2.392724276E0
3.269480000E0,2.529854774E-1,3.787364578E-3,2.449272871E0
3.271480000E0,2.771757245E-1,-6.661921740E-2,2.506694317E0
3.273480000E0,2.996555865E-1,-1.325228512E-1,2.564778805E0
3.275480000E0,3.207915127E-1,-1.943947673E-1,2.623142481E0
3.277480000E0,3.398156166E-1,-2.511354387E-1,2.681942701E0
3.279480000E0,3.589095175E-1,-2.972819209E-1,2.740917444E0
3.281480000E0,3.780557811E-1,-3.302686512E-1,2.800590277E0
3.283480000E0,3.959454000E-1,-3.522074521E-1,2.861170530E0
3.285480000E0,4.130147099E-1,-3.602010608E-1,2.920232534E0
3.287480000E0,4.294382632E-1,-3.464129567E-1,2.977427006E0
3.289480000E0,4.433659911E-1,-3.145956099E-1,3.034796000E0
3.291480000E0,4.540997744E-1,-2.748195529E-1,3.093177319E0
3.293480000E0,4.625646174E-1,-2.245366126E-1,3.151977301E0
3.295480000E0,4.675911665E-1,-1.576730460E-1,3.210637808E0
3.297480000E0,4.674340785E-1,-7.710864395E-2,3.268600225E0
3.299480000E0,4.626344144E-1,1.375319436E-2,3.324712515E0
3.301480000E0,4.540474117E-1,1.157676876E-1,3.377857924E0
3.303480000E0,4.429820180E-1,2.273640335E-1,3.427564859E0
3.305480000E0,4.290019274E-1,3.450690508E-1,3.473379850E0
3.307480000E0,4.116359055E-1,4.677831531E-1,3.514744043E0
3.309480000E0,3.909886479E-1,5.985432267E-1,3.552739859E0
3.311480000E0,3.677583337E-1,7.382568121E-1,3.587140322E0
3.313480000E0,3.425208628E-1,8.822464943E-1,3.616933107E0
3.315480000E0,3.155031800E-1,1.026079059E0,3.642624378E0
3.317480000E0,2.884156704E-1,1.172058344E0,3.664440870E0
3.319480000E0,2.628814876E-1,1.323640227E0,3.681527615E0
3.321480000E0,2.385865152E-1,1.478782535E0,3.692907333E0
3.323480000E0,2.148151249E-1,1.630294561E0,3.700377226E0
3.325480000E0,1.884082854E-1,1.760792851E0,3.705630779E0
3.327480000E0,1.546187252E-1,1.846104503E0,3.710919142E0
3.329480000E0,1.092925146E-1,1.878620028E0,3.719069719E0
3.331480000E0,4.949753731E-2,1.868497133E0,3.730292082E0
3.333480000E0,-2.216568217E-2,1.817341566E0,3.745267153E0
3.335480000E0,-1.024857312E-1,1.731192112E0,3.763034582E0
3.337480000E0,-1.938886195E-1,1.614359736E0,3.779109001E0
3.339480000E0,-2.951700687E-1,1.459182501E0,3.790069818E0
3.341480000E0,-3.837455511E-1,1.316152811E0,3.801798344E0
3.343480000E0,-4.380950928E-1,1.225727320E0,3.820455790E0
3.345480000E0,-4.662297964E-1,1.160835981E0,3.843843222E0
3.347480000E0,-4.824090004E-1,1.105386853E0,3.867876530E0
3.349480000E0,-4.867897928E-1,1.056604862E0,3.893113852E0
3.351480000E0,-4.825660884E-1,1.009934783E0,3.922330856E0
3.353480000E0,-4.761083722E-1,9.625141621E-1,3.954427481E0
3.355480000E0,-4.656014740E-1,9.119694233E-1,3.987693310E0
3.357480000E0,-4.490033984E-1,8.547924757E-1,4.019231319E0
3.359480000E0,-4.267853498E-1,7.882605195E-1,4.046895027E0
3.361480000E0,-4.006927013E-1,7.106806040E-1,4.073005199E0
3.363480000E0,-3.727150559E-1,6.260670424E-1,4.100982666E0
3.365505000E0,-3.430269957E-1,5.401793718E-1,4.132258892E0
3.367480000E0,-3.113667369E-1,4.487241507E-1,4.163919449E0
3.369480000E0,-2.757445574E-1,3.458369970E-1,4.189767361E0
3.371480000E0,-2.363175750E-1,2.272593230E-1,4.207534790E0
3.373480000E0,-1.953372508E-1,9.471901506E-2,4.219821930E0
3.375480000E0,-1.502379477E-1,-3.780383244E-2,4.228932858E0
3.377480000E0,-9.590584040E-2,-1.649859697E-1,4.231044769E0
3.379480000E0,-3.022910282E-2,-2.903006077E-1,4.221811771E0
3.381480000E0,4.509930685E-2,-4.113915563E-1,4.201007366E0
3.383480000E0,1.294336170E-1,-5.225341320E-1,4.170446873E0
3.385480000E0,2.196147740E-1,-6.189286709E-1,4.139065742E0
3.387480000E0,3.081029654E-1,-6.878167987E-1,4.115887642E0
3.389480000E0,3.902032673E-1,-7.237531543E-1,4.105171680E0
3.391480000E0,4.687605202E-1,-7.345916033E-1,4.108714581E0
3.393480000E0,5.490282178E-1,-7.276452184E-1,4.127825737E0
3.395480000E0,6.315648556E-1,-7.106108069E-1,4.162435532E0
3.397480000E0,7.147297859E-1,-6.856874824E-1,4.209035873E0
3.399480000E0,7.978074551E-1,-6.512346864E-1,4.264310360E0
3.401480000E0,8.786685467E-1,-6.021735072E-1,4.323424816E0
3.403480000E0,9.541889429E-1,-5.411742330E-1,4.384092331E0
3.405480000E0,1.021541238E0,-4.746772051E-1,4.445091724E0
3.407480000E0,1.074843526E0,-3.958406746E-1,4.504956722E0
3.409480000E0,1.112629890E0,-3.031462431E-1,4.564367771E0
3.411480000E0,1.139700055E0,-2.070309520E-1,4.622312546E0
3.413480000E0,1.156088591E0,-1.174082980E-1,4.676522255E0
3.415480000E0,1.158968449E0,-3.956661373E-2,4.724152565E0
3.417480000E0,1.147187471E0,2.335250564E-2,4.761223316E0
3.419480000E0,1.121880174E0,7.010987401E-2,4.782306671E0
3.421480000E0,1.086327791E0,9.641198814E-2,4.784890175E0
3.423480000E0,1.041560173E0,9.763371944E-2,4.766372204E0
3.425480000E0,9.870360494E-1,7.541567832E-2,4.721272469E0
3.427480000E0,9.234886169E-1,3.354522958E-2,4.644513130E0
3.429480000E0,8.512319922E-1,-2.326523885E-2,4.535936356E0
3.431480000E0,7.687826157E-1,-8.583529294E-2,4.398316860E0
3.433480000E0,6.774669886E-1,-1.435184181E-1,4.234657288E0
3.435480000E0,5.815786123E-1,-1.947612911E-1,4.047471046E0
3.437480000E0,4.841543436E-1,-2.437177747E-1,3.840596914E0
3.439480000E0,3.867300451E-1,-2.895152271E-1,3.620353937E0
3.441480000E0,2.896373868E-1,-3.312111199E-1,3.393077135E0
3.443480000E0,1.923527420E-1,-3.731164932E-1,3.162623882E0
3.445480000E0,9.498082101E-2,-4.157374203E-1,2.931210756E0
3.447480000E0,-8.203047328E-4,-4.554960132E-1,2.702223539E0
3.449480000E0,-9.316567332E-2,-4.906294942E-1,2.477390051E0
3.451480000E0,-1.806241274E-1,-5.185024142E-1,2.258037090E0
3.453480000E0,-2.613630593E-1,-5.380501151E-1,2.045665503E0
3.455480000E0,-3.355744481E-1,-5.494819880E-1,1.842421889E0
3.457480000E0,-4.042880535E-1,-5.525537729E-1,1.649528146E0
3.459480000E0,-4.669802785E-1,-5.506513715E-1,1.466216207E0
3.461480000E0,-5.227959156E-1,-5.463927984E-1,1.291229486E0
3.463480000E0,-5.717175007E-1,-5.396208763E-1,1.124044418E0
3.465480000E0,-6.146700382E-1,-5.308593512E-1,9.654114246E-1
3.467480000E0,-6.514092088E-1,-5.206665993E-1,8.159239888E-1
3.469480000E0,-6.815161705E-1,-5.089380145E-1,6.742730737E-1
3.471480000E0,-7.045021653E-1,-4.953418970E-1,5.389576554E-1
3.473480000E0,-7.198610306E-1,-4.809603691E-1,4.094018936E-1
3.475480000E0,-7.276801467E-1,-4.665788710E-1,2.853264213E-1
3.477480000E0,-7.286574841E-1,-4.518831968E-1,1.675865203E-1
3.479480000E0,-7.230550051E-1,-4.364370406E-1,5.653121322E-2
3.481480000E0,-7.103664279E-1,-4.206941724E-1,-4.799655452E-2
3.483480000E0,-6.909933090E-1,-4.051258266E-1,-1.461015046E-1
3.485480000E0,-6.657558680E-1,-3.889989853E-1,-2.368586361E-1
3.487480000E0,-6.346366405E-1,-3.739193380E-1,-3.189414740E-1
3.489480000E0,-5.979847312E-1,-3.608293831E-1,-3.911632001E-1
3.491480000E0,-5.562364459E-1,-3.476172388E-1,-4.524591565E-1
3.493480000E0,-5.102121234E-1,-3.327644765E-1,-5.026548505E-1
3.495480000E0,-4.608541727E-1,-3.175626695E-1,-5.407553315E-1
3.497480000E0,-4.073074758E-1,-3.022212088E-1,-5.641602278E-1
3.499480000E0,-3.498337865E-1,-2.849250138E-1,-5.717872977E-1
3.501480000E0,-2.898293734E-1,-2.652725875E-1,-5.644744039E-1
3.503480000E0,-2.272244096E-1,-2.436828762E-1,-5.428846478E-1
3.505480000E0,-1.629090309E-1,-2.210110426E-1,-5.082049966E-1
3.507480000E0,-9.885545075E-2,-1.994736791E-1,-4.622155428E-1
3.509480000E0,-3.647737950E-2,-1.812524348E-1,-4.068711400E-1
3.511480000E0,2.424262278E-2,-1.659284532E-1,-3.455228209E-1
3.513480000E0,8.274605870E-2,-1.533795297E-1,-2.811027169E-1
3.515480000E0,1.378111988E-1,-1.448099613E-1,-2.160543054E-1
3.517480000E0,1.886177361E-1,-1.410051435E-1,-1.529606581E-1
3.519480000E0,2.348864079E-1,-1.413367689E-1,-9.349729121E-2
3.521480000E0,2.764252424E-1,-1.443212777E-1,-3.995058686E-2
3.523480000E0,3.126059175E-1,-1.496445239E-1,6.457718089E-3
3.525480000E0,3.434284329E-1,-1.568527371E-1,4.649557173E-2
3.527480000E0,3.679677546E-1,-1.648463458E-1,8.047713339E-2
3.529480000E0,3.855257630E-1,-1.725083441E-1,1.078788042E-1
3.531480000E0,3.970973194E-1,-1.781632155E-1,1.291369051E-1
3.533480000E0,4.030663371E-1,-1.804495901E-1,1.447227001E-1
3.535480000E0,4.017049670E-1,-1.785471886E-1,1.545488983E-1
3.537480000E0,3.923151195E-1,-1.736777127E-1,1.598023474E-1
3.539480000E0,3.771307468E-1,-1.669581980E-1,1.616349369E-1
3.541480000E0,3.567453027E-1,-1.578999311E-1,1.604830176E-1
3.543480000E0,3.307747841E-1,-1.475850344E-1,1.565385759E-1
3.545480000E0,3.000046313E-1,-1.364498436E-1,1.498888731E-1
3.547480000E0,2.653773129E-1,-1.246514171E-1,1.421221644E-1
3.549480000E0,2.279225439E-1,-1.116487086E-1,1.342332661E-1
3.551480000E0,1.880592257E-1,-9.813986719E-2,1.243896186E-1
3.553480000E0,1.462760419E-1,-8.506734669E-2,1.140747219E-1
3.555480000E0,1.033758521E-1,-7.154104859E-2,1.048244759E-1
3.557480000E0,5.907939374E-2,-5.719443783E-2,9.442231059E-2
3.559480000E0,1.422443334E-2,-4.284783453E-2,8.356636763E-2
3.561480000E0,-3.052580915E-2,-2.783800103E-2,7.346090674E-2
3.563480000E0,-7.494443655E-2,-1.164134592E-2,6.462953985E-2
3.565480000E0,-1.176526472E-1,4.415682983E-3,5.660102889E-2
3.567480000E0,-1.593485624E-1,1.947787404E-2,4.860742018E-2
3.569480000E0,-1.990373433E-1,3.412118554E-2,4.124213010E-2
3.571480000E0,-2.366491854E-1,4.925319180E-2,3.382448107E-2
3.573480000E0,-2.728124261E-1,6.359979510E-2,2.576106042E-2
3.575480000E0,-3.058165908E-1,7.702138275E-2,1.837831736E-2
3.577480000E0,-3.363074958E-1,8.880235255E-2,1.188569237E-2
3.579480000E0,-3.644945621E-1,9.864600748E-2,6.091198884E-3
3.581480000E0,-3.898716569E-1,1.061334684E-1,2.164208330E-3
3.583480000E0,-4.118627906E-1,1.091703475E-1,-3.665191471E-4
3.585480000E0,-4.296651483E-1,1.069363207E-1,-2.356194425E-3
3.587480000E0,-4.422664344E-1,1.003389806E-1,-3.787364578E-3
3.589480000E0,-4.502425790E-1,8.913396299E-2,-3.752457909E-3
3.591480000E0,-4.550597072E-1,7.321656495E-2,-2.146754880E-3
3.593480000E0,-4.570319057E-1,5.569345504E-2,-5.585053586E-4
3.595480000E0,-4.568922818E-1,3.844960406E-2,2.286381321E-3
3.597480000E0,-4.542917609E-1,2.228785492E-2,7.557275705E-3
3.599480000E0,-4.485146999E-1,9.075712413E-3,1.349139493E-2
3.601480000E0,-4.395262599E-1,-1.658062800E-3,1.937315427E-2
3.603480000E0,-4.279721975E-1,-1.171115879E-2,2.555162087E-2
3.605480000E0,-4.134859443E-1,-2.021091245E-2,3.218387067E-2
3.607480000E0,-3.955963254E-1,-2.621484548E-2,3.928736225E-2
3.609480000E0,-3.747396469E-1,-3.117158078E-2,4.660028964E-2
3.611480000E0,-3.504795730E-1,-3.508111835E-2,5.494296551E-2
3.613480000E0,-3.235491216E-1,-3.700098023E-2,6.466444582E-2
3.615480000E0,-2.952398956E-1,-3.839724511E-2,7.429866493E-2
3.617480000E0,-2.666513920E-1,-3.740240633E-2,8.389797807E-2
3.619480000E0,-2.379930913E-1,-3.003711626E-2,9.285151958E-2
3.621480000E0,-2.095791399E-1,-1.600466855E-2,1.009149402E-1
3.623480000E0,-1.816015095E-1,4.520402756E-3,1.086292937E-1
3.625480000E0,-1.528559327E-1,2.898991853E-2,1.161691174E-1
3.627480000E0,-1.231678873E-1,5.251695588E-2,1.230457127E-1
3.629480000E0,-9.309586138E-2,7.314674556E-2,1.277231872E-1
3.631480000E0,-6.380923837E-2,8.943066746E-2,1.302713752E-1
3.633480000E0,-3.609341010E-2,1.020668522E-1,1.313011199E-1
3.635480000E0,-1.125737373E-2,1.119279638E-1,1.314058453E-1
3.637480000E0,9.896016680E-3,1.187871099E-1,1.301841140E-1
3.639480000E0,2.892010473E-2,1.241103634E-1,1.274788529E-1
3.641480000E0,4.677482322E-2,1.272170544E-1,1.238485649E-1
3.643480000E0,6.286676228E-2,1.275486648E-1,1.198517606E-1
3.645480000E0,7.606144994E-2,1.254717261E-1,1.141270772E-1
3.647480000E0,8.710937947E-2,1.217716187E-1,1.064127237E-1
3.649480000E0,9.697049111E-2,1.167974323E-1,9.791296721E-2
3.651480000E0,1.057145894E-1,1.103571653E-1,8.972737938E-2
3.653480000E0,1.136907488E-1,1.036376506E-1,8.133234084E-2
3.655480000E0,1.200961024E-1,9.679596126E-2,7.192502171E-2
3.657480000E0,1.249132156E-1,8.895943314E-2,6.209881604E-2
3.659480000E0,1.287703961E-1,8.009316027E-2,5.146975815E-2
3.661480000E0,1.319294423E-1,7.141887397E-2,4.019493237E-2
3.663480000E0,1.338318437E-1,6.316346675E-2,2.930407785E-2
3.665480000E0,1.349314004E-1,5.506513640E-2,1.886700839E-2
3.667480000E0,1.353677362E-1,4.609414563E-2,8.936085738E-3
3.669480000E0,1.349314004E-1,3.707079217E-2,-4.537856148E-4
3.671480000E0,1.344252527E-1,2.865830623E-2,-9.651671164E-3
3.673480000E0,1.335874945E-1,2.019345947E-2,-1.811651699E-2
3.675480000E0,1.316676438E-1,1.326450240E-2,-2.535963431E-2
3.677480000E0,1.293114424E-1,7.295476273E-3,-3.115412779E-2
3.679480000E0,1.264665574E-1,2.024581889E-3,-3.476695716E-2
3.681480000E0,1.227664575E-1,-1.989675453E-3,-3.591887653E-2
3.683480000E0,1.181064323E-1,-6.161012221E-3,-3.544763848E-2
3.685480000E0,1.127482727E-1,-1.069886796E-2,-3.178244457E-2
3.687480000E0,1.080358773E-1,-1.633628085E-2,-2.019345947E-2
3.689480000E0,1.039169058E-1,-2.115339041E-2,1.701696031E-2
3.691480000E0,9.812241048E-2,-1.774999872E-2,9.215338528E-2
3.693480000E0,9.135053307E-2,-5.637413356E-3,1.918465942E-1
3.695480000E0,8.827875555E-2,4.956734832E-3,2.965139747E-1
3.697480000E0,9.049531817E-2,6.440265104E-3,3.931005001E-1
3.699480000E0,9.709266573E-2,-5.061454722E-4,4.743804932E-1
3.701480000E0,1.086118370E-1,-1.534144394E-2,5.368283987E-1
3.703480000E0,1.246514171E-1,-4.000294581E-2,5.780355930E-1
3.705480000E0,1.428726465E-1,-7.182029635E-2,5.951223373E-1
3.707480000E0,1.616524011E-1,-1.049815565E-1,5.891358852E-1
3.709480000E0,1.812873483E-1,-1.389980167E-1,5.652248859E-1
3.711480000E0,2.034879327E-1,-1.787217110E-1,5.267753005E-1
3.713480000E0,2.283065170E-1,-2.236115783E-1,4.757767618E-1
3.715480000E0,2.522873282E-1,-2.677684128E-1,4.171336889E-1
3.717480000E0,2.743657529E-1,-3.106860518E-1,3.569721878E-1
3.719480000E0,2.972470224E-1,-3.552966714E-1,2.980673313E-1
3.721480000E0,3.213849366E-1,-4.002737999E-1,2.400002182E-1
3.723480000E0,3.444756269E-1,-4.441513717E-1,1.851270795E-1
3.725480000E0,3.668158352E-1,-4.882209599E-1,1.362753063E-1
3.727480000E0,3.885277510E-1,-5.298296213E-1,9.428268671E-2
3.729480000E0,4.071504176E-1,-5.656961203E-1,6.016149744E-2
3.731480000E0,4.229456484E-1,-5.979847312E-1,3.679154068E-2
3.733480000E0,4.375714958E-1,-6.287897825E-1,2.853613347E-2
3.735480000E0,4.517435730E-1,-6.583905220E-1,3.560471535E-2
3.737480000E0,4.653920531E-1,-6.880960464E-1,5.614724010E-2
3.739480000E0,4.788485467E-1,-7.197737694E-1,8.944812417E-2
3.741481562E0,4.928460717E-1,-7.563384175E-1,1.342507303E-1
3.743480000E0,5.080130100E-1,-7.977376580E-1,1.910088360E-1
3.745480000E0,5.249077678E-1,-8.433082104E-1,2.579771280E-1
3.747480000E0,5.425356030E-1,-8.940449357E-1,3.247010410E-1
3.749480000E0,5.604252219E-1,-9.500524998E-1,3.856304884E-1
3.751480000E0,5.787686110E-1,-1.012622595E0,4.432438016E-1
3.753480000E0,5.960124731E-1,-1.080393672E0,4.938583672E-1
3.755480000E0,6.102892756E-1,-1.147745967E0,5.327617526E-1
3.757480000E0,6.221051812E-1,-1.211467981E0,5.631130338E-1
3.759480000E0,6.332228780E-1,-1.273688912E0,5.922076702E-1
3.761480000E0,6.465921402E-1,-1.336590648E0,6.201329231E-1
3.763480000E0,6.608689427E-1,-1.398183227E0,6.397155523E-1
3.765480000E0,6.710965633E-1,-1.453230977E0,6.470459104E-1
3.767480000E0,6.762103438E-1,-1.499935985E0,6.431014538E-1
3.769480000E0,6.757565737E-1,-1.537896872E0,6.304304004E-1
3.771480000E0,6.686356068E-1,-1.563448429E0,6.107605100E-1
3.773480000E0,6.553187966E-1,-1.574793100E0,5.844584107E-1
3.775480000E0,6.372720599E-1,-1.574042678E0,5.538628101E-1
3.777480000E0,6.147747636E-1,-1.565525413E0,5.202477574E-1
3.779480000E0,5.888915658E-1,-1.552924156E0,4.841543436E-1
3.781480000E0,5.628861189E-1,-1.540514827E0,4.454778433E-1
3.783480000E0,5.381024480E-1,-1.531369328E0,4.029092491E-1
3.785480000E0,5.128650069E-1,-1.523550272E0,3.574957848E-1
3.787480000E0,4.868072271E-1,-1.514038205E0,3.112271130E-1
3.789480000E0,4.619886577E-1,-1.502920508E0,2.649235129E-1
3.791480000E0,4.395786226E-1,-1.491767764E0,2.205223441E-1
3.793480000E0,4.203625619E-1,-1.483425140E0,1.809731871E-1
3.795480000E0,4.065395296E-1,-1.480667472E0,1.462585926E-1
3.797480000E0,3.971322179E-1,-1.483651996E0,1.163436472E-1
3.799480000E0,3.910759389E-1,-1.493076801E0,9.122835845E-2
3.801480000E0,3.889466226E-1,-1.508906960E0,6.995279342E-2
3.803480000E0,3.887022734E-1,-1.528908372E0,5.277875811E-2
3.805480000E0,3.904999793E-1,-1.548735380E0,3.820525855E-2
3.807480000E0,3.962770104E-1,-1.561231971E0,2.312561311E-2
3.809480000E0,4.068362415E-1,-1.557165265E0,6.248278543E-3
3.811480000E0,4.221777022E-1,-1.531508923E0,-1.291543618E-2
3.813480000E0,4.394738972E-1,-1.486357331E0,-3.492403775E-2
3.815480000E0,4.569272101E-1,-1.424415588E0,-5.808455870E-2
3.817480000E0,4.753927886E-1,-1.347429037E0,-8.140215278E-2
3.819480000E0,4.958654940E-1,-1.259289980E0,-1.044579521E-1
3.821480000E0,5.205968022E-1,-1.157118440E0,-1.261698455E-1
3.823480000E0,5.543514490E-1,-9.801245332E-1,-1.488765776E-1
3.825480000E0,6.021735072E-1,-6.397853494E-1,-1.843242198E-1
3.827480000E0,6.642548442E-1,-1.849699914E-1,-2.420073599E-1
3.829480000E0,7.308740616E-1,2.223549485E-1,-3.112445772E-1
3.831480000E0,7.873354554E-1,4.816061556E-1,-3.728896081E-1
3.833480000E0,8.242142797E-1,5.877570510E-1,-4.166100919E-1
3.835480000E0,8.417548537E-1,5.861338973E-1,-4.403989315E-1
3.837480000E0,8.435176015E-1,5.324475765E-1,-4.478689432E-1
3.839480000E0,8.328711390E-1,4.705058634E-1,-4.452334940E-1
3.841480000E0,8.143357038E-1,4.206767082E-1,-4.362624884E-1
3.843480000E0,7.897440195E-1,3.802025318E-1,-4.237833917E-1
3.845480000E0,7.598639727E-1,3.387858570E-1,-4.073249400E-1
3.847480000E0,7.265456319E-1,2.916270494E-1,-3.839026093E-1
3.849480000E0,6.921452284E-1,2.437003255E-1,-3.538480401E-1
3.851480000E0,6.588966846E-1,2.046224028E-1,-3.198490441E-1
3.853480000E0,6.280043721E-1,1.795594692E-1,-2.848551869E-1
3.855480000E0,5.996427536E-1,1.699950695E-1,-2.513448596E-1
3.857480000E0,5.745275021E-1,1.733635515E-1,-2.187770158E-1
3.859480000E0,5.523094535E-1,1.842020452E-1,-1.875356287E-1
3.861480000E0,5.315749049E-1,1.965066195E-1,-1.599768847E-1
3.863480000E0,5.124112368E-1,2.049889266E-1,-1.358215213E-1
3.865480000E0,4.938758314E-1,2.071705759E-1,-1.158724055E-1
3.867480000E0,4.752880633E-1,2.033308595E-1,-9.955357760E-2
3.869480000E0,4.579394758E-1,1.957735866E-1,-8.438666910E-2
3.871480000E0,4.407654405E-1,1.863837093E-1,-7.065092772E-2
3.873480000E0,4.230503440E-1,1.746550947E-1,-6.031857803E-2
3.875480000E0,4.066966176E-1,1.598023474E-1,-5.548401549E-2
3.877480000E0,3.908664882E-1,1.430122852E-1,-5.382595211E-2
3.879480000E0,3.746523857E-1,1.251226515E-1,-4.935790971E-2
3.881480000E0,3.592061996E-1,1.077566296E-1,-3.996803984E-2
3.883480000E0,3.440916538E-1,9.342747182E-2,-2.888519876E-2
3.885480000E0,3.278251886E-1,8.347909898E-2,-1.900663599E-2
3.887480000E0,3.101624548E-1,7.691665739E-2,-1.026253588E-2
3.889480000E0,2.909812927E-1,7.328637689E-2,-1.640609466E-3
3.891480000E0,2.702293396E-1,7.655014098E-2,9.424777701E-3
3.893480000E0,2.485174239E-1,8.829620481E-2,2.656391077E-2
3.895480000E0,2.258106917E-1,1.072853878E-1,4.995132238E-2
3.897480000E0,2.017251551E-1,1.326799244E-1,7.620107383E-2
3.899480000E0,1.748645306E-1,1.632231921E-1,1.014036313E-1
3.901480000E0,1.446878016E-1,1.971174777E-1,1.249132156E-1
3.903480000E0,1.115614474E-1,2.349038571E-1,1.496445239E-1
3.905480000E0,7.567747682E-2,2.812249064E-1,1.792802215E-1
3.907480000E0,3.644247353E-2,3.347890675E-1,2.131221592E-1
3.909480000E0,-8.866272867E-3,3.903777897E-1,2.496169955E-1
3.911480000E0,-6.045820564E-2,4.483401775E-1,2.897246480E-1
3.913480000E0,-1.142841578E-1,5.072973967E-1,3.319267035E-1
3.915480000E0,-1.658586413E-1,5.578072071E-1,3.693116605E-1
3.917480000E0,-2.136806548E-1,5.941450000E-1,3.965213597E-1
3.919480000E0,-2.590417564E-1,6.199933290E-1,4.151789248E-1
3.921480000E0,-3.021164834E-1,6.384065151E-1,4.287750423E-1
3.923480000E0,-3.398505151E-1,6.490530372E-1,4.399800599E-1
3.925480000E0,-3.732037544E-1,6.562263370E-1,4.508534372E-1
3.927480000E0,-4.060333967E-1,6.651449800E-1,4.606447518E-1
3.929480000E0,-4.380252659E-1,6.763499975E-1,4.668406546E-1
3.931480000E0,-4.687081575E-1,6.894399524E-1,4.665265083E-1
3.933480000E0,-4.976282716E-1,7.023379207E-1,4.572413564E-1
3.935480000E0,-5.232846141E-1,7.132636905E-1,4.398927689E-1
3.937480000E0,-5.457121134E-1,7.243465185E-1,4.183030725E-1
3.939480000E0,-5.640031695E-1,7.342250943E-1,3.931179643E-1
3.941480000E0,-5.774421692E-1,7.372968793E-1,3.626619577E-1
3.943480000E0,-5.863782763E-1,7.306472063E-1,3.297450542E-1
3.945480000E0,-5.925567150E-1,7.184822559E-1,2.974041104E-1
3.947480000E0,-6.001139879E-1,7.100523114E-1,2.668783069E-1
3.949480000E0,-6.095038652E-1,7.072597742E-1,2.377312928E-1
3.951480000E0,-6.180559993E-1,7.051653862E-1,2.091253549E-1
3.953480000E0,-6.247056723E-1,6.970670223E-1,1.836086363E-1
3.955480000E0,-6.299242377E-1,6.814463735E-1,1.624726951E-1
3.957480000E0,-6.352126002E-1,6.624746323E-1,1.447227001E-1
3.959480000E0,-6.449340582E-1,6.481105685E-1,1.296081543E-1
3.961480000E0,-6.637312770E-1,6.488959789E-1,1.143016145E-1
3.963480000E0,-6.884276867E-1,6.612179875E-1,9.827949107E-2
3.965480000E0,-7.126877308E-1,6.712710857E-1,8.545131981E-2
3.967480000E0,-7.358133793E-1,6.763150692E-1,7.801621407E-2
3.969480000E0,-7.616442442E-1,6.853209734E-1,7.342600077E-2
3.971480000E0,-7.910879254E-1,7.009766102E-1,6.871361285E-2
3.973480000E0,-8.195018768E-1,7.133509517E-1,6.426302344E-2
3.975480000E0,-8.417897224E-1,7.136476636E-1,6.181956083E-2
3.977480000E0,-8.552811146E-1,7.005053759E-1,6.113888323E-2
3.979480000E0,-8.588765264E-1,6.746570468E-1,6.276203692E-2
3.981480000E0,-8.518254161E-1,6.369753480E-1,6.721262634E-2
3.983480000E0,-8.334819674E-1,5.884901285E-1,7.344345748E-2
3.985480000E0,-8.055043817E-1,5.315225720E-1,8.133234084E-2
3.987480000E0,-7.688524127E-1,4.694935679E-1,8.991936594E-2
3.989480000E0,-7.236484289E-1,4.038517475E-1,9.878563881E-2
3.991480000E0,-6.711488962E-1,3.354697227E-1,1.083849445E-1
3.993480000E0,-6.125407815E-1,2.643824816E-1,1.179668009E-1
3.995480000E0,-5.492202044E-1,1.896823794E-1,1.269203424E-1
3.997480000E0,-4.827231765E-1,1.125737354E-1,1.346696019E-1
3.999480000E0,-4.247258604E-1,4.581489414E-2,1.393994540E-1
4.001480000E0,-3.708301187E-1,-1.762782596E-2,1.413367689E-1
4.003480000E0,-3.100577295E-1,-9.112364054E-2,1.427504718E-1
4.005480000E0,-2.490235716E-1,-1.674468815E-1,1.439547539E-1
4.007480000E0,-1.907121241E-1,-2.436479628E-1,1.450717598E-1
4.009480000E0,-1.360484213E-1,-3.188542128E-1,1.464854777E-1
4.011480000E0,-8.508480340E-2,-3.946014941E-1,1.473755985E-1
4.013480000E0,-3.813544288E-2,-4.702615142E-1,1.480388194E-1
4.015480000E0,4.642575979E-3,-5.430243015E-1,1.483180821E-1
4.017480000E0,4.256857932E-2,-6.121044159E-1,1.474803239E-1
