"Time (s)","Gyroscope x (rad/s)","Gyroscope y (rad/s)","Gyroscope z (rad/s)"
1.330531770E-1,-7.584648579E-2,-9.970992208E-1,-4.285368621E-1
1.354268230E-1,-8.195514232E-2,-1.003207803E0,-4.322020710E-1
1.377996880E-1,-8.806378394E-2,-1.005651236E0,-4.444193542E-1
1.401717710E-1,-9.783761948E-2,-9.983209372E-1,-4.578583837E-1
1.425446880E-1,-1.076114550E-1,-9.861036539E-1,-4.700756669E-1
1.449183330E-1,-1.124983802E-1,-9.775515199E-1,-4.810712337E-1
1.472911980E-1,-1.173852906E-1,-9.702211618E-1,-4.884016216E-1
1.496633330E-1,-1.210504845E-1,-9.653342366E-1,-4.945102632E-1
1.520361980E-1,-1.234939471E-1,-9.604473114E-1,-4.993971884E-1
1.544098440E-1,-1.308243126E-1,-9.531169534E-1,-5.042840838E-1
1.567827080E-1,-1.357112229E-1,-9.457865953E-1,-5.079492331E-1
1.591547920E-1,-1.405981481E-1,-9.384561777E-1,-5.116144419E-1
1.615277080E-1,-1.442633271E-1,-9.299041033E-1,-5.140579343E-1
1.639013540E-1,-1.479285210E-1,-9.225737453E-1,-5.177230835E-1
1.662742190E-1,-1.515937150E-1,-9.164650440E-1,-5.226100087E-1
1.686463540E-1,-1.564806253E-1,-9.103564024E-1,-5.262752175E-1
1.710192190E-1,-1.564806253E-1,-9.005826116E-1,-5.287186503E-1
1.733928650E-1,-1.638109982E-1,-8.944739699E-1,-5.299403667E-1
1.757657290E-1,-1.625892818E-1,-8.871435523E-1,-5.299403667E-1
1.781378130E-1,-1.650327295E-1,-8.822566271E-1,-5.299403667E-1
1.805107290E-1,-1.662544608E-1,-8.785914779E-1,-5.299403667E-1
1.828843750E-1,-1.674761921E-1,-8.749262691E-1,-5.189447999E-1
1.852572400E-1,-1.638109982E-1,-8.773697019E-1,-5.018405914E-1
1.876293230E-1,-1.613675505E-1,-8.847001195E-1,-4.945102632E-1
1.900022400E-1,-1.577023566E-1,-8.944739699E-1,-4.957319796E-1
1.923758850E-1,-1.564806253E-1,-8.969174027E-1,-5.018405914E-1
1.947487500E-1,-1.540371627E-1,-8.932521939E-1,-5.079492331E-1
1.971208850E-1,-1.515937150E-1,-8.871435523E-1,-5.103927255E-1
1.994937500E-1,-1.454850584E-1,-8.871435523E-1,-5.079492331E-1
2.018673960E-1,-1.405981481E-1,-8.883652687E-1,-5.079492331E-1
2.042402600E-1,-1.393764168E-1,-8.883652687E-1,-5.091710091E-1
2.066123960E-1,-1.320460439E-1,-8.920304775E-1,-5.079492331E-1
2.089852600E-1,-1.283808500E-1,-8.944739699E-1,-5.079492331E-1
2.113589060E-1,-1.271591187E-1,-8.969174027E-1,-5.055058002E-1
2.137317710E-1,-1.210504845E-1,-9.005826116E-1,-5.042840838E-1
2.161039060E-1,-1.161635593E-1,-9.054694772E-1,-5.006188750E-1
2.184767710E-1,-1.112766489E-1,-9.115781784E-1,-4.969537258E-1
2.208504170E-1,-1.063897237E-1,-9.164650440E-1,-4.920668006E-1
2.232232810E-1,-1.015028134E-1,-9.201302528E-1,-4.871798754E-1
2.255954170E-1,-9.539415687E-2,-9.250171781E-1,-4.822929800E-1
2.279682810E-1,-9.295070916E-2,-9.274606109E-1,-4.761843383E-1
2.303419270E-1,-8.806378394E-2,-9.299041033E-1,-4.688539505E-1
2.327147920E-1,-8.439860493E-2,-9.323475361E-1,-4.627453089E-1
2.350868750E-1,-7.706821710E-2,-9.347910285E-1,-4.554149210E-1
2.374597920E-1,-7.218130678E-2,-9.372344613E-1,-4.480845332E-1
2.398334380E-1,-6.851611286E-2,-9.347910285E-1,-4.358672500E-1
2.422063020E-1,-6.607265770E-2,-9.335692525E-1,-4.077674747E-1
2.445783850E-1,-5.874227732E-2,-9.384561777E-1,-3.833328784E-1
2.469513020E-1,-5.385535955E-2,-9.482300282E-1,-3.625634909E-1
2.493249480E-1,-4.896844178E-2,-9.555603862E-1,-3.356854320E-1
2.516978130E-1,-4.041633755E-2,-9.592255950E-1,-3.259116113E-1
2.540698960E-1,-3.308596462E-2,-9.653342366E-1,-3.332419693E-1
2.564428130E-1,-2.697731555E-2,-9.641125202E-1,-3.527896404E-1
2.588164580E-1,-1.964693516E-2,-9.506735206E-1,-3.674504161E-1
2.611893230E-1,-1.353829354E-2,-9.384561777E-1,-3.735590577E-1
2.635614060E-1,-6.207913160E-3,-9.311258197E-1,-3.723373115E-1
2.659343230E-1,1.122463495E-3,-9.299041033E-1,-3.686721325E-1
2.683079690E-1,1.089629903E-2,-9.286823869E-1,-3.613417447E-1
2.706808330E-1,1.822667569E-2,-9.299041033E-1,-3.527896404E-1
2.730529170E-1,2.555705234E-2,-9.347910285E-1,-3.442375362E-1
2.754258330E-1,3.166570142E-2,-9.457865953E-1,-3.393506110E-1
2.777994790E-1,4.143953323E-2,-9.555603862E-1,-3.344637156E-1
2.801723960E-1,5.243510008E-2,-9.506735206E-1,-3.271333277E-1
2.825444270E-1,6.343066692E-2,-9.457865953E-1,-3.185812235E-1
2.849173440E-1,7.320450246E-2,-9.457865953E-1,-3.112508357E-1
2.872909900E-1,8.297833800E-2,-9.470083117E-1,-3.063639402E-1
2.896639060E-1,9.397389740E-2,-9.470083117E-1,-3.002552688E-1
2.920359380E-1,1.061911955E-1,-9.457865953E-1,-2.917031646E-1
2.944088540E-1,1.159650311E-1,-9.445648193E-1,-2.843728065E-1
2.967825000E-1,1.269606054E-1,-9.445648193E-1,-2.782641649E-1
2.991554170E-1,1.379561722E-1,-9.433431029E-1,-2.721554935E-1
3.015274480E-1,1.477300078E-1,-9.433431029E-1,-2.648251355E-1
3.039003650E-1,1.562821120E-1,-9.421213865E-1,-2.599382102E-1
3.062740100E-1,1.648342162E-1,-9.396779537E-1,-2.538295686E-1
3.086469270E-1,1.746080518E-1,-9.396779537E-1,-2.477209270E-1
3.110189580E-1,1.843818873E-1,-9.360127449E-1,-2.428340018E-1
3.133918750E-1,1.941557229E-1,-9.323475361E-1,-2.391688079E-1
3.157655730E-1,2.027078271E-1,-9.299041033E-1,-2.355036288E-1
3.181384380E-1,2.112599313E-1,-9.274606109E-1,-2.306167036E-1
3.205104690E-1,2.210337669E-1,-9.237954617E-1,-2.281732410E-1
3.228834380E-1,2.283641398E-1,-9.189085364E-1,-2.245080620E-1
3.252570830E-1,2.381379902E-1,-9.152433276E-1,-2.220645994E-1
3.276299480E-1,2.479118109E-1,-9.103564024E-1,-2.183994055E-1
3.300019790E-1,2.527987063E-1,-9.054694772E-1,-2.147342265E-1
3.323749480E-1,2.601290941E-1,-8.993608356E-1,-2.098473012E-1
3.347485940E-1,2.662377656E-1,-8.944739699E-1,-2.086255699E-1
3.371214580E-1,2.723464072E-1,-8.895870447E-1,-2.061821222E-1
3.394934900E-1,2.808984816E-1,-8.822566271E-1,-2.037386596E-1
3.418664580E-1,2.845636904E-1,-8.773697019E-1,-2.025169283E-1
3.442401040E-1,2.882288694E-1,-8.712610602E-1,-1.988517344E-1
3.466129690E-1,2.918940485E-1,-8.639307022E-1,-1.988517344E-1
3.489850000E-1,2.992244363E-1,-8.566003442E-1,-1.976300180E-1
3.513579690E-1,2.992244363E-1,-8.492699265E-1,-1.964082867E-1
3.537316150E-1,3.041113615E-1,-8.431612849E-1,-1.939648241E-1
3.561044790E-1,3.041113615E-1,-8.382743597E-1,-1.915213615E-1
3.584765630E-1,3.065548241E-1,-8.346092105E-1,-1.927430928E-1
3.608494790E-1,3.102200329E-1,-8.309440017E-1,-1.915213615E-1
3.632231250E-1,3.089982569E-1,-8.297222853E-1,-1.902996302E-1
3.655959900E-1,3.102200329E-1,-8.260570765E-1,-1.915213615E-1
3.679680730E-1,3.102200329E-1,-8.236136436E-1,-1.902996302E-1
3.703409900E-1,3.114417493E-1,-8.175050020E-1,-1.902996302E-1
3.727146350E-1,3.114417493E-1,-8.138397932E-1,-1.915213615E-1
3.750875000E-1,3.102200329E-1,-8.138397932E-1,-1.902996302E-1
3.774595830E-1,3.077765405E-1,-8.126180768E-1,-1.927430928E-1
3.798325000E-1,3.041113615E-1,-8.126180768E-1,-1.951865554E-1
3.822061460E-1,3.004461825E-1,-8.138397932E-1,-1.964082867E-1
3.845790630E-1,2.992244363E-1,-8.113963604E-1,-1.988517344E-1
3.869510940E-1,2.955592573E-1,-8.126180768E-1,-1.976300180E-1
3.893240100E-1,2.918940485E-1,-8.126180768E-1,-1.976300180E-1
3.916976560E-1,2.906723320E-1,-8.113963604E-1,-1.988517344E-1
3.940705730E-1,2.870071232E-1,-8.113963604E-1,-2.012951970E-1
3.964426040E-1,2.870071232E-1,-8.101745844E-1,-2.012951970E-1
3.988155210E-1,2.870071232E-1,-8.101745844E-1,-2.025169283E-1
4.011891670E-1,2.857854068E-1,-8.077311516E-1,-2.049603909E-1
4.035620830E-1,2.833419740E-1,-8.065094352E-1,-2.086255699E-1
4.059341150E-1,2.833419740E-1,-8.028442264E-1,-2.122907639E-1
4.083070310E-1,2.833419740E-1,-8.004007936E-1,-2.147342265E-1
4.106807290E-1,2.808984816E-1,-7.979573011E-1,-2.183994055E-1
4.130535940E-1,2.821202278E-1,-7.930703759E-1,-2.232863307E-1
4.154256250E-1,2.796767652E-1,-7.894052267E-1,-2.257297933E-1
4.177985420E-1,2.833419740E-1,-7.845183015E-1,-2.306167036E-1
4.201722400E-1,2.833419740E-1,-7.808530927E-1,-2.367253602E-1
4.225451040E-1,2.845636904E-1,-7.759661674E-1,-2.403905392E-1
4.249171350E-1,2.845636904E-1,-7.686358094E-1,-2.477209270E-1
4.272901040E-1,2.857854068E-1,-7.613054514E-1,-2.538295686E-1
4.296637500E-1,2.882288694E-1,-7.527533174E-1,-2.587164938E-1
4.320366150E-1,2.894506156E-1,-7.454229593E-1,-2.623816729E-1
4.344086980E-1,2.906723320E-1,-7.344273925E-1,-2.684903145E-1
4.367816150E-1,2.906723320E-1,-7.222101092E-1,-2.733772397E-1
4.391552600E-1,2.931157947E-1,-7.124362588E-1,-2.794858813E-1
4.415281250E-1,2.943375409E-1,-6.977754831E-1,-2.868162692E-1
4.439002080E-1,2.943375409E-1,-6.855581999E-1,-2.917031646E-1
4.462731250E-1,2.918940485E-1,-6.733409166E-1,-2.965900898E-1
4.486467710E-1,2.906723320E-1,-6.599019170E-1,-3.026987314E-1
4.510196350E-1,2.918940485E-1,-6.464628577E-1,-3.112508357E-1
4.533917190E-1,2.906723320E-1,-6.342455745E-1,-3.161377609E-1
4.557646350E-1,2.882288694E-1,-6.220282912E-1,-3.210246861E-1
4.581382810E-1,2.894506156E-1,-6.061457992E-1,-3.246898651E-1
4.605111980E-1,2.882288694E-1,-5.939285159E-1,-3.283550739E-1
4.628832290E-1,2.870071232E-1,-5.792677402E-1,-3.320202529E-1
4.652561460E-1,2.870071232E-1,-5.646069646E-1,-3.344637156E-1
4.676297920E-1,2.857854068E-1,-5.511679649E-1,-3.369071782E-1
4.700027080E-1,2.845636904E-1,-5.365071893E-1,-3.381288946E-1
4.723747400E-1,2.870071232E-1,-5.206247568E-1,-3.381288946E-1
4.747476560E-1,2.857854068E-1,-5.059639812E-1,-3.393506110E-1
4.771213020E-1,2.845636904E-1,-4.913032353E-1,-3.405723572E-1
4.794942190E-1,2.833419740E-1,-4.766424596E-1,-3.393506110E-1
4.818662500E-1,2.845636904E-1,-4.644251764E-1,-3.393506110E-1
4.842392190E-1,2.870071232E-1,-4.509861469E-1,-3.381288946E-1
4.866128650E-1,2.857854068E-1,-4.363254011E-1,-3.356854320E-1
4.889857290E-1,2.882288694E-1,-4.228863716E-1,-3.320202529E-1
4.913577600E-1,2.894506156E-1,-4.106690884E-1,-3.271333277E-1
4.937307290E-1,2.906723320E-1,-3.996735215E-1,-3.210246861E-1
4.961043750E-1,2.955592573E-1,-3.874562085E-1,-3.136942983E-1
4.984772400E-1,2.967809737E-1,-3.752389252E-1,-3.100291193E-1
5.008493230E-1,3.053331077E-1,-3.642433584E-1,-3.026987314E-1
5.032222400E-1,3.089982569E-1,-3.520260751E-1,-2.941466272E-1
5.055958850E-1,3.163286746E-1,-3.385870457E-1,-2.855945230E-1
5.079687500E-1,3.212155402E-1,-3.275914788E-1,-2.770424187E-1
5.103408330E-1,3.309893906E-1,-3.141524494E-1,-2.672685981E-1
5.127137500E-1,3.407632411E-1,-3.019351661E-1,-2.574947476E-1
5.150873960E-1,3.505370915E-1,-2.872744203E-1,-2.464991808E-1
5.174602600E-1,3.590891659E-1,-2.750571072E-1,-2.367253602E-1
5.198323440E-1,3.700847328E-1,-2.616181076E-1,-2.245080620E-1
5.222052600E-1,3.798585832E-1,-2.481790632E-1,-2.110690325E-1
5.245789060E-1,3.920758665E-1,-2.347400486E-1,-1.964082867E-1
5.269518230E-1,4.030714333E-1,-2.213010192E-1,-1.829692572E-1
5.293238540E-1,4.140670002E-1,-2.066402584E-1,-1.695302278E-1
5.316967710E-1,4.226191342E-1,-1.919795126E-1,-1.560912132E-1
5.340704690E-1,4.360581338E-1,-1.748753041E-1,-1.426521838E-1
5.364433330E-1,4.482754171E-1,-1.589928120E-1,-1.279914379E-1
5.388153650E-1,4.604927003E-1,-1.443320662E-1,-1.133306697E-1
5.411883330E-1,4.727100432E-1,-1.284495741E-1,-1.011133790E-1
5.435619790E-1,4.861490428E-1,-1.101236343E-1,-8.400916308E-2
5.459348440E-1,4.995880425E-1,-9.301942587E-2,-7.057014108E-2
5.483069270E-1,5.118054152E-1,-7.591521740E-2,-5.835285410E-2
5.506798440E-1,5.252444148E-1,-5.881099775E-2,-4.369210079E-2
5.530534900E-1,5.386834145E-1,-4.170678928E-2,-3.147480637E-2
5.554263540E-1,5.521224737E-1,-2.338084765E-2,-1.681405120E-2
5.577984380E-1,5.655614734E-1,-7.498364896E-3,-4.596757237E-3
5.601713540E-1,5.802222490E-1,1.204930618E-2,7.620537188E-3
5.625450000E-1,5.948829651E-1,3.159697726E-2,2.105956152E-2
5.649178650E-1,6.071002483E-1,4.747946188E-2,3.449858353E-2
5.672899480E-1,6.217610240E-1,6.580540538E-2,4.549414665E-2
5.696628650E-1,6.364217997E-1,8.657480031E-2,5.771144852E-2
5.720365100E-1,6.498607993E-1,1.073442027E-1,7.115047425E-2
5.744094270E-1,6.645215750E-1,1.317787915E-1,8.092430979E-2
5.767814580E-1,6.767388582E-1,1.525481939E-1,9.191987664E-2
5.791543750E-1,6.877344251E-1,1.659872234E-1,1.029154435E-1
5.815280210E-1,6.938430667E-1,1.782045066E-1,1.175761893E-1
5.839009380E-1,6.950647831E-1,1.855348945E-1,1.310152113E-1
5.862729690E-1,6.938430667E-1,1.928652674E-1,1.420107782E-1
5.886459380E-1,6.926213503E-1,2.026391029E-1,1.554497927E-1
5.910195830E-1,6.926213503E-1,2.148563862E-1,1.676670909E-1
5.933924480E-1,6.926213503E-1,2.295171469E-1,1.811061203E-1
5.957645310E-1,6.926213503E-1,2.441779077E-1,1.908799559E-1
5.981374480E-1,6.901778579E-1,2.612821162E-1,1.982103288E-1
6.005110940E-1,6.889561415E-1,2.759428620E-1,2.079841644E-1
6.028839580E-1,6.840692163E-1,2.918253541E-1,2.116493583E-1
6.052560420E-1,6.804040670E-1,3.064861000E-1,2.189797312E-1
6.076289580E-1,6.718519330E-1,3.223685920E-1,2.226449251E-1
6.100026040E-1,6.632997990E-1,3.394728005E-1,2.275318354E-1
6.123754690E-1,6.571911573E-1,3.565770090E-1,2.287535667E-1
6.147475520E-1,6.486390829E-1,3.761246800E-1,2.311970294E-1
6.171204690E-1,6.425304413E-1,3.956723511E-1,2.336404771E-1
6.194941150E-1,6.352000237E-1,4.164417386E-1,2.336404771E-1
6.218670310E-1,6.254262328E-1,4.359894097E-1,2.336404771E-1
6.242390630E-1,6.144306660E-1,4.555370808E-1,2.311970294E-1
6.266119790E-1,6.046568155E-1,4.775282145E-1,2.324187458E-1
6.289856770E-1,5.863308907E-1,4.958541393E-1,2.348622084E-1
6.313585420E-1,5.728918314E-1,5.141801238E-1,2.360839397E-1
6.337305730E-1,5.594528317E-1,5.337277651E-1,2.373056710E-1
6.361035420E-1,5.460138321E-1,5.520537496E-1,2.409708649E-1
6.384771880E-1,5.350182652E-1,5.716013908E-1,2.409708649E-1
6.408500520E-1,5.252444148E-1,5.948142409E-1,2.446360290E-1
6.432221350E-1,5.130271316E-1,6.204705834E-1,2.458577752E-1
6.455950520E-1,4.995880425E-1,6.473486423E-1,2.507447004E-1
6.479686980E-1,4.873707592E-1,6.791135669E-1,2.556316257E-1
6.503415630E-1,4.702665508E-1,7.121002674E-1,2.617402673E-1
6.527136460E-1,4.507189095E-1,7.426435351E-1,2.678489089E-1
6.550865630E-1,4.287277758E-1,7.744084597E-1,2.776227295E-1
6.574602080E-1,4.067366421E-1,8.037300110E-1,2.873965800E-1
6.598330730E-1,3.847455084E-1,8.281645775E-1,2.971704006E-1
6.622051560E-1,3.627543747E-1,8.538209200E-1,3.081659675E-1
6.645780730E-1,3.383198082E-1,8.721468449E-1,3.191615343E-1
6.669517190E-1,3.151068985E-1,8.831424117E-1,3.289353848E-1
6.693246350E-1,2.894506156E-1,8.868075609E-1,3.374874890E-1
6.716966670E-1,2.699029148E-1,8.831424117E-1,3.472613096E-1
6.740696350E-1,2.503552735E-1,8.758119941E-1,3.545916975E-1
6.764432810E-1,2.332510650E-1,8.684816360E-1,3.582568765E-1
6.788161460E-1,2.198120356E-1,8.599295616E-1,3.619220853E-1
6.811881770E-1,2.088164687E-1,8.525991440E-1,3.668089807E-1
6.835611460E-1,2.014860958E-1,8.489339948E-1,3.692524433E-1
6.859347920E-1,1.941557229E-1,8.513774276E-1,3.704741895E-1
6.883076560E-1,1.880470812E-1,8.587077856E-1,3.729176521E-1
6.906797400E-1,1.819384247E-1,8.660382032E-1,3.741393685E-1
6.930526560E-1,1.770515144E-1,8.721468449E-1,3.741393685E-1
6.954263020E-1,1.733863205E-1,8.721468449E-1,3.741393685E-1
6.977991670E-1,1.648342162E-1,8.684816360E-1,3.765828311E-1
7.001712500E-1,1.550603807E-1,8.562643528E-1,3.765828311E-1
7.025441670E-1,1.440648139E-1,8.452687860E-1,3.753610849E-1
7.049178130E-1,1.318475157E-1,8.293862939E-1,3.753610849E-1
7.072907290E-1,1.184084937E-1,8.171690106E-1,3.716959059E-1
7.096627600E-1,9.886082262E-2,8.086168766E-1,3.692524433E-1
7.120357290E-1,8.175660670E-2,8.025082350E-1,3.680307269E-1
7.144093750E-1,6.343066692E-2,7.963995934E-1,3.631438017E-1
7.167822400E-1,4.632645100E-2,7.878475189E-1,3.619220853E-1
7.191542710E-1,2.800051123E-2,7.756302357E-1,3.607003391E-1
7.215272400E-1,1.822667569E-2,7.573042512E-1,3.570351601E-1
7.239008850E-1,6.009381264E-3,7.365348935E-1,3.570351601E-1
7.262737500E-1,-1.320995390E-3,7.108785510E-1,3.570351601E-1
7.286458330E-1,-3.764454275E-3,6.815570593E-1,3.558134139E-1
7.310187500E-1,-8.651368320E-3,6.510137916E-1,3.558134139E-1
7.333923960E-1,-1.353829354E-2,6.204705834E-1,3.521482348E-1
7.357652600E-1,-1.720348001E-2,5.911490321E-1,3.460395932E-1
7.381373440E-1,-1.964693516E-2,5.593841076E-1,3.399309516E-1
7.405102600E-1,-2.453385293E-2,5.300626159E-1,3.289353848E-1
7.428839060E-1,-2.942077070E-2,5.044062734E-1,3.142746389E-1
7.452568230E-1,-3.186423331E-2,4.824151397E-1,3.008356094E-1
7.476288540E-1,-3.797287494E-2,4.616457522E-1,2.837314010E-1
7.500018230E-1,-4.163806885E-2,4.469849765E-1,2.641837299E-1
7.523754690E-1,-4.774671048E-2,4.335459769E-1,2.470794916E-1
7.547483330E-1,-4.774671048E-2,4.249938726E-1,2.226449251E-1
7.571203650E-1,-5.019017309E-2,4.225504100E-1,1.994320601E-1
7.594933330E-1,-5.141190439E-2,4.188852012E-1,1.786626577E-1
7.618669790E-1,-4.774671048E-2,4.176634848E-1,1.554497927E-1
7.642398440E-1,-4.285980016E-2,4.201069474E-1,1.334586740E-1
7.666119270E-1,-3.186423331E-2,4.237721264E-1,1.102458164E-1
7.689848440E-1,-1.598174870E-2,4.274373055E-1,8.947641402E-2
7.713584900E-1,-9.926402709E-5,4.323242307E-1,7.237220556E-2
7.737313540E-1,1.944840699E-2,4.384328723E-1,5.282452703E-2
7.761034380E-1,3.899607807E-2,4.420980811E-1,3.694204241E-2
7.784763540E-1,5.976547673E-2,4.457632601E-1,1.861610264E-2
7.808500000E-1,8.053487539E-2,4.518719018E-1,1.511889976E-3
7.832229170E-1,1.013042778E-1,4.604240060E-1,-1.681405120E-2
7.855949480E-1,1.196302176E-1,4.701978564E-1,-3.147480637E-2
7.879679170E-1,1.342909783E-1,4.799716771E-1,-4.613555968E-2
7.903415630E-1,1.501734704E-1,4.897454977E-1,-5.835285410E-2
7.927144270E-1,1.587255746E-1,5.031845570E-1,-7.057014108E-2
7.950864580E-1,1.672776788E-1,5.166235566E-1,-8.034397662E-2
7.974594270E-1,1.697211415E-1,5.300626159E-1,-8.645262569E-2
7.998330730E-1,1.672776788E-1,5.447233319E-1,-8.889608085E-2
8.022059380E-1,1.636124849E-1,5.581623912E-1,-9.133954346E-2
8.045780210E-1,1.550603807E-1,5.703796744E-1,-9.256126732E-2
8.069509380E-1,1.428430825E-1,5.801535249E-1,-9.011781216E-2
8.093245830E-1,1.294040531E-1,5.899273157E-1,-8.889608085E-2
8.116974480E-1,1.110781133E-1,5.972577333E-1,-8.889608085E-2
8.140695310E-1,9.275217354E-2,6.058098078E-1,-8.523089439E-2
8.164424480E-1,6.953931600E-2,6.106967330E-1,-8.034397662E-2
8.188161460E-1,4.754818231E-2,6.155836582E-1,-7.790052146E-2
8.211890100E-1,2.189186215E-2,6.204705834E-1,-7.667879015E-2
8.235610420E-1,-4.986181855E-3,6.290226579E-1,-7.301359624E-2
8.259340100E-1,-3.308596462E-2,6.375747919E-1,-7.179187238E-2
8.283076560E-1,-6.240747124E-2,6.510137916E-1,-7.301359624E-2
8.306805210E-1,-8.806378394E-2,6.632310748E-1,-7.667879015E-2
8.330526040E-1,-1.161635593E-1,6.754484177E-1,-7.912224531E-2
8.354255210E-1,-1.393764168E-1,6.925526261E-1,-8.523089439E-2
8.377991670E-1,-1.638109982E-1,7.108785510E-1,-9.256126732E-2
8.401720310E-1,-1.858021319E-1,7.316479683E-1,-9.866991639E-2
8.425441150E-1,-2.041280866E-1,7.536391020E-1,-1.096654832E-1
8.449170310E-1,-2.200105488E-1,7.768519521E-1,-1.231045052E-1
8.472906770E-1,-2.322278619E-1,8.049517274E-1,-1.353218108E-1
8.496635940E-1,-2.468886077E-1,8.281645775E-1,-1.463173777E-1
8.520356250E-1,-2.554407418E-1,8.550426364E-1,-1.597563922E-1
8.544085420E-1,-2.639928162E-1,8.806989193E-1,-1.731954217E-1
8.567822400E-1,-2.664363086E-1,9.075769782E-1,-1.878561676E-1
8.591551040E-1,-2.676580250E-1,9.332333207E-1,-1.988517344E-1
8.615271880E-1,-2.652145922E-1,9.576678872E-1,-2.110690325E-1
8.639001040E-1,-2.591058910E-1,9.796590209E-1,-2.245080620E-1
8.662737500E-1,-2.517755330E-1,9.992067218E-1,-2.355036288E-1
8.686466150E-1,-2.432234287E-1,1.015089273E0,-2.452774644E-1
8.710186980E-1,-2.297843993E-1,1.029749990E0,-2.526078224E-1
8.733916150E-1,-2.151236534E-1,1.043189049E0,-2.599382102E-1
8.757652600E-1,-1.992411613E-1,1.051741123E0,-2.648251355E-1
8.781381250E-1,-1.796934903E-1,1.056627989E0,-2.721554935E-1
8.805102080E-1,-1.613675505E-1,1.059071541E0,-2.770424187E-1
8.828831250E-1,-1.405981481E-1,1.055406332E0,-2.782641649E-1
8.852567710E-1,-1.210504845E-1,1.050519347E0,-2.807076275E-1
8.876296880E-1,-1.015028134E-1,1.038302064E0,-2.794858813E-1
8.900017190E-1,-8.073341101E-2,1.023641348E0,-2.782641649E-1
8.923746880E-1,-6.118573993E-2,1.005315423E0,-2.770424187E-1
8.947483330E-1,-4.408152401E-2,9.845459461E-1,-2.721554935E-1
8.971211980E-1,-2.453385293E-2,9.613330960E-1,-2.684903145E-1
8.994932810E-1,-4.986181855E-3,9.368984699E-1,-2.636033893E-1
9.018661980E-1,1.700494438E-2,9.112421870E-1,-2.574947476E-1
9.042398440E-1,3.655261546E-2,8.855858445E-1,-2.501643896E-1
9.066127080E-1,5.976547673E-2,8.623729944E-1,-2.440557331E-1
9.089847920E-1,8.175660670E-2,8.416035771E-1,-2.379470766E-1
9.113577080E-1,1.025260091E-1,8.183907270E-1,-2.281732410E-1
9.137313540E-1,1.257388741E-1,7.976213098E-1,-2.208428681E-1
9.161042710E-1,1.477300078E-1,7.731867433E-1,-2.110690325E-1
9.184763020E-1,1.721645892E-1,7.487521768E-1,-2.012951970E-1
9.208492710E-1,1.941557229E-1,7.267610431E-1,-1.902996302E-1
9.232229170E-1,2.161468565E-1,7.047699094E-1,-1.768606156E-1
9.255957810E-1,2.381379902E-1,6.803352833E-1,-1.646433175E-1
9.279678650E-1,2.613508403E-1,6.583442092E-1,-1.524260193E-1
9.303407810E-1,2.808984816E-1,6.351312995E-1,-1.389870048E-1
9.327144270E-1,3.016678989E-1,6.094750166E-1,-1.231045052E-1
9.350872920E-1,3.236590326E-1,5.874838829E-1,-1.121089384E-1
9.374593750E-1,3.444284499E-1,5.654927492E-1,-9.744819254E-2
9.398322920E-1,3.627543747E-1,5.386146903E-1,-8.400916308E-2
9.422059380E-1,3.859672248E-1,5.092931986E-1,-7.057014108E-2
9.445788540E-1,4.067366421E-1,4.824151397E-1,-5.713112652E-2
9.469508850E-1,4.275060594E-1,4.579805434E-1,-4.124864191E-2
9.493238540E-1,4.482754171E-1,4.359894097E-1,-2.536615729E-2
9.516975000E-1,4.666014016E-1,4.139983058E-1,-8.261945099E-3
9.540703650E-1,4.861490428E-1,3.968940675E-1,1.006399654E-2
9.564424480E-1,5.044749975E-1,3.785681427E-1,2.716820687E-2
9.588153650E-1,5.203574896E-1,3.614639342E-1,4.671587795E-2
9.611890100E-1,5.374616981E-1,3.492466211E-1,6.748528779E-2
9.635618750E-1,5.570093989E-1,3.406945169E-1,8.703295887E-2
9.659339580E-1,5.741136074E-1,3.333641589E-1,1.078023538E-1
9.683068750E-1,5.924395323E-1,3.284772336E-1,1.310152113E-1
9.706805210E-1,6.083220243E-1,3.248120546E-1,1.530063450E-1
9.730534380E-1,6.217610240E-1,3.199251294E-1,1.737757325E-1
9.754254690E-1,6.388652325E-1,3.138164878E-1,1.957668662E-1
9.777983850E-1,6.510825157E-1,3.052643836E-1,2.165362686E-1
9.801720830E-1,6.620780826E-1,2.979339957E-1,2.360839397E-1
9.825449480E-1,6.718519330E-1,2.930470705E-1,2.568533421E-1
9.849169790E-1,6.767388582E-1,2.918253541E-1,2.751792967E-1
9.872899480E-1,6.828474998E-1,2.893818915E-1,2.947269678E-1
9.896635940E-1,6.889561415E-1,2.857167125E-1,3.130528927E-1
9.920364580E-1,6.926213503E-1,2.820515037E-1,3.350440264E-1
9.944085420E-1,6.950647831E-1,2.771646082E-1,3.509265184E-1
9.967814580E-1,6.950647831E-1,2.722776830E-1,3.655872643E-1
9.991551040E-1,6.950647831E-1,2.698342204E-1,3.802480102E-1
1.001528021E0,6.950647831E-1,2.673907578E-1,3.997956812E-1
1.003900052E0,6.938430667E-1,2.576169372E-1,4.217868149E-1
1.006272969E0,6.877344251E-1,2.466213852E-1,4.401127696E-1
1.008646667E0,6.816257834E-1,2.356258035E-1,4.584386945E-1
1.011019531E0,6.742953658E-1,2.209650427E-1,4.694342613E-1
1.013391563E0,6.632997990E-1,2.136346698E-1,4.767646492E-1
1.015764531E0,6.486390829E-1,2.124129385E-1,4.926471114E-1
1.018138177E0,6.364217997E-1,2.050825655E-1,5.146383047E-1
1.020511042E0,6.278696656E-1,1.904218048E-1,5.305207372E-1
1.022883125E0,6.168740988E-1,1.769827753E-1,5.464032292E-1
1.025256042E0,6.009916067E-1,1.598785669E-1,5.573987961E-1
1.027629688E0,5.851091146E-1,1.476612687E-1,5.586205721E-1
1.030002552E0,5.643397570E-1,1.476612687E-1,5.683943629E-1
1.032374635E0,5.472355485E-1,1.452178210E-1,5.806116462E-1
1.034747552E0,5.313530564E-1,1.403308958E-1,5.928289890E-1
1.037121250E0,5.118054152E-1,1.268918812E-1,6.001593471E-1
1.039494115E0,4.922576845E-1,1.207832247E-1,5.964941382E-1
1.041866146E0,4.727100432E-1,1.330005229E-1,5.952724218E-1
1.044239115E0,4.543840587E-1,1.488830000E-1,5.977159142E-1
1.046612760E0,4.409450591E-1,1.574351043E-1,6.038245559E-1
1.048985625E0,4.262842834E-1,1.562133729E-1,6.038245559E-1
1.051357708E0,4.079583585E-1,1.488830000E-1,5.977159142E-1
1.053730625E0,3.896324337E-1,1.549916565E-1,5.842768550E-1
1.056104271E0,3.737499416E-1,1.720958650E-1,5.830551386E-1
1.058477188E0,3.590891659E-1,1.818697006E-1,5.830551386E-1
1.060849219E0,3.456501663E-1,1.867566109E-1,5.842768550E-1
1.063222135E0,3.358763158E-1,1.916435361E-1,5.830551386E-1
1.065595833E0,3.236590326E-1,1.940869987E-1,5.732812881E-1
1.067968698E0,3.138851821E-1,2.063042819E-1,5.537336469E-1
1.070340729E0,3.077765405E-1,2.307388783E-1,5.476250052E-1
1.072713698E0,3.089982569E-1,2.478431016E-1,5.488467216E-1
1.075087344E0,3.151068985E-1,2.466213852E-1,5.476250052E-1
1.077460208E0,3.199938238E-1,2.392909825E-1,5.464032292E-1
1.079832292E0,3.297676742E-1,2.295171469E-1,5.415163040E-1
1.082205208E0,3.383198082E-1,2.172998488E-1,5.341859460E-1
1.084578854E0,3.468718827E-1,2.014173716E-1,5.231903791E-1
1.086951771E0,3.590891659E-1,1.782045066E-1,5.146383047E-1
1.089323802E0,3.651978076E-1,1.403308958E-1,4.902036786E-1
1.091696719E0,3.725282252E-1,1.171180308E-1,4.669907987E-1
1.094070417E0,3.859672248E-1,1.000138223E-1,4.633256197E-1
1.096443281E0,4.018497169E-1,7.069231570E-2,4.621038735E-1
1.098815313E0,4.201756418E-1,3.281870857E-2,4.559952319E-1
1.101188281E0,4.397233427E-1,-3.833176335E-3,4.523300529E-1
1.103561927E0,4.568275511E-1,-2.948949486E-2,4.449996650E-1
1.105934792E0,4.727100432E-1,-5.270234868E-2,4.340040982E-1
1.108306875E0,4.849273264E-1,-7.347175479E-2,4.205650985E-1
1.110679792E0,4.959228933E-1,-9.546288848E-2,4.059043229E-1
1.113053438E0,5.032532811E-1,-1.211192012E-1,3.863566518E-1
1.115426354E0,5.081402063E-1,-1.467755139E-1,3.643655479E-1
1.117798385E0,5.093619227E-1,-1.773187518E-1,3.374874890E-1
1.120171302E0,5.032532811E-1,-2.103054523E-1,3.093877137E-1
1.122545000E0,4.910359681E-1,-2.445138693E-1,2.800661922E-1
1.124917865E0,4.714882672E-1,-2.738353908E-1,2.507447004E-1
1.127289896E0,4.446102679E-1,-2.958265245E-1,2.165362686E-1
1.129662865E0,4.116235673E-1,-2.994917035E-1,1.811061203E-1
1.132036510E0,3.737499416E-1,-2.946047783E-1,1.432325095E-1
1.134409375E0,3.297676742E-1,-2.872744203E-1,1.053588986E-1
1.136781458E0,2.833419740E-1,-2.665050030E-1,6.748528779E-2
1.139154375E0,2.308076024E-1,-2.335183173E-1,2.838993818E-2
1.141528021E0,1.770515144E-1,-1.883143187E-1,-9.483674541E-3
1.143900938E0,1.208519489E-1,-1.370016783E-1,-4.491382837E-2
1.146272969E0,6.465239078E-2,-8.568905294E-2,-8.034397662E-2
1.148645885E0,4.787653685E-3,-3.193295375E-2,-1.133306697E-1
1.151019583E0,-5.996400863E-2,1.937968284E-2,-1.475391090E-1
1.153392448E0,-1.247156635E-1,7.435750961E-2,-1.817475259E-1
1.155764531E0,-1.906890571E-1,1.305570602E-1,-2.147342265E-1
1.158137448E0,-2.578841746E-1,1.892000735E-1,-2.501643896E-1
1.160511094E0,-3.263010085E-1,2.527300119E-1,-2.868162692E-1
1.162883958E0,-3.922744095E-1,3.125947416E-1,-3.259116113E-1
1.165256042E0,-4.570260942E-1,3.724595010E-1,-3.662286699E-1
1.167628958E0,-5.205559731E-1,4.274373055E-1,-4.126543999E-1
1.170002604E0,-5.755338073E-1,4.689761102E-1,-4.554149210E-1
1.172375521E0,-6.195160747E-1,4.958541393E-1,-4.957319796E-1
1.174747552E0,-6.598331332E-1,5.215104818E-1,-5.311621428E-1
1.177120521E0,-6.977067590E-1,5.508319736E-1,-5.641488433E-1
1.179494167E0,-7.343586683E-1,5.740448236E-1,-5.934703350E-1
1.181867031E0,-7.673453689E-1,5.911490321E-1,-6.191266179E-1
1.184239115E0,-7.966668606E-1,6.021445990E-1,-6.423395276E-1
1.186612031E0,-8.198797107E-1,6.045880914E-1,-6.606654525E-1
1.188985677E0,-8.430925608E-1,6.021445990E-1,-6.741044521E-1
1.191358542E0,-8.601967692E-1,5.935925245E-1,-6.863217354E-1
1.193730625E0,-8.773009777E-1,5.777100325E-1,-6.936521530E-1
1.196103542E0,-8.882965446E-1,5.557188988E-1,-7.009825110E-1
1.198477188E0,-8.980703950E-1,5.288408399E-1,-7.046477199E-1
1.200850104E0,-9.005138874E-1,4.958541393E-1,-7.034259439E-1
1.203222135E0,-9.017356038E-1,4.579805434E-1,-6.997607946E-1
1.205595104E0,-8.980703950E-1,4.213286638E-1,-6.924303770E-1
1.207968750E0,-8.895183206E-1,3.871202469E-1,-6.814348102E-1
1.210341615E0,-8.748575449E-1,3.504683673E-1,-6.692175269E-1
1.212713698E0,-8.540881276E-1,3.040426373E-1,-6.533350348E-1
1.215086615E0,-8.345404863E-1,2.490648180E-1,-6.313439608E-1
1.217460260E0,-8.101058602E-1,1.892000735E-1,-6.093528271E-1
1.219833177E0,-7.844495773E-1,1.293353289E-1,-5.812530518E-1
1.222205208E0,-7.551280260E-1,6.702712923E-2,-5.531532764E-1
1.224578125E0,-7.209196091E-1,5.940658972E-3,-5.213882923E-1
1.226951771E0,-6.891546845E-1,-5.514581129E-2,-4.859581590E-1
1.229324688E0,-6.573897004E-1,-1.150105596E-1,-4.493062794E-1
1.231696719E0,-6.244029999E-1,-1.724318415E-1,-4.114326537E-1
1.234069688E0,-5.938597918E-1,-2.298531234E-1,-3.735590577E-1
1.236443333E0,-5.633165240E-1,-2.811657488E-1,-3.344637156E-1
1.238816198E0,-5.376602411E-1,-3.288131952E-1,-2.965900898E-1
1.241188281E0,-5.156691074E-1,-3.727954626E-1,-2.599382102E-1
1.243561198E0,-4.936780035E-1,-4.070038795E-1,-2.245080620E-1
1.245934844E0,-4.790172279E-1,-4.387688637E-1,-1.902996302E-1
1.248307760E0,-4.692433774E-1,-4.644251764E-1,-1.585346758E-1
1.250679792E0,-4.582478106E-1,-4.864163101E-1,-1.292131543E-1
1.253052708E0,-4.533608854E-1,-5.059639812E-1,-1.023351029E-1
1.255426406E0,-4.509174526E-1,-5.255116224E-1,-7.790052146E-2
1.257799271E0,-4.533608854E-1,-5.413941145E-1,-5.835285410E-2
1.260171302E0,-4.582478106E-1,-5.536113977E-1,-4.124864191E-2
1.262544271E0,-4.680216610E-1,-5.621635318E-1,-2.658788860E-2
1.264917917E0,-4.753520191E-1,-5.682721734E-1,-1.437059231E-2
1.267290781E0,-4.912345111E-1,-5.719373822E-1,2.901605330E-4
1.269662865E0,-5.083386898E-1,-5.719373822E-1,1.006399654E-2
1.272035781E0,-5.242211819E-1,-5.719373822E-1,1.861610264E-2
1.274409427E0,-5.401036739E-1,-5.792677402E-1,2.472474799E-2
1.276782344E0,-5.498775244E-1,-5.853763819E-1,2.961166576E-2
1.279154375E0,-5.584295988E-1,-5.939285159E-1,3.083339706E-2
1.281527344E0,-5.657600164E-1,-6.085892320E-1,3.205512464E-2
1.283900990E0,-5.657600164E-1,-6.244717240E-1,3.083339706E-2
1.286273854E0,-5.669817328E-1,-6.427976489E-1,2.716820687E-2
1.288645938E0,-5.633165240E-1,-6.623453498E-1,2.228128910E-2
1.291018854E0,-5.584295988E-1,-6.843364835E-1,1.983783022E-2
1.293392500E0,-5.510992408E-1,-7.051059008E-1,1.495091245E-2
1.295765365E0,-5.388819575E-1,-7.295404673E-1,1.006399654E-2
1.298137448E0,-5.278863907E-1,-7.576402426E-1,3.955348860E-3
1.300510365E0,-5.144473314E-1,-7.857400179E-1,-9.315689094E-4
1.302884063E0,-4.997866452E-1,-8.138397932E-1,-5.818486679E-3
1.305256927E0,-4.839041531E-1,-8.419395685E-1,-9.483674541E-3
1.307628958E0,-4.680216610E-1,-8.651524186E-1,-1.314886287E-2
1.310001927E0,-4.533608854E-1,-8.883652687E-1,-1.192713343E-2
1.312375573E0,-4.374783933E-1,-9.140216112E-1,-1.437059231E-2
1.314748438E0,-4.277046025E-1,-9.433431029E-1,-2.170097083E-2
1.317120521E0,-4.154872596E-1,-9.714428782E-1,-3.147480637E-2
1.319493438E0,-4.057134688E-1,-9.922122955E-1,-3.880518302E-2
1.321867083E0,-3.971613348E-1,-1.008094788E0,-4.735729098E-2
1.324240000E0,-3.873874843E-1,-1.019090295E0,-5.346593633E-2
1.326612031E0,-3.788354099E-1,-1.031307578E0,-5.835285410E-2
1.328984948E0,-3.727267683E-1,-1.049633503E0,-6.568323076E-2
1.331358646E0,-3.678398430E-1,-1.065515995E0,-7.545705885E-2
1.333731510E0,-3.629529178E-1,-1.076511621E0,-8.767435700E-2
1.336103542E0,-3.592877090E-1,-1.081398487E0,-1.023351029E-1
1.338476510E0,-3.556225598E-1,-1.085063696E0,-1.157741323E-1
1.340850156E0,-3.544007838E-1,-1.085063696E0,-1.292131543E-1
1.343223021E0,-3.519573510E-1,-1.081398487E0,-1.377652735E-1
1.345595104E0,-3.482921422E-1,-1.078955054E0,-1.499825567E-1
1.347968021E0,-3.446269929E-1,-1.071624637E0,-1.597563922E-1
1.350341667E0,-3.446269929E-1,-1.064294219E0,-1.670867801E-1
1.352714583E0,-3.421835005E-1,-1.052076936E0,-1.756388843E-1
1.355086615E0,-3.372965753E-1,-1.038637996E0,-1.817475259E-1
1.357459583E0,-3.360748589E-1,-1.022755504E0,-1.854127198E-1
1.359833229E0,-3.324097097E-1,-1.008094788E0,-1.866344512E-1
1.362206094E0,-3.299662173E-1,-9.897688627E-1,-1.878561676E-1
1.364578125E0,-3.287445009E-1,-9.702211618E-1,-1.890778989E-1
1.366951094E0,-3.299662173E-1,-9.543386698E-1,-1.927430928E-1
1.369324740E0,-3.336314261E-1,-9.347910285E-1,-1.976300180E-1
1.371697604E0,-3.360748589E-1,-9.115781784E-1,-2.037386596E-1
1.374069688E0,-3.446269929E-1,-8.847001195E-1,-2.074038386E-1
1.376442604E0,-3.531790674E-1,-8.566003442E-1,-2.098473012E-1
1.378816250E0,-3.617312014E-1,-8.309440017E-1,-2.122907639E-1
1.381189167E0,-3.715050519E-1,-8.028442264E-1,-2.135124952E-1
1.383561198E0,-3.849440515E-1,-7.759661674E-1,-2.183994055E-1
1.385934167E0,-4.008265436E-1,-7.478663921E-1,-2.183994055E-1
1.388307813E0,-4.179307520E-1,-7.173231840E-1,-2.159559578E-1
1.390680677E0,-4.338132441E-1,-6.880016923E-1,-2.122907639E-1
1.393052760E0,-4.509174526E-1,-6.599019170E-1,-2.159559578E-1
1.395425677E0,-4.680216610E-1,-6.305803657E-1,-2.208428681E-1
1.397799323E0,-4.851258695E-1,-6.000371575E-1,-2.269515097E-1
1.400172240E0,-5.022300482E-1,-5.743808150E-1,-2.355036288E-1
1.402544271E0,-5.205559731E-1,-5.487245321E-1,-2.501643896E-1
1.404917188E0,-5.352167487E-1,-5.194029808E-1,-2.648251355E-1
1.407290833E0,-5.523209572E-1,-4.925249517E-1,-2.794858813E-1
1.409663750E0,-5.669817328E-1,-4.656468928E-1,-2.941466272E-1
1.412035781E0,-5.804207325E-1,-4.412123263E-1,-3.039204776E-1
1.414408750E0,-5.926380157E-1,-4.204429090E-1,-3.161377609E-1
1.416782396E0,-6.036335826E-1,-4.008952379E-1,-3.295767903E-1
1.419155260E0,-6.109640002E-1,-3.825693130E-1,-3.430158198E-1
1.421527344E0,-6.170726418E-1,-3.691302836E-1,-3.454592824E-1
1.423900260E0,-6.219595671E-1,-3.617998958E-1,-3.552331030E-1
1.426273906E0,-6.244029999E-1,-3.581347167E-1,-3.674504161E-1
1.428646823E0,-6.292899251E-1,-3.520260751E-1,-3.821111619E-1
1.431018854E0,-6.317333579E-1,-3.459174335E-1,-3.992153704E-1
1.433391771E0,-6.329551339E-1,-3.385870457E-1,-4.138761163E-1
1.435765469E0,-6.317333579E-1,-3.324784040E-1,-4.285368621E-1
1.438138333E0,-6.317333579E-1,-3.324784040E-1,-4.407541752E-1
1.440510417E0,-6.280682087E-1,-3.324784040E-1,-4.517497420E-1
1.442883333E0,-6.280682087E-1,-3.324784040E-1,-4.590801001E-1
1.445256979E0,-6.268464327E-1,-3.361435831E-1,-4.615235627E-1
1.447629844E0,-6.231812835E-1,-3.361435831E-1,-4.627453089E-1
1.450001927E0,-6.219595671E-1,-3.385870457E-1,-4.627453089E-1
1.452374844E0,-6.207377911E-1,-3.398087621E-1,-4.590801001E-1
1.454748490E0,-6.170726418E-1,-3.398087621E-1,-4.566366374E-1
1.457121406E0,-6.146291494E-1,-3.385870457E-1,-4.529714584E-1
1.459493438E0,-6.121857166E-1,-3.349218667E-1,-4.383107126E-1
1.461866406E0,-6.072987914E-1,-3.349218667E-1,-4.273151457E-1
1.464240052E0,-6.036335826E-1,-3.349218667E-1,-4.236499667E-1
1.466612917E0,-5.975249410E-1,-3.300349414E-1,-4.224282205E-1
1.468985000E0,-5.914162993E-1,-3.214828372E-1,-4.212065041E-1
1.471357917E0,-5.853076577E-1,-3.129307330E-1,-4.175412953E-1
1.473731563E0,-5.779772997E-1,-3.043786287E-1,-4.126543999E-1
1.476104479E0,-5.718686581E-1,-2.946047783E-1,-4.053240120E-1
1.478476510E0,-5.608730912E-1,-2.848309577E-1,-3.979936540E-1
1.480849427E0,-5.535426736E-1,-2.750571072E-1,-3.918849826E-1
1.483223125E0,-5.449905992E-1,-2.652832866E-1,-3.845546246E-1
1.485595990E0,-5.352167487E-1,-2.542877197E-1,-3.760025203E-1
1.487968021E0,-5.303298235E-1,-2.457356006E-1,-3.698938489E-1
1.490340990E0,-5.242211819E-1,-2.347400486E-1,-3.601200283E-1
1.492714635E0,-5.168908238E-1,-2.261879295E-1,-3.442375362E-1
1.495087500E0,-5.107821822E-1,-2.188575566E-1,-3.332419693E-1
1.497459583E0,-5.010083318E-1,-2.115271837E-1,-3.320202529E-1
1.499832500E0,-4.924562275E-1,-2.029750794E-1,-3.344637156E-1
1.502206146E0,-4.863475859E-1,-1.932012439E-1,-3.405723572E-1
1.504579063E0,-4.777955115E-1,-1.846491396E-1,-3.405723572E-1
1.506951094E0,-4.667999446E-1,-1.760970354E-1,-3.405723572E-1
1.509324063E0,-4.606913030E-1,-1.712101102E-1,-3.381288946E-1
1.511697708E0,-4.484740198E-1,-1.663231850E-1,-3.332419693E-1
1.514070573E0,-4.411436021E-1,-1.626580060E-1,-3.283550739E-1
1.516442656E0,-4.313697517E-1,-1.638797373E-1,-3.210246861E-1
1.518815573E0,-4.240393937E-1,-1.699883789E-1,-3.136942983E-1
1.521189219E0,-4.142655432E-1,-1.785404831E-1,-3.075856566E-1
1.523562135E0,-4.057134688E-1,-1.919795126E-1,-2.990335524E-1
1.525934167E0,-3.971613348E-1,-2.066402584E-1,-2.917031646E-1
1.528307083E0,-3.898309767E-1,-2.249661982E-1,-2.819293439E-1
1.530680781E0,-3.800571263E-1,-2.469573319E-1,-2.709337771E-1
1.533053646E0,-3.702832758E-1,-2.665050030E-1,-2.587164938E-1
1.535425677E0,-3.605094850E-1,-2.884961367E-1,-2.452774644E-1
1.537798646E0,-3.495139182E-1,-3.104872704E-1,-2.293949723E-1
1.540172292E0,-3.348531425E-1,-3.324784040E-1,-2.135124952E-1
1.542545156E0,-3.201923668E-1,-3.569129705E-1,-1.927430928E-1
1.544917240E0,-3.055316508E-1,-3.789041042E-1,-1.744171530E-1
1.547290156E0,-2.933143675E-1,-4.008952379E-1,-1.402087212E-1
1.549663802E0,-2.749883831E-1,-4.289950132E-1,-1.060002968E-1
1.552036719E0,-2.517755330E-1,-4.570947886E-1,-8.400916308E-2
1.554408750E0,-2.285626531E-1,-4.803076684E-1,-6.934840977E-2
1.556781719E0,-2.041280866E-1,-5.010770559E-1,-5.346593633E-2
1.559155365E0,-1.760282964E-1,-5.218464732E-1,-3.391826525E-2
1.561528229E0,-1.479285210E-1,-5.438376069E-1,-1.192713343E-2
1.563900313E0,-1.222722158E-1,-5.682721734E-1,1.128572598E-2
1.566273229E0,-9.417242557E-2,-5.890415907E-1,3.816377372E-2
1.568646875E0,-6.362919509E-2,-6.122544408E-1,6.015490368E-2
1.571019740E0,-3.675115108E-2,-6.330238581E-1,8.458949625E-2
1.573391823E0,-9.873099625E-3,-6.513497829E-1,1.041371673E-1
1.575764740E0,1.578321680E-2,-6.708974242E-1,1.236848310E-1
1.578138385E0,4.510472342E-2,-6.892234087E-1,1.395673156E-1
1.580511302E0,6.831758469E-2,-7.051059008E-1,1.554497927E-1
1.582883333E0,9.763909131E-2,-7.197666168E-1,1.688888222E-1
1.585256302E0,1.245171353E-1,-7.344273925E-1,1.786626577E-1
1.587629948E0,1.513951868E-1,-7.454229593E-1,1.872147620E-1
1.590002813E0,1.770515144E-1,-7.564185262E-1,1.933234036E-1
1.592374896E0,2.014860958E-1,-7.649706006E-1,1.982103288E-1
1.594747813E0,2.283641398E-1,-7.735227346E-1,2.030972540E-1
1.597121458E0,2.527987063E-1,-7.808530927E-1,2.067624331E-1
1.599494375E0,2.796767652E-1,-7.857400179E-1,2.104276270E-1
1.601866406E0,3.004461825E-1,-7.906269431E-1,2.116493583E-1
1.604239323E0,3.261024654E-1,-7.930703759E-1,2.140928060E-1
1.606613021E0,3.468718827E-1,-7.942921519E-1,2.153145373E-1
1.608985885E0,3.700847328E-1,-7.942921519E-1,2.153145373E-1
1.611357969E0,3.884107172E-1,-7.894052267E-1,2.140928060E-1
1.613730885E0,4.067366421E-1,-7.857400179E-1,2.116493583E-1
1.616104531E0,4.250625670E-1,-7.784096599E-1,2.092058957E-1
1.618477396E0,4.397233427E-1,-7.698575258E-1,2.067624331E-1
1.620849479E0,4.519406259E-1,-7.576402426E-1,2.018755227E-1
1.623222396E0,4.617144763E-1,-7.466446757E-1,1.969885975E-1
1.625596042E0,4.739317596E-1,-7.332056761E-1,1.908799559E-1
1.627968958E0,4.812621176E-1,-7.197666168E-1,1.847712994E-1
1.630340990E0,4.885924757E-1,-6.989971995E-1,1.774409264E-1
1.632713958E0,4.922576845E-1,-6.818929911E-1,1.701105535E-1
1.635087604E0,4.959228933E-1,-6.635670662E-1,1.640019119E-1
1.637460469E0,4.983663261E-1,-6.415759325E-1,1.566715240E-1
1.639832552E0,4.995880425E-1,-6.220282912E-1,1.505628824E-1
1.642205469E0,5.032532811E-1,-5.988154411E-1,1.420107782E-1
1.644579115E0,5.032532811E-1,-5.768243074E-1,1.359021217E-1
1.646952031E0,5.020315647E-1,-5.536113977E-1,1.297934800E-1
1.649324063E0,5.008098483E-1,-5.340637565E-1,1.236848310E-1
1.651696979E0,4.983663261E-1,-5.120726228E-1,1.175761893E-1
1.654070677E0,4.971446097E-1,-4.876380265E-1,1.139110029E-1
1.656443542E0,4.983663261E-1,-4.644251764E-1,1.078023538E-1
1.658815573E0,4.983663261E-1,-4.351036549E-1,9.925024956E-2
1.661188542E0,4.983663261E-1,-4.033387005E-1,9.436333179E-2
1.663562188E0,4.947011769E-1,-3.764606714E-1,8.703295887E-2
1.665935052E0,4.910359681E-1,-3.593564332E-1,8.092430979E-2
1.668307135E0,4.800404012E-1,-3.459174335E-1,7.481566072E-2
1.670680052E0,4.666014016E-1,-3.349218667E-1,6.992874295E-2
1.673053698E0,4.482754171E-1,-3.202610910E-1,6.504182518E-2
1.675426615E0,4.360581338E-1,-3.019351661E-1,5.893317237E-2
1.677798646E0,4.226191342E-1,-2.811657488E-1,5.282452703E-2
1.680171615E0,4.128452837E-1,-2.567311823E-1,5.038106441E-2
1.682545260E0,4.018497169E-1,-2.310748547E-1,4.671587795E-2
1.684918125E0,3.920758665E-1,-2.029750794E-1,4.182896018E-2
1.687290208E0,3.823020160E-1,-1.724318415E-1,3.816377372E-2
1.689663125E0,3.700847328E-1,-1.406668723E-1,3.694204241E-2
1.692036771E0,3.542022407E-1,-1.101236343E-1,3.694204241E-2
1.694409635E0,3.395415246E-1,-8.202385902E-2,3.572031111E-2
1.696781719E0,3.224373162E-1,-5.636754259E-2,3.816377372E-2
1.699154635E0,2.992244363E-1,-3.315468132E-2,4.182896018E-2
1.701528281E0,2.760115862E-1,-1.360701211E-2,4.549414665E-2
1.703901198E0,2.491335422E-1,5.940658972E-3,4.671587795E-2
1.706273229E0,2.173685879E-1,2.548833191E-2,4.549414665E-2
1.708646198E0,1.843818873E-1,4.625773057E-2,4.793760926E-2
1.711019844E0,1.501734704E-1,6.947059184E-2,4.793760926E-2
1.713392708E0,1.122998446E-1,9.023998678E-2,5.038106441E-2
1.715764792E0,7.442622632E-2,1.110093892E-1,5.526798218E-2
1.718137708E0,3.655261546E-2,1.305570602E-1,6.504182518E-2
1.720511354E0,-1.320995390E-3,1.501047313E-1,7.848084718E-2
1.722884271E0,-4.285980016E-2,1.696524024E-1,9.314160794E-2
1.725256302E0,-8.562032133E-2,1.916435361E-1,1.114675477E-1
1.727629271E0,-1.259373873E-1,2.172998488E-1,1.297934800E-1
1.730002917E0,-1.674761921E-1,2.417344451E-1,1.505628824E-1
1.732375781E0,-2.077932656E-1,2.661690414E-1,1.713322848E-1
1.734747813E0,-2.444451451E-1,2.832732499E-1,1.896582246E-1
1.737120781E0,-2.725449502E-1,2.967122793E-1,2.092058957E-1
1.739494427E0,-2.908708751E-1,3.064861000E-1,2.263101041E-1
1.741867292E0,-2.945360839E-1,3.187033832E-1,2.434143126E-1
1.744239375E0,-2.847622335E-1,3.333641589E-1,2.556316257E-1
1.746612292E0,-2.639928162E-1,3.504683673E-1,2.678489089E-1
1.748985938E0,-2.346713245E-1,3.651291132E-1,2.751792967E-1
1.751358854E0,-1.980194151E-1,3.797898591E-1,2.825096548E-1
1.753730885E0,-1.589240879E-1,3.895637095E-1,2.873965800E-1
1.756103854E0,-1.210504845E-1,3.968940675E-1,2.898400426E-1
1.758477500E0,-8.317687362E-2,4.042244554E-1,2.910617590E-1
1.760850365E0,-4.896844178E-2,4.103330970E-1,2.861748636E-1
1.763222448E0,-1.720348001E-2,4.152200222E-1,2.800661922E-1
1.765595365E0,9.674571455E-3,4.164417386E-1,2.702923715E-1
1.767969010E0,3.655261546E-2,4.176634848E-1,2.580750585E-1
1.770341927E0,6.098720431E-2,4.188852012E-1,2.446360290E-1
1.772713958E0,8.297833800E-2,4.201069474E-1,2.287535667E-1
1.775086875E0,1.025260091E-1,4.176634848E-1,2.116493583E-1
1.777460573E0,1.196302176E-1,4.066679180E-1,1.982103288E-1
1.779833438E0,1.342909783E-1,3.932288885E-1,1.872147620E-1
1.782205469E0,1.513951868E-1,3.773463964E-1,1.798843890E-1
1.784578438E0,1.660559475E-1,3.602421880E-1,1.737757325E-1
1.786952083E0,1.770515144E-1,3.370293379E-1,1.688888222E-1
1.789324948E0,1.904905289E-1,3.113730252E-1,1.652236283E-1
1.791697031E0,2.014860958E-1,2.808297873E-1,1.603367180E-1
1.794069948E0,2.100382000E-1,2.453996241E-1,1.578932554E-1
1.796443594E0,2.161468565E-1,2.075260133E-1,1.566715240E-1
1.798816510E0,2.210337669E-1,1.672089398E-1,1.542280614E-1
1.801188542E0,2.198120356E-1,1.256701499E-1,1.530063450E-1
1.803561510E0,2.137033939E-1,8.657480031E-2,1.542280614E-1
1.805935156E0,1.990426481E-1,5.114464834E-2,1.530063450E-1
1.808308021E0,1.782732457E-1,2.182314172E-2,1.505628824E-1
1.810680104E0,1.526169181E-1,1.053741435E-3,1.468976885E-1
1.813053021E0,1.232954040E-1,-1.482874155E-2,1.407890469E-1
1.815426667E0,9.275217354E-2,-1.971565932E-2,1.334586740E-1
1.817799531E0,6.220893562E-2,-1.727220044E-2,1.212413833E-1
1.820171615E0,3.410916030E-2,-7.498364896E-3,1.078023538E-1
1.822544531E0,8.452840149E-3,1.327103563E-2,9.436333179E-2
1.824918229E0,-1.109483093E-2,4.014908895E-2,7.725912333E-2
1.827291094E0,-2.697731555E-2,7.435750961E-2,6.259837002E-2
1.829663125E0,-3.675115108E-2,1.134528518E-1,4.427241907E-2
1.832036094E0,-4.041633755E-2,1.586568356E-1,2.472474799E-2
1.834409740E0,-4.041633755E-2,2.099694759E-1,1.511889976E-3
1.836782604E0,-4.041633755E-2,2.625038326E-1,-2.536615729E-2
1.839154688E0,-3.552941978E-2,3.187033832E-1,-5.468766391E-2
1.841527604E0,-3.308596462E-2,3.749029636E-1,-7.912224531E-2
1.843901250E0,-3.064250201E-2,4.286590517E-1,-9.989164770E-2
1.846274167E0,-2.942077070E-2,4.811934233E-1,-1.218827739E-1
1.848646198E0,-3.186423331E-2,5.337277651E-1,-1.450956464E-1
1.851019115E0,-3.308596462E-2,5.801535249E-1,-1.707519591E-1
1.853392813E0,-3.675115108E-2,6.204705834E-1,-1.927430928E-1
1.855765677E0,-4.285980016E-2,6.583442092E-1,-2.086255699E-1
1.858137708E0,-5.141190439E-2,6.949960589E-1,-2.281732410E-1
1.860510677E0,-6.118573993E-2,7.316479683E-1,-2.403905392E-1
1.862884323E0,-7.095957547E-2,7.670781016E-1,-2.538295686E-1
1.865257188E0,-8.073341101E-2,8.037300110E-1,-2.660468519E-1
1.867629271E0,-8.806378394E-2,8.391601443E-1,-2.733772397E-1
1.870002188E0,-9.172897786E-2,8.721468449E-1,-2.807076275E-1
1.872375885E0,-9.172897786E-2,9.063552618E-1,-2.819293439E-1
1.874748750E0,-8.684205264E-2,9.381202459E-1,-2.831510603E-1
1.877120781E0,-7.706821710E-2,9.674417377E-1,-2.831510603E-1
1.879493750E0,-6.362919509E-2,9.943197370E-1,-2.807076275E-1
1.881867396E0,-4.774671048E-2,1.017532706E0,-2.770424187E-1
1.884240260E0,-2.697731555E-2,1.037080407E0,-2.733772397E-1
1.886612344E0,-4.986181855E-3,1.054184556E0,-2.648251355E-1
1.888985260E0,1.578321680E-2,1.067623615E0,-2.550512850E-1
1.891358906E0,3.655261546E-2,1.082284331E0,-2.452774644E-1
1.893731823E0,5.854374915E-2,1.093279958E0,-2.293949723E-1
1.896103854E0,7.809142023E-2,1.101832032E0,-2.135124952E-1
1.898476771E0,9.763909131E-2,1.111605883E0,-1.988517344E-1
1.900850469E0,1.171867624E-1,1.121379733E0,-1.817475259E-1
1.903223333E0,1.342909783E-1,1.128710032E0,-1.609781235E-1
1.905595365E0,1.538386494E-1,1.136040449E0,-1.426521838E-1
1.907968333E0,1.746080518E-1,1.138483882E0,-1.231045052E-1
1.910341979E0,1.953774542E-1,1.140927315E0,-1.047785655E-1
1.912714844E0,2.161468565E-1,1.139705658E0,-8.645262569E-2
1.915086927E0,2.405814379E-1,1.136040449E0,-6.690496206E-2
1.917459844E0,2.662377656E-1,1.129931808E0,-4.980074614E-2
1.919833490E0,2.931157947E-1,1.120157957E0,-3.269653767E-2
1.922206406E0,3.248807490E-1,1.105497241E0,-1.559232175E-2
1.924578438E0,3.554240167E-1,1.089614749E0,-9.315689094E-4
1.926951406E0,3.908541501E-1,1.074954033E0,1.495091245E-2
1.929325052E0,4.250625670E-1,1.056627989E0,3.083339706E-2
1.931697917E0,4.617144763E-1,1.035858631E0,4.671587795E-2
1.934070000E0,4.995880425E-1,1.013867497E0,6.259837002E-2
1.936442917E0,5.362399817E-1,9.943197370E-1,7.848084718E-2
1.938816563E0,5.704483986E-1,9.723286629E-1,9.191987664E-2
1.941189479E0,6.083220243E-1,9.503375292E-1,1.041371673E-1
1.943561510E0,6.449738741E-1,9.307898283E-1,1.175761893E-1
1.945934427E0,6.791822910E-1,9.075769782E-1,1.297934800E-1
1.948308125E0,7.121689916E-1,8.868075609E-1,1.420107782E-1
1.950680990E0,7.427122593E-1,8.672599196E-1,1.554497927E-1
1.953053021E0,7.683685422E-1,8.489339948E-1,1.713322848E-1
1.955425990E0,7.952466011E-1,8.306080103E-1,1.859930307E-1
1.957799635E0,8.172377348E-1,8.183907270E-1,1.994320601E-1
1.960172500E0,8.380071521E-1,8.037300110E-1,2.153145373E-1
1.962544583E0,8.538896441E-1,7.927344441E-1,2.299752980E-1
1.964917500E0,8.673286438E-1,7.829605937E-1,2.434143126E-1
1.967291146E0,8.758807778E-1,7.719650269E-1,2.592968047E-1
1.969664063E0,8.819894195E-1,7.634128928E-1,2.751792967E-1
1.972036094E0,8.856545687E-1,7.560825348E-1,2.922835052E-1
1.974409063E0,8.844328523E-1,7.475304008E-1,3.081659675E-1
1.976782708E0,8.832111359E-1,7.438652515E-1,3.252702057E-1
1.979155573E0,8.771024942E-1,7.475304008E-1,3.435961306E-1
1.981527656E0,8.661069274E-1,7.524173260E-1,3.594786227E-1
1.983900573E0,8.587765694E-1,7.597477436E-1,3.741393685E-1
1.986274219E0,8.502244353E-1,7.682998180E-1,3.888001144E-1
1.988647083E0,8.380071521E-1,7.792953849E-1,4.022391438E-1
1.991019167E0,8.282333016E-1,7.951778769E-1,4.181216359E-1
1.993392083E0,8.147943020E-1,8.122820854E-1,4.315606654E-1
1.995765729E0,7.989118099E-1,8.269428611E-1,4.413344860E-1
1.998138646E0,7.866945267E-1,8.489339948E-1,4.498865902E-1
2.000510677E0,7.695903182E-1,8.745902777E-1,4.608821571E-1
2.002883646E0,7.537078261E-1,9.002466202E-1,4.694342613E-1
2.005257292E0,7.353818417E-1,9.234594703E-1,4.779863656E-1
2.007630156E0,7.170559168E-1,9.527809620E-1,4.865384698E-1
2.010002240E0,6.962864995E-1,9.808807373E-1,4.926471114E-1
2.012375156E0,6.706302166E-1,1.010202289E0,4.938688576E-1
2.014748802E0,6.486390829E-1,1.046854258E0,4.975340068E-1
2.017121719E0,6.217610240E-1,1.082284331E0,5.097513795E-1
2.019493750E0,5.961046815E-1,1.115271091E0,5.219686627E-1
2.021866719E0,5.643397570E-1,1.144592524E0,5.329642296E-1
2.024240365E0,5.374616981E-1,1.172692299E0,5.402945876E-1
2.026613229E0,5.081402063E-1,1.195905209E0,5.402945876E-1
2.028985313E0,4.763751924E-1,1.228891850E0,5.464032292E-1
2.031358229E0,4.433884919E-1,1.261878610E0,5.671726465E-1
2.033731875E0,4.152887166E-1,1.282647967E0,5.854985714E-1
2.036104740E0,3.859672248E-1,1.297308683E0,6.050462723E-1
2.038476823E0,3.554240167E-1,1.308304310E0,6.221504807E-1
2.040849740E0,3.236590326E-1,1.315634727E0,6.294808388E-1
2.043223385E0,2.943375409E-1,1.332738876E0,6.392546892E-1
2.045596302E0,2.637942731E-1,1.346177936E0,6.600241065E-1
2.047968333E0,2.344727963E-1,1.348621368E0,6.820152402E-1
2.050341302E0,2.051512897E-1,1.342512727E0,7.052280903E-1
2.052714948E0,1.733863205E-1,1.329073668E0,7.211105824E-1
2.055087813E0,1.391779035E-1,1.310747743E0,7.259975076E-1
2.057459896E0,1.013042778E-1,1.309526086E0,7.357712984E-1
2.059832813E0,6.709585339E-2,1.311969519E0,7.516537905E-1
2.062206458E0,3.410916030E-2,1.305860877E0,7.675362825E-1
2.064579323E0,2.344191074E-3,1.293643594E0,7.797535658E-1
2.066951406E0,-3.064250201E-2,1.283869743E0,7.797535658E-1
2.069324323E0,-6.240747124E-2,1.288756609E0,7.797535658E-1
2.071697969E0,-8.806378394E-2,1.302195668E0,7.870839238E-1
2.074070885E0,-1.051679924E-1,1.314412951E0,7.944143414E-1
2.076442917E0,-1.173852906E-1,1.318078160E0,7.980794907E-1
2.078815885E0,-1.320460439E-1,1.313191175E0,7.907491326E-1
2.081189531E0,-1.381546855E-1,1.321743369E0,7.773101330E-1
2.083562396E0,-1.393764168E-1,1.338847518E0,7.748666406E-1
2.085934479E0,-1.357112229E-1,1.343734503E0,7.760883570E-1
2.088307396E0,-1.283808500E-1,1.336404085E0,7.748666406E-1
2.090681042E0,-1.198287532E-1,1.327852011E0,7.712014914E-1
2.093053958E0,-1.088331863E-1,1.313191175E0,7.650927901E-1
2.095425990E0,-9.661588818E-2,1.293643594E0,7.516537905E-1
2.097798958E0,-8.073341101E-2,1.266765475E0,7.223322988E-1
2.100172604E0,-5.996400863E-2,1.255769968E0,7.064498067E-1
2.102545469E0,-3.064250201E-2,1.232557058E0,7.027845979E-1
2.104917500E0,3.565922379E-3,1.182466149E0,7.003411651E-1
2.107290469E0,4.143953323E-2,1.112827539E0,6.942325234E-1
2.109664115E0,8.053487539E-2,1.035858631E0,6.869021058E-1
2.112036979E0,1.208519489E-1,9.515592456E-1,6.734631062E-1
2.114409063E0,1.575038433E-1,8.574860692E-1,6.441416144E-1
2.116781979E0,1.978209168E-1,7.756302357E-1,6.197069883E-1
2.119155625E0,2.405814379E-1,6.937743425E-1,6.074897051E-1
2.121528542E0,2.870071232E-1,5.984794497E-1,5.989376307E-1
2.123900573E0,3.297676742E-1,4.946324229E-1,5.903854966E-1
2.126273542E0,3.700847328E-1,3.944506347E-1,5.793899298E-1
2.128647188E0,4.079583585E-1,3.015991747E-1,5.659509301E-1
2.131020052E0,4.409450591E-1,2.160781175E-1,5.512901545E-1
2.133392135E0,4.702665508E-1,1.366657019E-1,5.366294384E-1
2.135765052E0,4.959228933E-1,6.214021519E-2,5.219686627E-1
2.138138698E0,5.240226984E-1,-7.498364896E-3,5.060861707E-1
2.140511615E0,5.484572649E-1,-6.736310571E-2,4.926471114E-1
2.142883646E0,5.728918314E-1,-1.211192012E-1,4.779863656E-1
2.145256563E0,5.985481739E-1,-1.663231850E-1,4.633256197E-1
2.147630260E0,6.229827404E-1,-2.115271837E-1,4.413344860E-1
2.150003125E0,6.498607993E-1,-2.518442571E-1,4.156781733E-1
2.152375156E0,6.755171418E-1,-2.909395993E-1,3.985739648E-1
2.154748125E0,6.950647831E-1,-3.410305083E-1,3.778045475E-1
2.157121771E0,7.109472752E-1,-3.960083127E-1,3.545916975E-1
2.159494635E0,7.231645584E-1,-4.485426843E-1,3.277136385E-1
2.161866719E0,7.280514836E-1,-4.974118769E-1,2.959486842E-1
2.164239635E0,7.280514836E-1,-5.389506817E-1,2.605185211E-1
2.166613281E0,7.207211256E-1,-5.719373822E-1,2.189797312E-1
2.168986198E0,7.097255588E-1,-5.963719487E-1,1.774409264E-1
2.171358229E0,6.962864995E-1,-6.122544408E-1,1.322369426E-1
2.173731198E0,6.755171418E-1,-6.171413660E-1,8.703295887E-2
2.176104844E0,6.474173665E-1,-6.195847988E-1,4.182896018E-2
2.178477708E0,6.168740988E-1,-6.208065152E-1,-3.375027794E-3
2.180849792E0,5.802222490E-1,-6.208065152E-1,-4.857901856E-2
2.183222708E0,5.350182652E-1,-6.208065152E-1,-9.011781216E-2
2.185596354E0,4.849273264E-1,-6.171413660E-1,-1.304348856E-1
2.187969219E0,4.323929250E-1,-6.085892320E-1,-1.719736904E-1
2.190341302E0,3.700847328E-1,-5.927067399E-1,-2.098473012E-1
2.192714219E0,3.077765405E-1,-5.694938898E-1,-2.501643896E-1
2.195087865E0,2.418031693E-1,-5.462810397E-1,-2.990335524E-1
2.197460781E0,1.721645892E-1,-5.059639812E-1,-3.540113866E-1
2.199832813E0,1.025260091E-1,-4.522078931E-1,-3.882198036E-1
2.202205781E0,3.533088788E-2,-4.070038795E-1,-4.236499667E-1
2.204579427E0,-3.675115108E-2,-3.703520000E-1,-4.603018463E-1
2.206952292E0,-1.076114550E-1,-3.361435831E-1,-5.018405914E-1
2.209324375E0,-1.796934903E-1,-3.007134199E-1,-5.446011424E-1
2.211697292E0,-2.444451451E-1,-2.652832866E-1,-5.873616934E-1
2.214070938E0,-3.055316508E-1,-2.371834964E-1,-6.215701103E-1
2.216443854E0,-3.629529178E-1,-2.151923776E-1,-6.472263932E-1
2.218815885E0,-4.130438268E-1,-1.993098855E-1,-6.643306017E-1
2.221188802E0,-4.582478106E-1,-1.870925874E-1,-6.741044521E-1
2.223562500E0,-4.997866452E-1,-1.736535728E-1,-6.777696609E-1
2.225935365E0,-5.376602411E-1,-1.626580060E-1,-6.777696609E-1
2.228307396E0,-5.718686581E-1,-1.528841704E-1,-6.765479445E-1
2.230680365E0,-6.011901498E-1,-1.443320662E-1,-6.728827357E-1
2.233054010E0,-6.292899251E-1,-1.345582306E-1,-6.692175269E-1
2.235426875E0,-6.549462676E-1,-1.321147680E-1,-6.631088853E-1
2.237798958E0,-6.769373417E-1,-1.296713054E-1,-6.570002437E-1
2.240171875E0,-6.989284754E-1,-1.308930367E-1,-6.484481692E-1
2.242545521E0,-7.209196091E-1,-1.321147680E-1,-6.411177516E-1
2.244918438E0,-7.380238175E-1,-1.394451410E-1,-6.313439608E-1
2.247290469E0,-7.539063096E-1,-1.467755139E-1,-6.203483939E-1
2.249663385E0,-7.661235929E-1,-1.541059017E-1,-6.093528271E-1
2.252037083E0,-7.771191597E-1,-1.663231850E-1,-5.959137678E-1
2.254409948E0,-7.856712937E-1,-1.797622144E-1,-5.836964846E-1
2.256782031E0,-7.942233682E-1,-1.919795126E-1,-5.690357089E-1
2.259154948E0,-7.978885770E-1,-2.029750794E-1,-5.555967093E-1
2.261528594E0,-8.003320694E-1,-2.127489150E-1,-5.421577096E-1
2.263901458E0,-7.991102934E-1,-2.213010192E-1,-5.262752175E-1
2.266273542E0,-7.954451442E-1,-2.261879295E-1,-5.128361583E-1
2.268646458E0,-7.930016518E-1,-2.286313921E-1,-4.993971884E-1
2.271020104E0,-7.868930101E-1,-2.310748547E-1,-4.835146964E-1
2.273393021E0,-7.820060849E-1,-2.261879295E-1,-4.700756669E-1
2.275765052E0,-7.734540105E-1,-2.200792879E-1,-4.578583837E-1
2.278138021E0,-7.685670853E-1,-2.090837210E-1,-4.444193542E-1
2.280511667E0,-7.600149512E-1,-1.968664229E-1,-4.334237874E-1
2.282884531E0,-7.526845932E-1,-1.834274083E-1,-4.236499667E-1
2.285256615E0,-7.441325188E-1,-1.663231850E-1,-4.126543999E-1
2.287629531E0,-7.392455935E-1,-1.479972452E-1,-4.053240120E-1
2.290003177E0,-7.343586683E-1,-1.247843951E-1,-3.955501914E-1
2.292376042E0,-7.294717431E-1,-1.027932614E-1,-3.857763410E-1
2.294748125E0,-7.258065343E-1,-7.958040386E-2,-3.735590577E-1
2.297121042E0,-7.221413851E-1,-5.881099775E-2,-3.637852073E-1
2.299494688E0,-7.221413851E-1,-3.681987152E-2,-3.515679240E-1
2.301867604E0,-7.209196091E-1,-1.971565932E-2,-3.417940736E-1
2.304239635E0,-7.209196091E-1,-3.833176335E-3,-3.307985067E-1
2.306612604E0,-7.221413851E-1,7.162388414E-3,-3.198029697E-1
2.308986250E0,-7.233631015E-1,1.204930618E-2,-3.088074028E-1
2.311359115E0,-7.245848179E-1,1.204930618E-2,-2.953683734E-1
2.313731198E0,-7.245848179E-1,5.940658972E-3,-2.843728065E-1
2.316104115E0,-7.270282507E-1,-7.498364896E-3,-2.745989561E-1
2.318477760E0,-7.233631015E-1,-2.338084765E-2,-2.636033893E-1
2.320850677E0,-7.196978927E-1,-4.903716221E-2,-2.538295686E-1
2.323222708E0,-7.148109674E-1,-7.958040386E-2,-2.428340018E-1
2.325595625E0,-7.074806094E-1,-1.137888283E-1,-2.379470766E-1
2.327969323E0,-7.001502514E-1,-1.516624391E-1,-2.318384349E-1
2.330342188E0,-6.867111921E-1,-1.944229752E-1,-2.269515097E-1
2.332714271E0,-6.744939089E-1,-2.371834964E-1,-2.232863307E-1
2.335087188E0,-6.634983420E-1,-2.799440324E-1,-2.183994055E-1
2.337460833E0,-6.500593424E-1,-3.251480162E-1,-2.135124952E-1
2.339833698E0,-6.341768503E-1,-3.703520000E-1,-2.061821222E-1
2.342205781E0,-6.219595671E-1,-4.143342674E-1,-2.012951970E-1
2.344578698E0,-6.085205078E-1,-4.607599974E-1,-1.964082867E-1
2.346952344E0,-6.011901498E-1,-4.998553395E-1,-1.927430928E-1
2.349325260E0,-5.950815082E-1,-5.352854729E-1,-1.866344512E-1
2.351697292E0,-5.914162993E-1,-5.682721734E-1,-1.805257946E-1
2.354070260E0,-5.901945829E-1,-5.939285159E-1,-1.744171530E-1
2.356443906E0,-5.914162993E-1,-6.183630824E-1,-1.683084965E-1
2.358816771E0,-5.914162993E-1,-6.366890073E-1,-1.621998549E-1
2.361188854E0,-5.914162993E-1,-6.562367082E-1,-1.548694819E-1
2.363561771E0,-5.914162993E-1,-6.696757078E-1,-1.499825567E-1
2.365935417E0,-5.877511501E-1,-6.831147671E-1,-1.487608254E-1
2.368308281E0,-5.853076577E-1,-6.953320503E-1,-1.450956464E-1
2.370680365E0,-5.828642249E-1,-7.075493336E-1,-1.450956464E-1
2.373053281E0,-5.791990161E-1,-7.222101092E-1,-1.487608254E-1
2.375426927E0,-5.706468821E-1,-7.356491089E-1,-1.573129445E-1
2.377799844E0,-5.633165240E-1,-7.503098845E-1,-1.670867801E-1
2.380171875E0,-5.535426736E-1,-7.661923766E-1,-1.805257946E-1
2.382544844E0,-5.413253903E-1,-7.820748091E-1,-1.939648241E-1
2.384918490E0,-5.266646743E-1,-7.991790175E-1,-2.098473012E-1
2.387291354E0,-5.107821822E-1,-8.138397932E-1,-2.269515097E-1
2.389663438E0,-4.936780035E-1,-8.297222853E-1,-2.440557331E-1
2.392036354E0,-4.765737951E-1,-8.468264937E-1,-2.574947476E-1
2.394410000E0,-4.558043778E-1,-8.663741350E-1,-2.684903145E-1
2.396782865E0,-4.374783933E-1,-8.847001195E-1,-2.782641649E-1
2.399154948E0,-4.179307520E-1,-9.018043280E-1,-2.868162692E-1
2.401527865E0,-3.971613348E-1,-9.201302528E-1,-2.953683734E-1
2.403901563E0,-3.776136935E-1,-9.372344613E-1,-3.039204776E-1
2.406274427E0,-3.617312014E-1,-9.531169534E-1,-3.124725819E-1
2.408646458E0,-3.446269929E-1,-9.677777290E-1,-3.222464025E-1
2.411019427E0,-3.287445009E-1,-9.824384451E-1,-3.295767903E-1
2.413393073E0,-3.189706504E-1,-9.934340119E-1,-3.332419693E-1
2.415765938E0,-3.043099344E-1,-1.003207803E0,-3.381288946E-1
2.418138021E0,-2.945360839E-1,-1.010538220E0,-3.405723572E-1
2.420510938E0,-2.847622335E-1,-1.014203429E0,-3.430158198E-1
2.422884583E0,-2.774318755E-1,-1.012981653E0,-3.466809988E-1
2.425257500E0,-2.725449502E-1,-1.009316444E0,-3.527896404E-1
2.427629531E0,-2.688797414E-1,-1.004429579E0,-3.613417447E-1
2.430002448E0,-2.676580250E-1,-9.934340119E-1,-3.711155951E-1
2.432376146E0,-2.701014578E-1,-9.799950123E-1,-3.796676993E-1
2.434749010E0,-2.749883831E-1,-9.616690874E-1,-3.894415200E-1
2.437121042E0,-2.823188007E-1,-9.433431029E-1,-3.992153704E-1
2.439494010E0,-2.920925915E-1,-9.237954617E-1,-4.089891911E-1
2.441867656E0,-3.067533672E-1,-9.030260444E-1,-4.163195789E-1
2.444240521E0,-3.214141428E-1,-8.871435523E-1,-4.248716831E-1
2.446612604E0,-3.385183513E-1,-8.688176274E-1,-4.383107126E-1
2.448985521E0,-3.580659926E-1,-8.504917026E-1,-4.554149210E-1
2.451359167E0,-3.776136935E-1,-8.309440017E-1,-4.737408757E-1
2.453732083E0,-3.983830512E-1,-8.126180768E-1,-4.896233380E-1
2.456104115E0,-4.191524684E-1,-7.942921519E-1,-5.018405914E-1
2.458477083E0,-4.362566769E-1,-7.796313763E-1,-5.165013671E-1
2.460850729E0,-4.533608854E-1,-7.686358094E-1,-5.348272920E-1
2.463223594E0,-4.680216610E-1,-7.576402426E-1,-5.543749928E-1
2.465595625E0,-4.790172279E-1,-7.454229593E-1,-5.714792013E-1
2.467968594E0,-4.887910783E-1,-7.344273925E-1,-5.922486186E-1
2.470342240E0,-4.985649288E-1,-7.246535420E-1,-6.105745435E-1
2.472715104E0,-5.022300482E-1,-7.173231840E-1,-6.264570355E-1
2.475087188E0,-5.022300482E-1,-7.075493336E-1,-6.423395276E-1
2.477460104E0,-5.022300482E-1,-6.989971995E-1,-6.545568109E-1
2.479833750E0,-4.985649288E-1,-6.916668415E-1,-6.631088853E-1
2.482206667E0,-4.948997200E-1,-6.855581999E-1,-6.655523777E-1
2.484578698E0,-4.863475859E-1,-6.806712747E-1,-6.655523777E-1
2.486951667E0,-4.753520191E-1,-6.782278419E-1,-6.631088853E-1
2.489325313E0,-4.667999446E-1,-6.782278419E-1,-6.594437361E-1
2.491698177E0,-4.545826614E-1,-6.757843494E-1,-6.533350348E-1
2.494070260E0,-4.435870945E-1,-6.770061255E-1,-6.460046768E-1
2.496443177E0,-4.301480353E-1,-6.782278419E-1,-6.337873936E-1
2.498816823E0,-4.191524684E-1,-6.782278419E-1,-6.191266179E-1
2.501189688E0,-4.093786180E-1,-6.794495583E-1,-6.008006930E-1
2.503561771E0,-3.983830512E-1,-6.831147671E-1,-5.824747682E-1
2.505934688E0,-3.886092603E-1,-6.892234087E-1,-5.617053509E-1
2.508308333E0,-3.763919175E-1,-6.953320503E-1,-5.384925008E-1
2.510681250E0,-3.629529178E-1,-7.026624084E-1,-5.177230835E-1
2.513053281E0,-3.495139182E-1,-7.087710500E-1,-4.945102632E-1
2.515426250E0,-3.360748589E-1,-7.161014676E-1,-4.712974131E-1
2.517799896E0,-3.226358593E-1,-7.222101092E-1,-4.444193542E-1
2.520172760E0,-3.104185760E-1,-7.295404673E-1,-4.163195789E-1
2.522544844E0,-2.945360839E-1,-7.380926013E-1,-3.906632662E-1
2.524917760E0,-2.774318755E-1,-7.454229593E-1,-3.723373115E-1
2.527291406E0,-2.615493834E-1,-7.527533174E-1,-3.527896404E-1
2.529664271E0,-2.432234287E-1,-7.588619590E-1,-3.356854320E-1
2.532036354E0,-2.285626531E-1,-7.649706006E-1,-3.173595071E-1
2.534409271E0,-2.139019072E-1,-7.686358094E-1,-2.990335524E-1
2.536782969E0,-2.004628778E-1,-7.784096599E-1,-2.782641649E-1
2.539155833E0,-1.833586693E-1,-7.857400179E-1,-2.587164938E-1
2.541527865E0,-1.686979234E-1,-7.942921519E-1,-2.367253602E-1
2.543900833E0,-1.540371627E-1,-8.052877188E-1,-2.135124952E-1
2.546274479E0,-1.454850584E-1,-8.150615096E-1,-1.841909885E-1
2.548647344E0,-1.308243126E-1,-8.248353601E-1,-1.499825567E-1
2.551019427E0,-1.173852906E-1,-8.394961357E-1,-1.231045052E-1
2.553392344E0,-1.002810821E-1,-8.517134190E-1,-1.060002968E-1
2.555765990E0,-8.562032133E-2,-8.602654934E-1,-9.378299862E-2
2.558138854E0,-6.729438156E-2,-8.651524186E-1,-7.912224531E-2
2.560510938E0,-5.263363570E-2,-8.663741350E-1,-6.323976815E-2
2.562883854E0,-4.163806885E-2,-8.712610602E-1,-4.857901856E-2
2.565257500E0,-2.942077070E-2,-8.785914779E-1,-3.391826525E-2
2.567630417E0,-1.842520386E-2,-8.871435523E-1,-2.047923952E-2
2.570002448E0,-8.651368320E-3,-8.956956863E-1,-7.040216122E-3
2.572375417E0,2.344191074E-3,-9.005826116E-1,5.177078303E-3
2.574749063E0,1.211802661E-2,-9.066912532E-1,1.495091245E-2
2.577121927E0,2.311359346E-2,-9.140216112E-1,2.594647929E-2
2.579494010E0,3.288742900E-2,-9.176868200E-1,3.327685595E-2
2.581866927E0,4.266126454E-2,-9.213519692E-1,4.060722888E-2
2.584240573E0,5.487855896E-2,-9.237954617E-1,4.060722888E-2
2.586613490E0,6.465239078E-2,-9.189085364E-1,4.182896018E-2
2.588985521E0,7.198277116E-2,-9.140216112E-1,4.060722888E-2
2.591358438E0,7.809142023E-2,-9.066912532E-1,3.938550130E-2
2.593732135E0,8.664352447E-2,-8.908087611E-1,3.816377372E-2
2.596105000E0,9.153044224E-2,-8.749262691E-1,3.327685595E-2
2.598477031E0,9.519562870E-2,-8.602654934E-1,2.716820687E-2
2.600850000E0,9.763909131E-2,-8.443830609E-1,1.861610264E-2
2.603223646E0,9.886082262E-2,-8.309440017E-1,1.128572598E-2
2.605596510E0,9.886082262E-2,-8.162832856E-1,2.733619418E-3
2.607968594E0,9.763909131E-2,-8.065094352E-1,-5.818486679E-3
2.610341510E0,9.519562870E-2,-7.942921519E-1,-1.681405120E-2
2.612715156E0,9.397389740E-2,-7.845183015E-1,-2.658788860E-2
2.615088073E0,9.519562870E-2,-7.747444510E-1,-3.513999283E-2
2.617460104E0,9.397389740E-2,-7.674140930E-1,-4.491382837E-2
2.619833021E0,9.641736001E-2,-7.600836754E-1,-5.102247745E-2
2.622206719E0,9.886082262E-2,-7.539750338E-1,-6.323976815E-2
2.624579583E0,1.037477329E-1,-7.466446757E-1,-7.301359624E-2
2.626951615E0,1.122998446E-1,-7.405360341E-1,-8.156570792E-2
2.629324583E0,1.159650311E-1,-7.344273925E-1,-8.889608085E-2
2.631698229E0,1.245171353E-1,-7.270970345E-1,-9.744819254E-2
2.634071094E0,1.342909783E-1,-7.197666168E-1,-1.047785655E-1
2.636443177E0,1.489517242E-1,-7.161014676E-1,-1.108872145E-1
2.638816094E0,1.623907536E-1,-7.124362588E-1,-1.169958636E-1
2.641189740E0,1.807167083E-1,-7.124362588E-1,-1.206610501E-1
2.643562656E0,1.990426481E-1,-7.136579752E-1,-1.243262365E-1
2.645934688E0,2.210337669E-1,-7.136579752E-1,-1.267697066E-1
2.648307656E0,2.454683632E-1,-7.185449004E-1,-1.267697066E-1
2.650681302E0,2.711246610E-1,-7.222101092E-1,-1.267697066E-1
2.653054167E0,2.980026901E-1,-7.283187509E-1,-1.231045052E-1
2.655426250E0,3.273242414E-1,-7.344273925E-1,-1.194393188E-1
2.657799167E0,3.590891659E-1,-7.417577505E-1,-1.133306697E-1
2.660172813E0,3.920758665E-1,-7.515316010E-1,-1.060002968E-1
2.662545677E0,4.250625670E-1,-7.600836754E-1,-9.744819254E-2
2.664917760E0,4.580492675E-1,-7.698575258E-1,-8.645262569E-2
2.667290677E0,4.934794009E-1,-7.808530927E-1,-7.423532754E-2
2.669664323E0,5.289096236E-1,-7.894052267E-1,-6.079631299E-2
2.672037240E0,5.618962646E-1,-7.979573011E-1,-4.735729098E-2
2.674409271E0,5.936612487E-1,-8.065094352E-1,-3.269653767E-2
2.676782188E0,6.278696656E-1,-8.150615096E-1,-1.803578064E-2
2.679155885E0,6.596346498E-1,-8.223919272E-1,-2.153298352E-3
2.681528750E0,6.901778579E-1,-8.236136436E-1,1.128572598E-2
2.683900833E0,7.194994092E-1,-8.199484348E-1,2.472474799E-2
2.686273750E0,7.451556921E-1,-8.113963604E-1,3.572031111E-2
2.688647396E0,7.756989598E-1,-8.028442264E-1,4.671587795E-2
2.691020260E0,8.025769591E-1,-7.869617343E-1,5.526798218E-2
2.693392344E0,8.257898688E-1,-7.674140930E-1,6.382009387E-2
2.695765260E0,8.502244353E-1,-7.442012429E-1,7.115047425E-2
2.698138906E0,8.697720766E-1,-7.161014676E-1,7.481566072E-2
2.700511823E0,8.905414939E-1,-6.843364835E-1,7.725912333E-2
2.702883854E0,9.027587771E-1,-6.513497829E-1,7.970257849E-2
2.705256771E0,9.161978364E-1,-6.146978736E-1,7.970257849E-2
2.707630469E0,9.235281944E-1,-5.719373822E-1,7.848084718E-2
2.710003333E0,9.271934032E-1,-5.316203237E-1,7.603739202E-2
2.712375417E0,9.284151196E-1,-4.888597727E-1,6.992874295E-2
2.714748333E0,9.247499108E-1,-4.436557889E-1,6.504182518E-2
2.717121979E0,9.174195528E-1,-4.008952379E-1,5.648971349E-2
2.719494844E0,9.064239860E-1,-3.569129705E-1,4.915933684E-2
2.721866927E0,8.929849863E-1,-3.153741956E-1,4.182896018E-2
2.724239844E0,8.819894195E-1,-2.665050030E-1,2.961166576E-2
2.726613490E0,8.636634350E-1,-2.213010192E-1,2.105956152E-2
2.728986406E0,8.453375101E-1,-1.724318415E-1,1.006399654E-2
2.731358438E0,8.282333016E-1,-1.260061115E-1,-2.153298352E-3
2.733731406E0,7.976900935E-1,-9.301942587E-2,-1.437059231E-2
2.736105052E0,7.610381842E-1,-6.980656832E-2,-2.536615729E-2
2.738477917E0,7.133907080E-1,-5.392407998E-2,-3.147480637E-2
2.740849948E0,6.596346498E-1,-3.804159909E-2,-4.002691060E-2
2.743222917E0,6.046568155E-1,-1.971565932E-2,-5.224420875E-2
2.745596563E0,5.509007573E-1,4.718929529E-3,-6.079631299E-2
2.747969427E0,5.044749975E-1,3.159697726E-2,-7.179187238E-2
2.750341510E0,4.592709839E-1,5.725329742E-2,-8.156570792E-2
2.752714427E0,4.140670002E-1,8.168788254E-2,-9.256126732E-2
2.755088073E0,3.713064492E-1,1.049007475E-1,-9.744819254E-2
2.757460990E0,3.285459578E-1,1.391091645E-1,-1.060002968E-1
2.759833021E0,2.857854068E-1,1.757610440E-1,-1.133306697E-1
2.762205990E0,2.381379902E-1,2.111912072E-1,-1.145524010E-1
2.764579635E0,1.965991855E-1,2.502865493E-1,-1.169958636E-1
2.766952500E0,1.501734704E-1,2.844949663E-1,-1.169958636E-1
2.769324583E0,1.037477329E-1,3.187033832E-1,-1.145524010E-1
2.771697500E0,6.098720431E-2,3.541335464E-1,-1.108872145E-1
2.774071146E0,1.822667569E-2,3.822333217E-1,-1.060002968E-1
2.776444010E0,-2.453385293E-2,4.054461718E-1,-9.622646123E-2
2.778816094E0,-6.973784417E-2,4.201069474E-1,-8.767435700E-2
2.781189010E0,-1.186070219E-1,4.298807681E-1,-7.790052146E-2
2.783562656E0,-1.735848337E-1,4.347676933E-1,-7.057014108E-2
2.785935573E0,-2.334495783E-1,4.335459769E-1,-6.079631299E-2
2.788307604E0,-2.994230092E-1,4.298807681E-1,-5.346593633E-2
2.790680573E0,-3.666181266E-1,4.249938726E-1,-4.735729098E-2
2.793054219E0,-4.387001693E-1,4.188852012E-1,-3.880518302E-2
2.795427083E0,-5.034517646E-1,4.127765596E-1,-2.780961618E-2
2.797799167E0,-5.596513152E-1,4.152200222E-1,-1.437059231E-2
2.800172083E0,-6.060770750E-1,4.237721264E-1,2.733619418E-3
2.802545729E0,-6.415072083E-1,4.384328723E-1,1.861610264E-2
2.804918594E0,-6.634983420E-1,4.567588270E-1,3.816377372E-2
2.807290677E0,-6.708287001E-1,4.750847518E-1,5.771144852E-2
2.809663594E0,-6.659418344E-1,4.958541393E-1,7.603739202E-2
2.812037240E0,-6.500593424E-1,5.178452730E-1,9.558506310E-2
2.814410156E0,-6.256247163E-1,5.447233319E-1,1.151327342E-1
2.816782188E0,-5.853076577E-1,5.801535249E-1,1.310152113E-1
2.819155156E0,-5.425471067E-1,6.168053746E-1,1.432325095E-1
2.821528802E0,-4.936780035E-1,6.546790004E-1,1.505628824E-1
2.823901667E0,-4.435870945E-1,6.901091337E-1,1.542280614E-1
2.826273750E0,-3.910526931E-1,7.218741179E-1,1.530063450E-1
2.828646667E0,-3.434052765E-1,7.487521768E-1,1.505628824E-1
2.831020313E0,-3.006447256E-1,7.695215344E-1,1.505628824E-1
2.833393177E0,-2.627710998E-1,7.829605937E-1,1.481194198E-1
2.835765260E0,-2.285626531E-1,7.890692353E-1,1.444542408E-1
2.838138177E0,-1.992411613E-1,7.878475189E-1,1.407890469E-1
2.840511823E0,-1.723631024E-1,7.780736685E-1,1.359021217E-1
2.842884740E0,-1.418198794E-1,7.536391020E-1,1.346803904E-1
2.845256771E0,-1.100549176E-1,7.133219838E-1,1.322369426E-1
2.847629740E0,-7.706821710E-2,6.632310748E-1,1.310152113E-1
2.850003385E0,-4.530325532E-2,6.009228826E-1,1.322369426E-1
2.852376250E0,-1.476001740E-2,5.337277651E-1,1.371238530E-1
2.854748333E0,1.578321680E-2,4.628674686E-1,1.395673156E-1
2.857121250E0,4.143953323E-2,3.907854259E-1,1.468976885E-1
2.859494896E0,6.587412208E-2,3.187033832E-1,1.530063450E-1
2.861867760E0,9.030871093E-2,2.527300119E-1,1.591149867E-1
2.864239844E0,1.098563820E-1,1.904218048E-1,1.664453596E-1
2.866612760E0,1.306257993E-1,1.354439855E-1,1.713322848E-1
2.868986406E0,1.477300078E-1,8.901826292E-2,1.774409264E-1
2.871359323E0,1.648342162E-1,4.992292449E-2,1.811061203E-1
2.873731354E0,1.746080518E-1,2.060141414E-2,1.884364933E-1
2.876104271E0,1.758297831E-1,-1.679880079E-4,1.933234036E-1
2.878477969E0,1.733863205E-1,-1.116355322E-2,1.994320601E-1
2.880850833E0,1.599472910E-1,-1.360701211E-2,2.055407017E-1
2.883222865E0,1.391779035E-1,-1.116355322E-2,2.153145373E-1
2.885595833E0,1.147432998E-1,3.497200320E-3,2.226449251E-1
2.887969479E0,8.175660670E-2,1.937968284E-2,2.238666415E-1
2.890342344E0,5.243510008E-2,4.259254411E-2,2.226449251E-1
2.892714427E0,2.555705234E-2,6.702712923E-2,2.153145373E-1
2.895087344E0,2.344191074E-3,9.512691200E-2,2.043189704E-1
2.897460990E0,-1.842520386E-2,1.293353289E-1,1.908799559E-1
2.899833906E0,-3.308596462E-2,1.672089398E-1,1.737757325E-1
2.902205938E0,-4.285980016E-2,2.111912072E-1,1.566715240E-1
2.904578906E0,-5.019017309E-2,2.588386536E-1,1.359021217E-1
2.906952552E0,-5.263363570E-2,3.077078462E-1,1.114675477E-1
2.909325417E0,-5.385535955E-2,3.602421880E-1,8.947641402E-2
2.911697500E0,-4.896844178E-2,4.152200222E-1,6.137663499E-2
2.914070417E0,-4.530325532E-2,4.665326476E-1,3.083339706E-2
2.916444063E0,-4.163806885E-2,5.215104818E-1,2.901605330E-4
2.918816927E0,-3.919460624E-2,5.764883161E-1,-3.513999283E-2
2.921189010E0,-3.675115108E-2,6.314661503E-1,-6.812668592E-2
2.923561927E0,-4.041633755E-2,6.876657009E-1,-1.011133790E-1
2.925935573E0,-4.408152401E-2,7.438652515E-1,-1.365435421E-1
2.928308490E0,-5.019017309E-2,7.963995934E-1,-1.719736904E-1
2.930680521E0,-5.996400863E-2,8.501557112E-1,-2.074038386E-1
2.933053438E0,-6.973784417E-2,9.002466202E-1,-2.416122705E-1
2.935427135E0,-7.951167971E-2,9.503375292E-1,-2.733772397E-1
2.937800000E0,-8.684205264E-2,9.967632890E-1,-3.026987314E-1
2.940172031E0,-9.295070916E-2,1.041967273E0,-3.271333277E-1
2.942545000E0,-9.539415687E-2,1.082284331E0,-3.491244614E-1
2.944918646E0,-9.539415687E-2,1.118936300E0,-3.637852073E-1
2.947291510E0,-9.050724655E-2,1.151922941E0,-3.723373115E-1
2.949663594E0,-8.439860493E-2,1.183687925E0,-3.808894157E-1
2.952036510E0,-7.340303808E-2,1.208122492E0,-3.833328784E-1
2.954410156E0,-6.362919509E-2,1.231335402E0,-3.821111619E-1
2.956783073E0,-5.019017309E-2,1.248439550E0,-3.796676993E-1
2.959155104E0,-3.675115108E-2,1.260656834E0,-3.772242367E-1
2.961528021E0,-2.209039778E-2,1.270430684E0,-3.686721325E-1
2.963901719E0,-9.873099625E-3,1.275317669E0,-3.588983119E-1
2.966274583E0,3.565922379E-3,1.280204535E0,-3.491244614E-1
2.968646615E0,1.333975792E-2,1.281426311E0,-3.356854320E-1
2.971019583E0,2.677878179E-2,1.276539326E0,-3.222464025E-1
2.973393229E0,3.777434677E-2,1.274095893E0,-3.075856566E-1
2.975766094E0,4.754818231E-2,1.265543818E0,-2.917031646E-1
2.978138177E0,5.732201785E-2,1.255769968E0,-2.758207023E-1
2.980511094E0,6.709585339E-2,1.242330909E0,-2.587164938E-1
2.982884740E0,7.809142023E-2,1.226448417E0,-2.428340018E-1
2.985257656E0,9.275217354E-2,1.210565925E0,-2.281732410E-1
2.987629688E0,1.098563820E-1,1.193461776E0,-2.135124952E-1
2.990002604E0,1.257388741E-1,1.176357508E0,-1.976300180E-1
2.992376302E0,1.465082765E-1,1.156809807E0,-1.793040633E-1
2.994749167E0,1.721645892E-1,1.134818673E0,-1.597563922E-1
2.997121250E0,2.014860958E-1,1.114049315E0,-1.426521838E-1
2.999494167E0,2.320293337E-1,1.092058182E0,-1.243262365E-1
3.001867813E0,2.637942731E-1,1.068845391E0,-1.060002968E-1
3.004240677E0,3.004461825E-1,1.046854258E0,-8.889608085E-2
3.006612760E0,3.358763158E-1,1.027306557E0,-6.690496206E-2
3.008985677E0,3.749716580E-1,1.010202289E0,-4.857901856E-2
3.011359323E0,4.152887166E-1,9.906546474E-1,-2.903134748E-2
3.013732188E0,4.531623423E-1,9.723286629E-1,-7.040216122E-3
3.016104271E0,4.922576845E-1,9.588896036E-1,1.495091245E-2
3.018477240E0,5.276878476E-1,9.442288876E-1,3.572031111E-2
3.020850885E0,5.606745481E-1,9.295681119E-1,5.404625461E-2
3.023223750E0,5.912178159E-1,9.161291122E-1,7.115047425E-2
3.025595781E0,6.193175912E-1,9.051335454E-1,9.069814533E-2
3.027968750E0,6.461955905E-1,8.904727697E-1,1.102458164E-1
3.030342396E0,6.632997990E-1,8.819206953E-1,1.297934800E-1
3.032715260E0,6.779605746E-1,8.721468449E-1,1.505628824E-1
3.035087344E0,6.889561415E-1,8.648164868E-1,1.676670909E-1
3.037460260E0,6.938430667E-1,8.599295616E-1,1.823278517E-1
3.039833906E0,6.962864995E-1,8.550426364E-1,2.006537914E-1
3.042206823E0,6.950647831E-1,8.489339948E-1,2.177579999E-1
3.044578854E0,6.926213503E-1,8.464905024E-1,2.336404771E-1
3.046951771E0,6.828474998E-1,8.452687860E-1,2.507447004E-1
3.049325469E0,6.742953658E-1,8.464905024E-1,2.666271627E-1
3.051698333E0,6.645215750E-1,8.477122188E-1,2.812879384E-1
3.054070365E0,6.486390829E-1,8.525991440E-1,2.983921468E-1
3.056443333E0,6.352000237E-1,8.611512780E-1,3.142746389E-1
3.058816979E0,6.180958152E-1,8.697033525E-1,3.277136385E-1
3.061189844E0,6.046568155E-1,8.806989193E-1,3.435961306E-1
3.063561927E0,5.887743235E-1,8.929162621E-1,3.582568765E-1
3.065934844E0,5.704483986E-1,9.051335454E-1,3.704741895E-1
3.068308490E0,5.545659065E-1,9.197942615E-1,3.778045475E-1
3.070681406E0,5.362399817E-1,9.381202459E-1,3.900218606E-1
3.073053438E0,5.179140568E-1,9.576678872E-1,3.973522186E-1
3.075426354E0,5.020315647E-1,9.772155881E-1,4.059043229E-1
3.077800052E0,4.824838340E-1,9.979849458E-1,4.120129943E-1
3.080172917E0,4.641579092E-1,1.017532706E0,4.217868149E-1
3.082545000E0,4.470537007E-1,1.038302064E0,4.340040982E-1
3.084917917E0,4.311712086E-1,1.051741123E0,4.449996650E-1
3.087291563E0,4.152887166E-1,1.065180182E0,4.584386945E-1
3.089664427E0,4.006280005E-1,1.078619123E0,4.694342613E-1
3.092036510E0,3.835237920E-1,1.088392973E0,4.767646492E-1
3.094409427E0,3.676413000E-1,1.094501615E0,4.755429029E-1
3.096783073E0,3.505370915E-1,1.107940674E0,4.816515744E-1
3.099155990E0,3.334328830E-1,1.116492748E0,4.975340068E-1
3.101528021E0,3.187721074E-1,1.116492748E0,5.146383047E-1
3.103900938E0,3.065548241E-1,1.107940674E0,5.305207372E-1
3.106274635E0,2.918940485E-1,1.095723391E0,5.451815128E-1
3.108647500E0,2.747898400E-1,1.077397466E0,5.512901545E-1
3.111019531E0,2.601290941E-1,1.066401839E0,5.537336469E-1
3.113392500E0,2.454683632E-1,1.059071541E0,5.720595717E-1
3.115766146E0,2.332510650E-1,1.040745497E0,5.928289890E-1
3.118139010E0,2.222554982E-1,1.013867497E0,6.123766303E-1
3.120511094E0,2.100382000E-1,9.808807373E-1,6.282591224E-1
3.122884010E0,1.953774542E-1,9.454506040E-1,6.343677640E-1
3.125257656E0,1.819384247E-1,9.271246791E-1,6.453633308E-1
3.127630573E0,1.733863205E-1,9.087986946E-1,6.661327481E-1
3.130002604E0,1.648342162E-1,8.831424117E-1,6.844586730E-1
3.132375521E0,1.575038433E-1,8.525991440E-1,7.015628815E-1
3.134749167E0,1.501734704E-1,8.196124434E-1,7.076715231E-1
3.137122083E0,1.440648139E-1,8.073951602E-1,7.137801647E-1
3.139494115E0,1.403996199E-1,8.061734438E-1,7.296626568E-1
3.141867083E0,1.440648139E-1,7.988430858E-1,7.431017160E-1
3.144240729E0,1.465082765E-1,7.841823101E-1,7.540972829E-1
3.146613594E0,1.452865452E-1,7.573042512E-1,7.540972829E-1
3.148985677E0,1.477300078E-1,7.463086843E-1,7.553189993E-1
3.151358594E0,1.538386494E-1,7.402000427E-1,7.650927901E-1
3.153732240E0,1.599472910E-1,7.279827595E-1,7.748666406E-1
3.156105104E0,1.636124849E-1,7.035481930E-1,7.773101330E-1
3.158477188E0,1.660559475E-1,6.791135669E-1,7.712014914E-1
3.160850104E0,1.709428579E-1,6.705614924E-1,7.712014914E-1
3.163223802E0,1.819384247E-1,6.644528508E-1,7.785318494E-1
3.165596667E0,1.978209168E-1,6.473486423E-1,7.846404910E-1
3.167968698E0,2.137033939E-1,6.180270910E-1,7.883056998E-1
3.170341667E0,2.271424234E-1,5.752665997E-1,7.736449242E-1
3.172715313E0,2.466900945E-1,5.544971824E-1,7.650927901E-1
3.175088177E0,2.723464072E-1,5.386146903E-1,7.663145661E-1
3.177460260E0,3.041113615E-1,5.044062734E-1,7.675362825E-1
3.179833177E0,3.383198082E-1,4.530936480E-1,7.663145661E-1
3.182206823E0,3.688630164E-1,3.810116053E-1,7.565407157E-1
3.184579688E0,4.030714333E-1,3.211468458E-1,7.321061492E-1
3.186951771E0,4.397233427E-1,2.783863246E-1,7.296626568E-1
3.189324688E0,4.763751924E-1,2.234085053E-1,7.284409404E-1
3.191698333E0,5.179140568E-1,1.501047313E-1,7.259975076E-1
3.194071250E0,5.582311153E-1,6.580540538E-2,7.235540152E-1
3.196443281E0,5.912178159E-1,-2.338084765E-2,7.125584483E-1
3.198816250E0,6.242045164E-1,-1.125670969E-1,6.832369566E-1
3.201189896E0,6.584129333E-1,-1.760970354E-1,6.734631062E-1
3.203562760E0,6.938430667E-1,-2.420704216E-1,6.746848226E-1
3.205934844E0,7.329384089E-1,-3.214828372E-1,6.746848226E-1
3.208307760E0,7.671468258E-1,-4.021169841E-1,6.759065986E-1
3.210681406E0,7.964683175E-1,-4.790859222E-1,6.722413898E-1
3.213054271E0,8.209029436E-1,-5.462810397E-1,6.697978973E-1
3.215426354E0,8.404505849E-1,-6.037023067E-1,6.624675393E-1
3.217799271E0,8.538896441E-1,-6.513497829E-1,6.539154649E-1
3.220172917E0,8.648852110E-1,-6.928885579E-1,6.429198980E-1
3.222545833E0,8.771024942E-1,-7.222101092E-1,6.294808388E-1
3.224917865E0,8.868763447E-1,-7.380926013E-1,6.172635555E-1
3.227290833E0,8.929849863E-1,-7.442012429E-1,5.977159142E-1
3.229664479E0,8.978718519E-1,-7.454229593E-1,5.537336469E-1
3.232037344E0,9.027587771E-1,-7.099927664E-1,5.207469463E-1
3.234409427E0,9.100891948E-1,-6.623453498E-1,5.060861707E-1
3.236782344E0,9.247499108E-1,-6.269152164E-1,4.914253950E-1
3.239155990E0,9.369672537E-1,-6.085892320E-1,4.682125449E-1
3.241528854E0,9.430758953E-1,-6.012588739E-1,4.364475608E-1
3.243900938E0,9.430758953E-1,-5.878198743E-1,3.936870396E-1
3.246273854E0,9.333020449E-1,-5.682721734E-1,3.460395932E-1
3.248647500E0,9.247499108E-1,-5.413941145E-1,2.959486842E-1
3.251020417E0,9.052022696E-1,-5.035205483E-1,2.434143126E-1
3.253392448E0,8.868763447E-1,-4.583165348E-1,1.921016872E-1
3.255765417E0,8.661069274E-1,-4.473209679E-1,1.346803904E-1
3.258139063E0,8.465592265E-1,-4.326602221E-1,7.970257849E-2
3.260511927E0,8.257898688E-1,-4.045604467E-1,2.594647929E-2
3.262884010E0,8.074638844E-1,-3.740172088E-1,-2.536615729E-2
3.265256927E0,7.854727507E-1,-3.422522247E-1,-7.912224531E-2
3.267630573E0,7.622599006E-1,-3.141524494E-1,-1.328783482E-1
3.270003438E0,7.402687669E-1,-2.921613157E-1,-1.841909885E-1
3.272375521E0,7.170559168E-1,-2.775005698E-1,-2.379470766E-1
3.274748438E0,6.889561415E-1,-2.665050030E-1,-3.014770150E-1
3.277122083E0,6.559694409E-1,-2.591746449E-1,-3.515679240E-1
3.279495000E0,6.217610240E-1,-2.616181076E-1,-3.943284452E-1
3.281867031E0,5.838873982E-1,-2.750571072E-1,-4.358672500E-1
3.284239948E0,5.472355485E-1,-2.921613157E-1,-4.761843383E-1
3.286613646E0,5.081402063E-1,-3.117089868E-1,-5.201665759E-1
3.288986510E0,4.727100432E-1,-3.300349414E-1,-5.629270673E-1
3.291358594E0,4.385015666E-1,-3.508043289E-1,-6.081310511E-1
3.293731510E0,4.067366421E-1,-3.740172088E-1,-6.508916020E-1
3.296105156E0,3.761933744E-1,-4.008952379E-1,-6.887652278E-1
3.298478021E0,3.419849575E-1,-4.289950132E-1,-7.229736447E-1
3.300850104E0,3.102200329E-1,-4.607599974E-1,-7.584037781E-1
3.303223021E0,2.796767652E-1,-4.925249517E-1,-7.852818370E-1
3.305596667E0,2.442466319E-1,-5.242899060E-1,-8.011643291E-1
3.307969583E0,2.063730210E-1,-5.584983230E-1,-8.121598959E-1
3.310341615E0,1.660559475E-1,-5.890415907E-1,-8.194902539E-1
3.312714583E0,1.245171353E-1,-6.183630824E-1,-8.219337463E-1
3.315088229E0,7.809142023E-2,-6.427976489E-1,-8.243771791E-1
3.317461094E0,3.410916030E-2,-6.635670662E-1,-8.268206716E-1
3.319833125E0,-1.231656224E-2,-6.818929911E-1,-8.255988955E-1
3.322206094E0,-6.240747124E-2,-6.965537667E-1,-8.207119703E-1
3.324579740E0,-1.100549176E-1,-7.063276172E-1,-8.121598959E-1
3.326952604E0,-1.540371627E-1,-7.136579752E-1,-8.060512543E-1
3.329324688E0,-1.943542361E-1,-7.148796916E-1,-7.999426126E-1
3.331697604E0,-2.346713245E-1,-7.161014676E-1,-7.913904786E-1
3.334071250E0,-2.725449502E-1,-7.185449004E-1,-7.803949118E-1
3.336444167E0,-3.091968000E-1,-7.209883332E-1,-7.693993449E-1
3.338816198E0,-3.446269929E-1,-7.246535420E-1,-7.584037781E-1
3.341189167E0,-3.788354099E-1,-7.258752584E-1,-7.425212860E-1
3.343562813E0,-4.142655432E-1,-7.246535420E-1,-7.266388535E-1
3.345935677E0,-4.435870945E-1,-7.185449004E-1,-7.107563615E-1
3.348307708E0,-4.765737951E-1,-7.087710500E-1,-6.912086606E-1
3.350680677E0,-5.058952570E-1,-6.941103339E-1,-6.716610193E-1
3.353054323E0,-5.291081071E-1,-6.757843494E-1,-6.557785273E-1
3.355427188E0,-5.523209572E-1,-6.550149918E-1,-6.398960352E-1
3.357799271E0,-5.682034492E-1,-6.244717240E-1,-6.252352595E-1
3.360172188E0,-5.877511501E-1,-5.890415907E-1,-6.105745435E-1
3.362545833E0,-6.024118662E-1,-5.475027561E-1,-5.995789766E-1
3.364918750E0,-6.158509254E-1,-5.035205483E-1,-5.873616934E-1
3.367290781E0,-6.219595671E-1,-4.534296095E-1,-5.727009177E-1
3.369663698E0,-6.292899251E-1,-3.984517753E-1,-5.555967093E-1
3.372037396E0,-6.390637755E-1,-3.410305083E-1,-5.397142172E-1
3.374410260E0,-6.415072083E-1,-2.860526741E-1,-5.299403667E-1
3.376782292E0,-6.463941336E-1,-2.322965860E-1,-5.250534415E-1
3.379155260E0,-6.500593424E-1,-1.834274083E-1,-5.250534415E-1
3.381528906E0,-6.549462676E-1,-1.357799470E-1,-5.250534415E-1
3.383901771E0,-6.598331332E-1,-9.546288848E-2,-5.274969339E-1
3.386273854E0,-6.683852673E-1,-5.636754259E-2,-5.287186503E-1
3.388646771E0,-6.769373417E-1,-2.460257709E-2,-5.299403667E-1
3.391020417E0,-6.903764009E-1,7.162388414E-3,-5.287186503E-1
3.393393333E0,-7.087023258E-1,3.770562634E-2,-5.274969339E-1
3.395765365E0,-7.282500267E-1,6.214021519E-2,-5.262752175E-1
3.398138281E0,-7.490193844E-1,8.657480031E-2,-5.238317251E-1
3.400511979E0,-7.734540105E-1,1.061224714E-1,-5.201665759E-1
3.402884844E0,-7.930016518E-1,1.220049486E-1,-5.189447999E-1
3.405256875E0,-8.101058602E-1,1.317787915E-1,-5.177230835E-1
3.407629844E0,-8.247666359E-1,1.354439855E-1,-5.177230835E-1
3.410003490E0,-8.333187103E-1,1.305570602E-1,-5.177230835E-1
3.412376354E0,-8.406491280E-1,1.171180308E-1,-5.152796507E-1
3.414748438E0,-8.455360532E-1,9.634863585E-2,-5.140579343E-1
3.417121354E0,-8.479794860E-1,6.580540538E-2,-5.079492331E-1
3.419495000E0,-8.492012024E-1,2.915352024E-2,-4.993971884E-1
3.421867917E0,-8.492012024E-1,-1.727220044E-2,-4.884016216E-1
3.424239948E0,-8.516446948E-1,-6.736310571E-2,-4.761843383E-1
3.426612865E0,-8.553098440E-1,-1.223409325E-1,-4.603018463E-1
3.428986563E0,-8.565316200E-1,-1.785404831E-1,-4.431976378E-1
3.431359427E0,-8.601967692E-1,-2.335183173E-1,-4.248716831E-1
3.433731458E0,-8.626402617E-1,-2.848309577E-1,-4.041022956E-1
3.436104427E0,-8.663054109E-1,-3.324784040E-1,-3.796676993E-1
3.438478073E0,-8.711923361E-1,-3.850127757E-1,-3.588983119E-1
3.440850938E0,-8.797444701E-1,-4.338819385E-1,-3.417940736E-1
3.443223021E0,-8.895183206E-1,-4.729772806E-1,-3.246898651E-1
3.445595938E0,-8.980703950E-1,-5.010770559E-1,-3.014770150E-1
3.447969583E0,-9.090659618E-1,-5.365071893E-1,-2.855945230E-1
3.450342448E0,-9.225049615E-1,-5.707156658E-1,-2.684903145E-1
3.452714531E0,-9.335005283E-1,-5.975936651E-1,-2.526078224E-1
3.455087448E0,-9.518264532E-1,-6.208065152E-1,-2.293949723E-1
3.457461094E0,-9.640437365E-1,-6.452411413E-1,-2.098473012E-1
3.459834010E0,-9.738175869E-1,-6.708974242E-1,-1.939648241E-1
3.462206042E0,-9.811480045E-1,-6.941103339E-1,-1.768606156E-1
3.464579010E0,-9.835914373E-1,-7.148796916E-1,-1.560912132E-1
3.466952656E0,-9.823697805E-1,-7.368708253E-1,-1.426521838E-1
3.469325521E0,-9.774827957E-1,-7.588619590E-1,-1.304348856E-1
3.471697604E0,-9.664872885E-1,-7.771878839E-1,-1.157741323E-1
3.474070521E0,-9.506047964E-1,-7.930703759E-1,-9.744819254E-2
3.476444167E0,-9.347223043E-1,-8.089528680E-1,-7.790052146E-2
3.478817031E0,-9.127311707E-1,-8.297222853E-1,-6.201804429E-2
3.481189115E0,-8.895183206E-1,-8.492699265E-1,-4.491382837E-2
3.483562031E0,-8.626402617E-1,-8.688176274E-1,-2.780961618E-2
3.485935677E0,-8.333187103E-1,-8.871435523E-1,-7.040216122E-3
3.488308594E0,-8.027755022E-1,-9.115781784E-1,1.372918487E-2
3.490680625E0,-7.685670853E-1,-9.372344613E-1,3.327685595E-2
3.493053542E0,-7.331369519E-1,-9.653342366E-1,5.038106441E-2
3.495427240E0,-6.989284754E-1,-9.922122955E-1,6.992874295E-2
3.497800104E0,-6.634983420E-1,-1.017868519E0,9.069814533E-2
3.500172188E0,-6.292899251E-1,-1.043524861E0,1.090240851E-1
3.502545104E0,-5.938597918E-1,-1.071624637E0,1.273500174E-1
3.504918750E0,-5.608730912E-1,-1.098502755E0,1.444542408E-1
3.507291615E0,-5.291081071E-1,-1.120493770E0,1.615584493E-1
3.509663698E0,-5.058952570E-1,-1.137598038E0,1.798843890E-1
3.512036615E0,-4.814606607E-1,-1.154702306E0,1.945451349E-1
3.514410260E0,-4.631347358E-1,-1.171806455E0,2.055407017E-1
3.516783177E0,-4.496957362E-1,-1.184023738E0,2.165362686E-1
3.519155208E0,-4.423653185E-1,-1.193797588E0,2.263101041E-1
3.521528177E0,-4.362566769E-1,-1.202349663E0,2.360839397E-1
3.523901823E0,-4.338132441E-1,-1.212123513E0,2.446360290E-1
3.526274688E0,-4.325914681E-1,-1.219453931E0,2.531881630E-1
3.528646771E0,-4.301480353E-1,-1.220675588E0,2.568533421E-1
3.531019688E0,-4.325914681E-1,-1.218232155E0,2.641837299E-1
3.533393333E0,-4.325914681E-1,-1.210901856E0,2.727358341E-1
3.535766198E0,-4.301480353E-1,-1.214566946E0,2.800661922E-1
3.538138281E0,-4.264828265E-1,-1.232892990E0,2.849531174E-1
3.540511198E0,-4.215959609E-1,-1.247553706E0,2.849531174E-1
3.542884844E0,-4.142655432E-1,-1.254884124E0,2.825096548E-1
3.545257760E0,-4.069351852E-1,-1.257327557E0,2.776227295E-1
3.547629792E0,-3.996048272E-1,-1.257327557E0,2.727358341E-1
3.550002760E0,-3.922744095E-1,-1.257327557E0,2.690706253E-1
3.552376406E0,-3.837223351E-1,-1.259770989E0,2.654054463E-1
3.554749271E0,-3.715050519E-1,-1.262214422E0,2.605185211E-1
3.557121302E0,-3.568442762E-1,-1.260992765E0,2.580750585E-1
3.559494271E0,-3.409617841E-1,-1.260992765E0,2.531881630E-1
3.561867917E0,-3.263010085E-1,-1.258549213E0,2.470794916E-1
3.564240781E0,-3.104185760E-1,-1.252440572E0,2.397491336E-1
3.566612865E0,-2.920925915E-1,-1.243888497E0,2.324187458E-1
3.568985781E0,-2.786535919E-1,-1.225562572E0,2.250883728E-1
3.571359427E0,-2.627710998E-1,-1.209680080E0,2.214231938E-1
3.573732344E0,-2.505538166E-1,-1.193797588E0,2.202014625E-1
3.576104375E0,-2.407799661E-1,-1.170584679E0,2.177579999E-1
3.578477344E0,-2.322278619E-1,-1.143706679E0,2.177579999E-1
3.580850990E0,-2.236757576E-1,-1.118050337E0,2.226449251E-1
3.583223854E0,-2.175670862E-1,-1.085063696E0,2.238666415E-1
3.585595885E0,-2.114584446E-1,-1.056963921E0,2.177579999E-1
3.587968854E0,-2.053498030E-1,-1.026420712E0,2.104276270E-1
3.590342500E0,-2.029063404E-1,-9.848819375E-1,2.055407017E-1
3.592715365E0,-1.992411613E-1,-9.372344613E-1,2.043189704E-1
3.595087448E0,-1.906890571E-1,-8.993608356E-1,2.092058957E-1
3.597460365E0,-1.784717590E-1,-8.651524186E-1,2.116493583E-1
3.599834010E0,-1.650327295E-1,-8.407178521E-1,2.140928060E-1
3.602206927E0,-1.467067897E-1,-8.138397932E-1,2.153145373E-1
3.604578958E0,-1.222722158E-1,-7.930703759E-1,2.116493583E-1
3.606951875E0,-9.539415687E-2,-7.845183015E-1,2.079841644E-1
3.609325521E0,-6.607265770E-2,-7.881834507E-1,1.957668662E-1
3.611698438E0,-3.552941978E-2,-7.942921519E-1,1.786626577E-1
3.614070469E0,-8.651368320E-3,-8.028442264E-1,1.591149867E-1
3.616443438E0,1.578321680E-2,-8.101745844E-1,1.444542408E-1
3.618817083E0,3.533088788E-2,-8.077311516E-1,1.346803904E-1
3.621189948E0,4.876991361E-2,-7.942921519E-1,1.261282861E-1
3.623562031E0,5.610028654E-2,-7.735227346E-1,1.200196519E-1
3.625934948E0,5.732201785E-2,-7.454229593E-1,1.126892790E-1
3.628308594E0,5.487855896E-2,-7.246535420E-1,1.065806299E-1
3.630681510E0,4.876991361E-2,-7.099927664E-1,1.029154435E-1
3.633053542E0,4.143953323E-2,-6.977754831E-1,9.925024956E-2
3.635426458E0,3.533088788E-2,-6.892234087E-1,9.680679440E-2
3.637800104E0,2.677878179E-2,-6.757843494E-1,9.069814533E-2
3.640173021E0,1.578321680E-2,-6.562367082E-1,8.458949625E-2
3.642545052E0,3.565922379E-3,-6.427976489E-1,7.970257849E-2
3.644918021E0,-4.986181855E-3,-6.342455745E-1,7.481566072E-2
3.647291667E0,-1.598174870E-2,-6.366890073E-1,6.870701164E-2
3.649664531E0,-2.209039778E-2,-6.452411413E-1,6.504182518E-2
3.652036615E0,-3.308596462E-2,-6.513497829E-1,6.137663499E-2
3.654409531E0,-4.408152401E-2,-6.611236334E-1,5.893317237E-2
3.656783177E0,-6.118573993E-2,-6.684539914E-1,5.526798218E-2
3.659156042E0,-7.828994840E-2,-6.745626330E-1,4.671587795E-2
3.661528125E0,-9.783761948E-2,-6.757843494E-1,3.694204241E-2
3.663901042E0,-1.222722158E-1,-6.733409166E-1,2.594647929E-2
3.666274688E0,-1.442633271E-1,-6.660105586E-1,1.128572598E-2
3.668647604E0,-1.674761921E-1,-6.537932158E-1,-5.818486679E-3
3.671019635E0,-1.870238632E-1,-6.354672909E-1,-2.414442971E-2
3.673392552E0,-2.053498030E-1,-6.146978736E-1,-4.857901856E-2
3.675766250E0,-2.224540114E-1,-5.890415907E-1,-7.301359624E-2
3.678139115E0,-2.358930409E-1,-5.633852482E-1,-1.023351029E-1
3.680511198E0,-2.505538166E-1,-5.328420401E-1,-1.304348856E-1
3.682884115E0,-2.578841746E-1,-5.022987723E-1,-1.621998549E-1
3.685257760E0,-2.664363086E-1,-4.668686390E-1,-1.927430928E-1
3.687630625E0,-2.701014578E-1,-4.302167594E-1,-2.245080620E-1
3.690002708E0,-2.749883831E-1,-3.935648799E-1,-2.538295686E-1
3.692375625E0,-2.713232338E-1,-3.605781794E-1,-2.831510603E-1
3.694749271E0,-2.701014578E-1,-3.300349414E-1,-3.136942983E-1
3.697122188E0,-2.664363086E-1,-3.019351661E-1,-3.430158198E-1
3.699494219E0,-2.615493834E-1,-2.750571072E-1,-3.698938489E-1
3.701867135E0,-2.554407418E-1,-2.518442571E-1,-3.979936540E-1
3.704240833E0,-2.505538166E-1,-2.322965860E-1,-4.236499667E-1
3.706613698E0,-2.444451451E-1,-2.151923776E-1,-4.517497420E-1
3.708985729E0,-2.395582199E-1,-1.993098855E-1,-4.725191295E-1
3.711358698E0,-2.358930409E-1,-1.858708560E-1,-4.945102632E-1
3.713732344E0,-2.310061157E-1,-1.760970354E-1,-5.140579343E-1
3.716105208E0,-2.248974741E-1,-1.687666476E-1,-5.311621428E-1
3.718477292E0,-2.212322950E-1,-1.626580060E-1,-5.482663512E-1
3.720850208E0,-2.151236534E-1,-1.626580060E-1,-5.641488433E-1
3.723223854E0,-2.114584446E-1,-1.638797373E-1,-5.751443505E-1
3.725596771E0,-2.029063404E-1,-1.663231850E-1,-5.873616934E-1
3.727968802E0,-1.955759823E-1,-1.675449163E-1,-5.946920514E-1
3.730341719E0,-1.870238632E-1,-1.748753041E-1,-5.995789766E-1
3.732715417E0,-1.784717590E-1,-1.822056770E-1,-6.008006930E-1
3.735088281E0,-1.686979234E-1,-1.907577813E-1,-5.983572602E-1
3.737460313E0,-1.564806253E-1,-2.017533481E-1,-5.910268426E-1
3.739833281E0,-1.418198794E-1,-2.127489150E-1,-5.800312757E-1
3.742206927E0,-1.259373873E-1,-2.225227505E-1,-5.653705597E-1
3.744579792E0,-1.088331863E-1,-2.298531234E-1,-5.446011424E-1
3.746951875E0,-9.172897786E-2,-2.335183173E-1,-5.201665759E-1
3.749324792E0,-7.218130678E-2,-2.371834964E-1,-4.920668006E-1
3.751698438E0,-5.141190439E-2,-2.371834964E-1,-4.627453089E-1
3.754071354E0,-2.942077070E-2,-2.347400486E-1,-4.297586083E-1
3.756443385E0,-2.542726696E-3,-2.274096608E-1,-3.943284452E-1
3.758816302E0,2.433532476E-2,-2.176358253E-1,-3.588983119E-1
3.761189948E0,5.121336877E-2,-2.029750794E-1,-3.222464025E-1
3.763562865E0,8.175660670E-2,-1.870925874E-1,-2.855945230E-1
3.765934896E0,1.122998446E-1,-1.699883789E-1,-2.489426434E-1
3.768307865E0,1.440648139E-1,-1.516624391E-1,-2.122907639E-1
3.770681510E0,1.782732457E-1,-1.260061115E-1,-1.793040633E-1
3.773054375E0,2.100382000E-1,-1.015715301E-1,-1.463173777E-1
3.775426458E0,2.430249006E-1,-7.591521740E-2,-1.133306697E-1
3.777799375E0,2.723464072E-1,-5.025889352E-2,-8.034397662E-2
3.780173021E0,3.028896153E-1,-2.093738876E-2,-4.735729098E-2
3.782545885E0,3.297676742E-1,8.384117857E-3,-1.681405120E-2
3.784917969E0,3.554240167E-1,3.526217118E-2,1.250745356E-2
3.787290885E0,3.737499416E-1,5.969676003E-2,3.816377372E-2
3.789664531E0,3.896324337E-1,7.802269608E-2,6.259837002E-2
3.792037448E0,3.932975829E-1,8.535307646E-2,8.581122756E-2
3.794409479E0,3.908541501E-1,8.779653162E-2,1.090240851E-1
3.796782448E0,3.810802996E-1,8.901826292E-2,1.310152113E-1
3.799156094E0,3.713064492E-1,9.512691200E-2,1.517846137E-1
3.801528958E0,3.590891659E-1,1.049007475E-1,1.701105535E-1
3.803900990E0,3.432066739E-1,1.195614934E-1,1.859930307E-1
3.806273958E0,3.285459578E-1,1.354439855E-1,1.982103288E-1
3.808647604E0,3.126634657E-1,1.537699252E-1,2.043189704E-1
3.811020469E0,3.016678989E-1,1.745393276E-1,2.092058957E-1
3.813392552E0,2.894506156E-1,1.916435361E-1,2.116493583E-1
3.815765469E0,2.747898400E-1,2.099694759E-1,2.153145373E-1
3.818139115E0,2.601290941E-1,2.258519530E-1,2.165362686E-1
3.820512031E0,2.442466319E-1,2.392909825E-1,2.153145373E-1
3.822884063E0,2.283641398E-1,2.490648180E-1,2.177579999E-1
3.825256979E0,2.100382000E-1,2.600603700E-1,2.202014625E-1
3.827630677E0,1.904905289E-1,2.686125040E-1,2.287535667E-1
3.830003542E0,1.733863205E-1,2.698342204E-1,2.360839397E-1
3.832375573E0,1.550603807E-1,2.734993994E-1,2.385274023E-1
3.834748542E0,1.379561722E-1,2.783863246E-1,2.385274023E-1
3.837122188E0,1.159650311E-1,2.857167125E-1,2.385274023E-1
3.839495052E0,9.519562870E-2,2.893818915E-1,2.336404771E-1
3.841867135E0,6.953931600E-2,2.967122793E-1,2.299752980E-1
3.844240052E0,4.510472342E-2,3.052643836E-1,2.250883728E-1
3.846613698E0,1.944840699E-2,3.162599504E-1,2.238666415E-1
3.848986615E0,-2.542726696E-3,3.296989501E-1,2.189797312E-1
3.851358646E0,-2.575558424E-2,3.455814421E-1,2.177579999E-1
3.853731563E0,-4.652498662E-2,3.626856506E-1,2.140928060E-1
3.856105260E0,-6.851611286E-2,3.822333217E-1,2.079841644E-1
3.858478125E0,-8.439860493E-2,4.030027390E-1,2.030972540E-1
3.860850156E0,-1.002810821E-1,4.188852012E-1,2.018755227E-1
3.863223125E0,-1.149418280E-1,4.372111559E-1,1.994320601E-1
3.865596771E0,-1.259373873E-1,4.543153644E-1,1.994320601E-1
3.867969635E0,-1.283808500E-1,4.726413190E-1,1.994320601E-1
3.870341719E0,-1.271591187E-1,4.970759153E-1,1.982103288E-1
3.872714635E0,-1.186070219E-1,5.202887654E-1,1.982103288E-1
3.875088281E0,-1.027245447E-1,5.398364067E-1,1.957668662E-1
3.877461146E0,-8.195514232E-2,5.569406152E-1,1.945451349E-1
3.879833229E0,-5.874227732E-2,5.728231072E-1,1.945451349E-1
3.882206146E0,-2.942077070E-2,5.850403905E-1,1.969885975E-1
3.884579792E0,-9.926402709E-5,5.972577333E-1,1.994320601E-1
3.886952708E0,3.044397011E-2,6.094750166E-1,2.055407017E-1
3.889324740E0,5.732201785E-2,6.204705834E-1,2.140928060E-1
3.891697708E0,8.420006186E-2,6.278009415E-1,2.202014625E-1
3.894071354E0,1.074129269E-1,6.326878667E-1,2.324187458E-1
3.896444219E0,1.281823367E-1,6.339095831E-1,2.446360290E-1
3.898816302E0,1.440648139E-1,6.326878667E-1,2.556316257E-1
3.901189219E0,1.562821120E-1,6.290226579E-1,2.702923715E-1
3.903562865E0,1.599472910E-1,6.229140162E-1,2.837314010E-1
3.905935729E0,1.611690372E-1,6.143619418E-1,2.996138632E-1
3.908307813E0,1.562821120E-1,6.021445990E-1,3.130528927E-1
3.910680729E0,1.489517242E-1,5.850403905E-1,3.289353848E-1
3.913054375E0,1.379561722E-1,5.630492568E-1,3.435961306E-1
3.915427292E0,1.269606054E-1,5.361712575E-1,3.619220853E-1
3.917799323E0,1.171867624E-1,5.056279898E-1,3.790262938E-1
3.920172240E0,1.086346582E-1,4.689761102E-1,3.961305022E-1
3.922545938E0,1.074129269E-1,4.274373055E-1,4.095695317E-1
3.924918802E0,1.110781133E-1,3.846767843E-1,4.193433523E-1
3.927290833E0,1.171867624E-1,3.394728005E-1,4.291172028E-1
3.929663802E0,1.232954040E-1,2.918253541E-1,4.340040982E-1
3.932037448E0,1.367344409E-1,2.466213852E-1,4.340040982E-1
3.934410313E0,1.465082765E-1,2.038608342E-1,4.327823818E-1
3.936782396E0,1.562821120E-1,1.684306711E-1,4.291172028E-1
3.939155313E0,1.623907536E-1,1.342222542E-1,4.217868149E-1
3.941528958E0,1.660559475E-1,1.110093892E-1,4.132347107E-1
3.943901823E0,1.636124849E-1,9.512691200E-2,4.034608901E-1
3.946273906E0,1.526169181E-1,8.901826292E-2,3.900218606E-1
3.948646823E0,1.403996199E-1,9.390518069E-2,3.716959059E-1
3.951020469E0,1.208519489E-1,1.122311205E-1,3.533699811E-1
3.953393385E0,1.013042778E-1,1.378874332E-1,3.326005638E-1
3.955765417E0,8.053487539E-2,1.684306711E-1,3.093877137E-1
3.958138385E0,5.854374915E-2,2.050825655E-1,2.849531174E-1
3.960512031E0,3.899607807E-2,2.478431016E-1,2.531881630E-1
3.962884896E0,1.822667569E-2,2.979339957E-1,2.214231938E-1
3.965256979E0,-9.926402709E-5,3.492466211E-1,1.884364933E-1
3.967629896E0,-1.476001740E-2,4.030027390E-1,1.517846137E-1
3.970003542E0,-2.942077070E-2,4.592022896E-1,1.151327342E-1
3.972376406E0,-4.163806885E-2,5.105149150E-1,7.115047425E-2
3.974748490E0,-4.896844178E-2,5.593841076E-1,2.838993818E-2
3.977121406E0,-5.629882216E-2,6.033663750E-1,-1.559232175E-2
3.979495052E0,-6.240747124E-2,6.436834335E-1,-6.079631299E-2
3.981867969E0,-6.973784417E-2,6.766701341E-1,-1.035568342E-1
3.984240000E0,-7.462475449E-2,7.059916258E-1,-1.450956464E-1
3.986612917E0,-8.195514232E-2,7.279827595E-1,-1.841909885E-1
3.988986563E0,-8.806378394E-2,7.463086843E-1,-2.220645994E-1
3.991359479E0,-1.002810821E-1,7.609694600E-1,-2.538295686E-1
3.993731510E0,-1.112766489E-1,7.695215344E-1,-2.831510603E-1
3.996104479E0,-1.210504845E-1,7.805171013E-1,-3.075856566E-1
3.998478125E0,-1.332677603E-1,7.854040265E-1,-3.283550739E-1
4.000850990E0,-1.430416107E-1,7.890692353E-1,-3.454592824E-1
4.003223073E0,-1.515937150E-1,7.878475189E-1,-3.564548492E-1
4.005595990E0,-1.577023566E-1,7.866258025E-1,-3.650069535E-1
4.007969635E0,-1.589240879E-1,7.805171013E-1,-3.711155951E-1
4.010342552E0,-1.564806253E-1,7.695215344E-1,-3.711155951E-1
4.012714583E0,-1.515937150E-1,7.585259676E-1,-3.686721325E-1
4.015087500E0,-1.418198794E-1,7.450869679E-1,-3.625634909E-1
4.017461146E0,-1.259373873E-1,7.328696847E-1,-3.503461778E-1
4.019834063E0,-1.100549176E-1,7.206524014E-1,-3.369071782E-1
4.022206094E0,-8.684205264E-2,7.072133422E-1,-3.210246861E-1
4.024579063E0,-6.485092640E-2,6.962177753E-1,-3.039204776E-1
4.026952708E0,-4.285980016E-2,6.852222085E-1,-2.831510603E-1
4.029325573E0,-1.598174870E-2,6.778918505E-1,-2.611599267E-1
4.031697656E0,9.674571455E-3,6.754484177E-1,-2.379470766E-1
4.034070573E0,3.655261546E-2,6.742266417E-1,-2.159559578E-1
4.036444219E0,6.220893562E-2,6.730049253E-1,-1.951865554E-1
4.038817083E0,8.908698708E-2,6.730049253E-1,-1.768606156E-1
4.041189167E0,1.147432998E-1,6.754484177E-1,-1.560912132E-1
4.043562083E0,1.367344409E-1,6.778918505E-1,-1.341000795E-1
4.045935729E0,1.623907536E-1,6.815570593E-1,-1.133306697E-1
4.048308646E0,1.831601560E-1,6.888874173E-1,-9.256126732E-2
4.050680677E0,2.063730210E-1,6.962177753E-1,-7.545705885E-2
4.053053594E0,2.295858711E-1,7.011047006E-1,-5.957458168E-2
4.055427292E0,2.527987063E-1,7.047699094E-1,-4.491382837E-2
4.057800156E0,2.760115862E-1,7.108785510E-1,-3.269653767E-2
4.060172188E0,3.016678989E-1,7.133219838E-1,-2.047923952E-2
4.062545156E0,3.297676742E-1,7.145437598E-1,-8.261945099E-3
4.064918802E0,3.566457331E-1,7.145437598E-1,5.177078303E-3
4.067291667E0,3.847455084E-1,7.121002674E-1,1.739437133E-2
4.069663750E0,4.128452837E-1,7.096568346E-1,3.083339706E-2
4.072036667E0,4.433884919E-1,7.035481930E-1,4.427241907E-2
4.074410313E0,4.702665508E-1,6.986612678E-1,6.015490368E-2
4.076783177E0,4.995880425E-1,6.974395514E-1,7.359393686E-2
4.079155260E0,5.276878476E-1,6.962177753E-1,8.703295887E-2
4.081528177E0,5.557876229E-1,6.937743425E-1,1.004719809E-1
4.083901823E0,5.851091146E-1,6.913308501E-1,1.163544655E-1
4.086274740E0,6.095437407E-1,6.901091337E-1,1.334586740E-1
4.088646771E0,6.339783072E-1,6.901091337E-1,1.468976885E-1
4.091019740E0,6.535260081E-1,6.925526261E-1,1.627801806E-1
4.093393385E0,6.742953658E-1,6.949960589E-1,1.774409264E-1
4.095766250E0,6.889561415E-1,6.998829842E-1,1.921016872E-1
4.098138333E0,7.036169171E-1,7.084351182E-1,2.043189704E-1
4.100511250E0,7.121689916E-1,7.169871926E-1,2.165362686E-1
4.102884896E0,7.207211256E-1,7.267610431E-1,2.287535667E-1
4.105257760E0,7.292732000E-1,7.377566099E-1,2.385274023E-1
4.107629844E0,7.317166924E-1,7.524173260E-1,2.507447004E-1
4.110002760E0,7.292732000E-1,7.670781016E-1,2.617402673E-1
4.112376406E0,7.256080508E-1,7.841823101E-1,2.727358341E-1
4.114749323E0,7.207211256E-1,8.012865186E-1,2.861748636E-1
4.117121354E0,7.133907080E-1,8.183907270E-1,3.008356094E-1
4.119494271E0,6.999517083E-1,8.379384279E-1,3.142746389E-1
4.121867969E0,6.865127087E-1,8.587077856E-1,3.313788474E-1
4.124240833E0,6.742953658E-1,8.806989193E-1,3.472613096E-1
4.126612865E0,6.596346498E-1,9.002466202E-1,3.631438017E-1
4.128985833E0,6.461955905E-1,9.222377539E-1,3.802480102E-1
4.131359479E0,6.315348744E-1,9.442288876E-1,3.997956812E-1
4.133732344E0,6.193175912E-1,9.674417377E-1,4.144564271E-1
4.136104427E0,6.083220243E-1,9.857676625E-1,4.315606654E-1
4.138477344E0,5.936612487E-1,1.004093647E0,4.486648738E-1
4.140850990E0,5.838873982E-1,1.022419572E0,4.657690823E-1
4.143223854E0,5.728918314E-1,1.033415198E0,4.828732908E-1
4.145595938E0,5.606745481E-1,1.043189049E0,4.950905740E-1
4.147968854E0,5.472355485E-1,1.057849765E0,5.085296631E-1
4.150342500E0,5.350182652E-1,1.076175690E0,5.280773044E-1
4.152715417E0,5.215792060E-1,1.093279958E0,5.512901545E-1
4.155087448E0,5.118054152E-1,1.104275465E0,5.696161389E-1
4.157460417E0,4.971446097E-1,1.107940674E0,5.769464970E-1
4.159834063E0,4.837056100E-1,1.120157957E0,5.879420638E-1
4.162206927E0,4.727100432E-1,1.133597016E0,6.074897051E-1
4.164579010E0,4.629361928E-1,1.133597016E0,6.282591224E-1
4.166951927E0,4.543840587E-1,1.121379733E0,6.429198980E-1
4.169325573E0,4.433884919E-1,1.107940674E0,6.478068233E-1
4.171698438E0,4.323929250E-1,1.100610256E0,6.649110317E-1
4.174070521E0,4.250625670E-1,1.090836406E0,6.844586730E-1
4.176443438E0,4.177322090E-1,1.067623615E0,6.991194487E-1
4.178817083E0,4.079583585E-1,1.035858631E0,7.015628815E-1
4.181190000E0,3.969627917E-1,1.015089273E0,7.064498067E-1
4.183562031E0,3.896324337E-1,9.967632890E-1,7.211105824E-1
4.185935000E0,3.798585832E-1,9.747720957E-1,7.321061492E-1
4.188308646E0,3.725282252E-1,9.478940368E-1,7.382147908E-1
4.190681510E0,3.639760911E-1,9.210160375E-1,7.272192240E-1
4.193053542E0,3.529805243E-1,9.124639034E-1,7.235540152E-1
4.195426510E0,3.444284499E-1,9.100204706E-1,7.272192240E-1
4.197800156E0,3.383198082E-1,8.978031278E-1,7.223322988E-1
4.200173021E0,3.322111070E-1,8.929162621E-1,7.137801647E-1
4.202545104E0,3.285459578E-1,8.880293369E-1,7.125584483E-1
4.204918021E0,3.212155402E-1,8.794772029E-1,7.150019407E-1
4.207291667E0,3.163286746E-1,8.709251285E-1,7.125584483E-1
4.209664583E0,3.102200329E-1,8.574860692E-1,7.052280903E-1
4.212036615E0,3.004461825E-1,8.440470695E-1,6.807934642E-1
4.214409531E0,2.906723320E-1,8.599295616E-1,6.685761809E-1
4.216783229E0,2.882288694E-1,8.758119941E-1,6.661327481E-1
4.219156094E0,2.870071232E-1,8.806989193E-1,6.649110317E-1
4.221528125E0,2.894506156E-1,8.770337701E-1,6.624675393E-1
4.223901094E0,2.894506156E-1,8.684816360E-1,6.588023305E-1
4.226274740E0,2.918940485E-1,8.525991440E-1,6.514719725E-1
4.228647604E0,2.906723320E-1,8.281645775E-1,6.343677640E-1
4.231019688E0,2.943375409E-1,8.061734438E-1,6.087114215E-1
4.233392604E0,3.004461825E-1,7.951778769E-1,6.038245559E-1
4.235766250E0,3.102200329E-1,7.621911764E-1,6.026027799E-1
4.238139115E0,3.224373162E-1,7.108785510E-1,5.989376307E-1
4.240511198E0,3.358763158E-1,6.522355080E-1,5.940507054E-1
4.242884115E0,3.505370915E-1,5.911490321E-1,5.830551386E-1
4.245257760E0,3.639760911E-1,5.337277651E-1,5.696161389E-1
4.247630677E0,3.761933744E-1,4.750847518E-1,5.549553633E-1
4.250002708E0,3.859672248E-1,4.201069474E-1,5.378511548E-1
4.252375677E0,3.957410753E-1,3.577987254E-1,5.109730959E-1
4.254749323E0,4.042931497E-1,3.015991747E-1,4.816515744E-1
4.257122188E0,4.177322090E-1,2.551734746E-1,4.645473361E-1
4.259494219E0,4.299494922E-1,2.014173716E-1,4.498865902E-1
4.261867188E0,4.458319843E-1,1.452178210E-1,4.315606654E-1
4.264240833E0,4.641579092E-1,9.512691200E-2,4.168998897E-1
4.266613698E0,4.800404012E-1,5.236637965E-2,3.973522186E-1
4.268985781E0,5.008098483E-1,1.571449451E-2,3.790262938E-1
4.271358698E0,5.228009820E-1,-1.727220044E-2,3.545916975E-1
4.273732344E0,5.472355485E-1,-4.781543091E-2,3.203832805E-1
4.276105260E0,5.741136074E-1,-7.102829963E-2,2.873965800E-1
4.278477292E0,6.022133827E-1,-9.546288848E-2,2.617402673E-1
4.280850208E0,6.266479492E-1,-1.308930367E-1,2.336404771E-1
4.283223854E0,6.498607993E-1,-1.712101102E-1,2.018755227E-1
4.285596771E0,6.657432914E-1,-2.139706463E-1,1.688888222E-1
4.287968802E0,6.755171418E-1,-2.567311823E-1,1.285717487E-1
4.290341771E0,6.791822910E-1,-2.860526741E-1,8.703295887E-2
4.292715417E0,6.742953658E-1,-3.080438077E-1,3.816377372E-2
4.295088281E0,6.669650078E-1,-3.104872704E-1,-1.925751008E-2
4.297460365E0,6.523042917E-1,-2.958265245E-1,-7.057014108E-2
4.299833281E0,6.339783072E-1,-2.787222862E-1,-1.218827739E-1
4.302206927E0,6.107654572E-1,-2.836092114E-1,-1.744171530E-1
4.304579792E0,5.838873982E-1,-2.909395993E-1,-2.281732410E-1
4.306951875E0,5.533441901E-1,-2.994917035E-1,-2.904814482E-1
4.309324792E0,5.179140568E-1,-3.019351661E-1,-3.637852073E-1
4.311698438E0,4.775969088E-1,-2.970482409E-1,-4.187630415E-1
4.314071354E0,4.360581338E-1,-2.970482409E-1,-4.712974131E-1
4.316443385E0,3.908541501E-1,-3.043786287E-1,-5.226100087E-1
4.318816302E0,3.395415246E-1,-3.104872704E-1,-5.836964846E-1
4.321190000E0,2.857854068E-1,-2.970482409E-1,-6.325656772E-1
4.323562865E0,2.259206921E-1,-2.775005698E-1,-6.728827357E-1
4.325934896E0,1.636124849E-1,-2.579528987E-1,-7.119780779E-1
4.328307865E0,9.641736001E-2,-2.322965860E-1,-7.559603453E-1
4.330681510E0,2.555705234E-2,-1.980881542E-1,-7.974991202E-1
4.333054375E0,-4.774671048E-2,-1.589928120E-1,-8.414813876E-1
4.335426458E0,-1.222722158E-1,-1.137888283E-1,-8.854636550E-1
4.337799375E0,-1.931325197E-1,-6.736310571E-2,-9.318893552E-1
4.340173021E0,-2.603276670E-1,-1.605047099E-2,-9.795368314E-1
4.342545885E0,-3.287445009E-1,3.892735764E-2,-1.013745308E0
4.344917969E0,-3.873874843E-1,8.657480031E-2,-1.038179874E0
4.347290885E0,-4.387001693E-1,1.317787915E-1,-1.050397158E0
4.349664531E0,-4.814606607E-1,1.757610440E-1,-1.051618934E0
4.352037448E0,-5.242211819E-1,2.124129385E-1,-1.045510292E0
4.354409479E0,-5.608730912E-1,2.490648180E-1,-1.032071233E0
4.356782448E0,-5.950815082E-1,2.796080410E-1,-1.013745308E0
4.359156094E0,-6.268464327E-1,3.089295626E-1,-9.905323982E-1
4.361528958E0,-6.610549092E-1,3.358076215E-1,-9.660977721E-1
4.363901042E0,-6.879329085E-1,3.639073968E-1,-9.392197728E-1
4.366273958E0,-7.148109674E-1,3.895637095E-1,-9.111199975E-1
4.368647604E0,-7.453542352E-1,4.127765596E-1,-8.793550134E-1
4.371020469E0,-7.746757269E-1,4.335459769E-1,-8.475900292E-1
4.373392552E0,-8.039972186E-1,4.518719018E-1,-8.158251047E-1
4.375765469E0,-8.320969939E-1,4.701978564E-1,-7.828384042E-1
4.378139115E0,-8.577533364E-1,4.799716771E-1,-7.474082112E-1
4.380512031E0,-8.821879029E-1,4.824151397E-1,-7.107563615E-1
4.382884063E0,-8.992921114E-1,4.799716771E-1,-6.728827357E-1
4.385256979E0,-9.115093946E-1,4.701978564E-1,-6.325656772E-1
4.387630677E0,-9.212832451E-1,4.494284391E-1,-5.873616934E-1
4.390003542E0,-9.176180959E-1,4.213286638E-1,-5.336055756E-1
4.392375573E0,-9.151746035E-1,3.932288885E-1,-4.810712337E-1
4.394748542E0,-9.090659618E-1,3.663508296E-1,-4.322020710E-1
4.397122188E0,-9.054007530E-1,3.382510543E-1,-3.906632662E-1
4.399495052E0,-9.041790366E-1,3.101512790E-1,-3.527896404E-1
4.401867135E0,-9.029573202E-1,2.832732499E-1,-3.222464025E-1
4.404240052E0,-9.066225290E-1,2.588386536E-1,-2.941466272E-1
4.406613698E0,-9.115093946E-1,2.356258035E-1,-2.697120607E-1
4.408986615E0,-9.151746035E-1,2.148563862E-1,-2.477209270E-1
4.411358646E0,-9.249484539E-1,1.953087151E-1,-2.257297933E-1
4.413731563E0,-9.310570955E-1,1.782045066E-1,-2.061821222E-1
4.416105208E0,-9.432743788E-1,1.598785669E-1,-1.902996302E-1
4.418478125E0,-9.530482292E-1,1.403308958E-1,-1.805257946E-1
4.420850156E0,-9.652655125E-1,1.183397621E-1,-1.707519591E-1
4.423223073E0,-9.750393629E-1,9.268344939E-2,-1.609781235E-1
4.425596771E0,-9.823697805E-1,5.969676003E-2,-1.524260193E-1
4.427969635E0,-9.884784222E-1,2.793178894E-2,-1.450956464E-1
4.430341719E0,-9.921435118E-1,-8.720094338E-3,-1.402087212E-1
4.432714635E0,-9.921435118E-1,-5.148062482E-2,-1.353218108E-1
4.435088281E0,-9.860348701E-1,-9.546288848E-2,-1.292131543E-1
4.437461146E0,-9.787045717E-1,-1.431103349E-1,-1.267697066E-1
4.439833229E0,-9.664872885E-1,-1.944229752E-1,-1.218827739E-1
4.442206146E0,-9.554916620E-1,-2.494007945E-1,-1.182175875E-1
4.444579792E0,-9.396091700E-1,-3.068220913E-1,-1.157741323E-1
4.446952708E0,-9.200615287E-1,-3.666868210E-1,-1.133306697E-1
4.449324740E0,-8.980703950E-1,-4.289950132E-1,-1.084437519E-1
4.451697656E0,-8.748575449E-1,-4.925249517E-1,-1.047785655E-1
4.454071302E0,-8.467577696E-1,-5.572766066E-1,-9.866991639E-2
4.456444219E0,-8.137710690E-1,-6.208065152E-1,-9.011781216E-2
4.458816250E0,-7.795626521E-1,-6.843364835E-1,-8.278743178E-2
4.461189219E0,-7.441325188E-1,-7.527533174E-1,-7.667879015E-2
4.463562865E0,-7.062588930E-1,-8.175050020E-1,-7.057014108E-2
4.465935729E0,-6.696069837E-1,-8.785914779E-1,-6.323976815E-2
4.468307813E0,-6.341768503E-1,-9.372344613E-1,-6.079631299E-2
4.470680729E0,-5.975249410E-1,-9.934340119E-1,-5.713112652E-2
4.473054375E0,-5.669817328E-1,-1.045968294E0,-5.224420875E-2
4.475427240E0,-5.364384651E-1,-1.094837546E0,-4.857901856E-2
4.477799323E0,-5.120038986E-1,-1.137598038E0,-4.491382837E-2
4.480172240E0,-4.900127947E-1,-1.174249887E0,-4.002691060E-2
4.482545885E0,-4.753520191E-1,-1.207236648E0,-3.636172414E-2
4.484918802E0,-4.643564522E-1,-1.234114647E0,-3.391826525E-2
4.487290833E0,-4.533608854E-1,-1.254884124E0,-3.269653767E-2
4.489663750E0,-4.423653185E-1,-1.271988273E0,-2.658788860E-2
4.492037396E0,-4.313697517E-1,-1.281762123E0,-2.536615729E-2
4.494410313E0,-4.203741848E-1,-1.287870765E0,-2.658788860E-2
4.496782344E0,-4.081569016E-1,-1.290314198E0,-2.536615729E-2
4.499155313E0,-3.934961259E-1,-1.286648989E0,-2.292269841E-2
4.501528958E0,-3.788354099E-1,-1.282983899E0,-2.658788860E-2
4.503901823E0,-3.641746342E-1,-1.278096914E0,-3.269653767E-2
4.506273906E0,-3.482921422E-1,-1.269544840E0,-3.758345544E-2
4.508646823E0,-3.311879337E-1,-1.260992765E0,-4.369210079E-2
4.511020469E0,-3.140837252E-1,-1.251218915E0,-4.735729098E-2
4.513393333E0,-2.957578003E-1,-1.247553706E0,-5.346593633E-2
4.515765417E0,-2.774318755E-1,-1.241445065E0,-6.201804429E-2
4.518138333E0,-2.591058910E-1,-1.237779856E0,-6.690496206E-2
4.520511979E0,-2.420016825E-1,-1.230449438E0,-6.934840977E-2
4.522884896E0,-2.224540114E-1,-1.223119140E0,-6.812668592E-2
4.525256927E0,-2.029063404E-1,-1.218232155E0,-6.446149945E-2
4.527629896E0,-1.858021319E-1,-1.209680080E0,-6.201804429E-2
4.530003542E0,-1.662544608E-1,-1.207236648E0,-5.835285410E-2
4.532376406E0,-1.467067897E-1,-1.201128006E0,-5.468766391E-2
4.534748438E0,-1.271591187E-1,-1.195019364E0,-4.980074614E-2
4.537121406E0,-1.076114550E-1,-1.191354156E0,-4.369210079E-2
4.539495052E0,-9.172897786E-2,-1.186467171E0,-3.758345544E-2
4.541867917E0,-7.584648579E-2,-1.179136872E0,-3.147480637E-2
4.544240000E0,-6.485092640E-2,-1.165697813E0,-2.780961618E-2
4.546612917E0,-5.629882216E-2,-1.149815321E0,-2.780961618E-2
4.548986563E0,-5.141190439E-2,-1.135154605E0,-2.903134748E-2
4.551359427E0,-5.019017309E-2,-1.118050337E0,-2.903134748E-2
4.553731510E0,-5.141190439E-2,-1.099724412E0,-3.513999283E-2
4.556104427E0,-5.385535955E-2,-1.081398487E0,-4.124864191E-2
4.558478073E0,-6.240747124E-2,-1.064294219E0,-4.980074614E-2
4.560850990E0,-7.584648579E-2,-1.047190070E0,-6.201804429E-2
4.563223021E0,-9.050724655E-2,-1.027642369E0,-7.423532754E-2
4.565595990E0,-1.076114550E-1,-1.009316444E0,-9.256126732E-2
4.567969635E0,-1.259373873E-1,-9.848819375E-1,-1.072220281E-1
4.570342500E0,-1.479285210E-1,-9.616690874E-1,-1.218827739E-1
4.572714531E0,-1.650327295E-1,-9.384561777E-1,-1.365435421E-1
4.575087500E0,-1.845804006E-1,-9.140216112E-1,-1.548694819E-1
4.577461146E0,-2.041280866E-1,-8.847001195E-1,-1.731954217E-1
4.579834010E0,-2.261192203E-1,-8.480482101E-1,-1.939648241E-1
4.582206094E0,-2.529972494E-1,-8.138397932E-1,-2.159559578E-1
4.584579010E0,-2.762100995E-1,-7.832965851E-1,-2.416122705E-1
4.586952656E0,-3.043099344E-1,-7.515316010E-1,-2.684903145E-1
4.589325521E0,-3.275227845E-1,-7.209883332E-1,-2.965900898E-1
4.591697604E0,-3.470704257E-1,-6.928885579E-1,-3.234681487E-1
4.594070521E0,-3.629529178E-1,-6.672322750E-1,-3.503461778E-1
4.596444219E0,-3.776136935E-1,-6.440194249E-1,-3.760025203E-1
4.598817083E0,-3.910526931E-1,-6.195847988E-1,-4.004370868E-1
4.601189115E0,-4.008265436E-1,-5.927067399E-1,-4.260934293E-1
4.603562083E0,-4.118221104E-1,-5.658287406E-1,-4.480845332E-1
4.605935729E0,-4.228176773E-1,-5.389506817E-1,-4.700756669E-1
4.608308594E0,-4.325914681E-1,-5.120726228E-1,-4.908450842E-1
4.610680677E0,-4.411436021E-1,-4.876380265E-1,-5.079492331E-1
4.613053594E0,-4.509174526E-1,-4.619817138E-1,-5.238317251E-1
4.615427240E0,-4.606913030E-1,-4.375471175E-1,-5.384925008E-1
4.617800104E0,-4.692433774E-1,-4.167777300E-1,-5.494880676E-1
4.620172188E0,-4.753520191E-1,-3.923431337E-1,-5.580401421E-1
4.622545104E0,-4.802389443E-1,-3.691302836E-1,-5.653705597E-1
4.624918750E0,-4.839041531E-1,-3.483608663E-1,-5.702574849E-1
4.627291667E0,-4.839041531E-1,-3.263697624E-1,-5.751443505E-1
4.629663698E0,-4.851258695E-1,-3.056003451E-1,-5.788095593E-1
4.632036615E0,-4.839041531E-1,-2.860526741E-1,-5.800312757E-1
4.634410260E0,-4.826824367E-1,-2.677267492E-1,-5.800312757E-1
4.636783177E0,-4.753520191E-1,-2.542877197E-1,-5.788095593E-1
4.639155208E0,-4.692433774E-1,-2.420704216E-1,-5.763661265E-1
4.641528177E0,-4.606913030E-1,-2.274096608E-1,-5.751443505E-1
4.643901823E0,-4.570260942E-1,-2.151923776E-1,-5.739226341E-1
4.646274688E0,-4.521391690E-1,-2.029750794E-1,-5.727009177E-1
4.648646771E0,-4.472522438E-1,-1.919795126E-1,-5.665922761E-1
4.651019688E0,-4.435870945E-1,-1.834274083E-1,-5.617053509E-1
4.653393333E0,-4.399218857E-1,-1.785404831E-1,-5.531532764E-1
4.655766198E0,-4.350349605E-1,-1.736535728E-1,-5.397142172E-1
4.658138281E0,-4.313697517E-1,-1.736535728E-1,-5.213882923E-1
4.660511198E0,-4.264828265E-1,-1.797622144E-1,-4.981754720E-1
4.662884844E0,-4.215959609E-1,-1.907577813E-1,-4.835146964E-1
4.665257760E0,-4.154872596E-1,-2.017533481E-1,-4.712974131E-1
4.667629792E0,-4.081569016E-1,-2.127489150E-1,-4.566366374E-1
4.670002708E0,-4.020482600E-1,-2.261879295E-1,-4.407541752E-1
4.672376406E0,-3.934961259E-1,-2.408486903E-1,-4.224282205E-1
4.674749271E0,-3.873874843E-1,-2.567311823E-1,-4.041022956E-1
4.677121302E0,-3.763919175E-1,-2.701701820E-1,-3.857763410E-1
4.679494271E0,-3.641746342E-1,-2.836092114E-1,-3.637852073E-1
4.681867917E0,-3.531790674E-1,-2.946047783E-1,-3.405723572E-1
4.684240781E0,-3.434052765E-1,-3.117089868E-1,-3.136942983E-1
4.686612865E0,-3.299662173E-1,-3.300349414E-1,-2.794858813E-1
4.688985781E0,-3.104185760E-1,-3.508043289E-1,-2.599382102E-1
4.691359427E0,-2.896491587E-1,-3.740172088E-1,-2.489426434E-1
4.693732292E0,-2.676580250E-1,-3.947865963E-1,-2.391688079E-1
4.696104375E0,-2.432234287E-1,-4.131125510E-1,-2.281732410E-1
4.698477292E0,-2.175670862E-1,-4.326602221E-1,-2.122907639E-1
4.700850938E0,-1.919107735E-1,-4.522078931E-1,-1.964082867E-1
4.703223854E0,-1.650327295E-1,-4.717555642E-1,-1.793040633E-1
4.705595885E0,-1.357112229E-1,-4.937466979E-1,-1.634215862E-1
4.707968802E0,-1.076114550E-1,-5.169595480E-1,-1.438739151E-1
4.710342500E0,-7.706821710E-2,-5.413941145E-1,-1.255479753E-1
4.712715365E0,-4.530325532E-2,-5.670504570E-1,-1.072220281E-1
4.715087396E0,-9.873099625E-3,-5.927067399E-1,-8.889608085E-2
4.717460365E0,2.677878179E-2,-6.232500076E-1,-7.301359624E-2
4.719834010E0,6.220893562E-2,-6.525714993E-1,-5.590939522E-2
4.722206875E0,9.886082262E-2,-6.843364835E-1,-4.002691060E-2
4.724578958E0,1.367344409E-1,-7.124362588E-1,-2.536615729E-2
4.726951875E0,1.721645892E-1,-7.442012429E-1,-1.070540398E-2
4.729325521E0,2.063730210E-1,-7.759661674E-1,5.177078303E-3
4.731698385E0,2.393597066E-1,-8.065094352E-1,2.838993818E-2
4.734070469E0,2.699029148E-1,-8.394961357E-1,5.526798218E-2
4.736443385E0,3.004461825E-1,-8.724828362E-1,6.748528779E-2
4.738817031E0,3.297676742E-1,-9.005826116E-1,6.870701164E-2
4.741189948E0,3.542022407E-1,-9.237954617E-1,7.115047425E-2
4.743561979E0,3.786368668E-1,-9.457865953E-1,7.359393686E-2
4.745934896E0,4.030714333E-1,-9.665559530E-1,7.603739202E-2
4.748308542E0,4.213973582E-1,-9.873253703E-1,8.092430979E-2
4.750681458E0,4.421667755E-1,-1.008094788E0,8.703295887E-2
4.753053490E0,4.604927003E-1,-1.026420712E0,9.069814533E-2
4.755426458E0,4.775969088E-1,-1.042303085E0,9.436333179E-2
4.757800104E0,4.910359681E-1,-1.058185577E0,9.802851826E-2
4.760172969E0,5.069184899E-1,-1.072846413E0,1.004719809E-1
4.762545052E0,5.215792060E-1,-1.086285353E0,1.016937122E-1
4.764917969E0,5.362399817E-1,-1.097280979E0,1.029154435E-1
4.767291615E0,5.509007573E-1,-1.108276486E0,1.029154435E-1
4.769664479E0,5.655614734E-1,-1.116828680E0,1.041371673E-1
4.772036563E0,5.814439654E-1,-1.121715546E0,1.053588986E-1
4.774409479E0,5.973264575E-1,-1.124158978E0,1.053588986E-1
4.776783125E0,6.119871736E-1,-1.125380754E0,1.065806299E-1
4.779155990E0,6.266479492E-1,-1.121715546E0,1.065806299E-1
4.781528073E0,6.461955905E-1,-1.116828680E0,1.065806299E-1
4.783900990E0,6.645215750E-1,-1.109498262E0,1.065806299E-1
4.786274635E0,6.828474998E-1,-1.099724412E0,1.065806299E-1
4.788647552E0,6.999517083E-1,-1.085063696E0,1.053588986E-1
4.791019583E0,7.182776332E-1,-1.063072562E0,1.041371673E-1
4.793392552E0,7.378253341E-1,-1.037416220E0,1.016937122E-1
4.795766198E0,7.549295425E-1,-1.011759877E0,1.016937122E-1
4.798139063E0,7.720337510E-1,-9.824384451E-1,9.802851826E-2
4.800511146E0,7.915813923E-1,-9.482300282E-1,9.436333179E-2
4.802884063E0,8.086856604E-1,-9.140216112E-1,9.191987664E-2
4.805257708E0,8.245680928E-1,-8.761479855E-1,8.581122756E-2
4.807630573E0,8.367854357E-1,-8.382743597E-1,8.214604110E-2
4.810002656E0,8.477810025E-1,-7.955138683E-1,7.848084718E-2
4.812375573E0,8.538896441E-1,-7.551968098E-1,7.603739202E-2
4.814749219E0,8.563330770E-1,-7.124362588E-1,7.115047425E-2
4.817122135E0,8.587765694E-1,-6.684539914E-1,6.870701164E-2
4.819494167E0,8.551113605E-1,-6.244717240E-1,6.626355648E-2
4.821867083E0,8.502244353E-1,-5.817112327E-1,6.259837002E-2
4.824240729E0,8.428940773E-1,-5.340637565E-1,5.648971349E-2
