"Time (s)","Gyroscope x (rad/s)","Gyroscope y (rad/s)","Gyroscope z (rad/s)"
1.809776100E-2,-5.110986531E-2,-3.706382960E-2,-1.159915924E-1
2.056317700E-2,-5.110986531E-2,-3.706382960E-2,-1.159915924E-1
2.303515700E-2,-5.110986531E-2,-3.706382960E-2,-1.159915924E-1
2.551083400E-2,-5.110986531E-2,-3.706382960E-2,-1.159915924E-1
2.798796900E-2,-5.110986531E-2,-3.706382960E-2,-1.159915924E-1
3.046562500E-2,-5.110986531E-2,-3.706382960E-2,-1.159915924E-1
3.294343800E-2,-5.110986531E-2,-3.706382960E-2,-1.159915924E-1
3.542145900E-2,-5.110986531E-2,-3.706382960E-2,-1.159915924E-1
3.789979200E-2,-5.110986531E-2,-3.706382960E-2,-1.159915924E-1
4.037823000E-2,-5.110986531E-2,-3.706382960E-2,-1.159915924E-1
4.285666700E-2,-5.110986531E-2,-3.706382960E-2,-1.159915924E-1
4.533515700E-2,-5.110986531E-2,-3.706382960E-2,-1.159915924E-1
4.781375000E-2,-5.110986531E-2,-3.706382960E-2,-1.159915924E-1
5.029239600E-2,-5.110986531E-2,-3.706382960E-2,-1.159915924E-1
5.277104200E-2,-5.110986531E-2,-3.706382960E-2,-1.159915924E-1
5.524974000E-2,-5.110986531E-2,-3.706382960E-2,-1.159915924E-1
5.772849000E-2,-5.110986531E-2,-3.706382960E-2,-1.159915924E-1
6.020724000E-2,-5.110986531E-2,-3.706382960E-2,-1.159915924E-1
6.268599000E-2,-5.110986531E-2,-3.706382960E-2,-1.159915924E-1
6.516474000E-2,-5.110986531E-2,-3.706382960E-2,-1.159915924E-1
6.764354200E-2,-5.110986531E-2,-3.706382960E-2,-1.159915924E-1
7.012234400E-2,-5.110986531E-2,-3.706382960E-2,-1.159915924E-1
7.260114600E-2,-5.110986531E-2,-3.706382960E-2,-1.159915924E-1
7.507994800E-2,-5.110986531E-2,-3.706382960E-2,-1.159915924E-1
7.755880200E-2,7.167394459E-2,7.900046557E-2,-7.384192944E-2
8.003765700E-2,6.984134763E-2,6.128538772E-2,-7.750711590E-2
8.251651100E-2,6.495442986E-2,3.929426149E-2,-8.300489932E-2
8.499536500E-2,5.945665017E-2,1.852485910E-2,-8.850268275E-2
8.747427100E-2,5.273713917E-2,1.989179291E-4,-9.216786921E-2
8.995317700E-2,4.296330363E-2,-1.934875362E-2,-9.827651829E-2
9.243208400E-2,4.174157232E-2,-3.828555718E-2,-1.049960330E-1
9.491099000E-2,2.646995336E-2,-5.477890745E-2,-1.074394882E-1
9.738994800E-2,1.608525217E-2,-6.882879883E-2,-1.141590029E-1
9.986890700E-2,7.533147931E-3,-8.471128345E-2,-1.208785102E-1
1.023221880E-1,-5.905874074E-3,-9.143079072E-2,-1.288197637E-1
1.047529690E-1,-1.873403788E-2,-1.067024097E-1,-1.318740845E-1
1.071845320E-1,-3.522738069E-2,-1.244174913E-1,-1.312632114E-1
1.096153130E-1,-4.683381319E-2,-1.427434236E-1,-1.337066740E-1
1.120452610E-1,-6.393802166E-2,-1.592367738E-1,-1.367610097E-1
1.144760940E-1,-8.287483454E-2,-1.732866615E-1,-1.367610097E-1
1.169076570E-1,-9.997904301E-2,-1.910017282E-1,-1.379827261E-1
1.193384380E-1,-1.146397889E-1,-2.068842202E-1,-1.373718679E-1
1.217683860E-1,-1.317440122E-1,-2.227666974E-1,-1.349284053E-1
1.241992190E-1,-1.506808102E-1,-2.362057269E-1,-1.306523532E-1
1.266307820E-1,-1.683958918E-1,-2.435360998E-1,-1.269871593E-1
1.290616150E-1,-1.806131899E-1,-2.490338832E-1,-1.190459207E-1
1.314915110E-1,-1.977173984E-1,-2.459795624E-1,-1.141590029E-1
1.339223440E-1,-2.056586444E-1,-2.429252416E-1,-1.098829508E-1
1.363539590E-1,-2.215411365E-1,-2.313188016E-1,-1.007199809E-1
1.387847400E-1,-2.288714945E-1,-2.148254514E-1,-9.766565263E-2
1.412146880E-1,-2.343692780E-1,-1.946669221E-1,-9.461133182E-2
1.436455210E-1,-2.404779196E-1,-1.720649302E-1,-9.827651829E-2
1.460770840E-1,-2.471974492E-1,-1.464086175E-1,-1.049960330E-1
1.485078650E-1,-2.514734864E-1,-1.158653796E-1,-1.178241894E-1
1.509378130E-1,-2.508626282E-1,-8.471128345E-2,-1.312632114E-1
1.533686460E-1,-2.588038743E-1,-5.538976938E-2,-1.483674347E-1
1.558002090E-1,-2.606364787E-1,-1.873788796E-2,-1.654716432E-1
1.582309900E-1,-2.636907995E-1,1.485967077E-2,-1.844084561E-1
1.606609380E-1,-2.636907995E-1,4.418117926E-2,-2.057887167E-1
1.630917710E-1,-2.691885829E-1,7.105921954E-2,-2.247255296E-1
1.655233860E-1,-2.759080827E-1,9.488295019E-2,-2.393862754E-1
1.679541670E-1,-2.801841497E-1,1.113762930E-1,-2.546578944E-1
1.703841150E-1,-2.850710452E-1,1.229827181E-1,-2.619882524E-1
1.728149480E-1,-2.899579704E-1,1.272587776E-1,-2.699294984E-1
1.752465110E-1,-2.954557538E-1,1.211501285E-1,-2.735946774E-1
1.776772920E-1,-3.009535372E-1,1.144306213E-1,-2.723729610E-1
1.801072400E-1,-3.088947833E-1,1.009915918E-1,-2.699294984E-1
1.825380730E-1,-3.064513206E-1,8.083305508E-2,-2.607665360E-1
1.849696360E-1,-3.088947833E-1,6.128538772E-2,-2.546578944E-1
1.874004170E-1,-3.052295744E-1,3.685080260E-2,-2.430514693E-1
1.898303650E-1,-2.997318208E-1,9.361889213E-3,-2.357210815E-1
1.922611980E-1,-2.960666120E-1,-2.362480573E-2,-2.326667607E-1
1.946928130E-1,-2.942340374E-1,-5.844409391E-2,-2.296124399E-1
1.971235940E-1,-2.856819332E-1,-9.876117110E-2,-2.296124399E-1
1.995535420E-1,-2.771297991E-1,-1.439651549E-1,-2.320559025E-1
2.019843750E-1,-2.710211575E-1,-1.910017282E-1,-2.357210815E-1
2.044159380E-1,-2.581930161E-1,-2.429252416E-1,-2.387754172E-1
2.068467190E-1,-2.508626282E-1,-3.034008443E-1,-2.461057901E-1
2.092766670E-1,-2.386453450E-1,-3.663199246E-1,-2.534361482E-1
2.117075000E-1,-2.282606363E-1,-4.243520498E-1,-2.607665360E-1
2.141390630E-1,-2.227628529E-1,-4.939906299E-1,-2.674860358E-1
2.165698440E-1,-2.105455697E-1,-5.550771356E-1,-2.748164237E-1
2.189997920E-1,-2.074912488E-1,-6.173853278E-1,-2.833685279E-1
2.214306250E-1,-2.013825774E-1,-6.693088412E-1,-2.913097739E-1
2.238622400E-1,-1.940522194E-1,-7.212323546E-1,-2.998618782E-1
2.262930210E-1,-1.873326898E-1,-7.646037340E-1,-3.053596616E-1
2.287229690E-1,-1.763371229E-1,-7.945361137E-1,-3.114683032E-1
2.311538020E-1,-1.757262647E-1,-8.269119263E-1,-3.187986612E-1
2.335853650E-1,-1.665633023E-1,-8.458487391E-1,-3.236855865E-1
2.360161460E-1,-1.653415710E-1,-8.556225896E-1,-3.285725117E-1
2.384460940E-1,-1.616763771E-1,-8.611203432E-1,-3.304051161E-1
2.408769270E-1,-1.549568623E-1,-8.678398728E-1,-3.346811533E-1
2.433084900E-1,-1.525134146E-1,-8.666181564E-1,-3.377354741E-1
2.457392710E-1,-1.451830268E-1,-8.653964400E-1,-3.438441157E-1
2.481692190E-1,-1.402961165E-1,-8.592877984E-1,-3.499527872E-1
2.506000520E-1,-1.378526539E-1,-8.489030600E-1,-3.621700704E-1
2.530316670E-1,-1.311331391E-1,-8.440161347E-1,-3.762199581E-1
2.554624480E-1,-1.293005496E-1,-8.360748887E-1,-3.902698457E-1
2.578923960E-1,-1.250244975E-1,-8.354640603E-1,-4.006545544E-1
2.603232300E-1,-1.164723933E-1,-8.342423439E-1,-4.104283750E-1
2.627547920E-1,-1.079202890E-1,-8.342423439E-1,-4.189804792E-1
2.651855730E-1,-1.024225056E-1,-8.372966647E-1,-4.324195087E-1
2.676155210E-1,-9.570299089E-2,-8.464596272E-1,-4.458585382E-1
2.700463550E-1,-9.142693877E-2,-8.605095148E-1,-4.586867094E-1
2.724779170E-1,-8.776174486E-2,-8.879984021E-1,-4.751800299E-1
2.749087500E-1,-9.020520747E-2,-9.179307818E-1,-4.922842681E-1
2.773386460E-1,-9.142693877E-2,-9.643564820E-1,-5.087776184E-1
2.797695320E-1,-9.753558040E-2,-1.008338809E0,-5.252709985E-1
2.822010940E-1,-1.060876846E-1,-1.064538360E0,-5.405426025E-1
2.846318750E-1,-1.134180725E-1,-1.121348739E0,-5.558142066E-1
2.870618230E-1,-1.256353557E-1,-1.184878707E0,-5.661989450E-1
2.894926570E-1,-1.341874599E-1,-1.247186899E0,-5.808596611E-1
2.919242190E-1,-1.494590789E-1,-1.310716748E0,-5.918552279E-1
2.943550000E-1,-1.610655189E-1,-1.371803284E0,-6.065160036E-1
2.967849480E-1,-1.745045483E-1,-1.438998342E0,-6.236202121E-1
2.992157820E-1,-1.891652942E-1,-1.503750086E0,-6.388918161E-1
3.016473960E-1,-2.068803608E-1,-1.566669106E0,-6.529417038E-1
3.040781770E-1,-2.215411365E-1,-1.628977299E0,-6.706568003E-1
3.065081250E-1,-2.398670614E-1,-1.688842058E0,-6.822631955E-1
3.089389590E-1,-2.526952326E-1,-1.743209004E0,-6.975348592E-1
3.113705210E-1,-2.716320157E-1,-1.795132518E0,-7.134172916E-1
3.138013020E-1,-2.850710452E-1,-1.846445203E0,-7.323541045E-1
3.162312500E-1,-2.948448956E-1,-1.892259955E0,-7.433496714E-1
3.186620840E-1,-3.076730371E-1,-1.940518379E0,-7.561778426E-1
3.210936460E-1,-3.137817085E-1,-1.985722303E0,-7.671734095E-1
3.235244800E-1,-3.253881335E-1,-2.037645817E0,-7.812232971E-1
3.259544270E-1,-3.308859169E-1,-2.088958502E0,-7.891645432E-1
3.283852610E-1,-3.345510960E-1,-2.142714500E0,-7.977166176E-1
3.308168230E-1,-3.363837004E-1,-2.195859671E0,-8.068796396E-1
3.332476050E-1,-3.357728124E-1,-2.261222363E0,-8.123773932E-1
3.356775520E-1,-3.290533125E-1,-2.325363159E0,-8.233729601E-1
3.381083860E-1,-3.186686039E-1,-2.388282061E0,-8.307033181E-1
3.405399480E-1,-3.095056415E-1,-2.445703506E0,-8.386445642E-1
3.429707300E-1,-2.985100746E-1,-2.500681162E0,-8.423097730E-1
3.454006770E-1,-2.814058661E-1,-2.548328638E0,-8.362011313E-1
3.478315110E-1,-2.575821280E-1,-2.600862980E0,-8.166534305E-1
3.502631250E-1,-2.252063155E-1,-2.641791105E0,-7.818341851E-1
3.526939070E-1,-1.909978986E-1,-2.652786493E0,-7.311323881E-1
3.551238550E-1,-1.561785936E-1,-2.646067142E0,-6.847066879E-1
3.575546880E-1,-1.262462288E-1,-2.612469435E0,-6.419461370E-1
3.599862500E-1,-9.387040138E-2,-2.576428413E0,-6.132354736E-1
3.624170320E-1,-6.149455905E-2,-2.514120340E0,-6.034616828E-1
3.648469800E-1,-3.950343281E-2,-2.405997276E0,-6.211767197E-1
3.672778130E-1,-3.217305988E-2,-2.249005079E0,-6.627155542E-1
3.697094270E-1,-2.728614211E-2,-2.047419548E0,-7.213585377E-1
3.721402090E-1,-3.767084330E-2,-1.823232293E0,-7.800015807E-1
3.745701570E-1,-4.988813400E-2,-1.585605979E0,-8.349794149E-1
3.770009900E-1,-6.027284265E-2,-1.342481732E0,-8.771290779E-1
3.794325520E-1,-7.615531981E-2,-1.098746777E0,-9.064505696E-1
3.818633340E-1,-8.715088665E-2,-8.617312312E-1,-9.205004573E-1
3.842932820E-1,-1.005899012E-1,-6.357112527E-1,-9.156135321E-1
3.867241150E-1,-1.066985577E-1,-4.139673710E-1,-9.040071368E-1
3.891557300E-1,-1.103637367E-1,-2.007755637E-1,-8.716312647E-1
3.915865110E-1,-1.115854681E-1,1.791399531E-2,-8.362011313E-1
3.940164590E-1,-1.140289307E-1,2.396578938E-1,-7.909971476E-1
3.964472920E-1,-1.048659682E-1,4.583474696E-1,-7.439605594E-1
3.988788550E-1,-9.936818480E-2,6.837565303E-1,-6.902044415E-1
4.013096360E-1,-9.325952828E-2,8.969482780E-1,-6.352266073E-1
4.037395840E-1,-8.837261796E-2,1.103420615E0,-5.778053403E-1
4.061704170E-1,-7.920964062E-2,1.292788625E0,-5.222166777E-1
4.086020320E-1,-7.432273030E-2,1.461998224E0,-4.666279256E-1
4.110328130E-1,-6.699234247E-2,1.611660004E0,-4.189804792E-1
4.134627610E-1,-6.210543215E-2,1.739941597E0,-3.804960251E-1
4.158935940E-1,-5.905111134E-2,1.847453833E0,-3.487310410E-1
4.183251570E-1,-5.905111134E-2,1.942137837E0,-3.242964447E-1
4.207559380E-1,-6.027284265E-2,2.025826216E0,-3.120791614E-1
4.231858860E-1,-6.088370085E-2,2.097908258E0,-3.059705198E-1
4.256167190E-1,-6.454889476E-2,2.155940533E0,-2.961966693E-1
4.280483340E-1,-5.844023824E-2,2.203588009E0,-2.937532365E-1
4.304791150E-1,-5.538591743E-2,2.240239859E0,-2.827576697E-1
4.329090630E-1,-4.194689542E-2,2.257954836E0,-2.699294984E-1
4.353398960E-1,-2.850787342E-2,2.262841940E0,-2.558796108E-1
4.377714590E-1,-1.201452315E-2,2.243905067E0,-2.442732006E-1
4.402022400E-1,9.365744889E-3,2.204809666E0,-2.344993651E-1
4.426321880E-1,2.952427790E-2,2.154718876E0,-2.241146564E-1
4.450630210E-1,5.518059433E-2,2.092410564E0,-2.137299627E-1
4.474946360E-1,7.778259367E-2,2.009943724E0,-2.051778585E-1
4.499254170E-1,1.064932346E-1,1.915870667E0,-1.972366124E-1
4.523553650E-1,1.266517639E-1,1.821797490E0,-1.886845082E-1
4.547861980E-1,1.516972184E-1,1.717339635E0,-1.776889414E-1
4.572177610E-1,1.712448895E-1,1.595166683E0,-1.685259640E-1
4.596485420E-1,1.962903440E-1,1.457722068E0,-1.605847329E-1
4.620784900E-1,2.146162838E-1,1.315390587E0,-1.489782929E-1
4.645093750E-1,2.341639549E-1,1.170004845E0,-1.355392784E-1
4.669409380E-1,2.488247156E-1,1.022786379E0,-1.227111071E-1
4.693717190E-1,2.585985661E-1,8.774006367E-1,-1.068286225E-1
4.718016670E-1,2.695941329E-1,7.338474393E-1,-9.033527970E-2
4.742325000E-1,2.769244909E-1,6.049549580E-1,-7.200933993E-2
4.766640630E-1,2.799788117E-1,4.803386033E-1,-5.123993754E-2
4.790948440E-1,2.775353491E-1,3.642742932E-1,-3.047053702E-2
4.815247920E-1,2.732592821E-1,2.622599006E-1,-9.090270847E-3
4.839556250E-1,2.640963197E-1,1.681867242E-1,1.595518179E-2
4.863872400E-1,2.531007528E-1,8.633083850E-2,3.916804492E-2
4.888180210E-1,2.408834696E-1,1.913572289E-2,5.810485035E-2
4.912479690E-1,2.225575298E-1,-3.584209830E-2,8.192857355E-2
4.936788020E-1,2.017881274E-1,-8.348955214E-2,1.020871103E-1
4.961103650E-1,1.785752773E-1,-1.256392151E-1,1.216347739E-1
4.985411460E-1,1.541406810E-1,-1.574041694E-1,1.436259001E-1
5.009711460E-1,1.278734952E-1,-1.867256761E-1,1.613409817E-1
5.034019800E-1,1.016063169E-1,-2.136037350E-1,1.766126007E-1
5.058335420E-1,7.228481025E-2,-2.276536226E-1,1.931059510E-1
5.082643230E-1,4.357416555E-2,-2.349839956E-1,2.077666968E-1
5.106942710E-1,1.669611782E-2,-2.392600477E-1,2.187622637E-1
5.131251050E-1,-9.571060538E-3,-2.472012937E-1,2.285360992E-1
5.155567190E-1,-3.400565684E-2,-2.600294352E-1,2.395316660E-1
5.179875000E-1,-4.988813400E-2,-2.746902108E-1,2.431968600E-1
5.204174480E-1,-6.332716346E-2,-2.936269939E-1,2.499163598E-1
5.228482820E-1,-7.493358850E-2,-3.143964112E-1,2.541924417E-1
5.252798440E-1,-8.348569274E-2,-3.406635821E-1,2.596902251E-1
5.277106250E-1,-8.776174486E-2,-3.663199246E-1,2.615227997E-1
5.301405730E-1,-8.715088665E-2,-3.962522745E-1,2.603010833E-1
5.325714070E-1,-8.959434927E-2,-4.267955124E-1,2.676314712E-1
5.350030210E-1,-8.776174486E-2,-4.579496086E-1,2.737401128E-1
5.374338020E-1,-8.715088665E-2,-4.860493839E-1,2.792378962E-1
5.398637500E-1,-8.409656584E-2,-5.068188310E-1,2.816813588E-1
5.422945840E-1,-8.226396143E-2,-5.233121514E-1,2.847356796E-1
5.447261460E-1,-8.104223013E-2,-5.404163599E-1,2.884008586E-1
5.471569270E-1,-8.226396143E-2,-5.508010983E-1,2.877900004E-1
5.495868750E-1,-7.859878242E-2,-5.587423444E-1,2.877900004E-1
5.520177090E-1,-7.676617801E-2,-5.636292696E-1,2.890117168E-1
5.544493230E-1,-7.065753639E-2,-5.666835904E-1,2.822922170E-1
5.568801050E-1,-6.882494688E-2,-5.697379112E-1,2.804596126E-1
5.593100520E-1,-5.905111134E-2,-5.740139484E-1,2.774052918E-1
5.617408860E-1,-5.049900711E-2,-5.801225901E-1,2.712966502E-1
5.641724480E-1,-3.950343281E-2,-5.941724777E-1,2.676314712E-1
5.666032300E-1,-2.301008999E-2,-6.131092906E-1,2.609119415E-1
5.690331770E-1,-8.960202336E-3,-6.326569319E-1,2.603010833E-1
5.714640630E-1,8.144013584E-3,-6.668654084E-1,2.639662623E-1
5.738956250E-1,2.830255032E-2,-7.053498626E-1,2.633554041E-1
5.763264070E-1,4.601762444E-2,-7.542190552E-1,2.676314712E-1
5.787563550E-1,6.923048198E-2,-8.024773598E-1,2.719075084E-1
5.811871880E-1,8.877815306E-2,-8.525682688E-1,2.731292546E-1
5.836188020E-1,1.083258241E-1,-9.020482898E-1,2.767944336E-1
5.860495840E-1,1.297060847E-1,-9.405328035E-1,2.780161500E-1
5.884795320E-1,1.486428976E-1,-9.729086161E-1,2.774052918E-1
5.909103650E-1,1.633036435E-1,-9.961214662E-1,2.798487544E-1
5.933419270E-1,1.785752773E-1,-1.014447451E0,2.841247916E-1
5.957727090E-1,1.883490980E-1,-1.033384204E0,2.920660377E-1
5.982026570E-1,1.932360232E-1,-1.045601487E0,3.024507463E-1
6.006334900E-1,1.944577545E-1,-1.051099300E0,3.189440966E-1
6.030651050E-1,1.981229484E-1,-1.063316584E0,3.317722380E-1
6.054958860E-1,1.956794858E-1,-1.068814397E0,3.507090509E-1
6.079258340E-1,1.920142919E-1,-1.074312210E0,3.720893264E-1
6.103566670E-1,1.859056503E-1,-1.084696889E0,3.898043931E-1
6.127882300E-1,1.761318147E-1,-1.093248963E0,4.093520641E-1
6.152190630E-1,1.620819271E-1,-1.092638135E0,4.276780188E-1
6.176490110E-1,1.486428976E-1,-1.099357605E0,4.417279065E-1
6.200798440E-1,1.339821517E-1,-1.112185717E0,4.533343315E-1
6.225114070E-1,1.144344732E-1,-1.132344246E0,4.673842192E-1
6.249421880E-1,9.610853344E-2,-1.164109230E0,4.765471816E-1
6.273721360E-1,7.533913106E-2,-1.200761199E0,4.826558530E-1
6.298029690E-1,6.067837775E-2,-1.250852108E0,4.893753529E-1
6.322345840E-1,3.868724778E-2,-1.307051659E0,4.936514199E-1
6.346653650E-1,2.158303559E-2,-1.366916299E0,5.015926361E-1
6.370953130E-1,1.119833440E-2,-1.430446267E0,5.101447105E-1
6.395261460E-1,-2.240687609E-3,-1.489700198E0,5.241945982E-1
6.419577090E-1,-1.140365750E-2,-1.554451823E0,5.358010530E-1
6.443884900E-1,-2.056662738E-2,-1.614316583E0,5.535160899E-1
6.468184380E-1,-2.850787342E-2,-1.671737790E0,5.712311864E-1
6.492493230E-1,-3.400565684E-2,-1.750539422E0,5.858919621E-1
6.516808860E-1,-5.233159661E-2,-1.796965122E0,6.029961705E-1
6.541116670E-1,-5.660764873E-2,-1.856829882E0,6.201003790E-1
6.565416150E-1,-6.454889476E-2,-1.914862037E0,6.341502666E-1
6.589724480E-1,-6.577062607E-2,-1.971672416E0,6.488110423E-1
6.614040630E-1,-6.943580508E-2,-2.024817705E0,6.677477956E-1
6.638348440E-1,-6.577062607E-2,-2.079184532E0,6.909607053E-1
6.662647920E-1,-7.065753639E-2,-2.132329941E0,7.166169882E-1
6.686956250E-1,-6.821407378E-2,-2.188529491E0,7.386081219E-1
6.711271880E-1,-6.699234247E-2,-2.241063833E0,7.599883676E-1
6.735579690E-1,-6.210543215E-2,-2.286878586E0,7.838121057E-1
6.759879170E-1,-5.599677563E-2,-2.329028368E0,8.070249557E-1
6.784188020E-1,-5.416418612E-2,-2.371177912E0,8.302378058E-1
6.808503650E-1,-4.927727580E-2,-2.405997276E0,8.479529023E-1
6.832811460E-1,-4.683381319E-2,-2.439594746E0,8.662788272E-1
6.857110940E-1,-4.316862673E-2,-2.476246595E0,8.748309612E-1
6.881419270E-1,-4.927727580E-2,-2.501292229E0,8.797178864E-1
6.905734900E-1,-4.805554450E-2,-2.523894072E0,8.791069984E-1
6.930043230E-1,-4.255776107E-2,-2.538554907E0,8.791069984E-1
6.954342710E-1,-4.377949238E-2,-2.540998459E0,8.766635656E-1
6.978651050E-1,-4.927727580E-2,-2.544663429E0,8.644462824E-1
7.002966670E-1,-5.966196954E-2,-2.544052601E0,8.394008279E-1
7.027274480E-1,-7.737705112E-2,-2.544052601E0,8.033598065E-1
7.051573960E-1,-1.018116325E-1,-2.531835318E0,7.654861808E-1
7.075882820E-1,-1.299114078E-1,-2.512287617E0,7.276125550E-1
7.100198440E-1,-1.622872502E-1,-2.489074945E0,6.909607053E-1
7.124506250E-1,-1.952739358E-1,-2.449368715E0,6.567522287E-1
7.148805730E-1,-2.276497781E-1,-2.399277687E0,6.365936995E-1
7.173114070E-1,-2.594147325E-1,-2.344910860E0,6.170460582E-1
7.197430210E-1,-2.893471122E-1,-2.272217989E0,6.054396033E-1
7.221738020E-1,-3.241663873E-1,-2.195248842E0,5.962766409E-1
7.246037500E-1,-3.657051921E-1,-2.118279934E0,5.858919621E-1
7.270345840E-1,-4.151852429E-1,-2.033369780E0,5.761181116E-1
7.294661460E-1,-4.610001147E-1,-1.930744529E0,5.614573359E-1
7.318969270E-1,-5.049823523E-1,-1.822621465E0,5.492400527E-1
7.343269270E-1,-5.550732613E-1,-1.716331005E0,5.327467322E-1
7.367577610E-1,-6.118836403E-1,-1.615538239E0,5.107555985E-1
7.391893230E-1,-6.668615341E-1,-1.526962876E0,4.912079275E-1
7.416201050E-1,-7.175632715E-1,-1.445717931E0,4.759363234E-1
7.440500520E-1,-7.609347105E-1,-1.380355358E0,4.624972939E-1
7.464808860E-1,-8.153016567E-1,-1.347368717E0,4.423387647E-1
7.489125000E-1,-8.684468269E-1,-1.335151434E0,4.160715938E-1
7.513432820E-1,-9.258681536E-1,-1.344925165E0,3.898043931E-1
7.537732300E-1,-9.564113617E-1,-1.360196829E0,3.641480803E-1
7.562040630E-1,-9.955066442E-1,-1.391350985E0,3.403243721E-1
7.586356250E-1,-1.025439024E0,-1.436554909E0,3.146680295E-1
7.610664590E-1,-1.055371404E0,-1.479926348E0,2.932877839E-1
7.634964070E-1,-1.072475672E0,-1.517799973E0,2.712966502E-1
7.659272400E-1,-1.092023373E0,-1.555062652E0,2.383099347E-1
7.683588020E-1,-1.119512200E0,-1.597212315E0,2.028797865E-1
7.707895840E-1,-1.151888013E0,-1.647303224E0,1.582866609E-1
7.732195320E-1,-1.184263945E0,-1.710222363E0,1.057522967E-1
7.756503650E-1,-1.216639757E0,-1.776195765E0,5.077446997E-2
7.780819800E-1,-1.248404741E0,-1.839725614E0,-1.031200029E-2
7.805127610E-1,-1.282002211E0,-1.898368716E0,-7.384192944E-2
7.829427090E-1,-1.327817082E0,-1.964952946E0,-1.447022408E-1
7.853735420E-1,-1.362636447E0,-2.024817705E0,-2.112865001E-1
7.878051570E-1,-1.392568707E0,-2.069410801E0,-2.760381401E-1
7.902359380E-1,-1.419446826E0,-2.094456196E0,-3.450658619E-1
7.926658860E-1,-1.460374713E0,-2.102397442E0,-4.232565463E-1
7.950967190E-1,-1.504356980E0,-2.103619099E0,-5.075559020E-1
7.975282820E-1,-1.554447889E0,-2.097510576E0,-5.985747576E-1
7.999591150E-1,-1.608814836E0,-2.081017256E0,-6.871501207E-1
8.023890630E-1,-1.647910237E0,-2.070632458E0,-7.769472599E-1
8.048198960E-1,-1.694946766E0,-2.057193518E0,-8.649117947E-1
8.072514590E-1,-1.736485600E0,-2.041311026E0,-9.547088742E-1
8.096822400E-1,-1.773748398E0,-2.021763325E0,-1.032899499E0
8.121121880E-1,-1.803069830E0,-2.010767698E0,-1.117198825E0
8.145430730E-1,-1.829947948E0,-2.001604795E0,-1.199054718E0
8.169746360E-1,-1.849495530E0,-1.985111475E0,-1.281521440E0
8.194054170E-1,-1.861101985E0,-1.964952946E0,-1.365820765E0
8.218353650E-1,-1.866599798E0,-1.930744529E0,-1.454396129E0
8.242661980E-1,-1.864156365E0,-1.879431844E0,-1.543582439E0
8.266978130E-1,-1.851939082E0,-1.806738973E0,-1.632157803E0
8.291285940E-1,-1.843386889E0,-1.718163610E0,-1.712791920E0
8.315585420E-1,-1.832391381E0,-1.612483978E0,-1.793426037E0
8.339893750E-1,-1.822617531E0,-1.494587064E0,-1.860621214E0
8.364209380E-1,-1.823839307E0,-1.368748903E0,-1.925372839E0
8.388517710E-1,-1.822006702E0,-1.236191273E0,-1.976685524E0
8.412817190E-1,-1.829947948E0,-1.094470739E0,-2.026165724E0
8.437125520E-1,-1.839721799E0,-9.484739900E-1,-2.072591305E0
8.461441150E-1,-1.860491157E0,-8.091968894E-1,-2.104967117E0
8.485748960E-1,-1.888590932E0,-6.589241624E-1,-2.120238781E0
8.510048440E-1,-1.928907990E0,-5.019319057E-1,-2.130623579E0
8.534357300E-1,-1.978387952E0,-3.424961865E-1,-2.123293161E0
8.558672920E-1,-2.037642002E0,-1.818387657E-1,-2.101912975E0
8.582980730E-1,-2.110945702E0,-2.240307815E-2,-2.071980476E0
8.607280210E-1,-2.194634199E0,1.358108968E-1,-2.031663418E0
8.631588550E-1,-2.284431458E0,2.921922505E-1,-1.978518128E0
8.655904690E-1,-2.374228477E0,4.381889403E-1,-1.914988160E0
8.680212500E-1,-2.479297161E0,5.695248246E-1,-1.850847363E0
8.704511980E-1,-2.577646494E0,6.929194927E-1,-1.784873962E0
8.728820320E-1,-2.672330379E0,8.065403104E-1,-1.726841807E0
8.753136460E-1,-2.757851601E0,9.146633744E-1,-1.674307466E0
8.777444270E-1,-2.839096546E0,1.011180043E0,-1.632768631E0
8.801743750E-1,-2.907513380E0,1.101588011E0,-1.606501460E0
8.826052090E-1,-2.964934587E0,1.179778695E0,-1.586953759E0
8.850367710E-1,-3.016247272E0,1.246973753E0,-1.580845118E0
8.874676050E-1,-3.058397055E0,1.301951647E0,-1.585121155E0
8.898975520E-1,-3.095659733E0,1.336160064E0,-1.602836251E0
8.923283860E-1,-3.134755135E0,1.352653384E0,-1.630936027E0
8.947599480E-1,-3.175072193E0,1.358151197E0,-1.666366220E0
8.971907300E-1,-3.217832565E0,1.355096817E0,-1.706683278E0
8.996206770E-1,-3.265480042E0,1.344712138E0,-1.751276374E0
9.020515630E-1,-3.314960241E0,1.330051422E0,-1.793426037E0
9.044831250E-1,-3.366272688E0,1.317223191E0,-1.825801969E0
9.069139070E-1,-3.423083305E0,1.310503721E0,-1.860621214E0
9.093438550E-1,-3.479282856E0,1.305616856E0,-1.880779743E0
9.117746880E-1,-3.537314892E0,1.298897266E0,-1.898494840E0
9.142063020E-1,-3.604510069E0,1.289123416E0,-1.907657743E0
9.166370840E-1,-3.671094179E0,1.268964887E0,-1.912544727E0
9.190670320E-1,-3.745008945E0,1.254304171E0,-1.908879519E0
9.214978650E-1,-3.817701817E0,1.233534813E0,-1.888110161E0
9.239294800E-1,-3.894670725E0,1.216430545E0,-1.859399438E0
9.263602610E-1,-3.967974424E0,1.196882844E0,-1.814806342E0
9.287902090E-1,-4.041888714E0,1.164507031E0,-1.756774187E0
9.312210420E-1,-4.118857861E0,1.128466010E0,-1.681026936E0
9.336526050E-1,-4.195827007E0,1.075931668E0,-1.591229916E0
9.360834380E-1,-4.275239468E0,1.006904006E0,-1.484939456E0
9.385133860E-1,-4.351597309E0,9.299349785E-1,-1.368264198E0
9.409442190E-1,-4.427955627E0,8.352509737E-1,-1.241204381E0
9.433757820E-1,-4.501870155E0,7.277387977E-1,-1.104981542E0
9.458065630E-1,-4.575173855E0,6.080092788E-1,-9.650935531E-1
9.482365630E-1,-4.649699211E0,4.723973572E-1,-8.258164525E-1
9.506673960E-1,-4.719337940E0,3.288441300E-1,-6.840957999E-1
9.530989590E-1,-4.790809155E0,1.859017909E-1,-5.448186398E-1
9.555297400E-1,-4.858004093E0,5.151155591E-2,-4.159261584E-1
9.579596880E-1,-4.928253651E0,-7.738090307E-2,-2.815359235E-1
9.603905730E-1,-4.997281551E0,-1.952777803E-1,-1.563086808E-1
9.628221360E-1,-5.066308975E0,-3.015682399E-1,-3.108140081E-2
9.652529170E-1,-5.136558533E0,-3.907544911E-1,9.597846121E-2
9.676828650E-1,-5.201920986E0,-4.707777798E-1,2.224274576E-1
9.701136980E-1,-5.270338058E0,-5.422489643E-1,3.494873345E-1
9.725453130E-1,-5.329591751E0,-6.155527234E-1,4.747146070E-1
9.749760940E-1,-5.381515503E0,-6.888564825E-1,5.968875289E-1
9.774060420E-1,-5.424886703E0,-7.511647344E-1,7.160061598E-1
9.798368750E-1,-5.456040859E0,-8.153055310E-1,8.320704103E-1
9.822684900E-1,-5.473145008E0,-8.806680441E-1,9.481347203E-1
9.846992710E-1,-5.476199150E0,-9.466414452E-1,1.056257844E0
9.871292190E-1,-5.475588322E0,-1.010782242E0,1.164380908E0
9.895600520E-1,-5.465814590E0,-1.070647001E0,1.267616987E0
9.919916150E-1,-5.439547539E0,-1.143339872E0,1.365966201E0
9.944224480E-1,-5.414502144E0,-1.201372027E0,1.458817720E0
9.968523960E-1,-5.381515503E0,-1.253906369E0,1.541895270E0
9.992832300E-1,-5.338754654E0,-1.300332069E0,1.621307731E0
1.001714792E0,-5.302713871E0,-1.342481732E0,1.699498415E0
1.004145625E0,-5.252622604E0,-1.383409739E0,1.769137025E0
1.006575573E0,-5.198256016E0,-1.426781058E0,1.830223441E0
1.009006407E0,-5.135947704E0,-1.476871967E0,1.882146955E0
1.011437969E0,-5.062033176E0,-1.526352048E0,1.921242237E0
1.013868750E0,-4.978955269E0,-1.577053785E0,1.944455147E0
1.016298750E0,-4.890379906E0,-1.631420732E0,1.954228997E0
1.018729584E0,-4.795695782E0,-1.687009454E0,1.946898580E0
1.021161146E0,-4.693681717E0,-1.735878587E0,1.923074841E0
1.023591927E0,-4.593499660E0,-1.781693459E0,1.888255596E0
1.026021875E0,-4.485987663E0,-1.828119159E0,1.845495105E0
1.028452761E0,-4.376642704E0,-1.882486224E0,1.792960644E0
1.030884323E0,-4.266687393E0,-1.925857544E0,1.740426302E0
1.033315105E0,-4.154899120E0,-1.970450640E0,1.684837699E0
1.035745052E0,-4.035169601E0,-2.011378527E0,1.627416372E0
1.038175886E0,-3.914829254E0,-2.042532682E0,1.571827650E0
1.040607500E0,-3.795710802E0,-2.061469555E0,1.525401950E0
1.043038282E0,-3.671705246E0,-2.077962875E0,1.483252287E0
1.045468230E0,-3.551975727E0,-2.092623711E0,1.453930736E0
1.047899063E0,-3.437133074E0,-2.124999523E0,1.428885341E0
1.050330677E0,-3.330842733E0,-2.164094925E0,1.417278886E0
1.052761459E0,-3.220276117E0,-2.194638014E0,1.420944095E0
1.055191407E0,-3.104211807E0,-2.227013826E0,1.434383154E0
1.057622240E0,-2.992423534E0,-2.270996094E0,1.456985116E0
1.060053855E0,-2.881857157E0,-2.338802099E0,1.486306548E0
1.062484636E0,-2.770068884E0,-2.427988291E0,1.518682480E0
1.064914584E0,-2.662556648E0,-2.531835318E0,1.558388591E0
1.067345417E0,-2.555655241E0,-2.630184650E0,1.602370858E0
1.069776980E0,-2.451197386E0,-2.721814394E0,1.646964073E0
1.072207813E0,-2.352237463E0,-2.802448511E0,1.694611430E0
1.074637761E0,-2.261829376E0,-2.877584696E0,1.739815474E0
1.077068594E0,-2.183027744E0,-2.944169044E0,1.784408569E0
1.079500157E0,-2.108502388E0,-3.000368595E0,1.824725628E0
1.081930990E0,-2.043139696E0,-3.039463997E0,1.867486238E0
1.084360938E0,-1.986940026E0,-3.073672295E0,1.910246730E0
1.086791771E0,-1.927075505E0,-3.107270002E0,1.946287751E0
1.089223334E0,-1.880649686E0,-3.132926226E0,1.989659190E0
1.091654167E0,-1.836056590E0,-3.153695583E0,2.025700092E0
1.094084115E0,-1.799404621E0,-3.167745590E0,2.058075905E0
1.096514948E0,-1.768861413E0,-3.179352045E0,2.086786509E0
1.098946511E0,-1.740150809E0,-3.191569328E0,2.106334209E0
1.101377292E0,-1.716327071E0,-3.199510574E0,2.119162321E0
1.103807240E0,-1.696168542E0,-3.205008268E0,2.127714396E0
1.106238125E0,-1.685783863E0,-3.198899746E0,2.130768776E0
1.108669688E0,-1.680896878E0,-3.179352045E0,2.130157948E0
1.111100469E0,-1.680896878E0,-3.154917479E0,2.127103567E0
1.113530417E0,-1.689449072E0,-3.124984980E0,2.122827530E0
1.115961302E0,-1.693725109E0,-3.091387510E0,2.116718769E0
1.118392865E0,-1.704109788E0,-3.061455011E0,2.108777523E0
1.120823646E0,-1.715716243E0,-3.040074825E0,2.103890657E0
1.123253594E0,-1.730376959E0,-3.019305468E0,2.100225449E0
1.125684480E0,-1.746259451E0,-3.007088184E0,2.095338583E0
1.128116042E0,-1.767028809E0,-3.001590252E0,2.096560240E0
1.130546823E0,-1.786576509E0,-3.001590252E0,2.095338583E0
1.132976771E0,-1.813454509E0,-3.000979424E0,2.102058172E0
1.135407657E0,-1.848273873E0,-2.992427349E0,2.113053799E0
1.137839219E0,-1.878206253E0,-2.983875275E0,2.125881910E0
1.140270000E0,-1.915468931E0,-2.964938402E0,2.141153574E0
1.142699948E0,-1.958229423E0,-2.930119276E0,2.158868551E0
1.145130782E0,-1.999768376E0,-2.889802217E0,2.182081461E0
1.147562396E0,-2.044361591E0,-2.842765570E0,2.206516027E0
1.149993177E0,-2.083456993E0,-2.792063713E0,2.229728937E0
1.152423125E0,-2.122552156E0,-2.731588125E0,2.250498295E0
1.154853959E0,-2.159815073E0,-2.679053783E0,2.270656824E0
1.157285573E0,-2.195856094E0,-2.616134644E0,2.289593697E0
1.159716355E0,-2.210516691E0,-2.570319891E0,2.306087017E0
1.162146302E0,-2.222123146E0,-2.524504900E0,2.315860748E0
1.164577136E0,-2.227620840E0,-2.470748901E0,2.325023651E0
1.167008750E0,-2.225177526E0,-2.424934149E0,2.329299688E0
1.169439532E0,-2.212960243E0,-2.373010635E0,2.326245546E0
1.171869480E0,-2.194023371E0,-2.329028368E0,2.317082405E0
1.174300313E0,-2.170810461E0,-2.274661303E0,2.306087017E0
1.176731927E0,-2.140878201E0,-2.221516132E0,2.284706593E0
1.179162709E0,-2.103615522E0,-2.180588245E0,2.263937235E0
1.181592657E0,-2.058411360E0,-2.140271187E0,2.238281012E0
1.184023490E0,-2.016261816E0,-2.112171412E0,2.210792065E0
1.186455105E0,-1.962505460E0,-2.087125778E0,2.181470633E0
1.188885886E0,-1.909971237E0,-2.067578077E0,2.149094820E0
1.191315834E0,-1.859269381E0,-2.051084757E0,2.114275455E0
1.193746667E0,-1.801237226E0,-2.048030615E0,2.083121300E0
1.196178282E0,-1.748702884E0,-2.039478302E0,2.043415070E0
1.198609063E0,-1.695557714E0,-2.033369780E0,2.000043631E0
1.201039011E0,-1.650353670E0,-2.029093742E0,1.953618169E0
1.203469844E0,-1.606371403E0,-2.028482914E0,1.907192349E0
1.205901459E0,-1.567886949E0,-2.026650190E0,1.850381970E0
1.208332240E0,-1.536121964E0,-2.025428534E0,1.790517211E0
1.210762188E0,-1.503135324E0,-2.033980608E0,1.725765586E0
1.213193021E0,-1.489696264E0,-2.063913107E0,1.651850939E0
1.215624636E0,-1.470759392E0,-2.080406427E0,1.581601501E0
1.218055417E0,-1.453655243E0,-2.095677853E0,1.504021645E0
1.220485365E0,-1.445713997E0,-2.101786613E0,1.428885341E0
1.222916198E0,-1.436550975E0,-2.106062651E0,1.347029448E0
1.225347813E0,-1.431664109E0,-2.106673479E0,1.263340950E0
1.227778594E0,-1.424944639E0,-2.105451822E0,1.177819967E0
1.230208542E0,-1.418835998E0,-2.101786613E0,1.093520641E0
1.232639375E0,-1.415781617E0,-2.093845367E0,1.014719009E0
1.235070990E0,-1.409672976E0,-2.079184532E0,9.389717579E-1
1.237501771E0,-1.412727356E0,-2.061469555E0,8.681114316E-1
1.239931719E0,-1.400509953E0,-2.040700197E0,8.021380305E-1
1.242362552E0,-1.389514446E0,-2.024817705E0,7.386081219E-1
1.244794167E0,-1.383405805E0,-2.000382900E0,6.787433624E-1
1.247224948E0,-1.371799350E0,-1.985722303E0,6.225438118E-1
1.249654896E0,-1.365079880E0,-1.976559401E0,5.706203580E-1
1.252085730E0,-1.351029992E0,-1.985111475E0,5.235837698E-1
1.254517344E0,-1.329038858E0,-2.019319773E0,4.734928608E-1
1.256948125E0,-1.292997837E0,-2.079795599E0,4.234019518E-1
1.259378073E0,-1.255735040E0,-2.168981791E0,3.727001846E-1
1.261808907E0,-1.216639757E0,-2.266720057E0,3.213875592E-1
1.264240521E0,-1.188539982E0,-2.351019382E0,2.615227997E-1
1.266671302E0,-1.166548848E0,-2.437151432E0,1.955493987E-1
1.269101250E0,-1.154331565E0,-2.518396378E0,1.240782365E-1
1.271532084E0,-1.103018880E0,-2.679053783E0,5.077446997E-2
1.273963698E0,-1.050484538E0,-2.816498280E0,-2.680534683E-2
1.276394480E0,-1.043764949E0,-2.886137009E0,-1.117155403E-1
1.278824427E0,-1.035212874E0,-2.946612597E0,-2.082321793E-1
1.281255261E0,-1.024828196E0,-3.008920670E0,-3.078031242E-1
1.283686875E0,-1.000393629E0,-3.075505018E0,-4.128718376E-1
1.286117657E0,-9.722938538E-1,-3.129261017E0,-5.258818269E-1
1.288547605E0,-9.301441908E-1,-3.190347433E0,-6.407244205E-1
1.290978438E0,-8.776098490E-1,-3.256931782E0,-7.470148802E-1
1.293410052E0,-7.981973886E-1,-3.336344242E0,-8.478075266E-1
1.295840834E0,-7.084002495E-1,-3.411480665E0,-9.388263822E-1
1.298270782E0,-6.082184315E-1,-3.492114782E0,-1.017017007E0
1.300701615E0,-4.964302480E-1,-3.558698893E0,-1.089099050E0
1.303133230E0,-3.895289302E-1,-3.606346369E0,-1.153239846E0
1.305564011E0,-2.691885829E-1,-3.653993845E0,-1.203330755E0
1.307993959E0,-1.476264894E-1,-3.690034866E0,-1.230208755E0
1.310424792E0,-2.423182130E-2,-3.700419664E0,-1.236928344E0
1.312856407E0,9.305420518E-2,-3.683926344E0,-1.242426157E0
1.315287188E0,1.999555379E-1,-3.652772188E0,-1.237539172E0
1.317717136E0,3.135763705E-1,-3.619174480E0,-1.219213247E0
1.320147969E0,4.418579638E-1,-3.596572638E0,-1.188059092E0
1.322579584E0,5.817459822E-1,-3.591685772E0,-1.128194451E0
1.325010365E0,7.436251640E-1,-3.605124712E0,-1.037786365E0
1.327440313E0,9.067260027E-1,-3.612455130E0,-9.345503449E-1
1.329871198E0,1.067994356E0,-3.607568264E0,-8.245946765E-1
1.332302761E0,1.223153949E0,-3.588020563E0,-7.225803137E-1
1.334733542E0,1.368539810E0,-3.548314333E0,-6.248419285E-1
1.337163490E0,1.495599627E0,-3.509218931E0,-5.472621322E-1
1.339594375E0,1.603722692E0,-3.475010395E0,-4.880082011E-1
1.342025938E0,1.677026510E0,-3.421865225E0,-4.464693964E-1
1.344456719E0,1.729560852E0,-3.374828577E0,-4.244782627E-1
1.346886667E0,1.763769269E0,-3.309466124E0,-4.232565463E-1
1.349317552E0,1.776597381E0,-3.235551596E0,-4.318086505E-1
1.351749115E0,1.779040813E0,-3.159804344E0,-4.501346052E-1
1.354179896E0,1.774153948E0,-3.077948332E0,-4.776234925E-1
1.356609844E0,1.754606247E0,-2.983875275E0,-5.161080360E-1
1.359040730E0,1.727117419E0,-2.903241158E0,-5.497055650E-1
1.361472292E0,1.699017644E0,-2.807946205E0,-5.814705491E-1
1.363903073E0,1.662976623E0,-2.703488350E0,-6.059051156E-1
1.366333073E0,1.615939975E0,-2.590478420E0,-6.309505701E-1
1.368763907E0,1.575622916E0,-2.482355356E0,-6.504982710E-1
1.371195469E0,1.518201590E0,-2.373621464E0,-6.633263826E-1
1.373626302E0,1.462612987E0,-2.262444019E0,-6.743219495E-1
1.376056250E0,1.399693847E0,-2.161651373E0,-6.804305911E-1
1.378487084E0,1.330666184E0,-2.054749966E0,-6.902044415E-1
1.380918646E0,1.250032067E0,-1.939296603E0,-7.036435008E-1
1.383349480E0,1.160845757E0,-1.825675726E0,-7.158607841E-1
1.385779427E0,1.061885715E0,-1.719996214E0,-7.311323881E-1
1.388210261E0,9.641473293E-1,-1.621647000E0,-7.488474846E-1
1.390641823E0,8.566350937E-1,-1.525130272E0,-7.580104470E-1
1.393072657E0,7.546206713E-1,-1.446939588E0,-7.525126338E-1
1.395502605E0,6.452759504E-1,-1.355920792E0,-7.299106717E-1
1.397933438E0,5.554788113E-1,-1.277119279E0,-6.938696504E-1
1.400365052E0,4.699577391E-1,-1.201372027E0,-6.498873830E-1
1.402795834E0,3.997083008E-1,-1.128068209E0,-6.016290784E-1
1.405225782E0,3.428978920E-1,-1.055375338E0,-5.570359230E-1
1.407656615E0,2.921960950E-1,-9.704651237E-1,-5.136645436E-1
1.410088230E0,2.549333572E-1,-8.849440813E-1,-4.715148509E-1
1.412519011E0,2.207249403E-1,-7.951470017E-1,-4.318086505E-1
1.414948959E0,1.901817024E-1,-7.047389746E-1,-4.012654126E-1
1.417379792E0,1.614710540E-1,-6.192179322E-1,-3.884372413E-1
1.419811407E0,1.370364726E-1,-5.361403227E-1,-3.902698457E-1
1.422242188E0,1.119910181E-1,-4.451214671E-1,-4.000436962E-1
1.424672136E0,8.511296660E-2,-3.541026115E-1,-4.159261584E-1
1.427103021E0,5.884578452E-2,-2.661381066E-1,-4.415824711E-1
1.429534584E0,3.441119567E-2,-1.800061762E-1,-4.727365971E-1
1.431965365E0,8.144013584E-3,-9.998289496E-2,-5.075559020E-1
1.434395313E0,-2.484267950E-2,-1.873788796E-2,-5.472621322E-1
1.436826198E0,-5.599677563E-2,6.495057791E-2,-5.912443995E-1
1.439257761E0,-8.837261796E-2,1.406978071E-1,-6.297288537E-1
1.441688542E0,-1.207484454E-1,2.170559019E-1,-6.657698750E-1
1.444118542E0,-1.500699520E-1,2.818075716E-1,-7.140281796E-1
1.446549375E0,-1.745045483E-1,3.447266221E-1,-7.628973722E-1
1.448980938E0,-2.038260400E-1,4.070348144E-1,-8.117665648E-1
1.451411771E0,-2.288714945E-1,4.632343948E-1,-8.594139814E-1
1.453841719E0,-2.514734864E-1,5.163795948E-1,-9.070614576E-1
1.456272552E0,-2.691885829E-1,5.560857654E-1,-9.589849114E-1
1.458704167E0,-2.838493288E-1,5.964028835E-1,-1.008464932E0
1.461134948E0,-3.021752536E-1,6.348873377E-1,-1.052447200E0
1.463564896E0,-3.241663873E-1,6.617653966E-1,-1.103759766E0
1.465995730E0,-3.467683792E-1,6.849782467E-1,-1.152629018E0
1.468427344E0,-3.577639461E-1,6.892542839E-1,-1.211882830E0
1.470858125E0,-3.736464381E-1,6.813130379E-1,-1.267471552E0
1.473288073E0,-3.834202588E-1,6.587110758E-1,-1.352992654E0
1.475718907E0,-3.931941092E-1,6.220591664E-1,-1.444011450E0
1.478150521E0,-4.017462134E-1,5.927376747E-1,-1.551523685E0
1.480581302E0,-4.261808097E-1,5.725791454E-1,-1.663922787E0
1.483011250E0,-4.463393390E-1,5.609726906E-1,-1.759828568E0
1.485442136E0,-4.738282263E-1,5.591400862E-1,-1.777543545E0
1.487873698E0,-4.836020768E-1,5.334838033E-1,-1.749443769E0
1.490304480E0,-4.732173979E-1,4.858363867E-1,-1.717067957E0
1.492734427E0,-4.628326595E-1,4.381889403E-1,-1.693244219E0
1.495165313E0,-4.267916977E-1,3.850437105E-1,-1.682248712E0
1.497596875E0,-3.754790425E-1,3.037986755E-1,-1.703018069E0
1.500027709E0,-3.308859169E-1,2.268297374E-1,-1.757385015E0
1.502457657E0,-2.777406871E-1,1.443630010E-1,-1.870395064E0
1.504888490E0,-2.606364787E-1,9.243948758E-2,-2.045102358E0
1.507320105E0,-2.392562032E-1,4.479204491E-2,-2.255850792E0
1.509750886E0,-2.484191656E-1,2.768783085E-2,-2.488590240E0
1.512180834E0,-2.954557538E-1,5.823106691E-2,-2.708501577E0
1.514611667E0,-3.528770506E-1,1.064893752E-1,-2.877711058E0
1.517043282E0,-3.834202588E-1,1.199283972E-1,-2.993164539E0
1.519474063E0,-3.901397884E-1,8.083305508E-2,-3.089070320E0
1.521904011E0,-4.096874595E-1,3.929426149E-2,-3.154432774E0
1.524334896E0,-4.115200639E-1,1.485967077E-2,-3.181921721E0
1.526766459E0,-3.760899007E-1,-6.394188106E-2,-3.198415041E0
1.529197240E0,-3.504335880E-1,-1.561824381E-1,-3.177645683E0
1.531627188E0,-3.052295744E-1,-2.410926372E-1,-3.114726543E0
1.534058073E0,-2.862927914E-1,-2.991247773E-1,-3.013933897E0
1.536489636E0,-2.924014330E-1,-3.388310075E-1,-2.885041475E0
1.538920469E0,-2.917905748E-1,-3.528808951E-1,-2.751873016E0
1.541350417E0,-3.180577457E-1,-3.583786786E-1,-2.602210999E0
1.543781250E0,-3.394380212E-1,-3.473831117E-1,-2.441553593E0
1.546212813E0,-3.809768260E-1,-3.321114779E-1,-2.277230978E0
1.548643646E0,-4.274025261E-1,-3.143964112E-1,-2.117184401E0
1.551073594E0,-4.793260396E-1,-2.740793228E-1,-1.958970428E0
1.553504427E0,-5.330821276E-1,-2.300970703E-1,-1.803810835E0
1.555936042E0,-5.923360586E-1,-1.769518405E-1,-1.643153310E0
1.558366823E0,-6.509790421E-1,-1.189197078E-1,-1.495324135E0
1.560796771E0,-6.949613094E-1,-8.471128345E-2,-1.371929407E0
1.563227605E0,-7.505499125E-1,-6.333101541E-2,-1.257086873E0
1.565659219E0,-7.878127098E-1,-7.493744791E-2,-1.158126831E0
1.568090000E0,-8.342384100E-1,-1.005937606E-1,-1.067718744E0
1.570520000E0,-8.843293190E-1,-1.244174913E-1,-9.742565751E-1
1.572950834E0,-9.435832500E-1,-1.451868862E-1,-8.893463612E-1
1.575382396E0,-1.012610912E0,-1.525172591E-1,-7.983275056E-1
1.577813230E0,-1.087747216E0,-1.500737965E-1,-7.183042169E-1
1.580243177E0,-1.172657490E0,-1.286935359E-1,-6.401135325E-1
1.582674011E0,-1.256345987E0,-9.815030545E-2,-5.552033782E-1
1.585105625E0,-1.336369157E0,-6.943966448E-2,-4.751800299E-1
1.587536407E0,-1.417614222E0,-1.934875362E-2,-3.804960251E-1
1.589966355E0,-1.496415734E0,4.601377249E-2,-2.833685279E-1
1.592397188E0,-1.556891322E0,1.040459201E-1,-1.954040229E-1
1.594828802E0,-1.606371403E0,1.681867242E-1,-1.202676520E-1
1.597259584E0,-1.660127521E0,2.323275208E-1,-3.963350505E-2
1.599689532E0,-1.696168542E0,3.044095635E-1,4.100063443E-2
1.602120417E0,-1.726711750E0,3.734372556E-1,1.210239157E-1
1.604551980E0,-1.744426847E0,4.241390526E-1,2.065449655E-1
1.606982813E0,-1.763974547E0,4.632343948E-1,2.938986421E-1
1.609412761E0,-1.771304846E0,4.931667447E-1,3.836957514E-1
1.611843594E0,-1.757254958E0,5.163795948E-1,4.716602862E-1
1.614275209E0,-1.746259451E0,5.438684821E-1,5.730637908E-1
1.616705990E0,-1.721213937E0,5.701356530E-1,6.683586836E-1
1.619135938E0,-1.688838124E0,6.055658460E-1,7.569340467E-1
1.621566771E0,-1.657684088E0,6.373307705E-1,8.412333727E-1
1.623998386E0,-1.622864723E0,6.672631502E-1,9.139263034E-1
1.626429167E0,-1.594154119E0,6.984172463E-1,9.798997045E-1
1.628859115E0,-1.566665173E0,7.277387977E-1,1.033044934E0
1.631290000E0,-1.553226233E0,7.650015354E-1,1.072751164E0
1.633721563E0,-1.538565397E0,8.108164072E-1,1.097185731E0
1.636152396E0,-1.530624151E0,8.590747118E-1,1.118566036E0
1.638582344E0,-1.521461248E0,8.993917704E-1,1.121009469E0
1.641013177E0,-1.516574264E0,9.372653961E-1,1.100240111E0
1.643444792E0,-1.517796040E0,9.702520967E-1,1.059923053E0
1.645875573E0,-1.517796040E0,9.940757751E-1,9.957821965E-1
1.648305521E0,-1.525126457E0,1.013012648E0,9.224784374E-1
1.650736355E0,-1.533678532E0,1.028284192E0,8.381790519E-1
1.653167969E0,-1.541619778E0,1.039890647E0,7.526580095E-1
1.655598750E0,-1.545895815E0,1.045388460E0,6.708021164E-1
1.658028698E0,-1.553226233E0,1.046610117E0,5.865027905E-1
1.660459584E0,-1.554447889E0,1.025840759E0,4.973165691E-1
1.662891146E0,-1.558113098E0,1.000795364E0,4.148498476E-1
1.665321980E0,-1.555669665E0,9.623108506E-1,3.317722380E-1
1.667751927E0,-1.545895815E0,9.189394116E-1,2.560250163E-1
1.670182761E0,-1.530013323E0,8.584638238E-1,1.845538467E-1
1.672614375E0,-1.504356980E0,7.918795943E-1,1.118609458E-1
1.675045157E0,-1.476868153E0,7.142997384E-1,3.244853020E-2
1.677475105E0,-1.445713997E0,6.361090541E-1,-3.352485970E-2
1.679905990E0,-1.410894752E0,5.585292578E-1,-1.062177569E-1
1.682337552E0,-1.368745089E0,4.895015657E-1,-1.758563519E-1
1.684768334E0,-1.321097612E0,4.302476943E-1,-2.314450294E-1
1.687198334E0,-1.272228360E0,3.734372556E-1,-2.766489983E-1
1.689629167E0,-1.219694018E0,3.276224136E-1,-3.224638700E-1
1.692060782E0,-1.165327072E0,2.921922505E-1,-3.621700704E-1
1.694491563E0,-1.107905746E0,2.561512291E-1,-3.939350247E-1
1.696921511E0,-1.054149747E0,2.237754166E-1,-4.238674045E-1
1.699352344E0,-1.000393629E0,1.828474700E-1,-4.360846877E-1
1.701783959E0,-9.380854368E-1,1.309239715E-1,-4.525780380E-1
1.704214740E0,-8.849402666E-1,7.961133122E-2,-4.696822464E-1
1.706644740E0,-8.385144472E-1,3.196388483E-2,-4.922842681E-1
1.709075573E0,-7.865909338E-1,-1.934875362E-2,-5.283253193E-1
1.711507136E0,-7.377218008E-1,-6.333101541E-2,-5.692532659E-1
1.713937969E0,-7.029025555E-1,-9.326338768E-2,-6.303397417E-1
1.716367917E0,-6.766353846E-1,-1.183088422E-1,-6.926479340E-1
1.718798750E0,-6.583093405E-1,-1.341913193E-1,-7.543452382E-1
1.721230365E0,-6.350965500E-1,-1.586259007E-1,-8.135991096E-1
1.723661146E0,-6.192140579E-1,-1.702323407E-1,-8.624683022E-1
1.726091094E0,-5.978337526E-1,-1.897800118E-1,-9.064505696E-1
1.728521980E0,-5.752317905E-1,-2.172689140E-1,-9.437133074E-1
1.730953542E0,-5.526298285E-1,-2.404817790E-1,-9.712022543E-1
1.733384375E0,-5.196430683E-1,-2.594185770E-1,-9.919716120E-1
1.735814323E0,-4.939868152E-1,-2.704141438E-1,-1.006021500E0
1.738245157E0,-4.603892267E-1,-2.948487401E-1,-1.010297537E0
1.740676771E0,-4.261808097E-1,-3.260028362E-1,-9.986911416E-1
1.743107552E0,-3.950267136E-1,-3.577677906E-1,-9.883064628E-1
1.745537500E0,-3.693703711E-1,-3.840349913E-1,-9.669261575E-1
1.747968386E0,-3.449358046E-1,-4.041935205E-1,-9.357720613E-1
1.750399948E0,-3.272207081E-1,-4.115239084E-1,-9.070614576E-1
1.752830782E0,-3.095056415E-1,-4.188542664E-1,-8.655226231E-1
1.755260730E0,-2.960666120E-1,-4.310715795E-1,-8.203186393E-1
1.757691563E0,-2.807950079E-1,-4.463431835E-1,-7.769472599E-1
1.760123177E0,-2.673559785E-1,-4.628365338E-1,-7.396845222E-1
1.762553959E0,-2.624690533E-1,-4.701669216E-1,-6.969239712E-1
1.764983907E0,-2.606364787E-1,-4.744429588E-1,-6.382809281E-1
1.767414792E0,-2.630799115E-1,-4.787190259E-1,-5.900226235E-1
1.769846355E0,-2.673559785E-1,-4.817733467E-1,-5.533707738E-1
1.772277136E0,-2.777406871E-1,-4.909363091E-1,-5.222166777E-1
1.774707136E0,-2.924014330E-1,-5.037645102E-1,-4.965603054E-1
1.777137969E0,-3.180577457E-1,-5.208687186E-1,-4.886190593E-1
1.779569584E0,-3.406597376E-1,-5.434706807E-1,-4.910625219E-1
1.782000365E0,-3.693703711E-1,-5.715705156E-1,-5.106102228E-1
1.784430313E0,-3.870854676E-1,-6.002811193E-1,-5.515381694E-1
1.786861198E0,-4.133526385E-1,-6.259374619E-1,-5.955204368E-1
1.789292761E0,-4.377872050E-1,-6.357112527E-1,-6.663807034E-1
1.791723542E0,-4.610001147E-1,-6.442633867E-1,-7.464039922E-1
1.794153542E0,-4.750500023E-1,-6.613675952E-1,-8.264272809E-1
1.796584375E0,-4.811586440E-1,-6.680871248E-1,-8.869028687E-1
1.799015990E0,-4.707739055E-1,-6.778609753E-1,-9.247764945E-1
1.801446771E0,-4.414524138E-1,-6.766391993E-1,-9.510436654E-1
1.803876719E0,-4.023570716E-1,-6.729740500E-1,-9.626501203E-1
1.806307605E0,-3.657051921E-1,-6.638110876E-1,-9.638718367E-1
1.808739167E0,-3.101164997E-1,-6.619784832E-1,-9.589849114E-1
1.811169948E0,-2.655233741E-1,-6.467068195E-1,-9.431024790E-1
1.813599948E0,-2.270388901E-1,-6.302134991E-1,-9.290525317E-1
1.816030782E0,-1.922196150E-1,-6.039463282E-1,-9.064505696E-1
1.818462396E0,-1.402961165E-1,-5.862312317E-1,-8.716312647E-1
1.820893177E0,-9.509211779E-2,-5.630183816E-1,-8.349794149E-1
1.823323125E0,-4.866640270E-2,-5.428598523E-1,-7.971057892E-1
1.825754011E0,-2.240687609E-3,-5.208687186E-1,-7.653408051E-1
1.828185573E0,3.868724778E-2,-5.068188310E-1,-7.451822758E-1
1.830616407E0,5.640232563E-2,-4.805516005E-1,-7.366302013E-1
1.833046355E0,8.266951144E-2,-4.451214671E-1,-7.176933885E-1
1.835477188E0,1.223757118E-1,-4.078586996E-1,-6.944804788E-1
1.837908802E0,1.468103081E-1,-3.608221412E-1,-6.706568003E-1
1.840339584E0,1.675797105E-1,-3.302789032E-1,-6.468330622E-1
1.842769532E0,1.797969937E-1,-3.168398738E-1,-6.407244205E-1
1.845200417E0,1.797969937E-1,-2.869074941E-1,-6.431678534E-1
1.847631980E0,1.969012022E-1,-2.355948538E-1,-6.236202121E-1
1.850062813E0,2.054533213E-1,-1.775627136E-1,-6.126246452E-1
1.852492761E0,2.072859108E-1,-1.268609464E-1,-6.089594364E-1
1.854923594E0,2.017881274E-1,-7.921350002E-2,-6.016290784E-1
1.857355209E0,1.932360232E-1,-3.278777748E-2,-5.863574743E-1
1.859785990E0,1.907925606E-1,4.474970978E-3,-5.680314898E-1
1.862215938E0,1.993446648E-1,4.234858602E-2,-5.307687521E-1
1.864646823E0,2.060641795E-1,1.046567857E-1,-4.928951263E-1
1.867078386E0,2.054533213E-1,1.742953658E-1,-4.654062092E-1
1.869509219E0,2.115619630E-1,2.427122146E-1,-4.379172921E-1
1.871939167E0,2.023990005E-1,3.099073470E-1,-4.244782627E-1
1.874370000E0,1.944577545E-1,3.599982560E-1,-4.226456881E-1
1.876801615E0,1.822404563E-1,4.064239562E-1,-4.470802546E-1
1.879232396E0,1.669688374E-1,4.387997985E-1,-4.880082011E-1
1.881662396E0,1.510863602E-1,4.534605443E-1,-5.478729606E-1
1.884093230E0,1.217648536E-1,4.638452530E-1,-6.181223989E-1
1.886524792E0,8.816729486E-2,4.650669694E-1,-7.073086500E-1
1.888955625E0,5.212627351E-2,4.510170817E-1,-8.044361472E-1
1.891385573E0,8.754879236E-3,4.241390526E-1,-8.911789656E-1
1.893816407E0,-3.278392553E-2,3.838219643E-1,-9.632610083E-1
1.896248021E0,-8.165310323E-2,3.514461517E-1,-1.043284178E0
1.898678855E0,-1.225810349E-1,3.147942424E-1,-1.125750899E0
1.901108802E0,-1.665633023E-1,2.708120048E-1,-1.189280868E0
1.903539636E0,-2.068803608E-1,2.219428122E-1,-1.249756455E0
1.905971250E0,-2.264280319E-1,1.700193137E-1,-1.288240910E0
1.908402032E0,-2.264280319E-1,1.083219722E-1,-1.304734349E0
1.910831980E0,-2.233737111E-1,3.990512714E-2,-1.315119028E0
1.913262865E0,-2.154324651E-1,-3.645296395E-2,-1.309621215E0
1.915694427E0,-1.916087568E-1,-1.091458723E-1,-1.282743216E0
1.918125261E0,-1.622872502E-1,-1.855039597E-1,-1.249756455E0
1.920555209E0,-1.372417957E-1,-2.649163604E-1,-1.208217621E0
1.922986042E0,-9.387040138E-2,-3.455505073E-1,-1.160570264E0
1.925417657E0,-4.927727580E-2,-4.518409669E-1,-1.103148937E0
1.927848438E0,1.242006570E-2,-5.587423444E-1,-1.030456066E0
1.930278386E0,7.350653410E-2,-6.741957664E-1,-9.516545534E-1
1.932709271E0,1.303169578E-1,-7.817079425E-1,-8.862920403E-1
1.935140834E0,1.822404563E-1,-8.910527229E-1,-8.300924897E-1
1.937571667E0,2.262227237E-1,-9.875693321E-1,-7.775580883E-1
1.940001615E0,2.702049613E-1,-1.081642509E0,-7.317432761E-1
1.942432448E0,2.970830202E-1,-1.160444021E0,-7.060869336E-1
1.944864063E0,3.300697207E-1,-1.236191273E0,-6.810414791E-1
1.947294844E0,3.514499962E-1,-1.305219054E0,-6.657698750E-1
1.949724844E0,3.740519881E-1,-1.369359851E0,-6.663807034E-1
1.952155677E0,3.881018758E-1,-1.420672417E0,-6.663807034E-1
1.954587292E0,4.137581885E-1,-1.465876460E0,-6.718785167E-1
1.957018073E0,4.314732552E-1,-1.497030497E0,-6.798197627E-1
1.959448021E0,4.559078515E-1,-1.512302160E0,-6.950913668E-1
1.961878907E0,4.675142765E-1,-1.512302160E0,-7.079195380E-1
1.964310469E0,4.717903435E-1,-1.497030497E0,-7.176933885E-1
1.966741302E0,4.614056349E-1,-1.475650311E0,-7.225803137E-1
1.969171250E0,4.516318142E-1,-1.439609289E0,-7.274671793E-1
1.971602084E0,4.418579638E-1,-1.396848679E0,-7.341867089E-1
1.974033698E0,4.235320091E-1,-1.338816524E0,-7.329649925E-1
1.976464480E0,4.076495469E-1,-1.273454070E0,-7.354084253E-1
1.978894480E0,3.868801296E-1,-1.210534930E0,-7.299106717E-1
1.981325313E0,3.667216003E-1,-1.137842059E0,-7.121955752E-1
1.983756927E0,3.508391082E-1,-1.071868658E0,-6.779871583E-1
1.986187709E0,3.441196084E-1,-1.019334316E0,-6.358374953E-1
1.988617657E0,3.349566460E-1,-9.698542953E-1,-5.747510195E-1
1.991048542E0,3.392326832E-1,-9.197633862E-1,-5.075559020E-1
1.993480105E0,3.490065336E-1,-8.623421192E-1,-4.305869043E-1
1.995910938E0,3.630564213E-1,-7.872057557E-1,-3.591157496E-1
1.998340886E0,3.881018758E-1,-6.705305576E-1,-2.815359235E-1
2.000771719E0,4.204776883E-1,-5.789008737E-1,-1.996800750E-1
2.003203334E0,4.534643888E-1,-5.227013230E-1,-1.104938164E-1
2.005634115E0,4.821750224E-1,-4.787190259E-1,-2.802707814E-2
2.008064063E0,5.041661263E-1,-4.481757879E-1,4.833101481E-2
2.010494948E0,5.176051855E-1,-4.176325500E-1,1.130826771E-1
2.012926511E0,5.218812227E-1,-3.852567077E-1,1.686713547E-1
2.015357344E0,5.157725811E-1,-3.431070447E-1,2.163188010E-1
2.017787292E0,5.090531111E-1,-2.966813445E-1,2.584684789E-1
2.020218125E0,5.023335814E-1,-2.453686893E-1,3.055050671E-1
2.022649740E0,4.925597310E-1,-1.873365492E-1,3.482655883E-1
2.025080521E0,4.833967686E-1,-1.280826777E-1,3.934696019E-1
2.027510521E0,4.681251347E-1,-6.638533622E-2,4.417279065E-1
2.029941355E0,4.534643888E-1,-4.077135120E-3,4.936514199E-1
2.032372969E0,4.375819266E-1,4.906809703E-2,5.486292243E-1
2.034803750E0,4.253646135E-1,1.022133231E-1,6.072722077E-1
2.037233698E0,4.070386887E-1,1.437521279E-1,6.598065495E-1
2.039664584E0,4.033734798E-1,1.785714179E-1,7.098974586E-1
2.042096146E0,3.966539800E-1,2.072820663E-1,7.569340467E-1
2.044526980E0,3.972648382E-1,2.268297374E-1,7.948076725E-1
2.046956927E0,4.021517634E-1,2.421013564E-1,8.271834850E-1
2.049387761E0,4.070386887E-1,2.543186545E-1,8.577267528E-1
2.051819375E0,4.271972179E-1,2.634816170E-1,8.778852820E-1
2.054250157E0,4.443014264E-1,2.683685422E-1,8.901025653E-1
2.056680157E0,4.699577391E-1,2.793641090E-1,8.901025653E-1
2.059110990E0,4.992792606E-1,2.934139967E-1,8.907134533E-1
2.061542605E0,5.328768492E-1,3.056312799E-1,8.839939237E-1
2.063973386E0,5.676960945E-1,3.196811676E-1,8.711657524E-1
2.066403386E0,6.061805487E-1,3.325093389E-1,8.601701856E-1
2.068834219E0,6.495519876E-1,3.459483683E-1,8.473420739E-1
2.071265782E0,6.953668594E-1,3.520570099E-1,8.308486938E-1
2.073696615E0,7.430142164E-1,3.642742932E-1,8.131335974E-1
2.076126563E0,7.918834686E-1,3.795459270E-1,7.984728813E-1
2.078557448E0,8.401417732E-1,4.027587771E-1,7.844229937E-1
2.080989011E0,8.945087194E-1,4.210847020E-1,7.697622180E-1
2.083419844E0,9.427670240E-1,4.510170817E-1,7.605992556E-1
2.085849792E0,9.934687614E-1,4.809494615E-1,7.520471215E-1
2.088280625E0,1.042948842E0,5.121035576E-1,7.459384799E-1
2.090712240E0,1.086931109E0,5.463119745E-1,7.465493679E-1
2.093143021E0,1.130302548E0,5.805203915E-1,7.502145767E-1
2.095572969E0,1.173673987E0,6.135070920E-1,7.551015019E-1
2.098003855E0,1.220099688E0,6.385525465E-1,7.630426884E-1
2.100435469E0,1.246366858E0,6.843673587E-1,7.734274268E-1
2.102866250E0,1.283018708E0,7.136889100E-1,7.862555981E-1
2.105296198E0,1.308675051E0,7.448430061E-1,7.984728813E-1
2.107727084E0,1.336774826E0,7.772188187E-1,8.106901646E-1
2.110158646E0,1.356933355E0,8.138707280E-1,8.277943730E-1
2.112589480E0,1.372815847E0,8.493008614E-1,8.461202979E-1
2.115019427E0,1.382589698E0,8.816766739E-1,8.644462824E-1
2.117450261E0,1.395417809E0,9.195502996E-1,8.815504909E-1
2.119881875E0,1.391141772E0,9.641433954E-1,9.010981321E-1
2.122312657E0,1.385643959E0,1.006904006E0,9.243109822E-1
2.124742657E0,1.382589698E0,1.043555856E0,9.499673247E-1
2.127173490E0,1.370983243E0,1.082040310E0,9.725692868E-1
2.129605105E0,1.359987617E0,1.118692160E0,9.982256293E-1
2.132035886E0,1.344716072E0,1.151678920E0,1.016551614E0
2.134465834E0,1.325779200E0,1.176724315E0,1.039764524E0
2.136896719E0,1.306231618E0,1.189552546E0,1.059923053E0
2.139328282E0,1.276299238E0,1.199326396E0,1.070307732E0
2.141759115E0,1.245145082E0,1.191385150E0,1.076416373E0
2.144189063E0,1.202384591E0,1.188330770E0,1.072751164E0
2.146619896E0,1.160845757E0,1.184054732E0,1.061144710E0
2.149051511E0,1.108922243E0,1.185276508E0,1.045262218E0
2.151482344E0,1.056998730E0,1.184054732E0,1.027547240E0
2.153912292E0,9.940797091E-1,1.194439411E0,1.003723502E0
2.156343125E0,9.268845320E-1,1.213376284E0,9.805105329E-1
2.158774740E0,8.566350937E-1,1.227426171E0,9.548542500E-1
2.161205521E0,7.845530510E-1,1.242697716E0,9.267544746E-1
2.163635521E0,6.996428967E-1,1.263467193E0,8.998764157E-1
2.166066355E0,6.190087795E-1,1.272630095E0,8.693332076E-1
2.168497917E0,5.365419984E-1,1.281182170E0,8.412333727E-1
2.170928750E0,4.522426724E-1,1.283014774E0,8.143553734E-1
2.173358698E0,3.703867793E-1,1.281182170E0,7.832012773E-1
2.175789584E0,2.921960950E-1,1.275073528E0,7.551015019E-1
2.178221146E0,2.121728361E-1,1.259801984E0,7.245582342E-1
2.180651980E0,1.352038682E-1,1.241476059E0,6.958475709E-1
2.183081927E0,6.251097471E-2,1.221928358E0,6.732456088E-1
2.185512761E0,-4.684150219E-3,1.198104620E0,6.530870795E-1
2.187944375E0,-7.310099900E-2,1.176113486E0,6.396480203E-1
2.190375157E0,-1.323548704E-1,1.152900577E0,6.255981326E-1
2.192805157E0,-1.836675107E-1,1.126633406E0,6.207112074E-1
2.195235990E0,-2.307040989E-1,1.110140085E0,6.225438118E-1
2.197667605E0,-2.734646201E-1,1.096701026E0,6.262090206E-1
2.200098386E0,-3.009535372E-1,1.078986049E0,6.384263039E-1
2.202528334E0,-3.229446709E-1,1.069212198E0,6.536979079E-1
2.204959219E0,-3.394380212E-1,1.057605743E0,6.732456088E-1
2.207390782E0,-3.547096252E-1,1.047831893E0,7.007344961E-1
2.209821615E0,-3.608182669E-1,1.041112423E0,7.294451594E-1
2.212251563E0,-3.669269383E-1,1.034392834E0,7.569340467E-1
2.214682448E0,-3.650943339E-1,1.027673364E0,7.850338221E-1
2.217114011E0,-3.681486547E-1,1.025229931E0,8.113010526E-1
2.219544844E0,-3.620400131E-1,1.017899513E0,8.345139027E-1
2.221974792E0,-3.602074087E-1,1.019121289E0,8.583376408E-1
2.224405625E0,-3.553204834E-1,1.014234304E0,8.821613193E-1
2.226837240E0,-3.540987670E-1,1.017288685E0,9.029307365E-1
2.229268021E0,-3.492118418E-1,1.020953894E0,9.249218702E-1
2.231698021E0,-3.553204834E-1,1.030116796E0,9.426369667E-1
2.234128855E0,-3.620400131E-1,1.037447214E0,9.597411752E-1
2.236560469E0,-3.791442215E-1,1.047221065E0,9.640172124E-1
2.238991250E0,-3.956375718E-1,1.048442721E0,9.634063244E-1
2.241421198E0,-4.182395637E-1,1.040501475E0,9.475238919E-1
2.243852084E0,-4.408415854E-1,1.021564722E0,9.218675494E-1
2.246283646E0,-4.744391143E-1,9.995735884E-1,8.833830953E-1
2.248714480E0,-5.159778595E-1,9.775824547E-1,8.369573355E-1
2.251144427E0,-5.569058657E-1,9.543696046E-1,7.813686728E-1
2.253575261E0,-6.002773046E-1,9.390979409E-1,7.178387046E-1
2.256006875E0,-6.491464376E-1,9.262698293E-1,6.518653631E-1
2.258437709E0,-6.931287050E-1,9.109981656E-1,5.779507160E-1
2.260867657E0,-7.377218008E-1,9.024460912E-1,5.022034645E-1
2.263298490E0,-7.774280310E-1,8.890070915E-1,4.191259146E-1
2.265730105E0,-8.146907091E-1,8.792332411E-1,3.354374468E-1
2.268160886E0,-8.440122604E-1,8.664050698E-1,2.517489791E-1
2.270590886E0,-8.690577745E-1,8.468573689E-1,1.741691381E-1
2.273021719E0,-8.886053562E-1,8.230336905E-1,9.964365512E-2
2.275453334E0,-9.008226395E-1,7.961556315E-1,3.000507317E-2
2.277884115E0,-9.026552439E-1,7.631689310E-1,-3.657918423E-2
2.280314063E0,-9.020444155E-1,7.350691557E-1,-9.705478698E-2
2.282744948E0,-8.898271322E-1,7.033041716E-1,-1.477565616E-1
2.285176511E0,-8.696686029E-1,6.715392470E-1,-1.917388290E-1
2.287607344E0,-8.458448648E-1,6.416068673E-1,-2.271689773E-1
2.290037292E0,-8.128582239E-1,6.080092788E-1,-2.516035736E-1
2.292468177E0,-7.786498070E-1,5.750225782E-1,-2.674860358E-1
2.294899740E0,-7.383326292E-1,5.414250493E-1,-2.729838192E-1
2.297330573E0,-6.912961006E-1,5.017188191E-1,-2.711512148E-1
2.299760521E0,-6.454812288E-1,4.644561112E-1,-2.540470362E-1
2.302191355E0,-5.941685438E-1,4.265824854E-1,-2.308341712E-1
2.304622969E0,-5.459102392E-1,3.942066729E-1,-1.978474706E-1
2.307053750E0,-5.025389194E-1,3.593873680E-1,-1.587521285E-1
2.309483750E0,-4.524479806E-1,3.270115554E-1,-1.117155403E-1
2.311914584E0,-4.102983177E-1,2.909705341E-1,-5.490512401E-2
2.314346198E0,-3.638726175E-1,2.537077963E-1,3.737888299E-3
2.316776980E0,-3.192794919E-1,2.213319540E-1,6.238090247E-2
2.319206927E0,-2.752972245E-1,1.950647682E-1,1.198021844E-1
2.321637813E0,-2.362018824E-1,1.749062389E-1,1.760017276E-1
2.324069375E0,-2.013825774E-1,1.553585678E-1,2.267035097E-1
2.326500209E0,-1.738936752E-1,1.461955905E-1,2.737401128E-1
2.328930157E0,-1.421287060E-1,1.382543445E-1,3.122245967E-1
2.331361042E0,-1.189158559E-1,1.303131133E-1,3.464330137E-1
2.333792605E0,-9.264867008E-2,1.144306213E-1,3.763653636E-1
2.336223438E0,-7.493358850E-2,9.671553969E-2,3.959130347E-1
2.338653386E0,-5.538591743E-2,7.350268215E-2,4.087412059E-1
2.341084219E0,-3.278392553E-2,4.906809703E-2,4.087412059E-1
2.343515834E0,-1.567970961E-2,1.485967077E-2,4.038542807E-1
2.345946615E0,-4.080906510E-4,-1.324010640E-2,3.867500722E-1
2.348376615E0,1.791784912E-2,-5.050285161E-2,3.684241474E-1
2.350807448E0,3.746552020E-2,-9.265252203E-2,3.397134840E-1
2.353239063E0,5.273713917E-2,-1.372456402E-1,3.061159253E-1
2.355669844E0,6.800875813E-2,-1.910017282E-1,2.682423294E-1
2.358099792E0,8.877815306E-2,-2.447578311E-1,2.297578305E-1
2.360530677E0,1.040497720E-1,-2.960704565E-1,1.876081675E-1
2.362962292E0,1.150453389E-1,-3.382201195E-1,1.436259001E-1
2.365393073E0,1.303169578E-1,-3.840349913E-1,9.475672990E-2
2.367823021E0,1.400907934E-1,-4.170216918E-1,4.588755220E-2
2.370253907E0,1.455885768E-1,-4.567278922E-1,-2.370758913E-3
2.372685469E0,1.309278309E-1,-5.373620391E-1,-5.429425836E-2
2.375116302E0,1.174888015E-1,-5.862312317E-1,-1.074394882E-1
2.377546250E0,1.193213910E-1,-5.813443065E-1,-1.575303972E-1
2.379977084E0,1.199322566E-1,-5.550771356E-1,-2.063995749E-1
2.382408698E0,1.266517639E-1,-5.214796066E-1,-2.485492527E-1
2.384839480E0,1.431451142E-1,-4.829950631E-1,-2.852011025E-1
2.387269480E0,1.767426729E-1,-4.432888627E-1,-3.194095492E-1
2.389700313E0,2.250009924E-1,-4.023609161E-1,-3.432332575E-1
2.392131927E0,2.836440206E-1,-3.596003950E-1,-3.621700704E-1
2.394562709E0,3.428978920E-1,-3.266136944E-1,-3.707221746E-1
2.396992657E0,4.027626216E-1,-3.027899861E-1,-3.695004582E-1
2.399423542E0,4.571295679E-1,-2.753010690E-1,-3.609483540E-1
2.401855157E0,5.127182603E-1,-2.472012937E-1,-3.462875783E-1
2.404285938E0,5.725830197E-1,-2.307079434E-1,-3.291833699E-1
2.406715886E0,6.318368912E-1,-2.197123766E-1,-3.145226240E-1
2.409146771E0,7.020863295E-1,-2.227666974E-1,-3.004727364E-1
2.411578334E0,7.692815065E-1,-2.337622643E-1,-2.894771695E-1
2.414009167E0,8.358657360E-1,-2.539207935E-1,-2.852011025E-1
2.416439115E0,8.993955851E-1,-2.728576064E-1,-2.882554531E-1
2.418870000E0,9.568169117E-1,-2.710250020E-1,-2.821467817E-1
2.421301563E0,9.983557463E-1,-2.661381066E-1,-2.754272819E-1
2.423732396E0,1.035007596E0,-2.417035103E-1,-2.797033191E-1
2.426162344E0,1.054555297E0,-2.062733471E-1,-2.815359235E-1
2.428593177E0,1.067383409E0,-1.659562886E-1,-2.766489983E-1
2.431024792E0,1.073492050E0,-1.189197078E-1,-2.735946774E-1
2.433455573E0,1.069216013E0,-6.638533622E-2,-2.619882524E-1
2.435885573E0,1.066772580E0,-1.507269964E-2,-2.448840588E-1
2.438316407E0,1.057609558E0,4.845723137E-2,-2.259472460E-1
2.440748021E0,1.041727066E0,1.144306213E-1,-2.033452541E-1
2.443178802E0,1.011183858E0,1.852909327E-1,-1.795215309E-1
2.445608750E0,9.800298214E-1,2.579838336E-1,-1.508108974E-1
2.448039636E0,9.348257780E-1,3.227354884E-1,-1.208785102E-1
2.450471198E0,8.890109062E-1,3.826002479E-1,-9.094614536E-2
2.452902032E0,8.279244900E-1,4.381889403E-1,-6.223550439E-2
2.455331980E0,7.527880669E-1,4.901124239E-1,-4.513128847E-2
2.457762865E0,6.764299870E-1,5.261534452E-1,-4.452042282E-2
2.460194427E0,6.000719070E-1,5.475336909E-1,-6.162463874E-2
2.462625261E0,5.176051855E-1,5.597509742E-1,-8.789181709E-2
2.465055209E0,4.320841432E-1,5.652487874E-1,-1.208785102E-1
2.467486042E0,3.502282500E-1,5.615835786E-1,-1.685259640E-1
2.469917657E0,2.708158493E-1,5.408141613E-1,-2.241146564E-1
2.472348438E0,2.023990005E-1,5.035514235E-1,-2.882554531E-1
2.474778438E0,1.449777186E-1,4.644561112E-1,-3.585048914E-1
2.477209271E0,9.794113040E-2,4.345237315E-1,-4.434150755E-1
2.479640886E0,6.617616117E-2,3.948175311E-1,-5.295470357E-1
2.482071667E0,4.296330363E-2,3.624416888E-1,-6.205658913E-1
2.484501615E0,2.219390124E-2,3.343419135E-1,-7.140281796E-1
2.486932500E0,1.303093135E-2,3.044095635E-1,-8.087121844E-1
2.489364063E0,2.646230161E-3,2.714228630E-1,-9.040071368E-1
2.491794896E0,-4.684150219E-3,2.304949164E-1,-9.944151044E-1
2.494224844E0,-1.445798576E-2,1.773496866E-1,-1.084212184E0
2.496655730E0,-2.362095565E-2,1.254261881E-1,-1.163624525E0
2.499087292E0,-2.789700776E-2,6.433971226E-2,-1.238760948E0
2.501518125E0,-3.217305988E-2,-2.855405677E-3,-1.304123402E0
2.503948073E0,-3.828170896E-2,-7.066138834E-2,-1.355436087E0
2.506378907E0,-3.339479119E-2,-1.512955278E-1,-1.398807526E0
2.508810521E0,-3.950343281E-2,-2.276536226E-1,-1.419576883E0
2.511241302E0,-2.850787342E-2,-2.997356653E-1,-1.432404995E0
2.513671302E0,-3.339479119E-2,-3.626547158E-1,-1.425685525E0
2.516102136E0,-4.194689542E-2,-4.170216918E-1,-1.406137824E0
2.518533750E0,-2.850787342E-2,-4.750538170E-1,-1.374372840E0
2.520964532E0,-4.805554450E-2,-5.208687186E-1,-1.329168916E0
2.523394480E0,-4.744467884E-2,-5.672944188E-1,-1.272969365E0
2.525825365E0,-6.088370085E-2,-6.106657982E-1,-1.208828568E0
2.528256980E0,-6.332716346E-2,-6.515937448E-1,-1.133081317E0
2.530687761E0,-7.859878242E-2,-6.882456541E-1,-1.056112409E0
2.533117709E0,-1.036442369E-1,-7.187888622E-1,-9.767000079E-1
2.535548594E0,-1.250244975E-1,-7.505538464E-1,-9.064505696E-1
2.537980157E0,-1.451830268E-1,-7.780427337E-1,-8.416988850E-1
2.540410990E0,-1.641198397E-1,-8.012556434E-1,-7.757255435E-1
2.542840938E0,-1.916087568E-1,-8.036990762E-1,-7.140281796E-1
2.545271771E0,-2.026043236E-1,-8.104186058E-1,-6.480547786E-1
2.547703386E0,-2.184867859E-1,-8.098077178E-1,-5.863574743E-1
2.550134167E0,-2.435322404E-1,-7.982013226E-1,-5.246601105E-1
2.552564167E0,-2.557495534E-1,-7.810971141E-1,-4.666279256E-1
2.554995000E0,-2.820167243E-1,-7.566624880E-1,-4.189804792E-1
2.557426615E0,-3.058404624E-1,-7.303953171E-1,-3.731656373E-1
2.559857396E0,-3.388271630E-1,-6.882456541E-1,-3.273507953E-1
2.562287396E0,-3.736464381E-1,-6.430416703E-1,-2.864228487E-1
2.564718230E0,-4.041896760E-1,-6.076114774E-1,-2.668751776E-1
2.567149844E0,-4.377872050E-1,-5.746248364E-1,-2.577122152E-1
2.569580625E0,-4.768825471E-1,-5.367512107E-1,-2.564904690E-1
2.572010573E0,-5.080367327E-1,-4.927689135E-1,-2.693186402E-1
2.574441459E0,-5.398015976E-1,-4.665017128E-1,-2.900880277E-1
2.576873021E0,-5.556840897E-1,-4.396236837E-1,-3.078031242E-1
2.579303855E0,-5.617927313E-1,-4.164108038E-1,-3.206312656E-1
2.581733802E0,-5.575166941E-1,-3.913653493E-1,-3.218530118E-1
2.584164688E0,-5.452994108E-1,-3.693742454E-1,-3.194095492E-1
2.586596250E0,-5.196430683E-1,-3.522700071E-1,-3.133008778E-1
2.589027084E0,-4.921542108E-1,-3.357766867E-1,-2.998618782E-1
2.591457032E0,-4.610001147E-1,-3.217267990E-1,-2.888663113E-1
2.593887865E0,-4.414524138E-1,-2.991247773E-1,-2.723729610E-1
2.596319480E0,-4.145743847E-1,-2.753010690E-1,-2.558796108E-1
2.598750261E0,-3.980810344E-1,-2.502556145E-1,-2.387754172E-1
2.601180261E0,-3.852528632E-1,-2.319296747E-1,-2.155625522E-1
2.603611094E0,-3.718138337E-1,-2.166580558E-1,-1.886845082E-1
2.606042709E0,-3.614291549E-1,-2.019972950E-1,-1.630281806E-1
2.608473490E0,-3.498227000E-1,-1.891691387E-1,-1.361501366E-1
2.610903438E0,-3.467683792E-1,-1.714540571E-1,-1.043851674E-1
2.613334323E0,-3.406597376E-1,-1.506846696E-1,-7.139847428E-2
2.615765938E0,-3.424923420E-1,-1.244174913E-1,-4.146610200E-2
2.618196719E0,-3.449358046E-1,-9.326338768E-2,-1.519891806E-2
2.620626667E0,-3.486009836E-1,-6.455274671E-2,1.167912968E-2
2.623057552E0,-3.626508713E-1,-3.217691183E-2,3.916804492E-2
2.625489115E0,-3.681486547E-1,-5.298864562E-3,6.115917116E-2
2.627919948E0,-3.791442215E-1,1.974658854E-2,8.192857355E-2
2.630349896E0,-3.956375718E-1,4.784636572E-2,1.033088416E-1
2.632780782E0,-4.023570716E-1,8.083305508E-2,1.191913262E-1
2.635212344E0,-4.176287055E-1,1.138197556E-1,1.301868856E-1
2.637643177E0,-4.206830263E-1,1.474173218E-1,1.399607211E-1
2.640073125E0,-4.225156009E-1,1.779605597E-1,1.479019523E-1
2.642503959E0,-4.267916977E-1,2.127798498E-1,1.570649296E-1
2.644935573E0,-4.231264889E-1,2.524860501E-1,1.631735712E-1
2.647366355E0,-4.255699217E-1,2.903596759E-1,1.686713547E-1
2.649796355E0,-4.243482053E-1,3.331201971E-1,1.668387651E-1
2.652227188E0,-4.225156009E-1,3.740481436E-1,1.625627130E-1
2.654658802E0,-4.212938845E-1,4.168086648E-1,1.546214670E-1
2.657089584E0,-4.139634967E-1,4.559040070E-1,1.411824375E-1
2.659519532E0,-4.102983177E-1,4.992754161E-1,1.283542812E-1
2.661950417E0,-3.974701762E-1,5.328729153E-1,1.039197072E-1
2.664381980E0,-3.889180422E-1,5.634161830E-1,8.070684224E-2
2.666812813E0,-3.791442215E-1,5.866290331E-1,5.016360432E-2
2.669242761E0,-3.693703711E-1,6.073984504E-1,1.656604744E-2
2.671673594E0,-3.602074087E-1,6.202265620E-1,-1.886410639E-2
2.674105209E0,-3.498227000E-1,6.324439049E-1,-5.246166885E-2
2.676536042E0,-3.461575210E-1,6.471046209E-1,-8.728095144E-2
2.678965990E0,-3.363837004E-1,6.599327922E-1,-1.251545697E-1
2.681396823E0,-3.296641707E-1,6.758152843E-1,-1.630281806E-1
2.683828438E0,-3.241663873E-1,6.941412091E-1,-1.996800750E-1
2.686259219E0,-3.162251413E-1,7.088019848E-1,-2.375536859E-1
2.688689219E0,-3.021752536E-1,7.216301560E-1,-2.735946774E-1
2.691120052E0,-2.820167243E-1,7.240735888E-1,-3.126900196E-1
2.693551667E0,-2.697994411E-1,7.301822305E-1,-3.444550037E-1
2.695982448E0,-2.453648448E-1,7.252953053E-1,-3.725547791E-1
2.698412396E0,-2.190976739E-1,7.210192680E-1,-3.951567709E-1
2.700843282E0,-1.879435480E-1,7.088019848E-1,-4.116501212E-1
2.703274844E0,-1.500699520E-1,6.880325675E-1,-4.269217253E-1
2.705705677E0,-1.176941246E-1,6.721500754E-1,-4.391390383E-1
2.708135625E0,-8.654001355E-2,6.519915462E-1,-4.446368217E-1
2.710566511E0,-5.233159661E-2,6.312221289E-1,-4.452476799E-1
2.712998073E0,-2.545354515E-2,6.116744876E-1,-4.409716129E-1
2.715428907E0,8.136332035E-4,5.847964287E-1,-4.257000089E-1
2.717858855E0,4.235243797E-2,5.591400862E-1,-4.049305916E-1
2.720289740E0,7.289567590E-2,5.389815569E-1,-3.804960251E-1
2.722721302E0,1.034389138E-1,5.206556320E-1,-3.414006829E-1
2.725152136E0,1.407016516E-1,5.139361024E-1,-3.059705198E-1
2.727582084E0,1.718557477E-1,5.047731400E-1,-2.705403566E-1
2.730012917E0,2.085076421E-1,5.053840280E-1,-2.338884920E-1
2.732444532E0,2.494355738E-1,5.017188191E-1,-2.057887167E-1
2.734875313E0,2.903635204E-1,4.931667447E-1,-1.709694266E-1
2.737305313E0,3.367892206E-1,4.919450283E-1,-1.337066740E-1
2.739736146E0,3.789388835E-1,5.004971027E-1,-1.025525704E-1
2.742167761E0,4.284189343E-1,4.840037823E-1,-6.956587732E-2
2.744598542E0,4.742338061E-1,4.565148652E-1,-4.329869151E-2
2.747028490E0,5.194377899E-1,4.107000232E-1,-2.069669962E-2
2.749459375E0,5.536462069E-1,3.483918011E-1,-4.814217798E-3
2.751890938E0,5.731939077E-1,3.007443547E-1,3.127023578E-3
2.754321771E0,5.915198326E-1,2.457665503E-1,6.792211905E-3
2.756751719E0,6.129001379E-1,2.011734098E-1,3.737888299E-3
2.759182605E0,6.232848167E-1,1.706301868E-1,7.403077558E-3
2.761614167E0,6.202304363E-1,1.431412697E-1,1.412258856E-2
2.764044948E0,6.183978319E-1,1.095437035E-1,1.778777689E-2
2.766474948E0,5.835785866E-1,6.739403307E-2,1.962037198E-2
2.768905782E0,5.334876776E-1,2.642376814E-3,2.267469279E-2
2.771337396E0,4.455231428E-1,-6.210928038E-2,2.450728975E-2
2.773768177E0,3.374001086E-1,-1.207522973E-1,2.206383087E-2
2.776198177E0,2.176706195E-1,-1.818387657E-1,1.839864068E-2
2.778629011E0,8.755642921E-2,-2.410926372E-1,1.962037198E-2
2.781060625E0,-4.011429846E-2,-3.027899861E-1,1.962037198E-2
2.783491407E0,-1.616763771E-1,-3.791480660E-1,2.572901733E-2
2.785921355E0,-2.820167243E-1,-4.555061460E-1,4.772014916E-2
2.788352240E0,-3.754790425E-1,-5.336968899E-1,7.520905882E-2
2.790783802E0,-4.628326595E-1,-6.161636114E-1,1.057522967E-1
2.793214636E0,-5.281952620E-1,-6.827478409E-1,1.448476315E-1
2.795644584E0,-5.764535666E-1,-7.206214666E-1,1.924950778E-1
2.798075469E0,-5.953903198E-1,-7.529972792E-1,2.407533973E-1
2.800507032E0,-5.984447002E-1,-7.682689428E-1,2.957312465E-1
2.802937865E0,-5.850056410E-1,-7.664363384E-1,3.470438719E-1
2.805367813E0,-5.538514853E-1,-7.798753381E-1,3.995782435E-1
2.807798698E0,-5.092583895E-1,-7.841514349E-1,4.441713691E-1
2.810230261E0,-4.555023015E-1,-7.707123756E-1,4.869318902E-1
2.812661094E0,-3.956375718E-1,-7.529972792E-1,5.193076730E-1
2.815091042E0,-3.333293796E-1,-7.230649590E-1,5.553486943E-1
2.817521875E0,-2.704102993E-1,-7.047389746E-1,5.852810740E-1
2.819953490E0,-2.221519947E-1,-6.796935201E-1,6.091048121E-1
2.822384271E0,-1.671741605E-1,-6.509829164E-1,6.298742294E-1
2.824814271E0,-1.164723933E-1,-6.430416703E-1,6.439241171E-1
2.827245105E0,-7.859878242E-2,-5.935615897E-1,6.622500420E-1
2.829676719E0,-3.217305988E-2,-5.617966652E-1,6.726347208E-1
2.832107500E0,3.257095814E-3,-5.275882483E-1,6.830194592E-1
2.834537448E0,2.830255032E-2,-4.958232343E-1,6.946258545E-1
2.836968334E0,6.067837775E-2,-4.451214671E-1,7.056214213E-1
2.839399896E0,8.999988437E-2,-3.889219165E-1,7.141735554E-1
2.841830730E0,1.205431223E-1,-3.315006196E-1,7.294451594E-1
2.844260677E0,1.437559724E-1,-2.887400985E-1,7.441059351E-1
2.846691563E0,1.694123000E-1,-2.398709059E-1,7.587666512E-1
2.849123125E0,1.889599711E-1,-1.971103847E-1,7.734274268E-1
2.851553959E0,2.121728361E-1,-1.531281173E-1,7.929750681E-1
2.853983907E0,2.243901193E-1,-1.054806784E-1,8.149662018E-1
2.856414740E0,2.335530967E-1,-6.210928038E-2,8.387899399E-1
2.858846355E0,2.482138425E-1,-3.339863941E-2,8.571158648E-1
2.861277136E0,2.451595217E-1,1.420647372E-3,8.772743940E-1
2.863707136E0,2.488247156E-1,3.562907502E-2,9.004873037E-1
2.866137969E0,2.524898946E-1,5.823106691E-2,9.298087955E-1
2.868569584E0,2.463812530E-1,7.411354780E-2,9.713475704E-1
2.871000365E0,2.402726114E-1,6.678316742E-2,1.014719009E0
2.873430313E0,2.335530967E-1,4.967896268E-2,1.070307732E0
2.875861198E0,2.457703948E-1,2.341177687E-2,1.130783319E0
2.878292813E0,2.457703948E-1,-2.484653704E-2,1.208974004E0
2.880723594E0,2.482138425E-1,-8.532214910E-2,1.294495106E0
2.883153542E0,2.335530967E-1,-1.372456402E-1,1.384292245E0
2.885584427E0,2.396617383E-1,-1.934451908E-1,1.476532817E0
2.888015990E0,2.469921112E-1,-2.331514060E-1,1.578547120E0
2.890446823E0,2.579876781E-1,-2.600294352E-1,1.691557169E0
2.892876771E0,2.689832449E-1,-2.972922027E-1,1.813119173E0
2.895307657E0,2.787570953E-1,-3.504374325E-1,1.935292125E0
2.897739219E0,2.928069830E-1,-3.742611408E-1,2.064795494E0
2.900170052E0,3.147981167E-1,-3.931979537E-1,2.188800812E0
2.902600000E0,3.221284747E-1,-3.779263496E-1,2.301199913E0
2.905030834E0,3.141872287E-1,-3.192833364E-1,2.398938417E0
2.907462448E0,2.866983414E-1,-2.575860023E-1,2.482626915E0
2.909893230E0,2.476029843E-1,-2.050516307E-1,2.557152271E0
2.912323230E0,1.914034188E-1,-1.830604970E-1,2.621293068E0
2.914754063E0,1.254300475E-1,-1.928343326E-1,2.671994925E0
2.917185677E0,2.769168466E-2,-2.001647055E-1,2.706203222E0
2.919616459E0,-7.126839459E-2,-1.885582805E-1,2.711090326E0
2.922046407E0,-1.775588691E-1,-1.800061762E-1,2.705592394E0
2.924477292E0,-2.679668367E-1,-1.903908700E-1,2.687877417E0
2.926908855E0,-3.235555291E-1,-1.873365492E-1,2.656112432E0
2.929339688E0,-3.394380212E-1,-1.525172591E-1,2.608464956E0
2.931769636E0,-3.302750289E-1,-1.207522973E-1,2.549821854E0
2.934200521E0,-2.954557538E-1,-1.054806784E-1,2.483237743E0
2.936632084E0,-2.368127406E-1,-1.195305660E-1,2.419096947E0
2.939062917E0,-1.738936752E-1,-1.567933112E-1,2.357399464E0
2.941492865E0,-7.737705112E-2,-2.276536226E-1,2.304865122E0
2.943923698E0,1.975044236E-2,-3.021791279E-1,2.275543690E0
2.946355313E0,1.388690621E-1,-3.724285662E-1,2.268213272E0
2.948786094E0,2.592093945E-1,-4.426780045E-1,2.288371801E0
2.951216094E0,3.758845627E-1,-5.019319057E-1,2.323801994E0
2.953646927E0,5.078313351E-1,-5.550771356E-1,2.363508224E0
2.956078542E0,6.348912716E-1,-5.630183816E-1,2.405046940E0
2.958509323E0,7.607293129E-1,-5.037645102E-1,2.438033819E0
2.960939323E0,8.596894741E-1,-3.565460742E-1,2.458803177E0
2.963370157E0,9.586495161E-1,-1.244174913E-1,2.458803177E0
2.965801771E0,1.036840200E0,1.559694260E-1,2.442920685E0
2.968232552E0,1.096704960E0,4.565148652E-1,2.416042566E0
2.970662500E0,1.168176174E0,7.307931185E-1,2.381834269E0
2.973093386E0,1.237203836E0,9.568130374E-1,2.339073658E0
2.975524948E0,1.309285879E0,1.132131219E0,2.292647839E0
2.977955782E0,1.372815847E0,1.260412812E0,2.242557049E0
2.980385730E0,1.433291435E0,1.361205459E0,2.192466021E0
2.982816615E0,1.489490986E0,1.408852935E0,2.139320850E0
2.985248177E0,1.542636275E0,1.436952710E0,2.089230061E0
2.987679011E0,1.582953334E0,1.488876224E0,2.040360689E0
2.990108959E0,1.603722692E0,1.524917245E0,1.999432921E0
2.992539792E0,1.624492049E0,1.507202148E0,1.965835452E0
2.994971407E0,1.630600691E0,1.443672180E0,1.937124729E0
2.997402188E0,1.634265900E0,1.355707765E0,1.904138088E0
2.999832188E0,1.634876847E0,1.253693342E0,1.873594880E0
3.002263021E0,1.614718318E0,1.162674427E0,1.842440724E0
3.004694636E0,1.606166124E0,1.094257593E0,1.805178046E0
3.007125417E0,1.582342386E0,1.032560229E0,1.765471816E0
3.009555365E0,1.557296991E0,9.757498503E-1,1.726987362E0
3.011986250E0,1.515758157E0,9.250480533E-1,1.693389773E0
3.014417865E0,1.479106307E0,8.712919950E-1,1.657348752E0
3.016848646E0,1.438178301E0,8.291423321E-1,1.624972939E0
3.019278594E0,1.382589698E0,8.040968776E-1,1.604203463E0
3.021709480E0,1.342272639E0,7.747753859E-1,1.578547120E0
3.024141042E0,1.291570783E0,7.405669093E-1,1.561442971E0
3.026571875E0,1.246366858E0,6.831456423E-1,1.545560479E0
3.029001823E0,1.207271457E0,6.153396964E-1,1.529677987E0
3.031432657E0,1.168176174E0,5.224882364E-1,1.521125913E0
3.033864271E0,1.124804735E0,4.094782770E-1,1.508297682E0
3.036295105E0,1.084487677E0,2.909705341E-1,1.494858742E0
3.038725052E0,1.047224879E0,1.681867242E-1,1.487528324E0
3.041155886E0,1.013016462E0,6.311798096E-2,1.470424175E0
3.043587500E0,9.733102322E-1,-1.690529473E-2,1.454541683E0
3.046018282E0,9.366583824E-1,-7.371571660E-2,1.434383154E0
3.048448282E0,8.957304955E-1,-1.067024097E-1,1.408115864E0
3.050879115E0,8.566350937E-1,-1.317478567E-1,1.387346506E0
3.053310730E0,8.181506395E-1,-1.445760131E-1,1.356803298E0
3.055741511E0,7.790552378E-1,-1.543498486E-1,1.325649142E0
3.058171459E0,7.393491268E-1,-1.604585052E-1,1.290219069E0
3.060602344E0,7.008645535E-1,-1.622910947E-1,1.249902010E0
3.063033959E0,6.556606293E-1,-1.512955278E-1,1.207752347E0
3.065464740E0,6.110675335E-1,-1.372456402E-1,1.160715699E0
3.067894688E0,5.579222441E-1,-1.329695880E-1,1.116733432E0
3.070325573E0,5.011118650E-1,-1.409108341E-1,1.071529508E0
3.072757136E0,4.375819266E-1,-1.555715799E-1,1.021438599E0
3.075187969E0,3.771063089E-1,-1.592367738E-1,9.670715332E-1
3.077617917E0,3.154089749E-1,-1.586259007E-1,9.108719826E-1
3.080048802E0,2.573768198E-1,-1.622910947E-1,8.571158648E-1
3.082480365E0,1.895708442E-1,-1.659562886E-1,8.021380305E-1
3.084911198E0,1.321495473E-1,-1.659562886E-1,7.526580095E-1
3.087341146E0,7.228481025E-2,-1.629019529E-1,6.989018917E-1
3.089771980E0,1.975044236E-2,-1.494629383E-1,6.506435871E-1
3.092203594E0,-3.217305988E-2,-1.341913193E-1,6.011635661E-1
3.094634375E0,-8.654001355E-2,-1.183088422E-1,5.535160899E-1
3.097064375E0,-1.317440122E-1,-8.898733556E-2,5.028143525E-1
3.099495209E0,-1.793914437E-1,-5.661150068E-2,4.527234733E-1
3.101926823E0,-2.264280319E-1,-1.873788796E-2,3.928587139E-1
3.104357605E0,-2.734646201E-1,5.085835699E-3,3.323831260E-1
3.106787552E0,-3.180577457E-1,3.318561241E-2,2.609119415E-1
3.109218438E0,-3.528770506E-1,4.662463814E-2,1.900516301E-1
3.111650000E0,-3.840311468E-1,7.594614476E-2,1.149152741E-1
3.114080834E0,-4.115200639E-1,8.877430111E-2,4.222236574E-2
3.116510782E0,-4.335111678E-1,9.793727100E-2,-2.314015850E-2
3.118941667E0,-4.414524138E-1,9.243948758E-2,-8.789181709E-2
3.121373230E0,-4.585566223E-1,6.128538772E-2,-1.398153305E-1
3.123804063E0,-4.646652639E-1,1.180534624E-2,-1.850193143E-1
3.126234011E0,-4.744391143E-1,-4.011815414E-2,-2.125082314E-1
3.128664896E0,-4.866563976E-1,-8.898733556E-2,-2.381645441E-1
3.131095521E0,-4.933759272E-1,-1.036480889E-1,-2.735946774E-1
3.133574740E0,-4.793260396E-1,-7.310485095E-2,-3.029161990E-1
3.136005365E0,-4.127417803E-1,8.694170415E-2,-3.749982417E-1
3.138484584E0,-3.705921173E-1,1.736845076E-1,-3.969893456E-1
3.140963802E0,-3.217229247E-1,2.702011168E-1,-4.140935838E-1
3.143416667E0,-2.661342323E-1,3.532787263E-1,-4.232565463E-1
3.145870782E0,-2.129890025E-1,4.253607690E-1,-4.238674045E-1
3.148326146E0,-1.586220562E-1,4.681212902E-1,-4.171479046E-1
3.150782709E0,-1.097528785E-1,4.882798493E-1,-4.043197334E-1
3.153240417E0,-6.577062607E-2,4.870581031E-1,-3.841612041E-1
3.155699115E0,-3.583824635E-2,4.614017904E-1,-3.566722870E-1
3.158158855E0,-1.873403788E-2,4.052022398E-1,-3.212421238E-1
3.160619584E0,-7.127605379E-3,3.178485930E-1,-2.797033191E-1
3.163081198E0,-1.018192619E-2,2.121689767E-1,-2.320559025E-1
3.165543646E0,-2.301008999E-2,9.182862192E-2,-1.862410456E-1
3.168006927E0,-4.500121623E-2,-2.118134685E-2,-1.440913826E-1
3.170470990E0,-7.920964062E-2,-1.201414317E-1,-1.123264059E-1
3.172935782E0,-1.048659682E-1,-2.056624889E-1,-8.361576498E-2
3.175401250E0,-1.439613104E-1,-2.539207935E-1,-6.101377308E-2
3.177867396E0,-1.745045483E-1,-2.856857777E-1,-3.169226646E-2
3.180334219E0,-1.964956820E-1,-3.076768816E-1,3.737888299E-3
3.182801615E0,-2.172650695E-1,-3.247811198E-1,4.649841785E-2
3.185269584E0,-2.416996658E-1,-3.260028362E-1,9.475672990E-2
3.187738073E0,-2.624690533E-1,-3.418853283E-1,1.472910941E-1
3.190207136E0,-2.832384706E-1,-3.657090366E-1,2.016580552E-1
3.192676667E0,-2.997318208E-1,-4.066369832E-1,2.682423294E-1
3.195146615E0,-3.284424543E-1,-4.457323253E-1,3.403243721E-1
3.197617032E0,-3.602074087E-1,-4.756647050E-1,4.209584892E-1
3.200087917E0,-3.919723928E-1,-5.025427341E-1,5.070903897E-1
3.202559219E0,-4.310677350E-1,-5.110948682E-1,5.852810740E-1
3.205030834E0,-4.762717187E-1,-5.110948682E-1,6.634717584E-1
3.207502813E0,-5.300277472E-1,-5.025427341E-1,7.386081219E-1
3.209975157E0,-5.880599022E-1,-4.665017128E-1,8.125227690E-1
3.212447813E0,-6.467030048E-1,-3.925870955E-1,8.717766404E-1
3.214920782E0,-7.193958759E-1,-2.985139191E-1,9.334739447E-1
3.217394063E0,-7.853692770E-1,-2.007755637E-1,9.866191745E-1
3.219867657E0,-8.488992453E-1,-1.115893275E-1,1.034877539E0
3.222341511E0,-9.099856615E-1,-4.622679949E-2,1.075805545E0
3.224815573E0,-9.612982273E-1,-6.520594005E-3,1.111846566E0
3.227289896E0,-1.008334875E0,1.547053643E-2,1.141167998E0
3.229764480E0,-1.049873710E0,2.280091308E-2,1.168656945E0
3.232239271E0,-1.097521067E0,3.562907502E-2,1.199811101E0
3.234714219E0,-1.132951260E0,4.845723137E-2,1.232186913E0
3.237189375E0,-1.168992281E0,6.922663003E-2,1.271282196E0
3.239664740E0,-1.209920168E0,1.052676514E-1,1.317707896E0
3.242140261E0,-1.252069831E0,1.474173218E-1,1.367798805E0
3.244615938E0,-1.295441270E0,2.030060142E-1,1.426441908E0
3.247091771E0,-1.335758328E0,2.433230877E-1,1.478976250E0
3.249567813E0,-1.388292670E0,2.866944671E-1,1.540062666E0
3.252044011E0,-1.428609729E0,3.135725260E-1,1.596873164E0
3.254520313E0,-1.470148563E0,3.215137720E-1,1.657959580E0
3.256996719E0,-1.515963435E0,3.086856008E-1,1.714159131E0
3.259473282E0,-1.547117591E0,2.714228630E-1,1.770358682E0
3.261949948E0,-1.579493403E0,2.103363872E-1,1.830223441E0
3.264426667E0,-1.607593179E0,1.303131133E-1,1.884590387E0
3.266903490E0,-1.633249521E0,3.379647806E-2,1.941400766E0
3.269380469E0,-1.647910237E0,-8.593300730E-2,1.992713571E0
3.271857552E0,-1.654629707E0,-2.325405329E-1,2.037917376E0
3.274334688E0,-1.649742842E0,-3.895327747E-1,2.077012777E0
3.276811927E0,-1.628973365E0,-5.672944188E-1,2.107555866E0
3.279289271E0,-1.606982231E0,-7.481104136E-1,2.124049187E0
3.281766667E0,-1.563610911E0,-9.252611399E-1,2.135044813E0
3.284244115E0,-1.524515510E0,-1.098746777E0,2.136266470E0
3.286721615E0,-1.467094302E0,-1.278340936E0,2.133212328E0
3.289199219E0,-1.404786110E0,-1.451215744E0,2.122216702E0
3.291676875E0,-1.330871463E0,-1.611262202E0,2.103890657E0
3.294154532E0,-1.264287114E0,-1.754204631E0,2.084342957E0
3.296632240E0,-1.168381453E0,-1.817123652E0,2.028754473E0
3.299110052E0,-7.615455389E-1,-8.476813436E-1,1.490582705E0
3.301587917E0,-3.235555291E-1,2.543186545E-1,7.862555981E-1
3.304065782E0,-7.127605379E-3,8.975591660E-1,1.814995110E-1
3.306543698E0,1.681905687E-1,1.063714385E0,-1.892953664E-1
3.309021719E0,2.256118506E-1,8.725137115E-1,-2.961966693E-1
3.311499792E0,2.274444401E-1,5.059948564E-1,-2.283907086E-1
3.313977865E0,2.146162838E-1,1.413086802E-1,-8.605922014E-2
3.316455990E0,2.243901193E-1,-9.631770849E-2,6.177003682E-2
3.318934167E0,2.561550736E-1,-2.081059515E-1,1.979928613E-1
3.321412448E0,2.866983414E-1,-2.215449661E-1,3.219984174E-1
3.323890730E0,3.196850419E-1,-2.355948538E-1,4.429496229E-1
3.326369063E0,3.563368917E-1,-2.600294352E-1,5.522943735E-1
3.328847448E0,3.972648382E-1,-3.070660233E-1,6.506435871E-1
3.331325886E0,4.589621723E-1,-3.418853283E-1,6.989018917E-1
3.333804323E0,5.597548485E-1,-2.838531733E-1,6.457566619E-1
3.336282761E0,6.727647781E-1,-2.264318913E-1,5.351901650E-1
3.338761250E0,7.918834686E-1,-1.910017282E-1,4.142389894E-1
3.341239740E0,8.877892494E-1,-1.842822284E-1,3.134463131E-1
3.343718230E0,9.720885754E-1,-2.038298994E-1,2.548032999E-1
3.346196719E0,1.031342387E0,-2.429252416E-1,2.419751137E-1
3.348675261E0,1.080822468E0,-2.893509567E-1,2.725183666E-1
3.351153802E0,1.118085265E0,-3.351657987E-1,3.262744844E-1
3.353632344E0,1.144352436E0,-3.779263496E-1,3.916369975E-1
3.356110886E0,1.171841383E0,-4.011391997E-1,4.527234733E-1
3.358589480E0,1.195665002E0,-3.925870955E-1,5.009817481E-1
3.361068073E0,1.224986553E0,-3.760937452E-1,5.412988067E-1
3.363546667E0,1.253086329E0,-3.528808951E-1,5.767289996E-1
3.366025261E0,1.272634029E0,-3.143964112E-1,5.999418497E-1
3.368503907E0,1.284240484E0,-2.740793228E-1,6.274307370E-1
3.370982552E0,1.287294745E0,-2.239884287E-1,6.469784379E-1
3.373461198E0,1.221321344E0,-1.598476321E-1,6.176568866E-1
3.375939844E0,1.112587452E0,-1.512955278E-1,6.604174376E-1
3.378418542E0,1.097926736E0,-1.647345573E-1,8.021380305E-1
3.380897240E0,1.156569719E0,-1.665671468E-1,8.956003785E-1
3.383375938E0,1.232927799E0,-1.665671468E-1,9.487456083E-1
3.385854636E0,1.287905574E0,-2.081059515E-1,9.835648537E-1
3.388333386E0,1.297068596E0,-2.814097106E-1,1.003723502E0
3.390812136E0,1.255529761E0,-3.467722237E-1,9.927278161E-1
3.393290886E0,1.161456585E0,-3.999174833E-1,9.597411752E-1
3.395769636E0,1.030731559E0,-4.463431835E-1,9.206458330E-1
3.398248438E0,8.902326822E-1,-4.762755632E-1,8.882699609E-1
3.400727240E0,7.314078808E-1,-4.982666969E-1,8.717766404E-1
3.403206042E0,5.646417737E-1,-5.110948682E-1,8.558941483E-1
3.405684844E0,4.162016511E-1,-5.019319057E-1,8.516181111E-1
3.408163698E0,3.312914371E-1,-4.829950631E-1,8.455094695E-1
3.410639011E0,2.671506405E-1,-4.048043787E-1,8.442877531E-1
3.413069011E0,2.592093945E-1,-3.088986278E-1,8.387899399E-1
3.415499844E0,2.689832449E-1,-2.050516307E-1,8.363465071E-1
3.417931459E0,3.019699454E-1,-1.390782297E-1,8.394008279E-1
3.420362240E0,3.227393627E-1,-8.287868649E-2,8.473420739E-1
3.422792188E0,3.428978920E-1,-5.050285161E-2,8.595593572E-1
3.425223073E0,3.410652876E-1,-5.538976938E-2,8.589484692E-1
3.427654636E0,3.331240416E-1,-7.921350002E-2,8.613919616E-1
3.430085469E0,3.013590574E-1,-1.079241410E-1,8.711657524E-1
3.432515417E0,3.050242662E-1,-1.702323407E-1,8.675006032E-1
3.434946302E0,3.147981167E-1,-1.983321160E-1,8.607810736E-1
3.437377865E0,3.080785871E-1,-2.429252416E-1,8.540615439E-1
3.439808698E0,3.001373410E-1,-2.911835611E-1,8.589484692E-1
3.442238646E0,2.744810283E-1,-2.954595983E-1,8.717766404E-1
3.444669532E0,2.531007528E-1,-3.021791279E-1,8.956003785E-1
3.447101094E0,2.011772692E-1,-3.278354406E-1,9.414151907E-1
3.449531927E0,1.565841436E-1,-3.498265743E-1,9.902843833E-1
3.451961875E0,9.671939909E-2,-3.363875449E-1,1.048927426E0
3.454392761E0,6.373269856E-2,-2.850748897E-1,1.133226752E0
3.456824323E0,8.205864578E-2,-1.677888781E-1,1.224245667E0
3.459255105E0,1.150453389E-1,2.157918178E-2,1.328092694E0
3.461685105E0,1.321495473E-1,1.749062389E-1,1.466758966E0
3.464115938E0,9.427593648E-2,2.146124393E-1,1.642077088E0
3.466547552E0,-3.461651504E-2,6.556144357E-2,1.844273329E0
3.468978334E0,-1.842783689E-1,-8.287868649E-2,2.019591331E0
3.471408334E0,-2.826275826E-1,-1.964995116E-1,2.157036066E0
3.473839167E0,-3.919723928E-1,-2.905726731E-1,2.275543690E0
3.476270782E0,-4.548914731E-1,-4.090804458E-1,2.370838642E0
3.478701563E0,-5.251408815E-1,-5.422489643E-1,2.450861931E0
3.481131563E0,-5.984447002E-1,-6.699197292E-1,2.512559175E0
3.483562396E0,-6.546442509E-1,-7.670471668E-1,2.565704346E0
3.485994011E0,-6.882417202E-1,-8.647855520E-1,2.605410576E0
3.488424792E0,-7.169524431E-1,-9.631347656E-1,2.632288694E0
3.490854740E0,-7.395544052E-1,-1.022388697E0,2.650003672E0
3.493285625E0,-7.658215761E-1,-1.077977300E0,2.667718887E0
3.495717240E0,-7.817040682E-1,-1.139063835E0,2.668329716E0
3.498148021E0,-7.969757318E-1,-1.200150251E0,2.672605753E0
3.500577969E0,-7.810932398E-1,-1.253906369E0,2.679325342E0
3.503008855E0,-7.615455389E-1,-1.314992905E0,2.682990551E0
3.505440417E0,-7.218393087E-1,-1.349812150E0,2.698873043E0
3.507871250E0,-6.815222502E-1,-1.390129209E0,2.715977192E0
3.510301198E0,-6.308205128E-1,-1.408455133E0,2.744076967E0
3.512732084E0,-5.605710745E-1,-1.407844305E0,2.783783197E0
3.515163646E0,-4.438959062E-1,-1.409065962E0,2.812493801E0
3.517594480E0,-3.046187162E-1,-1.382798791E0,2.846702337E0
3.520024427E0,-1.372417957E-1,-1.365694642E0,2.878467083E0
3.522455261E0,6.861962378E-2,-1.332707882E0,2.912675619E0
3.524886875E0,2.543224990E-1,-1.272843242E0,2.945051432E0
3.527317709E0,4.754555225E-1,-1.201982856E0,2.968264341E0
3.529747657E0,6.807060242E-1,-1.112185717E0,2.994531393E0
3.532178490E0,8.987847567E-1,-1.021166921E0,3.015300989E0
3.534610105E0,1.118696094E0,-9.124330282E-1,3.025074720E0
3.537040886E0,1.327000976E0,-8.067533970E-1,3.029350758E0
3.539470886E0,1.516368985E0,-6.790826917E-1,3.030572414E0
3.541901719E0,1.693519831E0,-5.617966652E-1,3.031794310E0
3.544333334E0,1.852344632E0,-4.292389750E-1,3.029350758E0
3.546764115E0,1.965965509E0,-2.838531733E-1,3.033626795E0
3.549194115E0,2.054540873E0,-1.250283420E-1,3.044622421E0
3.551624948E0,2.104631662E0,3.196388483E-2,3.076998234E0
3.554056563E0,2.116238117E0,2.030060142E-1,3.105098009E0
3.556487344E0,2.086305618E0,3.618308306E-1,3.125867367E0
3.558917344E0,2.025219202E0,5.084383488E-1,3.155188799E0
3.561348177E0,1.962911129E0,6.238917708E-1,3.183288574E0
3.563779792E0,1.862729311E0,7.130780220E-1,3.210166693E0
3.566210573E0,1.732004285E0,7.833274603E-1,3.233990431E0
3.568640573E0,1.590894580E0,8.523551822E-1,3.257203341E0
3.571071407E0,1.444286942E0,9.305458665E-1,3.283470392E0
3.573503021E0,1.279964447E0,1.011790872E0,3.299963951E0
3.575933802E0,1.107089639E0,1.072266459E0,3.296909571E0
3.578363750E0,9.421561956E-1,1.141294241E0,3.276751041E0
3.580794636E0,8.034899235E-1,1.213987112E0,3.233379602E0
3.583226198E0,6.690996885E-1,1.292177796E0,3.180234432E0
3.585657032E0,5.615874529E-1,1.398468256E0,3.105098009E0
3.588086980E0,4.650708139E-1,1.568899512E0,2.992698908E0
3.590517865E0,3.532825708E-1,1.834014773E0,2.877245426E0
3.592949427E0,2.524898946E-1,2.103406191E0,2.776452780E0
3.595380261E0,1.559732854E-1,2.400897264E0,2.676881790E0
3.597810209E0,1.132127494E-1,2.662347317E0,2.563261032E0
3.600241042E0,1.016063169E-1,2.893865108E0,2.441087961E0
3.602672657E0,1.199322566E-1,3.122939348E0,2.311584711E0
3.605103490E0,1.706340313E-1,3.291538000E0,2.175361872E0
3.607533438E0,2.133945525E-1,3.408823967E0,2.033641338E0
3.609964271E0,2.176706195E-1,3.505340576E0,1.887033820E0
3.612395886E0,2.017881274E-1,3.564594507E0,1.662235618E0
3.614826719E0,1.840730608E-1,3.527942657E0,1.379405260E0
3.617256667E0,2.311096340E-1,3.352624416E0,1.386124849E0
3.619687500E0,3.667216003E-1,3.062463760E0,1.670176864E0
3.622119115E0,5.505918860E-1,2.656849623E0,2.109388590E0
3.624549896E0,7.088057995E-1,2.179153442E0,2.497898579E0
3.626979896E0,7.143036127E-1,1.759489298E0,2.666497231E0
3.629410730E0,5.035552979E-1,1.540799737E0,2.647560358E0
3.631842344E0,1.736883521E-1,1.436952710E0,2.495455027E0
3.634273125E0,-1.879435480E-1,1.405187726E0,2.264548063E0
3.636703125E0,-5.251408815E-1,1.424124599E0,1.985383034E0
3.639133959E0,-8.140798807E-1,1.462609053E0,1.673231244E0
3.641565573E0,-1.011389136E0,1.427178860E0,1.343364239E0
3.643996355E0,-1.148222923E0,1.389916182E0,1.025714636E0
3.646426355E0,-1.231911302E0,1.345933914E0,7.166169882E-1
3.648857188E0,-1.258789420E0,1.255525947E0,4.166824520E-1
3.651288802E0,-1.245350361E0,1.119303107E0,1.130826771E-1
3.653719584E0,-1.214196324E0,9.781932831E-1,-1.734128892E-1
3.656149532E0,-1.168381453E0,8.389161825E-1,-4.458585382E-1
3.658580417E0,-1.125620842E0,7.259061933E-1,-6.731002331E-1
3.661012032E0,-1.095688462E0,6.544350386E-1,-8.679661155E-1
3.663442813E0,-1.068810463E0,5.860181451E-1,-1.033510327E0
3.665872761E0,-1.057204008E0,5.279859900E-1,-1.175841808E0
3.668303646E0,-1.041932464E0,4.748408198E-1,-1.282743216E0
3.670735209E0,-1.022995591E0,4.400215149E-1,-1.350549102E0
3.673166042E0,-1.004669666E0,4.076457024E-1,-1.387811899E0
3.675595990E0,-9.771807194E-1,3.581656516E-1,-1.401250958E0
3.678026875E0,-9.490809441E-1,3.215137720E-1,-1.385368466E0
3.680458438E0,-9.093748331E-1,2.928031385E-1,-1.346884012E0
3.682889271E0,-8.660033941E-1,2.781423628E-1,-1.289462686E0
3.685319219E0,-8.073604107E-1,2.463774085E-1,-1.226543665E0
3.687750105E0,-7.401652336E-1,1.987299621E-1,-1.156905055E0
3.690181667E0,-6.772462130E-1,1.523042321E-1,-1.091542482E0
3.692612500E0,-6.027207375E-1,1.095437035E-1,-1.010908365E0
3.695042448E0,-5.324712992E-1,8.633083850E-2,-9.290525317E-1
3.697473334E0,-4.506153762E-1,7.472441345E-2,-8.410880566E-1
3.699904896E0,-3.779225051E-1,8.144392073E-2,-7.586212754E-1
3.702335730E0,-3.064513206E-1,9.549381584E-2,-6.718785167E-1
3.704765677E0,-2.184867859E-1,1.199283972E-1,-5.888009071E-1
3.707196563E0,-1.366309226E-1,1.492499113E-1,-5.020580888E-1
3.709628125E0,-5.782938004E-2,1.859017909E-1,-4.159261584E-1
3.712058959E0,2.402649447E-2,2.225536853E-1,-3.249073327E-1
3.714488907E0,9.671939909E-2,2.683685422E-1,-2.351102233E-1
3.716919740E0,1.681905687E-1,3.050204217E-1,-1.410370618E-1
3.719351355E0,2.256118506E-1,3.453374803E-1,-4.268783331E-2
3.721782188E0,2.769244909E-1,3.789350390E-1,5.749398470E-2
3.724212136E0,3.129655123E-1,4.155869186E-1,1.546214670E-1
3.726642969E0,3.361783624E-1,4.528496861E-1,2.468620390E-1
3.729074584E0,3.581694961E-1,4.717864990E-1,3.274962008E-1
3.731505365E0,3.868801296E-1,4.754516780E-1,3.965239227E-1
3.733935365E0,4.216994345E-1,4.626235068E-1,4.460039437E-1
3.736366198E0,4.632382393E-1,4.320802689E-1,4.796015024E-1
3.738797813E0,5.096639395E-1,3.972609937E-1,5.015926361E-1
3.741228594E0,5.573114157E-1,3.520570099E-1,5.107555985E-1
3.743658594E0,6.043479443E-1,3.080747426E-1,5.211402774E-1
3.746089427E0,6.367237568E-1,2.628707588E-1,5.321358442E-1
3.748521042E0,6.715431213E-1,2.274405956E-1,5.425205231E-1
3.750951823E0,6.996428967E-1,2.072820663E-1,5.559595823E-1
3.753381823E0,7.210232019E-1,2.042277455E-1,5.663442612E-1
3.755812657E0,7.356839180E-1,2.164450288E-1,5.828376412E-1
3.758244271E0,7.466794252E-1,2.433230877E-1,5.993309617E-1
3.760675052E0,7.466794252E-1,2.720337212E-1,6.176568866E-1
3.763105052E0,7.466794252E-1,3.019661009E-1,6.335393786E-1
3.765535886E0,7.442359924E-1,3.337310553E-1,6.463675499E-1
3.767967500E0,7.344621420E-1,3.630525768E-1,6.567522287E-1
3.770398282E0,7.307969332E-1,3.850437105E-1,6.616391540E-1
3.772828282E0,7.210232019E-1,4.052022398E-1,6.616391540E-1
3.775259115E0,7.002537251E-1,4.168086648E-1,6.567522287E-1
3.777690730E0,6.807060242E-1,4.296368361E-1,6.518653631E-1
3.780121511E0,6.562714577E-1,4.394106567E-1,6.341502666E-1
3.782551511E0,6.403889656E-1,4.308585525E-1,6.127700210E-1
3.784982344E0,6.141217947E-1,4.333020151E-1,5.883353949E-1
3.787413959E0,5.909090042E-1,4.271933734E-1,5.565704703E-1
3.789844740E0,5.701395273E-1,4.039804935E-1,5.278598070E-1
3.792274688E0,5.450941324E-1,3.807676435E-1,4.954840243E-1
3.794705573E0,5.133291483E-1,3.642742932E-1,4.704385400E-1
3.797137188E0,4.870619476E-1,3.337310553E-1,4.392844439E-1
3.799567969E0,4.571295679E-1,3.001334965E-1,4.075194895E-1
3.801997917E0,4.388036430E-1,2.561512291E-1,3.751436472E-1
3.804428802E0,4.107038677E-1,2.140015811E-1,3.494873345E-1
3.806860417E0,3.881018758E-1,1.669649929E-1,3.207767010E-1
3.809291198E0,3.636672795E-1,1.113762930E-1,2.932877839E-1
3.811721146E0,3.374001086E-1,5.884193256E-2,2.712966502E-1
3.814152032E0,3.080785871E-1,-4.119467922E-4,2.493055016E-1
3.816583646E0,2.805896997E-1,-5.050285161E-2,2.260926366E-1
3.819014427E0,2.518790364E-1,-1.122001931E-1,2.041015178E-1
3.821444375E0,2.188923359E-1,-1.592367738E-1,1.876081675E-1
3.823875261E0,1.901817024E-1,-2.099385411E-1,1.650061756E-1
3.826306875E0,1.510863602E-1,-2.575860023E-1,1.460693628E-1
3.828737657E0,1.193213910E-1,-3.058443069E-1,1.234673783E-1
3.831167605E0,8.022604883E-2,-3.547134697E-1,1.069740281E-1
3.833598490E0,4.418503121E-2,-4.060261250E-1,8.376117051E-2
3.836030105E0,7.533147931E-3,-4.390128255E-1,6.482436508E-2
3.838460886E0,-2.667527646E-2,-4.768864214E-1,4.161150008E-2
3.840890834E0,-6.454889476E-2,-5.007101893E-1,2.389642410E-2
3.843321719E0,-9.448125958E-2,-5.312533975E-1,7.269997150E-5
3.845753282E0,-1.244136393E-1,-5.587423444E-1,-2.130756527E-2
3.848184115E0,-1.598437876E-1,-5.770682693E-1,-3.902263939E-2
3.850614063E0,-1.818349063E-1,-6.008920074E-1,-5.857031047E-2
3.853044948E0,-2.160433531E-1,-6.124984026E-1,-7.384192944E-2
3.855476563E0,-2.368127406E-1,-6.289917827E-1,-9.033527970E-2
3.857907344E0,-2.612473369E-1,-6.430416703E-1,-1.043851674E-1
3.860337292E0,-2.832384706E-1,-6.534263492E-1,-1.147698686E-1
3.862768177E0,-2.978992164E-1,-6.680871248E-1,-1.269871593E-1
3.865199740E0,-3.143925667E-1,-6.693088412E-1,-1.379827261E-1
3.867630573E0,-3.333293796E-1,-6.705305576E-1,-1.453131139E-1
3.870060521E0,-3.431032002E-1,-6.735848784E-1,-1.508108974E-1
3.872491407E0,-3.492118418E-1,-6.748065948E-1,-1.569195390E-1
3.874923021E0,-3.602074087E-1,-6.619784832E-1,-1.611955911E-1
3.877353802E0,-3.705921173E-1,-6.485394239E-1,-1.636390537E-1
3.879783750E0,-3.705921173E-1,-6.430416703E-1,-1.679151058E-1
3.882214636E0,-3.773116171E-1,-6.241048574E-1,-1.703585684E-1
3.884646250E0,-3.779225051E-1,-6.118875742E-1,-1.703585684E-1
3.887077032E0,-3.730355799E-1,-6.057789326E-1,-1.728020161E-1
3.889506980E0,-3.705921173E-1,-5.905072689E-1,-1.709694266E-1
3.891937865E0,-3.638726175E-1,-5.697379112E-1,-1.685259640E-1
3.894369427E0,-3.577639461E-1,-5.532445312E-1,-1.648607850E-1
3.896800261E0,-3.479901254E-1,-5.361403227E-1,-1.624173224E-1
3.899230209E0,-3.400488794E-1,-5.159817934E-1,-1.575303972E-1
3.901661094E0,-3.229446709E-1,-5.062079430E-1,-1.532543451E-1
3.904092709E0,-3.095056415E-1,-4.903254509E-1,-1.459239721E-1
3.906523490E0,-2.924014330E-1,-4.738321006E-1,-1.367610097E-1
3.908953438E0,-2.746863663E-1,-4.719994962E-1,-1.275980324E-1
3.911384323E0,-2.545278072E-1,-4.603930712E-1,-1.184350550E-1
3.913815886E0,-2.233737111E-1,-4.622256756E-1,-1.086612195E-1
3.916246719E0,-2.038260400E-1,-4.542844296E-1,-1.007199809E-1
3.918676667E0,-1.781697273E-1,-4.536735713E-1,-9.522219747E-2
3.921107552E0,-1.482373625E-1,-4.506192505E-1,-8.728095144E-2
3.923539167E0,-1.231919080E-1,-4.475649297E-1,-7.567452639E-2
3.925969948E0,-9.081606567E-2,-4.555061460E-1,-6.712242216E-2
3.928399896E0,-6.454889476E-2,-4.506192505E-1,-5.918117613E-2
3.930830782E0,-4.133602977E-2,-4.420671463E-1,-4.757475108E-2
3.933262396E0,-1.262538880E-2,-4.420671463E-1,-3.841177747E-2
3.935693177E0,1.303093135E-2,-4.341259003E-1,-3.169226646E-2
3.938123125E0,4.235243797E-2,-4.280172586E-1,-2.375102416E-2
3.940554011E0,6.067837775E-2,-4.237411916E-1,-1.153372973E-2
3.942985625E0,7.167394459E-2,-4.072478414E-1,8.624805138E-3
3.945416407E0,9.122161567E-2,-4.041935205E-1,2.939420752E-2
3.947846407E0,1.016063169E-1,-4.054152668E-1,3.428112715E-2
3.950277240E0,1.101584211E-1,-4.084695876E-1,3.550285101E-2
3.952708855E0,1.229865849E-1,-3.993065953E-1,3.428112715E-2
3.955139636E0,1.370364726E-1,-3.870893121E-1,2.633988298E-2
3.957569636E0,1.474211663E-1,-3.687633574E-1,8.624805138E-3
3.960000469E0,1.602493227E-1,-3.345549405E-1,7.269997150E-5
3.962432084E0,1.730774939E-1,-2.936269939E-1,-1.759894192E-3
3.964862865E0,1.816295981E-1,-2.643055022E-1,-1.759894192E-3
3.967292865E0,1.840730608E-1,-2.380383164E-1,-2.981623635E-3
3.969723698E0,1.932360232E-1,-2.233775705E-1,-2.981623635E-3
3.972155313E0,1.914034188E-1,-2.026081681E-1,3.737888299E-3
3.974586094E0,1.901817024E-1,-1.867256761E-1,9.235670790E-3
3.977016094E0,1.907925606E-1,-1.708431989E-1,1.534431800E-2
3.979446927E0,1.877382398E-1,-1.690106094E-1,1.962037198E-2
3.981878542E0,1.779644042E-1,-1.525172591E-1,2.450728975E-2
3.984309323E0,1.712448895E-1,-1.598476321E-1,2.695074864E-2
3.986739323E0,1.614710540E-1,-1.574041694E-1,2.633988298E-2
3.989170157E0,1.486428976E-1,-1.598476321E-1,2.878334187E-2
3.991601771E0,1.345930099E-1,-1.659562886E-1,3.122680075E-2
3.994032552E0,1.260409057E-1,-1.738975197E-1,2.817247622E-2
3.996462552E0,1.089366898E-1,-1.745083928E-1,3.061593510E-2
3.998893386E0,9.366507828E-2,-1.812278926E-1,3.305939585E-2
4.001325000E0,8.328036964E-2,-1.879474074E-1,3.183766454E-2
4.003755782E0,6.556529552E-2,-1.867256761E-1,3.061593510E-2
4.006185782E0,5.212627351E-2,-1.897800118E-1,2.939420752E-2
4.008616615E0,3.746552020E-2,-1.910017282E-1,3.122680075E-2
4.011048230E0,2.769168466E-2,-1.977212429E-1,2.878334187E-2
4.013479011E0,1.180920005E-2,-1.971103847E-1,3.061593510E-2
4.015909011E0,-1.018956304E-3,-1.971103847E-1,2.939420752E-2
4.018339844E0,-1.384712011E-2,-2.001647055E-1,3.367026150E-2
4.020771459E0,-1.751230657E-2,-2.007755637E-1,3.244853020E-2
4.023202240E0,-2.606441081E-2,-2.026081681E-1,3.183766454E-2
4.025632240E0,-3.034046292E-2,-2.038298994E-1,3.122680075E-2
4.028063073E0,-3.461651504E-2,-2.007755637E-1,3.122680075E-2
4.030494688E0,-4.439035058E-2,-1.891691387E-1,2.939420752E-2
4.032925521E0,-4.133602977E-2,-1.897800118E-1,2.695074864E-2
4.035355469E0,-3.950343281E-2,-1.891691387E-1,2.389642410E-2
4.037786302E0,-4.377949238E-2,-1.714540571E-1,2.084209956E-2
4.040217917E0,-4.194689542E-2,-1.653454155E-1,1.839864068E-2
4.042648750E0,-4.194689542E-2,-1.519063860E-1,1.473345421E-2
4.045078698E0,-3.767084330E-2,-1.390782297E-1,8.013941348E-3
4.047509584E0,-3.583824635E-2,-1.305261254E-1,6.181346253E-3
4.049941146E0,-3.339479119E-2,-1.213631630E-1,1.294429414E-3
4.052371980E0,-3.095132858E-2,-1.073132753E-1,-2.370758913E-3
4.054801927E0,-2.178835869E-2,-1.024263576E-1,-9.090270847E-3
4.057232813E0,-1.873403788E-2,-9.509598464E-2,-1.580978185E-2
4.059664375E0,-1.506884396E-2,-8.593300730E-2,-1.642064750E-2
4.062095209E0,-7.738471031E-3,-8.165695518E-2,-2.252929471E-2
4.064525157E0,-5.295008421E-3,-7.615917176E-2,-2.497275360E-2
4.066956042E0,8.136332035E-4,-7.066138834E-2,-2.985967137E-2
4.069387605E0,3.867961466E-3,-6.821793318E-2,-2.924880572E-2
4.071818438E0,7.533147931E-3,-6.210928038E-2,-3.474658728E-2
4.074248386E0,1.119833440E-2,-6.027668715E-2,-3.963350505E-2
4.076679271E0,1.242006570E-2,-5.538976938E-2,-4.329869151E-2
4.079110886E0,1.180920005E-2,-4.989198968E-2,-4.635301977E-2
4.081541667E0,1.425265893E-2,-5.477890745E-2,-5.001820624E-2
4.083971615E0,1.364179701E-2,-4.867025837E-2,-5.185080320E-2
4.086402500E0,1.119833440E-2,-4.683766514E-2,-5.490512401E-2
4.088834063E0,1.242006570E-2,-4.317247495E-2,-5.795944482E-2
4.091264896E0,1.058746874E-2,-4.256160930E-2,-6.101377308E-2
4.093694896E0,7.533147931E-3,-3.828555718E-2,-6.162463874E-2
4.096125730E0,5.089685321E-3,-2.912258916E-2,-6.528982520E-2
4.098557344E0,8.754879236E-3,-3.706382960E-2,-6.467895955E-2
4.100988125E0,1.242006570E-2,-3.523123637E-2,-6.528982520E-2
4.103418125E0,2.646230161E-3,-3.034431860E-2,-6.284636259E-2
4.105848959E0,5.089685321E-3,-3.095518239E-2,-6.467895955E-2
4.108280573E0,-5.905874074E-3,-1.812702417E-2,-5.673772097E-2
4.110711355E0,-9.571060538E-3,-1.568356529E-2,-5.673772097E-2
4.113141355E0,-8.960202336E-3,-1.629442908E-2,-5.185080320E-2
4.115572188E0,-7.127605379E-3,-1.262924075E-2,-5.062907189E-2
4.118003802E0,-4.684150219E-3,-1.385097019E-2,-4.696388543E-2
4.120434636E0,-5.905874074E-3,-1.507269964E-2,-4.146610200E-2
4.122864584E0,-1.018192619E-2,-3.466270398E-3,-3.780091554E-2
4.125295417E0,-1.384712011E-2,3.864106257E-3,-3.535745293E-2
4.127727032E0,-1.567970961E-2,7.529294584E-3,-3.047053702E-2
4.130157865E0,-2.117749304E-2,2.035745420E-2,-2.497275360E-2
4.132587813E0,-2.423182130E-2,2.952042408E-2,-2.008583583E-2
4.135018698E0,-2.606441081E-2,3.929426149E-2,-1.642064750E-2
4.137450261E0,-2.972959727E-2,4.845723137E-2,-1.031200029E-2
4.139881094E0,-2.911873162E-2,5.762020126E-2,-5.425082520E-3
4.142311042E0,-2.972959727E-2,6.556144357E-2,-1.149029471E-3
4.144741927E0,-2.972959727E-2,7.533527911E-2,6.181346253E-3
4.147173490E0,-2.911873162E-2,8.022219688E-2,1.290085912E-2
4.149604323E0,-3.095132858E-2,9.488295019E-2,1.839864068E-2
4.152034271E0,-2.972959727E-2,1.028241888E-1,2.328555845E-2
4.154465157E0,-2.667527646E-2,1.174849421E-1,3.000507317E-2
4.156896719E0,-2.545354515E-2,1.290913820E-1,3.550285101E-2
4.159327552E0,-2.301008999E-2,1.382543445E-1,4.038976878E-2
4.161757500E0,-1.934489608E-2,1.480281800E-1,4.772014916E-2
4.164188386E0,-1.690144092E-2,1.663541198E-1,4.833101481E-2
4.166620000E0,-1.812317222E-2,1.846800745E-1,5.199620128E-2
4.169050782E0,-1.323625445E-2,1.962864995E-1,5.382879823E-2
4.171480782E0,-1.140365750E-2,2.109472454E-1,5.443966389E-2
4.173911615E0,-1.140365750E-2,2.231645435E-1,5.505052954E-2
4.176343230E0,-1.262538880E-2,2.347709835E-1,5.566138774E-2
4.178774011E0,-1.690144092E-2,2.439339459E-1,5.688311905E-2
4.181204011E0,-1.629057527E-2,2.549295127E-1,5.871571600E-2
4.183634844E0,-2.117749304E-2,2.677576840E-1,5.627225339E-2
4.186066459E0,-2.056662738E-2,2.659250796E-1,5.810485035E-2
4.188497240E0,-2.423182130E-2,2.738663256E-1,5.627225339E-2
4.190927240E0,-1.995576173E-2,2.708120048E-1,5.260706693E-2
4.193358073E0,-2.606441081E-2,2.720337212E-1,5.138533562E-2
4.195789688E0,-3.400565684E-2,2.775315046E-1,5.321793258E-2
4.198220521E0,-3.522738069E-2,2.744771838E-1,5.321793258E-2
4.200650469E0,-4.316862673E-2,2.781423628E-1,5.260706693E-2
4.203081355E0,-4.561208189E-2,2.726445794E-1,4.833101481E-2
4.205512917E0,-4.561208189E-2,2.640924752E-1,4.649841785E-2
4.207943750E0,-5.172072351E-2,2.592055500E-1,4.466582835E-2
4.210373698E0,-6.088370085E-2,2.567621171E-1,3.855717927E-2
4.212804584E0,-5.905111134E-2,2.427122146E-1,3.916804492E-2
4.215236146E0,-6.515975296E-2,2.427122146E-1,3.733544797E-2
4.217666980E0,-6.821407378E-2,2.366035730E-1,3.244853020E-2
4.220096927E0,-7.126839459E-2,2.384361625E-1,3.000507317E-2
4.222527813E0,-7.493358850E-2,2.366035730E-1,2.939420752E-2
4.224959427E0,-7.554444671E-2,2.378253043E-1,2.633988298E-2
4.227390209E0,-7.920964062E-2,2.347709835E-1,2.145296521E-2
4.229820157E0,-8.104223013E-2,2.353818417E-1,1.595518179E-2
4.232251042E0,-8.104223013E-2,2.286623269E-1,9.235670790E-3
4.234682657E0,-8.104223013E-2,2.237754166E-1,6.792211905E-3
4.237113438E0,-7.798790932E-2,2.182776332E-1,1.294429414E-3
4.239543438E0,-8.165310323E-2,2.170559019E-1,-4.814217798E-3
4.241974271E0,-7.920964062E-2,2.146124393E-1,-9.701135568E-3
4.244405886E0,-7.432273030E-2,2.060603350E-1,-9.701135568E-3
4.246836667E0,-6.882494688E-2,1.932321787E-1,-1.580978185E-2
4.249266667E0,-6.638148427E-2,1.901778579E-1,-1.764237694E-2
4.251697500E0,-5.721850693E-2,1.736845076E-1,-2.191843092E-2
4.254129115E0,-6.027284265E-2,1.767388284E-1,-2.375102416E-2
4.256559948E0,-5.294245481E-2,1.687975824E-1,-2.802707814E-2
4.258989896E0,-5.172072351E-2,1.681867242E-1,-2.741621248E-2
4.261420730E0,-4.133602977E-2,1.504716426E-1,-3.047053702E-2
4.263852344E0,-2.850787342E-2,1.290913820E-1,-3.169226646E-2
4.266283177E0,-2.728614211E-2,1.284805089E-1,-3.352485970E-2
4.268713125E0,-2.239922434E-2,1.248153225E-1,-2.985967137E-2
4.271144011E0,-1.445798576E-2,1.132088900E-1,-2.863794193E-2
4.273575573E0,-8.349336684E-3,1.064893752E-1,-2.741621248E-2
4.276006407E0,-8.960202336E-3,1.064893752E-1,-2.619448304E-2
4.278436355E0,2.035364509E-3,1.034350544E-1,-2.375102416E-2
4.280867240E0,6.311416626E-3,9.610467404E-2,-2.130756527E-2
4.283298855E0,1.608525217E-2,9.182862192E-2,-2.130756527E-2
4.285729636E0,2.158303559E-2,8.999603242E-2,-1.764237694E-2
4.288159636E0,2.585908771E-2,9.305035323E-2,-1.519891806E-2
4.290590469E0,2.708081901E-2,9.671553969E-2,-1.336632390E-2
4.293022084E0,3.685465455E-2,9.732640535E-2,-1.275545917E-2
4.295452865E0,3.990897909E-2,9.915900230E-2,-1.031200029E-2
4.297882865E0,3.441119567E-2,1.119871587E-1,-9.090270847E-3
4.300313698E0,3.441119567E-2,1.168740764E-1,-7.868541405E-3
4.302745313E0,3.990897909E-2,1.132088900E-1,-5.425082520E-3
4.305176094E0,4.113070667E-2,1.193175390E-1,-1.759894192E-3
4.307606094E0,3.013514355E-2,1.272587776E-1,7.269997150E-5
4.310036980E0,3.196773678E-2,1.303131133E-1,3.127023578E-3
4.312468542E0,3.380033001E-2,1.303131133E-1,6.181346253E-3
4.314899375E0,2.769168466E-2,1.272587776E-1,1.167912968E-2
4.317329323E0,2.646995336E-2,1.297022402E-1,1.351172291E-2
4.319760209E0,3.013514355E-2,1.235935912E-1,2.023123577E-2
4.322191771E0,2.341563255E-2,1.229827181E-1,2.084209956E-2
4.324622605E0,2.158303559E-2,1.248153225E-1,2.328555845E-2
4.327052552E0,2.036130801E-2,1.199283972E-1,3.000507317E-2
4.329483438E0,1.425265893E-2,1.187066734E-1,3.061593510E-2
4.331915052E0,1.608525217E-2,1.162632108E-1,3.489199281E-2
4.334345834E0,9.365744889E-3,1.162632108E-1,3.794631362E-2
4.336775834E0,1.364179701E-2,1.113762930E-1,3.794631362E-2
4.339206667E0,1.058746874E-2,1.101545617E-1,4.161150008E-2
4.341638282E0,6.922282279E-3,1.058785096E-1,4.161150008E-2
4.344069063E0,6.922282279E-3,1.034350544E-1,4.100063443E-2
4.346499063E0,8.136332035E-4,1.071002409E-1,4.344409704E-2
4.348929896E0,-4.080906510E-4,8.755256981E-2,4.161150008E-2
4.351361511E0,3.867961466E-3,8.877430111E-2,4.466582835E-2
4.353792344E0,-1.018956304E-3,9.060689062E-2,4.527668655E-2
4.356222292E0,-5.905874074E-3,8.633083850E-2,4.588755220E-2
4.358653177E0,-4.684150219E-3,6.678316742E-2,4.649841785E-2
4.361084740E0,-5.295008421E-3,6.739403307E-2,4.649841785E-2
4.363515573E0,-1.079279184E-2,6.556144357E-2,4.894188046E-2
4.365945521E0,-8.960202336E-3,5.028982833E-2,4.894188046E-2
4.368376407E0,-8.349336684E-3,4.112685472E-2,4.955274612E-2
4.370808021E0,-1.079279184E-2,3.013128974E-2,4.710928351E-2
4.373238802E0,-1.445798576E-2,2.952042408E-2,5.016360432E-2
4.375668750E0,-1.079279184E-2,2.096831799E-2,4.955274612E-2
4.378099636E0,-1.201452315E-2,1.730312966E-2,4.894188046E-2
4.380531250E0,-1.201452315E-2,9.972753003E-3,5.321793258E-2
4.382962032E0,-1.201452315E-2,5.696700420E-3,5.199620128E-2
4.385392032E0,-1.262538880E-2,3.864106257E-3,5.138533562E-2
4.387822865E0,-1.079279184E-2,-1.022811513E-3,4.955274612E-2
4.390254480E0,-1.140365750E-2,-4.077135120E-3,4.955274612E-2
4.392685313E0,-1.445798576E-2,-4.687999841E-3,5.077446997E-2
4.395115261E0,-9.571060538E-3,-4.687999841E-3,5.016360432E-2
4.397546146E0,-9.571060538E-3,-1.022811513E-3,5.321793258E-2
4.399977709E0,-1.201452315E-2,-1.633676235E-3,5.260706693E-2
4.402408542E0,-8.349336684E-3,-8.353188634E-3,5.077446997E-2
4.404838490E0,-7.738471031E-3,-5.909729283E-3,5.077446997E-2
4.407269375E0,-7.127605379E-3,-4.077135120E-3,5.260706693E-2
4.409700990E0,-5.295008421E-3,-4.077135120E-3,5.199620128E-2
4.412131771E0,-6.516739726E-3,1.420647372E-3,5.260706693E-2
4.414561719E0,-2.240687609E-3,-1.633676235E-3,5.260706693E-2
4.416992605E0,-4.080906510E-4,-2.855405677E-3,5.016360432E-2
4.419424219E0,-1.629821956E-3,-4.119467922E-4,5.077446997E-2
4.421855000E0,3.257095814E-3,-7.131458726E-3,5.199620128E-2
4.424285000E0,2.646230161E-3,-5.298864562E-3,4.894188046E-2
4.426715834E0,6.311416626E-3,-5.298864562E-3,5.077446997E-2
4.429147448E0,8.754879236E-3,-7.131458726E-3,5.138533562E-2
4.431578282E0,8.754879236E-3,-8.964052424E-3,5.199620128E-2
4.434008230E0,1.425265893E-2,-1.018578187E-2,5.077446997E-2
4.436439115E0,1.547439024E-2,-8.964052424E-3,5.321793258E-2
4.438870677E0,1.669611782E-2,-8.964052424E-3,5.016360432E-2
4.441301511E0,1.791784912E-2,-1.079664752E-2,5.016360432E-2
4.443731459E0,1.852871478E-2,-1.446183585E-2,5.138533562E-2
4.446162344E0,2.341563255E-2,-1.324010640E-2,4.955274612E-2
4.448593959E0,1.852871478E-2,-1.079664752E-2,4.772014916E-2
4.451024740E0,2.341563255E-2,-1.385097019E-2,4.833101481E-2
4.453454688E0,2.402649447E-2,-1.262924075E-2,4.588755220E-2
4.455885573E0,2.219390124E-2,-1.385097019E-2,4.772014916E-2
4.458317188E0,2.097216994E-2,-1.201837696E-2,4.955274612E-2
4.460747969E0,2.280476689E-2,-1.507269964E-2,4.588755220E-2
4.463177969E0,2.036130801E-2,-1.446183585E-2,4.894188046E-2
4.465608802E0,1.975044236E-2,-1.568356529E-2,4.894188046E-2
4.468040417E0,1.852871478E-2,-9.574918076E-3,5.138533562E-2
4.470471250E0,1.730698347E-2,-1.018578187E-2,5.016360432E-2
4.472901198E0,1.669611782E-2,-1.385097019E-2,5.138533562E-2
4.475332084E0,1.364179701E-2,-1.079664752E-2,4.955274612E-2
4.477763698E0,1.364179701E-2,-7.742323447E-3,5.138533562E-2
4.480194480E0,1.119833440E-2,-1.018578187E-2,5.077446997E-2
4.482624480E0,1.242006570E-2,-1.201837696E-2,5.077446997E-2
4.485055313E0,8.144013584E-3,-1.018578187E-2,5.016360432E-2
4.487486927E0,9.976610541E-3,-1.995961741E-2,5.138533562E-2
4.489917709E0,5.089685321E-3,-1.140751131E-2,4.710928351E-2
4.492347709E0,5.089685321E-3,-1.446183585E-2,4.894188046E-2
4.494778542E0,2.035364509E-3,-1.690529473E-2,4.894188046E-2
4.497210157E0,1.424498856E-3,-1.690529473E-2,4.894188046E-2
4.499640990E0,2.646230161E-3,-2.118134685E-2,4.894188046E-2
4.502070938E0,2.646230161E-3,-2.362480573E-2,4.649841785E-2
4.504501823E0,4.478827119E-3,-2.545740083E-2,4.955274612E-2
4.506933386E0,5.700550973E-3,-2.851172350E-2,4.955274612E-2
4.509364219E0,2.646230161E-3,-2.912258916E-2,4.894188046E-2
4.511794167E0,5.089685321E-3,-3.278777748E-2,4.833101481E-2
4.514225052E0,8.754879236E-3,-3.584209830E-2,5.382879823E-2
4.516656667E0,9.365744889E-3,-3.828555718E-2,5.138533562E-2
4.519087448E0,1.058746874E-2,-4.011815414E-2,5.016360432E-2
4.521517448E0,1.058746874E-2,-4.317247495E-2,4.833101481E-2
4.523948282E0,1.242006570E-2,-4.561593384E-2,5.077446997E-2
4.526379896E0,1.242006570E-2,-4.500507191E-2,4.894188046E-2
4.528810730E0,1.608525217E-2,-4.867025837E-2,4.955274612E-2
4.531240677E0,1.608525217E-2,-4.317247495E-2,4.833101481E-2
4.533671563E0,1.242006570E-2,-4.256160930E-2,4.833101481E-2
4.536103125E0,2.097216994E-2,-5.111371726E-2,4.466582835E-2
4.538533959E0,2.463736013E-2,-5.661150068E-2,4.405496269E-2
4.540963907E0,1.913957670E-2,-4.805939272E-2,4.222236574E-2
4.543394792E0,1.852871478E-2,-4.867025837E-2,4.405496269E-2
4.545826407E0,2.097216994E-2,-4.989198968E-2,4.405496269E-2
4.548257188E0,1.791784912E-2,-4.561593384E-2,4.222236574E-2
4.550687188E0,1.913957670E-2,-4.072901607E-2,4.405496269E-2
4.553118021E0,2.219390124E-2,-4.744852707E-2,4.100063443E-2
4.555549636E0,2.158303559E-2,-3.889642283E-2,4.161150008E-2
4.557980469E0,2.158303559E-2,-3.767469153E-2,4.527668655E-2
4.560410417E0,2.158303559E-2,-3.278777748E-2,4.405496269E-2
4.562841302E0,2.219390124E-2,-3.217691183E-2,4.527668655E-2
4.565272865E0,2.402649447E-2,-3.278777748E-2,4.344409704E-2
4.567703698E0,2.036130801E-2,-2.667913027E-2,4.283323139E-2
4.570133646E0,2.585908771E-2,-2.790085971E-2,4.649841785E-2
4.572564532E0,2.341563255E-2,-2.606826462E-2,4.405496269E-2
4.574996146E0,2.158303559E-2,-2.301394194E-2,4.344409704E-2
4.577426927E0,2.158303559E-2,-2.545740083E-2,4.527668655E-2
4.579856927E0,2.280476689E-2,-2.484653704E-2,4.588755220E-2
4.582287761E0,2.524822578E-2,-2.545740083E-2,4.710928351E-2
4.584719375E0,1.791784912E-2,-1.629442908E-2,5.016360432E-2
4.587150209E0,2.463736013E-2,-2.301394194E-2,4.772014916E-2
4.589580157E0,1.791784912E-2,-1.079664752E-2,4.649841785E-2
4.592011042E0,1.913957670E-2,-1.934875362E-2,5.077446997E-2
4.594442605E0,1.852871478E-2,-1.873788796E-2,5.260706693E-2
4.596873438E0,2.036130801E-2,-2.179221250E-2,4.955274612E-2
4.599303438E0,1.608525217E-2,-2.118134685E-2,5.016360432E-2
4.601734271E0,1.547439024E-2,-2.423567139E-2,5.138533562E-2
4.604165886E0,1.975044236E-2,-2.912258916E-2,5.260706693E-2
4.606596667E0,1.608525217E-2,-3.095518239E-2,5.016360432E-2
4.609026667E0,1.364179701E-2,-3.156604618E-2,5.138533562E-2
4.611457500E0,1.425265893E-2,-3.584209830E-2,5.260706693E-2
4.613889115E0,1.303093135E-2,-3.828555718E-2,5.443966389E-2
4.616319948E0,1.486352459E-2,-4.133988172E-2,5.199620128E-2
4.618749896E0,1.730698347E-2,-4.439420626E-2,5.321793258E-2
4.621180782E0,1.608525217E-2,-4.439420626E-2,5.199620128E-2
4.623612396E0,1.730698347E-2,-4.744852707E-2,5.688311905E-2
4.626043177E0,1.608525217E-2,-4.683766514E-2,5.688311905E-2
4.628473177E0,1.791784912E-2,-5.050285161E-2,5.382879823E-2
4.630904011E0,1.913957670E-2,-5.355717614E-2,5.505052954E-2
4.633335625E0,1.791784912E-2,-5.172458291E-2,5.505052954E-2
4.635766407E0,2.402649447E-2,-5.050285161E-2,5.321793258E-2
4.638196407E0,2.097216994E-2,-4.744852707E-2,5.566138774E-2
4.640627292E0,2.463736013E-2,-4.867025837E-2,5.443966389E-2
4.643058855E0,2.830255032E-2,-5.050285161E-2,5.382879823E-2
4.645489688E0,2.463736013E-2,-4.500507191E-2,5.382879823E-2
4.647919636E0,3.135687113E-2,-4.928112403E-2,5.627225339E-2
4.650350521E0,3.318946809E-2,-4.805939272E-2,5.505052954E-2
4.652782136E0,3.318946809E-2,-4.805939272E-2,5.566138774E-2
4.655212917E0,3.257860243E-2,-4.500507191E-2,5.566138774E-2
4.657642917E0,3.563292325E-2,-4.744852707E-2,5.749398470E-2
4.660073750E0,3.746552020E-2,-4.439420626E-2,5.871571600E-2
4.662505365E0,3.624378890E-2,-3.950728849E-2,5.993744731E-2
4.664936198E0,3.502206132E-2,-3.706382960E-2,5.749398470E-2
4.667366146E0,3.929811344E-2,-3.706382960E-2,5.871571600E-2
4.669797032E0,3.868724778E-2,-4.011815414E-2,5.932658166E-2
4.672228646E0,3.807638586E-2,-3.767469153E-2,5.810485035E-2
4.674659427E0,3.441119567E-2,-2.973345481E-2,5.871571600E-2
4.677089427E0,3.685465455E-2,-3.523123637E-2,5.749398470E-2
4.679520261E0,3.685465455E-2,-3.400950506E-2,5.627225339E-2
4.681951875E0,3.929811344E-2,-3.400950506E-2,5.505052954E-2
4.684382657E0,3.990897909E-2,-3.645296395E-2,5.505052954E-2
4.686812657E0,4.540675879E-2,-4.011815414E-2,5.382879823E-2
4.689243490E0,4.235243797E-2,-4.317247495E-2,5.321793258E-2
4.691675105E0,4.113070667E-2,-4.622679949E-2,5.443966389E-2
4.694105938E0,4.051984102E-2,-4.805939272E-2,5.321793258E-2
4.696535886E0,4.357416555E-2,-4.989198968E-2,5.138533562E-2
4.698966771E0,4.418503121E-2,-5.722236261E-2,4.772014916E-2
4.701398386E0,4.418503121E-2,-5.844409391E-2,4.466582835E-2
4.703829167E0,3.807638586E-2,-5.416804180E-2,4.344409704E-2
4.706259167E0,4.418503121E-2,-6.333101541E-2,4.344409704E-2
4.708690000E0,4.051984102E-2,-6.394188106E-2,3.794631362E-2
4.711121615E0,3.624378890E-2,-6.272014976E-2,3.794631362E-2
4.713552448E0,3.380033001E-2,-6.210928038E-2,3.733544797E-2
4.715982396E0,2.463736013E-2,-5.722236261E-2,3.489199281E-2
4.718413282E0,2.341563255E-2,-6.760706753E-2,3.367026150E-2
4.720844844E0,1.975044236E-2,-6.455274671E-2,3.244853020E-2
4.723275677E0,1.425265893E-2,-6.333101541E-2,3.244853020E-2
4.725705677E0,1.303093135E-2,-6.088755280E-2,3.183766454E-2
4.728136511E0,6.922282279E-3,-6.149841845E-2,3.122680075E-2
4.730568125E0,2.035364509E-3,-5.844409391E-2,2.939420752E-2
4.732998959E0,-4.080906510E-4,-5.783322826E-2,2.695074864E-2
4.735428907E0,-4.684150219E-3,-5.416804180E-2,3.183766454E-2
4.737859792E0,-8.960202336E-3,-4.989198968E-2,3.244853020E-2
4.740291355E0,-9.571060538E-3,-4.744852707E-2,2.939420752E-2
4.742722188E0,-7.738471031E-3,-5.172458291E-2,2.878334187E-2
4.745152136E0,-1.690144092E-2,-4.195074737E-2,3.000507317E-2
4.747583021E0,-1.690144092E-2,-3.950728849E-2,3.244853020E-2
4.750014636E0,-2.423182130E-2,-2.728999592E-2,3.305939585E-2
4.752445417E0,-2.606441081E-2,-1.812702417E-2,3.305939585E-2
4.754875417E0,-2.056662738E-2,-2.179221250E-2,3.244853020E-2
4.757306250E0,-2.667527646E-2,-9.574918076E-3,3.489199281E-2
4.759737865E0,-2.423182130E-2,-1.385097019E-2,3.550285101E-2
4.762168698E0,-2.301008999E-2,-2.855405677E-3,3.428112715E-2
4.764598646E0,-2.972959727E-2,4.474970978E-3,3.855717927E-2
4.767029532E0,-2.362095565E-2,4.474970978E-3,3.733544797E-2
4.769461146E0,-3.034046292E-2,9.361889213E-3,3.672458231E-2
4.771891927E0,-3.095132858E-2,1.119448245E-2,3.916804492E-2
4.774321927E0,-3.705997765E-2,1.241621189E-2,3.977891058E-2
4.776752761E0,-2.972959727E-2,-2.855405677E-3,3.733544797E-2
4.779184375E0,-3.156219423E-2,-8.964052424E-3,3.794631362E-2
4.781615209E0,-3.705997765E-2,-1.507269964E-2,3.855717927E-2
4.784045157E0,-2.911873162E-2,-2.484653704E-2,4.100063443E-2
4.786476042E0,-3.034046292E-2,-2.973345481E-2,4.038976878E-2
4.788907657E0,-3.217305988E-2,-3.828555718E-2,4.283323139E-2
4.791338438E0,-2.606441081E-2,-4.683766514E-2,4.283323139E-2
4.793768438E0,-2.239922434E-2,-5.172458291E-2,4.100063443E-2
4.796199271E0,-2.056662738E-2,-6.394188106E-2,4.100063443E-2
4.798630886E0,-2.301008999E-2,-6.699620187E-2,4.344409704E-2
4.801061719E0,-1.506884396E-2,-7.860263437E-2,3.977891058E-2
4.803491667E0,-1.567970961E-2,-7.982436568E-2,4.222236574E-2
4.805922552E0,-1.201452315E-2,-9.081992507E-2,3.977891058E-2
4.808354115E0,-1.201452315E-2,-8.959820122E-2,4.283323139E-2
4.810784948E0,-3.462418914E-3,-9.937203676E-2,4.466582835E-2
4.813214948E0,2.027750015E-4,-1.042589545E-1,4.344409704E-2
4.815645782E0,6.922282279E-3,-1.085350066E-1,4.466582835E-2
4.818077396E0,9.365744889E-3,-1.140327901E-1,4.833101481E-2
4.820508230E0,1.547439024E-2,-1.176979765E-1,4.588755220E-2
4.822938177E0,1.608525217E-2,-1.207522973E-1,4.955274612E-2
4.825369063E0,2.646995336E-2,-1.299152672E-1,4.710928351E-2
4.827800625E0,2.341563255E-2,-1.244174913E-1,4.955274612E-2
4.830231459E0,2.708081901E-2,-1.268609464E-1,5.016360432E-2
4.832661407E0,3.318946809E-2,-1.256392151E-1,4.833101481E-2
4.835092292E0,3.257860243E-2,-1.293043941E-1,5.260706693E-2
4.837523907E0,3.746552020E-2,-1.305261254E-1,5.627225339E-2
4.839954740E0,3.257860243E-2,-1.268609464E-1,5.749398470E-2
4.842384688E0,3.929811344E-2,-1.396891028E-1,5.810485035E-2
4.844815573E0,4.051984102E-2,-1.390782297E-1,5.810485035E-2
4.847247136E0,5.029367656E-2,-1.421325505E-1,6.115917116E-2
4.849677969E0,4.601762444E-2,-1.360239089E-1,6.115917116E-2
4.852107917E0,4.296330363E-2,-1.335804462E-1,6.360263377E-2
4.854538802E0,5.273713917E-2,-1.384673715E-1,6.299176812E-2
4.856970417E0,4.723935574E-2,-1.354130507E-1,6.421349943E-2
4.859401198E0,4.785022140E-2,-1.372456402E-1,6.726782024E-2
4.861831198E0,4.601762444E-2,-1.366347671E-1,6.543522328E-2
4.864262084E0,4.846108332E-2,-1.451868862E-1,6.543522328E-2
4.866693646E0,4.296330363E-2,-1.409108341E-1,7.093300670E-2
4.869124480E0,4.723935574E-2,-1.451868862E-1,7.032214850E-2
