"Time (s)","Acceleration x (m/s^2)","Acceleration y (m/s^2)","Acceleration z (m/s^2)"
1.379820000E-1,-2.842004299E0,6.811711788E0,6.526793003E0
1.399820000E-1,-2.842004299E0,6.811711788E0,6.526793003E0
1.419690000E-1,-2.842004299E0,6.811711788E0,6.526793003E0
1.439596660E-1,-2.842004299E0,6.811711788E0,6.526793003E0
1.459596660E-1,-5.602602959E-1,6.723123550E0,8.011243820E0
1.479596660E-1,-5.554717779E-1,6.656084061E0,7.905895233E0
1.499593320E-1,-5.554717779E-1,6.550735950E0,7.661679268E0
1.519590460E-1,-5.818088055E-1,6.445387840E0,7.431828976E0
1.539587960E-1,-6.057515144E-1,6.419050694E0,7.333663940E0
1.559585730E-1,-6.727912426E-1,6.373559475E0,7.156487465E0
1.579583730E-1,-7.709565163E-1,6.318490982E0,7.005648136E0
1.599581910E-1,-1.043903828E0,6.275394440E0,6.782980442E0
1.619558570E-1,-1.043903828E0,6.275394440E0,6.782980442E0
1.639557030E-1,-1.110943556E0,6.263422966E0,6.735095024E0
1.659554170E-1,-1.175588965E0,6.253845692E0,6.687209606E0
1.679551500E-1,-1.314456820E0,6.268211365E0,6.644112587E0
1.699549000E-1,-1.362342358E0,6.268211365E0,6.629746914E0
1.719546640E-1,-1.419804931E0,6.277788639E0,6.636929989E0
1.739544410E-1,-1.460507631E0,6.294548512E0,6.634535313E0
1.759542300E-1,-1.446141958E0,6.301731110E0,6.646506786E0
1.779540300E-1,-1.417410731E0,6.318490982E0,6.684815407E0
1.799538390E-1,-1.376708031E0,6.316096783E0,6.718335152E0
1.819523840E-1,-1.376708031E0,6.316096783E0,6.718335152E0
1.839521230E-1,-1.374313712E0,6.294548512E0,6.735095024E0
1.859518730E-1,-1.391073704E0,6.277788639E0,6.747066498E0
1.879516330E-1,-1.424593568E0,6.229903221E0,6.811711788E0
1.899514020E-1,-1.474873304E0,6.191594601E0,6.876357079E0
1.919511790E-1,-1.496421814E0,6.174834728E0,6.888328552E0
1.939509640E-1,-1.541913033E0,6.131737709E0,6.905088425E0
1.959507570E-1,-1.606558442E0,6.069486618E0,6.895511627E0
1.979504900E-1,-1.628106833E0,6.050332546E0,6.873962879E0
1.999502230E-1,-1.704723716E0,6.043149471E0,6.699181080E0
2.019499560E-1,-1.716695070E0,6.043149471E0,6.646506786E0
2.039497890E-1,-1.716695070E0,6.043149471E0,6.646506786E0
2.059495220E-1,-1.755003452E0,6.043149471E0,6.548341751E0
2.079492550E-1,-1.769369125E0,6.059909344E0,6.512427330E0
2.099490550E-1,-1.750214934E0,6.103006363E0,6.459753513E0
2.119488550E-1,-1.678386688E0,6.162863255E0,6.452570438E0
2.139481550E-1,-1.635289669E0,6.193988800E0,6.495667458E0
2.159478880E-1,-1.486844659E0,6.289760113E0,6.816500187E0
2.179476210E-1,-1.266571403E0,6.414262295E0,7.269018173E0
2.199473540E-1,-6.584255695E-1,6.713546753E0,8.123774529E0
2.219470870E-1,-6.584255695E-1,6.713546753E0,8.123774529E0
2.239472870E-1,-6.584255695E-1,6.713546753E0,8.123774529E0
2.259470870E-1,-3.902668059E-1,6.850020409E0,8.063917160E0
2.279468530E-1,-1.699935049E-1,6.950579643E0,7.688016415E0
2.299466190E-1,-9.577099234E-2,6.988888264E0,7.498868465E0
2.319463850E-1,-2.154847234E-2,7.020013809E0,7.213950157E0
2.339461510E-1,3.351984918E-2,6.945791245E0,7.132544518E0
2.359459170E-1,3.830839694E-2,6.878751755E0,7.168458939E0
2.379456830E-1,-2.394274808E-3,6.749460697E0,7.319298267E0
2.399454490E-1,-2.609759569E-1,6.586649895E0,7.853221416E0
2.419452490E-1,-2.609759569E-1,6.586649895E0,7.853221416E0
2.439441150E-1,-3.112557232E-1,6.589044094E0,7.999272346E0
2.459438810E-1,-3.519583941E-1,6.591438770E0,8.123774529E0
2.479436470E-1,-4.357580245E-1,6.584255695E0,8.291373253E0
2.499434130E-1,-5.411061049E-1,6.572284222E0,8.413481712E0
2.519431790E-1,-6.057515144E-1,6.567495823E0,8.442213058E0
2.539429450E-1,-7.422251701E-1,6.512427330E0,8.435029984E0
2.559427110E-1,-8.763045669E-1,6.407079220E0,8.286584854E0
2.579425440E-1,-9.529213905E-1,6.344828129E0,8.190814018E0
2.599423100E-1,-1.254600048E0,6.047938347E0,7.788576126E0
2.619420760E-1,-1.309668303E0,5.966532707E0,7.699987888E0
2.639417420E-1,-1.309668303E0,5.966532707E0,7.699987888E0
2.659415080E-1,-1.350371003E0,5.863578796E0,7.537177086E0
2.679412740E-1,-1.345582485E0,5.818087578E0,7.441406250E0
2.699410400E-1,-1.290514112E0,5.760625362E0,7.269018173E0
2.719408060E-1,-1.108549237E0,5.830059052E0,7.180429935E0
2.739410720E-1,-1.015172482E0,5.880339146E0,7.134938717E0
2.759408380E-1,-8.116591573E-1,6.031178474E0,7.039167881E0
2.779412380E-1,-6.919454336E-1,6.124555111E0,6.984099388E0
2.799410040E-1,-1.436564922E-1,6.648900986E0,6.782980442E0
2.819407700E-1,-1.436564922E-1,6.648900986E0,6.782980442E0
2.839400700E-1,-1.436564922E-1,6.648900986E0,6.782980442E0
2.859398360E-1,4.788549617E-3,6.838048935E0,6.706363678E0
2.879396360E-1,8.379961550E-2,6.988888264E0,6.605803967E0
2.899394360E-1,9.098244458E-2,7.043956280E0,6.557918549E0
2.919398360E-1,6.943397224E-2,7.130150318E0,6.457359314E0
2.939395690E-1,-1.436564885E-2,7.163670063E0,6.363982677E0
2.959393020E-1,-6.703969836E-2,7.204372883E0,6.316096783E0
2.979398020E-1,-1.963305324E-1,7.206767082E0,6.217931747E0
2.999395350E-1,-3.423812985E-1,7.211555958E0,6.057515144E0
3.019393010E-1,-3.423812985E-1,7.211555958E0,6.057515144E0
3.039400010E-1,-3.495641351E-1,7.206767082E0,6.033572674E0
3.059398010E-1,-3.543526828E-1,7.199584484E0,6.009629726E0
3.079395340E-1,-3.328042030E-1,7.204372883E0,5.985687256E0
3.099392670E-1,-2.681587934E-1,7.206767082E0,6.014418125E0
3.119390000E-1,-2.370332032E-1,7.228315830E0,6.038361073E0
3.139387330E-1,-1.532335877E-1,7.280989647E0,6.117372036E0
3.159384660E-1,-1.029538140E-1,7.300143719E0,6.148497581E0
3.179381990E-1,-4.788549617E-3,7.328875065E0,6.222720146E0
3.199379990E-1,5.746259540E-2,7.362394810E0,6.481301785E0
3.219377320E-1,6.464541703E-2,7.338452339E0,6.565101624E0
3.239374650E-1,6.464541703E-2,7.338452339E0,6.565101624E0
3.259371980E-1,4.788549617E-2,7.278595448E0,6.735095024E0
3.279369310E-1,5.027977005E-2,7.259441376E0,6.811711788E0
3.299366640E-1,6.464541703E-2,7.209161282E0,6.945791245E0
3.319363970E-1,9.337671846E-2,7.187613010E0,7.012830734E0
3.339361300E-1,1.053480953E-1,7.091842175E0,7.163670063E0
3.359359300E-1,8.619388938E-2,7.015225410E0,7.340846539E0
3.379350300E-1,6.703969836E-2,6.957762718E0,7.427040577E0
3.399347630E-1,7.182824425E-3,6.727912426E0,7.702382088E0
3.419344960E-1,-1.436564885E-2,6.665660858E0,7.747873306E0
3.439342290E-1,-1.436564885E-2,6.665660858E0,7.747873306E0
3.459339620E-1,-5.267404765E-2,6.550735950E0,7.805335999E0
3.479336950E-1,-6.464541703E-2,6.471724987E0,7.838855743E0
3.499334280E-1,-4.070267081E-2,6.452570438E0,7.846038342E0
3.519325610E-1,1.197137404E-2,6.450176239E0,7.848433018E0
3.539322940E-1,4.788549617E-2,6.452570438E0,7.819701672E0
3.559320270E-1,9.816526622E-2,6.488484859E0,7.786181450E0
3.579309930E-1,1.747820675E-1,6.557918549E0,7.750267506E0
3.599307260E-1,3.615354896E-1,6.725517750E0,7.625765324E0
3.619304590E-1,3.615354896E-1,6.725517750E0,7.625765324E0
3.639301920E-1,4.022381604E-1,6.739883423E0,7.582668304E0
3.659299250E-1,4.309694767E-1,6.744672298E0,7.532388687E0
3.679297250E-1,5.315290093E-1,6.742278099E0,7.467742920E0
3.699294580E-1,5.842030644E-1,6.742278099E0,7.458166122E0
3.719291910E-1,7.087053657E-1,6.749460697E0,7.474925995E0
3.739289240E-1,8.164477348E-1,6.768614769E0,7.515628815E0
3.759286570E-1,8.763045669E-1,6.778192043E0,7.544359684E0
3.779283900E-1,9.792584181E-1,6.830865860E0,7.599428177E0
3.799281230E-1,1.101366401E0,6.952973843E0,7.599428177E0
3.819279230E-1,1.134886265E0,6.984099388E0,7.563514233E0
3.839279230E-1,1.134886265E0,6.984099388E0,7.563514233E0
3.859276560E-1,1.187560320E0,7.017619610E0,7.424646378E0
3.879269560E-1,1.221080184E0,7.106207848E0,7.343240738E0
3.899266890E-1,1.331216812E0,7.175641537E0,7.156487465E0
3.919264220E-1,1.400650740E0,7.235498428E0,7.055927753E0
3.939261550E-1,1.539518714E0,7.357606411E0,6.845231533E0
3.959258880E-1,1.661626697E0,7.501263142E0,6.632141113E0
3.979256880E-1,1.685569525E0,7.573091030E0,6.533976078E0
3.999254210E-1,1.642472506E0,7.783787251E0,6.160469055E0
4.019251540E-1,1.599375606E0,7.807730198E0,6.079063892E0
4.039248870E-1,1.599375606E0,7.807730198E0,6.079063892E0
4.059246200E-1,1.522758722E0,7.817307472E0,5.923435688E0
4.079243530E-1,1.479661822E0,7.793364525E0,5.854001999E0
4.099240860E-1,1.381496549E0,7.690410614E0,5.710345268E0
4.119238190E-1,1.297696948E0,7.537177086E0,5.626545906E0
4.139236850E-1,1.261782765E0,7.443800449E0,5.621757030E0
4.159234180E-1,1.213897347E0,7.240286827E0,5.672037125E0
4.179231510E-1,1.151646137E0,7.015225410E0,5.774991035E0
4.199228840E-1,1.067846537E0,6.569890022E0,6.045543671E0
4.219226170E-1,1.067846537E0,6.569890022E0,6.045543671E0
4.239228170E-1,1.053480864E0,6.569890022E0,6.045543671E0
4.259225500E-1,1.051086664E0,6.371165276E0,6.186806202E0
4.279213500E-1,1.043903828E0,6.205960274E0,6.320885658E0
4.299211500E-1,1.055875182E0,6.141314983E0,6.366376877E0
4.319208830E-1,1.063058019E0,6.002447128E0,6.423839092E0
4.339206160E-1,1.036720991E0,5.899493217E0,6.409473896E0
4.359203490E-1,1.017566800E0,5.858790398E0,6.387925148E0
4.379200820E-1,9.601042271E-1,5.801327705E0,6.301731110E0
4.399198150E-1,7.422251701E-1,5.760625362E0,6.227508545E0
4.419195480E-1,7.422251701E-1,5.760625362E0,6.227508545E0
4.439190810E-1,6.943396926E-1,5.782173634E0,6.237085819E0
4.459188810E-1,6.560313106E-1,5.813299179E0,6.258634567E0
4.479190470E-1,6.033572555E-1,5.906675816E0,6.323279858E0
4.499187800E-1,6.201171875E-1,6.040755272E0,6.385530949E0
4.519185130E-1,6.392713785E-1,6.122160912E0,6.421444893E0
4.539184460E-1,7.278595567E-1,6.335251331E0,6.471724987E0
4.559181790E-1,8.595446348E-1,6.543552876E0,6.483695984E0
4.579179120E-1,9.337671995E-1,6.636929989E0,6.474119186E0
4.599177120E-1,1.228263021E0,7.005648136E0,6.380742550E0
4.619175120E-1,1.340793848E0,7.005648136E0,6.361588001E0
4.639170450E-1,1.340793848E0,7.084659100E0,6.361588001E0
4.659167780E-1,1.532335877E0,7.230710030E0,6.320885658E0
4.679165110E-1,1.613741279E0,7.280989647E0,6.306519985E0
4.699162440E-1,1.759791970E0,7.371972084E0,6.320885658E0
4.719159770E-1,1.865140080E0,7.419857502E0,6.366376877E0
4.739156430E-1,1.898659945E0,7.427040577E0,6.404685020E0
4.759154430E-1,1.956122518E0,7.434223175E0,6.526793003E0
4.779151760E-1,2.011190891E0,7.429434776E0,6.648900986E0
4.799149090E-1,2.178790092E0,7.393520832E0,6.763826370E0
4.819146420E-1,2.178790092E0,7.400703430E0,6.778192043E0
4.839134420E-1,2.178790092E0,7.400703430E0,6.778192043E0
4.859131750E-1,2.317657948E0,7.429434776E0,6.787769318E0
4.879140410E-1,2.533142805E0,7.443800449E0,6.749460697E0
4.899137740E-1,2.640885115E0,7.455771923E0,6.730306625E0
4.919135740E-1,2.827638626E0,7.455771923E0,6.711152077E0
4.939133070E-1,3.007209063E0,7.422251701E0,6.672843933E0
4.959130400E-1,3.062277555E0,7.381549358E0,6.651295185E0
4.979127730E-1,3.112557173E0,7.266623974E0,6.581861496E0
4.999125060E-1,2.839609861E0,6.727912426E0,6.555524349E0
5.019122390E-1,2.839609861E0,6.727912426E0,6.555524349E0
5.039127390E-1,2.655250788E0,6.440599442E0,6.624958515E0
5.059124720E-1,2.578634024E0,6.328068256E0,6.601015568E0
5.079122720E-1,2.597788095E0,6.423839092E0,6.447782040E0
5.099120050E-1,2.624125242E0,6.629746914E0,6.316096783E0
5.119117380E-1,2.638490915E0,6.739883423E0,6.241874218E0
5.139112710E-1,2.578634024E0,6.936213970E0,6.074275017E0
5.159110040E-1,2.439765930E0,7.022408009E0,6.002447128E0
5.179107370E-1,2.355966330E0,7.151699066E0,5.913858891E0
5.199104700E-1,1.972882390E0,7.206767082E0,6.093429565E0
5.219102030E-1,1.972882390E0,7.206767082E0,6.093429565E0
5.239102030E-1,1.869928598E0,7.221132755E0,6.050332546E0
5.259095030E-1,1.735849261E0,7.233104229E0,5.751048088E0
5.279092360E-1,1.719089270E0,7.223526955E0,5.573871613E0
5.299089690E-1,1.781340480E0,7.149304390E0,5.351204395E0
5.319087020E-1,1.948939681E0,7.106207848E0,5.214730740E0
5.339084350E-1,2.056682110E0,7.096630573E0,5.142902374E0
5.359081680E-1,2.236252785E0,7.065505028E0,5.047131062E0
5.379079680E-1,2.327235222E0,7.048745155E0,5.035160065E0
5.399077680E-1,2.533142805E0,6.888328552E0,5.154873848E0
5.419075010E-1,2.557085514E0,6.847625732E0,5.212336063E0
5.439077010E-1,2.557085514E0,6.847625732E0,5.212336063E0
5.459074340E-1,2.588211060E0,6.742278099E0,5.353598595E0
5.479069670E-1,2.619336605E0,6.653689861E0,5.566689014E0
5.499067000E-1,2.645673752E0,6.617775440E0,5.691191196E0
5.519064330E-1,2.688770533E0,6.557918549E0,5.913858891E0
5.539062330E-1,2.739050388E0,6.526793003E0,6.038361073E0
5.559060330E-1,2.842004299E0,6.488484859E0,6.275394440E0
5.579057660E-1,2.992843628E0,6.447782040E0,6.454965115E0
5.599054990E-1,3.383110285E0,6.380742550E0,6.639324188E0
5.619052320E-1,3.383110285E0,6.380742550E0,6.639324188E0
5.639043320E-1,3.488458395E0,6.380742550E0,6.641718388E0
5.659040650E-1,3.596200705E0,6.375953674E0,6.641718388E0
5.679037980E-1,3.778165579E0,6.318490982E0,6.646506786E0
5.699035980E-1,3.912245035E0,6.284971237E0,6.639324188E0
5.719033310E-1,3.979284763E0,6.186806202E0,6.639324188E0
5.739030640E-1,4.082238674E0,6.093429565E0,6.639324188E0
5.759027970E-1,4.137306690E0,6.050332546E0,6.648900986E0
5.779025300E-1,4.240260601E0,5.988081455E0,6.665660858E0
5.799022630E-1,4.407859802E0,5.875550270E0,6.672843933E0
5.819019960E-1,4.407859802E0,5.875550270E0,6.672843933E0
5.839017290E-1,4.436591148E0,5.868367672E0,6.660872459E0
5.859019620E-1,4.489265442E0,5.892310143E0,6.632141113E0
5.879016950E-1,4.510813713E0,5.894704342E0,6.610592842E0
5.899014280E-1,4.563488007E0,5.935407162E0,6.545947552E0
5.919011610E-1,4.599401951E0,5.964138508E0,6.510033131E0
5.939008940E-1,4.644893169E0,6.033572674E0,6.459753513E0
5.959006270E-1,4.661653042E0,6.086246490E0,6.419050694E0
5.979003600E-1,4.666441441E0,6.112583637E0,6.395108223E0
5.999000930E-1,4.594613552E0,6.356799603E0,6.313702583E0
6.018998930E-1,4.594613552E0,6.356799603E0,6.313702583E0
6.038996930E-1,4.594613552E0,6.356799603E0,6.313702583E0
6.058994260E-1,4.551516533E0,6.466936111E0,6.323279858E0
6.078991590E-1,4.477293968E0,6.519610405E0,6.328068256E0
6.098988920E-1,4.424619675E0,6.627352715E0,6.371165276E0
6.118986250E-1,4.345608711E0,6.715940952E0,6.395108223E0
6.138983580E-1,4.302511692E0,6.751854897E0,6.414262295E0
6.158980910E-1,4.178009510E0,6.809317589E0,6.459753513E0
6.178978910E-1,4.046324253E0,6.859597206E0,6.510033131E0
6.198976240E-1,3.737462997E0,6.929031372E0,6.644112587E0
6.218973570E-1,3.663240433E0,6.924242973E0,6.696786404E0
6.238970230E-1,3.663240433E0,6.924242973E0,6.696786404E0
6.258967560E-1,3.596200705E0,6.919454098E0,6.756643295E0
6.278964890E-1,3.464515686E0,6.924242973E0,6.873962879E0
6.298957890E-1,3.397475958E0,6.926637173E0,6.924242973E0
6.318955890E-1,3.270579338E0,6.902694225E0,7.036773682E0
6.338953890E-1,3.148471355E0,6.888328552E0,7.149304390E0
6.358951220E-1,3.081431627E0,6.881145954E0,7.206767082E0
6.378948550E-1,2.983266354E0,6.859597206E0,7.292961121E0
6.398945880E-1,2.911438227E0,6.823683262E0,7.398309231E0
6.418942540E-1,2.911438227E0,6.823683262E0,7.398309231E0
6.438939870E-1,2.892283916E0,6.787769318E0,7.419857502E0
6.458937200E-1,2.887495518E0,6.768614769E0,7.415069103E0
6.478935200E-1,2.873129845E0,6.747066498E0,7.388731956E0
6.498932860E-1,2.868341208E0,6.735095024E0,7.362394810E0
6.518930520E-1,2.865947008E0,6.727912426E0,7.352818012E0
6.538923850E-1,2.877918243E0,6.735095024E0,7.338452339E0
6.558921510E-1,2.909043789E0,6.739883423E0,7.295355320E0
6.578919170E-1,2.935380936E0,6.751854897E0,7.271412373E0
6.598916830E-1,3.076643229E0,6.830865860E0,7.144515991E0
6.618914490E-1,3.076643229E0,6.830865860E0,7.144515991E0
6.638912150E-1,3.117345810E0,6.854808807E0,7.108602047E0
6.658909810E-1,3.184385538E0,6.905088425E0,7.031985283E0
6.678907470E-1,3.234665155E0,6.919454098E0,6.986494064E0
6.698905130E-1,3.311282158E0,6.984099388E0,6.907482624E0
6.718902790E-1,3.375927448E0,7.022408009E0,6.864386082E0
6.738900450E-1,3.387898922E0,7.039167881E0,6.847625732E0
6.758898110E-1,3.361561775E0,7.055927753E0,6.809317589E0
6.778895770E-1,3.325647593E0,7.084659100E0,6.790163517E0
6.798894100E-1,3.131711483E0,7.120573044E0,6.811711788E0
6.818891760E-1,3.131711483E0,7.120573044E0,6.811711788E0
6.838890090E-1,3.131711483E0,7.120573044E0,6.811711788E0
6.858887750E-1,2.954535007E0,7.185218811E0,6.869174480E0
6.878885410E-1,2.729473352E0,7.209161282E0,6.984099388E0
6.898887410E-1,2.602576733E0,7.213950157E0,7.067899227E0
6.918885070E-1,2.334417820E0,7.197190285E0,7.285778046E0
6.938882730E-1,2.078230619E0,7.175641537E0,7.518023014E0
6.958881060E-1,1.958516836E0,7.166064739E0,7.630553722E0
6.978878720E-1,1.735849261E0,7.175641537E0,7.884346962E0
6.998876380E-1,1.302485466E0,7.242681503E0,8.425453186E0
7.018874710E-1,1.302485466E0,7.242681503E0,8.425453186E0
7.038876710E-1,1.211503029E0,7.266623974E0,8.533195496E0
7.058874370E-1,1.122914910E0,7.285778046E0,8.638543129E0
7.078872030E-1,9.481328130E-1,7.321692467E0,8.830085754E0
7.098870030E-1,7.733507752E-1,7.352818012E0,8.966559410E0
7.118868030E-1,6.871568561E-1,7.362394810E0,9.024022102E0
7.138869690E-1,5.147690773E-1,7.362394810E0,9.083878517E0
7.158867020E-1,3.591412306E-1,7.343240738E0,9.064723969E0
7.178864350E-1,2.801301479E-1,7.324086666E0,9.012050629E0
7.198861680E-1,9.098244458E-2,7.247469902E0,8.516435623E0
7.218859010E-1,9.098244458E-2,7.247469902E0,8.516435623E0
7.238856340E-1,3.830839694E-2,7.218738556E0,8.336864471E0
7.258854340E-1,9.577099234E-3,7.144515991E0,7.915472507E0
7.278851670E-1,3.591412306E-2,7.108602047E0,7.680833817E0
7.298849000E-1,1.532335877E-1,7.034379482E0,7.144515991E0
7.318846330E-1,3.351984620E-1,6.960156918E0,6.517216206E0
7.338839330E-1,4.692778587E-1,6.924242973E0,6.193988800E0
7.358836660E-1,7.541965842E-1,6.845231533E0,5.595420361E0
7.378833990E-1,9.074301720E-1,6.799740314E0,5.341627121E0
7.398831320E-1,1.836408734E0,6.483695984E0,4.723904133E0
7.418829320E-1,1.836408734E0,6.483695984E0,4.723904133E0
7.438833980E-1,1.836408734E0,6.483695984E0,4.723904133E0
7.458831310E-1,2.197944164E0,6.361588001E0,4.716721535E0
7.478828640E-1,2.535537004E0,6.241874218E0,4.776578426E0
7.498825970E-1,2.683982134E0,6.189200401E0,4.824463844E0
7.518823300E-1,2.968900681E0,6.093429565E0,4.944177628E0
7.538820630E-1,3.210722446E0,6.057515144E0,5.097411156E0
7.558817960E-1,3.301704884E0,5.990475655E0,5.166844845E0
7.578806620E-1,3.438178539E0,5.947378635E0,5.293741703E0
7.598803950E-1,3.505218267E0,5.928224564E0,5.573871613E0
7.618801280E-1,3.505218267E0,5.928224564E0,5.573871613E0
7.638793610E-1,3.510006905E0,5.911464691E0,5.638517380E0
7.658790940E-1,3.488458395E0,5.882733345E0,5.715134144E0
7.678788270E-1,3.421418667E0,5.887521744E0,5.916253090E0
7.698785600E-1,3.335224867E0,5.978504181E0,6.124555111E0
7.718782930E-1,3.282550812E0,6.045543671E0,6.217931747E0
7.738780930E-1,3.146077156E0,6.162863255E0,6.363982677E0
7.758778260E-1,3.067065954E0,6.215537548E0,6.428627968E0
7.778775590E-1,2.911438227E0,6.299336910E0,6.519610405E0
7.798772920E-1,2.554691315E0,6.318490982E0,6.517216206E0
7.818770250E-1,2.466103077E0,6.306519985E0,6.488484859E0
7.838770910E-1,2.466103077E0,6.306519985E0,6.488484859E0
7.858768240E-1,2.288926601E0,6.256239891E0,6.411868095E0
7.878766240E-1,2.197944164E0,6.227508545E0,6.359193802E0
7.898764240E-1,2.030344963E0,6.213143349E0,6.237085819E0
7.918761570E-1,1.965699673E0,6.208354473E0,6.172440529E0
7.938763230E-1,1.850774407E0,6.193988800E0,6.038361073E0
7.958760560E-1,1.745426297E0,6.198777676E0,5.904281616E0
7.978757890E-1,1.699935079E0,6.189200401E0,5.851607800E0
7.998755220E-1,1.532335877E0,6.079063892E0,5.535563469E0
8.018752550E-1,1.532335877E0,6.079063892E0,5.535563469E0
8.038743210E-1,1.532335877E0,6.079063892E0,5.535563469E0
8.058741210E-1,1.484450340E0,6.009629726E0,5.377541065E0
8.078738540E-1,1.491633177E0,5.952167034E0,5.231490612E0
8.098735870E-1,1.491633177E0,5.933012962E0,5.174027920E0
8.118733200E-1,1.498816013E0,5.889915943E0,5.116565228E0
8.138730530E-1,1.508393168E0,5.868367672E0,5.099805355E0
8.158727860E-1,1.541913033E0,5.844424725E0,5.085439682E0
8.178734520E-1,1.556278586E0,5.830059052E0,5.080651283E0
8.198732520E-1,1.735849261E0,5.923435688E0,4.917840481E0
8.218729850E-1,1.735849261E0,5.923435688E0,4.917840481E0
8.238727850E-1,1.771763325E0,5.949772835E0,4.934600353E0
8.258725180E-1,1.795706153E0,5.959350109E0,4.989668846E0
8.278722510E-1,1.807677507E0,5.966532707E0,5.104593754E0
8.298719840E-1,1.819648862E0,5.968926907E0,5.142902374E0
8.318717170E-1,1.877111435E0,5.916253090E0,5.183605194E0
8.338714500E-1,1.975276709E0,5.849213123E0,5.229096413E0
8.358712500E-1,2.049499273E0,5.844424725E0,5.219519138E0
8.378709160E-1,2.238646984E0,5.822876453E0,5.123748302E0
8.398706490E-1,2.930592299E0,5.870761871E0,4.925023079E0
8.418703820E-1,2.930592299E0,5.870761871E0,4.925023079E0
8.438697820E-1,3.165231228E0,5.901887417E0,4.891503334E0
8.458695150E-1,3.739857197E0,5.930618763E0,4.877137661E0
8.478692480E-1,4.067873001E0,5.949772835E0,4.905869007E0
8.498689810E-1,4.786155224E0,5.923435688E0,5.042342663E0
8.518687810E-1,5.150084972E0,5.873156071E0,5.140508175E0
8.538685140E-1,5.794145107E0,5.722316742E0,5.274587631E0
8.558682470E-1,6.198777676E0,5.561900616E0,5.260221958E0
8.578679800E-1,6.282577038E0,5.485283375E0,5.190787792E0
8.598677130E-1,5.712739468E0,5.128536701E0,4.711932659E0
8.618674460E-1,5.712739468E0,5.066285610E0,4.637710094E0
8.638670460E-1,5.712739468E0,5.066285610E0,4.637710094E0
8.658667790E-1,5.408666611E0,5.006428719E0,4.616161823E0
8.678665790E-1,5.274587631E0,5.011217117E0,4.676018715E0
8.698663450E-1,5.042342663E0,5.078257084E0,4.877137661E0
8.718661110E-1,4.824463844E0,5.205153465E0,5.121353626E0
8.738658770E-1,4.709538460E0,5.269798756E0,5.219519138E0
8.758656430E-1,4.446168423E0,5.415849686E0,5.346415520E0
8.778654090E-1,4.132518291E0,5.561900616E0,5.339232922E0
8.798651750E-1,3.636903524E0,5.810904980E0,5.188393593E0
8.818650080E-1,3.636903524E0,5.810904980E0,5.188393593E0
8.838648410E-1,3.548315287E0,5.810904980E0,5.188393593E0
8.858647070E-1,3.486064196E0,5.961744308E0,5.099805355E0
8.878645730E-1,3.404658794E0,6.088640690E0,5.039948463E0
8.898644390E-1,3.361561775E0,6.138920784E0,5.020794392E0
8.918643050E-1,3.261002302E0,6.208354473E0,4.975303173E0
8.938641710E-1,3.138894320E0,6.249057293E0,4.905869007E0
8.958640370E-1,3.050306082E0,6.232297421E0,4.860377789E0
8.978640370E-1,2.830032825E0,6.124555111E0,4.802915096E0
8.998639700E-1,2.470891714E0,6.050332546E0,4.637710094E0
9.018639030E-1,2.470891714E0,6.050332546E0,4.637710094E0
9.038638360E-1,2.411034822E0,6.033572674E0,4.589824677E0
9.058637690E-1,2.348783493E0,6.016812801E0,4.549122334E0
9.078637020E-1,2.245829821E0,6.002447128E0,4.467716694E0
9.098636350E-1,2.193155766E0,5.978504181E0,4.350397110E0
9.118635680E-1,2.190761566E0,5.959350109E0,4.273780346E0
9.138635680E-1,2.214704275E0,5.966532707E0,4.130124092E0
9.158635340E-1,2.281744003E0,5.956955910E0,4.043930054E0
9.178635000E-1,2.324840784E0,5.956955910E0,4.003227711E0
9.198634660E-1,2.590605259E0,6.004841328E0,3.905062199E0
9.218634320E-1,2.679193497E0,6.028783798E0,3.895485163E0
9.238633980E-1,2.679193497E0,6.028783798E0,3.895485163E0
9.258633640E-1,2.887495518E0,6.067092419E0,3.900273561E0
9.278633300E-1,2.988054991E0,6.091034889E0,3.924216509E0
9.298633300E-1,3.222693920E0,6.131737709E0,3.988861799E0
9.318632960E-1,3.474092722E0,6.136526108E0,4.075055599E0
9.338632620E-1,3.596200705E0,6.143709183E0,4.122941017E0
9.358632280E-1,3.859570980E0,6.177228928E0,4.216318130E0
9.378631940E-1,4.127729893E0,6.179623127E0,4.326454639E0
9.398631600E-1,4.491659641E0,6.241874218E0,4.477293968E0
9.418631260E-1,4.604190350E0,6.258634567E0,4.513207912E0
9.438630920E-1,4.604190350E0,6.258634567E0,4.513207912E0
9.458630250E-1,4.776578426E0,6.289760113E0,4.568276405E0
9.478629580E-1,4.913052082E0,6.354405403E0,4.577853203E0
9.498628910E-1,4.960937500E0,6.385530949E0,4.580247879E0
9.518628240E-1,5.023188591E0,6.459753513E0,4.582642078E0
9.538627570E-1,5.071074009E0,6.519610405E0,4.616161823E0
9.558623570E-1,5.085439682E0,6.553130150E0,4.630527496E0
9.578622900E-1,5.102199554E0,6.644112587E0,4.671230316E0
9.598622230E-1,5.145296574E0,6.830865860E0,4.798126698E0
9.618621560E-1,5.145296574E0,6.830865860E0,4.798126698E0
9.638610890E-1,5.162056446E0,6.866780281E0,4.831646442E0
9.658609550E-1,5.181210518E0,6.895511627E0,4.857983589E0
9.678608210E-1,5.214730740E0,6.967339516E0,4.886714935E0
9.698606870E-1,5.226701736E0,7.031985283E0,4.896292210E0
9.718605530E-1,5.226701736E0,7.063110828E0,4.903474808E0
9.738604190E-1,5.233884811E0,7.110996246E0,4.877137661E0
9.758603190E-1,5.212336063E0,7.115784645E0,4.869955063E0
9.778601520E-1,5.193181992E0,7.122967720E0,4.843617916E0
9.798599850E-1,5.123748302E0,6.782980442E0,5.389512539E0
9.818598180E-1,5.102199554E0,6.720729351E0,5.300924301E0
9.838596510E-1,5.102199554E0,6.720729351E0,5.300924301E0
9.858594840E-1,5.097411156E0,6.842837334E0,4.632921696E0
9.878593170E-1,5.109382629E0,6.941002846E0,4.300117493E0
9.898591500E-1,5.135719299E0,7.048745155E0,3.921822071E0
9.918590160E-1,5.138113976E0,6.962551117E0,3.909850836E0
9.938588160E-1,5.142902374E0,6.881145954E0,3.936187744E0
9.958586160E-1,5.140508175E0,6.732700825E0,3.852388144E0
9.978584160E-1,5.152479172E0,6.687209606E0,3.737462997E0
9.998582160E-1,5.243461609E0,6.751854897E0,3.191568375E0
1.001858016E0,5.253038883E0,6.775797844E0,3.119740009E0
1.003857816E0,5.253038883E0,6.775797844E0,3.119740009E0
1.005857616E0,5.221913338E0,6.809317589E0,3.057488918E0
1.007857416E0,5.171633720E0,6.838048935E0,3.067065954E0
1.009857149E0,5.133325100E0,6.861991405E0,3.074248791E0
1.011856882E0,5.066285610E0,6.912271500E0,3.107768774E0
1.013856615E0,5.054314137E0,6.941002846E0,3.129317284E0
1.015856681E0,5.025582790E0,6.952973843E0,3.215511084E0
1.017856414E0,5.018400192E0,6.907482624E0,3.359167576E0
1.019856147E0,5.056708336E0,6.838048935E0,3.553103924E0
1.021855880E0,5.056708336E0,6.838048935E0,3.553103924E0
1.023856613E0,5.099805355E0,6.835654736E0,3.581835032E0
1.025856346E0,5.145296574E0,6.833260536E0,3.598595142E0
1.027856079E0,5.238673210E0,6.811711788E0,3.603383541E0
1.029855812E0,5.334444046E0,6.797346115E0,3.586623669E0
1.031855545E0,5.389512539E0,6.768614769E0,3.572257996E0
1.033855278E0,5.461340904E0,6.706363678E0,3.550709486E0
1.035855011E0,5.487678051E0,6.677632332E0,3.536343813E0
1.037854811E0,5.547534943E0,6.610592842E0,3.521978140E0
1.039854611E0,5.602602959E0,6.380742550E0,3.543526649E0
1.041854344E0,5.604997158E0,6.308914185E0,3.557892323E0
1.043854077E0,5.604997158E0,6.308914185E0,3.557892323E0
1.045853810E0,5.624151707E0,6.155680656E0,3.581835032E0
1.047853543E0,5.631334305E0,6.069486618E0,3.591412306E0
1.049852843E0,5.676825523E0,5.928224564E0,3.610566378E0
1.051852576E0,5.695979595E0,5.854001999E0,3.622537851E0
1.053852376E0,5.736682415E0,5.717528343E0,3.651269197E0
1.055852176E0,5.798933506E0,5.588237286E0,3.691971779E0
1.057851909E0,5.825270653E0,5.542746067E0,3.706337452E0
1.059851642E0,5.985687256E0,5.320078850E0,3.732674360E0
1.061851375E0,6.033572674E0,5.267404556E0,3.737462997E0
1.063851108E0,6.033572674E0,5.267404556E0,3.737462997E0
1.065850841E0,6.150891781E0,5.145296574E0,3.747040033E0
1.067850574E0,6.280182838E0,5.080651283E0,3.754222870E0
1.069850374E0,6.337645531E0,4.939388752E0,3.780560017E0
1.071850107E0,6.438204765E0,4.774183750E0,3.814079762E0
1.073849840E0,6.481301785E0,4.680807114E0,3.830839634E0
1.075849573E0,6.565101624E0,4.503631115E0,3.881119490E0
1.077849306E0,6.644112587E0,4.343214512E0,3.936187744E0
1.079849039E0,6.660872459E0,4.051113129E0,3.979284763E0
1.081848772E0,6.660872459E0,4.051113129E0,3.979284763E0
1.083848505E0,6.644112587E0,3.974496126E0,3.986467600E0
1.085848305E0,6.632141113E0,3.895485163E0,3.984073162E0
1.087848038E0,6.612987041E0,3.770982742E0,3.981678963E0
1.089847771E0,6.596227169E0,3.715914488E0,3.988861799E0
1.091847504E0,6.567495823E0,3.605777979E0,4.000833035E0
1.093847237E0,6.541158676E0,3.505218267E0,4.005621910E0
1.095846970E0,6.541158676E0,3.459727049E0,4.012804508E0
1.097846703E0,6.562707424E0,3.378321648E0,4.022381783E0
1.099846436E0,6.684815407E0,3.282550812E0,4.046324253E0
1.101846236E0,6.684815407E0,3.282550812E0,4.046324253E0
1.103845969E0,6.735095024E0,3.258608103E0,4.051113129E0
1.105845269E0,6.778192043E0,3.239453793E0,4.070267200E0
1.107845002E0,6.847625732E0,3.229876757E0,4.130124092E0
1.109845168E0,6.919454098E0,3.215511084E0,4.189980984E0
1.111844901E0,6.948185444E0,3.220299721E0,4.223500729E0
1.113844634E0,7.022408009E0,3.251425266E0,4.242654800E0
1.115844367E0,7.108602047E0,3.272973776E0,4.252232075E0
1.117844167E0,7.158881664E0,3.277762175E0,4.257020473E0
1.119843900E0,7.264229774E0,3.284945011E0,4.307300568E0
1.121843633E0,7.271412373E0,3.289733648E0,4.324060440E0
1.123843366E0,7.271412373E0,3.289733648E0,4.324060440E0
1.125843099E0,7.314509392E0,3.299310684E0,4.364762783E0
1.127842832E0,7.338452339E0,3.299310684E0,4.388705730E0
1.129842565E0,7.381549358E0,3.292127848E0,4.429408550E0
1.131842365E0,7.395915031E0,3.323253393E0,4.479688168E0
1.133842165E0,7.419857502E0,3.340013266E0,4.503631115E0
1.135841898E0,7.510839939E0,3.363956213E0,4.520390987E0
1.137841631E0,7.597033978E0,3.349590540E0,4.534756660E0
1.139841364E0,7.767027378E0,3.387898922E0,4.577853203E0
1.141841097E0,7.767027378E0,3.387898922E0,4.577853203E0
1.143841197E0,7.767027378E0,3.387898922E0,4.577853203E0
1.145840930E0,7.879558563E0,3.399870157E0,4.601796150E0
1.147840730E0,7.989695072E0,3.440572977E0,4.635315895E0
1.149840463E0,8.049551964E0,3.474092722E0,4.647287369E0
1.151840196E0,8.140534401E0,3.517189741E0,4.704750061E0
1.153839929E0,8.195602417E0,3.543526649E0,4.767001152E0
1.155839662E0,8.207573891E0,3.548315287E0,4.786155224E0
1.157839262E0,8.205180168E0,3.512401104E0,4.822069645E0
1.159838995E0,8.183630943E0,3.450150013E0,4.834040642E0
1.161838728E0,8.183630943E0,3.450150013E0,4.834040642E0
1.163838628E0,8.181237221E0,3.416630268E0,4.824463844E0
1.165838428E0,8.205180168E0,3.387898922E0,4.810098171E0
1.167838161E0,8.238699913E0,3.325647593E0,4.767001152E0
1.169837894E0,8.262641907E0,3.277762175E0,4.716721535E0
1.171837627E0,8.286584854E0,3.241847992E0,4.692778587E0
1.173837360E0,8.327287674E0,3.186779737E0,4.659258842E0
1.175837093E0,8.367990494E0,3.153259993E0,4.618556023E0
1.177836826E0,8.377567291E0,3.129317284E0,4.608979225E0
1.179836626E0,8.334470749E0,3.052700281E0,4.664047241E0
1.181836326E0,8.334470749E0,3.052700281E0,4.664047241E0
1.183835992E0,8.308133125E0,3.031152010E0,4.680807114E0
1.185835725E0,8.255459785E0,2.997632027E0,4.723904133E0
1.187835458E0,8.243488312E0,2.978477955E0,4.743058205E0
1.189835191E0,8.243488312E0,2.959323645E0,4.776578426E0
1.191834924E0,8.286584854E0,2.971295118E0,4.790944099E0
1.193834657E0,8.324893951E0,2.997632027E0,4.786155224E0
1.195834457E0,8.420664787E0,3.071854591E0,4.755029678E0
1.197834190E0,8.473338127E0,3.134105682E0,4.728692532E0
1.199833923E0,8.669669151E0,3.363956213E0,4.692778587E0
1.201833656E0,8.710371971E0,3.414235830E0,4.697566986E0
1.203832889E0,8.710371971E0,3.414235830E0,4.697566986E0
1.205832622E0,8.767834663E0,3.531555414E0,4.719115734E0
1.207832355E0,8.775016785E0,3.665634632E0,4.752635479E0
1.209832155E0,8.758256912E0,3.730280161E0,4.771789551E0
1.211831955E0,8.731920242E0,3.838022470E0,4.786155224E0
1.213831688E0,8.696005821E0,3.897879362E0,4.764606953E0
1.215831421E0,8.696005821E0,3.993650436E0,4.740664005E0
1.217831287E0,8.691217422E0,4.067873001E0,4.661653042E0
1.219831020E0,8.822902679E0,4.218712330E0,4.376734257E0
1.221830753E0,8.822902679E0,4.218712330E0,4.376734257E0
1.223830386E0,8.865999222E0,4.261809349E0,4.314483166E0
1.225830552E0,8.909096718E0,4.314483166E0,4.271386147E0
1.227830352E0,8.968953133E0,4.395888329E0,4.209135056E0
1.229830085E0,8.988107681E0,4.438985348E0,4.201952457E0
1.231829818E0,8.980924606E0,4.467716694E0,4.216318130E0
1.233829551E0,8.992896080E0,4.522785187E0,4.245049000E0
1.235829284E0,8.995290756E0,4.556304932E0,4.273780346E0
1.237829017E0,8.968953133E0,4.632921696E0,4.312088966E0
1.239828750E0,9.009655952E0,4.767001152E0,4.350397110E0
1.241828583E0,9.009655952E0,4.767001152E0,4.350397110E0
1.243828383E0,9.007262230E0,4.800520897E0,4.352791786E0
1.245828249E0,8.961771011E0,4.848406315E0,4.352791786E0
1.247827982E0,8.942616463E0,4.860377789E0,4.343214512E0
1.249827715E0,8.911490440E0,4.896292210E0,4.307300568E0
1.251827448E0,8.894730568E0,4.908263206E0,4.278569221E0
1.253827181E0,8.868393898E0,4.915446281E0,4.206740856E0
1.255826914E0,8.825297356E0,4.927417755E0,4.139701366E0
1.257826714E0,8.798959732E0,4.925023079E0,4.096604347E0
1.259826447E0,8.731920242E0,4.920234680E0,3.924216509E0
1.261826180E0,8.727131844E0,4.915446281E0,3.885908127E0
1.263826046E0,8.727131844E0,4.915446281E0,3.885908127E0
1.265825346E0,8.736708641E0,4.915446281E0,3.818868399E0
1.267825079E0,8.751074791E0,4.927417755E0,3.749434233E0
1.269824812E0,8.746285439E0,4.927417755E0,3.742251635E0
1.271824545E0,8.741497040E0,4.946571827E0,3.742251635E0
1.273824345E0,8.722343445E0,4.953754425E0,3.737462997E0
1.275824078E0,8.679245949E0,4.946571827E0,3.725491524E0
1.277823811E0,8.612206459E0,4.936994553E0,3.727885962E0
1.279823544E0,8.480521202E0,4.884320736E0,3.778165579E0
1.281823277E0,8.480521202E0,4.884320736E0,3.778165579E0
1.283823143E0,8.482915878E0,4.884320736E0,3.790137053E0
1.285822876E0,8.478127480E0,4.829252243E0,3.794925690E0
1.287822609E0,8.504464149E0,4.793338299E0,3.821262598E0
1.289822409E0,8.518829346E0,4.771789551E0,3.823656797E0
1.291822142E0,8.566715240E0,4.740664005E0,3.838022470E0
1.293821875E0,8.624177933E0,4.726298332E0,3.806896925E0
1.295821608E0,8.648120880E0,4.723904133E0,3.778165579E0
1.297821341E0,8.674457550E0,4.692778587E0,3.718308687E0
1.299821074E0,8.743891716E0,4.707144260E0,3.596200705E0
1.301820807E0,8.743891716E0,4.707144260E0,3.596200705E0
1.303820173E0,8.755863190E0,4.728692532E0,3.572257996E0
1.305819839E0,8.786988258E0,4.769395351E0,3.553103924E0
1.307819572E0,8.808537483E0,4.829252243E0,3.541132450E0
1.309819305E0,8.861210823E0,4.877137661E0,3.505218267E0
1.311819038E0,8.899519920E0,4.898686409E0,3.517189741E0
1.313818771E0,8.980924606E0,4.925023079E0,3.521978140E0
1.315818504E0,9.098244667E0,4.960937500E0,3.536343813E0
1.317818237E0,9.165284157E0,4.970514297E0,3.545921087E0
1.319818037E0,9.615407944E0,5.001639843E0,3.610566378E0
1.321817770E0,9.615407944E0,5.025582790E0,3.610566378E0
1.323816570E0,9.615407944E0,5.025582790E0,3.610566378E0
1.325816736E0,9.797372818E0,5.047131062E0,3.629720688E0
1.327816469E0,9.890748978E0,5.066285610E0,3.632114887E0
1.329816202E0,1.006313705E1,5.085439682E0,3.670423269E0
1.331815935E0,1.020679379E1,5.106987953E0,3.682394743E0
1.333815668E0,1.026665020E1,5.109382629E0,3.699154615E0
1.335815468E0,1.037199879E1,5.147690773E0,3.747040033E0
1.337815201E0,1.051326084E1,5.193181992E0,3.782954216E0
1.339814934E0,1.073114014E1,5.327261448E0,3.845205307E0
1.341814667E0,1.073114014E1,5.327261448E0,3.845205307E0
1.343814267E0,1.073114014E1,5.327261448E0,3.845205307E0
1.345814000E0,1.081972790E1,5.379935265E0,3.857176781E0
1.347813733E0,1.086761379E1,5.427821159E0,3.861965179E0
1.349813466E0,1.088197899E1,5.432609558E0,3.849993944E0
1.351813266E0,1.090113354E1,5.439792156E0,3.840416908E0
1.353813032E0,1.089395046E1,5.413455486E0,3.818868399E0
1.355812798E0,1.088197899E1,5.408666611E0,3.816473961E0
1.357812564E0,1.081254482E1,5.406272411E0,3.809291124E0
1.359812330E0,1.054438591E1,5.377541065E0,3.785348415E0
1.361812096E0,1.054438591E1,5.377541065E0,3.785348415E0
1.363811929E0,1.045340347E1,5.372752666E0,3.782954216E0
1.365811695E0,1.034087276E1,5.351204395E0,3.773377180E0
1.367811528E0,1.011341667E1,5.317684174E0,3.732674360E0
1.369810894E0,9.907508850E0,5.267404556E0,3.672817469E0
1.371810660E0,9.818921089E0,5.255433083E0,3.632114887E0
1.373810426E0,9.672870636E0,5.241067410E0,3.541132450E0
1.375810192E0,9.581888199E0,5.257827282E0,3.445361376E0
1.377809958E0,9.536396980E0,5.281770229E0,3.380716085E0
1.379809724E0,9.361614227E0,5.344021320E0,3.160442829E0
1.381809557E0,9.361614227E0,5.344021320E0,3.160442829E0
1.383810323E0,9.306546211E0,5.353598595E0,3.124528646E0
1.385810089E0,9.191620827E0,5.322473049E0,3.110162973E0
1.387809855E0,9.117398262E0,5.310501575E0,3.100585938E0
1.389809621E0,8.997684479E0,5.300924301E0,3.091008663E0
1.391809387E0,8.913885117E0,5.305713177E0,3.062277555E0
1.393809153E0,8.882759094E0,5.298530102E0,3.047911882E0
1.395808919E0,8.818114281E0,5.286558628E0,3.045517445E0
1.397808752E0,8.775016785E0,5.284164429E0,3.009603500E0
1.399808518E0,8.748680115E0,5.267404556E0,2.949746609E0
1.401808251E0,8.748680115E0,5.267404556E0,2.949746609E0
1.403808717E0,8.748680115E0,5.267404556E0,2.949746609E0
1.405808483E0,8.765439987E0,5.300924301E0,2.906649590E0
1.407808249E0,8.777411461E0,5.348809719E0,2.882706881E0
1.409808015E0,8.782199860E0,5.372752666E0,2.880312681E0
1.411807781E0,8.794171333E0,5.420638084E0,2.856369734E0
1.413807581E0,8.786988258E0,5.470917702E0,2.858764172E0
1.415807314E0,8.791776657E0,5.492466450E0,2.861158371E0
1.417807047E0,8.786988258E0,5.549929142E0,2.880312681E0
1.419806780E0,8.770228386E0,5.564294815E0,2.901860952E0
1.421806513E0,8.770228386E0,5.564294815E0,2.901860952E0
1.423805679E0,8.765439987E0,5.557111740E0,2.911438227E0
1.425805412E0,8.763046265E0,5.552323341E0,2.913832426E0
1.427805145E0,8.765439987E0,5.561900616E0,2.911438227E0
1.429805345E0,8.777411461E0,5.566689014E0,2.913832426E0
1.431805078E0,8.782199860E0,5.564294815E0,2.911438227E0
1.433804811E0,8.786988258E0,5.588237286E0,2.899466753E0
1.435804544E0,8.794171333E0,5.607391834E0,2.894678354E0
1.437804277E0,8.818114281E0,5.624151707E0,2.906649590E0
1.439804010E0,8.968953133E0,5.664854050E0,2.932986736E0
1.441803743E0,8.968953133E0,5.664854050E0,2.932986736E0
1.443803476E0,9.012050629E0,5.667248249E0,2.928198099E0
1.445803276E0,9.138946533E0,5.710345268E0,2.906649590E0
1.447803009E0,9.217958450E0,5.736682415E0,2.897072554E0
1.449802742E0,9.387951851E0,5.798933506E0,2.868341208E0
1.451802475E0,9.498087883E0,5.873156071E0,2.880312681E0
1.453802208E0,9.557945251E0,5.897099018E0,2.875524044E0
1.455801941E0,9.682447433E0,5.916253090E0,2.899466753E0
1.457801674E0,9.713572502E0,5.930618763E0,2.911438227E0
1.459801474E0,9.823709488E0,5.901887417E0,3.002420664E0
1.461801307E0,9.823709488E0,5.901887417E0,3.002420664E0
1.463800407E0,9.823709488E0,5.901887417E0,3.002420664E0
1.465800140E0,9.838075638E0,5.846818924E0,3.019180536E0
1.467799873E0,9.885960579E0,5.801327705E0,3.019180536E0
1.469799606E0,9.907508850E0,5.774991035E0,3.016786337E0
1.471799339E0,9.926663399E0,5.715134144E0,2.988054991E0
1.473799072E0,9.955394745E0,5.693585396E0,2.940169573E0
1.475798872E0,9.953000069E0,5.633728504E0,2.921015263E0
1.477798672E0,9.972154617E0,5.581054688E0,2.901860952E0
1.479798405E0,1.007271385E1,5.514014721E0,2.889889717E0
1.481798138E0,1.007271385E1,5.514014721E0,2.889889717E0
1.483799104E0,1.010144520E1,5.516408920E0,2.889889717E0
1.485798837E0,1.013257122E1,5.525986195E0,2.894678354E0
1.487798570E0,1.014454269E1,5.578660488E0,2.940169573E0
1.489798303E0,1.014214802E1,5.604997158E0,2.973689318E0
1.491798103E0,1.012059975E1,5.645699978E0,2.983266354E0
1.493797836E0,1.007510853E1,5.657671452E0,3.000026226E0
1.495797569E0,1.002722263E1,5.664854050E0,3.009603500E0
1.497797302E0,9.943423271E0,5.667248249E0,3.002420664E0
1.499797035E0,9.783006668E0,5.662459850E0,2.944957972E0
1.501796768E0,9.739910126E0,5.662459850E0,2.944957972E0
1.503796834E0,9.739910126E0,5.660065651E0,2.918621063E0
1.505796567E0,9.658504486E0,5.652883053E0,2.868341208E0
1.507796367E0,9.639349937E0,5.657671452E0,2.842004299E0
1.509796100E0,9.581888199E0,5.660065651E0,2.767781734E0
1.511795833E0,9.550762177E0,5.664854050E0,2.731867552E0
1.513795566E0,9.490905762E0,5.705556870E0,2.662433624E0
1.515795299E0,9.419076920E0,5.748653889E0,2.573845387E0
1.517795032E0,9.375980377E0,5.765413761E0,2.525959969E0
1.519794765E0,9.165284157E0,5.839636326E0,2.324840784E0
1.521794498E0,9.165284157E0,5.839636326E0,2.324840784E0
1.523794331E0,9.165284157E0,5.839636326E0,2.324840784E0
1.525794064E0,9.059935570E0,5.846818924E0,2.248224020E0
1.527793797E0,9.016839027E0,5.837242126E0,2.219492674E0
1.529793530E0,8.933039665E0,5.813299179E0,2.157241583E0
1.531793263E0,8.851634026E0,5.810904980E0,2.078230619E0
1.533792996E0,8.822902679E0,5.827664852E0,2.044710636E0
1.535792729E0,8.798959732E0,5.863578796E0,1.946545362E0
1.537792462E0,8.796566010E0,5.921041489E0,1.848380208E0
1.539792262E0,8.751074791E0,6.076669693E0,1.702329397E0
1.541791995E0,8.751074791E0,6.076669693E0,1.702329397E0
1.543791428E0,8.739103317E0,6.107795238E0,1.680780888E0
1.545791161E0,8.734314919E0,6.146103382E0,1.661626697E0
1.547790894E0,8.741497040E0,6.227508545E0,1.625712633E0
1.549790627E0,8.753468513E0,6.256239891E0,1.604164124E0
1.551790360E0,8.796566010E0,6.332856655E0,1.544307232E0
1.553790160E0,8.880365372E0,6.431022167E0,1.467690468E0
1.555789960E0,8.933039665E0,6.471724987E0,1.429382086E0
1.557789693E0,9.074301720E0,6.541158676E0,1.355159521E0
1.559789426E0,9.407105446E0,6.701575279E0,1.230657220E0
1.561789159E0,9.407105446E0,6.701575279E0,1.230657220E0
1.563788559E0,9.481328011E0,6.720729351E0,1.235445857E0
1.565788292E0,9.545973778E0,6.730306625E0,1.249811411E0
1.567788025E0,9.656110764E0,6.703969479E0,1.288119793E0
1.569787825E0,9.696812630E0,6.656084061E0,1.338399649E0
1.571787558E0,9.706390381E0,6.610592842E0,1.355159521E0
1.573787291E0,9.703995705E0,6.481301785E0,1.376708031E0
1.575787024E0,9.713572502E0,6.352011204E0,1.376708031E0
1.577786557E0,9.718361855E0,6.280182838E0,1.374313712E0
1.579786290E0,9.715967178E0,6.021601200E0,1.388679385E0
1.581786023E0,9.720755577E0,5.956955910E0,1.395862222E0
1.583785656E0,9.720755577E0,5.956955910E0,1.395862222E0
1.585785456E0,9.718361855E0,5.830059052E0,1.405439258E0
1.587785189E0,9.725543976E0,5.763019562E0,1.405439258E0
1.589784922E0,9.732727051E0,5.621757030E0,1.422199249E0
1.591784655E0,9.725543976E0,5.494860649E0,1.455719113E0
1.593784388E0,9.715967178E0,5.437397957E0,1.474873304E0
1.595784121E0,9.701601982E0,5.329655647E0,1.513181686E0
1.597783854E0,9.720755577E0,5.231490612E0,1.561067224E0
1.599783587E0,9.742303848E0,5.087833881E0,1.585009933E0
1.601783387E0,9.742303848E0,5.049525738E0,1.580221415E0
1.603782687E0,9.742303848E0,5.049525738E0,1.580221415E0
1.605782420E0,9.744698524E0,4.982485771E0,1.570644259E0
1.607782153E0,9.730332375E0,4.901080608E0,1.549095750E0
1.609781886E0,9.727938652E0,4.860377789E0,1.539518714E0
1.611781619E0,9.708784103E0,4.776578426E0,1.489238977E0
1.613781352E0,9.692024231E0,4.728692532E0,1.441353440E0
1.615781085E0,9.682447433E0,4.697566986E0,1.419804931E0
1.617780885E0,9.684841156E0,4.644893169E0,1.386285067E0
1.619780618E0,9.646533012E0,4.529967785E0,1.285725594E0
1.621780351E0,9.646533012E0,4.529967785E0,1.285725594E0
1.623780084E0,9.632167816E0,4.503631115E0,1.264177084E0
1.625779817E0,9.610619545E0,4.486870766E0,1.245022893E0
1.627779550E0,9.545973778E0,4.462928295E0,1.228263021E0
1.629779283E0,9.483722687E0,4.422225475E0,1.185166001E0
1.631779083E0,9.454991341E0,4.403071404E0,1.168406129E0
1.633778883E0,9.375980377E0,4.379128456E0,1.146857619E0
1.635778616E0,9.313729286E0,4.367157459E0,1.125309110E0
1.637778549E0,9.275420189E0,4.345608711E0,1.091789365E0
1.639778282E0,9.103033066E0,4.371945858E0,9.768640995E-1
1.641778015E0,9.043175697E0,4.376734257E0,9.624984860E-1
1.643777748E0,9.043175697E0,4.376734257E0,9.624984860E-1
1.645777481E0,8.897125244E0,4.369551659E0,9.265843630E-1
1.647777281E0,8.825297356E0,4.350397110E0,9.050358534E-1
1.649777014E0,8.700794220E0,4.324060440E0,8.547561169E-1
1.651776747E0,8.597841263E0,4.312088966E0,7.996878028E-1
1.653776480E0,8.569109917E0,4.295329094E0,7.781392932E-1
1.655776213E0,8.499675751E0,4.276175022E0,7.182824612E-1
1.657775946E0,8.468549728E0,4.271386147E0,6.895511150E-1
1.659775679E0,8.339259148E0,4.218712330E0,5.913859010E-1
1.661775412E0,8.310527802E0,4.197163582E0,5.794144869E-1
1.663775645E0,8.310527802E0,4.197163582E0,5.794144869E-1
1.665775378E0,8.241093636E0,4.154066563E0,5.818088055E-1
1.667775111E0,8.176448822E0,4.096604347E0,5.674431324E-1
1.669774844E0,8.154899597E0,4.048718929E0,5.698373914E-1
1.671774577E0,8.121379852E0,3.957736254E0,5.722316504E-1
1.673774310E0,8.152505875E0,3.909850836E0,5.746259689E-1
1.675774043E0,8.190814018E0,3.830839634E0,5.794144869E-1
1.677773776E0,8.236305237E0,3.770982742E0,6.033572555E-1
1.679773576E0,8.408693314E0,3.627326250E0,6.512427330E-1
1.681773309E0,8.408693314E0,3.627326250E0,6.512427330E-1
1.683772109E0,8.463761330E0,3.598595142E0,6.656084061E-1
1.685771375E0,8.509252548E0,3.579440832E0,6.823683381E-1
1.687771108E0,8.581081390E0,3.529160976E0,7.326480746E-1
1.689770841E0,8.693612099E0,3.498035431E0,7.757450342E-1
1.691770574E0,8.734314919E0,3.483669758E0,7.996878028E-1
1.693770307E0,8.846845627E0,3.466909885E0,8.475732803E-1
1.695770107E0,8.897125244E0,3.469304085E0,8.667274714E-1
1.697769840E0,9.016839027E0,3.495641232E0,8.954587579E-1
1.699769573E0,9.215563774E0,3.591412306E0,9.265843630E-1
1.701769306E0,9.251478195E0,3.622537851E0,9.337671995E-1
1.703769039E0,9.251478195E0,3.622537851E0,9.337671995E-1
1.705768772E0,9.340065956E0,3.680000305E0,9.505270720E-1
1.707768505E0,9.373585701E0,3.711125851E0,9.648927450E-1
1.709768305E0,9.440625191E0,3.773377180E0,9.816526771E-1
1.711768105E0,9.476539612E0,3.799714088E0,9.888355136E-1
1.713767838E0,9.534002304E0,3.885908127E0,1.029538155E0
1.715767571E0,9.579493523E0,3.986467600E0,1.070240855E0
1.717767304E0,9.581888199E0,4.034353256E0,1.096577883E0
1.719767037E0,9.577098846E0,4.175615311E0,1.154040456E0
1.721766770E0,9.560338974E0,4.211529255E0,1.170800328E0
1.723766503E0,9.560338974E0,4.211529255E0,1.170800328E0
1.725766303E0,9.526819229E0,4.280963421E0,1.177983165E0
1.727766103E0,9.512454033E0,4.309694767E0,1.146857619E0
1.729765836E0,9.495694160E0,4.374340057E0,1.134886265E0
1.731765569E0,9.440625191E0,4.438985348E0,1.113337755E0
1.733765302E0,9.409500122E0,4.450956821E0,1.091789365E0
1.735765035E0,9.323306084E0,4.484476566E0,1.048692346E0
1.737764768E0,9.213169098E0,4.541939259E0,9.816526771E-1
1.739764501E0,9.038387299E0,4.623344421E0,8.499675393E-1
1.741764267E0,9.038387299E0,4.623344421E0,8.499675393E-1
1.743764933E0,9.000079155E0,4.654470444E0,8.164477348E-1
1.745765133E0,8.961771011E0,4.692778587E0,7.805336118E-1
1.747764866E0,8.873182297E0,4.747847080E0,7.254652381E-1
1.749764599E0,8.825297356E0,4.767001152E0,7.063110471E-1
1.751764332E0,8.719948769E0,4.795732498E0,6.680026650E-1
1.753764065E0,8.605023384E0,4.812492371E0,6.344828010E-1
1.755763798E0,8.554743767E0,4.812492371E0,6.225114465E-1
1.757763598E0,8.447001457E0,4.812492371E0,5.865973234E-1
1.759763364E0,8.303344727E0,4.798126698E0,5.698373914E-1
1.761763130E0,8.284191132E0,4.798126698E0,5.698373914E-1
1.763762896E0,8.284191132E0,4.810098171E0,5.602602959E-1
1.765762662E0,8.238699913E0,4.826858044E0,5.626545548E-1
1.767762428E0,8.231516838E0,4.872349262E0,5.602602959E-1
1.769762194E0,8.231516838E0,4.910657406E0,5.458946824E-1
1.771761960E0,8.224333763E0,4.929811954E0,5.458946824E-1
1.773761793E0,8.229122162E0,4.975303173E0,5.722316504E-1
1.775761559E0,8.238699913E0,5.004034519E0,6.057515144E-1
1.777761325E0,8.243488312E0,5.023188591E0,6.177229285E-1
1.779761091E0,8.248276711E0,5.162056446E0,6.392713785E-1
1.781760824E0,8.250671387E0,5.162056446E0,6.416656375E-1
1.783761057E0,8.250671387E0,5.202759266E0,6.416656375E-1
1.785760823E0,8.296162605E0,5.312895775E0,6.632141471E-1
1.787760589E0,8.310527802E0,5.355992794E0,6.536370516E-1
1.789760422E0,8.317710876E0,5.427821159E0,6.416656375E-1
1.791760188E0,8.351230621E0,5.458946705E0,6.344828010E-1
1.793759954E0,8.365595818E0,5.473312378E0,6.296942830E-1
1.795759720E0,8.387145042E0,5.514014721E0,6.201171875E-1
1.797759486E0,8.401510239E0,5.535563469E0,6.129343510E-1
1.799759252E0,8.475732803E0,5.557111740E0,6.033572555E-1
1.801759052E0,8.475732803E0,5.557111740E0,6.033572555E-1
1.803758885E0,8.511647224E0,5.557111740E0,6.033572555E-1
1.805758718E0,8.540378571E0,5.564294815E0,6.033572555E-1
1.807758484E0,8.590658188E0,5.559505939E0,6.009629965E-1
1.809758250E0,8.607418060E0,5.547534943E0,6.009629965E-1
1.811758016E0,8.624177933E0,5.511620522E0,5.937801600E-1
1.813757782E0,8.652909279E0,5.458946705E0,5.698373914E-1
1.815757548E0,8.660092354E0,5.425426483E0,5.626545548E-1
1.817757314E0,8.662486076E0,5.341627121E0,5.530774593E-1
1.819757114E0,8.736708641E0,5.147690773E0,5.219519138E-1
1.821756847E0,8.736708641E0,5.147690773E0,5.219519138E-1
1.823756613E0,8.746285439E0,5.111776829E0,5.099805593E-1
1.825756879E0,8.760651588E0,5.083045483E0,4.980091453E-1
1.827756612E0,8.808537483E0,5.016005516E0,4.932205975E-1
1.829756345E0,8.849239349E0,4.977697372E0,4.836435020E-1
1.831756078E0,8.865999222E0,4.958543301E0,4.812492430E-1
1.833755811E0,8.909096718E0,4.958543301E0,5.004034638E-1
1.835755611E0,8.956981659E0,4.972908974E0,5.123748183E-1
1.837755344E0,8.992896080E0,4.982485771E0,5.123748183E-1
1.839755077E0,9.086273193E0,5.073468208E0,5.722316504E-1
1.841754843E0,9.098244667E0,5.073468208E0,5.913859010E-1
1.843754109E0,9.098244667E0,5.095016956E0,5.913859010E-1
1.845753842E0,9.117398262E0,5.145296574E0,6.296942830E-1
1.847753575E0,9.117398262E0,5.162056446E0,6.608198285E-1
1.849753308E0,9.091061592E0,5.190787792E0,6.943396926E-1
1.851753108E0,9.083878517E0,5.207547665E0,6.967339516E-1
1.853752841E0,9.074301720E0,5.193181992E0,6.991282701E-1
1.855752574E0,9.033598900E0,5.185999393E0,6.823683381E-1
1.857752307E0,9.024022102E0,5.176422119E0,6.703969240E-1
1.859752040E0,8.945011139E0,5.164450645E0,5.650488734E-1
1.861751773E0,8.945011139E0,5.164450645E0,5.650488734E-1
1.863751806E0,8.945011139E0,5.164450645E0,5.650488734E-1
1.865751539E0,8.882759094E0,5.166844845E0,5.482889414E-1
1.867751339E0,8.801354408E0,5.159662247E0,5.411061049E-1
1.869751072E0,8.753468513E0,5.157268047E0,5.554717779E-1
1.871750805E0,8.650514603E0,5.145296574E0,5.937801600E-1
1.873750538E0,8.578686714E0,5.126142502E0,6.273000240E-1
1.875750271E0,8.557138443E0,5.118959427E0,6.512427330E-1
1.877750004E0,8.480521202E0,5.104593754E0,6.919454336E-1
1.879749737E0,8.387145042E0,5.090228081E0,7.565908432E-1
1.881749537E0,8.387145042E0,5.090228081E0,7.565908432E-1
1.883749303E0,8.367990494E0,5.075862408E0,7.685621977E-1
1.885748503E0,8.332076073E0,5.059102535E0,7.781392932E-1
1.887748236E0,8.277008057E0,5.049525738E0,7.853221297E-1
1.889747969E0,8.197997093E0,5.023188591E0,7.805336118E-1
1.891747702E0,8.176448822E0,4.996851444E0,7.781392932E-1
1.893747435E0,8.142929077E0,4.934600353E0,7.925049663E-1
1.895747168E0,8.116591454E0,4.903474808E0,8.020820618E-1
1.897746968E0,8.063917160E0,4.853195190E0,8.308133483E-1
1.899746701E0,7.992089272E0,4.764606953E0,8.882759809E-1
1.901746434E0,7.992089272E0,4.764606953E0,8.882759809E-1
1.903746167E0,7.989695072E0,4.743058205E0,9.050358534E-1
1.905745900E0,7.984906673E0,4.702355862E0,9.289786220E-1
1.907745633E0,7.984906673E0,4.695172787E0,9.481328130E-1
1.909745366E0,7.984906673E0,4.649681568E0,9.648927450E-1
1.911745099E0,7.968146324E0,4.628133297E0,9.984126091E-1
1.913744899E0,7.948992252E0,4.599401951E0,1.005595446E0
1.915744632E0,7.886741161E0,4.541939259E0,1.024749637E0
1.917744365E0,7.853221416E0,4.513207912E0,1.024749637E0
1.919744098E0,7.783787251E0,4.434196949E0,9.888355136E-1
1.921743831E0,7.788576126E0,4.422225475E0,9.672870040E-1
1.923743264E0,7.788576126E0,4.422225475E0,9.672870040E-1
1.925742997E0,7.790970325E0,4.398283005E0,9.217957854E-1
1.927742730E0,7.776604652E0,4.412648678E0,8.691217303E-1
1.929742530E0,7.771816254E0,4.419831276E0,8.332076073E-1
1.931742263E0,7.745479107E0,4.448562622E0,7.853221297E-1
1.933741996E0,7.728719234E0,4.470110893E0,7.709565163E-1
1.935741729E0,7.719141960E0,4.508419514E0,7.613793612E-1
1.937741462E0,7.711959362E0,4.546727657E0,7.422251701E-1
1.939741195E0,7.671256542E0,4.630527496E0,6.823683381E-1
1.941740928E0,7.671256542E0,4.630527496E0,6.823683381E-1
1.943740661E0,7.668862343E0,4.652075768E0,6.560313106E-1
1.945740461E0,7.668862343E0,4.664047241E0,6.273000240E-1
1.947740194E0,7.678439140E0,4.695172787E0,6.009629965E-1
1.949739927E0,7.723930359E0,4.697566986E0,5.889915824E-1
1.951739660E0,7.738296032E0,4.697566986E0,5.674431324E-1
1.953739393E0,7.783787251E0,4.714327335E0,5.458946824E-1
1.955739126E0,7.817307472E0,4.735875607E0,5.435003638E-1
1.957738859E0,7.879558563E0,4.759818554E0,5.435003638E-1
1.959738659E0,7.975329399E0,4.778972626E0,5.411061049E-1
1.961738459E0,7.975329399E0,4.778972626E0,5.411061049E-1
1.963738225E0,8.004060745E0,4.778972626E0,5.411061049E-1
1.965737058E0,8.035185814E0,4.776578426E0,5.387118459E-1
1.967736824E0,8.099831581E0,4.769395351E0,5.315290093E-1
1.969736590E0,8.169265747E0,4.778972626E0,5.363175869E-1
1.971736356E0,8.202785492E0,4.786155224E0,5.411061049E-1
1.973736122E0,8.291373253E0,4.812492371E0,5.195576549E-1
1.975735955E0,8.401510239E0,4.874743462E0,4.980091453E-1
1.977735421E0,8.449396133E0,4.908263206E0,4.980091453E-1
1.979735221E0,8.717555046E0,5.025582790E0,4.620950520E-1
1.981735021E0,8.784594536E0,5.068679810E0,4.597007632E-1
1.983734821E0,8.784594536E0,5.068679810E0,4.597007632E-1
1.985734621E0,8.921068192E0,5.169239521E0,4.692778587E-1
1.987734421E0,9.000079155E0,5.217124939E0,4.932205975E-1
1.989734221E0,9.170072556E0,5.324867249E0,5.458946824E-1
1.991734087E0,9.325700760E0,5.449369431E0,6.201171875E-1
1.993733953E0,9.397528648E0,5.492466450E0,6.488484740E-1
1.995733819E0,9.526819229E0,5.533169270E0,6.943396926E-1
1.997733685E0,9.648927689E0,5.597814560E0,7.518022656E-1
1.999733551E0,9.794978142E0,5.681613922E0,8.044763207E-1
2.001733417E0,9.794978142E0,5.681613922E0,8.044763207E-1
2.003733283E0,9.818921089E0,5.681613922E0,8.044763207E-1
2.005733149E0,9.854835510E0,5.707951069E0,8.523618579E-1
2.007733082E0,9.897932053E0,5.739076614E0,8.786988258E-1
2.009732948E0,9.917086601E0,5.753442287E0,8.906702399E-1
2.011732814E0,9.948211670E0,5.774991035E0,9.146129489E-1
2.013732680E0,9.955394745E0,5.772596359E0,9.098244309E-1
2.015732546E0,9.953000069E0,5.774991035E0,9.074301720E-1
2.017732412E0,9.969759941E0,5.763019562E0,8.954587579E-1
2.019732278E0,1.000806904E1,5.779779434E0,9.385557175E-1
2.021732144E0,1.000806904E1,5.779779434E0,9.385557175E-1
2.023732044E0,1.001046276E1,5.772596359E0,9.505270720E-1
2.025732810E0,1.001525116E1,5.763019562E0,9.577099085E-1
2.027732643E0,1.003680038E1,5.746259689E0,9.792584181E-1
2.029732476E0,1.003201103E1,5.751048088E0,9.936240315E-1
2.031732476E0,1.001525116E1,5.746259689E0,9.840469360E-1
2.033732309E0,9.991309166E0,5.734288216E0,9.433442950E-1
2.035732142E0,9.931451797E0,5.743865490E0,9.002473354E-1
2.037732342E0,9.900326729E0,5.751048088E0,8.786988258E-1
2.039732208E0,9.787795067E0,5.767807961E0,8.212362528E-1
2.041732008E0,9.737515450E0,5.774991035E0,8.020820618E-1
2.043732174E0,9.737515450E0,5.774991035E0,8.020820618E-1
2.045731974E0,9.670475960E0,5.791750908E0,7.781392932E-1
2.047731774E0,9.636956215E0,5.794145107E0,7.733507752E-1
2.049731574E0,9.581888199E0,5.784567833E0,7.518022656E-1
2.051731374E0,9.524425507E0,5.786962032E0,7.326480746E-1
2.053731174E0,9.478934288E0,5.791750908E0,7.230709791E-1
2.055730974E0,9.385557175E0,5.774991035E0,7.039167881E-1
2.057730707E0,9.292180061E0,5.741470814E0,6.656084061E-1
2.059730440E0,9.105426788E0,5.722316742E0,5.794144869E-1
2.061730173E0,9.105426788E0,5.722316742E0,5.794144869E-1
2.063730606E0,9.105426788E0,5.722316742E0,5.794144869E-1
2.065730339E0,9.028810501E0,5.746259689E0,5.267404318E-1
2.067730072E0,8.995290756E0,5.774991035E0,4.573064744E-1
2.069729872E0,8.968953133E0,5.796539307E0,4.309694767E-1
2.071729605E0,8.909096718E0,5.865973473E0,3.998439014E-1
2.073729338E0,8.892336845E0,5.937801361E0,3.639297783E-1
2.075729071E0,8.875576973E0,5.964138508E0,3.591412306E-1
2.077728804E0,8.839662552E0,6.002447128E0,3.567469418E-1
2.079728537E0,8.801354408E0,6.031178474E0,3.567469418E-1
2.081728270E0,8.801354408E0,6.031178474E0,3.567469418E-1
2.083728003E0,8.813325882E0,6.028783798E0,3.615354896E-1
2.085727803E0,8.825297356E0,6.016812801E0,3.543526828E-1
2.087727536E0,8.844450951E0,5.968926907E0,3.280156553E-1
2.089727269E0,8.844450951E0,5.933012962E0,3.064671755E-1
2.091726835E0,8.849239349E0,5.916253090E0,2.873129845E-1
2.093726568E0,8.830085754E0,5.868367672E0,2.418217510E-1
2.095726301E0,8.846845627E0,5.842030525E0,2.083019018E-1
2.097726034E0,8.851634026E0,5.791750908E0,2.035133541E-1
2.099725767E0,8.849239349E0,5.679219723E0,2.250618339E-1
2.101725567E0,8.849239349E0,5.679219723E0,2.250618339E-1
2.103724933E0,8.839662552E0,5.640911579E0,2.490045726E-1
2.105724533E0,8.844450951E0,5.573871613E0,2.968900800E-1
2.107724266E0,8.837267876E0,5.542746067E0,3.208328187E-1
2.109723999E0,8.815719604E0,5.468523502E0,3.543526828E-1
2.111723732E0,8.820508003E0,5.418243885E0,3.998439014E-1
2.113723465E0,8.818114281E0,5.394300938E0,4.261809289E-1
2.115723198E0,8.827691078E0,5.363175392E0,4.620950520E-1
2.117722998E0,8.825297356E0,5.344021320E0,4.764606953E-1
2.119722731E0,8.806142807E0,5.162056446E0,5.291347504E-1
2.121722464E0,8.806142807E0,5.162056446E0,5.291347504E-1
2.123722264E0,8.806142807E0,5.162056446E0,5.291347504E-1
2.125721997E0,8.832479477E0,5.085439682E0,5.602602959E-1
2.127721730E0,8.854028702E0,5.013611317E0,6.201171875E-1
2.129721463E0,8.846845627E0,4.984879971E0,6.392713785E-1
2.131721263E0,8.789382935E0,4.896292210E0,6.560313106E-1
2.133721063E0,8.657697678E0,4.812492371E0,6.249057055E-1
2.135720796E0,8.581081390E0,4.635315895E0,5.794144869E-1
2.137720529E0,8.485309601E0,4.501236439E0,5.865973234E-1
2.139720262E0,8.384750366E0,4.338426113E0,5.530774593E-1
2.141719995E0,8.384750366E0,4.338426113E0,5.530774593E-1
2.143719695E0,8.351230621E0,4.295329094E0,5.051919818E-1
2.145719195E0,8.332076073E0,4.247443676E0,4.357580245E-1
2.147718995E0,8.324893951E0,4.175615311E0,2.585816681E-1
2.149718728E0,8.327287674E0,4.113364220E0,1.077423692E-1
2.151718461E0,8.312922478E0,4.091815472E0,6.225114316E-2
2.153718194E0,8.257853508E0,4.055901527E0,6.225114316E-2
2.155717927E0,8.221940041E0,4.051113129E0,1.340793967E-1
2.157717660E0,8.152505875E0,4.055901527E0,3.663240373E-1
2.159717393E0,8.102226257E0,4.194769382E0,1.180377483E0
2.161717126E0,8.102226257E0,4.194769382E0,1.180377483E0
2.163716926E0,8.109408379E0,4.254626274E0,1.395862222E0
2.165716559E0,8.159688950E0,4.391099930E0,1.752609134E0
2.167716292E0,8.188420296E0,4.446168423E0,1.886688590E0
2.169716025E0,8.241093636E0,4.570670605E0,2.018373728E0
2.171715758E0,8.286584854E0,4.623344421E0,2.013585091E0
2.173715491E0,8.360807419E0,4.697566986E0,1.917814136E0
2.175715224E0,8.394327164E0,4.745452881E0,1.704723716E0
2.177714957E0,8.399115562E0,4.759818554E0,1.575432777E0
2.179714757E0,8.250671387E0,4.728692532E0,7.733507752E-1
2.181714490E0,8.250671387E0,4.728692532E0,7.733507752E-1
2.183713590E0,8.250671387E0,4.728692532E0,7.733507752E-1
2.185713323E0,8.116591454E0,4.709538460E0,4.764606953E-1
2.187713056E0,7.963357925E0,4.707144260E0,2.322446555E-1
2.189712789E0,7.889135361E0,4.697566986E0,1.364736706E-1
2.191712522E0,7.788576126E0,4.704750061E0,1.197137404E-2
2.193712255E0,7.740690231E0,4.707144260E0,-2.873129770E-2
2.195712055E0,7.680833817E0,4.711932659E0,-8.140534163E-2
2.197711788E0,7.623371124E0,4.723904133E0,-7.901106775E-2
2.199711521E0,7.570696831E0,4.750241280E0,3.351984918E-2
2.201711254E0,7.570696831E0,4.750241280E0,3.351984918E-2
2.203710620E0,7.565908432E0,4.740664005E0,5.506832153E-2
2.205710586E0,7.568302631E0,4.714327335E0,7.422251999E-2
2.207710319E0,7.587456703E0,4.685595989E0,1.005595401E-1
2.209710119E0,7.601822376E0,4.680807114E0,1.125309169E-1
2.211709919E0,7.620976925E0,4.644893169E0,1.221080124E-1
2.213709652E0,7.680833817E0,4.664047241E0,-8.140534163E-2
2.215709385E0,7.762238979E0,4.745452881E0,-3.328042030E-1
2.217709118E0,7.848433018E0,4.948966026E0,-6.416656375E-1
2.219708851E0,7.798152924E0,5.308107376E0,-5.985686779E-1
2.221708584E0,7.733507633E0,5.308107376E0,-5.985686779E-1
2.223707384E0,7.733507633E0,5.384724140E0,-5.075862408E-1
2.225707417E0,7.637736797E0,5.449369431E0,-3.806896806E-1
2.227707217E0,7.616188049E0,5.492466450E0,-8.619388938E-2
2.229706950E0,7.577879906E0,5.514014721E0,1.580221355E-1
2.231706683E0,7.529994488E0,5.545140266E0,2.681587934E-1
2.233706416E0,7.367183685E0,5.616968632E0,5.626545548E-1
2.235706149E0,7.237892628E0,5.621757030E0,8.667274714E-1
2.237705882E0,7.170853138E0,5.624151707E0,9.601042271E-1
2.239705615E0,7.132544518E0,5.638517380E0,1.019961119E0
2.241705415E0,7.132544518E0,5.638517380E0,1.019961119E0
2.243705681E0,7.132544518E0,5.638517380E0,1.019961119E0
2.245705414E0,7.185218811E0,5.638517380E0,9.816526771E-1
2.247705147E0,7.185218811E0,5.640911579E0,9.672870040E-1
2.249704880E0,7.156487465E0,5.667248249E0,8.978530765E-1
2.251704613E0,7.154093266E0,5.698374271E0,8.020820618E-1
2.253704346E0,7.182824612E0,5.712739468E0,7.350423932E-1
2.255704079E0,7.257047176E0,5.736682415E0,6.225114465E-1
2.257703879E0,7.307326794E0,5.782173634E0,5.458946824E-1
2.259703612E0,7.443800449E0,5.779779434E0,4.118152559E-1
2.261703345E0,7.443800449E0,5.767807961E0,4.118152559E-1
2.263703478E0,7.474925995E0,5.767807961E0,3.998439014E-1
2.265703211E0,7.508445740E0,5.746259689E0,3.950553536E-1
2.267702944E0,7.599428177E0,5.770202160E0,4.166038036E-1
2.269702677E0,7.640130997E0,5.782173634E0,4.381522834E-1
2.271702410E0,7.728719234E0,5.801327705E0,4.764606953E-1
2.273702210E0,7.805335999E0,5.818087578E0,4.620950520E-1
2.275701943E0,7.829278469E0,5.849213123E0,4.189980924E-1
2.277701676E0,7.901106834E0,5.935407162E0,3.375927508E-1
2.279701409E0,7.992089272E0,6.134131908E0,1.053480953E-1
2.281701142E0,7.992089272E0,6.134131908E0,1.053480953E-1
2.283701675E0,7.996877670E0,6.167652130E0,2.154847234E-2
2.285701408E0,8.006455421E0,6.213143349E0,-5.027977005E-2
2.287701141E0,8.023215294E0,6.313702583E0,-1.221080124E-1
2.289700941E0,8.035185814E0,6.440599442E0,-1.268965602E-1
2.291700674E0,8.035185814E0,6.495667458E0,-1.149251908E-1
2.293700407E0,8.013637543E0,6.574678421E0,-4.070267081E-2
2.295700140E0,7.975329399E0,6.663266659E0,8.379961550E-2
2.297699873E0,7.948992252E0,6.684815407E0,1.580221355E-1
2.299699606E0,7.939415455E0,6.615381241E0,4.381522834E-1
2.301699339E0,7.956175327E0,6.589044094E0,5.171633363E-1
2.303698472E0,7.956175327E0,6.589044094E0,5.171633363E-1
2.305698272E0,8.016032219E0,6.498061657E0,6.392713785E-1
2.307698005E0,8.044763565E0,6.435810566E0,6.775797606E-1
2.309697738E0,8.085466385E0,6.308914185E0,7.494080067E-1
2.311697471E0,8.145322800E0,6.117372036E0,8.356019258E-1
2.313697204E0,8.171659470E0,6.009629726E0,8.763045669E-1
2.315696937E0,8.197997093E0,5.786962032E0,9.672870040E-1
2.317696670E0,8.217150688E0,5.672037125E0,1.019961119E0
2.319696470E0,8.267431259E0,5.255433083E0,1.233051538E0
2.321696203E0,8.284191132E0,5.174027920E0,1.276148438E0
2.323695669E0,8.284191132E0,5.174027920E0,1.276148438E0
2.325695402E0,8.288979530E0,5.025582790E0,1.316851139E0
2.327695135E0,8.312922478E0,4.874743462E0,1.364736676E0
2.329694868E0,8.320104599E0,4.793338299E0,1.379102230E0
2.331694601E0,8.339259148E0,4.637710094E0,1.371919513E0
2.333694334E0,8.363202095E0,4.501236439E0,1.369525194E0
2.335694134E0,8.365595818E0,4.443774223E0,1.350371003E0
2.337693867E0,8.363202095E0,4.338426113E0,1.326428294E0
2.339693600E0,8.303344727E0,4.216318130E0,1.336005330E0
2.341693333E0,8.303344727E0,4.216318130E0,1.336005330E0
2.343693666E0,8.291373253E0,4.187586784E0,1.355159521E0
2.345693399E0,8.281796455E0,4.158855438E0,1.376708031E0
2.347693132E0,8.212362289E0,4.098998547E0,1.470084786E0
2.349692865E0,8.128562927E0,4.041535854E0,1.565855742E0
2.351692665E0,8.090254784E0,3.996044636E0,1.596981287E0
2.353692398E0,8.013637543E0,3.905062199E0,1.625712633E0
2.355692131E0,7.989695072E0,3.857176781E0,1.628106833E0
2.357691864E0,7.989695072E0,3.742251635E0,1.618529797E0
2.359691597E0,8.176448822E0,3.502824068E0,1.527547359E0
2.361691330E0,8.238699913E0,3.490852594E0,1.484450340E0
2.363691130E0,8.238699913E0,3.490852594E0,1.484450340E0
2.365690863E0,8.399115562E0,3.495641232E0,1.412622094E0
2.367690663E0,8.482915878E0,3.507612705E0,1.381496549E0
2.369690396E0,8.624177933E0,3.548315287E0,1.340793848E0
2.371690129E0,8.739103317E0,3.579440832E0,1.300091267E0
2.373689862E0,8.798959732E0,3.603383541E0,1.276148438E0
2.375689595E0,8.899519920E0,3.641691923E0,1.194743156E0
2.377689328E0,8.945011139E0,3.677606106E0,1.149251938E0
2.379689061E0,9.076695442E0,3.799714088E0,8.834874034E-1
2.381688861E0,9.098244667E0,3.840416908E0,8.164477348E-1
2.383688927E0,9.098244667E0,3.840416908E0,8.164477348E-1
2.385688693E0,9.148524284E0,3.943370581E0,6.751855016E-1
2.387688459E0,9.177255630E0,4.089421272E0,5.530774593E-1
2.389688225E0,9.205986977E0,4.151672363E0,5.075862408E-1
2.391687991E0,9.284997940E0,4.307300568E0,4.213923812E-1
2.393687757E0,9.311334610E0,4.379128456E0,3.806896806E-1
2.395687523E0,9.395133972E0,4.544333458E0,2.992843390E-1
2.397687356E0,9.433443069E0,4.759818554E0,2.609759569E-1
2.399687189E0,9.352037430E0,5.209941864E0,3.136500120E-1
2.401686955E0,9.352037430E0,5.209941864E0,3.136500120E-1
2.403685388E0,9.332882881E0,5.308107376E0,3.351984620E-1
2.405685154E0,9.318517685E0,5.399089813E0,3.735068738E-1
2.407684920E0,9.273026466E0,5.576265812E0,4.501236677E-1
2.409684686E0,9.227535248E0,5.650488377E0,4.764606953E-1
2.411684452E0,9.189227104E0,5.820482254E0,5.147690773E-1
2.413684285E0,9.115004539E0,5.944984436E0,5.650488734E-1
2.415684051E0,9.081484795E0,5.973715782E0,5.626545548E-1
2.417683384E0,9.033598900E0,5.973715782E0,5.602602959E-1
2.419683150E0,8.961771011E0,5.839636326E0,5.458946824E-1
2.421682916E0,8.940221786E0,5.782173634E0,5.387118459E-1
2.423682616E0,8.940221786E0,5.782173634E0,5.387118459E-1
2.425682382E0,8.921068192E0,5.643305779E0,5.554717779E-1
2.427682148E0,8.894730568E0,5.561900616E0,5.650488734E-1
2.429681981E0,8.813325882E0,5.401484013E0,5.506832004E-1
2.431681747E0,8.782199860E0,5.324867249E0,5.435003638E-1
2.433681513E0,8.715160370E0,5.190787792E0,5.482889414E-1
2.435681279E0,8.612206459E0,5.126142502E0,6.033572555E-1
2.437681045E0,8.583475113E0,5.147690773E0,6.368771195E-1
2.439680811E0,8.444606781E0,5.212336063E0,6.009629965E-1
2.441680577E0,8.382355690E0,5.188393593E0,5.674431324E-1
2.443680343E0,8.382355690E0,5.188393593E0,5.674431324E-1
2.445680143E0,8.255459785E0,5.121353626E0,5.147690773E-1
2.447679876E0,8.176448822E0,5.095016956E0,4.932205975E-1
2.449679609E0,8.042368889E0,5.035160065E0,4.620950520E-1
2.451679342E0,7.941809654E0,4.992063046E0,4.333637357E-1
2.453679075E0,7.896318436E0,4.972908974E0,4.142095447E-1
2.455678808E0,7.889135361E0,4.972908974E0,3.902668059E-1
2.457678541E0,7.968146324E0,4.994457245E0,3.399870098E-1
2.459678274E0,8.150111198E0,4.999245644E0,1.101366431E-1
2.461678074E0,8.150111198E0,4.999245644E0,1.101366431E-1
2.463678674E0,8.176448822E0,4.992063046E0,3.112557158E-2
2.465678407E0,8.190814018E0,4.980091572E0,-6.225114316E-2
2.467678140E0,8.162082672E0,4.960937500E0,-2.466102988E-1
2.469677873E0,8.140534401E0,4.929811954E0,-3.256213665E-1
2.471677606E0,8.035185814E0,4.843617916E0,-4.381522834E-1
2.473677339E0,7.910684109E0,4.747847080E0,-5.123748183E-1
2.475677139E0,7.836461544E0,4.709538460E0,-5.482889414E-1
2.477677372E0,7.723930359E0,4.635315895E0,-5.961744189E-1
2.479677105E0,7.786181450E0,4.721509933E0,-7.063110471E-1
2.481676838E0,7.786181450E0,4.721509933E0,-7.063110471E-1
2.483676571E0,7.853221416E0,4.783761024E0,-7.230709791E-1
2.485676304E0,7.946598053E0,4.846012115E0,-7.230709791E-1
2.487676037E0,8.150111198E0,4.970514297E0,-6.440598965E-1
2.489675770E0,8.403904915E0,5.090228081E0,-5.363175869E-1
2.491675570E0,8.537983894E0,5.135719299E0,-4.812492430E-1
2.493675303E0,8.784594536E0,5.209941864E0,-3.567469418E-1
2.495675036E0,8.954587936E0,5.274587631E0,-1.652049571E-1
2.497674769E0,9.000079155E0,5.298530102E0,-6.225114316E-2
2.499674502E0,9.004867554E0,5.308107376E0,2.370332032E-1
2.501674235E0,9.004867554E0,5.308107376E0,2.370332032E-1
2.503673768E0,8.980924606E0,5.303318501E0,2.609759569E-1
2.505673501E0,8.909096718E0,5.298530102E0,2.442160249E-1
2.507673301E0,8.880365372E0,5.291347504E0,2.106961906E-1
2.509673034E0,8.851634026E0,5.300924301E0,1.077423692E-1
2.511672767E0,8.822902679E0,5.363175392E0,2.633702382E-2
2.513672500E0,8.794171333E0,5.391906738E0,7.182824425E-3
2.515672233E0,8.739103317E0,5.463735104E0,4.788549617E-3
2.517671966E0,8.628966331E0,5.528380394E0,6.703969836E-2
2.519671699E0,8.356019020E0,5.655277252E0,2.490045726E-1
2.521671432E0,8.356019020E0,5.655277252E0,2.490045726E-1
2.523671232E0,8.356019020E0,5.655277252E0,2.490045726E-1
2.525670965E0,8.241093636E0,5.703162670E0,3.423812985E-1
2.527670698E0,8.085466385E0,5.719922543E0,4.118152559E-1
2.529670431E0,8.013637543E0,5.710345268E0,4.189980924E-1
2.531670164E0,7.862798691E0,5.679219723E0,3.854782581E-1
2.533669897E0,7.721536160E0,5.621757030E0,3.136500120E-1
2.535669630E0,7.656890869E0,5.585843086E0,2.849186957E-1
2.537669363E0,7.556331158E0,5.506832123E0,2.226675600E-1
2.539669163E0,7.405491829E0,5.303318501E0,5.746259540E-2
2.541668896E0,7.405491829E0,5.303318501E0,5.746259540E-2
2.543668629E0,7.379155159E0,5.274587631E0,-4.788549617E-3
2.545668362E0,7.348029613E0,5.233884811E0,-6.703969836E-2
2.547668095E0,7.269018173E0,5.174027920E0,-2.322446555E-1
2.549667828E0,7.235498428E0,5.171633720E0,-4.070267081E-1
2.551667561E0,7.233104229E0,5.183605194E0,-4.884320498E-1
2.553667361E0,7.285778046E0,5.253038883E0,-6.057515144E-1
2.555667161E0,7.403097630E0,5.291347504E0,-6.129343510E-1
2.557666894E0,7.460560322E0,5.379935265E0,-5.794144869E-1
2.559666627E0,7.652102470E0,5.514014721E0,-5.243461728E-1
2.561666360E0,7.652102470E0,5.514014721E0,-5.243461728E-1
2.563666126E0,7.731113434E0,5.545140266E0,-5.889915824E-1
2.565665859E0,7.946598053E0,5.597814560E0,-7.829278708E-1
2.567665592E0,8.066311836E0,5.645699978E0,-9.074301720E-1
2.569665392E0,8.324893951E0,5.796539307E0,-1.163617611E0
2.571665125E0,8.554743767E0,5.964138508E0,-1.383890867E0
2.573664858E0,8.664880753E0,6.057515144E0,-1.458113313E0
2.575664591E0,8.861210823E0,6.225114346E0,-1.585009933E0
2.577664324E0,8.925856590E0,6.282577038E0,-1.616135478E0
2.579664057E0,9.138946533E0,6.368771076E0,-1.321639657E0
2.581663790E0,9.138946533E0,6.368771076E0,-1.321639657E0
2.583663790E0,9.138946533E0,6.368771076E0,-1.321639657E0
2.585663590E0,9.280209541E0,6.342433929E0,-1.149251938E0
2.587663323E0,9.474145889E0,6.296942711E0,-1.036720991E0
2.589663056E0,9.553156853E0,6.270605564E0,-9.840469360E-1
2.591662789E0,9.720755577E0,6.170046329E0,-9.002473354E-1
2.593662522E0,9.876383781E0,6.105400562E0,-8.978530765E-1
2.595662555E0,9.976943016E0,5.940196037E0,-1.003201127E0
2.597662288E0,1.023552513E1,5.808510780E0,-1.216291547E0
2.599662021E0,1.083409309E1,5.633728504E0,-1.721483588E0
2.601661821E0,1.083409309E1,5.633728504E0,-1.721483588E0
2.603661554E0,1.094901848E1,5.700768471E0,-1.731060743E0
2.605661287E0,1.103042412E1,5.794145107E0,-1.666415215E0
2.607661020E0,1.115732098E1,6.014418125E0,-1.422199249E0
2.609660753E0,1.123154354E1,6.222720146E0,-1.182771802E0
2.611660486E0,1.126266861E1,6.296942711E0,-1.134886265E0
2.613660219E0,1.132013130E1,6.359193802E0,-1.156434774E0
2.615659952E0,1.136322784E1,6.359193802E0,-1.240234375E0
2.617659752E0,1.142308521E1,6.328068256E0,-1.376708031E0
2.619659485E0,1.144223976E1,6.014418125E0,-1.541913033E0
2.621659185E0,1.144223976E1,6.014418125E0,-1.541913033E0
2.623659085E0,1.139195919E1,5.942590237E0,-1.508393168E0
2.625659551E0,1.121717739E1,5.798933506E0,-1.352765322E0
2.627658784E0,1.109506989E1,5.691191196E0,-1.268965602E0
2.629658517E0,1.082691097E1,5.437397957E0,-1.177983165E0
2.631658317E0,1.068564892E1,5.305713177E0,-1.221080184E0
2.633658117E0,1.043903828E1,5.016005516E0,-1.379102230E0
2.635657850E0,1.026186180E1,4.743058205E0,-1.592192769E0
2.637657583E0,1.017806244E1,4.640104771E0,-1.652049661E0
2.639657316E0,1.001525116E1,4.288146019E0,-1.647261024E0
2.641657049E0,9.955394745E0,4.185192585E0,-1.604164124E0
2.643656382E0,9.955394745E0,4.185192585E0,-1.604164124E0
2.645656115E0,9.816526413E0,3.940976381E0,-1.613741279E0
2.647655915E0,9.639349937E0,3.840416908E0,-1.618529797E0
2.649655715E0,9.560338974E0,3.665634632E0,-1.606558442E0
2.651655448E0,9.399923325E0,3.529160976E0,-1.525153041E0
2.653655181E0,9.328094482E0,3.512401104E0,-1.486844659E0
2.655654614E0,9.222746849E0,3.589017868E0,-1.379102230E0
2.657654347E0,9.122186661E0,3.869148016E0,-1.249811411E0
2.659654080E0,8.995290756E0,4.680807114E0,-1.223474383E0
2.661653813E0,8.935433388E0,4.908263206E0,-1.216291547E0
2.663653679E0,8.935433388E0,4.908263206E0,-1.216291547E0
2.665652945E0,8.861210823E0,5.140508175E0,-1.173194647E0
2.667652678E0,8.662486076E0,5.581054688E0,-1.065452337E0
2.669652411E0,8.526012421E0,5.791750908E0,-9.840469360E-1
2.671652144E0,8.250671387E0,6.177228928E0,-7.422251701E-1
2.673651877E0,7.853221416E0,6.529187202E0,-5.315290093E-1
2.675651610E0,7.613793850E0,6.668055534E0,-4.692778587E-1
2.677651343E0,7.163670063E0,6.893116951E0,-5.315290093E-1
2.679651143E0,6.876357079E0,7.230710030E0,-8.667274714E-1
2.681650843E0,6.876357079E0,7.230710030E0,-8.667274714E-1
2.683650576E0,6.952973843E0,7.434223175E0,-8.427847624E-1
2.685649576E0,7.108602047E0,7.522811413E0,-7.422251701E-1
2.687649809E0,7.182824612E0,7.592245579E0,-5.961744189E-1
2.689649542E0,7.252258301E0,7.446194649E0,-5.530774593E-1
2.691649275E0,7.261835575E0,7.300143719E0,-5.937801600E-1
2.693649008E0,7.240286827E0,6.890722752E0,-7.278595567E-1
2.695648808E0,7.139727592E0,6.359193802E0,-8.786988258E-1
2.697648541E0,7.084659100E0,6.110189438E0,-9.553156495E-1
2.699648274E0,6.790163517E0,5.164450645E0,-1.508393168E0
2.701648007E0,6.691998005E0,5.164450645E0,-1.508393168E0
2.703648407E0,6.691998005E0,4.910657406E0,-1.666415215E0
2.705648140E0,6.565101624E0,4.527573586E0,-2.001613855E0
2.707647873E0,6.560312748E0,4.429408550E0,-2.169213057E0
2.709647606E0,6.689603806E0,4.472505569E0,-2.537931204E0
2.711647406E0,6.938608170E0,4.676018715E0,-2.820455790E0
2.713647139E0,7.096630573E0,4.810098171E0,-2.897072554E0
2.715646872E0,7.501263142E0,5.205153465E0,-2.794118643E0
2.717646605E0,7.920260906E0,5.674431324E0,-2.415823221E0
2.719646338E0,8.607418060E0,6.466936111E0,-1.144463301E0
2.721646071E0,8.607418060E0,6.466936111E0,-1.144463301E0
2.723646837E0,8.607418060E0,6.466936111E0,-1.144463301E0
2.725647103E0,8.729525566E0,6.579467297E0,-3.423812985E-1
2.727646903E0,8.655303001E0,6.457359314E0,3.208328187E-1
2.729646803E0,8.597841263E0,6.349617004E0,5.746259689E-1
2.731646536E0,8.447001457E0,6.119766235E0,8.786988258E-1
2.733646269E0,8.205180168E0,5.880339146E0,7.781392932E-1
2.735646002E0,8.068706512E0,5.765413761E0,5.913859010E-1
2.737645735E0,7.738296032E0,5.504437923E0,9.816526622E-2
2.739645468E0,7.209161282E0,5.200365067E0,-9.217957854E-1
2.741645334E0,7.209161282E0,5.200365067E0,-9.217957854E-1
2.743645067E0,7.120573044E0,5.205153465E0,-1.125309110E0
2.745644800E0,7.051139355E0,5.238673210E0,-1.283331275E0
2.747644533E0,7.000859737E0,5.435003757E0,-1.479661822E0
2.749644266E0,7.031985283E0,5.739076614E0,-1.498816013E0
2.751643999E0,7.051139355E0,5.930618763E0,-1.446141958E0
2.753643732E0,7.108602047E0,6.304125786E0,-1.245022893E0
2.755643465E0,7.206767082E0,6.636929989E0,-9.146129489E-1
2.757643265E0,7.237892628E0,6.794951916E0,-6.919454336E-1
2.759642998E0,7.441406250E0,7.288172722E0,5.985686928E-2
2.761642731E0,7.522811413E0,7.419857502E0,8.140534163E-2
2.763641031E0,7.522811413E0,7.419857502E0,8.140534163E-2
2.765640764E0,7.716747761E0,7.652102470E0,-1.484450400E-1
2.767640497E0,7.793364525E0,7.750267506E0,-3.495641351E-1
2.769640230E0,7.841249943E0,7.893924236E0,-8.116591573E-1
2.771639963E0,7.790970325E0,7.929838181E0,-1.304879785E0
2.773639763E0,7.747873306E0,7.893924236E0,-1.498816013E0
2.775639496E0,7.692804813E0,7.731113434E0,-1.783734679E0
2.777639229E0,7.707170486E0,7.644919395E0,-1.855562925E0
2.779638962E0,7.790970325E0,7.302538395E0,-1.881899953E0
2.781638695E0,7.790970325E0,7.302538395E0,-1.881899953E0
2.783637395E0,7.790970325E0,7.302538395E0,-1.881899953E0
2.785637128E0,7.877163887E0,7.146910191E0,-1.719089270E0
2.787636861E0,7.965752125E0,6.996070862E0,-1.505998850E0
2.789636494E0,7.994483471E0,6.929031372E0,-1.398256540E0
2.791636260E0,8.023215294E0,6.771008968E0,-1.249811411E0
2.793636026E0,8.075888634E0,6.598621368E0,-1.213897347E0
2.795635792E0,8.150111198E0,6.498061657E0,-1.199531674E0
2.797635558E0,8.351230621E0,6.289760113E0,-1.235445857E0
2.799635324E0,8.482915878E0,5.698374271E0,-1.501210332E0
2.801635057E0,8.482915878E0,5.698374271E0,-1.501210332E0
2.803634890E0,8.545166969E0,5.662459850E0,-1.723877907E0
2.805634723E0,8.590658188E0,5.628940105E0,-1.970488191E0
2.807634489E0,8.480521202E0,5.377541065E0,-2.288926601E0
2.809634255E0,8.274613380E0,5.229096413E0,-2.305686712E0
2.811634021E0,8.320104599E0,5.320078850E0,-2.300898075E0
2.813633787E0,8.456578255E0,5.569083214E0,-2.351177931E0
2.815633553E0,8.430241585E0,5.660065651E0,-2.367937803E0
2.817633319E0,8.312922478E0,5.842030525E0,-2.312869549E0
2.819633152E0,8.166871071E0,6.165257454E0,-2.138087511E0
2.821632918E0,8.166871071E0,6.165257454E0,-2.138087511E0
2.823633584E0,8.090254784E0,6.225114346E0,-2.090201855E0
2.825633350E0,7.939415455E0,6.328068256E0,-2.066259146E0
2.827633116E0,7.841249943E0,6.368771076E0,-2.097384691E0
2.829632882E0,7.594639778E0,6.517216206E0,-2.219492674E0
2.831632648E0,7.288172722E0,6.608198643E0,-2.399063349E0
2.833632781E0,7.149304390E0,6.881145954E0,-2.439765930E0
2.835632614E0,6.897905827E0,7.211555958E0,-2.442160368E0
2.837632380E0,6.759037971E0,7.371972084E0,-2.406246185E0
2.839632146E0,6.112583637E0,7.929838181E0,-1.905842781E0
2.841631879E0,6.112583637E0,7.929838181E0,-1.905842781E0
2.843631579E0,6.112583637E0,7.929838181E0,-1.905842781E0
2.845631345E0,5.679219723E0,7.889135361E0,-1.824437380E0
2.847631111E0,5.221913338E0,7.688016415E0,-1.755003452E0
2.849630877E0,5.051919937E0,7.537177086E0,-1.697540879E0
2.851630677E0,4.752635479E0,7.185218811E0,-1.546701550E0
2.853630410E0,4.637710094E0,7.003253937E0,-1.470084786E0
2.855630143E0,4.486870766E0,6.615381241E0,-1.355159521E0
2.857629876E0,4.362368584E0,6.284971237E0,-1.369525194E0
2.859629609E0,4.228289127E0,5.935407162E0,-1.388679385E0
2.861629375E0,4.228289127E0,5.935407162E0,-1.388679385E0
2.863629108E0,4.185192585E0,5.937801361E0,-1.462901950E0
2.865628841E0,4.158855438E0,5.949772835E0,-1.522758722E0
2.867628641E0,4.280963421E0,5.990475655E0,-1.515576005E0
2.869628374E0,4.580247879E0,6.083852291E0,-1.515576005E0
2.871628107E0,4.695172787E0,6.292154312E0,-1.625712633E0
2.873627840E0,4.975303173E0,6.507638931E0,-1.704723716E0
2.875627573E0,5.164450645E0,6.620169640E0,-1.695146561E0
2.877627306E0,5.449369431E0,6.732700825E0,-1.666415215E0
2.879627039E0,5.873156071E0,6.833260536E0,-1.628106833E0
2.881626839E0,5.873156071E0,6.833260536E0,-1.628106833E0
2.883626639E0,5.980898380E0,6.840443134E0,-1.616135478E0
2.885626372E0,6.191594601E0,6.861991405E0,-1.601769805E0
2.887626105E0,6.308914185E0,6.883540154E0,-1.577827096E0
2.889625838E0,6.550735950E0,6.878751755E0,-1.508393168E0
2.891625571E0,6.680026531E0,6.871568680E0,-1.470084786E0
2.893624937E0,6.924242973E0,6.861991405E0,-1.403045058E0
2.895624670E0,7.067899227E0,6.828471661E0,-1.410227895E0
2.897624470E0,7.125361919E0,6.806923389E0,-1.415016413E0
2.899624270E0,7.575485706E0,6.759037971E0,-1.352765322E0
2.901624036E0,7.575485706E0,6.763826370E0,-1.352765322E0
2.903623769E0,7.575485706E0,6.763826370E0,-1.352765322E0
2.905623502E0,7.786181450E0,6.814105988E0,-1.343188167E0
2.907623235E0,7.850827217E0,6.854808807E0,-1.319245458E0
2.909622968E0,7.893924236E0,6.972128391E0,-1.206714511E0
2.911622701E0,7.855615616E0,7.087053299E0,-9.936240315E-1
2.913622501E0,7.812518597E0,7.158881664E0,-8.810931444E-1
2.915622234E0,7.743084908E0,7.269018173E0,-6.775797606E-1
2.917621967E0,7.685622215E0,7.336058140E0,-5.865973234E-1
2.919621700E0,7.692804813E0,7.326480865E0,-8.284190893E-1
2.921621433E0,7.692804813E0,7.326480865E0,-8.284190893E-1
2.923621166E0,7.719141960E0,7.326480865E0,-9.433442950E-1
2.925620899E0,7.762238979E0,7.201978683E0,-1.082212210E0
2.927620632E0,7.879558563E0,7.015225410E0,-1.458113313E0
2.929620432E0,7.944203854E0,6.926637173E0,-1.642472506E0
2.931620165E0,8.054340363E0,6.780586243E0,-1.963305354E0
2.933619898E0,8.171659470E0,6.670449734E0,-2.114144564E0
2.935619631E0,8.248276711E0,6.634535313E0,-2.133298874E0
2.937619064E0,8.365595818E0,6.557918549E0,-2.106961727E0
2.939618797E0,8.320104599E0,6.510033131E0,-1.790917516E0
2.941618530E0,8.320104599E0,6.510033131E0,-1.790917516E0
2.943617330E0,8.233911514E0,6.550735950E0,-1.683175206E0
2.945617130E0,8.130957603E0,6.617775440E0,-1.568249941E0
2.947616863E0,7.793364525E0,6.830865860E0,-1.345582485E0
2.949616596E0,7.383943558E0,7.103813171E0,-1.156434774E0
2.951616329E0,7.163670063E0,7.223526955E0,-1.082212210E0
2.953616062E0,6.751854897E0,7.458166122E0,-9.672870040E-1
2.955615795E0,6.517216206E0,7.678439140E0,-8.954587579E-1
2.957615528E0,6.462147713E0,7.762238979E0,-8.763045669E-1
2.959615261E0,6.672843933E0,8.061523438E0,-8.475732803E-1
2.961615061E0,6.751854897E0,8.118986130E0,-8.739103079E-1
2.963614794E0,6.751854897E0,8.118986130E0,-8.739103079E-1
2.965614527E0,6.850020409E0,8.214756966E0,-9.385557175E-1
2.967614260E0,6.857203007E0,8.241093636E0,-9.696813226E-1
2.969613993E0,6.794951916E0,8.269824982E0,-9.696813226E-1
2.971613726E0,6.668055534E0,8.236305237E0,-8.882759809E-1
2.973613459E0,6.589044094E0,8.188420296E0,-8.164477348E-1
2.975613259E0,6.395108223E0,8.109408379E0,-6.632141471E-1
2.977613059E0,6.158074856E0,8.006455421E0,-5.363175869E-1
2.979612792E0,5.818087578E0,7.778998852E0,-7.254652381E-1
2.981612525E0,5.765413761E0,7.699987888E0,-9.361614585E-1
2.983612258E0,5.765413761E0,7.699987888E0,-9.361614585E-1
2.985611991E0,5.763019562E0,7.592245579E0,-1.520364523E0
2.987611724E0,5.906675816E0,7.446194649E0,-1.941756845E0
2.989611457E0,5.966532707E0,7.381549358E0,-2.147664547E0
2.991611257E0,6.016812801E0,7.261835575E0,-2.470891714E0
2.993610990E0,5.995264053E0,7.089447498E0,-2.681587696E0
2.995610723E0,5.959350109E0,7.000859737E0,-2.791724443E0
2.997610756E0,5.877944469E0,6.835654736E0,-2.940169573E0
2.999610489E0,5.753442287E0,6.665660858E0,-2.739050388E0
3.001610222E0,5.753442287E0,6.665660858E0,-2.739050388E0
3.003610888E0,5.729499817E0,6.689603806E0,-2.660039425E0
3.005610621E0,5.710345268E0,6.727912426E0,-2.590605259E0
3.007610421E0,5.626545906E0,6.845231533E0,-2.557085514E0
3.009610187E0,5.458946705E0,7.012830734E0,-2.674404860E0
3.011609953E0,5.384724140E0,7.094236374E0,-2.770175934E0
3.013609719E0,5.346415520E0,7.192401409E0,-3.019180536E0
3.015609485E0,5.499649048E0,7.201978683E0,-3.208328247E0
3.017609251E0,5.595420361E0,7.175641537E0,-3.332830429E0
3.019609017E0,5.719922543E0,7.316903591E0,-3.476486921E0
3.021608783E0,5.688796997E0,7.405491829E0,-3.416630268E0
3.023608616E0,5.688796997E0,7.405491829E0,-3.416630268E0
3.025608482E0,5.585843086E0,7.599428177E0,-3.256213665E0
3.027608348E0,5.571477413E0,7.704776287E0,-3.107768774E0
3.029608214E0,5.619362831E0,7.869981289E0,-2.748627424E0
3.031608080E0,5.753442287E0,7.958569527E0,-2.399063349E0
3.033607946E0,5.849213123E0,7.980117798E0,-2.308080912E0
3.035607812E0,5.988081455E0,7.982511997E0,-2.243435383E0
3.037607678E0,6.038361073E0,7.948992252E0,-2.296109438E0
3.039607611E0,6.107795238E0,7.764633179E0,-2.631308079E0
3.041607511E0,6.062304020E0,7.690410614E0,-2.731867552E0
3.043923439E0,6.062304020E0,7.690410614E0,-2.731867552E0
3.045923372E0,5.901887417E0,7.534782887E0,-2.818061352E0
3.047923305E0,5.631334305E0,7.376760483E0,-2.779752970E0
3.049923238E0,5.473312378E0,7.295355320E0,-2.736656189E0
3.051923171E0,5.190787792E0,7.154093266E0,-2.566662550E0
3.053923171E0,4.963331699E0,7.115784645E0,-2.456526041E0
3.055923171E0,4.869955063E0,7.063110828E0,-2.236252785E0
3.057923137E0,4.709538460E0,7.089447498E0,-2.049499273E0
3.059923103E0,4.522785187E0,7.221132755E0,-1.941756845E0
3.061923069E0,4.522785187E0,7.221132755E0,-1.941756845E0
3.063923035E0,4.482082367E0,7.223526955E0,-1.924996972E0
3.065923001E0,4.436591148E0,7.228315830E0,-1.884294271E0
3.067922967E0,4.367157459E0,7.199584484E0,-1.812466025E0
3.069922967E0,4.357580185E0,7.182824612E0,-1.872322917E0
3.071922933E0,4.374340057E0,7.216344357E0,-1.951334000E0
3.073922899E0,4.450956821E0,7.395915031E0,-2.176395893E0
3.075922865E0,4.513207912E0,7.522811413E0,-2.281744003E0
3.077922831E0,4.637710094E0,7.769421577E0,-2.430188894E0
3.079922797E0,4.735875607E0,8.205180168E0,-2.399063349E0
3.081922763E0,4.735875607E0,8.291373253E0,-2.367937803E0
3.083923229E0,4.735875607E0,8.291373253E0,-2.367937803E0
3.085923162E0,4.822069645E0,8.387145042E0,-2.236252785E0
3.087923062E0,4.898686409E0,8.401510239E0,-2.171607256E0
3.089922962E0,5.095016956E0,8.442213058E0,-2.109356165E0
3.091922428E0,5.238673210E0,8.473338127E0,-2.102173328E0
3.093922328E0,5.705556870E0,8.466156006E0,-2.197944164E0
3.095922228E0,6.373559475E0,8.403904915E0,-2.475680113E0
3.097921728E0,6.756643295E0,8.360807419E0,-2.612153769E0
3.099921628E0,8.250671387E0,8.099831581E0,-3.141288519E0
3.101921561E0,8.573898315E0,7.970541000E0,-3.275367975E0
3.103921561E0,8.573898315E0,7.970541000E0,-3.275367975E0
3.105921461E0,9.071907043E0,7.688016415E0,-3.404658794E0
3.107921361E0,9.296969414E0,7.522811413E0,-3.316070557E0
3.109921261E0,9.318517685E0,7.216344357E0,-3.220299721E0
3.111921161E0,9.296969414E0,6.897905827E0,-2.964112282E0
3.113921061E0,9.215563774E0,6.735095024E0,-2.801301479E0
3.115920961E0,8.964164734E0,6.318490982E0,-2.341600657E0
3.117920894E0,8.607418060E0,5.889915943E0,-1.939362645E0
3.119920760E0,8.049551964E0,5.614574432E0,-1.589798450E0
3.121920626E0,8.049551964E0,5.614574432E0,-1.589798450E0
3.123920659E0,7.963357925E0,5.612180233E0,-1.474873304E0
3.125920525E0,7.886741161E0,5.621757030E0,-1.364736676E0
3.127920391E0,7.798152924E0,5.707951069E0,-1.146857619E0
3.129920257E0,7.752661705E0,5.774991035E0,-1.022355318E0
3.131920157E0,7.644919395E0,5.904281616E0,-7.948992252E-1
3.133920057E0,7.467742920E0,6.088640690E0,-5.889915824E-1
3.135919890E0,7.316903591E0,6.189200401E0,-4.118152559E-1
3.137919723E0,6.921848297E0,6.392713547E0,6.943397224E-2
3.139919556E0,5.990475655E0,6.830865860E0,7.781392932E-1
3.141919389E0,5.789356709E0,6.830865860E0,7.781392932E-1
3.143918722E0,5.789356709E0,6.938608170E0,8.810931444E-1
3.145918555E0,5.427821159E0,7.043956280E0,9.529213905E-1
3.147918421E0,5.272192955E0,7.261835575E0,1.017566800E0
3.149918287E0,5.078257084E0,7.498868465E0,1.022355318E0
3.151918520E0,5.037554264E0,7.601822376E0,9.720755816E-1
3.153918320E0,5.020794392E0,7.795758724E0,8.284190893E-1
3.155918120E0,5.032765865E0,7.946598053E0,7.158881426E-1
3.157918320E0,5.027976990E0,8.011243820E0,6.919454336E-1
3.159918120E0,5.032765865E0,8.142929077E0,6.129343510E-1
3.161917920E0,5.071074009E0,8.150111198E0,5.913859010E-1
3.163917886E0,5.071074009E0,8.150111198E0,5.913859010E-1
3.165917619E0,5.181210518E0,8.068706512E0,4.812492430E-1
3.167917352E0,5.248250484E0,8.037580490E0,3.998439014E-1
3.169917085E0,5.432609558E0,7.996877670E0,2.418217510E-1
3.171916818E0,5.710345268E0,7.994483471E0,-2.154847234E-2
3.173916551E0,5.865973473E0,7.999272346E0,-2.130904645E-1
3.175916284E0,6.191594601E0,7.970541000E0,-6.129343510E-1
3.177916017E0,6.500456333E0,7.862798691E0,-1.000806928E0
3.179915817E0,6.945791245E0,7.618582249E0,-1.245022893E0
3.181915517E0,6.945791245E0,7.537177086E0,-1.245022893E0
3.183915083E0,7.036773682E0,7.537177086E0,-1.278542757E0
3.185914816E0,7.118178844E0,7.419857502E0,-1.328822494E0
3.187914549E0,7.252258301E0,7.261835575E0,-1.350371003E0
3.189914282E0,7.300143719E0,7.197190285E0,-1.300091267E0
3.191914015E0,7.331269264E0,7.089447498E0,-1.139674783E0
3.193913748E0,7.336058140E0,6.996070862E0,-1.168406129E0
3.195913548E0,7.343240738E0,6.955368519E0,-1.201925993E0
3.197913281E0,7.369577885E0,6.955368519E0,-1.336005330E0
3.199913014E0,7.496474266E0,7.285778046E0,-1.922602654E0
3.201912747E0,7.496474266E0,7.285778046E0,-1.922602654E0
3.203912480E0,7.513234138E0,7.412674904E0,-1.960911036E0
3.205912213E0,7.539571285E0,7.541965485E0,-1.927391171E0
3.207911946E0,7.549148560E0,7.690410614E0,-1.733454943E0
3.209911679E0,7.484503269E0,7.685622215E0,-1.391073704E0
3.211911479E0,7.474925995E0,7.644919395E0,-1.199531674E0
3.213911212E0,7.458166122E0,7.513234138E0,-8.858816624E-1
3.215910945E0,7.407886028E0,7.340846539E0,-7.158881426E-1
3.217910678E0,7.367183685E0,7.242681503E0,-6.656084061E-1
3.219910411E0,7.027196407E0,6.782980442E0,-5.363175869E-1
3.221910144E0,6.869174480E0,6.782980442E0,-5.363175869E-1
3.223909877E0,6.869174480E0,6.713546753E0,-5.626545548E-1
3.225909677E0,6.524398804E0,6.677632332E0,-7.302538157E-1
3.227909477E0,6.383136749E0,6.675238132E0,-7.733507752E-1
3.229909210E0,6.155680656E0,6.699181080E0,-7.757450342E-1
3.231908943E0,6.009629726E0,6.730306625E0,-7.518022656E-1
3.233908676E0,5.925830364E0,6.749460697E0,-7.110996246E-1
3.235908409E0,5.748653889E0,6.816500187E0,-6.727912426E-1
3.237908142E0,5.514014721E0,6.850020409E0,-6.919454336E-1
3.239907875E0,5.013611317E0,6.873962879E0,-6.536370516E-1
3.241907708E0,4.834040642E0,6.857203007E0,-6.129343510E-1
3.243907441E0,4.834040642E0,6.857203007E0,-6.129343510E-1
3.245907174E0,4.472505569E0,6.845231533E0,-4.836435020E-1
3.247906907E0,4.185192585E0,6.840443134E0,-4.309694767E-1
3.249906640E0,4.132518291E0,6.840443134E0,-4.908263385E-1
3.251906373E0,4.168432236E0,6.929031372E0,-8.499675393E-1
3.253906106E0,4.324060440E0,7.178035736E0,-1.283331275E0
3.255905839E0,4.395888329E0,7.340846539E0,-1.436564922E0
3.257905639E0,4.558699131E0,7.695199013E0,-1.546701550E0
3.259905372E0,4.716721535E0,8.286584854E0,-9.984126091E-1
3.261905105E0,4.716721535E0,8.286584854E0,-9.984126091E-1
3.263904838E0,4.676018715E0,8.298556328E0,-8.403904438E-1
3.265904571E0,4.632921696E0,8.250671387E0,-6.608198285E-1
3.267904304E0,4.503631115E0,8.054340363E0,-3.040728867E-1
3.269904037E0,4.242654800E0,7.944203854E0,-1.197137404E-2
3.271903770E0,4.091815472E0,7.896318436E0,8.858817071E-2
3.273903570E0,4.039141655E0,7.884346962E0,2.633702159E-1
3.275903303E0,4.118152618E0,7.886741161E0,3.663240373E-1
3.277903036E0,4.498842239E0,7.858009815E0,3.711125851E-1
3.279902769E0,5.590631485E0,7.719141960E0,-1.891477108E-1
3.281902502E0,5.590631485E0,7.719141960E0,-1.891477108E-1
3.283902235E0,5.700768471E0,7.699987888E0,-2.561874092E-1
3.285901968E0,6.007235527E0,7.884346962E0,-7.326480746E-1
3.287901701E0,6.172440529E0,7.968146324E0,-9.265843630E-1
3.289901501E0,6.296942711E0,7.867587090E0,-8.236305118E-1
3.291901234E0,6.476513386E0,7.673650742E0,-2.011190802E-1
3.293900967E0,6.701575279E0,7.309720993E0,-1.628106833E-1
3.295900700E0,6.694392204E0,6.871568680E0,5.985686928E-2
3.297900433E0,6.715940952E0,6.775797844E0,-2.585816681E-1
3.299899733E0,7.716747761E0,7.350423813E0,-1.187560320E0
3.301899466E0,7.716747761E0,7.350423813E0,-1.187560320E0
3.303899266E0,7.716747761E0,7.350423813E0,-1.187560320E0
3.305899066E0,8.432636261E0,7.673650742E0,-1.161223292E0
3.307898799E0,8.758256912E0,7.728719234E0,-1.245022893E0
3.309898532E0,8.581081390E0,7.659285069E0,-1.268965602E0
3.311898265E0,7.970541000E0,7.477320194E0,-1.180377483E0
3.313897998E0,7.704776287E0,7.400703430E0,-1.051086664E0
3.315897731E0,7.352818012E0,7.297749519E0,-7.206767201E-1
3.317897464E0,7.156487465E0,7.211555958E0,-6.273000240E-1
3.319897264E0,6.675238132E0,6.972128391E0,-1.685569525E0
3.321897064E0,6.675238132E0,6.972128391E0,-1.685569525E0
3.323896864E0,6.675238132E0,6.972128391E0,-1.685569525E0
3.325896597E0,6.555524349E0,7.022408009E0,-1.743032098E0
3.327896330E0,6.340039730E0,7.187613010E0,-1.537124395E0
3.329896063E0,6.182017326E0,7.283383846E0,-1.357553840E0
3.331895796E0,6.131737709E0,7.415069103E0,-1.082212210E0
3.333895529E0,6.110189438E0,7.508445740E0,-1.019961119E0
3.335895329E0,6.138920784E0,7.520417213E0,-1.075029373E0
3.337895062E0,6.270605564E0,7.498868465E0,-1.218685865E0
3.339894795E0,6.488484859E0,7.498868465E0,-1.256994247E0
3.341894461E0,6.488484859E0,7.498868465E0,-1.256994247E0
3.343894194E0,6.598621368E0,7.506051540E0,-1.149251938E0
3.345893927E0,6.718335152E0,7.508445740E0,-9.026415944E-1
3.347893660E0,6.809317589E0,7.510839939E0,-7.326480746E-1
3.349893393E0,7.051139355E0,7.544359684E0,-3.567469418E-1
3.351893193E0,7.156487465E0,7.553936958E0,-1.460507661E-1
3.353892926E0,7.324086666E0,7.527599812E0,3.112557232E-1
3.355892659E0,7.431828976E0,7.458166122E0,8.499675393E-1
3.357892392E0,7.455771923E0,7.434223175E0,1.098972082E0
3.359892558E0,7.510839939E0,7.458166122E0,1.556278586E0
3.361892291E0,7.489291668E0,7.484503269E0,1.529941559E0
3.363892124E0,7.489291668E0,7.484503269E0,1.529941559E0
3.365891857E0,7.379155159E0,7.522811413E0,1.379102230E0
3.367891657E0,7.280989647E0,7.501263142E0,1.268965602E0
3.369891390E0,7.036773682E0,7.429434776E0,1.022355318E0
3.371891123E0,6.806923389E0,7.336058140E0,6.847625971E-1
3.373890856E0,6.711152077E0,7.307326794E0,4.644893110E-1
3.375890589E0,6.500456333E0,7.324086666E0,7.182824612E-2
3.377890322E0,6.261028767E0,7.364789486E0,-2.011190802E-1
3.379890055E0,5.909070015E0,7.257047176E0,-5.722316504E-1
3.381889788E0,5.909070015E0,7.257047176E0,-5.722316504E-1
3.383889588E0,5.909070015E0,7.257047176E0,-5.722316504E-1
3.385889321E0,5.897099018E0,7.120573044E0,-7.446194887E-1
3.387889054E0,5.978504181E0,7.027196407E0,-9.146129489E-1
3.389888787E0,6.021601200E0,6.988888264E0,-9.720755816E-1
3.391888520E0,6.117372036E0,6.993676662E0,-1.010383964E0
3.393888253E0,6.179623127E0,7.072687626E0,-9.505270720E-1
3.395887986E0,6.193988800E0,7.156487465E0,-9.050358534E-1
3.397887786E0,6.177228928E0,7.391126156E0,-8.188419938E-1
3.399887586E0,6.069486618E0,7.695199013E0,-6.847625971E-1
3.401887386E0,6.069486618E0,7.695199013E0,-6.847625971E-1
3.403887119E0,6.076669693E0,7.745479107E0,-6.249057055E-1
3.405886852E0,6.093429565E0,7.778998852E0,-5.770202279E-1
3.407886585E0,6.186806202E0,7.812518597E0,-4.764606953E-1
3.409886318E0,6.330462456E0,7.812518597E0,-3.519583941E-1
3.411886051E0,6.399896622E0,7.802941799E0,-3.040728867E-1
3.413885851E0,6.569890022E0,7.752661705E0,-2.298503816E-1
3.415885584E0,6.718335152E0,7.652102470E0,-1.532335877E-1
3.417885317E0,6.778192043E0,7.609005451E0,-1.005595401E-1
3.419885050E0,6.842837334E0,7.625765324E0,1.484450400E-1
3.421884783E0,6.797346115E0,7.625765324E0,1.484450400E-1
3.423884249E0,6.797346115E0,7.635342598E0,2.705530524E-1
3.425883982E0,6.691998005E0,7.678439140E0,5.506832004E-1
3.427883715E0,6.663266659E0,7.690410614E0,6.847625971E-1
3.429883515E0,6.672843933E0,7.695199013E0,9.194015265E-1
3.431883248E0,6.708757877E0,7.688016415E0,1.067846537E0
3.433882981E0,6.737489223E0,7.666468143E0,1.125309110E0
3.435882714E0,6.830865860E0,7.632947922E0,1.182771802E0
3.437882447E0,6.952973843E0,7.599428177E0,1.209108829E0
3.439882180E0,7.139727592E0,7.597033978E0,1.012778282E0
3.441881913E0,7.139727592E0,7.597033978E0,1.012778282E0
3.443882346E0,7.139727592E0,7.597033978E0,1.012778282E0
3.445882146E0,7.168458939E0,7.609005451E0,1.010383964E0
3.447881912E0,7.146910191E0,7.606611252E0,1.053480864E0
3.449882145E0,7.137333393E0,7.604216576E0,1.075029373E0
3.451881911E0,7.163670063E0,7.577879906E0,1.087000728E0
3.453881677E0,7.211555958E0,7.573091030E0,1.031932473E0
3.455881443E0,7.254652500E0,7.577879906E0,9.936240315E-1
3.457881209E0,7.391126156E0,7.570696831E0,8.715160489E-1
3.459880975E0,7.841249943E0,7.446194649E0,5.722316504E-1
3.461880808E0,7.841249943E0,7.446194649E0,5.722316504E-1
3.463881008E0,7.908289909E0,7.410280704E0,5.147690773E-1
3.465880774E0,7.956175327E0,7.369577885E0,4.740664065E-1
3.467880540E0,7.980117798E0,7.304932594E0,3.567469418E-1
3.469880306E0,7.889135361E0,7.259441376E0,1.915419847E-1
3.471880072E0,7.798152924E0,7.252258301E0,1.412622184E-1
3.473879838E0,7.565908432E0,7.269018173E0,1.125309169E-1
3.475879671E0,7.314509392E0,7.280989647E0,1.987248063E-1
3.477879504E0,7.206767082E0,7.314509392E0,2.681587934E-1
3.479879270E0,7.048745155E0,7.324086666E0,3.591412306E-1
3.481879036E0,7.075081825E0,7.326480865E0,3.495641351E-1
3.483879136E0,7.075081825E0,7.326480865E0,3.495641351E-1
3.485878902E0,7.206767082E0,7.300143719E0,3.447755575E-1
3.487878668E0,7.273807049E0,7.285778046E0,3.447755575E-1
3.489878434E0,7.400703430E0,7.242681503E0,3.543526828E-1
3.491878267E0,7.484503269E0,7.235498428E0,3.854782581E-1
3.493878033E0,7.503657341E0,7.235498428E0,3.950553536E-1
3.495877799E0,7.520417213E0,7.235498428E0,3.663240373E-1
3.497877565E0,7.510839939E0,7.237892628E0,3.280156553E-1
3.499877331E0,7.412674904E0,7.300143719E0,9.098244458E-2
3.501877097E0,7.412674904E0,7.300143719E0,9.098244458E-2
3.503876230E0,7.412674904E0,7.300143719E0,9.098244458E-2
3.505875996E0,7.264229774E0,7.324086666E0,4.788549617E-2
3.507875796E0,7.134938717E0,7.328875065E0,-2.394274808E-3
3.509875062E0,7.060716629E0,7.328875065E0,-2.873129770E-2
3.511874795E0,6.950579643E0,7.295355320E0,-5.506832153E-2
3.513874528E0,6.873962879E0,7.276201248E0,-6.464541703E-2
3.515874261E0,6.840443134E0,7.206767082E0,-8.619388938E-2
3.517873994E0,6.790163517E0,7.132544518E0,-1.340793967E-1
3.519873727E0,6.512427330E0,7.115784645E0,-2.801301479E-1
3.521873460E0,6.512427330E0,7.115784645E0,-2.801301479E-1
3.523872760E0,6.414262295E0,7.134938717E0,-3.208328187E-1
3.525872493E0,6.316096783E0,7.156487465E0,-3.519583941E-1
3.527872226E0,6.155680656E0,7.180429935E0,-3.806896806E-1
3.529871959E0,6.076669693E0,7.182824612E0,-4.142095447E-1
3.531871692E0,6.069486618E0,7.175641537E0,-4.597007632E-1
3.533871425E0,6.086246490E0,7.130150318E0,-5.650488734E-1
3.535871158E0,6.086246490E0,7.099024773E0,-6.392713785E-1
3.537870891E0,6.136526108E0,7.017619610E0,-7.685621977E-1
3.539870691E0,6.328068256E0,6.919454098E0,-8.667274714E-1
3.541870424E0,6.328068256E0,6.919454098E0,-8.667274714E-1
3.543869957E0,6.423839092E0,6.909877300E0,-8.667274714E-1
3.545869690E0,6.648900986E0,6.900300026E0,-8.499675393E-1
3.547869423E0,6.775797844E0,6.902694225E0,-8.212362528E-1
3.549869156E0,7.020013809E0,6.885934353E0,-7.374366522E-1
3.551868889E0,7.115784645E0,6.885934353E0,-6.823683381E-1
3.553868689E0,7.233104229E0,6.929031372E0,-5.387118459E-1
3.555868489E0,7.201978683E0,7.003253937E0,-3.543526828E-1
3.557868222E0,7.142121792E0,7.039167881E0,-2.418217510E-1
3.559867955E0,6.950579643E0,7.292961121E0,4.142095447E-1
3.561867688E0,6.950579643E0,7.292961121E0,4.142095447E-1
3.563867288E0,6.950579643E0,7.292961121E0,4.142095447E-1
3.565867021E0,7.043956280E0,7.391126156E0,5.818088055E-1
3.567866754E0,7.209161282E0,7.436617374E0,7.063110471E-1
3.569866554E0,7.302538395E0,7.486897469E0,7.565908432E-1
3.571866354E0,7.527599812E0,7.525205612E0,8.212362528E-1
3.573866087E0,7.630553722E0,7.539571285E0,8.379961848E-1
3.575865820E0,7.786181450E0,7.568302631E0,8.882759809E-1
3.577865553E0,7.867587090E0,7.556331158E0,9.577099085E-1
3.579865286E0,7.752661705E0,7.570696831E0,1.055875182E0
3.581865019E0,7.752661705E0,7.570696831E0,1.055875182E0
3.583864819E0,7.678439140E0,7.553936958E0,1.012778282E0
3.585864619E0,7.582668304E0,7.527599812E0,9.481328130E-1
3.587864352E0,7.374366283E0,7.501263142E0,7.829278708E-1
3.589864085E0,7.280989647E0,7.501263142E0,7.230709791E-1
3.591863818E0,7.036773682E0,7.465348721E0,6.009629965E-1
3.593863551E0,6.756643295E0,7.417463303E0,5.267404318E-1
3.595863284E0,6.646506786E0,7.391126156E0,5.243461728E-1
3.597863017E0,6.483695984E0,7.338452339E0,5.530774593E-1
3.599862750E0,6.452570438E0,7.290566921E0,4.788549542E-1
3.601862550E0,6.452570438E0,7.290566921E0,4.788549542E-1
3.603861850E0,6.471724987E0,7.249864101E0,4.333637357E-1
3.605861583E0,6.502850533E0,7.211555958E0,3.854782581E-1
3.607861316E0,6.579467297E0,7.108602047E0,3.112557232E-1
3.609861049E0,6.653689861E0,7.010436535E0,2.873129845E-1
3.611860782E0,6.656084061E0,6.972128391E0,3.040728867E-1
3.613860515E0,6.627352715E0,6.924242973E0,3.902668059E-1
3.615859815E0,6.555524349E0,6.897905827E0,4.692778587E-1
3.617859615E0,6.526793003E0,6.902694225E0,4.956148863E-1
3.619859348E0,6.438204765E0,6.955368519E0,4.740664065E-1
3.621859081E0,6.438204765E0,6.957762718E0,4.740664065E-1
3.623858814E0,6.438204765E0,6.957762718E0,4.740664065E-1
3.625858547E0,6.442993641E0,6.988888264E0,3.160442710E-1
3.627858280E0,6.452570438E0,7.020013809E0,1.891477108E-1
3.629858013E0,6.529187202E0,7.065505028E0,-1.340793967E-1
3.631857746E0,6.658478260E0,7.118178844E0,-4.549122155E-1
3.633857546E0,6.723123550E0,7.146910191E0,-5.961744189E-1
3.635857279E0,6.873962879E0,7.192401409E0,-7.470137477E-1
3.637857012E0,6.974522591E0,7.206767082E0,-7.901107073E-1
3.639856745E0,6.919454098E0,7.110996246E0,-7.278595567E-1
3.641856478E0,6.919454098E0,7.082264900E0,-7.278595567E-1
3.643856611E0,6.890722752E0,7.082264900E0,-6.943396926E-1
3.645856344E0,6.840443134E0,7.060716629E0,-6.632141471E-1
3.647856144E0,6.759037971E0,7.120573044E0,-5.889915824E-1
3.649855944E0,6.744672298E0,7.132544518E0,-5.458946824E-1
3.651855677E0,6.718335152E0,7.156487465E0,-4.908263385E-1
3.653855410E0,6.610592842E0,7.075081825E0,-3.351984620E-1
3.655855143E0,6.579467297E0,7.048745155E0,-2.322446555E-1
3.657854876E0,6.557918549E0,7.103813171E0,-1.029538140E-1
3.659854609E0,6.646506786E0,7.302538395E0,1.292908341E-1
3.661854342E0,6.646506786E0,7.302538395E0,1.292908341E-1
3.663853708E0,6.715940952E0,7.345634937E0,1.508393139E-1
3.665853441E0,6.794951916E0,7.381549358E0,1.867534369E-1
3.667853174E0,6.962551117E0,7.446194649E0,2.490045726E-1
3.669852907E0,7.072687626E0,7.410280704E0,2.705530524E-1
3.671852640E0,7.108602047E0,7.338452339E0,2.968900800E-1
3.673852373E0,7.197190285E0,7.290566921E0,2.705530524E-1
3.675852539E0,7.247469902E0,7.410280704E0,2.106961906E-1
3.677852272E0,7.233104229E0,7.417463303E0,1.699935049E-1
3.679852072E0,7.192401409E0,7.367183685E0,9.816526622E-2
3.681851805E0,7.161275864E0,7.395915031E0,4.070267081E-2
3.683851538E0,7.161275864E0,7.395915031E0,4.070267081E-2
3.685851271E0,7.010436535E0,7.383943558E0,-3.591412306E-2
3.687851004E0,6.909877300E0,7.304932594E0,-6.464541703E-2
3.689850737E0,6.756643295E0,7.242681503E0,-1.771763414E-1
3.691850470E0,6.569890022E0,7.316903591E0,-3.759011328E-1
3.693850203E0,6.419050694E0,7.285778046E0,-5.171633363E-1
3.695850003E0,6.143709183E0,7.201978683E0,-8.834874034E-1
3.697849736E0,5.997658253E0,7.175641537E0,-1.091789365E0
3.699849469E0,5.478100777E0,6.873962879E0,-1.980065227E0
3.701849202E0,5.315289974E0,6.818894863E0,-2.327235222E0
3.703848068E0,5.315289974E0,6.818894863E0,-2.327235222E0
3.705847801E0,4.872349262E0,6.797346115E0,-3.038334846E0
3.707847534E0,4.304905891E0,6.742278099E0,-3.823656797E0
3.709847267E0,3.981678963E0,6.675238132E0,-4.163643837E0
3.711847067E0,3.627326250E0,6.723123550E0,-3.823656797E0
3.713846800E0,4.793338299E0,7.180429935E0,-7.709565163E-1
3.715846533E0,5.837242126E0,7.443800449E0,1.297696948E0
3.717846266E0,8.193208694E0,7.908289909E0,5.061496735E0
3.719845999E0,1.049889469E1,7.642525196E0,4.297723293E0
3.721845732E0,1.049889469E1,7.642525196E0,4.297723293E0
3.723846365E0,1.044382668E1,7.577879906E0,3.225088120E0
3.725846165E0,1.025707340E1,7.580274105E0,2.140481710E0
3.727845965E0,9.802161217E0,7.764633179E0,3.950553536E-1
3.729845698E0,9.459779739E0,7.874769688E0,-5.195576549E-1
3.731845431E0,9.368797302E0,7.819701672E0,-7.470137477E-1
3.733845164E0,9.165284157E0,7.570696831E0,-8.116591573E-1
3.735844897E0,9.016839027E0,7.395915031E0,-7.446194887E-1
3.737844630E0,8.578686714E0,7.017619610E0,-5.411061049E-1
3.739844363E0,7.254652500E0,6.816500187E0,-1.292908341E-1
3.741844129E0,6.955368519E0,6.917059898E0,-2.633702382E-2
3.743843962E0,6.955368519E0,6.917059898E0,-2.633702382E-2
3.745843695E0,6.524398804E0,7.103813171E0,1.316851079E-1
3.747843428E0,6.411868095E0,7.115784645E0,1.747820675E-1
3.749843161E0,6.397502422E0,7.134938717E0,1.101366431E-1
3.751842894E0,6.498061657E0,7.178035736E0,-2.154847234E-2
3.753842627E0,6.548341751E0,7.228315830E0,-7.901106775E-2
3.755842360E0,6.660872459E0,7.134938717E0,-2.226675600E-1
3.757842160E0,6.737489223E0,7.087053299E0,-2.992843390E-1
3.759841893E0,7.003253937E0,7.022408009E0,-3.016786277E-1
3.761841626E0,7.072687626E0,7.070293427E0,-2.849186957E-1
3.763841826E0,7.072687626E0,7.070293427E0,-2.849186957E-1
3.765841559E0,7.166064739E0,7.108602047E0,-2.466102988E-1
3.767841292E0,7.178035736E0,7.125361919E0,-1.843591630E-1
3.769841025E0,7.149304390E0,7.137333393E0,-1.364736706E-1
3.771840758E0,7.017619610E0,7.146910191E0,3.591412306E-2
3.773840558E0,6.919454098E0,7.142121792E0,1.460507661E-1
3.775840291E0,6.718335152E0,7.151699066E0,3.854782581E-1
3.777840024E0,6.567495823E0,7.146910191E0,6.153286099E-1
3.779839757E0,6.395108223E0,7.237892628E0,9.529213905E-1
3.781839490E0,6.395108223E0,7.237892628E0,9.529213905E-1
3.783839223E0,6.359193802E0,7.264229774E0,1.015172482E0
3.785838956E0,6.316096783E0,7.285778046E0,1.058269501E0
3.787838689E0,6.246663094E0,7.350423813E0,1.101366401E0
3.789838489E0,6.208354473E0,7.374366283E0,1.082212210E0
3.791838222E0,6.184412003E0,7.431828976E0,9.768640995E-1
3.793837955E0,6.239480019E0,7.573091030E0,8.571503758E-1
3.795837688E0,6.272999763E0,7.637736797E0,8.332076073E-1
3.797837421E0,6.323279858E0,7.776604652E0,8.427847624E-1
3.799837154E0,6.371165276E0,7.908289909E0,9.265843630E-1
3.801836887E0,6.332856655E0,7.877163887E0,9.768640995E-1
3.803836587E0,6.332856655E0,7.877163887E0,9.768640995E-1
3.805836387E0,6.301731110E0,7.848433018E0,1.036720991E0
3.807836120E0,6.313702583E0,7.822095871E0,1.019961119E0
3.809835853E0,6.380742550E0,7.800547123E0,8.930644989E-1
3.811835586E0,6.440599442E0,7.800547123E0,7.661679387E-1
3.813835319E0,6.605803967E0,7.853221416E0,4.237866402E-1
3.815835052E0,6.739883423E0,7.905895233E0,1.268965602E-1
3.817834785E0,6.768614769E0,7.917866707E0,7.182824425E-3
3.819834585E0,6.610592842E0,7.800547123E0,-1.675992310E-1
3.821834385E0,6.557918549E0,7.755055904E0,-1.819648892E-1
3.823834118E0,6.557918549E0,7.755055904E0,-1.819648892E-1
3.825833851E0,6.495667458E0,7.618582249E0,-1.771763414E-1
3.827833584E0,6.505244732E0,7.561120033E0,-1.484450400E-1
3.829833317E0,6.550735950E0,7.506051540E0,-1.077423692E-1
3.831833050E0,6.658478260E0,7.427040577E0,-1.101366431E-1
3.833832783E0,6.732700825E0,7.340846539E0,-1.197137386E-1
3.835832583E0,6.897905827E0,7.187613010E0,-1.675992310E-1
3.837832316E0,6.998465061E0,7.027196407E0,-1.723877788E-1
3.839832049E0,7.029590607E0,6.857203007E0,-4.309694469E-2
3.841831749E0,7.029590607E0,6.857203007E0,-4.309694469E-2
3.843831649E0,6.991282463E0,6.857203007E0,-3.591412306E-2
3.845831382E0,6.945791245E0,6.850020409E0,-4.070267081E-2
3.847831115E0,6.917059898E0,6.907482624E0,-1.388679445E-1
3.849830848E0,6.900300026E0,6.917059898E0,-1.795706153E-1
3.851830648E0,6.873962879E0,6.972128391E0,-2.968900800E-1
3.853830414E0,6.806923389E0,7.005648136E0,-4.429408312E-1
3.855830180E0,6.802134514E0,7.034379482E0,-4.884320498E-1
3.857829946E0,6.785374641E0,7.046350956E0,-4.980091453E-1
3.859829712E0,7.142121792E0,7.015225410E0,-1.024749637E0
3.861829512E0,7.142121792E0,7.015225410E0,-1.024749637E0
3.863829278E0,7.209161282E0,6.988888264E0,-1.158828974E0
3.865829044E0,7.233104229E0,6.943397045E0,-1.237840056E0
3.867828877E0,7.168458939E0,6.823683262E0,-1.225868702E0
3.869828643E0,7.067899227E0,6.727912426E0,-1.096577883E0
3.871828409E0,7.003253937E0,6.668055534E0,-9.936240315E-1
3.873827609E0,6.873962879E0,6.632141113E0,-7.565908432E-1
3.875827375E0,6.809317589E0,6.701575279E0,-5.746259689E-1
3.877827141E0,6.802134514E0,6.782980442E0,-4.956148863E-1
3.879826907E0,6.902694225E0,7.206767082E0,-3.471698463E-1
3.881826673E0,6.919454098E0,7.206767082E0,-2.921015322E-1
3.883826506E0,6.919454098E0,7.266623974E0,-2.921015322E-1
3.885826272E0,6.866780281E0,7.319298267E0,-1.125309169E-1
3.887826038E0,6.797346115E0,7.309720993E0,5.506832153E-2
3.889825804E0,6.747066498E0,7.364789486E0,2.418217510E-1
3.891825570E0,6.739883423E0,7.422251701E0,2.442160249E-1
3.893825336E0,6.708757877E0,7.455771923E0,2.609759569E-1
3.895825102E0,6.529187202E0,7.431828976E0,3.399870098E-1
3.897824935E0,6.361588001E0,7.412674904E0,4.956148863E-1
3.899824768E0,6.435810566E0,7.455771923E0,6.656084061E-1
3.901824568E0,6.435810566E0,7.455771923E0,6.656084061E-1
3.903823934E0,6.526793003E0,7.467742920E0,6.488484740E-1
3.905823700E0,6.615381241E0,7.494080067E0,5.961744189E-1
3.907823466E0,6.727912426E0,7.544359684E0,3.495641351E-1
3.909823232E0,6.737489223E0,7.575485706E0,1.987248063E-1
3.911822998E0,6.636929989E0,7.726325035E0,-1.460507661E-1
3.913822798E0,6.442993641E0,7.802941799E0,-4.836435020E-1
3.915822531E0,6.299336910E0,7.764633179E0,-5.554717779E-1
3.917822264E0,6.119766235E0,7.728719234E0,-5.842030644E-1
3.919821997E0,6.074275017E0,7.848433018E0,-7.230709791E-1
3.921821663E0,5.997658253E0,7.848433018E0,-7.087053657E-1
3.923821496E0,5.933012962E0,7.738296032E0,-6.536370516E-1
3.925821229E0,5.913858891E0,7.726325035E0,-5.842030644E-1
3.927820962E0,5.973715782E0,7.666468143E0,-3.806896806E-1
3.929820762E0,6.043149471E0,7.472531796E0,-5.027977005E-2
3.931820495E0,6.079063892E0,7.429434776E0,7.901106775E-2
3.933820795E0,6.114977837E0,7.446194649E0,1.532335877E-1
3.935820528E0,6.148497581E0,7.510839939E0,1.556278616E-1
3.937820261E0,6.186806202E0,7.688016415E0,1.268965602E-1
3.939819994E0,6.636929989E0,8.051946640E0,1.484450400E-1
3.941819727E0,6.636929989E0,8.051946640E0,1.484450400E-1
3.943819460E0,6.725517750E0,8.135746002E0,3.591412306E-2
3.945819260E0,6.234691620E0,7.783787251E0,-4.213923812E-1
3.947818993E0,6.052726746E0,7.616188049E0,-4.860377908E-1
3.949818726E0,6.337645531E0,7.810124397E0,-3.830839694E-1
3.951818459E0,6.474119186E0,7.767027378E0,-3.543526828E-1
3.953818192E0,6.352011204E0,7.515628815E0,-2.394274771E-1
3.955817925E0,6.184412003E0,7.094236374E0,-1.915419847E-2
3.957817658E0,6.136526108E0,6.962551117E0,8.140534163E-2
3.959817391E0,6.483695984E0,7.168458939E0,-2.154847383E-1
3.961817157E0,6.445387840E0,7.175641537E0,-5.051919818E-1
3.963817123E0,6.445387840E0,7.175641537E0,-5.051919818E-1
3.965816856E0,6.079063892E0,6.888328552E0,-6.943396926E-1
3.967816589E0,5.901887417E0,6.754249096E0,-4.237866402E-1
3.969816322E0,5.904281616E0,6.737489223E0,-1.963305324E-1
3.971816055E0,5.916253090E0,6.691998005E0,-2.394274808E-3
3.973815788E0,5.897099018E0,6.713546753E0,-1.077423692E-1
3.975815588E0,5.573871613E0,6.857203007E0,-5.027977228E-1
3.977815388E0,4.881926537E0,6.778192043E0,-4.142095447E-1
3.979815121E0,4.309694767E0,6.742278099E0,3.615354896E-1
3.981814921E0,4.309694767E0,6.742278099E0,3.615354896E-1
3.983814554E0,4.197163582E0,6.737489223E0,4.237866402E-1
3.985814287E0,4.204346657E0,6.852414608E0,2.753416002E-1
3.987814020E0,4.319271564E0,6.943397045E0,-1.843591630E-1
3.989813753E0,4.831646442E0,6.869174480E0,-7.158881426E-1
3.991813553E0,5.253038883E0,7.175641537E0,-1.132491946E0
3.993813286E0,5.889915943E0,7.132544518E0,-1.486844659E0
3.995813019E0,6.342433929E0,7.158881664E0,-1.668809533E0
3.997812752E0,7.290566921E0,7.582668304E0,-2.219492674E0
3.999812485E0,7.671256542E0,7.551542759E0,-2.197944164E0
4.001812218E0,7.671256542E0,7.551542759E0,-2.197944164E0
4.003811851E0,7.587456703E0,7.539571285E0,-1.977671027E0
4.005811584E0,7.235498428E0,7.419857502E0,-1.225868702E0
4.007811384E0,7.091842175E0,7.434223175E0,-8.691217303E-1
4.009811117E0,6.773403645E0,7.510839939E0,-1.939362586E-1
4.011810850E0,6.596227169E0,7.479714394E0,1.723877788E-1
4.013810583E0,6.363982677E0,7.383943558E0,8.691217303E-1
4.015810316E0,6.342433929E0,7.443800449E0,1.367130876E0
4.017810049E0,6.325674057E0,7.462954521E0,1.563461423E0
4.019809782E0,6.608198643E0,7.685622215E0,2.042316437E0
4.021809548E0,6.608198643E0,7.685622215E0,2.042316437E0
4.023808414E0,6.608198643E0,7.685622215E0,2.042316437E0
4.025808147E0,6.914665699E0,7.848433018E0,1.929785490E0
4.027807880E0,7.161275864E0,7.879558563E0,1.867534399E0
4.029807613E0,7.254652500E0,7.893924236E0,1.745426297E0
4.031807346E0,7.393520832E0,7.877163887E0,1.661626697E0
4.033807079E0,7.446194649E0,7.874769688E0,1.604164124E0
4.035806812E0,7.498868465E0,7.829278469E0,1.426987767E0
4.037806545E0,7.424646378E0,7.692804813E0,1.187560320E0
4.039806345E0,6.986494064E0,7.338452339E0,7.733507752E-1
4.041806078E0,6.986494064E0,7.338452339E0,7.733507752E-1
4.043805811E0,6.986494064E0,7.338452339E0,7.733507752E-1
4.045805544E0,6.835654736E0,7.237892628E0,6.273000240E-1
4.047805277E0,6.804529190E0,7.249864101E0,3.495641351E-1
4.049805010E0,6.792557716E0,7.264229774E0,1.723877788E-1
4.051804743E0,6.775797844E0,7.290566921E0,-2.035133541E-1
4.053804543E0,6.842837334E0,7.271412373E0,-4.525179267E-1
4.055804343E0,6.861991405E0,7.288172722E0,-5.626545548E-1
4.057804076E0,6.883540154E0,7.367183685E0,-7.829278708E-1
4.059803809E0,6.713546753E0,7.558725357E0,-1.010383964E0
4.061803542E0,6.713546753E0,7.558725357E0,-1.010383964E0
4.063803375E0,6.632141113E0,7.649707794E0,-9.984126091E-1
4.065803108E0,6.548341751E0,7.743084908E0,-9.792584181E-1
4.067802841E0,6.392713547E0,7.917866707E0,-9.553156495E-1
4.069802641E0,6.244268894E0,8.028003693E0,-9.864411950E-1
4.071802441E0,6.165257454E0,8.020820618E0,-9.217957854E-1
4.073802174E0,5.961744308E0,8.006455421E0,-7.063110471E-1
4.075801540E0,5.784567833E0,8.004060745E0,-4.788549542E-1
4.077801273E0,5.727105141E0,8.020820618E0,-3.687183261E-1
4.079801006E0,5.530774593E0,8.087860107E0,0.000000000E0
4.081800739E0,5.540351868E0,8.087860107E0,0.000000000E0
4.083801405E0,5.540351868E0,8.118986130E0,5.746259540E-2
4.085800938E0,5.554717541E0,8.193208694E0,1.101366431E-1
4.087800671E0,5.571477413E0,8.207573891E0,1.101366431E-1
4.089800404E0,5.626545906E0,8.253065109E0,5.985686928E-2
4.091800137E0,5.609786034E0,8.284191132E0,-2.394274808E-2
4.093799870E0,5.581054688E0,8.288979530E0,-4.788549617E-2
4.095799603E0,5.435003757E0,8.214756966E0,-4.309694469E-2
4.097799336E0,5.238673210E0,8.157294273E0,-1.436564885E-2
4.099799069E0,4.893897533E0,8.255459785E0,-4.309694469E-2
4.101798869E0,4.893897533E0,8.255459785E0,-4.309694469E-2
4.103798635E0,4.893897533E0,8.255459785E0,-4.309694469E-2
4.105798401E0,4.752635479E0,8.288979530E0,-2.633702159E-1
4.107798167E0,4.697566986E0,8.248276711E0,-6.871568561E-1
4.109797933E0,4.685595989E0,8.214756966E0,-8.978530765E-1
4.111797699E0,4.666441441E0,8.095043182E0,-1.302485466E0
4.113797465E0,4.740664005E0,7.989695072E0,-1.664021015E0
4.115797231E0,4.798126698E0,7.922655106E0,-1.824437380E0
4.117797064E0,4.996851444E0,7.901106834E0,-2.073441982E0
4.119796930E0,5.437397957E0,7.707170486E0,-2.523565531E0
4.121796763E0,5.437397957E0,7.707170486E0,-2.523565531E0
4.123796629E0,5.530774593E0,7.628159523E0,-2.628913641E0
4.125796495E0,5.619362831E0,7.565908432E0,-2.727078915E0
4.127796361E0,5.806116581E0,7.513234138E0,-2.930592299E0
4.129796227E0,5.954561234E0,7.479714394E0,-3.086220264E0
4.131796093E0,6.012023926E0,7.486897469E0,-3.126922846E0
4.133796026E0,6.057515144E0,7.537177086E0,-3.047911882E0
4.135796326E0,5.947378635E0,7.714353561E0,-2.355966330E0
4.137796259E0,5.796539307E0,7.908289909E0,-1.642472506E0
4.139796192E0,5.162056446E0,8.243488312E0,-5.004034638E-1
4.141796125E0,5.162056446E0,8.243488312E0,-5.004034638E-1
4.143796058E0,5.176422119E0,8.133351326E0,-8.092648983E-1
4.145796258E0,5.415849686E0,7.781393051E0,-1.443747759E0
4.147796258E0,5.600208759E0,7.609005451E0,-1.664021015E0
4.149796258E0,5.988081455E0,7.403097630E0,-1.884294271E0
4.151796224E0,6.280182838E0,7.448588848E0,-1.850774407E0
4.153796190E0,6.402290821E0,7.585062504E0,-1.778946161E0
4.155796156E0,6.557918549E0,7.963357925E0,-1.695146561E0
4.157796122E0,6.555524349E0,8.195602417E0,-1.702329397E0
4.159796088E0,6.237085819E0,9.328094482E0,-1.872322917E0
4.161796054E0,6.237085819E0,9.328094482E0,-1.872322917E0
4.163796054E0,6.237085819E0,9.328094482E0,-1.872322917E0
4.165795787E0,6.131737709E0,9.641744614E0,-1.867534399E0
4.167795753E0,6.062304020E0,9.960183144E0,-1.910631299E0
4.169795719E0,6.047938347E0,1.011581135E1,-1.939362645E0
4.171795685E0,6.009629726E0,1.025707340E1,-2.037527800E0
4.173795651E0,5.959350109E0,1.027143860E1,-2.152452946E0
4.175795617E0,5.928224564E0,1.022115898E1,-2.205127001E0
4.177795583E0,5.839636326E0,1.012299347E1,-2.274561167E0
4.179795516E0,5.849213123E0,9.955394745E0,-2.703136206E0
4.181795482E0,5.827664852E0,9.895537376E0,-2.870735407E0
4.183794482E0,5.827664852E0,9.895537376E0,-2.870735407E0
4.185794415E0,5.767807961E0,9.883566856E0,-3.026363373E0
4.187794348E0,5.525986195E0,9.857229233E0,-3.284945011E0
4.189794281E0,5.185999393E0,9.838075638E0,-3.526766777E0
4.191794214E0,5.011217117E0,9.850046158E0,-3.665634632E0
4.193794147E0,4.553910732E0,9.888355255E0,-3.924216509E0
4.195794080E0,4.254626274E0,9.905115128E0,-4.046324253E0
4.197793946E0,3.493247032E0,9.936240196E0,-4.273780346E0
4.199793812E0,2.159635782E0,9.864412308E0,-4.644893169E0
4.201793612E0,1.757397652E0,9.850046158E0,-4.668835640E0
4.203793478E0,1.403045058E0,9.814132690E0,-4.628133297E0
4.205793344E0,9.361614585E-1,9.658504486E0,-4.400677204E0
4.207793210E0,8.116591573E-1,9.581888199E0,-4.194769382E0
4.209793076E0,6.249057055E-1,9.493299484E0,-3.794925690E0
4.211792976E0,5.315290093E-1,9.469356537E0,-3.529160976E0
4.213793109E0,5.458946824E-1,9.395133972E0,-3.423812866E0
4.215792942E0,6.703969240E-1,9.313729286E0,-3.172414064E0
4.217792775E0,7.829278708E-1,9.232323647E0,-3.031152010E0
4.219792608E0,3.617749214E0,7.970541000E0,-2.401457548E0
4.221792441E0,3.617749214E0,7.970541000E0,-2.401457548E0
4.223792274E0,3.617749214E0,7.970541000E0,-2.401457548E0
4.225792374E0,2.573845387E0,8.435029984E0,-2.463708878E0
4.227792240E0,1.328822494E0,8.913885117E0,-3.565075159E0
4.229792040E0,7.110996246E-1,9.134158134E0,-4.055901527E0
4.231791840E0,-2.083019018E-1,9.608224869E0,-4.647287369E0
4.233791640E0,-5.530774593E-1,9.816526413E0,-4.714327335E0
4.235791440E0,-9.768640995E-1,1.012778282E1,-4.407859802E0
4.237791240E0,-1.158828974E0,1.024270725E1,-3.775771379E0
4.239791040E0,-1.137280583E0,1.023791885E1,-2.482862949E0
4.241790840E0,-1.137280583E0,1.023791885E1,-2.482862949E0
4.243791506E0,-1.075029373E0,1.015172482E1,-2.226675510E0
4.245791239E0,-1.012778282E0,1.002722263E1,-2.004008055E0
4.247790972E0,-9.289786220E-1,9.730332375E0,-1.683175206E0
4.249790705E0,-8.763045669E-1,9.601041794E0,-1.587404251E0
4.251790438E0,-7.637736797E-1,9.404711723E0,-1.477267504E0
4.253790171E0,-6.799740195E-1,9.328094482E0,-1.383890867E0
4.255789904E0,-6.584255695E-1,9.320911407E0,-1.312062621E0
4.257789704E0,-6.488484740E-1,9.306546211E0,-1.223474383E0
4.259789437E0,-5.219519138E-1,9.316123009E0,-1.122914910E0
4.261789237E0,-5.219519138E-1,9.316123009E0,-1.122914910E0
4.263788970E0,-4.525179267E-1,9.325700760E0,-1.106154919E0
4.265788703E0,-2.729473412E-1,9.354432106E0,-1.082212210E0
4.267788436E0,-1.436564922E-1,9.390345573E0,-1.087000728E0
4.269788169E0,2.035133541E-1,9.553156853E0,-1.149251938E0
4.271787902E0,3.950553536E-1,9.634561539E0,-1.168406129E0
4.273787402E0,7.470137477E-1,9.737515450E0,-1.151646137E0
4.275787135E0,1.024749637E0,9.838075638E0,-1.218685865E0
4.277786868E0,1.098972082E0,9.888355255E0,-1.185166001E0
4.279786601E0,4.740664065E-1,1.035284424E1,1.077423692E-1
4.281786334E0,4.740664065E-1,1.035284424E1,1.077423692E-1
4.283786234E0,4.740664065E-1,1.035284424E1,1.077423692E-1
4.285785967E0,4.788549617E-3,1.047495270E1,6.081457734E-1
4.287785700E0,-1.843591630E-1,1.050128937E1,7.518022656E-1
4.289784600E0,-3.902668059E-1,1.050847244E1,9.864411950E-1
4.291784333E0,-4.812492430E-1,1.047734642E1,8.930644989E-1
4.293784066E0,-5.291347504E-1,1.042227840E1,9.672870040E-1
4.295783799E0,-3.878725171E-1,1.041988373E1,1.537124395E0
4.297783532E0,-1.412622184E-1,1.041270161E1,2.027950764E0
4.299783265E0,4.597007632E-1,1.038875866E1,2.559479713E0
4.301782998E0,4.597007632E-1,1.038875866E1,2.559479713E0
4.303782798E0,6.656084061E-1,1.039354706E1,2.784541607E0
4.305782598E0,1.134886265E0,1.047016335E1,2.980872154E0
4.307782331E0,1.948939681E0,1.046537495E1,3.632114887E0
4.309782064E0,1.314456820E0,1.030735302E1,4.087027073E0
4.311781797E0,1.352765322E0,1.028101635E1,3.809291124E0
4.313781530E0,1.362342358E0,1.009186840E1,3.967313290E0
4.315781263E0,1.470084786E0,1.003919411E1,4.350397110E0
4.317780996E0,2.027950764E0,1.003919411E1,4.704750061E0
4.319780796E0,2.724684715E0,1.001285744E1,3.555498123E0
4.321780596E0,2.724684715E0,1.001285744E1,3.555498123E0
4.323780496E0,2.851581335E0,9.996097565E0,3.134105682E0
4.325780229E0,2.990449190E0,9.984126091E0,2.729473352E0
4.327779962E0,3.220299721E0,9.888355255E0,2.044710636E0
4.329779695E0,3.397475958E0,9.744698524E0,1.594586968E0
4.331779428E0,3.447755814E0,9.660899162E0,1.436564922E0
4.333779161E0,3.495641232E0,9.536396980E0,1.158828974E0
4.335778961E0,3.543526649E0,9.469356537E0,8.451790214E-1
4.337778694E0,3.596200705E0,9.452596664E0,6.943396926E-1
