"Time (s)","Acceleration x (m/s^2)","Acceleration y (m/s^2)","Acceleration z (m/s^2)"
0.000000000E0,-6.901245117E-1,4.935287476E0,7.283050537E0
5.004883000E-3,-7.332305908E-1,4.873046875E0,7.263885498E0
9.979248000E-3,-7.475891113E-1,4.829940796E0,7.266281128E0
1.498413100E-2,-7.356262207E-1,4.777267456E0,7.292617798E0
1.998901400E-2,-6.901245117E-1,4.715026855E0,7.323745728E0
2.499389700E-2,-6.254882812E-1,4.650375366E0,7.362060547E0
2.999878000E-2,-5.656280518E-1,4.578552246E0,7.400360107E0
3.500366200E-2,-5.057830811E-1,4.521087646E0,7.474578857E0
4.000854500E-2,-4.483184814E-1,4.482788086E0,7.563171387E0
4.501342800E-2,-4.052124023E-1,4.437301636E0,7.680480957E0
5.001831100E-2,-3.788757324E-1,4.389419556E0,7.845687866E0
5.502319400E-2,-4.459228516E-1,4.334350586E0,7.946243286E0
6.002807600E-2,-4.052124023E-1,4.358291626E0,8.106643677E0
6.503295900E-2,-2.879028320E-1,4.370254517E0,8.247909546E0
7.003784200E-2,-1.825561523E-1,4.334350586E0,8.317337036E0
7.504272500E-2,-9.637451172E-2,4.296035767E0,8.384384155E0
8.004760800E-2,-1.736450195E-2,4.284072876E0,8.472961426E0
8.505249000E-2,7.362365723E-2,4.269699097E0,8.571121216E0
9.005737300E-2,1.071472168E-1,4.240966797E0,8.628585815E0
9.506225600E-2,4.249572754E-2,4.183517456E0,8.714782715E0
1.000671390E-1,-1.976013184E-2,4.126052856E0,8.789001465E0
1.050720220E-1,-3.651428223E-2,4.030288696E0,8.784210205E0
1.100769050E-1,1.136779785E-2,3.980010986E0,8.642944336E0
1.150817870E-1,1.215057373E-1,3.963241577E0,8.381988525E0
1.200866700E-1,2.938842773E-1,3.965637207E0,8.168899536E0
1.250915530E-1,3.896484375E-1,3.960845947E0,8.051589966E0
1.300964360E-1,4.088134766E-1,3.889022827E0,7.974975586E0
1.351013190E-1,4.112091064E-1,3.788467407E0,7.958206177E0
1.401062010E-1,4.447174072E-1,3.704666138E0,7.927078247E0
1.451110840E-1,5.165557861E-1,3.632843018E0,7.879196167E0
1.500854490E-1,6.099243164E-1,3.570602417E0,7.855255127E0
1.550903320E-1,7.320251465E-1,3.467651367E0,7.883987427E0
1.600952150E-1,9.044036865E-1,3.364700317E0,7.931869507E0
1.651000980E-1,1.076797485E0,3.309631348E0,8.013275146E0
1.701049810E-1,1.301849365E0,3.290481567E0,8.123413086E0
1.751098640E-1,1.634643555E0,3.278503418E0,8.223968506E0
1.801147460E-1,2.312194824E0,3.209075928E0,8.262268066E0
1.851196290E-1,2.484588623E0,3.072601318E0,8.374801636E0
1.901245120E-1,2.364868164E0,2.902618408E0,8.609436035E0
1.951293950E-1,2.113479614E0,2.737411499E0,8.939834595E0
2.001342780E-1,1.799835205E0,2.624893188E0,9.200805664E0
2.051391600E-1,1.445495605E0,2.567428589E0,9.368392944E0
2.101440430E-1,1.107910156E0,2.574615479E0,9.411483765E0
2.151489260E-1,8.732910156E-1,2.648834229E0,9.409103394E0
2.201538090E-1,6.985015869E-1,2.768539429E0,9.452194214E0
2.251586920E-1,5.644378662E-1,2.881072998E0,9.528808594E0
2.301635740E-1,4.495086670E-1,2.972045898E0,9.600631714E0
2.351684570E-1,3.704986572E-1,3.007965088E0,9.643722534E0
2.401733400E-1,3.345947266E-1,3.003173828E0,9.624572754E0
2.451782230E-1,3.154296875E-1,2.967254639E0,9.552749634E0
2.501831060E-1,3.154296875E-1,2.902618408E0,9.445007324E0
2.551879890E-1,3.106536865E-1,2.814025879E0,9.315719604E0
2.601928710E-1,3.250122070E-1,2.727844238E0,9.174468994E0
2.651977540E-1,3.298034668E-1,2.656005859E0,9.047576904E0
2.702026370E-1,3.250122070E-1,2.615310669E0,8.944625854E0
2.752075200E-1,2.867126465E-1,2.603332520E0,8.875183105E0
2.802124030E-1,2.340393066E-1,2.610519409E0,8.839279175E0
2.852172850E-1,1.813659668E-1,2.617706299E0,8.848846436E0
2.902221680E-1,1.286926270E-1,2.612915039E0,8.868011475E0
2.952270510E-1,9.277343750E-2,2.579391479E0,8.992507935E0
3.002319340E-1,1.286926270E-1,2.445327759E0,9.394729614E0
3.052368170E-1,1.909332275E-1,2.323211670E0,9.871170044E0
3.102416990E-1,3.465576172E-1,2.411804199E0,9.694000244E0
3.152465820E-1,5.093688965E-1,2.545883179E0,9.224746704E0
3.202514650E-1,5.428924561E-1,2.557846069E0,9.083480835E0
3.252563480E-1,5.500640869E-1,2.490814209E0,9.246292114E0
3.302612310E-1,6.386566162E-1,2.433349609E0,9.368392944E0
3.352661140E-1,8.134307861E-1,2.428558350E0,9.332489014E0
3.402709960E-1,1.036087036E0,2.428558350E0,9.294174194E0
3.452758790E-1,1.273117065E0,2.392654419E0,9.284591675E0
3.502807620E-1,1.488601685E0,2.335189819E0,9.298965454E0
3.552856450E-1,1.637039185E0,2.275329590E0,9.260650635E0
3.602905280E-1,1.716049194E0,2.205902100E0,9.243896484E0
3.652954100E-1,1.694488525E0,2.095764160E0,9.275024414E0
3.703002930E-1,1.608306885E0,1.968872070E0,9.344451904E0
3.753051760E-1,1.428741455E0,1.834793091E0,9.466552734E0
3.803100590E-1,1.191711426E0,1.727066040E0,9.638946533E0
3.853149420E-1,9.139862061E-1,1.643264771E0,9.813720703E0
3.903198240E-1,6.410522461E-1,1.640869141E0,9.923843384E0
3.953247070E-1,3.920440674E-1,1.691146851E0,9.990890503E0
4.003295900E-1,1.957244873E-1,1.779739380E0,9.998062134E0
4.053344730E-1,9.277343750E-2,1.892257690E0,9.954971313E0
4.103393560E-1,7.362365723E-2,1.980850220E0,9.895126343E0
4.153442390E-1,6.883239746E-2,2.023941040E0,9.859207153E0
4.203491210E-1,4.968261719E-2,2.004791260E0,9.863998413E0
4.253540040E-1,4.010009766E-2,1.956909180E0,9.911880493E0
4.303588870E-1,4.728698730E-2,1.880294800E0,1.000285339E1
4.353637700E-1,8.081054688E-2,1.806076050E0,1.011778259E1
4.403686530E-1,1.406555176E-1,1.772552490E0,1.023509216E1
4.453735350E-1,1.334838867E-1,1.820434570E0,1.029734802E1
4.503784180E-1,2.813720703E-2,1.877899170E0,1.029495239E1
4.553833010E-1,-1.586151123E-1,1.932968140E0,1.015847778E1
4.603881840E-1,-3.980407715E-1,2.009582520E0,9.914276123E0
4.653930670E-1,-6.949157715E-1,2.110137939E0,9.540771484E0
4.703979490E-1,-1.077987671E0,2.217880249E0,9.078689575E0
4.754028320E-1,-1.532882690E0,2.332794189E0,8.602249146E0
4.804077150E-1,-1.915954590E0,2.521942139E0,8.235931396E0
4.854125980E-1,-1.875259399E0,3.738189697E0,8.628585815E0
4.904174810E-1,-2.138626099E0,3.807617188E0,9.009262085E0
4.954223640E-1,-2.538452148E0,3.204284668E0,9.263046265E0
5.004272460E-1,-2.763504028E0,2.414199829E0,9.207977295E0
5.054321290E-1,-2.722808838E0,1.667205811E0,9.219955444E0
5.104370120E-1,-2.464233398E0,1.173995972E0,9.363601685E0
5.154418950E-1,-2.138626099E0,1.056686401E0,9.516830444E0
5.204467780E-1,-1.856109619E0,1.231460571E0,9.588653564E0
5.254516600E-1,-1.676544189E0,1.545104980E0,9.571899414E0
5.304565430E-1,-1.607101440E0,1.755798340E0,9.313323975E0
5.354614260E-1,-1.439514160E0,1.889862061E0,8.860824585E0
5.404663090E-1,-1.154602051E0,1.947326660E0,8.358047485E0
5.454711920E-1,-9.941864014E-1,1.719879150E0,7.994125366E0
5.504760740E-1,-9.271545410E-1,1.343994141E0,8.080307007E0
5.554809570E-1,-8.864593506E-1,1.037536621E0,8.511276245E0
5.604858400E-1,-8.720855713E-1,8.052978516E-1,9.081085205E0
5.654907230E-1,-8.218078613E-1,6.017913818E-1,9.674850464E0
5.704956060E-1,-7.116699219E-1,4.030609131E-1,1.026861572E1
5.755004890E-1,-7.523803711E-1,2.163238525E-1,1.090068054E1
5.805053710E-1,-1.075592041E0,9.899902344E-2,1.141064453E1
5.855102540E-1,-1.219253540E0,1.325225830E-1,1.150402832E1
5.905151370E-1,-1.188125610E0,3.982849121E-1,1.139628601E1
5.955200200E-1,-1.243194580E0,6.855773926E-1,1.112335205E1
6.005249030E-1,-1.384445190E0,8.531799316E-1,1.061816406E1
6.055297850E-1,-1.578384399E0,9.010620117E-1,1.001962280E1
6.105346680E-1,-1.817794800E0,8.388061523E-1,9.387542725E0
6.155395510E-1,-2.109893799E0,7.693786621E-1,8.796173096E0
6.205444340E-1,-2.437896729E0,7.310791016E-1,8.307769775E0
6.255493170E-1,-2.569580078E0,7.621917725E-1,7.929473877E0
6.305541990E-1,-2.200866699E0,8.435974121E-1,7.579925537E0
6.355590820E-1,-1.791458130E0,8.651428223E-1,7.472183228E0
6.405639650E-1,-1.753158569E0,7.957153320E-1,7.678085327E0
6.455688480E-1,-1.470642090E0,7.502288818E-1,8.276641846E0
6.505737310E-1,-3.172302246E-2,8.459930420E-1,9.559936523E0
6.555786140E-1,2.163757324E0,1.001617432E0,1.160697937E1
6.605834960E-1,2.819763184E0,8.986663818E-1,1.280886841E1
6.655883790E-1,2.340927124E0,6.496734619E-1,1.292138672E1
6.705932620E-1,1.981796265E0,4.557342529E-1,1.302433777E1
6.755981450E-1,1.761535645E0,2.905426025E-1,1.297645569E1
6.806030280E-1,1.366485596E0,1.301269531E-1,1.217918396E1
6.856079100E-1,9.834136963E-1,5.830383301E-2,1.130529785E1
6.906127930E-1,6.386566162E-1,6.549072266E-2,1.050085449E1
6.956176760E-1,3.848724365E-1,1.492767334E-1,9.983703613E0
7.006225590E-1,1.454467773E-1,3.168792725E-1,9.715560913E0
7.056274420E-1,-1.083374023E-1,5.131988525E-1,9.576690674E0
7.106323240E-1,-3.717041016E-1,6.760101318E-1,9.502471924E0
7.156372070E-1,-5.680236816E-1,7.957153320E-1,9.514434814E0
7.206420900E-1,-5.895690918E-1,9.321899414E-1,9.636550903E0
7.256469730E-1,-4.890136719E-1,1.111755371E0,9.777801514E0
7.306518560E-1,-4.339447021E-1,1.286529541E0,9.866394043E0
7.356567390E-1,-5.009918213E-1,1.394271851E0,9.897506714E0
7.406616210E-1,-6.566162109E-1,1.365539551E0,9.887939453E0
7.456665040E-1,-7.978668213E-1,1.264984131E0,9.787384033E0
7.506713870E-1,-8.768768311E-1,1.128509521E0,9.547958374E0
7.556762700E-1,-8.577270508E-1,1.018371582E0,9.217559814E0
7.606811530E-1,-8.026580811E-1,9.513397217E-1,8.935043335E0
7.656860350E-1,-6.853332520E-1,8.986663818E-1,8.769851685E0
7.706909180E-1,-5.440826416E-1,9.202117920E-1,8.765060425E0
7.756958010E-1,-3.908538818E-1,9.058532715E-1,8.786605835E0
7.807006840E-1,-3.238220215E-1,8.388061523E-1,8.784210205E0
7.857055670E-1,-3.118438721E-1,7.526245117E-1,8.772232056E0
7.907104490E-1,-3.142395020E-1,6.688232422E-1,8.729141235E0
7.957153320E-1,-3.214263916E-1,6.065826416E-1,8.676467896E0
8.007202150E-1,-3.070526123E-1,5.467224121E-1,8.659713745E0
8.057250980E-1,-2.543792725E-1,4.748992920E-1,8.789001465E0
8.107299810E-1,-1.586151123E-1,3.647613525E-1,9.160095215E0
8.157348640E-1,6.576538086E-3,2.689971924E-1,9.684432983E0
8.207397460E-1,1.622009277E-1,2.282867432E-1,1.010340881E1
8.257446290E-1,2.172698975E-1,2.306823730E-1,1.029734802E1
8.307495120E-1,1.502380371E-1,2.426605225E-1,1.021115112E1
8.357543950E-1,1.855468750E-2,2.785644531E-1,9.928634644E0
8.407592780E-1,-5.087280273E-2,3.839111328E-1,9.605422974E0
8.457641600E-1,1.376342773E-2,5.515136719E-1,9.454589844E0
8.507690430E-1,1.885375977E-1,6.281280518E-1,9.409103394E0
8.557739260E-1,7.559661865E-1,3.432159424E-1,8.832092285E0
8.607788090E-1,1.833358765E0,3.575744629E-1,7.400360107E0
8.657836920E-1,1.965042114E0,2.258911133E-1,8.621398926E0
8.707885740E-1,2.012924194E0,-3.268432617E-2,9.117004395E0
8.757934570E-1,2.091934204E0,-4.085693359E-1,8.767456055E0
8.807983400E-1,2.082351685E0,-8.347320557E-1,8.353256226E0
8.858032230E-1,2.008132935E0,-1.045425415E0,8.628585815E0
8.908081060E-1,2.072784424E0,-7.940368652E-1,9.260650635E0
8.958129890E-1,2.120666504E0,-4.444732666E-1,9.849624634E0
9.008178710E-1,2.154190063E0,-2.026672363E-1,1.011059570E1
9.058227540E-1,2.156570435E0,8.392333984E-4,1.019679260E1
9.108276370E-1,2.099121094E0,9.660339355E-2,1.024946594E1
9.158325200E-1,1.926727295E0,4.154968262E-2,1.023988342E1
9.208374030E-1,1.610702515E0,-7.337951660E-2,1.012017822E1
9.258422850E-1,1.191711426E0,-1.859130859E-1,9.849624634E0
9.308471680E-1,6.673889160E-1,-2.266082764E-1,9.442611694E0
9.358520510E-1,9.516906738E-2,-1.164703369E-1,9.054748535E0
9.408569340E-1,-4.243774414E-1,1.521301270E-2,8.839279175E0
9.458618170E-1,-9.056091309E-1,1.061859131E-1,8.779418945E0
9.508666990E-1,-1.341354370E0,8.464050293E-2,8.882369995E0
9.558715820E-1,-1.714843750E0,2.238464355E-2,9.162490845E0
9.608764650E-1,-1.987792969E0,-5.900573730E-2,9.516830444E0
9.658813480E-1,-2.129043579E0,-8.296203613E-2,9.823287964E0
9.708862310E-1,-2.210449219E0,3.234863281E-3,9.995681763E0
9.758911140E-1,-2.184112549E0,1.421051025E-1,1.011538696E1
9.808959960E-1,-2.026092529E0,2.929382324E-1,1.016087341E1
9.859008790E-1,-1.774703979E0,4.293975830E-1,1.012496948E1
9.909057620E-1,-1.422760010E0,5.251770020E-1,9.916671753E0
9.959106450E-1,-9.630737305E-1,6.041870117E-1,9.557540894E0
1.000915528E0,-5.177459717E-1,6.496734619E-1,9.109817505E0
1.005920410E0,-6.764221191E-2,6.592407227E-1,8.645339966E0
1.010925293E0,4.973907471E-1,6.544647217E-1,8.326919556E0
1.015930176E0,1.134246826E0,6.592407227E-1,8.094680786E0
1.020935059E0,1.684921265E0,6.352996826E-1,7.816955566E0
1.025939942E0,2.060806274E0,5.443267822E-1,7.582321167E0
1.030944824E0,2.230804443E0,3.695526123E-1,7.438674927E0
1.035949707E0,2.187698364E0,1.421051025E-1,7.465011597E0
1.040954590E0,1.967437744E0,-1.284484863E-1,7.800186157E0
1.045959473E0,1.603515625E0,-4.468688965E-1,8.384384155E0
1.050964356E0,1.201293945E0,-7.748718262E-1,9.037994385E0
1.055969239E0,8.541259766E-1,-1.007110596E0,9.574295044E0
1.060974121E0,6.147155762E-1,-1.095703125E0,9.957366943E0
1.065979004E0,4.686584473E-1,-1.033447266E0,1.024467468E1
1.070983887E0,4.136047363E-1,-8.562774658E-1,1.037396240E1
1.075988770E0,4.255676270E-1,-6.312255859E-1,1.035241699E1
1.080993653E0,4.925994873E-1,-3.271636963E-1,1.018481445E1
1.085998535E0,6.147155762E-1,1.301269531E-1,9.998062134E0
1.091003418E0,7.511749268E-1,6.305236816E-1,9.928634644E0
1.096008301E0,8.589172363E-1,9.992218018E-1,9.919067383E0
1.101013184E0,8.972320557E-1,1.188369751E0,9.806533813E0
1.106018067E0,1.277908325E0,1.887466431E0,9.564712524E0
1.111022949E0,1.622665405E0,2.720657349E0,8.808151245E0
1.116027832E0,1.435928345E0,2.785293579E0,8.226364136E0
1.121032715E0,8.158264160E-1,2.339981079E0,7.874420166E0
1.126037598E0,3.298034668E-1,1.851562500E0,7.974975586E0
1.131042481E0,1.286926270E-1,1.444549561E0,8.293395996E0
1.136047364E0,8.319091797E-2,1.257797241E0,8.528030396E0
1.141052246E0,6.643676758E-2,1.336807251E0,8.681259155E0
1.146057129E0,4.447174072E-1,1.480453491E0,9.241500854E0
1.151062012E0,8.469543457E-1,1.516372681E0,9.425857544E0
1.156066895E0,1.258758545E0,1.530731201E0,9.464157104E0
1.161071778E0,1.615493774E0,1.590591431E0,9.430648804E0
1.166076660E0,1.902786255E0,1.724670410E0,9.308532715E0
1.171081543E0,2.218826294E0,1.935363770E0,9.215164185E0
1.176086426E0,2.575561523E0,2.150833130E0,9.164886475E0
1.181091309E0,2.910751343E0,2.294494629E0,9.148132324E0
1.186096192E0,3.188476562E0,2.323211670E0,9.131362915E0
1.191101074E0,3.380020142E0,2.222656250E0,9.040390015E0
1.196105957E0,3.485351562E0,2.000000000E0,8.915893555E0
1.201110840E0,3.557189941E0,1.712692261E0,8.796173096E0
1.206115723E0,3.626617432E0,1.399063110E0,8.774627686E0
1.211120606E0,3.739151001E0,1.114151001E0,8.832092285E0
1.216125489E0,3.880401611E0,8.914794922E-1,8.911102295E0
1.221130371E0,4.045608521E0,7.358551025E-1,9.004470825E0
1.226135254E0,4.227554321E0,5.946044922E-1,8.978134155E0
1.231140137E0,4.440643311E0,4.557342529E-1,8.856033325E0
1.236145020E0,4.653732300E0,3.168792725E-1,8.609436035E0
1.241149903E0,4.806961060E0,2.187194824E-1,8.207214355E0
1.246154785E0,4.888366699E0,1.349182129E-1,7.702026367E0
1.251159668E0,4.941040039E0,5.590820312E-2,7.196853638E0
1.256164551E0,4.976943970E0,-3.268432617E-2,6.787445068E0
1.261169434E0,5.003280640E0,-1.236572266E-1,6.485778809E0
1.266174317E0,4.998489380E0,-2.313995361E-1,6.272689819E0
1.271179199E0,4.984130859E0,-3.487091064E-1,6.145797729E0
1.276184082E0,5.010467529E0,-4.612426758E-1,6.121856689E0
1.281188965E0,5.067932129E0,-5.282745361E-1,6.131439209E0
1.286193848E0,5.139755249E0,-6.000976562E-1,6.172134399E0
1.291198731E0,5.175659180E0,-7.389678955E-1,6.263107300E0
1.296203614E0,5.158905029E0,-9.400787354E-1,6.387619019E0
1.301208496E0,5.113418579E0,-1.227386475E0,6.500137329E0
1.306213379E0,5.055953979E0,-1.612854004E0,6.617462158E0
1.311218262E0,5.027221680E0,-2.017471313E0,6.758712769E0
1.316223145E0,4.974548340E0,-2.469970703E0,6.777862549E0
1.321228028E0,4.941040039E0,-2.891357422E0,6.715621948E0
1.326232910E0,4.943420410E0,-3.228942871E0,6.624633789E0
1.331237793E0,4.986526489E0,-3.461166382E0,6.497741699E0
1.336242676E0,5.070327759E0,-3.597640991E0,6.370849609E0
1.341247559E0,5.221160889E0,-3.643127441E0,6.325363159E0
1.346252442E0,5.410293579E0,-3.597640991E0,6.356491089E0
1.351257324E0,5.625778198E0,-3.473144531E0,6.442672729E0
1.356262207E0,5.826889038E0,-3.331893921E0,6.598297119E0
1.361267090E0,5.989700317E0,-3.240905762E0,6.849700928E0
1.366271973E0,6.116592407E0,-3.257659912E0,7.134597778E0
1.371246338E0,6.157287598E0,-3.367797852E0,7.374023438E0
1.376251221E0,6.195602417E0,-3.537780762E0,7.565567017E0
1.381256104E0,6.257843018E0,-3.695800781E0,7.716400146E0
1.386260987E0,6.370376587E0,-3.899307251E0,7.903137207E0
1.391265869E0,6.466140747E0,-4.224929810E0,8.274246216E0
1.396270752E0,6.487686157E0,-4.694183350E0,8.729141235E0
1.401275635E0,6.384735107E0,-5.220916748E0,9.045181274E0
1.406280518E0,6.190811157E0,-5.706939697E0,9.114608765E0
1.411285401E0,5.939422607E0,-6.085220337E0,8.982925415E0
1.416290283E0,5.762237549E0,-6.360549927E0,8.796173096E0
1.421295166E0,5.740692139E0,-6.535324097E0,8.583099365E0
1.426300049E0,5.970535278E0,-6.573638916E0,8.348464966E0
1.431304932E0,6.461349487E0,-6.391677856E0,8.142562866E0
1.436309815E0,7.105392456E0,-6.068466187E0,7.967788696E0
1.441314697E0,7.744644165E0,-5.718902588E0,7.802581787E0
1.446319580E0,8.266586304E0,-5.426818848E0,7.630203247E0
1.451324463E0,8.649658203E0,-5.146697998E0,7.457824707E0
1.456329346E0,8.953720093E0,-4.859390259E0,7.295013428E0
1.461334229E0,9.193130493E0,-4.581665039E0,7.153762817E0
1.466339112E0,9.391860962E0,-4.299148560E0,7.101089478E0
1.471343994E0,9.559448242E0,-3.997482300E0,7.172912598E0
1.476348877E0,9.698318481E0,-3.676651001E0,7.352478027E0
1.481353760E0,9.755767822E0,-3.420471191E0,7.613449097E0
1.486358643E0,9.676757812E0,-3.295974731E0,7.991729736E0
1.491363526E0,9.475646973E0,-3.300765991E0,8.393951416E0
1.496368408E0,9.205108643E0,-3.327102661E0,8.779418945E0
1.501373291E0,8.903442383E0,-3.386947632E0,9.128967285E0
1.506378174E0,8.589797974E0,-3.444412231E0,9.428253174E0
1.511383057E0,8.247421265E0,-3.552154541E0,9.634155273E0
1.516387940E0,7.924209595E0,-3.667068481E0,9.770614624E0
1.521392822E0,7.665634155E0,-3.719741821E0,9.835266113E0
1.526397705E0,7.500442505E0,-3.671859741E0,9.777801514E0
1.531402588E0,7.586624146E0,-3.216964722E0,9.557540894E0
1.536407471E0,8.201934814E0,-2.036621094E0,9.483322144E0
1.541412354E0,8.652053833E0,-1.502716064E0,8.947021484E0
1.546417237E0,9.111740112E0,-1.241744995E0,8.302978516E0
1.551422119E0,9.513961792E0,-1.174713135E0,7.728363037E0
1.556427002E0,9.727035522E0,-1.201049805E0,7.175308228E0
1.561431885E0,9.782104492E0,-1.193862915E0,6.727584839E0
1.566436768E0,9.786895752E0,-1.129226685E0,6.416336060E0
1.571441651E0,9.825210571E0,-1.014297485E0,6.272689819E0
1.576446533E0,9.964065552E0,-8.754425049E-1,6.322967529E0
1.581451416E0,1.018911743E1,-7.629089355E-1,6.524078369E0
1.586456299E0,1.042854309E1,-6.910858154E-1,6.792236328E0
1.591461182E0,1.068472290E1,-6.719360352E-1,7.182495117E0
1.596466065E0,1.092175293E1,-7.198181152E-1,7.649353027E0
1.601470947E0,1.109892273E1,-8.251647949E-1,8.185653687E0
1.606475830E0,1.121144104E1,-9.544372559E-1,8.707595825E0
1.611480713E0,1.126411438E1,-1.114852905E0,9.155303955E0
1.616485596E0,1.123300171E1,-1.323150635E0,9.502471924E0
1.621490479E0,1.110371399E1,-1.586517334E0,9.773010254E0
1.626495362E0,1.088822937E1,-1.825927734E0,1.001483154E1
1.631500244E0,1.065599060E1,-1.938461304E0,1.017524719E1
1.636505127E0,1.044529724E1,-1.864242554E0,1.016806030E1
1.641510010E0,1.029925537E1,-1.632003784E0,9.885543823E0
1.646514893E0,1.020588684E1,-1.301605225E0,9.404312134E0
1.651519776E0,1.011489868E1,-9.352874756E-1,8.889556885E0
1.656524658E0,1.008856201E1,-5.905303955E-1,8.477752686E0
1.661529541E0,1.003828430E1,-3.343505859E-1,8.113830566E0
1.666534424E0,9.920974731E0,-1.859130859E-1,7.790618896E0
1.671539307E0,9.755767822E0,-1.452026367E-1,7.539230347E0
1.676544190E0,9.559448242E0,-1.882934570E-1,7.347686768E0
1.681549072E0,9.377487183E0,-3.128051758E-1,7.237548828E0
1.686553955E0,9.250595093E0,-4.540557861E-1,7.206436157E0
1.691558838E0,9.217071533E0,-5.594024658E-1,7.175308228E0
1.696563721E0,9.329605103E0,-5.953216553E-1,7.091506958E0
1.701568604E0,9.525924683E0,-6.096801758E-1,6.933486938E0
1.706573487E0,9.758163452E0,-6.192626953E-1,6.808990479E0
1.711578369E0,1.007899475E1,-6.072845459E-1,6.737167358E0
1.716583252E0,1.046685791E1,-5.378570557E-1,6.636611938E0
1.721588135E0,1.090498352E1,-3.965911865E-1,6.497741699E0
1.726593018E0,1.131678772E1,-1.811218262E-1,6.313400269E0
1.731597901E0,1.162084961E1,2.957153320E-2,6.133834839E0
1.736602783E0,1.177647400E1,1.636505127E-1,5.975814819E0
1.741607666E0,1.178845215E1,2.426605225E-1,5.765121460E0
1.746612549E0,1.168789673E1,2.929382324E-1,5.525695801E0
1.751617432E0,1.149395752E1,3.336334229E-1,5.295852661E0
1.756622315E0,1.125215149E1,3.647613525E-1,5.113891602E0
1.761627197E0,1.095526123E1,3.982849121E-1,4.984603882E0
1.766632080E0,1.063204956E1,4.557342529E-1,4.900817871E0
1.771636963E0,1.034474182E1,5.108032227E-1,4.836166382E0
1.776641846E0,1.020828247E1,5.586853027E-1,4.649429321E0
1.781646729E0,1.025376892E1,5.562896729E-1,4.333389282E0
1.786651612E0,1.037347412E1,3.599700928E-1,4.390853882E0
1.791656494E0,1.043572998E1,3.234863281E-3,4.579986572E0
1.796661377E0,1.042375183E1,-3.989868164E-1,4.620697021E0
1.801666260E0,1.033277893E1,-7.054443359E-1,4.565628052E0
1.806671143E0,1.017236328E1,-8.251647949E-1,4.410003662E0
1.811676026E0,1.000717163E1,-7.269897461E-1,4.208892822E0
1.816680908E0,9.856323242E0,-4.492645264E-1,4.129882812E0
1.821685791E0,9.755767822E0,-6.379699707E-2,4.043685913E0
1.826690674E0,9.691131592E0,4.054565430E-1,3.947921753E0
1.831695557E0,9.662399292E0,9.058532715E-1,3.928771973E0
1.836700440E0,9.588180542E0,1.358352661E0,4.031723022E0
1.841705322E0,9.444534302E0,1.789306641E0,4.165786743E0
1.846710205E0,9.207504272E0,2.177169800E0,4.342971802E0
1.851715088E0,8.838790894E0,2.459686279E0,4.493804932E0
1.856719971E0,8.340805054E0,2.653610229E0,4.594360352E0
1.861724854E0,7.811676025E0,2.754180908E0,4.627868652E0
1.866729737E0,7.330444336E0,2.799667358E0,4.680541992E0
1.871734619E0,6.892303467E0,2.840362549E0,4.757156372E0
1.876739502E0,6.492477417E0,2.914581299E0,4.953491211E0
1.881744385E0,6.133346558E0,3.096542358E0,5.156997681E0
1.886749268E0,5.829284668E0,3.323989868E0,5.173751831E0
1.891754151E0,5.611404419E0,3.508346558E0,4.915176392E0
1.896759033E0,5.530014038E0,3.613693237E0,4.515350342E0
1.901763916E0,5.561126709E0,3.623275757E0,4.077209473E0
1.906768799E0,5.630569458E0,3.529891968E0,3.617523193E0
1.911773682E0,5.697601318E0,3.300048828E0,3.131500244E0
1.916778565E0,5.690414429E0,2.933746338E0,2.628723145E0
1.921783447E0,5.625778198E0,2.495605469E0,2.111572266E0
1.926788330E0,5.565917969E0,2.131683350E0,1.587234497E0
1.931793213E0,5.534790039E0,1.944931030E0,1.019805908E0
1.936798096E0,5.573104858E0,1.911422729E0,4.619598389E-1
1.941802979E0,5.726333618E0,1.978454590E0,-1.927185059E-2
1.946807862E0,5.953781128E0,2.105346680E0,-3.807983398E-1
1.951812744E0,6.176437378E0,2.172378540E0,-6.441497803E-1
1.956817627E0,6.363189697E0,2.215484619E0,-7.949981689E-1
1.961822510E0,6.454162598E0,2.237030029E0,-8.404846191E-1
1.966827393E0,6.473327637E0,2.237030029E0,-7.782287598E-1
1.971832276E0,6.401489258E0,2.232238770E0,-6.226043701E-1
1.976837158E0,6.226715088E0,2.186752319E0,-4.885406494E-1
1.981842041E0,5.972930908E0,2.138870239E0,-3.592529297E-1
1.986846924E0,5.623382568E0,2.071823120E0,-1.964416504E-1
1.991851807E0,5.206787109E0,1.947326660E0,5.255126953E-2
1.996856690E0,4.790191650E0,1.765365601E0,3.518371582E-1
2.001861572E0,4.486129761E0,1.530731201E0,6.247711182E-1
2.006866455E0,4.347274780E0,1.238647461E0,9.048919678E-1
2.011871338E0,4.323333740E0,8.579711914E-1,1.196990967E0
2.016876221E0,4.428680420E0,5.347442627E-1,1.220932007E0
2.021881104E0,4.756683350E0,4.725036621E-1,8.713684082E-1
2.026885987E0,5.319320679E0,7.478332520E-1,2.943725586E-1
2.031890869E0,6.140533447E0,1.284133911E0,-2.993927002E-1
2.036895752E0,7.193984985E0,2.052673340E0,-7.183837891E-1
2.041900635E0,8.393478394E0,2.912185669E0,-9.913177490E-1
2.046905518E0,9.712677002E0,3.702270508E0,-1.132568359E0
2.051910401E0,1.111088562E1,5.265686035E0,-5.867004395E-1
2.056915283E0,1.216194153E1,6.074935913E0,1.363525391E-1
2.061920166E0,1.267190552E1,6.474761963E0,2.225494385E-1
2.066925049E0,1.250192261E1,6.728546143E0,8.847045898E-2
2.071929932E0,1.185069275E1,6.984725952E0,-1.581268311E-1
2.076934815E0,1.098638916E1,7.023040771E0,-4.669799805E-1
2.081939697E0,1.014602661E1,6.747695923E0,-7.710571289E-1
2.086944580E0,9.415802002E0,6.199432373E0,-1.000900269E0
2.091949463E0,8.836395264E0,5.466812134E0,-1.123001099E0
2.096954346E0,8.532333374E0,4.746154785E0,-1.173278809E0
2.101959229E0,8.484451294E0,4.123657227E0,-1.146942139E0
2.106964112E0,8.714294434E0,3.687911987E0,-1.079895020E0
2.111968994E0,9.126098633E0,3.431732178E0,-9.817352295E-1
2.116973877E0,9.624099731E0,3.292861938E0,-8.452758789E-1
2.121978760E0,1.022503662E1,3.335968018E0,-8.141479492E-1
2.126983643E0,1.088822937E1,3.424545288E0,-5.890960693E-1
2.131988526E0,1.118510437E1,3.510742188E0,-1.461639404E-1
2.136993408E0,1.138862610E1,3.752563477E0,4.691467285E-1
2.141998291E0,1.158255005E1,3.994369507E0,1.127548218E0
2.147003174E0,1.170704651E1,4.219421387E0,1.599212646E0
2.152008057E0,1.167112732E1,4.238586426E0,1.965515137E0
2.157012940E0,1.163043213E1,4.358291626E0,2.128326416E0
2.162017822E0,1.153466797E1,4.343917847E0,2.370147705E0
2.167022705E0,1.126651001E1,4.257736206E0,2.262405396E0
2.172027588E0,1.070147705E1,4.142807007E0,1.953552246E0
2.177032471E0,1.005265808E1,4.236190796E0,1.333450317E0
2.182037354E0,9.628875732E0,4.592926025E0,7.995452881E-1
2.187042237E0,9.578598022E0,4.961624146E0,6.008300781E-1
2.192047119E0,9.698318481E0,5.371032715E0,3.398590088E-1
2.197052002E0,9.839569092E0,5.667922974E0,2.201538086E-1
2.202056885E0,9.916183472E0,5.914520264E0,1.914215088E-1
2.207061768E0,9.892242432E0,6.062957764E0,1.195983887E-1
2.212066651E0,9.858718872E0,6.175491333E0,2.621459961E-2
2.217071533E0,9.703094482E0,6.141967773E0,-1.294097900E-1
2.222076416E0,9.530715942E0,6.041412354E0,-4.095306396E-1
2.227081299E0,9.418197632E0,5.864242554E0,-7.710571289E-1
2.232086182E0,9.401428223E0,5.526657104E0,-1.003280640E0
2.237091065E0,9.454101562E0,5.033447266E0,-1.288192749E0
2.242095947E0,9.607330322E0,4.497146606E0,-1.245101929E0
2.247100830E0,9.772537231E0,3.968032837E0,-9.889221191E-1
2.252105713E0,9.846755981E0,3.491592407E0,-5.579681396E-1
2.257110596E0,9.774932861E0,3.067810059E0,9.460449219E-3
2.262115479E0,9.580993652E0,2.682342529E0,2.991638184E-1
2.267120362E0,9.303268433E0,2.339981079E0,3.326721191E-1
2.272125244E0,9.044692993E0,2.067031860E0,2.919769287E-1
2.277130127E0,8.831604004E0,1.925781250E0,2.752227783E-1
2.282135010E0,8.711898804E0,1.901840210E0,2.129669189E-1
2.287139893E0,8.668807983E0,1.954513550E0,1.626892090E-1
2.292144776E0,8.668807983E0,2.067031860E0,1.770477295E-1
2.297149658E0,8.702331543E0,2.191543579E0,3.326721191E-1
2.302154541E0,8.802886963E0,2.380676270E0,5.673065186E-1
2.307159424E0,8.987228394E0,2.608123779E0,7.588500977E-1
2.312164307E0,9.243408203E0,2.837966919E0,8.881378174E-1
2.317169190E0,9.521148682E0,3.070205688E0,9.815063477E-1
2.322174072E0,9.758163452E0,3.314422607E0,1.089248657E0
2.327178955E0,9.959274292E0,3.539474487E0,1.089248657E0
2.332183838E0,1.010054016E1,3.723831177E0,1.134735107E0
2.337188721E0,1.013883972E1,3.747772217E0,1.141921997E0
2.342193604E0,1.010293579E1,3.673553467E0,1.280776978E0
2.347198487E0,1.010533142E1,3.467651367E0,1.702163696E0
2.352203369E0,1.027052307E1,3.149215698E0,2.195373535E0
2.357208252E0,1.054107666E1,2.866699219E0,2.669418335E0
2.362213135E0,1.073020935E1,2.514755249E0,2.987854004E0
2.367218018E0,1.080921936E1,2.141265869E0,2.930389404E0
2.372222901E0,1.068711853E1,1.964080811E0,2.805892944E0
2.377227783E0,1.078048706E1,1.832412720E0,2.602386475E0
2.382232666E0,1.111088562E1,1.983245850E0,1.556106567E0
2.387237549E0,1.131201172E1,2.521942139E0,1.331054688E0
2.392242432E0,1.128088379E1,3.091751099E0,9.575653076E-1
2.397247315E0,1.104145813E1,3.649612427E0,6.702575684E-1
2.402252197E0,1.070866394E1,4.145202637E0,3.326721191E-1
2.407257080E0,1.037586975E1,4.559402466E0,1.904296875E-2
2.412261963E0,1.012687683E1,4.973602295E0,-2.682647705E-1
2.417266846E0,9.999984741E0,5.265686035E0,-5.028991699E-1
2.422271729E0,9.968856812E0,5.335128784E0,-6.106414795E-1
2.427276612E0,1.006462097E1,5.160354614E0,-5.268402100E-1
2.432281494E0,1.018194580E1,4.834732056E0,-1.844635010E-1
2.437286377E0,1.012208557E1,4.360687256E0,2.943725586E-1
2.442291260E0,9.837173462E0,3.982406616E0,9.168548584E-1
2.447296143E0,9.561843872E0,3.810012817E0,1.350219727E0
2.452301026E0,9.238632202E0,3.620880127E0,1.572875977E0
2.457305908E0,8.805282593E0,3.422149658E0,1.740463257E0
2.462310791E0,8.355163574E0,3.163589478E0,2.011016846E0
2.467315674E0,8.087020874E0,2.905014038E0,2.063690186E0
2.472320557E0,7.974487305E0,2.629669189E0,1.886520386E0
2.477325440E0,7.936172485E0,2.335189819E0,1.527389526E0
2.482330322E0,7.952941895E0,2.009582520E0,1.156280518E0
2.487335205E0,7.940963745E0,1.590591431E0,8.570098877E-1
2.492340088E0,8.017578125E0,1.267379761E0,6.271667480E-1
2.497344971E0,8.225875854E0,1.106964111E0,4.930877686E-1
2.502349854E0,8.505996704E0,1.116546631E0,4.428100586E-1
2.507354737E0,8.893859863E0,1.284133911E0,4.404144287E-1
2.512359619E0,9.346359253E0,1.499618530E0,5.074462891E-1
2.517364502E0,9.865905762E0,1.813247681E0,6.103973389E-1
2.522369385E0,1.051234436E1,2.213088989E0,6.319580078E-1
2.527374268E0,1.128327942E1,2.603332520E0,5.122375488E-1
2.532379151E0,1.209011841E1,2.854736328E0,3.159179688E-1
2.537384033E0,1.284669495E1,2.919372559E0,2.033843994E-1
2.542388916E0,1.338537598E1,2.656005859E0,5.494689941E-2
2.547393799E0,1.368226624E1,2.227447510E0,-6.715393066E-2
2.552398682E0,1.380676270E1,1.762969971E0,9.565734863E-2
2.557403565E0,1.382351685E1,1.348770142E0,3.470458984E-1
2.562408447E0,1.380915833E1,1.011199951E0,6.199798584E-1
2.567413330E0,1.380676270E1,7.095184326E-1,9.455871582E-1
2.572418213E0,1.377563477E1,4.725036621E-1,1.331054688E0
2.577423096E0,1.371099854E1,3.168792725E-1,1.659057617E0
2.582427979E0,1.376846313E1,5.467224121E-1,1.982284546E0
2.587432862E0,1.397674561E1,1.238647461E0,2.386901855E0
2.592437744E0,1.397674561E1,1.743820190E0,2.738845825E0
2.597442627E0,1.372535706E1,1.930572510E0,3.232055664E0
2.602447510E0,1.323693848E1,1.880294800E0,3.842575073E0
2.607452393E0,1.238938904E1,1.679183960E0,4.484222412E0
2.612457276E0,1.120906067E1,1.540313721E0,5.046859741E0
2.617462158E0,9.700714111E0,1.590591431E0,5.286285400E0
2.622467041E0,8.043914795E0,1.892257690E0,5.377258301E0
2.627471924E0,6.351211548E0,2.395050049E0,5.276702881E0
2.632476807E0,4.854843140E0,3.005569458E0,5.061218262E0
2.637481690E0,3.638580322E0,3.604110718E0,4.702102661E0
2.642486572E0,2.680908203E0,4.121261597E0,4.050872803E0
2.647491455E0,1.948287964E0,4.542648315E0,2.975875854E0
2.652496338E0,1.388031006E0,4.923324585E0,2.030166626E0
2.657501221E0,9.642639160E-1,5.208236694E0,9.408111572E-1
2.662506104E0,9.427185059E-1,5.378219604E0,7.649230957E-2
2.667510987E0,1.287475586E0,5.476379395E0,-8.548431396E-1
2.672515869E0,1.917160034E0,5.639190674E0,-1.656906128E0
2.677520752E0,2.829345703E0,5.873825073E0,-2.298553467E0
2.682525635E0,3.985748291E0,6.197036743E0,-2.839645386E0
2.687530518E0,5.225936890E0,6.594467163E0,-3.440582275E0
2.692535401E0,6.389526367E0,6.960784912E0,-3.897872925E0
2.697540283E0,7.433395386E0,7.298370361E0,-4.429397583E0
2.702545166E0,8.379104614E0,7.592849731E0,-4.649658203E0
2.707550049E0,8.953720093E0,7.856216431E0,-4.905838013E0
2.712554932E0,8.915405273E0,8.131546021E0,-4.956115723E0
2.717559815E0,8.508392334E0,8.368576050E0,-4.745422363E0
2.722564697E0,7.952941895E0,8.445190430E0,-4.381500244E0
2.727569580E0,7.493255615E0,8.382949829E0,-4.065475464E0
2.732574463E0,7.500442505E0,8.263229370E0,-3.835632324E0
2.737579346E0,7.857177734E0,8.102813721E0,-3.823654175E0
2.742584229E0,8.118133545E0,7.940017700E0,-4.158843994E0
2.747589112E0,7.998428345E0,7.832275391E0,-4.427001953E0
2.752593994E0,7.694366455E0,7.748474121E0,-4.407836914E0
2.757598877E0,7.136520386E0,7.382171631E0,-4.194763184E0
2.762603760E0,6.329666138E0,6.647140503E0,-4.142089844E0
2.767608643E0,5.601837158E0,5.948043823E0,-3.706344604E0
2.772613526E0,4.955398560E0,5.311187744E0,-3.100601196E0
2.777618408E0,4.404739380E0,4.794036865E0,-2.382354736E0
2.782623291E0,3.985748291E0,4.451660156E0,-1.496490479E0
2.787628174E0,3.734359741E0,4.245758057E0,-3.760070801E-1
2.792633057E0,3.609863281E0,4.138015747E0,9.120788574E-1
2.797637940E0,3.533248901E0,4.073379517E0,2.200149536E0
2.802642822E0,3.492538452E0,4.094924927E0,3.804275513E0
2.807647705E0,3.451843262E0,4.193084717E0,5.480209351E0
2.812652588E0,3.066375732E0,4.281677246E0,6.919128418E0
2.817657471E0,2.606689453E0,4.454055786E0,8.176086426E0
2.822662354E0,2.544433594E0,4.619262695E0,8.719558716E0
2.827667237E0,2.709640503E0,4.932891846E0,8.760269165E0
2.832672119E0,2.601898193E0,5.074157715E0,8.721954346E0
2.837677002E0,2.362472534E0,4.942474365E0,8.274246216E0
2.842681885E0,2.273895264E0,4.609680176E0,7.247131348E0
2.847686768E0,2.202072144E0,4.205062866E0,6.002151489E0
2.852691651E0,2.149398804E0,3.968032837E0,4.922363281E0
2.857696533E0,2.199676514E0,3.745376587E0,4.319015503E0
2.862701416E0,2.230804443E0,3.501159668E0,4.182556152E0
2.867706299E0,2.295440674E0,3.271316528E0,4.053268433E0
2.872711182E0,2.630630493E0,3.278503418E0,3.847366333E0
2.877716065E0,2.855682373E0,3.103729248E0,3.344589233E0
2.882720947E0,2.898773193E0,2.921768188E0,2.525772095E0
2.887725830E0,2.855682373E0,2.799667358E0,1.388519287E0
2.892730713E0,2.831741333E0,2.699111938E0,3.949279785E-1
2.897735596E0,2.700057983E0,2.663192749E0,-3.424835205E-1
2.902740479E0,2.470214844E0,2.660797119E0,-1.091873169E0
2.907745362E0,2.324172974E0,2.806838989E0,-1.690429688E0
2.912750244E0,2.242767334E0,3.077392578E0,-2.018432617E0
2.917755127E0,2.149398804E0,3.405395508E0,-2.245880127E0
2.922760010E0,2.046447754E0,3.774108887E0,-2.834854126E0
2.927764893E0,2.000961304E0,4.070983887E0,-3.256225586E0
2.932769776E0,1.941101074E0,4.317581177E0,-3.335235596E0
2.937774658E0,8.493499756E-1,4.343917847E0,-4.015197754E0
2.942779541E0,-5.991516113E-1,4.255340576E0,-4.728668213E0
2.947784424E0,-1.343750000E0,4.248153687E0,-4.297714233E0
2.952789307E0,-1.516128540E0,4.331954956E0,-3.656066895E0
2.957794190E0,-1.180938721E0,4.463638306E0,-2.006454468E0
2.962799072E0,-5.919647217E-1,4.619262695E0,7.779998779E-1
2.967803955E0,2.077026367E-1,4.750946045E0,2.714904785E0
2.972808838E0,8.780670166E-1,4.626434326E0,3.617523193E0
2.977813721E0,1.323394775E0,4.473205566E0,3.449920654E0
2.982818604E0,1.162979126E0,4.090133667E0,2.305496216E0
2.987823487E0,8.373718262E-1,3.587356567E0,-8.630371094E-2
2.992828369E0,2.340393066E-1,3.352722168E0,-2.854003906E0
2.997833252E0,-1.496887207E-2,3.903396606E0,-5.212295532E0
3.002838135E0,1.620269775E0,8.845016479E0,-6.366302490E0
3.007843018E0,2.506134033E0,2.841761780E1,-8.753326416E0
3.012847901E0,7.416076660E-1,4.586895752E1,-1.224885559E1
3.017852783E0,-3.611053467E0,5.169644165E1,-1.225125122E1
3.022857666E0,-1.013764954E1,4.938125610E1,-1.192802429E1
3.027862549E0,-1.752615356E1,4.274212646E1,-1.348904419E1
3.032867432E0,-2.161784363E1,3.424511719E1,-1.584733582E1
3.037872315E0,-2.067932129E1,2.610722351E1,-1.560552979E1
3.042877197E0,-1.734658813E1,1.970512390E1,-1.294078064E1
3.047882080E0,-1.336503601E1,1.482814026E1,-9.572143555E0
3.052886963E0,-9.962875366E0,1.104768372E1,-6.445312500E0
3.057891846E0,-7.384323120E0,8.167465210E0,-3.852386475E0
3.062896729E0,-5.428253174E0,6.003112793E0,-1.843658447E0
3.067901612E0,-3.905548096E0,4.434906006E0,4.776000977E-2
3.072906494E0,-2.773086548E0,3.450881958E0,1.953552246E0
3.077911377E0,-2.100311279E0,3.024719238E0,3.612731934E0
3.082916260E0,-1.935119629E0,3.223434448E0,4.783493042E0
3.087921143E0,-2.129043579E0,4.118865967E0,5.417968750E0
3.092926026E0,-2.459442139E0,5.421310425E0,5.523300171E0
3.097930908E0,-2.761108398E0,6.738128662E0,5.104324341E0
3.102935791E0,-2.892791748E0,7.880157471E0,4.153823853E0
3.107940674E0,-2.837722778E0,8.809112549E0,2.736450195E0
3.112945557E0,-2.686889648E0,9.529769897E0,9.862976074E-1
3.117950440E0,-2.531265259E0,1.005888367E1,-8.117523193E-1
3.122955322E0,-2.387619019E0,1.041801453E1,-2.346435547E0
3.127960205E0,-2.251144409E0,1.060237122E1,-3.371154785E0
3.132965088E0,-2.107498169E0,1.062870789E1,-3.751831055E0
3.137969971E0,-1.973419189E0,1.052096558E1,-3.617752075E0
3.142974854E0,-1.887237549E0,1.031266785E1,-3.150894165E0
3.147979737E0,-1.822586060E0,1.010916138E1,-2.537963867E0
3.152984619E0,-1.777099609E0,9.972686768E0,-1.987304688E0
3.157989502E0,-1.743576050E0,9.850585938E0,-1.573104858E0
3.162994385E0,-1.717239380E0,9.714111328E0,-1.245101929E0
3.167999268E0,-1.738784790E0,9.606384277E0,-9.937133789E-1
3.173004151E0,-1.841735840E0,9.536941528E0,-8.740081787E-1
3.178009033E0,-1.978210449E0,9.496246338E0,-8.811798096E-1
3.183013916E0,-2.097915649E0,9.496246338E0,-9.482269287E-1
3.188018799E0,-2.243972778E0,9.503433228E0,-9.985046387E-1
3.193023682E0,-2.390014648E0,9.551315308E0,-1.072723389E0
3.198028565E0,-2.509719849E0,9.630325317E0,-1.130172729E0
3.203033447E0,-2.598312378E0,9.747634888E0,-1.194824219E0
3.208038330E0,-2.648590088E0,9.841018677E0,-1.190032959E0
3.213043213E0,-2.641403198E0,9.891296387E0,-1.158905029E0
3.218048096E0,-2.593521118E0,9.884109497E0,-1.127792358E0
3.223052979E0,-2.500152588E0,9.845794678E0,-1.084686279E0
3.228057862E0,-2.401977539E0,9.759613037E0,-1.029617310E0
3.233062744E0,-2.270309448E0,9.647079468E0,-9.745635986E-1
3.238067627E0,-2.169738770E0,9.513000488E0,-9.266662598E-1
3.243072510E0,-2.105102539E0,9.354995728E0,-8.955535889E-1
3.248077393E0,-2.009338379E0,9.211334229E0,-9.051208496E-1
3.253082276E0,-1.959060669E0,9.084442139E0,-9.745635986E-1
3.258087158E0,-1.915954590E0,9.017410278E0,-1.077514648E0
3.263092041E0,-1.863281250E0,8.995864868E0,-1.161300659E0
3.268096924E0,-1.805831909E0,8.971923828E0,-1.173278809E0
3.273101807E0,-1.757949829E0,9.012619019E0,-1.202011108E0
3.278106690E0,-1.733993530E0,9.053314209E0,-1.249893188E0
3.283111572E0,-1.743576050E0,9.050918579E0,-1.324111938E0
3.288116455E0,-1.736389160E0,9.098815918E0,-1.371994019E0
3.293121338E0,-1.714843750E0,9.225708008E0,-1.405517578E0
3.298126221E0,-1.702880859E0,9.338226318E0,-1.439025879E0
3.303131104E0,-1.726821899E0,9.369354248E0,-1.451004028E0
3.308135987E0,-1.748367310E0,9.393295288E0,-1.443817139E0
3.313140869E0,-1.774703979E0,9.393295288E0,-1.453399658E0
3.318145752E0,-1.805831909E0,9.366958618E0,-1.431854248E0
3.323150635E0,-1.834564209E0,9.347808838E0,-1.407913208E0
3.328155518E0,-1.860900879E0,9.338226318E0,-1.374389648E0
3.333160401E0,-1.896804810E0,9.395690918E0,-1.340866089E0
3.338165283E0,-1.920745850E0,9.450759888E0,-1.307357788E0
3.343170166E0,-1.930328369E0,9.515396118E0,-1.259460449E0
3.348175049E0,-1.915954590E0,9.510604858E0,-1.187637329E0
3.353179932E0,-1.889617920E0,9.414840698E0,-1.077514648E0
3.358184815E0,-1.884841919E0,9.335830688E0,-9.410400391E-1
3.363189697E0,-1.920745850E0,9.352600098E0,-8.165435791E-1
3.368194580E0,-1.949478149E0,9.395690918E0,-7.159881592E-1
3.373199463E0,-1.937515259E0,9.462722778E0,-6.321868896E-1
3.378204346E0,-1.932723999E0,9.491455078E0,-5.651550293E-1
3.383209229E0,-1.889617920E0,9.486663818E0,-6.393737793E-1
3.388214112E0,-1.774703979E0,9.474700928E0,-8.787841797E-1
3.393218994E0,-1.700485229E0,9.496246338E0,-1.180465698E0
3.398223877E0,-1.666961670E0,9.501037598E0,-1.405517578E0
3.403228760E0,-1.662170410E0,9.429214478E0,-1.446212769E0
3.408203125E0,-1.631057739E0,9.364562988E0,-1.403121948E0
3.413208008E0,-1.674148560E0,9.333435059E0,-1.381576538E0
3.418212891E0,-1.781890869E0,9.357376099E0,-1.431854248E0
3.423217774E0,-1.836944580E0,9.386108398E0,-1.532409668E0
3.428222656E0,-1.832168579E0,9.376541138E0,-1.599441528E0
3.433227539E0,-1.674148560E0,9.328659058E0,-1.637756348E0
3.438232422E0,-1.870468140E0,9.228088379E0,-1.743103027E0
3.443237305E0,-2.069183350E0,9.264007568E0,-1.877166748E0
3.448242188E0,-2.035675049E0,9.366958618E0,-1.929840088E0
3.453247071E0,-1.956665039E0,9.345413208E0,-1.834075928E0
3.458251953E0,-1.851318359E0,9.287948608E0,-1.711975098E0
3.463256836E0,-1.813003540E0,9.244857788E0,-1.757461548E0
3.468261719E0,-1.846527100E0,9.247253418E0,-2.049560547E0
3.473266602E0,-1.868072510E0,9.259216309E0,-2.353622437E0
3.478271485E0,-1.872863770E0,9.216125488E0,-2.442199707E0
3.483276367E0,-1.836944580E0,9.139511108E0,-2.375167847E0
3.488281250E0,-1.793853760E0,9.065292358E0,-2.277008057E0
3.493286133E0,-1.796249390E0,9.022201538E0,-2.221939087E0
3.498291016E0,-1.827377319E0,8.986282349E0,-2.243484497E0
3.503295899E0,-1.865676880E0,8.943191528E0,-2.291366577E0
3.508300781E0,-1.858505249E0,8.952758789E0,-2.365585327E0
3.513305664E0,-1.813003540E0,8.995864868E0,-2.432632446E0
3.518310547E0,-1.722030640E0,9.077255249E0,-2.473327637E0
3.523315430E0,-1.659774780E0,9.196975708E0,-2.573883057E0
3.528320313E0,-1.592742920E0,9.335830688E0,-2.717529297E0
3.533325196E0,-1.489791870E0,9.551315308E0,-2.909072876E0
3.538330078E0,-1.372482300E0,9.812286377E0,-3.100601196E0
3.543334961E0,-1.238403320E0,1.008282471E1,-3.253829956E0
3.548339844E0,-1.135452271E0,1.033421326E1,-3.399887085E0
3.553344727E0,-1.006164551E0,1.053292847E1,-3.495651245E0
3.558349610E0,-8.792724609E-1,1.062391663E1,-3.615356445E0
3.563354492E0,-7.427978516E-1,1.057363892E1,-3.749435425E0
3.568359375E0,-6.159057617E-1,1.040365601E1,-3.900268555E0
3.573364258E0,-4.818267822E-1,1.016902161E1,-4.048706055E0
3.578369141E0,-3.597259521E-1,9.924804688E0,-4.108566284E0
3.583374024E0,-2.304382324E-1,9.742843628E0,-4.094207764E0
3.588378906E0,-1.011505127E-1,9.647079468E0,-3.996032715E0
3.593383789E0,-5.386352539E-3,9.680603027E0,-3.866760254E0
3.598388672E0,8.319091797E-2,9.785949707E0,-3.636917114E0
3.603393555E0,1.478424072E-1,9.879318237E0,-3.311294556E0
3.608398438E0,1.717834473E-1,9.948745728E0,-2.990478516E0
3.613403321E0,1.191101074E-1,9.958328247E0,-2.748657227E0
3.618408203E0,-2.453613281E-2,9.905654907E0,-2.602615356E0
3.623413086E0,-1.179199219E-1,9.852981567E0,-2.475723267E0
3.628417969E0,-1.490325928E-1,9.829040527E0,-2.200393677E0
3.633422852E0,-1.897430420E-1,9.836227417E0,-1.879562378E0
3.638427735E0,-2.543792725E-1,9.807495117E0,-1.755065918E0
3.643432617E0,-2.807159424E-1,9.857772827E0,-1.522827148E0
3.648437500E0,-2.902984619E-1,9.972686768E0,-1.118209839E0
3.653442383E0,-2.831115723E-1,1.006846619E1,-7.016143799E-1
3.658447266E0,-2.759246826E-1,1.016183472E1,-4.190979004E-1
3.663452149E0,-2.759246826E-1,1.023126221E1,-2.203826904E-1
3.668457031E0,-3.262176514E-1,1.021211243E1,-3.123474121E-2
3.673461914E0,-3.717041016E-1,1.012113953E1,1.531066895E-1
3.678466797E0,-3.884582520E-1,1.003254700E1,2.991638184E-1
3.683471680E0,-3.788757324E-1,9.975082397E0,3.757781982E-1
3.688476563E0,-3.405761719E-1,9.927200317E0,3.901367188E-1
3.693481446E0,-2.831115723E-1,9.852981567E0,2.752227783E-1
3.698486328E0,-2.232666016E-1,9.738067627E0,4.537963867E-2
3.703491211E0,-1.801605225E-1,9.592010498E0,-2.323608398E-1
3.708496094E0,-1.059417725E-1,9.448364258E0,-5.148773193E-1
3.713500977E0,-1.257324219E-2,9.350204468E0,-8.069610596E-1
3.718505860E0,9.996032715E-2,9.287948608E0,-1.041595459E0
3.723510742E0,2.053070068E-1,9.261611938E0,-1.139755249E0
3.728515625E0,2.986755371E-1,9.295135498E0,-1.192428589E0
3.733520508E0,4.447174072E-1,9.331039429E0,-1.355239868E0
3.738525391E0,6.458282471E-1,9.357376099E0,-1.601837158E0
3.743530274E0,8.732910156E-1,9.347808838E0,-1.915481567E0
3.748535156E0,1.064819336E0,9.326263428E0,-2.245880127E0
3.753540039E0,1.165374756E0,9.278381348E0,-2.468536377E0
3.758544922E0,1.210861206E0,9.280761719E0,-2.449386597E0
3.763549805E0,1.201293945E0,9.304702759E0,-2.320098877E0
3.768554688E0,1.174957275E0,9.345413208E0,-2.159683228E0
3.773559571E0,1.213256836E0,9.400482178E0,-2.068710327E0
3.778564453E0,1.273117065E0,9.457946777E0,-2.092651367E0
3.783569336E0,1.340148926E0,9.527374268E0,-2.209960938E0
3.788574219E0,1.371276855E0,9.635116577E0,-2.377563477E0
3.793579102E0,1.359313965E0,9.745239258E0,-2.514022827E0
3.798583985E0,1.285079956E0,9.807495117E0,-2.506851196E0
3.803588867E0,1.206085205E0,9.826644897E0,-2.425445557E0
3.808593750E0,1.093551636E0,9.843399048E0,-2.288970947E0
3.813598633E0,9.786224365E-1,9.805099487E0,-2.121383667E0
3.818603516E0,8.158264160E-1,9.728485107E0,-1.946609497E0
3.823608399E0,5.859832764E-1,9.601593018E0,-1.740707397E0
3.828613281E0,3.106536865E-1,9.524978638E0,-1.558746338E0
3.833618164E0,-5.386352539E-3,9.489059448E0,-1.364807129E0
3.838623047E0,-2.735443115E-1,9.508224487E0,-1.156509399E0
3.843627930E0,-5.009918213E-1,9.603988647E0,-1.024841309E0
3.848632813E0,-7.284393311E-1,9.769180298E0,-1.067932129E0
3.853637696E0,-7.619476318E-1,9.862564087E0,-1.149337769E0
3.858642578E0,-1.116302490E0,9.951141357E0,-1.360031128E0
3.863647461E0,-1.446701050E0,9.915237427E0,-1.518035889E0
3.868652344E0,-1.552047729E0,9.814682007E0,-1.556350708E0
3.873657227E0,-1.499374390E0,9.778762817E0,-1.544372559E0
3.878662110E0,-1.518524170E0,9.685394287E0,-1.654510498E0
3.883666992E0,-1.573593140E0,9.594406128E0,-1.838867188E0
3.888671875E0,-1.583160400E0,9.501037598E0,-1.992095947E0
3.893676758E0,-1.580764771E0,9.412445068E0,-2.085464478E0
3.898681641E0,-1.532882690E0,9.352600098E0,-2.171661377E0
3.903686524E0,-1.504150391E0,9.278381348E0,-2.233901978E0
3.908691406E0,-1.465850830E0,9.206542969E0,-2.281784058E0
3.913696289E0,-1.456268311E0,9.113174438E0,-2.324890137E0
3.918701172E0,-1.494583130E0,9.022201538E0,-2.391921997E0
3.923706055E0,-1.504150391E0,8.967132568E0,-2.454177856E0
3.928710938E0,-1.518524170E0,8.936004639E0,-2.516418457E0
3.933715821E0,-1.465850830E0,8.924026489E0,-2.542755127E0
3.938720703E0,-1.300643921E0,8.952758789E0,-2.526000977E0
3.943725586E0,-1.250366211E0,8.976699829E0,-2.535583496E0
3.948730469E0,-1.252761841E0,9.038955688E0,-2.497268677E0
3.953735352E0,-1.271926880E0,9.082046509E0,-2.418258667E0
3.958740235E0,-1.291076660E0,9.170639038E0,-2.317703247E0
3.963745117E0,-1.295867920E0,9.347808838E0,-2.241088867E0
3.968750000E0,-1.338958740E0,9.601593018E0,-2.178848267E0
3.973754883E0,-1.372482300E0,9.783554077E0,-2.073501587E0
3.978759766E0,-1.341354370E0,9.996627808E0,-2.011245728E0
3.983764649E0,-1.219253540E0,1.027914429E1,-2.059127808E0
3.988769531E0,-1.128265381E0,1.056884766E1,-2.183624268E0
3.993774414E0,-9.486999512E-1,1.083940125E1,-2.322494507E0
3.998779297E0,-7.236480713E-1,1.111952209E1,-2.379959106E0
4.003784180E0,-5.297241211E-1,1.141639709E1,-2.358398438E0
4.008789063E0,-3.405761719E-1,1.173960876E1,-2.339248657E0
4.013793946E0,-1.873474121E-1,1.207479858E1,-2.305740356E0
4.018798828E0,-8.918762207E-2,1.238125610E1,-2.219543457E0
4.023803711E0,-5.386352539E-3,1.265180969E1,-2.059127808E0
4.028808594E0,7.841491699E-2,1.290080261E1,-1.834075928E0
4.033813477E0,1.885375977E-1,1.315937805E1,-1.513259888E0
4.038818360E0,3.226165771E-1,1.343231201E1,-1.077514648E0
4.043823242E0,5.093688965E-1,1.372441101E1,-5.340270996E-1
4.048828125E0,7.463989258E-1,1.399015808E1,4.058837891E-2
4.053833008E0,1.012145996E0,1.422958374E1,5.840606689E-1
4.058837891E0,1.349731445E0,1.440914917E1,1.034179688E0
4.063842774E0,1.763931274E0,1.451210022E1,1.417251587E0
4.068847656E0,2.211639404E0,1.461505127E1,1.666244507E0
4.073852539E0,2.623443604E0,1.474673462E1,1.690185547E0
4.078857422E0,2.992156982E0,1.489038086E1,1.601608276E0
4.083862305E0,3.348892212E0,1.504360962E1,1.457946777E0
4.088867188E0,3.633804321E0,1.518727112E1,1.290359497E0
4.093872071E0,3.861251831E0,1.531893921E1,1.106002808E0
4.098876953E0,4.045608521E0,1.539794922E1,9.264373779E-1
4.103881836E0,4.232345581E0,1.533091736E1,7.636260986E-1
4.108886719E0,4.443038940E0,1.507713318E1,6.535034180E-1
4.113891602E0,4.704010010E0,1.465814209E1,6.247711182E-1
4.118896485E0,4.969757080E0,1.410269165E1,6.870117188E-1
4.123901367E0,5.115814209E0,1.346104431E1,8.115234375E-1
4.128906250E0,5.178054810E0,1.278587341E1,9.384155273E-1
4.133911133E0,5.161300659E0,1.209634399E1,9.862976074E-1
4.138916016E0,5.067932129E0,1.137091064E1,1.022201538E0
4.143920899E0,4.953002930E0,1.065983582E1,9.982604980E-1
4.148925781E0,4.862030029E0,1.001818848E1,8.857421875E-1
4.153930664E0,4.771041870E0,9.517791748E0,6.726531982E-1
4.158935547E0,4.586685181E0,9.189788818E0,2.464904785E-1
4.163940430E0,4.280227661E0,8.974304199E0,-4.167022705E-1
4.168945313E0,3.868438721E0,8.876144409E0,-1.072723389E0
4.173950196E0,3.391983032E0,8.859390259E0,-1.685638428E0
4.178955078E0,2.860473633E0,8.983886719E0,-2.181228638E0
4.183959961E0,2.300231934E0,9.328659058E0,-2.442199707E0
4.188964844E0,1.708862305E0,9.977478027E0,-2.391921997E0
4.193969727E0,1.014541626E0,1.093995667E1,-2.197998047E0
4.198974610E0,4.925994873E-1,1.234295654E1,-2.018432617E0
4.203979492E0,3.106536865E-1,1.404762268E1,-1.846054077E0
4.208984375E0,1.191101074E-1,1.509867859E1,-1.829284668E0
4.213989258E0,-2.831115723E-1,1.582412720E1,-2.190811157E0
4.218994141E0,-9.247589111E-1,1.678898621E1,-3.172439575E0
4.223999024E0,-1.707672119E0,1.760540771E1,-4.845977783E0
4.229003906E0,-2.646194458E0,1.784243774E1,-6.495590210E0
4.234008789E0,-3.594299316E0,1.747132874E1,-7.611282349E0
4.239013672E0,-4.422683716E0,1.669801331E1,-8.576141357E0
4.244018555E0,-5.004486084E0,1.570919800E1,-9.016677856E0
4.249023438E0,-5.330093384E0,1.458871460E1,-8.920913696E0
4.254028321E0,-5.648513794E0,1.334613037E1,-8.276870728E0
4.259033203E0,-6.031585693E0,1.219212341E1,-7.458053589E0
4.264038086E0,-6.201583862E0,1.122485352E1,-6.366302490E0
4.269042969E0,-6.232711792E0,1.041082764E1,-3.493255615E0
4.274047852E0,-5.844848633E0,9.445968628E0,-7.351379395E-1
4.279052735E0,-5.394729614E0,8.538558960E0,8.234863281E-1
4.284057617E0,-5.155319214E0,7.784393311E0,5.015563965E-2
4.289062500E0,-4.997299194E0,7.099655151E0,-1.922668457E0
4.294067383E0,-4.604644775E0,6.718978882E0,-4.046325684E0
4.299072266E0,-3.771469116E0,6.546585083E0,-6.682327271E0
4.304077149E0,-2.603103638E0,7.003875732E0,-7.920135498E0
4.309082031E0,-1.571197510E0,7.746078491E0,-7.314407349E0
4.314086914E0,-6.637878418E-1,8.473922729E0,-6.320816040E0
4.319091797E0,2.483978271E-1,9.484268188E0,-5.006393433E0
4.324096680E0,1.057632446E0,1.026239014E1,-3.383117676E0
4.329101563E0,1.756744385E0,1.069813538E1,-1.939422607E0
4.334106446E0,2.192489624E0,1.076756287E1,-9.841308594E-1
4.339111328E0,2.343322754E0,1.060237122E1,-2.610778809E-1
4.344116211E0,2.204467773E0,1.026478577E1,1.076202393E-1
4.349121094E0,1.938705444E0,9.874526978E0,1.483306885E-1
4.354125977E0,1.469436646E0,9.357376099E0,4.669189453E-3
4.359130860E0,8.469543457E-1,8.751647949E0,-2.826385498E-1
4.364135742E0,1.957244873E-1,8.155487061E0,-5.579681396E-1
4.369140625E0,-3.453674316E-1,7.638351440E0,-8.261108398E-1
4.374145508E0,-7.523803711E-1,7.228942871E0,-1.008071899E0
4.379150391E0,-7.811126709E-1,6.893753052E0,-1.043991089E0
4.384155274E0,-2.041015625E-1,6.718978882E0,-1.082290649E0
4.389160156E0,4.590911865E-1,6.601654053E0,-1.106231689E0
4.394165039E0,1.095947266E0,6.594467163E0,-1.065536499E0
4.399169922E0,1.534088135E0,6.644744873E0,-1.053558350E0
4.404174805E0,1.749557495E0,6.690246582E0,-9.961090088E-1
4.409179688E0,1.859695435E0,6.685455322E0,-7.949981689E-1
4.414184571E0,1.807022095E0,6.666305542E0,-5.172576904E-1
4.419189453E0,1.687316895E0,6.656723022E0,-3.807983398E-1
4.424194336E0,1.435928345E0,6.630386353E0,-3.879852295E-1
4.429199219E0,1.091156006E0,6.577713013E0,-4.190979004E-1
4.434204102E0,7.392120361E-1,6.515472412E0,-4.813537598E-1
4.439208985E0,3.489532471E-1,6.412521362E0,-6.082458496E-1
4.444213867E0,-1.496887207E-2,6.295196533E0,-8.404846191E-1
4.449218750E0,-3.453674316E-1,6.132385254E0,-1.120605469E0
4.454223633E0,-7.236480713E-1,5.936065674E0,-1.441421509E0
4.459228516E0,-1.238403320E0,5.672698975E0,-1.745483398E0
4.464233399E0,-1.678939819E0,5.411743164E0,-1.881958008E0
4.469238281E0,-2.040466309E0,5.186676025E0,-1.807739258E0
4.474243164E0,-2.236785889E0,5.011901855E0,-1.537200928E0
4.479248047E0,-2.229598999E0,4.932891846E0,-1.158905029E0
4.484252930E0,-2.155380249E0,4.889801025E0,-6.896514893E-1
4.489257813E0,-2.045242310E0,4.875442505E0,-2.419281006E-1
4.494262696E0,-1.935119629E0,4.887405396E0,1.674804688E-1
4.499267578E0,-1.813003540E0,4.901779175E0,4.476013184E-1
4.504272461E0,-1.686111450E0,4.892196655E0,6.199798584E-1
4.509277344E0,-1.611892700E0,4.861068726E0,8.043365479E-1
4.514282227E0,-1.468246460E0,4.846710205E0,1.005447388E0
4.519287110E0,-1.228820801E0,4.870651245E0,1.208953857E0
4.524291992E0,-9.870147705E-1,4.877838135E0,1.479492188E0
4.529296875E0,-6.709747314E-1,4.882614136E0,1.831451416E0
4.534301758E0,-3.621215820E-1,4.918533325E0,2.307891846E0
4.539306641E0,-1.017761230E-2,4.997543335E0,2.911239624E0
4.544311524E0,3.992309570E-1,5.124435425E0,3.579208374E0
4.549316406E0,8.277893066E-1,5.306396484E0,4.271133423E0
4.554321289E0,1.256362915E0,5.517089844E0,5.027709961E0
4.559326172E0,1.708862305E0,5.792419434E0,5.796249390E0
4.564331055E0,2.132629395E0,6.139572144E0,6.559997559E0
4.569335938E0,2.554016113E0,6.587295532E0,7.242340088E0
4.574340821E0,2.949050903E0,7.109222412E0,7.840896606E0
4.579345703E0,3.377624512E0,7.714965820E0,8.293395996E0
4.584350586E0,3.815765381E0,8.409286499E0,8.607040405E0
4.589355469E0,4.308959961E0,9.194580078E0,8.793792725E0
4.594360352E0,4.804565430E0,1.004690552E1,8.877578735E0
4.599365235E0,5.242706299E0,1.099980164E1,8.877578735E0
4.604370117E0,5.616195679E0,1.199099731E1,8.714782715E0
4.609375000E0,5.719146729E0,1.293193054E1,8.324523926E0
4.614379883E0,5.573104858E0,1.388003540E1,7.673294067E0
4.619384766E0,5.340866089E0,1.473236084E1,6.737167358E0
4.624389649E0,5.111022949E0,1.531416321E1,5.492187500E0
4.629394531E0,4.950607300E0,1.555596924E1,3.943130493E0
4.634399414E0,4.897933960E0,1.540753174E1,2.350982666E0
4.639404297E0,4.984130859E0,1.487602234E1,9.312286377E-1
4.644409180E0,5.175659180E0,1.397579956E1,-1.030731201E-1
4.649414063E0,5.417480469E0,1.286010742E1,-6.106414795E-1
4.654418946E0,5.659301758E0,1.176115417E1,-4.478302002E-1
4.659423828E0,5.826889038E0,1.079869080E1,2.536621094E-1
4.664428711E0,6.032791138E0,1.009480286E1,1.359786987E0
4.669433594E0,6.054336548E0,9.532165527E0,2.621536255E0
4.674438477E0,5.869979858E0,9.113174438E0,3.806671143E0
4.679443360E0,5.585067749E0,8.912063599E0,4.809829712E0
4.684448242E0,5.324111938E0,8.888122559E0,5.619079590E0
4.689453125E0,5.137359619E0,9.036560059E0,6.255935669E0
4.694458008E0,5.096649170E0,9.376541138E0,6.607879639E0
4.699462891E0,5.082290649E0,9.876922607E0,6.318176270E0
4.704467774E0,5.039199829E0,1.048983765E1,5.216842651E0
4.709472656E0,4.835693359E0,1.116261292E1,3.464294434E0
4.714477539E0,4.349670410E0,1.182341003E1,1.398101807E0
4.719482422E0,3.669708252E0,1.259434509E1,-6.968231201E-1
4.724487305E0,2.795822144E0,1.361906433E1,-2.631347656E0
4.729492188E0,1.807022095E0,1.485447693E1,-4.237854004E0
4.734497071E0,8.445587158E-1,1.626226807E1,-5.197921753E0
4.739501953E0,-2.136840820E-1,1.767243958E1,-5.624099731E0
4.744506836E0,-1.532882690E0,1.885278320E1,-5.743804932E0
4.749511719E0,-3.041229248E0,1.931486511E1,-5.604949951E0
4.754516602E0,-4.468185425E0,1.904432678E1,-5.071029663E0
4.759521485E0,-5.595855713E0,1.851042175E1,-4.036743164E0
4.764526367E0,-6.225524902E0,1.787356567E1,-2.889923096E0
4.769531250E0,-6.488891602E0,1.690390015E1,-1.395935059E0
4.774536133E0,-6.831253052E0,1.512261963E1,3.374633789E-1
4.779541016E0,-7.190383911E0,1.265180969E1,1.857788086E0
4.784545899E0,-7.173629761E0,1.017858887E1,2.746032715E0
4.789550781E0,-6.740280151E0,7.956771851E0,2.837005615E0
4.794555664E0,-6.005264282E0,6.043807983E0,2.293533325E0
4.799560547E0,-5.112213135E0,4.530670166E0,1.366973877E0
4.804565430E0,-4.149749756E0,3.534683228E0,2.823944092E-1
4.809570313E0,-3.285446167E0,3.003173828E0,-8.740081787E-1
4.814575196E0,-2.583938599E0,2.852340698E0,-2.032791138E0
4.819580078E0,-2.119461060E0,2.883468628E0,-2.904281616E0
4.824584961E0,-1.745971680E0,2.936126709E0,-3.457351685E0
4.829589844E0,-1.379653931E0,3.077392578E0,-3.893081665E0
4.834594727E0,-1.109115601E0,3.419769287E0,-4.338409424E0
4.839599610E0,-8.816680908E-1,3.984786987E0,-4.956115723E0
4.844604492E0,-7.044982910E-1,4.743759155E0,-5.590576172E0
4.849609375E0,-6.254882812E-1,5.622421265E0,-6.167587280E0
4.854614258E0,-6.781616211E-1,6.556167603E0,-6.904998779E0
4.859619141E0,-8.265991211E-1,7.564132690E0,-7.778884888E0
4.864624024E0,-1.070800781E0,8.631942749E0,-8.523468018E0
4.869628906E0,-1.382049561E0,9.733276367E0,-9.045410156E0
4.874633789E0,-1.817794800E0,1.069334412E1,-9.150756836E0
4.879638672E0,-2.275085449E0,1.142358398E1,-8.523468018E0
4.884643555E0,-2.665344238E0,1.194071960E1,-7.505935669E0
4.889648438E0,-2.820968628E0,1.232618713E1,-6.342361450E0
4.894653321E0,-2.725204468E0,1.254406738E1,-5.111740112E0
4.899658203E0,-2.394805908E0,1.256800842E1,-3.871536255E0
4.904663086E0,-1.887237549E0,1.242196655E1,-2.842041016E0
4.909667969E0,-1.405990601E0,1.208677673E1,-1.841262817E0
4.914672852E0,-1.027709961E0,1.164863586E1,-9.003295898E-1
4.919677735E0,-7.188568115E-1,1.127275085E1,-2.539062500E-1
4.924682617E0,-3.980407715E-1,1.109078979E1,7.888793945E-2
4.929687500E0,-5.566406250E-2,1.105487061E1,2.009887695E-1
4.934692383E0,2.675476074E-1,1.097346497E1,2.393035889E-1
4.939697266E0,6.817474365E-1,1.076995850E1,2.560577393E-1
4.944702149E0,1.182144165E0,1.041082764E1,6.367340088E-1
4.949707031E0,1.656188965E0,9.951141357E0,1.338241577E0
4.954711914E0,2.051239014E0,9.469909668E0,1.908065796E0
4.959716797E0,2.362472534E0,9.053314209E0,2.238464355E0
4.964721680E0,2.525283813E0,8.730102539E0,2.346206665E0
4.969726563E0,2.465423584E0,8.572082520E0,2.245651245E0
4.974731446E0,2.000961304E0,8.435607910E0,2.073257446E0
4.979736328E0,1.344940186E0,8.263229370E0,1.788345337E0
4.984741211E0,7.152709961E-1,8.133941650E0,1.252044678E0
4.989746094E0,2.747344971E-1,8.145919800E0,4.045104980E-1
4.994750977E0,-6.285095215E-2,8.208160400E0,-7.518920898E-1
4.999755860E0,-3.477630615E-1,8.294357300E0,-1.898712158E0
5.004760742E0,-5.201416016E-1,8.469131470E0,-2.743865967E0
5.009765625E0,-4.626770020E-1,8.713348389E0,-3.122161865E0
5.014770508E0,-3.621215820E-1,8.998245239E0,-3.282562256E0
5.019775391E0,-3.405761719E-1,9.252044678E0,-3.419036865E0
5.024780274E0,-3.142395020E-1,9.491455078E0,-3.579452515E0
5.029785156E0,-2.472076416E-1,9.740447998E0,-3.605789185E0
5.034790039E0,-2.974853516E-1,1.003015137E1,-3.419036865E0
5.039794922E0,-4.507141113E-1,1.016902161E1,-3.205947876E0
5.044799805E0,-5.919647217E-1,1.012113953E1,-2.992874146E0
5.049804688E0,-6.733703613E-1,1.000621033E1,-2.631347656E0
5.054809571E0,-6.542205811E-1,9.867355347E0,-2.118988037E0
5.059814453E0,-5.512695312E-1,9.709335327E0,-1.553955078E0
5.064819336E0,-3.836669922E-1,9.575256348E0,-9.961090088E-1
5.069824219E0,-1.418609619E-1,9.513000488E0,-4.167022705E-1
5.074829102E0,1.478424072E-1,9.486663818E0,1.698760986E-1
5.079833985E0,5.021820068E-1,9.460327148E0,7.636260986E-1
5.084838867E0,8.900451660E-1,9.465118408E0,1.275985718E0
5.089843750E0,1.388031006E0,9.572860718E0,1.639907837E0
5.094848633E0,1.828567505E0,9.661453247E0,1.730895996E0
5.099853516E0,2.008132935E0,9.541732788E0,1.505828857E0
5.104858399E0,1.929122925E0,9.268798828E0,9.743194580E-1
5.109863281E0,1.881240845E0,9.165847778E0,3.063354492E-1
5.114868164E0,1.775894165E0,9.034164429E0,-3.496704102E-1
5.119873047E0,1.622665405E0,8.936004639E0,-9.458312988E-1
5.124877930E0,1.467041016E0,8.809112549E0,-1.398330688E0
5.129882813E0,1.230026245E0,8.651092529E0,-1.846054077E0
5.134887696E0,9.786224365E-1,8.593627930E0,-2.212356567E0
5.139892578E0,7.152709961E-1,8.646301270E0,-2.375167847E0
5.144897461E0,3.704986572E-1,8.629547119E0,-2.298553467E0
5.149902344E0,-2.990722656E-3,8.533782959E0,-2.025604248E0
5.154907227E0,-3.477630615E-1,8.461944580E0,-1.628173828E0
5.159912110E0,-5.632324219E-1,8.500259399E0,-1.168487549E0
5.164916992E0,-6.829528809E-1,8.653488159E0,-6.704864502E-1
5.169921875E0,-7.188568115E-1,8.833053589E0,-2.347564697E-1
5.174926758E0,-7.068939209E-1,9.204147339E0,-5.757141113E-2
5.179931641E0,-7.882843018E-1,9.532165527E0,-1.725006104E-1
5.184936524E0,-9.319458008E-1,9.671020508E0,-6.297912598E-1
5.189941406E0,-9.870147705E-1,9.850585938E0,-1.281021118E0
5.194946289E0,-8.098449707E-1,1.003254700E1,-1.862808228E0
5.199951172E0,-4.531097412E-1,1.025520325E1,-2.363189697E0
5.204956055E0,2.813720703E-2,1.043716431E1,-2.796539307E0
5.209960938E0,5.524597168E-1,1.048744202E1,-3.050323486E0
5.214965821E0,1.067214966E0,1.046110535E1,-3.107788086E0
5.219970703E0,1.574783325E0,1.041801453E1,-3.028778076E0
5.224975586E0,2.036865234E0,1.035337830E1,-2.822875977E0
5.229980469E0,2.403182983E0,1.030787659E1,-2.427841187E0
5.234985352E0,2.618652344E0,1.019775391E1,-1.901107788E0
5.239990235E0,2.783859253E0,1.016662598E1,-1.355239868E0
5.244995117E0,2.984970093E0,1.030787659E1,-7.135925293E-1
5.250000000E0,3.152557373E0,1.054969788E1,-1.687622070E-2
5.255004883E0,3.164535522E0,1.091839600E1,7.588500977E-1
5.260009766E0,3.071166992E0,1.137091064E1,1.532165527E0
5.265014649E0,2.870056152E0,1.183059692E1,2.140304565E0
5.270019531E0,2.609085083E0,1.223042297E1,2.394088745E0
5.275024414E0,2.352905273E0,1.259913635E1,2.159454346E0
5.280029297E0,2.120666504E0,1.297023010E1,1.489074707E0
5.285034180E0,1.914764404E0,1.334613037E1,4.859008789E-1
5.290039063E0,1.730407715E0,1.361427307E1,-4.693756104E-1
5.295043946E0,1.596328735E0,1.373637390E1,-1.178070068E0
5.300048828E0,1.538879395E0,1.375791931E1,-1.525222778E0
5.305053711E0,1.577178955E0,1.375553894E1,-1.580291748E0
5.310058594E0,1.704071045E0,1.379623413E1,-1.371994019E0
5.315063477E0,1.878845215E0,1.388960266E1,-8.907623291E-1
5.320068360E0,2.106292725E0,1.404043579E1,-2.443237305E-1
5.325073242E0,2.333740234E0,1.420324707E1,4.188690186E-1
5.330078125E0,2.518096924E0,1.430859375E1,1.024597168E0
5.335083008E0,2.664154053E0,1.430859375E1,1.517807007E0
5.340087891E0,2.767105103E0,1.417211914E1,1.843414307E0
5.345092774E0,2.831741333E0,1.394227600E1,1.991851807E0
5.350097656E0,2.903564453E0,1.361906433E1,2.013412476E0
5.355102539E0,2.992156982E0,1.321922302E1,1.963134766E0
5.360107422E0,3.080734253E0,1.274996948E1,1.936798096E0
5.365112305E0,3.150177002E0,1.223281860E1,1.946365356E0
5.370117188E0,3.138198853E0,1.162709045E1,1.953552246E0
5.375122071E0,3.102279663E0,1.096629333E1,1.838623047E0
5.380126953E0,3.087921143E0,1.031745911E1,1.556106567E0
5.385131836E0,3.154953003E0,9.771575928E0,1.139526367E0
5.390136719E0,3.281845093E0,9.278381348E0,6.846313477E-1
5.395141602E0,3.365646362E0,8.876144409E0,1.866302490E-1
5.400146485E0,3.547607422E0,8.619964600E0,-2.826385498E-1
5.405151367E0,3.734359741E0,8.466735840E0,-6.250000000E-1
5.410156250E0,3.818145752E0,8.435607910E0,-8.644256592E-1
5.415161133E0,3.746322632E0,8.473922729E0,-8.859710693E-1
5.420166016E0,3.552398682E0,8.708557129E0,-6.824645996E-1
5.425170899E0,3.030456543E0,9.575256348E0,-2.922058105E-1
5.430175781E0,2.439086914E0,1.127752686E1,2.752227783E-1
5.435180664E0,2.032073975E0,1.327429199E1,7.301177979E-1
5.440185547E0,1.694488525E0,1.521598816E1,7.732086182E-1
5.445190430E0,1.294662476E0,1.693023682E1,1.890258789E-1
5.450195313E0,9.810180664E-1,1.842901611E1,-9.194946289E-1
5.455200196E0,4.830322266E-1,1.934120178E1,-2.913864136E0
5.460205078E0,1.981201172E-1,2.008340454E1,-5.267364502E0
5.465209961E0,2.579803467E-1,2.110333252E1,-7.326370239E0
5.470214844E0,2.914886475E-1,2.187905884E1,-8.920913696E0
5.475219727E0,-2.214050293E-2,2.201313782E1,-9.672698975E0
5.480224610E0,-7.643432617E-1,2.123022461E1,-9.730148315E0
5.485229492E0,-1.882446289E0,1.979609680E1,-9.612838745E0
5.490234375E0,-3.160949707E0,1.817523193E1,-9.213012695E0
5.495239258E0,-4.456207275E0,1.661900330E1,-8.274475098E0
5.500244141E0,-5.643737793E0,1.525909424E1,-7.055831909E0
5.505249024E0,-6.771408081E0,1.387524414E1,-5.207504272E0
5.510253906E0,-7.784149170E0,1.264222717E1,-2.935409546E0
5.515258789E0,-8.444946289E0,1.171327209E1,-9.721679688E-1
5.520263672E0,-8.792114258E0,1.096629333E1,1.866302490E-1
5.525268555E0,-8.988433838E0,1.017141724E1,5.888519287E-1
5.530273438E0,-9.031524658E0,9.426818848E0,3.853454590E-1
5.535278321E0,-8.895065308E0,8.756439209E0,3.015594482E-1
5.540283203E0,-8.564651489E0,8.311111450E0,-4.262847900E-1
5.545288086E0,-8.203140259E0,7.686233521E0,-1.235519409E0
5.550292969E0,-7.571060181E0,7.327102661E0,-1.582687378E0
5.555297852E0,-6.524795532E0,7.322311401E0,-1.582687378E0
5.560302735E0,-5.207992554E0,7.576095581E0,-1.496490479E0
5.565307617E0,-3.876815796E0,7.954376221E0,-1.448608398E0
5.570312500E0,-2.706039429E0,8.306335449E0,-1.161300659E0
5.575317383E0,-1.638229370E0,8.418853760E0,-7.973937988E-1
5.580322266E0,-6.613922119E-1,8.320693970E0,-6.920471191E-1
5.585327149E0,1.645965576E-1,8.045364380E0,-7.471008301E-1
5.590332031E0,8.206176758E-1,7.698196411E0,-8.740081787E-1
5.595336914E0,1.364089966E0,7.257675171E0,-1.206802368E0
5.600341797E0,1.512542725E0,6.733337402E0,-1.522827148E0
5.605346680E0,1.615493774E0,6.225769043E0,-2.016036987E0
5.610351563E0,1.735198975E0,5.682281494E0,-2.432632446E0
5.615356446E0,1.799835205E0,5.090911865E0,-2.856399536E0
5.620361328E0,1.967437744E0,4.633621216E0,-3.330444336E0
5.625366211E0,2.223617554E0,4.427719116E0,-3.493255615E0
5.630371094E0,2.453460693E0,4.509124756E0,-3.229888916E0
5.635375977E0,2.616256714E0,4.626434326E0,-2.789367676E0
5.640380860E0,2.769485474E0,4.676712036E0,-2.277008057E0
5.645385742E0,3.016098022E0,4.758117676E0,-1.616210938E0
5.650390625E0,3.222000122E0,4.849105835E0,-9.649810791E-1
5.655395508E0,3.315368652E0,4.944869995E0,-4.741668701E-1
5.660400391E0,3.238754272E0,5.047821045E0,-1.246185303E-1
5.665405274E0,2.917938232E0,5.131622314E0,-9.828186035E-2
5.670410156E0,2.290649414E0,5.138793945E0,-3.305206299E-1
5.675415039E0,1.400009155E0,5.081344604E0,-6.297912598E-1
5.680419922E0,4.136047363E-1,5.033447266E0,-9.290618896E-1
5.685424805E0,-5.919647217E-1,4.923324585E0,-1.175674438E0
5.690429688E0,-1.429931641E0,4.801223755E0,-1.407913208E0
5.695434571E0,-2.045242310E0,4.612075806E0,-1.534805298E0
5.700439453E0,-2.507324219E0,4.422927856E0,-1.577896118E0
5.705444336E0,-2.892791748E0,4.116470337E0,-1.510864258E0
5.710449219E0,-3.216018677E0,3.742980957E0,-1.381576538E0
5.715454102E0,-3.488952637E0,3.278503418E0,-1.149337769E0
5.720458985E0,-3.539230347E0,2.792480469E0,-8.692169189E-1
5.725463867E0,-3.484161377E0,2.356735229E0,-5.340270996E-1
5.730468750E0,-3.326141357E0,2.083801270E0,-1.964416504E-1
5.735473633E0,-3.125030518E0,1.961700439E0,1.387481689E-1
5.740478516E0,-2.856887817E0,2.019149780E0,4.428100586E-1
5.745483399E0,-2.629425049E0,2.169982910E0,6.846313477E-1
5.750488281E0,-2.284667969E0,2.409408569E0,8.258819580E-1
5.755493164E0,-2.117080688E0,2.696716309E0,9.934692383E-1
5.760498047E0,-1.966232300E0,3.053451538E0,1.350219727E0
5.765502930E0,-1.676544189E0,3.434127808E0,1.910461426E0
5.770507813E0,-1.379653931E0,3.790863037E0,2.695755005E0
5.775512696E0,-1.159393311E0,4.097320557E0,3.706100464E0
5.780517578E0,-9.750366211E-1,4.427719116E0,4.678146362E0
5.785522461E0,-5.033874512E-1,5.186676025E0,5.733993530E0
5.790527344E0,3.530883789E-2,6.254501343E0,6.876037598E0
5.795532227E0,5.668334961E-1,7.626373291E0,8.250305176E0
5.800537110E0,1.158187866E0,9.311889648E0,9.473739624E0
5.805541992E0,1.902786255E0,1.146907043E1,9.923843384E0
5.810546875E0,2.963424683E0,1.397579956E1,9.717941284E0
5.815551758E0,4.490921021E0,1.654476929E1,9.938217163E0
5.820556641E0,6.449386597E0,1.876660156E1,1.148246765E1
5.825561524E0,8.659225464E0,2.044493103E1,1.401315308E1
5.830566406E0,1.089541626E1,2.157978821E1,1.657733154E1
5.835571289E0,1.257853699E1,2.191258240E1,1.802343750E1
5.840576172E0,1.345242310E1,2.150794983E1,1.764515686E1
5.845581055E0,1.329440308E1,2.032043457E1,1.554544067E1
5.850585938E0,1.193928528E1,1.851759338E1,1.203074646E1
5.855590821E0,1.000477600E1,1.655914307E1,7.974975586E0
5.860595703E0,8.161239624E0,1.472996521E1,4.271133423E0
5.865600586E0,6.837234497E0,1.311866760E1,1.625549316E0
5.870605469E0,6.042373657E0,1.181861877E1,3.135223389E-1
5.875610352E0,5.381561279E0,1.083460999E1,3.015594482E-1
5.880615235E0,4.514862061E0,1.012831116E1,1.113189697E0
5.885620117E0,3.490142822E0,9.781158447E0,2.078048706E0
5.890625000E0,2.443878174E0,9.821853638E0,2.542526245E0
5.895629883E0,1.500564575E0,1.018338013E1,1.965515137E0
5.900634766E0,7.128753662E-1,1.091839600E1,5.864562988E-1
5.905639649E0,-1.514282227E-1,1.188087463E1,-8.763885498E-1
5.910644531E0,-1.149810791E0,1.281939697E1,-2.118988037E0
5.915649414E0,-2.234390259E0,1.353286743E1,-2.877944946E0
5.920654297E0,-3.218399048E0,1.410508728E1,-3.067092896E0
5.925659180E0,-4.065948486E0,1.455998230E1,-2.681625366E0
5.930664063E0,-4.762664795E0,1.492390442E1,-1.841262817E0
5.935668946E0,-5.375579834E0,1.524232483E1,-6.441497803E-1
5.940673828E0,-5.976531982E0,1.543865967E1,4.859008789E-1
5.945678711E0,-6.448181152E0,1.536204529E1,1.003051758E0
5.950653076E0,-6.778579712E0,1.481616211E1,8.761596680E-1
5.955657959E0,-6.833648682E0,1.378904724E1,3.039398193E-1
5.960662842E0,-6.520004272E0,1.242913818E1,-2.969970703E-1
5.965667725E0,-5.823303223E0,1.098544312E1,-5.627593994E-1
5.970672608E0,-4.875198364E0,9.721298218E0,-7.303466797E-1
5.975677490E0,-3.876815796E0,8.600814819E0,-1.132568359E0
5.980682373E0,-2.978988647E0,7.573699951E0,-1.757461548E0
5.985687256E0,-2.217636108E0,6.671081543E0,-2.451782227E0
5.990692139E0,-1.607101440E0,6.017471313E0,-3.064697266E0
5.995697022E0,-1.063629150E0,5.691864014E0,-3.488464355E0
6.000701905E0,-6.063385010E-1,5.610458374E0,-3.785354614E0
6.005706787E0,-2.663574219E-1,5.620040894E0,-4.137298584E0
6.010711670E0,-2.932739258E-2,5.636795044E0,-4.577835083E0
6.015716553E0,1.765747070E-1,5.701431274E0,-5.063858032E0
6.020721436E0,3.776855469E-1,5.792419434E0,-5.535507202E0
6.025726319E0,5.357055664E-1,5.988739014E0,-5.944915771E0
6.030731201E0,6.434478760E-1,6.410125732E0,-6.428543091E0
6.035736084E0,6.602020264E-1,6.987121582E0,-6.916961670E0
6.040740967E0,6.673889160E-1,7.700592041E0,-7.079772949E0
6.045745850E0,6.745605469E-1,8.497863770E0,-7.259338379E0
6.050750733E0,7.176666260E-1,9.261611938E0,-7.441299438E0
6.055755615E0,6.985015869E-1,9.946350098E0,-7.264129639E0
6.060760498E0,6.099243164E-1,1.054011536E1,-6.797256470E0
6.065765381E0,5.093688965E-1,1.097586060E1,-6.433334351E0
6.070770264E0,3.345947266E-1,1.122485352E1,-6.138854980E0
6.075775147E0,-5.950927734E-4,1.137570190E1,-5.849151611E0
6.080780030E0,-5.177459717E-1,1.139485168E1,-5.322433472E0
6.085784912E0,-1.073196411E0,1.131584167E1,-4.675994873E0
6.090789795E0,-1.508941650E0,1.119374084E1,-3.905059814E0
6.095794678E0,-1.868072510E0,1.107402039E1,-2.923431396E0
6.100799561E0,-2.081161499E0,1.094952393E1,-1.798156738E0
6.105804444E0,-2.016510010E0,1.085136414E1,-5.220489502E-1
6.110809326E0,-1.647811890E0,1.085855103E1,5.744934082E-1
6.115814209E0,-1.247970581E0,1.084178162E1,1.108398438E0
6.120819092E0,-9.223632812E-1,1.065983582E1,1.307113647E0
6.125823975E0,-6.278839111E-1,1.034379578E1,1.211349487E0
6.130828858E0,-3.022613525E-1,9.987060547E0,1.129943848E0
6.135833740E0,-5.950927734E-4,9.580047607E0,1.299942017E0
6.140838623E0,2.388153076E-1,9.177810669E0,1.795532227E0
6.145843506E0,3.417663574E-1,8.880935669E0,2.415634155E0
6.150848389E0,3.010711670E-1,8.660675049E0,2.995025635E0
6.155853272E0,1.334838867E-1,8.440399170E0,3.251205444E0
6.160858155E0,-1.226959229E-1,8.191406250E0,3.052490234E0
6.165863037E0,-4.507141113E-1,7.908889771E0,2.358169556E0
6.170867920E0,-7.739257812E-1,7.643127441E0,1.149093628E0
6.175872803E0,-1.087570190E0,7.463562012E0,-3.353118896E-1
6.180877686E0,-1.224029541E0,7.477935791E0,-1.597045898E0
6.185882569E0,-1.097137451E0,7.758056641E0,-2.442199707E0
6.190887451E0,-9.965820312E-1,8.023818970E0,-2.973709106E0
6.195892334E0,-1.027709961E0,8.196197510E0,-3.292144775E0
6.200897217E0,-1.010955811E0,8.452377319E0,-3.328063965E0
6.205902100E0,-8.505401611E-1,8.792358398E0,-2.904281616E0
6.210906983E0,-6.422424316E-1,9.187393188E0,-2.490081787E0
6.215911865E0,-4.243774414E-1,9.589614868E0,-2.300949097E0
6.220916748E0,-2.280426025E-1,9.929595947E0,-2.221939087E0
6.225921631E0,-5.087280273E-2,1.017858887E1,-2.255462646E0
6.230926514E0,1.047515869E-1,1.025280762E1,-2.348831177E0
6.235931397E0,2.986755371E-1,1.022886658E1,-2.308120728E0
6.240936280E0,5.093688965E-1,1.019296265E1,-2.020828247E0
6.245941162E0,7.559661865E-1,1.020971680E1,-1.453399658E0
6.250946045E0,1.124679565E0,1.027914429E1,-7.566833496E-1
6.255950928E0,1.577178955E0,1.021929932E1,-8.151245117E-2
6.260955811E0,2.142211914E0,1.015943909E1,3.566131592E-1
6.265960694E0,2.702453613E0,1.002775574E1,5.002746582E-1
6.270965576E0,3.274673462E0,9.975082397E0,3.135223389E-1
6.275970459E0,3.765487671E0,9.888900757E0,-2.166748047E-2
6.280975342E0,4.043212891E0,9.599197388E0,-3.281250000E-1
6.285980225E0,4.229949951E0,9.347808838E0,-5.531768799E-1
6.290985108E0,4.294601440E0,9.184997559E0,-7.207794189E-1
6.295989990E0,4.167709351E0,8.988677979E0,-8.763885498E-1
6.300994873E0,3.937866211E0,8.914459229E0,-1.096664429E0
6.305999756E0,3.662536621E0,8.900085449E0,-1.206802368E0
6.311004639E0,3.327346802E0,8.892913818E0,-1.211578369E0
6.316009522E0,2.860473633E0,8.732498169E0,-1.125396729E0
6.321014405E0,2.479797363E0,8.660675049E0,-9.242858887E-1
6.326019287E0,2.113479614E0,8.612792969E0,-6.537322998E-1
6.331024170E0,1.670547485E0,8.509841919E0,-3.664245605E-1
6.336029053E0,1.203689575E0,8.430831909E0,-9.828186035E-2
6.341033936E0,7.487792969E-1,8.397308350E0,6.213378906E-2
6.346038819E0,4.040222168E-1,8.464340210E0,5.973815918E-2
6.351043701E0,1.693878174E-1,8.631942749E0,-1.725006104E-1
6.356048584E0,4.728698730E-2,8.859390259E0,-5.914916992E-1
6.361053467E0,-6.764221191E-2,9.156265259E0,-1.161300659E0
6.366058350E0,-1.226959229E-1,9.486663818E0,-1.788589478E0
6.371063233E0,-1.394653320E-1,9.797912598E0,-2.399108887E0
6.376068115E0,-5.805969238E-2,1.009719849E1,-2.880340576E0
6.381072998E0,1.454467773E-1,1.033181763E1,-3.191589355E0
6.386077881E0,4.471130371E-1,1.046589661E1,-3.352005005E0
6.391082764E0,7.751159668E-1,1.048744202E1,-3.323272705E0
6.396087647E0,1.091156006E0,1.042520142E1,-3.105392456E0
6.401092530E0,1.349731445E0,1.028393555E1,-2.724716187E0
6.406097412E0,1.538879395E0,1.014268494E1,-2.245880127E0
6.411102295E0,1.644210815E0,1.006367493E1,-1.676055908E0
6.416107178E0,1.682525635E0,1.015464783E1,-1.075119019E0
6.421112061E0,1.680130005E0,1.040365601E1,-4.454345703E-1
6.426116944E0,1.591552734E0,1.080587769E1,2.488861084E-1
6.431121826E0,1.426345825E0,1.130625916E1,9.551696777E-1
6.436126709E0,1.234802246E0,1.186650085E1,1.524993896E0
6.441131592E0,1.086364746E0,1.238125610E1,1.852996826E0
6.446136475E0,9.882049561E-1,1.271884155E1,1.814682007E0
6.451141358E0,9.499053955E-1,1.290798950E1,1.340637207E0
6.456146240E0,9.810180664E-1,1.305163574E1,6.726531982E-1
6.461151123E0,1.095947266E0,1.325993347E1,-9.109497070E-2
6.466156006E0,1.297058105E0,1.349696350E1,-9.386444092E-1
6.471160889E0,1.555633545E0,1.361187744E1,-1.551559448E0
6.476165772E0,1.871673584E0,1.362385559E1,-1.869995117E0
6.481170655E0,2.245162964E0,1.357118225E1,-1.898712158E0
6.486175537E0,2.652175903E0,1.353047180E1,-1.740707397E0
6.491180420E0,3.035247803E0,1.346583557E1,-1.395935059E0
6.496185303E0,3.384796143E0,1.340597534E1,-8.835754395E-1
6.501190186E0,3.688873291E0,1.335809326E1,-2.969970703E-1
6.506195069E0,3.942657471E0,1.333654785E1,3.207092285E-1
6.511199951E0,4.150939941E0,1.331500244E1,9.001007080E-1
6.516204834E0,4.354461670E0,1.328627014E1,1.429214478E0
6.521209717E0,4.538803101E0,1.318811035E1,1.872146606E0
6.526214600E0,4.701614380E0,1.305882263E1,2.185791016E0
6.531219483E0,4.830902100E0,1.285771179E1,2.413238525E0
6.536224365E0,4.828506470E0,1.254646301E1,2.530548096E0
6.541229248E0,4.665695190E0,1.209873962E1,2.561676025E0
6.546234131E0,4.476562500E0,1.150737000E1,2.511398315E0
6.551239014E0,4.323333740E0,1.087530518E1,2.324645996E0
6.556243897E0,4.268264771E0,1.031506348E1,2.037353516E0
6.561248780E0,4.268264771E0,9.805099487E0,1.735671997E0
6.566253662E0,4.208404541E0,9.345413208E0,1.386123657E0
6.571258545E0,4.203613281E0,8.945587158E0,8.977050781E-1
6.576263428E0,4.347274780E0,8.579269409E0,4.763336182E-1
6.581268311E0,4.356842041E0,8.263229370E0,7.888793945E-2
6.586273194E0,4.229949951E0,8.042968750E0,-2.946014404E-1
6.591278076E0,3.961807251E0,8.028594971E0,-6.010589600E-1
6.596282959E0,3.456634521E0,8.514617920E0,-6.226043701E-1
6.601287842E0,2.680908203E0,9.754821777E0,-1.485595703E-1
6.606292725E0,1.890823364E0,1.160075378E1,7.229309082E-1
6.611297608E0,1.129470825E0,1.356878662E1,1.333450317E0
6.616302490E0,4.662628174E-1,1.546260071E1,9.815063477E-1
6.621307373E0,3.417663574E-1,1.741148376E1,-1.916503906E-1
6.626312256E0,4.279632568E-1,1.913529968E1,-2.150115967E0
6.631317139E0,5.644378662E-1,2.035873413E1,-4.692749023E0
6.636322022E0,8.565216064E-1,2.159175110E1,-7.252151489E0
6.641326905E0,1.112701416E0,2.275534058E1,-9.373413086E0
6.646331787E0,1.067214966E0,2.345443726E1,-1.089373779E1
6.651336670E0,5.404968262E-1,2.334431458E1,-1.192802429E1
6.656341553E0,-5.081634521E-1,2.228846741E1,-1.234941101E1
6.661346436E0,-1.887237549E0,2.050479126E1,-1.169100952E1
6.666351319E0,-3.350082397E0,1.857266235E1,-1.018266296E1
6.671356201E0,-4.915893555E0,1.670278931E1,-8.482772827E0
6.676361084E0,-6.345230103E0,1.501727295E1,-6.715850830E0
6.681365967E0,-7.678802490E0,1.341316223E1,-4.865142822E0
6.686370850E0,-8.839996338E0,1.210353088E1,-3.000045776E0
6.691375733E0,-9.622894287E0,1.121768188E1,-9.051208496E-1
6.696380615E0,-1.005863953E1,1.062870789E1,8.761596680E-1
6.701385498E0,-9.979629517E0,1.007086182E1,2.020584106E0
6.706390381E0,-9.711486816E0,9.343017578E0,2.705337524E0
6.711395264E0,-9.476852417E0,8.574478149E0,3.210510254E0
6.716400147E0,-8.976455688E0,7.868194580E0,3.224868774E0
6.721405030E0,-7.934982300E0,7.413284302E0,2.283950806E0
6.726409912E0,-6.393112183E0,7.585678101E0,9.982604980E-1
6.731414795E0,-4.726760864E0,8.050155640E0,-9.109497070E-2
6.736419678E0,-3.196853638E0,8.469131470E0,-6.058502197E-1
6.741424561E0,-1.973419189E0,8.655883789E0,-6.010589600E-1
6.746429444E0,-9.247589111E-1,8.533782959E0,-5.148773193E-1
6.751434326E0,-9.637451172E-2,8.155487061E0,-3.376922607E-1
6.756439209E0,3.920440674E-1,7.612014771E0,-3.760070801E-1
6.761444092E0,6.985015869E-1,6.999099731E0,-6.872558594E-1
6.766448975E0,9.067993164E-1,6.393356323E0,-1.125396729E0
6.771453858E0,1.088760376E0,5.857055664E0,-1.671264648E0
6.776458740E0,1.385650635E0,5.371032715E0,-2.387130737E0
6.781463623E0,1.617874146E0,4.841918945E0,-3.033569336E0
6.786468506E0,1.730407715E0,4.363082886E0,-3.680007935E0
6.791473389E0,1.804626465E0,3.980010986E0,-4.192367554E0
6.796478272E0,1.840545654E0,3.651992798E0,-4.266586304E0
6.801483155E0,2.022506714E0,3.414978027E0,-4.127716064E0
6.806488037E0,2.355300903E0,3.355117798E0,-3.933792114E0
6.811492920E0,2.601898193E0,3.395812988E0,-3.529174805E0
6.816497803E0,2.781463623E0,3.458068848E0,-2.909072876E0
6.821502686E0,2.994552612E0,3.534683228E0,-2.327285767E0
6.826507569E0,3.245941162E0,3.661575317E0,-1.819717407E0
6.831512451E0,3.420715332E0,3.776504517E0,-1.326507568E0
6.836517334E0,3.444656372E0,3.879455566E0,-8.620300293E-1
6.841522217E0,3.224395752E0,3.946487427E0,-5.196533203E-1
6.846527100E0,2.597106934E0,3.970428467E0,-3.999481201E-1
6.851531983E0,1.637039185E0,3.936904907E0,-4.478302002E-1
6.856536865E0,6.195068359E-1,3.889022827E0,-6.345825195E-1
6.861541748E0,-2.615661621E-1,3.810012817E0,-8.380889893E-1
6.866546631E0,-1.020523071E0,3.774108887E0,-1.005676270E0
6.871551514E0,-1.674148560E0,3.699890137E0,-1.017654419E0
6.876556397E0,-2.222412109E0,3.558624268E0,-9.721679688E-1
6.881561280E0,-2.722808838E0,3.381454468E0,-9.338531494E-1
6.886566162E0,-3.144180298E0,3.130065918E0,-8.572387695E-1
6.891571045E0,-3.443466187E0,2.737411499E0,-6.824645996E-1
6.896575928E0,-3.441070557E0,2.514755249E0,-4.478302002E-1
6.901580811E0,-3.275863647E0,2.416595459E0,-1.892547607E-1
6.906585694E0,-3.158554077E0,2.371109009E0,-1.220703125E-4
6.911590576E0,-3.038833618E0,2.373489380E0,1.435394287E-1
6.916595459E0,-2.883224487E0,2.500381470E0,2.416992188E-1
6.921600342E0,-2.650985718E0,2.873886108E0,3.590087891E-1
6.926605225E0,-2.442687988E0,3.412582397E0,5.553436279E-1
6.931610108E0,-2.327758789E0,3.977615356E0,8.737640381E-1
6.936614990E0,-2.296630859E0,4.473205566E0,1.359786987E0
6.941619873E0,-2.296630859E0,4.889801025E0,2.101989746E0
6.946624756E0,-2.318191528E0,5.282455444E0,3.117126465E0
6.951629639E0,-2.401977539E0,5.804382324E0,4.309448242E0
6.956634522E0,-2.464233398E0,6.522644043E0,5.745971680E0
6.961639405E0,-2.390014648E0,7.537796021E0,7.546401978E0
6.966644287E0,-2.035675049E0,8.998245239E0,9.198410034E0
6.971649170E0,-1.350921631E0,1.102374268E1,9.626968384E0
6.976654053E0,-2.136840820E-1,1.357597351E1,8.592666626E0
6.981658936E0,1.203689575E0,1.642506409E1,7.225585938E0
6.986663819E0,2.896392822E0,1.919276428E1,7.481765747E0
6.991668701E0,5.149322510E0,2.159414673E1,9.746673584E0
6.996673584E0,7.878723145E0,2.338740540E1,1.296449280E1
7.001678467E0,1.028010559E1,2.402426147E1,1.567950439E1
7.006683350E0,1.194886780E1,2.338021851E1,1.697717285E1
7.011688233E0,1.274851990E1,2.163723755E1,1.666831970E1
7.016693115E0,1.296160889E1,1.921191406E1,1.509053040E1
7.021697998E0,1.302146912E1,1.664294434E1,1.269873047E1
7.026726303E0,1.295202637E1,1.423677063E1,9.856811523E0
7.031731186E0,1.291851807E1,1.213226318E1,6.777862549E0
7.036736069E0,1.276289368E1,1.038209534E1,3.801879883E0
7.041740952E0,1.234150696E1,8.991073608E0,1.378936768E0
7.046745834E0,1.117314148E1,8.042968750E0,-2.323608398E-1
7.051750717E0,9.394256592E0,7.628768921E0,-9.841308594E-1
7.056755600E0,7.656051636E0,7.865798950E0,-1.209182739E0
7.061760483E0,6.245880127E0,8.698974609E0,-1.601837158E0
7.066765366E0,5.000885010E0,9.838623047E0,-2.394317627E0
7.071770248E0,3.669708252E0,1.101657104E1,-3.225112915E0
7.076775131E0,2.158966064E0,1.206523132E1,-3.703948975E0
7.081780014E0,5.692138672E-1,1.278109741E1,-3.785354614E0
7.086784897E0,-9.774322510E-1,1.317373657E1,-3.600997925E0
7.091789780E0,-2.172134399E0,1.344189453E1,-3.191589355E0
7.096794662E0,-2.897583008E0,1.391354370E1,-2.468536377E0
7.101799545E0,-3.318969727E0,1.464857483E1,-1.467758179E0
7.106804428E0,-3.819351196E0,1.543626404E1,-3.999481201E-1
7.111809311E0,-4.453811646E0,1.610185242E1,4.811248779E-1
7.116814194E0,-5.231933594E0,1.648731995E1,8.258819580E-1
7.121819077E0,-5.998077393E0,1.650886536E1,5.960388184E-1
7.126823959E0,-6.704360962E0,1.613536072E1,9.565734863E-2
7.131828842E0,-7.252639771E0,1.545780945E1,-3.161468506E-1
7.136833725E0,-7.616561890E0,1.428704834E1,-5.172576904E-1
7.141838608E0,-7.492050171E0,1.262786865E1,-6.944427490E-1
7.146843491E0,-6.764221191E0,1.083700562E1,-1.156509399E0
7.151848373E0,-5.665283203E0,9.120361328E0,-1.944213867E0
7.156853256E0,-4.334106445E0,7.707778931E0,-3.004837036E0
7.161858139E0,-2.962219238E0,6.788406372E0,-3.742248535E0
7.166863022E0,-1.903991699E0,6.204223633E0,-4.048706055E0
7.171867905E0,-1.195312500E0,5.816360474E0,-4.063079834E0
7.176872787E0,-7.356262207E-1,5.586517334E0,-4.022369385E0
7.181877670E0,-4.531097412E-1,5.450042725E0,-4.070266724E0
7.186882553E0,-2.974853516E-1,5.406951904E0,-4.338409424E0
7.191887436E0,-2.472076416E-1,5.473983765E0,-4.752609253E0
7.196892319E0,-2.759246826E-1,5.572143555E0,-5.123703003E0
7.201897202E0,-3.740997314E-1,5.849884033E0,-5.382278442E0
7.206902084E0,-5.153503418E-1,6.345474243E0,-5.554672241E0
7.211906967E0,-6.973114014E-1,7.003875732E0,-5.537902832E0
7.216911850E0,-8.768768311E-1,7.753265381E0,-5.626495361E0
7.221916733E0,-1.087570190E0,8.483505249E0,-5.877883911E0
7.226921616E0,-1.329376221E0,9.158660889E0,-6.126876831E0
7.231926498E0,-1.724426270E0,9.692565918E0,-6.110122681E0
7.236931381E0,-2.097915649E0,1.020252991E1,-5.600158691E0
7.241936264E0,-2.418746948E0,1.073883057E1,-5.190750122E0
7.246941147E0,-2.780273438E0,1.109796143E1,-5.032730103E0
7.251946030E0,-3.125030518E0,1.129190063E1,-4.905838013E0
7.256950912E0,-3.323745728E0,1.129908752E1,-4.513183594E0
7.261955795E0,-3.330932617E0,1.122485352E1,-3.924209595E0
7.266960678E0,-3.046020508E0,1.116979980E1,-2.904281616E0
7.271965561E0,-2.368469238E0,1.122724915E1,-1.937026978E0
7.276970444E0,-1.461059570E0,1.131823730E1,-1.043991089E0
7.281975327E0,-6.877288818E-1,1.129908752E1,-3.927612305E-1
7.286980209E0,-1.322784424E-1,1.110754395E1,-6.954956055E-2
7.291985092E0,2.747344971E-1,1.076516724E1,-1.341857910E-1
7.296989975E0,6.649932861E-1,1.030308533E1,-3.760070801E-1
7.301994858E0,1.048065186E0,9.745239258E0,-5.244445801E-1
7.306999741E0,1.495773315E0,9.199371338E0,-4.741668701E-1
7.312004623E0,2.044052124E0,8.809112549E0,-2.610778809E-1
7.317009506E0,2.611480713E0,8.579269409E0,-3.123474121E-2
7.322014389E0,3.035247803E0,8.454772949E0,1.291656494E-1
7.327019272E0,3.138198853E0,8.373367310E0,2.393035889E-1
7.332024155E0,2.764709473E0,8.308715820E0,2.273254395E-1
7.337029037E0,2.123062134E0,8.296752930E0,1.315612793E-1
7.342033920E0,1.471832275E0,8.294357300E0,7.171630859E-2
7.347038803E0,8.253936768E-1,8.347030640E0,6.452941895E-2
7.352043686E0,3.657073975E-1,8.509841919E0,3.579711914E-2
7.357048569E0,9.996032715E-2,8.672637939E0,7.171630859E-2
7.362053452E0,-7.481384277E-2,8.706161499E0,1.339569092E-1
7.367058334E0,-2.232666016E-1,8.651092529E0,2.273559570E-3
7.372063217E0,-1.179199219E-1,8.773193359E0,-3.616485596E-1
7.377068100E0,1.376342773E-2,8.957550049E0,-7.830200195E-1
7.382072983E0,-6.764221191E-2,9.113174438E0,-1.324111938E0
7.387077866E0,-6.285095215E-2,9.321472168E0,-2.183624268E0
7.392082748E0,-2.693176270E-2,9.517791748E0,-3.244262695E0
7.397087631E0,-5.087280273E-2,9.625534058E0,-3.996032715E0
7.402092514E0,-1.203155518E-1,9.556106567E0,-4.352783203E0
7.407097397E0,-1.250915527E-1,9.362167358E0,-4.242645264E0
7.412102280E0,-3.172302246E-2,9.307098389E0,-3.861968994E0
7.417107162E0,9.996032715E-2,9.232879639E0,-3.378341675E0
7.422112045E0,3.417663574E-1,9.189788818E0,-2.815704346E0
7.427116928E0,7.176666260E-1,9.184997559E0,-2.162078857E0
7.432121811E0,1.198898315E0,9.216125488E0,-1.350448608E0
7.437126694E0,1.799835205E0,9.393295288E0,-4.813537598E-1
7.442131577E0,2.525283813E0,9.654266357E0,2.823944092E-1
7.447136459E0,3.142990112E0,9.838623047E0,9.599609375E-1
7.452141342E0,3.573944092E0,9.920013428E0,1.445983887E0
7.457146225E0,3.921096802E0,9.987060547E0,1.522598267E0
7.462151108E0,4.126998901E0,9.970291138E0,1.275985718E0
7.467155991E0,4.100662231E0,9.742843628E0,8.665771484E-1
7.472160873E0,3.861251831E0,9.429214478E0,4.284515381E-1
7.477165756E0,3.540420532E0,9.137115479E0,1.425170898E-2
7.482170639E0,3.154953003E0,8.902481079E0,-3.089752197E-1
7.487175522E0,2.805404663E0,8.658279419E0,-4.334716797E-1
7.492180405E0,2.467819214E0,8.505050659E0,-4.478302002E-1
7.497185287E0,2.163757324E0,8.500259399E0,-3.305206299E-1
7.502190170E0,1.864486694E0,8.603210449E0,-1.653137207E-1
7.507195053E0,1.502960205E0,8.758834839E0,-1.126403809E-1
7.512199936E0,1.151016235E0,8.991073608E0,-2.586975098E-1
7.517204819E0,8.613128662E-1,9.247253418E0,-6.250000000E-1
7.522209702E0,6.985015869E-1,9.524978638E0,-1.223556519E0
7.527214584E0,6.793518066E-1,9.762008667E0,-2.008850098E0
7.532219467E0,7.631530762E-1,9.927200317E0,-2.815704346E0
7.537224350E0,9.355316162E-1,1.000141907E1,-3.495651245E0
7.542229233E0,1.127075195E0,9.972686768E0,-3.914642334E0
7.547234116E0,1.309036255E0,9.896072388E0,-4.008010864E0
7.552238998E0,1.409591675E0,9.718902588E0,-3.742248535E0
7.557243881E0,1.433532715E0,9.450759888E0,-3.234680176E0
7.562248764E0,1.450286865E0,9.244857788E0,-2.614578247E0
7.567253647E0,1.548446655E0,9.165847778E0,-1.939422607E0
7.572258530E0,1.732803345E0,9.273590088E0,-1.240310669E0
7.577263412E0,2.005737305E0,9.603988647E0,-4.526214600E-1
7.582268295E0,2.300231934E0,1.011634827E1,3.901367188E-1
7.587273178E0,2.498947144E0,1.076277161E1,1.268814087E0
7.592278061E0,2.616256714E0,1.144992065E1,2.034957886E0
7.597282944E0,2.580352783E0,1.204846191E1,2.487457275E0
7.602287827E0,2.518096924E0,1.255363464E1,2.427597046E0
7.607292709E0,2.496551514E0,1.299656677E1,1.769195557E0
7.612297592E0,2.470214844E0,1.332936096E1,8.330688477E-1
7.617302475E0,2.405578613E0,1.352090454E1,-1.916503906E-1
7.622307358E0,2.283462524E0,1.353047180E1,-1.180465698E0
7.627312241E0,2.154190063E0,1.341555786E1,-2.107009888E0
7.632317123E0,2.008132935E0,1.326712036E1,-2.763031006E0
7.637322006E0,1.888427734E0,1.311627197E1,-2.983291626E0
7.642326889E0,1.807022095E0,1.303488159E1,-2.736694336E0
7.647331772E0,1.816604614E0,1.308276367E1,-2.145324707E0
7.652336655E0,1.876449585E0,1.321205139E1,-1.288192749E0
7.657341537E0,1.929122925E0,1.334613037E1,-3.592529297E-1
7.662346420E0,1.993774414E0,1.347779846E1,5.290069580E-1
7.667351303E0,2.084747314E0,1.358554077E1,1.292755127E0
7.672356186E0,2.233184814E0,1.366694641E1,1.884124756E0
7.677361069E0,2.460647583E0,1.374595642E1,2.283950806E0
7.682365952E0,2.740768433E0,1.374595642E1,2.446762085E0
7.687370834E0,3.080734253E0,1.366934204E1,2.372543335E0
7.692375717E0,3.473388672E0,1.351611328E1,2.154663086E0
7.697380600E0,3.875610352E0,1.330781555E1,1.881729126E0
7.702385483E0,4.210800171E0,1.294628906E1,1.580062866E0
7.707390366E0,4.407119751E0,1.242674255E1,1.196990967E0
7.712395248E0,4.488525391E0,1.181622314E1,6.989898682E-1
7.717400131E0,4.498107910E0,1.116500854E1,2.201538086E-1
7.722405014E0,4.519653320E0,1.057843018E1,-1.485595703E-1
7.727409897E0,4.589080811E0,1.000141907E1,-3.831939697E-1
7.732414780E0,4.648941040E0,9.563278198E0,-6.010589600E-1
7.737419662E0,4.720764160E0,9.419631958E0,-9.362487793E-1
7.742424545E0,4.744705200E0,9.326263428E0,-1.079895020E0
7.747429428E0,4.567535400E0,9.271194458E0,-9.434356689E-1
7.752434311E0,4.112640381E0,9.484268188E0,-6.178283691E-1
7.757439194E0,3.346496582E0,1.050898743E1,-3.842163086E-2
7.762444077E0,2.554016113E0,1.227113342E1,7.492675781E-1
7.767448959E0,1.909973145E0,1.416493225E1,1.613571167E0
7.772453842E0,1.258758545E0,1.582173157E1,2.135513306E0
7.777458725E0,6.697845459E-1,1.712178040E1,1.819473267E0
7.782463608E0,4.638824463E-1,1.826620483E1,6.702575684E-1
7.787468491E0,5.500640869E-1,1.938191223E1,-1.489303589E0
7.792473373E0,7.296295166E-1,2.018875122E1,-4.249832153E0
7.797478256E0,1.026519775E0,2.108178711E1,-7.051040649E0
7.802483139E0,1.177352905E0,2.189341736E1,-9.584106445E0
7.807488022E0,8.134307861E-1,2.201792908E1,-1.128399658E1
7.812492905E0,-3.172302246E-2,2.146246338E1,-1.221533203E1
7.817497787E0,-1.180938721E0,2.030845642E1,-1.246911621E1
7.822502670E0,-2.593521118E0,1.874504089E1,-1.177239990E1
7.827507553E0,-4.080322266E0,1.728219604E1,-1.045559692E1
7.832512436E0,-5.746688843E0,1.578581238E1,-9.148361206E0
7.837517319E0,-7.417831421E0,1.426550293E1,-7.110900879E0
7.842522202E0,-9.014770508E0,1.290080261E1,-4.723876953E0
7.847527084E0,-1.023580933E1,1.172764587E1,-2.073501587E0
7.852531967E0,-1.094210815E1,1.084417725E1,-2.155914307E-1
7.857536850E0,-1.120785522E1,1.008042908E1,7.229309082E-1
7.862541733E0,-1.124137878E1,9.182601929E0,1.323883057E0
7.867546616E0,-1.104983521E1,8.339843750E0,9.767150879E-1
7.872551498E0,-1.047523499E1,7.710174561E0,-1.940460205E-1
7.877556381E0,-9.450515747E0,7.324707031E0,-1.441421509E0
7.882561264E0,-8.004409790E0,7.236114502E0,-2.145324707E0
7.887566147E0,-6.567901611E0,7.391738892E0,-2.178848267E0
7.892571030E0,-5.198410034E0,7.612014771E0,-1.817321777E0
7.897575912E0,-3.967788696E0,7.717361450E0,-1.082290649E0
7.902580795E0,-2.928710938E0,7.635955811E0,-2.850341797E-1
7.907585678E0,-2.085952759E0,7.367797852E0,2.440948486E-1
7.912590561E0,-1.516128540E0,7.046981812E0,4.619598389E-1
7.917595444E0,-1.054046631E0,6.613632202E0,3.661956787E-1
7.922600327E0,-5.967559814E-1,6.204223633E0,-4.800415039E-2
7.927605209E0,-7.720947266E-2,5.749313354E0,-7.830200195E-1
7.932610092E0,3.752899170E-1,5.215408325E0,-1.518035889E0
7.937614975E0,7.008972168E-1,4.626434326E0,-2.130950928E0
7.942619858E0,1.002578735E0,4.073379517E0,-2.695983887E0
7.947624741E0,1.340148926E0,3.592147827E0,-3.107788086E0
7.952629623E0,1.775894165E0,3.276107788E0,-3.352005005E0
7.957634506E0,2.261917114E0,3.146820068E0,-3.296936035E0
7.962639389E0,2.723999023E0,3.139633179E0,-3.074279785E0
7.967644272E0,3.092712402E0,3.158798218E0,-2.964141846E0
7.972618637E0,3.353683472E0,3.386245728E0,-2.837249756E0
7.977623520E0,3.595489502E0,3.666366577E0,-2.197998047E0
7.982628403E0,3.830123901E0,4.035064697E0,-1.632965088E0
7.987633286E0,3.985748291E0,4.413360596E0,-1.350448608E0
7.992638168E0,4.055175781E0,4.758117676E0,-1.216369629E0
7.997643051E0,3.952224731E0,4.966415405E0,-1.130172729E0
8.002647934E0,3.573944092E0,5.043029785E0,-1.180465698E0
8.007652817E0,2.795822144E0,4.983169556E0,-1.297775269E0
8.012657700E0,1.591552734E0,4.813186646E0,-1.400726318E0
8.017662582E0,3.130340576E-1,4.643203735E0,-1.486923218E0
8.022667465E0,-8.625183105E-1,4.463638306E0,-1.539581299E0
8.027672348E0,-1.949478149E0,4.159576416E0,-1.453399658E0
8.032677231E0,-2.935897827E0,3.821990967E0,-1.364807129E0
8.037682114E0,-3.747528076E0,3.419769287E0,-1.285797119E0
8.042686996E0,-4.343673706E0,2.974441528E0,-1.096664429E0
8.047691879E0,-4.729141235E0,2.409408569E0,-7.327423096E-1
8.052696762E0,-4.793792725E0,1.887466431E0,-3.640289307E-1
8.057701645E0,-4.619018555E0,1.490036011E0,-8.390808105E-2
8.062706528E0,-4.446624756E0,1.217102051E0,8.367919922E-2
8.067711411E0,-4.271850586E0,1.138092041E0,2.369079590E-1
8.072716293E0,-3.984558105E0,1.305679321E0,4.260559082E-1
8.077721176E0,-3.654144287E0,1.729461670E0,7.013854980E-1
8.082726059E0,-3.323745728E0,2.222656250E0,1.137130737E0
8.087730942E0,-3.060394287E0,2.691925049E0,1.740463257E0
8.092735825E0,-2.789840698E0,3.142028809E0,2.485061646E0
8.097740707E0,-2.437896729E0,3.613693237E0,3.452316284E0
8.102745590E0,-1.983001709E0,4.200271606E0,4.589569092E0
8.107750473E0,-1.485000610E0,4.985565186E0,5.832153320E0
8.112755356E0,-1.010955811E0,5.928878784E0,7.225585938E0
8.117760239E0,-6.350555420E-1,6.996704102E0,8.810546875E0
8.122765121E0,-2.376251221E-1,8.299148560E0,1.045297241E1
8.127770004E0,5.189361572E-1,1.018338013E1,1.141304016E1
8.132774887E0,1.725616455E0,1.280981445E1,1.103236389E1
8.137779770E0,3.008911133E0,1.590551758E1,9.904693604E0
8.142784653E0,4.206008911E0,1.921910095E1,1.005073547E1
8.147789536E0,5.781402588E0,2.240817261E1,1.234918213E1
8.152794418E0,7.830841064E0,2.506333923E1,1.542572021E1
8.157799301E0,9.928161621E0,2.648550415E1,1.711363220E1
8.162804184E0,1.173338318E1,2.620538330E1,1.644564819E1
8.167809067E0,1.276528931E1,2.423735046E1,1.405624390E1
8.172813950E0,1.310525513E1,2.116558838E1,1.107067871E1
8.177818832E0,1.301188660E1,1.779216003E1,8.185653687E0
8.182823715E0,1.278204346E1,1.467251587E1,5.710052490E0
8.187828598E0,1.229122925E1,1.203410339E1,3.761169434E0
8.192833481E0,1.139579773E1,1.005169678E1,2.418029785E0
8.197838364E0,1.010533142E1,8.797134399E0,1.723709106E0
8.202843246E0,8.649658203E0,8.301544189E0,1.457946777E0
8.207848129E0,7.162857056E0,8.457168579E0,1.278381348E0
8.212853012E0,5.666473389E0,9.043746948E0,9.910888672E-1
8.217857895E0,4.177276611E0,9.852981567E0,4.691467285E-1
8.222862778E0,2.822158813E0,1.074841309E1,-1.208496094E-2
8.227867661E0,1.543655396E0,1.155526733E1,-6.106414795E-1
8.232872543E0,3.585357666E-1,1.229507446E1,-1.278625488E0
8.237877426E0,-6.853332520E-1,1.298699951E1,-1.747879028E0
8.242882309E0,-1.549652100E0,1.365258789E1,-1.728729248E0
8.247887192E0,-2.253540039E0,1.431338501E1,-1.202011108E0
8.252892075E0,-2.732376099E0,1.490953064E1,-5.747222900E-1
8.257896957E0,-3.156158447E0,1.546739197E1,2.142333984E-2
8.262901840E0,-3.658935547E0,1.597496033E1,6.367340088E-1
8.267906723E0,-4.310165405E0,1.627183533E1,1.101211548E0
8.272911606E0,-5.023635864E0,1.612818909E1,1.275985718E0
8.277916489E0,-5.595855713E0,1.555357361E1,8.546142578E-1
8.282921371E0,-5.638946533E0,1.457673645E1,-1.581268311E-1
8.287926254E0,-5.102645874E0,1.321205139E1,-1.283416748E0
8.292931137E0,-4.192840576E0,1.160314941E1,-2.092651367E0
8.297936020E0,-3.220794678E0,1.001818848E1,-2.360794067E0
8.302940903E0,-2.337341309E0,8.572082520E0,-2.162078857E0
8.307945786E0,-1.690902710E0,7.310333252E0,-1.805343628E0
8.312950668E0,-1.286285400E0,6.261672974E0,-1.630569458E0
8.317955551E0,-1.077987671E0,5.454833984E0,-1.652114868E0
8.322960434E0,-1.008560181E0,4.935287476E0,-1.853225708E0
8.327965317E0,-9.463043213E-1,4.729385376E0,-2.157287598E0
8.332970200E0,-8.385620117E-1,4.786849976E0,-2.492477417E0
8.337975082E0,-6.973114014E-1,5.055007935E0,-2.925827026E0
8.342979965E0,-6.206970215E-1,5.359069824E0,-3.651275635E0
8.347984848E0,-6.230926514E-1,5.641586304E0,-4.561065674E0
8.352989731E0,-7.451934814E-1,5.878601074E0,-5.437347412E0
8.357994614E0,-8.888549805E-1,6.139572144E0,-6.217864990E0
8.362999496E0,-1.008560181E0,6.474761963E0,-6.845138550E0
8.368004379E0,-1.188125610E0,6.886566162E0,-7.223419189E0
8.373009262E0,-1.367691040E0,7.439620972E0,-7.177932739E0
8.378014145E0,-1.590347290E0,8.131546021E0,-6.814010620E0
8.383019028E0,-1.813003540E0,8.900085449E0,-6.368698120E0
8.388023911E0,-1.968627930E0,9.678207397E0,-5.777328491E0
8.393028793E0,-2.011734009E0,1.034858704E1,-5.415802002E0
8.398033676E0,-2.006942749E0,1.083700562E1,-5.375106812E0
8.403038559E0,-2.078765869E0,1.107402039E1,-5.478057861E0
8.408043442E0,-2.236785889E0,1.118415833E1,-5.547485352E0
8.413048325E0,-2.346923828E0,1.133020020E1,-5.442138672E0
8.418053207E0,-2.442687988E0,1.147625732E1,-5.118927002E0
8.423058090E0,-2.473815918E0,1.160075378E1,-4.508392334E0
8.428062973E0,-2.313400269E0,1.165103149E1,-3.553115845E0
8.433067856E0,-1.827377319E0,1.163665771E1,-2.432632446E0
8.438072739E0,-1.238403320E0,1.151934814E1,-1.367202759E0
8.443077621E0,-7.116699219E-1,1.131105042E1,-5.675354004E-1
8.448082504E0,-2.783203125E-1,1.102853394E1,3.340148926E-2
8.453087387E0,1.119232178E-1,1.070532227E1,5.266113281E-1
8.458092270E0,5.213317871E-1,1.039167786E1,9.599609375E-1
8.463097153E0,1.014541626E0,1.008282471E1,1.443588257E0
8.468102036E0,1.553237915E0,9.754821777E0,2.011016846E0
8.473106918E0,2.051239014E0,9.496246338E0,2.580825806E0
8.478111801E0,2.388809204E0,9.292739868E0,3.045303345E0
8.483116684E0,2.472610474E0,9.024581909E0,3.279937744E0
8.488121567E0,2.295440674E0,8.710952759E0,3.224868774E0
8.493126450E0,1.876449585E0,8.375762939E0,2.676605225E0
8.498131332E0,1.335372925E0,8.059722900E0,1.524993896E0
8.503136215E0,6.961212158E-1,7.810729980E0,-1.126403809E-1
8.508141098E0,9.996032715E-2,7.671859741E0,-1.556350708E0
8.513145981E0,-2.735443115E-1,7.729324341E0,-2.590637207E0
8.518150864E0,-4.626770020E-1,7.899307251E0,-3.100601196E0
8.523155746E0,-4.507141113E-1,8.098037720E0,-3.126937866E0
8.528160629E0,-2.663574219E-1,8.366180420E0,-2.885131836E0
8.533165512E0,-6.285095215E-2,8.756439209E0,-2.542755127E0
8.538170395E0,4.010009766E-2,9.117965698E0,-1.925048828E0
8.543175278E0,1.855468750E-2,9.364562988E0,-1.269042969E0
8.548180161E0,-6.764221191E-2,9.496246338E0,-1.206802368E0
8.553185043E0,-1.562194824E-1,9.520187378E0,-1.652114868E0
8.558189926E0,-2.064971924E-1,9.520187378E0,-2.339248657E0
8.563194809E0,-2.807159424E-1,9.412445068E0,-2.741485596E0
8.568199692E0,-2.184753418E-1,9.268798828E0,-2.770202637E0
8.573204575E0,-1.496887207E-2,9.192184448E0,-2.686416626E0
8.578209457E0,3.106536865E-1,9.151473999E0,-2.470932007E0
8.583214340E0,6.506195068E-1,9.189788818E0,-2.171661377E0
8.588219223E0,8.996276855E-1,9.206542969E0,-1.764648438E0
8.593224106E0,1.038482666E0,9.000640869E0,-1.254684448E0
8.598228989E0,1.069610596E0,8.653488159E0,-8.141479492E-1
8.603233871E0,1.289871216E0,8.718124390E0,-5.412139893E-1
8.608238754E0,1.634643555E0,8.955154419E0,-2.491149902E-1
8.613243637E0,1.957855225E0,9.019805908E0,1.890258789E-1
8.618248520E0,2.175735474E0,9.034164429E0,3.326721191E-1
8.623253403E0,2.319381714E0,9.184997559E0,1.578979492E-1
8.628258286E0,2.362472534E0,9.433990479E0,-5.039978027E-2
8.633263168E0,2.271499634E0,9.580047607E0,-2.586975098E-1
8.638268051E0,2.056015015E0,9.565673828E0,-3.736114502E-1
8.643272934E0,1.795059204E0,9.505828857E0,-3.400878906E-1
8.648277817E0,1.577178955E0,9.436386108E0,-2.131958008E-1
8.653282700E0,1.411987305E0,9.333435059E0,-2.406311035E-2
8.658287582E0,1.263534546E0,9.230484009E0,1.962127686E-1
8.663292465E0,1.148620605E0,9.141906738E0,3.925323486E-1
8.668297348E0,1.060028076E0,9.139511108E0,5.194244385E-1
8.673302231E0,1.021728516E0,9.225708008E0,4.930877686E-1
8.678307114E0,1.045669556E0,9.378936768E0,2.393035889E-1
8.683311996E0,1.167770386E0,9.608779907E0,-3.065795898E-1
8.688316879E0,1.359313965E0,9.900863647E0,-1.101455688E0
8.693321762E0,1.632247925E0,1.020732117E1,-1.975326538E0
8.698326645E0,1.917160034E0,1.043716431E1,-2.758239746E0
8.703331528E0,2.187698364E0,1.061672974E1,-3.397491455E0
8.708336411E0,2.391204834E0,1.070292664E1,-3.739852905E0
8.713341293E0,2.463027954E0,1.066221619E1,-3.687194824E0
8.718346176E0,2.451065063E0,1.055926514E1,-3.390304565E0
8.723351059E0,2.360076904E0,1.038449097E1,-2.801330566E0
8.728355942E0,2.307418823E0,1.028633118E1,-2.016036987E0
8.733360825E0,2.372055054E0,1.040603638E1,-1.096664429E0
8.738365707E0,2.496551514E0,1.082263184E1,-1.796875000E-1
8.743370590E0,2.565979004E0,1.141639709E1,7.157440186E-1
8.748375473E0,2.467819214E0,1.204367065E1,1.565689087E0
8.753380356E0,2.278686523E0,1.262068176E1,2.224090576E0
8.758385239E0,2.065597534E0,1.311866760E1,2.626327515E0
8.763390121E0,1.893218994E0,1.352807617E1,2.793914795E0
8.768395004E0,1.881240845E0,1.391593933E1,2.580825806E0
8.773399887E0,2.036865234E0,1.422718811E1,2.039749146E0
8.778404770E0,2.218826294E0,1.441873169E1,1.182617188E0
8.783409653E0,2.340927124E0,1.450730896E1,1.555023193E-1
8.788414536E0,2.398391724E0,1.441154480E1,-7.686614990E-1
8.793419418E0,2.470214844E0,1.418888855E1,-1.391143799E0
8.798424301E0,2.630630493E0,1.388960266E1,-1.652114868E0
8.803429184E0,2.843719482E0,1.366215515E1,-1.731124878E0
8.808434067E0,3.095108032E0,1.354963684E1,-1.642532349E0
8.813438950E0,3.370437622E0,1.350653076E1,-1.357635498E0
8.818443832E0,3.609863281E0,1.354244995E1,-9.577941895E-1
8.823448715E0,3.885192871E0,1.361187744E1,-4.933166504E-1
8.828453598E0,4.189254761E0,1.370764160E1,-2.406311035E-2
8.833458481E0,4.481353760E0,1.373158264E1,4.571685791E-1
8.838463364E0,4.639358521E0,1.359751892E1,9.503784180E-1
8.843468246E0,4.625000000E0,1.329345703E1,1.402877808E0
8.848473129E0,4.438247681E0,1.280024719E1,1.797927856E0
8.853478012E0,4.244323730E0,1.214901733E1,2.054107666E0
8.858482895E0,4.148559570E0,1.146188354E1,2.171417236E0
8.863487778E0,4.198837280E0,1.075080872E1,2.154663086E0
8.868492661E0,4.325729370E0,1.009240723E1,2.061294556E0
8.873497543E0,4.435852051E0,9.472305298E0,1.896087646E0
8.878502426E0,4.490921021E0,8.885726929E0,1.651885986E0
8.883507309E0,4.486129761E0,8.375762939E0,1.390914917E0
8.888512192E0,4.299392700E0,8.021423340E0,1.024597168E0
8.893517075E0,4.062362671E0,7.856216431E0,5.936431885E-1
8.898521957E0,3.794204712E0,7.851425171E0,4.092864990E-1
8.903526840E0,3.181289673E0,8.193801880E0,4.571685791E-1
8.908531723E0,2.271499634E0,9.098815918E0,7.612457275E-1
8.913536606E0,1.241989136E0,1.048504639E1,1.232894897E0
8.918541489E0,1.358642578E-1,1.205085754E1,1.173034668E0
8.923546371E0,-5.392913818E-1,1.388243103E1,7.109680176E-1
8.928551254E0,-7.044982910E-1,1.583848572E1,-4.406433105E-1
8.933556137E0,-5.225372314E-1,1.763653564E1,-2.444595337E0
8.938561020E0,-1.298828125E-1,1.915206909E1,-4.908233643E0
8.943565903E0,4.854278564E-1,2.093334961E1,-7.381439209E0
8.948570786E0,1.105529785E0,2.253266907E1,-9.828308105E0
8.953575668E0,1.294662476E0,2.339219666E1,-1.143722534E1
8.958580551E0,7.440032959E-1,2.297320557E1,-1.208604431E1
8.963585434E0,-3.788757324E-1,2.138345337E1,-1.211477661E1
8.968590317E0,-1.654998779E0,1.943458557E1,-1.147073364E1
8.973595200E0,-3.060394287E0,1.751921082E1,-1.035983276E1
8.978600082E0,-4.477752686E0,1.571638489E1,-9.014282227E0
8.983604965E0,-5.840057373E0,1.406677246E1,-7.453262329E0
8.988609848E0,-7.166442871E0,1.250575256E1,-5.358337402E0
8.993614731E0,-8.454528809E0,1.110754395E1,-3.102996826E0
8.998619614E0,-9.546279907E0,9.912841797E0,-6.465454102E-1
9.003624496E0,-1.000836182E1,9.326263428E0,1.460342407E0
9.008629379E0,-9.886260986E0,9.098815918E0,2.650268555E0
9.013634262E0,-9.462478638E0,8.880935669E0,3.263183594E0
9.018639145E0,-8.490432739E0,8.696578979E0,2.999816895E0
9.023644028E0,-6.895904541E0,8.543350220E0,2.054107666E0
9.028648911E0,-5.260665894E0,8.457168579E0,9.982604980E-1
9.033653793E0,-3.735549927E0,8.483505249E0,2.273559570E-3
9.038658676E0,-2.361282349E0,8.639129639E0,-5.172576904E-1
9.043663559E0,-1.192916870E0,8.763626099E0,-6.633148193E-1
9.048668442E0,-3.309936523E-1,8.612792969E0,-5.459899902E-1
9.053673325E0,2.914886475E-1,8.335052490E0,-4.095306396E-1
9.058678207E0,5.979461670E-1,7.940017700E0,-4.214935303E-1
9.063683090E0,9.834136963E-1,7.659896851E0,-3.257293701E-1
9.068687973E0,1.469436646E0,7.415679932E0,-3.448791504E-1
9.073692856E0,1.763931274E0,7.097259521E0,-7.088012695E-1
9.078697739E0,1.833358765E0,6.584899902E0,-1.439025879E0
9.083702621E0,1.874053955E0,5.907333374E0,-2.329681396E0
9.088707504E0,2.012924194E0,5.256118774E0,-3.198776245E0
9.093712387E0,2.293045044E0,4.676712036E0,-4.003219604E0
9.098717270E0,2.539642334E0,4.205062866E0,-4.302490234E0
9.103722153E0,2.664154053E0,3.862686157E0,-4.132507324E0
9.108727036E0,2.812591553E0,3.666366577E0,-3.739852905E0
9.113731918E0,2.968215942E0,3.568206787E0,-3.160461426E0
9.118736801E0,3.087921143E0,3.582565308E0,-2.523605347E0
9.123741684E0,3.162139893E0,3.654388428E0,-1.944213867E0
9.128746567E0,3.226791382E0,3.752563477E0,-1.465362549E0
9.133751450E0,3.198059082E0,3.841140747E0,-1.185241699E0
9.138756332E0,3.154953003E0,3.879455566E0,-1.211578369E0
9.143761215E0,2.953842163E0,3.860290527E0,-1.376785278E0
9.148766098E0,2.470214844E0,3.836349487E0,-1.601837158E0
9.153770981E0,1.653793335E0,3.776504517E0,-1.745483398E0
9.158775864E0,7.080841064E-1,3.709457397E0,-1.783798218E0
9.163780746E0,-2.567749023E-1,3.661575317E0,-1.719146729E0
9.168785629E0,-1.106719971E0,3.618484497E0,-1.553955078E0
9.173790512E0,-1.923141479E0,3.513137817E0,-1.316925049E0
9.178795395E0,-2.569580078E0,3.436523438E0,-1.067932129E0
9.183800278E0,-3.046020508E0,3.359909058E0,-9.242858887E-1
9.188805161E0,-3.321350098E0,3.261749268E0,-8.524475098E-1
9.193810043E0,-3.407546997E0,3.065414429E0,-7.064056396E-1
9.198814926E0,-3.409942627E0,2.821212769E0,-5.603637695E-1
9.203819809E0,-3.275863647E0,2.581787109E0,-3.903656006E-1
9.208824692E0,-3.081939697E0,2.399826050E0,-2.179870605E-1
9.213829575E0,-2.940673828E0,2.344772339E0,-9.588623047E-2
9.218834457E0,-2.792236328E0,2.462081909E0,3.579711914E-2
9.223839340E0,-2.634216309E0,2.763748169E0,1.986083984E-1
9.228844223E0,-2.418746948E0,3.204284668E0,4.428100586E-1
9.233849106E0,-2.196075439E0,3.719039917E0,8.043365479E-1
9.238853989E0,-2.028488159E0,4.243362427E0,1.287963867E0
9.243858871E0,-1.858505249E0,4.729385376E0,1.903274536E0
9.248863754E0,-1.690902710E0,5.292022705E0,2.554489136E0
9.253868637E0,-1.465850830E0,5.921707153E0,3.332611084E0
9.258873520E0,-1.255157471E0,6.525039673E0,4.307052612E0
9.263878403E0,-9.989776611E-1,7.200210571E0,5.518524170E0
9.268883286E0,-6.637878418E-1,8.102813721E0,6.835327148E0
9.273888168E0,-1.993103027E-1,9.338226318E0,8.027648926E0
9.278893051E0,4.303588867E-1,1.099740601E1,8.257492065E0
9.283897934E0,1.184524536E0,1.312106323E1,7.338104248E0
9.288902817E0,2.118270874E0,1.551048279E1,6.545623779E0
9.293907700E0,3.336914062E0,1.789750671E1,7.438674927E0
9.298912582E0,5.156509399E0,2.010974121E1,1.038592529E1
9.303917465E0,7.471710205E0,2.182638550E1,1.426933289E1
9.308922348E0,9.645645142E0,2.262365723E1,1.755177307E1
9.313927231E0,1.113244629E1,2.231959534E1,1.900267029E1
9.318932114E0,1.198956299E1,2.120628357E1,1.812878418E1
9.323936996E0,1.208772278E1,1.964526367E1,1.576330566E1
9.328941879E0,1.159451294E1,1.793101501E1,1.276336670E1
9.333946762E0,1.072541809E1,1.626226807E1,9.909484863E0
9.338951645E0,9.669586182E0,1.474194336E1,7.644561768E0
9.343956528E0,8.508392334E0,1.342274475E1,5.841735840E0
9.348961411E0,7.179611206E0,1.229267883E1,4.443527222E0
9.353966293E0,5.877166748E0,1.141400146E1,3.433166504E0
9.358971176E0,4.749496460E0,1.085615540E1,2.592803955E0
9.363976059E0,3.846878052E0,1.068615723E1,1.862579346E0
9.368980942E0,3.147781372E0,1.089205933E1,1.129943848E0
9.373985825E0,2.422332764E0,1.132542419E1,4.476013184E-1
9.378990707E0,1.591552734E0,1.184255981E1,3.100585938E-2
9.383995590E0,7.990570068E-1,1.237886047E1,5.494689941E-2
9.389000473E0,2.795257568E-1,1.310430908E1,3.829498291E-1
9.394005356E0,1.502380371E-1,1.415057373E1,7.540588379E-1
9.399010239E0,3.130340576E-1,1.550329590E1,1.103607178E0
9.404015121E0,8.110351562E-1,1.697813416E1,1.465133667E0
9.409020004E0,1.538879395E0,1.824226379E1,1.635116577E0
9.414024887E0,2.257125854E0,1.913529968E1,1.153884888E0
9.419029770E0,2.676116943E0,1.959259033E1,-3.161468506E-1
9.424034653E0,2.465423584E0,1.941781616E1,-2.485305786E0
9.429039536E0,1.672943115E0,1.857026672E1,-4.805282593E0
9.434044418E0,7.032928467E-1,1.715290833E1,-6.476440430E0
9.439049301E0,-1.226959229E-1,1.512980652E1,-7.264129639E0
9.444054184E0,-7.739257812E-1,1.253208923E1,-7.168350220E0
9.449059067E0,-1.338958740E0,9.721298218E0,-6.488403320E0
9.454063950E0,-1.817794800E0,7.195419312E0,-5.511566162E0
9.459068832E0,-2.334945679E0,5.191467285E0,-4.400665283E0
9.464073715E0,-2.837722778E0,3.733398438E0,-3.263412476E0
9.469078598E0,-3.297409058E0,2.701507568E0,-2.073501587E0
9.474083481E0,-3.649368286E0,2.050277710E0,-6.681060791E-1
9.479088364E0,-3.840896606E0,1.722274780E0,6.606750488E-1
9.484093246E0,-3.915115356E0,1.573837280E0,1.690185547E0
9.489098129E0,-3.800201416E0,1.660018921E0,2.219314575E0
9.494103012E0,-3.503311157E0,2.021545410E0,2.219314575E0
9.499107895E0,-3.151367188E0,2.598556519E0,1.716522217E0
9.504112778E0,-2.935897827E0,3.280899048E0,6.918029785E-1
9.509117661E0,-2.943069458E0,3.889022827E0,-7.590789795E-1
9.514122543E0,-3.012512207E0,4.542648315E0,-2.585861206E0
9.519127426E0,-3.074752808E0,5.344696045E0,-4.625717163E0
9.524132309E0,-3.137008667E0,6.299987793E0,-6.608108521E0
9.529137192E0,-3.172912598E0,7.372589111E0,-8.123641968E0
9.534142075E0,-3.206436157E0,8.512222290E0,-8.952041626E0
9.539146957E0,-3.249526978E0,9.601593018E0,-9.069351196E0
9.544151840E0,-3.247131348E0,1.056884766E1,-8.710220337E0
9.549156723E0,-3.204040527E0,1.131105042E1,-8.255325317E0
9.554161606E0,-3.079544067E0,1.187368774E1,-7.821975708E0
9.559166489E0,-2.758712769E0,1.238125610E1,-7.142013550E0
9.564171371E0,-2.380432129E0,1.278587341E1,-6.533889771E0
9.569176254E0,-2.047637939E0,1.295826721E1,-6.098144531E0
9.574181137E0,-1.906387329E0,1.284812927E1,-5.432556152E0
9.579186020E0,-1.892013550E0,1.263264465E1,-4.929779053E0
9.584190903E0,-1.870468140E0,1.219929504E1,-4.709518433E0
9.589195786E0,-1.882446289E0,1.169651794E1,-4.391082764E0
9.594200668E0,-1.789062500E0,1.130625916E1,-3.672821045E0
9.599205551E0,-1.465850830E0,1.106924438E1,-2.667251587E0
9.604210434E0,-9.510955811E-1,1.101657104E1,-1.525222778E0
9.609215317E0,-4.554901123E-1,1.096150208E1,-5.412139893E-1
9.614220200E0,1.615905762E-2,1.085375977E1,2.057800293E-1
9.619225082E0,5.476684570E-1,1.073165894E1,8.546142578E-1
9.624229965E0,1.208465576E0,1.054251099E1,1.644699097E0
9.629234848E0,1.953063965E0,1.019056702E1,2.631103516E0
9.634239731E0,2.683303833E0,9.769180298E0,3.619918823E0
9.639244614E0,3.372833252E0,9.412445068E0,4.359725952E0
9.644249496E0,3.966598511E0,9.161056519E0,4.738006592E0
9.649254379E0,4.344879150E0,8.950363159E0,4.498580933E0
9.654259262E0,4.296997070E0,8.646301270E0,3.655822754E0
9.659264145E0,3.693649292E0,8.251266479E0,2.470703125E0
9.664269028E0,2.817382812E0,7.963958740E0,1.139526367E0
9.669273911E0,1.909973145E0,7.817916870E0,-5.039978027E-2
9.674278793E0,1.076797485E0,7.928039551E0,-7.758331299E-1
9.679283676E0,6.147155762E-1,8.177047729E0,-9.985046387E-1
9.684288559E0,4.590911865E-1,8.335052490E0,-1.182846069E0
9.689293442E0,4.758453369E-1,8.416458130E0,-1.343261719E0
9.694298325E0,5.213317871E-1,8.445190430E0,-1.374389648E0
9.699303207E0,6.099243164E-1,8.631942749E0,-1.458190918E0
9.704308090E0,6.099243164E-1,8.883331299E0,-1.743103027E0
9.709312973E0,4.638824463E-1,8.974304199E0,-2.138137817E0
9.714317856E0,4.040222168E-1,8.959945679E0,-2.585861206E0
9.719322739E0,5.189361572E-1,8.883331299E0,-2.935409546E0
9.724327621E0,6.458282471E-1,8.830657959E0,-3.270599365E0
9.729332504E0,6.889343262E-1,8.758834839E0,-3.694366455E0
9.734337387E0,7.128753662E-1,8.562515259E0,-4.058288574E0
9.739342270E0,7.416076660E-1,8.375762939E0,-3.897872925E0
9.744347153E0,8.086395264E-1,8.289566040E0,-3.265808105E0
9.749352036E0,8.780670166E-1,8.234497070E0,-2.188415527E0
9.754356918E0,1.052856445E0,8.327880859E0,-9.386444092E-1
9.759361801E0,1.376068115E0,8.536178589E0,1.674804688E-1
9.764366684E0,1.785476685E0,8.825866699E0,9.982604980E-1
9.769371567E0,2.075180054E0,9.015014648E0,1.450775146E0
9.774376450E0,2.271499634E0,9.177810669E0,1.340637207E0
9.779381332E0,2.515701294E0,9.541732788E0,7.109680176E-1
9.784386215E0,2.570770264E0,9.800308228E0,-1.150360107E-1
9.789391098E0,2.228408813E0,9.587219238E0,-9.841308594E-1
9.794395981E0,1.713653564E0,9.304702759E0,-1.913085938E0
9.799400864E0,1.265930176E0,9.132324219E0,-2.779785156E0
9.804405746E0,8.996276855E-1,9.146697998E0,-3.399887085E0
9.809410629E0,5.596466064E-1,9.204147339E0,-3.641693115E0
9.814415512E0,1.957244873E-1,9.216125488E0,-3.555511475E0
9.819420395E0,-1.873474121E-1,9.208938599E0,-3.182006836E0
9.824425278E0,-5.273284912E-1,9.168243408E0,-2.516418457E0
9.829430161E0,-7.906799316E-1,9.120361328E0,-1.561141968E0
9.834435043E0,-9.247589111E-1,9.105987549E0,-4.406433105E-1
9.839439926E0,-1.020523071E0,9.180206299E0,6.056213379E-1
9.844444809E0,-1.190521240E0,9.359771729E0,1.374160767E0
9.849449692E0,-1.417968750E0,9.520187378E0,1.711730957E0
9.854454575E0,-1.542465210E0,9.671020508E0,1.532165527E0
9.859459457E0,-1.458663940E0,9.795516968E0,8.139190674E-1
9.864464340E0,-1.140243530E0,9.872131348E0,-2.060241699E-1
9.869469223E0,-6.494293213E-1,9.946350098E0,-1.333694458E0
9.874474106E0,-2.214050293E-2,1.008042908E1,-2.382354736E0
9.879478989E0,7.320251465E-1,1.029112244E1,-3.126937866E0
9.884483871E0,1.522109985E0,1.057603455E1,-3.428619385E0
9.889488754E0,2.240371704E0,1.090164185E1,-3.258621216E0
9.894493637E0,2.872436523E0,1.120570374E1,-2.729507446E0
9.899498520E0,3.348892212E0,1.148822021E1,-2.027999878E0
9.904503403E0,3.607467651E0,1.178271484E1,-1.324111938E0
9.909508286E0,3.691253662E0,1.202212524E1,-6.082458496E-1
9.914513168E0,3.597885132E0,1.216099548E1,1.602935791E-1
9.919518051E0,3.214813232E0,1.228309631E1,8.115234375E-1
9.924522934E0,2.630630493E0,1.242196655E1,1.261627197E0
9.929527817E0,2.067993164E0,1.263264465E1,1.443588257E0
9.934532700E0,1.605911255E0,1.286248779E1,1.450775146E0
9.939537582E0,1.301849365E0,1.316656494E1,1.295150757E0
9.944542465E0,1.179748535E0,1.348258972E1,9.503784180E-1
9.949547348E0,1.249176025E0,1.376750183E1,4.954833984E-1
9.954552231E0,1.476623535E0,1.398776245E1,9.460449219E-3
9.959526596E0,1.819000244E0,1.409790039E1,-3.999481201E-1
9.964531479E0,2.247558594E0,1.407875061E1,-7.566833496E-1
9.969536362E0,2.752731323E0,1.396382141E1,-1.032012939E0
9.974541244E0,3.324951172E0,1.384411621E1,-1.206802368E0
9.979546127E0,3.906738281E0,1.366934204E1,-1.300170898E0
9.984551010E0,4.553176880E0,1.346343994E1,-1.194824219E0
9.989555893E0,5.233123779E0,1.330541992E1,-9.218902588E-1
9.994560776E0,5.771820068E0,1.319767761E1,-8.380889893E-1
9.999565659E0,6.150100708E0,1.306361389E1,-8.596343994E-1
1.000457054E1,6.411071777E0,1.292953491E1,-8.261108398E-1
1.000957542E1,6.633728027E0,1.279545593E1,-6.345825195E-1
1.001458031E1,6.772598267E0,1.268771362E1,-2.251739502E-1
1.001958519E1,6.822875977E0,1.256800842E1,2.321166992E-1
1.002459007E1,6.741470337E0,1.233337402E1,5.840606689E-1
1.002959496E1,6.487686157E0,1.194551086E1,7.612457275E-1
1.003459984E1,5.987304688E0,1.137330627E1,7.636260986E-1
1.003960472E1,5.388748169E0,1.067419434E1,6.894073486E-1
1.004460960E1,4.893142700E0,9.958328247E0,5.505523682E-1
1.004961449E1,4.519653320E0,9.280761719E0,3.350677490E-1
1.005461937E1,4.203613281E0,8.663070679E0,-7.673645020E-2
1.005962425E1,3.846878052E0,8.239288330E0,-5.890960693E-1
1.006462914E1,3.550003052E0,8.148315430E0,-1.132568359E0
1.006963402E1,3.279464722E0,8.404495239E0,-1.544372559E0
1.007463890E1,2.874832153E0,8.986282349E0,-1.697601318E0
1.007964378E1,2.367263794E0,9.958328247E0,-1.379180908E0
1.008464867E1,1.909973145E0,1.136132812E1,-3.951568604E-1
1.008965355E1,1.469436646E0,1.328627014E1,7.205352783E-1
1.009465843E1,1.004959106E0,1.543626404E1,1.704559326E0
1.009966332E1,5.428924561E-1,1.745217896E1,2.492248535E0
1.010466820E1,2.938842773E-1,1.928373718E1,2.832229614E0
1.010967308E1,1.215057373E-1,2.087109375E1,2.097198486E0
1.011467796E1,-3.980407715E-1,2.156781006E1,4.260559082E-1
1.011968285E1,-8.768768311E-1,2.187426758E1,-1.771820068E0
1.012468773E1,-1.037292480E0,2.260450745E1,-4.611343384E0
1.012969261E1,-1.068420410E0,2.337782288E1,-7.656768799E0
1.013469749E1,-1.602325439E0,2.306419373E1,-9.914505005E0
1.013970238E1,-2.842514038E0,2.135234070E1,-1.062797546E1
1.014470726E1,-4.291015625E0,1.922389221E1,-1.053700256E1
1.014971214E1,-5.480926514E0,1.742823792E1,-1.002464294E1
1.015471703E1,-6.244674683E0,1.595579529E1,-9.213012695E0
1.015972191E1,-7.008422852E0,1.455279541E1,-7.855499268E0
1.016472679E1,-7.903854370E0,1.306121826E1,-5.798873901E0
1.016973167E1,-8.751403809E0,1.167736816E1,-3.713531494E0
1.017473656E1,-9.450515747E0,1.060476685E1,-2.262634277E0
1.017974144E1,-9.835983276E0,9.958328247E0,-1.594650269E0
1.018474632E1,-9.938934326E0,9.443572998E0,-1.197219849E0
1.018975120E1,-9.718658447E0,8.919250488E0,-7.638702393E-1
1.019475609E1,-9.464874268E0,8.330276489E0,-3.448791504E-1
1.019976097E1,-9.024353027E0,7.585678101E0,-4.143066406E-1
1.020476585E1,-8.076248169E0,7.140350342E0,-1.089477539E0
1.020977074E1,-6.809707642E0,6.991912842E0,-1.690429688E0
1.021477562E1,-5.392333984E0,7.219360352E0,-1.910690308E0
1.021978050E1,-3.951034546E0,7.518630981E0,-1.762252808E0
1.022478538E1,-2.648590088E0,7.762847900E0,-1.403121948E0
1.022979027E1,-1.628662109E0,7.805938721E0,-1.036804199E0
1.023479515E1,-8.672943115E-1,7.650314331E0,-8.165435791E-1
1.023980003E1,-2.759246826E-1,7.370193481E0,-5.962677002E-1
1.024480492E1,2.334594727E-2,7.090072632E0,-1.030731201E-1
1.024980980E1,3.530883789E-2,6.831497192E0,4.571685791E-1
1.025481468E1,1.526336670E-1,6.367019653E0,4.547882080E-1
1.025981956E1,4.782409668E-1,5.778045654E0,-9.689331055E-3
1.026482445E1,8.828582764E-1,5.296813965E0,-4.214935303E-1
1.026982933E1,1.402404785E0,4.853881836E0,-1.156509399E0
1.027483421E1,1.996170044E0,4.604888916E0,-2.027999878E0
1.027983910E1,2.518096924E0,4.528274536E0,-2.875549316E0
1.028484398E1,3.102279663E0,4.501937866E0,-3.529174805E0
1.028984886E1,3.561965942E0,4.530670166E0,-3.732681274E0
1.029485374E1,3.839706421E0,4.657562256E0,-3.562683105E0
1.029985863E1,3.966598511E0,4.841918945E0,-3.268203735E0
1.030486351E1,4.136581421E0,5.081344604E0,-2.911468506E0
1.030986839E1,4.203613281E0,5.306396484E0,-2.482910156E0
1.031487328E1,4.091094971E0,5.490753174E0,-2.114196777E0
1.031987816E1,3.815765381E0,5.603271484E0,-1.853225708E0
1.032488304E1,3.289031982E0,5.567367554E0,-1.676055908E0
1.032988792E1,2.515701294E0,5.342300415E0,-1.561141968E0
1.033489281E1,1.605911255E0,5.035842896E0,-1.577896118E0
1.033989769E1,6.123199463E-1,4.626434326E0,-1.733520508E0
1.034490257E1,-3.764953613E-1,4.157180786E0,-2.013641357E0
1.034990746E1,-1.204879761E0,3.716644287E0,-2.298553467E0
1.035491234E1,-1.860900879E0,3.268920898E0,-2.502059937E0
1.035991722E1,-2.425918579E0,2.828399658E0,-2.650497437E0
1.036492210E1,-2.950256348E0,2.347152710E0,-2.633743286E0
1.036992699E1,-3.278259277E0,1.827621460E0,-2.305740356E0
1.037493187E1,-3.450637817E0,1.377502441E0,-1.800552368E0
1.037993675E1,-3.441070557E0,1.025558472E0,-1.233123779E0
1.038494164E1,-3.333328247E0,8.005065918E-1,-7.279510498E-1
1.038994652E1,-3.271072388E0,7.262878418E-1,-2.706604004E-1
1.039495140E1,-3.134613037E0,8.531799316E-1,1.339569092E-1
1.039995628E1,-2.883224487E0,1.150054932E0,4.811248779E-1
1.040496117E1,-2.725204468E0,1.537918091E0,8.929138184E-1
