"Time (s)","Acceleration x (m/s^2)","Acceleration y (m/s^2)","Acceleration z (m/s^2)"
1.339219550E-1,-3.744645834E0,6.792557716E0,7.793364525E0
1.359219550E-1,-3.744645834E0,6.792557716E0,7.793364525E0
1.379089550E-1,-3.744645834E0,6.792557716E0,7.793364525E0
1.398996210E-1,-3.744645834E0,6.792557716E0,7.793364525E0
1.418996210E-1,7.063110471E-1,1.276148438E0,5.458946705E0
1.439012210E-1,8.499675393E-1,1.221080184E0,5.679219723E0
1.459008870E-1,9.194015265E-1,1.192348838E0,5.818087578E0
1.479006010E-1,1.060663700E0,1.130097747E0,6.146103382E0
1.499003510E-1,1.132491946E0,1.089395046E0,6.335251331E0
1.519001280E-1,1.309668303E0,1.012778282E0,6.739883423E0
1.538999280E-1,1.446141958E0,9.433442950E-1,7.125361919E0
1.558997460E-1,1.721483588E0,7.374366522E-1,7.927443981E0
1.578974120E-1,1.721483588E0,7.374366522E-1,7.927443981E0
1.598971040E-1,1.805283189E0,6.895511150E-1,8.116591454E0
1.618968180E-1,1.896265626E0,6.368771195E-1,8.308133125E0
1.638965510E-1,2.085413456E0,5.435003638E-1,8.679245949E0
1.658963010E-1,2.212309837E0,4.980091453E-1,8.868393898E0
1.678960650E-1,2.590605259E0,3.830839694E-1,9.215563774E0
1.698958420E-1,2.947352171E0,3.184385598E-1,9.562733650E0
1.718956310E-1,3.112557173E0,2.801301479E-1,9.737515450E0
1.738954310E-1,3.366350412E0,2.418217510E-1,1.007271385E1
1.758951450E-1,3.759011507E0,2.059076279E-1,1.059706020E1
1.778936900E-1,3.849993944E0,2.059076279E-1,1.067367744E1
1.798922110E-1,3.849993944E0,2.059076279E-1,1.067367744E1
1.818919610E-1,4.079844475E0,2.681587934E-1,1.082691097E1
1.838917210E-1,4.199557781E0,3.423812985E-1,1.092028713E1
1.858914900E-1,4.424619675E0,4.908263385E-1,1.111901188E1
1.878912670E-1,4.527573586E0,5.435003638E-1,1.119084072E1
1.898910520E-1,4.697566986E0,6.273000240E-1,1.126027489E1
1.918907760E-1,4.786155224E0,6.081457734E-1,1.118844604E1
1.938905090E-1,4.807703972E0,5.602602959E-1,1.109746361E1
1.958902420E-1,4.788549423E0,2.250618339E-1,1.038397026E1
1.978899750E-1,4.788549423E0,2.250618339E-1,1.038397026E1
1.998897080E-1,4.788549423E0,2.250618339E-1,1.038397026E1
2.018894410E-1,4.769395351E0,1.867534369E-1,1.017087936E1
2.038889070E-1,4.757423878E0,2.130904645E-1,1.010383987E1
2.058887070E-1,4.740664005E0,2.897072434E-1,1.000806904E1
2.078884400E-1,4.711932659E0,3.782954216E-1,9.931451797E0
2.098881730E-1,4.692778587E0,4.213923812E-1,9.890748978E0
2.118879060E-1,4.580247879E0,5.123748183E-1,9.797372818E0
2.138876390E-1,4.410254002E0,5.482889414E-1,9.660899162E0
2.158870390E-1,3.967313290E0,5.339232683E-1,9.273026466E0
2.178867720E-1,3.845205307E0,5.339232683E-1,9.273026466E0
2.198857380E-1,3.845205307E0,5.051919818E-1,9.153312683E0
2.218854710E-1,3.727885962E0,4.692778587E-1,9.035993576E0
2.238852040E-1,3.533949614E0,4.118152559E-1,8.801354408E0
2.258849370E-1,3.466909885E0,4.022381604E-1,8.674457550E0
2.278846700E-1,3.368744612E0,3.759011328E-1,8.432636261E0
2.298844030E-1,3.313676357E0,3.423812985E-1,8.193208694E0
2.318841360E-1,3.294522047E0,3.423812985E-1,8.080677032E0
2.338838690E-1,3.272973776E0,3.088614643E-1,7.872375488E0
2.358836690E-1,3.282550812E0,2.490045726E-1,7.498868465E0
2.378833350E-1,3.282550812E0,2.490045726E-1,7.498868465E0
2.398840010E-1,3.299310684E0,2.154847383E-1,7.225921154E0
2.418837340E-1,3.318464994E0,1.819648892E-1,7.110996246E0
2.438834670E-1,3.361561775E0,9.337671846E-2,6.957762718E0
2.458832000E-1,3.402264595E0,9.577099234E-3,6.830865860E0
2.478829330E-1,3.409447432E0,-3.351984918E-2,6.751854897E0
2.498826660E-1,3.411841631E0,-1.149251908E-1,6.610592842E0
2.518824660E-1,3.371139050E0,-2.250618339E-1,6.510033131E0
2.538822320E-1,3.359167576E0,-2.801301479E-1,6.476513386E0
2.558819980E-1,3.318464994E0,-4.980091453E-1,6.457359314E0
2.578817640E-1,3.308887720E0,-5.482889414E-1,6.447782040E0
2.598815640E-1,3.308887720E0,-5.482889414E-1,6.447782040E0
2.618813300E-1,3.301704884E0,-6.656084061E-1,6.440599442E0
2.638810960E-1,3.289733648E0,-7.182824612E-1,6.435810566E0
2.658808620E-1,3.270579338E0,-8.044763207E-1,6.433416367E0
2.678806950E-1,3.239453793E0,-8.858816624E-1,6.421444893E0
2.698804610E-1,3.208328247E0,-9.217957854E-1,6.435810566E0
2.718802270E-1,3.155654192E0,-1.000806928E0,6.502850533E0
2.738799930E-1,3.086220264E0,-1.077423692E0,6.567495823E0
2.758800930E-1,2.887495518E0,-1.154040456E0,6.696786404E0
2.778798590E-1,2.887495518E0,-1.154040456E0,6.696786404E0
2.798804590E-1,2.887495518E0,-1.154040456E0,6.696786404E0
2.818802920E-1,2.782147408E0,-1.187560320E0,6.754249096E0
2.838801250E-1,2.741444588E0,-1.192348838E0,6.816500187E0
2.858798910E-1,2.729473352E0,-1.206714511E0,6.854808807E0
2.878792240E-1,2.758204460E0,-1.223474383E0,6.919454098E0
2.898789900E-1,2.849187136E0,-1.213897347E0,6.984099388E0
2.918787560E-1,2.894678354E0,-1.201925993E0,6.993676662E0
2.938785220E-1,3.019180536E0,-1.170800328E0,7.017619610E0
2.958782880E-1,3.332830429E0,-1.130097747E0,6.955368519E0
2.978781880E-1,3.332830429E0,-1.130097747E0,6.955368519E0
2.998779540E-1,3.428601503E0,-1.132491946E0,6.929031372E0
3.018777200E-1,3.519583941E0,-1.130097747E0,6.909877300E0
3.038774860E-1,3.699154615E0,-1.154040456E0,6.847625732E0
3.058772520E-1,3.888302326E0,-1.192348838E0,6.759037971E0
3.078770180E-1,3.972101927E0,-1.211503029E0,6.735095024E0
3.098767840E-1,4.166038036E0,-1.266571403E0,6.696786404E0
3.118765500E-1,4.352791786E0,-1.295302629E0,6.646506786E0
3.138763500E-1,4.436591148E0,-1.355159521E0,6.617775440E0
3.158760830E-1,3.861965179E0,-1.403045058E0,9.981731415E0
3.178758160E-1,3.471698523E0,-1.376708031E0,1.188039207E1
3.198755160E-1,3.471698523E0,-1.376708031E0,1.188039207E1
3.218752490E-1,2.798907280E0,-1.221080184E0,1.548138046E1
3.238749820E-1,2.648067951E0,-1.115732074E0,1.664739227E1
3.258747150E-1,2.782147408E0,-8.786988258E-1,1.713821983E1
3.278744480E-1,3.275367975E0,-6.632141471E-1,1.570404816E1
3.298742480E-1,3.536343813E0,-5.913859010E-1,1.464817333E1
3.318739810E-1,3.933793545E0,-5.267404318E-1,1.255797100E1
3.338737140E-1,4.051113129E0,-5.195576549E-1,1.163856983E1
3.358734470E-1,4.340820312E0,-6.799740195E-1,8.810931206E0
3.378731800E-1,4.429408550E0,-7.661679387E-1,8.195602417E0
3.398726460E-1,4.429408550E0,-7.661679387E-1,8.195602417E0
3.418723790E-1,4.599401951E0,-9.433442950E-1,7.055927753E0
3.438721120E-1,4.764606953E0,-1.144463301E0,6.129343510E0
3.458719120E-1,4.841223717E0,-1.247417212E0,5.770202160E0
3.478720780E-1,4.951360226E0,-1.465296149E0,5.286558628E0
3.498718110E-1,4.958543301E0,-1.570644259E0,5.140508175E0
3.518715440E-1,4.932206154E0,-1.728666425E0,5.008822918E0
3.538712770E-1,4.814886570E0,-1.860351562E0,4.975303173E0
3.558710100E-1,4.417437077E0,-2.039922237E0,4.846012115E0
3.578707430E-1,4.417437077E0,-2.039922237E0,4.846012115E0
3.598708430E-1,4.383917332E0,-1.984853864E0,4.774183750E0
3.618706430E-1,4.352791786E0,-1.903448462E0,4.699961662E0
3.638703760E-1,4.235472202E0,-1.793311834E0,4.494053841E0
3.658701090E-1,3.933793545E0,-1.850774407E0,4.259414673E0
3.678698420E-1,3.735068798E0,-1.922602654E0,4.122941017E0
3.698695750E-1,3.342407703E0,-2.118933201E0,3.835628271E0
3.718693080E-1,3.170019865E0,-2.226675510E0,3.687183142E0
3.738690410E-1,2.894678354E0,-2.425400496E0,3.419024467E0
3.758688410E-1,2.597788095E0,-2.820455790E0,3.079037428E0
3.778686410E-1,2.592999697E0,-2.897072554E0,3.050306082E0
3.798683740E-1,2.592999697E0,-2.897072554E0,3.050306082E0
3.818681070E-1,2.619336605E0,-3.026363373E0,2.997632027E0
3.838678400E-1,2.660039425E0,-3.088614464E0,2.992843628E0
3.858675730E-1,2.770175934E0,-3.201145411E0,3.035940409E0
3.878673060E-1,2.822849989E0,-3.270579338E0,3.074248791E0
3.898670390E-1,2.885101080E0,-3.454938650E0,3.179596901E0
3.918668390E-1,2.976083517E0,-3.677606106E0,3.272973776E0
3.938665720E-1,3.021574736E0,-3.782954216E0,3.316070557E0
3.958663050E-1,3.282550812E0,-4.082238674E0,3.356773376E0
3.978660380E-1,3.390293121E0,-4.106181145E0,3.313676357E0
3.998660380E-1,3.390293121E0,-4.106181145E0,3.313676357E0
4.018657710E-1,3.636903524E0,-4.122941017E0,3.181991339E0
4.038655040E-1,3.893090725E0,-4.144489765E0,3.007209063E0
4.058652370E-1,4.031958580E0,-4.180403709E0,2.906649590E0
4.078650370E-1,4.333637238E0,-4.156461239E0,2.705530643E0
4.098647700E-1,4.494053841E0,-4.137306690E0,2.604970932E0
4.118645030E-1,4.848406315E0,-4.072661400E0,2.449343204E0
4.138642360E-1,5.212336063E0,-3.926610708E0,2.334417820E0
4.158639690E-1,6.031178474E0,-3.390293121E0,2.288926601E0
4.178637020E-1,6.031178474E0,-3.390293121E0,2.288926601E0
4.198631350E-1,6.241874218E0,-3.215511084E0,2.276955366E0
4.218628680E-1,6.469330311E0,-3.035940409E0,2.262589693E0
4.238626680E-1,6.924242973E0,-2.719896078E0,2.236252785E0
4.258624010E-1,7.144515991E0,-2.573845387E0,2.224281311E0
4.278624670E-1,7.541965485E0,-2.355966330E0,2.229069948E0
4.298622000E-1,7.834067345E0,-2.202732801E0,2.279349566E0
4.318619330E-1,7.944203854E0,-2.171607256E0,2.291321039E0
4.338616660E-1,8.104619980E0,-2.176395893E0,2.272166729E0
4.358613990E-1,8.219545364E0,-2.475680113E0,1.932179809E0
4.378611320E-1,8.231516838E0,-2.475680113E0,1.932179809E0
4.398609320E-1,8.231516838E0,-2.581028223E0,1.845985889E0
4.418606650E-1,8.241093636E0,-2.688770533E0,1.757397652E0
4.438603980E-1,8.224333763E0,-2.875524044E0,1.580221415E0
4.458601310E-1,8.157294273E0,-3.047911882E0,1.417410731E0
4.478598640E-1,8.080677032E0,-3.138894320E0,1.355159521E0
4.498595970E-1,7.889135361E0,-3.270579338E0,1.288119793E0
4.518593300E-1,7.654496670E0,-3.330436230E0,1.426987767E0
4.538591300E-1,7.549148560E0,-3.340013266E0,1.580221415E0
4.558589300E-1,7.223526955E0,-3.205934048E0,2.334417820E0
4.578586630E-1,7.180429935E0,-3.119740009E0,2.540325642E0
4.598583960E-1,7.180429935E0,-3.119740009E0,2.540325642E0
4.618581290E-1,7.158881664E0,-2.925803900E0,2.904255390E0
4.638578620E-1,7.175641537E0,-2.837215662E0,3.076643229E0
4.658575950E-1,7.273807049E0,-2.667222023E0,3.356773376E0
4.678573280E-1,7.458166122E0,-2.537931204E0,3.445361376E0
4.698571280E-1,7.565908432E0,-2.470891714E0,3.459727049E0
4.718568610E-1,7.802941799E0,-2.358360767E0,3.419024467E0
4.738565940E-1,8.020820618E0,-2.341600657E0,3.304099321E0
4.758563270E-1,8.265036583E0,-2.504411459E0,2.648067951E0
4.778560600E-1,8.265036583E0,-2.583422422E0,2.648067951E0
4.798557930E-1,8.265036583E0,-2.583422422E0,2.648067951E0
4.818555260E-1,8.442213058E0,-2.633702278E0,2.176395893E0
4.838552590E-1,8.624177933E0,-2.648067951E0,1.494027495E0
4.858550590E-1,8.700794220E0,-2.626519442E0,1.173194647E0
4.878544590E-1,8.897125244E0,-2.468497276E0,5.291347504E-1
4.898541920E-1,9.165284157E0,-2.111750364E0,1.532335877E-1
4.918539250E-1,9.277814865E0,-1.898659945E0,-1.436564885E-2
4.938536580E-1,9.464568138E0,-1.395862222E0,-4.381522834E-1
4.958533910E-1,1.026186180E1,5.889915824E-1,-7.350423932E-1
4.978531240E-1,1.026186180E1,5.889915824E-1,-7.350423932E-1
4.998529240E-1,1.026186180E1,5.889915824E-1,-7.350423932E-1
5.018527240E-1,1.050607777E1,1.067846537E0,-6.536370516E-1
5.038524570E-1,1.101126957E1,1.984853864E0,-3.663240373E-1
5.058521900E-1,1.161941528E1,2.861158371E0,3.351984620E-1
5.078519230E-1,1.197376823E1,3.268185139E0,7.853221297E-1
5.098516560E-1,1.286204433E1,4.127729893E0,1.814860344E0
5.118513890E-1,1.387242794E1,4.855589390E0,2.746233225E0
5.138511220E-1,1.433691788E1,5.126142502E0,3.069460392E0
5.158508550E-1,1.550532341E1,5.739076614E0,3.725491524E0
5.178505880E-1,1.573038578E1,5.837242126E0,3.756617069E0
5.198503210E-1,1.580221367E1,5.861184597E0,3.670423269E0
5.218500540E-1,1.554363251E1,5.655277252E0,3.170019865E0
5.238497870E-1,1.520125103E1,5.420638084E0,2.736656189E0
5.258495200E-1,1.425551224E1,4.731087208E0,1.695146561E0
5.278492530E-1,1.315175152E1,3.857176781E0,5.865973234E-1
5.298489860E-1,1.259628010E1,3.390293121E0,1.005595401E-1
5.318487860E-1,1.160265541E1,2.523565531E0,-6.057515144E-1
5.338485860E-1,1.076944828E1,2.130904675E0,-7.972934842E-1
5.358483190E-1,9.909903526E0,8.403904438E-1,-7.853221297E-1
5.378480520E-1,9.909903526E0,8.403904438E-1,-7.853221297E-1
5.398481520E-1,9.909903526E0,8.403904438E-1,-7.853221297E-1
5.418478850E-1,9.802161217E0,7.158881426E-1,-5.171633363E-1
5.438476180E-1,9.859623909E0,8.068706393E-1,-1.556278616E-1
5.458473510E-1,9.876383781E0,8.571503758E-1,-1.675992459E-2
5.478471510E-1,9.921875000E0,1.015172482E0,3.423812985E-1
5.498469510E-1,9.732727051E0,1.082212210E0,5.554717779E-1
5.518466840E-1,9.629773140E0,1.115732074E0,7.063110471E-1
5.538464170E-1,9.284997940E0,1.055875182E0,8.571503758E-1
5.558461500E-1,9.019232750E0,8.619389534E-1,1.094183564E0
5.578458830E-1,9.019232750E0,8.619389534E-1,1.094183564E0
5.598456490E-1,9.074301720E0,8.044763207E-1,1.087000728E0
5.618453820E-1,9.172467232E0,7.541965842E-1,1.046298146E0
5.638451820E-1,9.457385063E0,6.632141471E-1,8.595446348E-1
5.658449150E-1,9.818921089E0,6.320885420E-1,5.578660369E-1
5.678446480E-1,1.003440571E1,6.608198285E-1,3.567469418E-1
5.698443810E-1,1.044861507E1,7.685621977E-1,-9.577099234E-3
5.718441140E-1,1.062579155E1,8.379961848E-1,-1.675992310E-1
5.738438470E-1,1.103760719E1,1.063058019E0,-4.525179267E-1
5.758435800E-1,1.190912247E1,1.719089270E0,-9.217957854E-1
5.778433800E-1,1.190912247E1,1.719089270E0,-9.217957854E-1
5.798436800E-1,1.212221336E1,1.905842781E0,-1.017566800E0
5.818434130E-1,1.250529766E1,2.262589693E0,-1.180377483E0
5.838431460E-1,1.268247414E1,2.430188894E0,-1.252205729E0
5.858428790E-1,1.295302677E1,2.695953369E0,-1.398256540E0
5.878426120E-1,1.316611671E1,2.813272953E0,-1.525153041E0
5.898423450E-1,1.325949383E1,2.992843628E0,-1.568249941E0
5.918420780E-1,1.333850479E1,3.100585938E0,-1.642472506E0
5.938418110E-1,1.335526466E1,3.138894320E0,-1.690358043E0
5.958416110E-1,1.331695652E1,3.251425266E0,-1.929785490E0
5.978413440E-1,1.325470543E1,3.258608103E0,-2.030344963E0
5.998407100E-1,1.325470543E1,3.258608103E0,-2.030344963E0
6.018404430E-1,1.310386562E1,3.251425266E0,-2.274561167E0
6.038401760E-1,1.291232395E1,3.217905283E0,-2.533142805E0
6.058399090E-1,1.280697632E1,3.203539610E0,-2.667222023E0
6.078396420E-1,1.268247414E1,3.220299721E0,-2.894678354E0
6.098393750E-1,1.262979984E1,3.246636629E0,-2.992843628E0
6.118391750E-1,1.250529766E1,3.299310684E0,-3.170019865E0
6.138389080E-1,1.236164093E1,3.349590540E0,-3.292127848E0
6.158386410E-1,1.222037888E1,3.634509087E0,-3.320859194E0
6.178383410E-1,1.222037888E1,3.634509087E0,-3.320859194E0
6.198381410E-1,1.219404125E1,3.730280161E0,-3.328042030E0
6.218378740E-1,1.215812778E1,3.866753817E0,-3.296916485E0
6.238376070E-1,1.215094471E1,4.204346657E0,-3.347196102E0
6.258374070E-1,1.216770458E1,4.288146019E0,-3.430995703E0
6.278372070E-1,1.215333939E1,4.192375183E0,-3.495641232E0
6.298369400E-1,1.202165413E1,4.039141655E0,-3.390293121E0
6.318366730E-1,1.190912247E1,4.017592907E0,-3.342407703E0
6.338364060E-1,1.166730118E1,4.067873001E0,-3.316070557E0
6.358361390E-1,1.159547329E1,4.345608711E0,-3.256213665E0
6.378358720E-1,1.159547329E1,4.345608711E0,-3.256213665E0
6.398351050E-1,1.164575291E1,4.352791786E0,-3.167625666E0
6.418349050E-1,1.174391747E1,4.266597748E0,-2.968900681E0
6.438346380E-1,1.177025509E1,4.192375183E0,-2.916226625E0
6.458343710E-1,1.176546669E1,3.988861799E0,-2.964112282E0
6.478341040E-1,1.175588894E1,3.893090725E0,-3.052700281E0
6.498338370E-1,1.176546669E1,3.672817469E0,-3.234665155E0
6.518335700E-1,1.182532310E1,3.378321648E0,-3.325647593E0
6.538333030E-1,1.184926605E1,3.155654192E0,-3.289733648E0
6.558330360E-1,1.201925945E1,2.320052385E0,-3.270579338E0
6.578328360E-1,1.211503029E1,2.276955366E0,-3.395081758E0
6.598326020E-1,1.211503029E1,2.276955366E0,-3.395081758E0
6.618323680E-1,1.245741177E1,2.454131603E0,-3.593806505E0
6.638321340E-1,1.260346222E1,2.559479713E0,-3.694365978E0
6.658319000E-1,1.296978664E1,3.023969173E0,-3.804502726E0
6.678316660E-1,1.344864178E1,3.687183142E0,-3.670423269E0
6.698314320E-1,1.367130947E1,4.017592907E0,-3.517189741E0
6.718311980E-1,1.398256493E1,4.606584549E0,-3.126922846E0
6.738310310E-1,1.426269531E1,5.027976990E0,-2.707924843E0
6.758307970E-1,1.458831596E1,5.408666611E0,-2.154847383E0
6.778305970E-1,1.458831596E1,5.408666611E0,-2.154847383E0
6.798302630E-1,1.458831596E1,5.408666611E0,-2.154847383E0
6.818300290E-1,1.462423038E1,5.379935265E0,-2.264983892E0
6.838297950E-1,1.468408775E1,5.257827282E0,-2.533142805E0
6.858295610E-1,1.471521282E1,5.169239521E0,-2.710319042E0
6.878293270E-1,1.471760750E1,4.996851444E0,-3.143682718E0
6.898291600E-1,1.463859653E1,4.824463844E0,-3.670423269E0
6.918289260E-1,1.457873917E1,4.745452881E0,-3.909850836E0
6.938286920E-1,1.440874577E1,4.577853203E0,-4.278569221E0
6.958284580E-1,1.384369659E1,4.273780346E0,-4.568276405E0
6.978282240E-1,1.384369659E1,4.273780346E0,-4.568276405E0
6.998279900E-1,1.367849159E1,4.209135056E0,-4.556304932E0
7.018277560E-1,1.350131607E1,4.149278164E0,-4.532361984E0
7.038275890E-1,1.313499165E1,4.058295727E0,-4.455745220E0
7.058274220E-1,1.277106190E1,4.022381783E0,-4.388705730E0
7.078271880E-1,1.259867382E1,4.027170181E0,-4.369551659E0
7.098269540E-1,1.229220676E1,4.065478802E0,-4.355185986E0
7.118267200E-1,1.205038548E1,4.146883965E0,-4.333637238E0
7.138264860E-1,1.194024849E1,4.194769382E0,-4.316877365E0
7.158262520E-1,1.162420464E1,4.398283005E0,-4.216318130E0
7.178260180E-1,1.157871342E1,4.458139896E0,-4.158855438E0
7.198261510E-1,1.157871342E1,4.458139896E0,-4.158855438E0
7.218258840E-1,1.150449085E1,4.558699131E0,-4.022381783E0
7.238256170E-1,1.146857643E1,4.606584549E0,-3.940976381E0
7.258253500E-1,1.146139336E1,4.814886570E0,-3.732674360E0
7.278250830E-1,1.150209618E1,5.111776829E0,-3.521978140E0
7.298248160E-1,1.153082752E1,5.274587631E0,-3.414235830E0
7.318245490E-1,1.164335823E1,5.657671452E0,-3.217905283E0
7.338242820E-1,1.179659176E1,6.124555111E0,-3.100585938E0
7.358240820E-1,9.536396980E0,9.457385063E0,-4.802915096E0
7.378238150E-1,9.536396980E0,9.457385063E0,-4.802915096E0
7.398235480E-1,9.536396980E0,9.457385063E0,-4.802915096E0
7.418232810E-1,8.827691078E0,1.149491310E1,-5.652883053E0
7.438220810E-1,8.638543129E0,1.357314396E1,-6.007235527E0
7.458218140E-1,8.722343445E0,1.462183666E1,-5.942590237E0
7.478215470E-1,9.205986977E0,1.656359291E1,-5.437397957E0
7.498212800E-1,9.883566856E0,1.786847305E1,-4.862771988E0
7.518210800E-1,1.019482231E1,1.820127678E1,-4.577853203E0
7.538208130E-1,1.064015770E1,1.824197960E1,-4.043930054E0
7.558205460E-1,1.055156898E1,1.614220047E1,-3.119740009E0
7.578202790E-1,1.055156898E1,1.614220047E1,-3.119740009E0
7.598200120E-1,1.038636398E1,1.530181026E1,-3.004814863E0
7.618197450E-1,1.019003391E1,1.442311192E1,-2.937775135E0
7.638194780E-1,9.773429871E0,1.265853119E1,-2.932986736E0
7.658192110E-1,9.392740250E0,1.114534950E1,-2.949746609E0
7.678190110E-1,9.256266594E0,1.049171257E1,-2.894678354E0
7.698187440E-1,9.095849991E0,9.383162498E0,-2.571451187E0
7.718184770E-1,9.208380699E0,8.911490440E0,-2.051893473E0
7.738176100E-1,9.371191978E0,8.049551964E0,-1.764580488E0
7.758173430E-1,1.047734642E1,6.797346115E0,-6.273000240E-1
7.778170430E-1,1.047734642E1,6.797346115E0,-6.273000240E-1
7.798168090E-1,1.081254482E1,6.574678421E0,-4.405465722E-1
7.818161750E-1,1.149012470E1,6.122160912E0,-2.777358890E-1
7.838159750E-1,1.177025509E1,5.889915943E0,-3.040728867E-1
7.858157080E-1,1.222037888E1,5.458946705E0,-5.458946824E-1
7.878154410E-1,1.251008606E1,5.016005516E0,-9.529213905E-1
7.898151740E-1,1.259388542E1,4.771789551E0,-1.194743156E0
7.918149070E-1,1.259149075E1,4.245049000E0,-1.716695070E0
7.938146400E-1,1.251966286E1,3.943370581E0,-1.975276709E0
7.958143730E-1,1.155477047E1,2.434977531E0,-3.167625666E0
7.978141730E-1,1.155477047E1,2.434977531E0,-3.167625666E0
7.998139060E-1,1.155477047E1,2.434977531E0,-3.167625666E0
8.018136390E-1,1.112619495E1,1.929785490E0,-3.308887720E0
8.038143050E-1,1.078381348E1,1.549095750E0,-3.337619066E0
8.058140380E-1,1.064255142E1,1.412622094E0,-3.347196102E0
8.078137710E-1,1.035763264E1,1.300091267E0,-3.332830429E0
8.098135040E-1,1.008708000E1,1.297696948E0,-3.311282158E0
8.118132370E-1,9.967366219E0,1.405439258E0,-3.227482557E0
8.138130370E-1,9.799766541E0,1.630501151E0,-3.241847992E0
8.158127700E-1,9.653716087E0,2.245829821E0,-3.126922846E0
8.178125030E-1,9.653716087E0,2.245829821E0,-3.126922846E0
8.198122360E-1,9.624984741E0,2.382303476E0,-3.105374336E0
8.218119690E-1,9.579493523E0,2.502017260E0,-3.095797300E0
8.238117020E-1,9.433443069E0,2.729473352E0,-3.086220264E0
8.258114350E-1,9.253871918E0,2.942563772E0,-3.076643229E0
8.278111680E-1,9.129369736E0,3.019180536E0,-3.045517445E0
8.298109680E-1,8.882759094E0,3.138894320E0,-2.875524044E0
8.318107010E-1,8.746285439E0,3.191568375E0,-2.748627424E0
8.338110340E-1,8.475732803E0,3.253819466E0,-2.516382933E0
8.358098670E-1,7.915472507E0,3.217905283E0,-2.200338602E0
8.378096000E-1,7.915472507E0,3.217905283E0,-2.200338602E0
8.398089660E-1,7.726325035E0,3.091008663E0,-2.169213057E0
8.418091320E-1,7.211555958E0,2.446948767E0,-2.159635782E0
8.438088650E-1,6.945791245E0,1.999219418E0,-2.188367128E0
8.458086650E-1,6.967339516E0,1.908236980E0,-2.310475111E0
8.478083980E-1,7.269018173E0,2.528354168E0,-2.516382933E0
8.498081310E-1,7.666468143E0,3.117345810E0,-2.638490915E0
8.518078640E-1,9.026415825E0,4.556304932E0,-2.865947008E0
8.538075970E-1,9.641744614E0,5.174027920E0,-2.885101080E0
8.558073300E-1,9.711178780E0,5.791750908E0,-1.886688590E0
8.578070630E-1,9.565128326E0,5.791750908E0,-1.585009933E0
8.598068630E-1,9.565128326E0,5.485283375E0,-1.585009933E0
8.618066630E-1,9.407105446E0,5.140508175E0,-1.333611012E0
8.638063960E-1,9.172467232E0,4.802915096E0,-1.082212210E0
8.658061290E-1,9.131764412E0,4.247443676E0,-1.067846537E0
8.678058620E-1,9.246688843E0,3.931399345E0,-1.211503029E0
8.698055950E-1,9.378374100E0,3.881119490E0,-1.376708031E0
8.718053280E-1,9.677659035E0,3.873936653E0,-1.826831698E0
8.738050610E-1,9.988914490E0,3.924216509E0,-2.399063349E0
8.758048610E-1,1.026186180E1,3.905062199E0,-3.071854591E0
8.778045940E-1,1.026186180E1,3.905062199E0,-3.071854591E0
8.798043270E-1,1.034326744E1,3.859570980E0,-3.268185139E0
8.818040600E-1,1.036960411E1,3.811685562E0,-3.311282158E0
8.838037930E-1,1.038875866E1,3.711125851E0,-3.301704884E0
8.858035260E-1,1.039594078E1,3.675211906E0,-3.323253393E0
8.878032590E-1,1.055396366E1,3.598595142E0,-3.397475958E0
8.898029920E-1,1.082212257E1,3.553103924E0,-3.445361376E0
8.918027920E-1,1.097774982E1,3.550709486E0,-3.438178539E0
8.938025580E-1,1.112380123E1,3.486064196E0,-3.562680960E0
8.958032240E-1,1.066409969E1,3.344801903E0,-4.187586784E0
8.978030240E-1,1.066409969E1,3.344801903E0,-4.187586784E0
8.998030570E-1,1.041988373E1,3.340013266E0,-4.340820312E0
9.018028230E-1,9.838075638E0,3.344801903E0,-4.491659641E0
9.038025890E-1,9.534002304E0,3.486064196E0,-4.613767624E0
9.058023550E-1,8.909096718E0,3.723097324E0,-4.391099930E0
9.078021880E-1,8.612206459E0,3.854782343E0,-4.300117493E0
9.098020540E-1,8.097437859E0,4.041535854E0,-4.132518291E0
9.118019200E-1,7.589851379E0,3.816473961E0,-4.046324253E0
9.138017860E-1,7.383943558E0,3.656057596E0,-4.166038036E0
9.158016520E-1,7.216344357E0,3.984073162E0,-5.688796997E0
9.178015180E-1,7.216344357E0,3.984073162E0,-5.688796997E0
9.198014510E-1,7.216344357E0,3.984073162E0,-5.688796997E0
9.218013170E-1,7.233104229E0,4.362368584E0,-6.059909344E0
9.238012500E-1,7.240286827E0,4.563488007E0,-6.177228928E0
9.258011830E-1,7.285778046E0,4.834040642E0,-6.232297421E0
9.278011160E-1,7.283383846E0,5.068679810E0,-5.961744308E0
9.298010490E-1,7.249864101E0,5.195576191E0,-5.789356709E0
9.318009820E-1,7.158881664E0,5.401484013E0,-5.497254848E0
9.338009150E-1,7.110996246E0,5.569083214E0,-5.075862408E0
9.358008480E-1,6.581861496E0,5.382329941E0,-2.482862949E0
9.378008480E-1,6.581861496E0,5.382329941E0,-2.482862949E0
9.398014480E-1,6.352011204E0,5.382329941E0,-1.867534399E0
9.418014140E-1,6.114977837E0,5.063891411E0,-1.383890867E0
9.438013800E-1,5.542746067E0,4.412648678E0,-5.171633363E-1
9.458013460E-1,5.257827282E0,4.041535854E0,-6.225114316E-2
9.478013120E-1,4.709538460E0,3.790137053E0,1.556278586E0
9.498012780E-1,4.106181145E0,4.113364220E0,2.430188894E0
9.518008110E-1,3.701548815E0,4.089421272E0,3.567469418E-1
9.538008110E-1,3.624932051E0,4.829252243E0,-5.439792156E0
9.558008110E-1,5.693585396E0,6.581861496E0,-1.093465328E1
9.578007770E-1,5.693585396E0,6.581861496E0,-1.093465328E1
9.598004770E-1,6.227508545E0,6.905088425E0,-1.112858963E1
9.618004430E-1,6.691998005E0,7.178035736E0,-1.106394386E1
9.638004090E-1,7.221132755E0,7.527599812E0,-1.009426212E1
9.658003750E-1,7.125361919E0,7.577879906E0,-8.221940041E0
9.678009410E-1,6.905088425E0,7.532388687E0,-7.314509392E0
9.698008740E-1,6.119766235E0,7.415069103E0,-5.478100777E0
9.718008070E-1,5.087833881E0,7.314509392E0,-3.768588543E0
9.738007400E-1,4.601796150E0,7.345634937E0,-3.141288519E0
9.758006730E-1,3.524372578E0,7.496474266E0,-1.687963724E0
9.778006060E-1,3.524372578E0,7.419857502E0,-1.484450340E0
9.798011720E-1,3.524372578E0,7.419857502E0,-1.484450340E0
9.818011050E-1,3.363956213E0,7.058321953E0,-1.283331275E0
9.838010380E-1,3.323253393E0,6.907482624E0,-1.355159521E0
9.858009710E-1,3.531555414E0,6.653689861E0,-2.006402254E0
9.878008370E-1,3.981678963E0,6.399896622E0,-3.035940409E0
9.898007030E-1,4.242654800E0,6.440599442E0,-3.584229469E0
9.918005690E-1,4.597007751E0,6.696786404E0,-4.537150860E0
9.938004350E-1,4.872349262E0,6.814105988E0,-5.209941864E0
9.958003010E-1,5.262616158E0,6.857203007E0,-5.686402798E0
9.978001670E-1,5.387118340E0,6.986494064E0,-5.660065651E0
9.997994330E-1,5.387118340E0,6.986494064E0,-5.660065651E0
1.001799333E0,5.547534943E0,7.278595448E0,-5.355992794E0
1.003799066E0,5.509226322E0,7.513234138E0,-4.743058205E0
1.005798899E0,5.444581032E0,7.613793850E0,-4.338426113E0
1.007798732E0,5.243461609E0,7.941809654E0,-3.351984739E0
1.009798565E0,4.987274647E0,8.238699913E0,-2.341600657E0
1.011798831E0,4.814886570E0,8.418270111E0,-1.922602654E0
1.013798664E0,4.644893169E0,8.842057228E0,-1.304879785E0
1.015798764E0,4.915446281E0,9.553156853E0,-9.002473354E-1
1.017798630E0,5.018400192E0,9.725543976E0,-9.146129489E-1
1.019798463E0,5.018400192E0,9.725543976E0,-9.146129489E-1
1.021798263E0,5.104593754E0,9.866806030E0,-9.624984860E-1
1.023798063E0,5.183605194E0,1.003680038E1,-1.063058019E0
1.025797863E0,5.190787792E0,1.011341667E1,-1.125309110E0
1.027797063E0,5.159662247E0,1.011102295E1,-1.154040456E0
1.029796863E0,5.087833881E0,1.008708000E1,-1.235445857E0
1.031796663E0,5.056708336E0,1.010623360E1,-1.278542757E0
1.033796463E0,5.035160065E0,1.012299347E1,-1.376708031E0
1.035796196E0,5.061496735E0,1.000567436E1,-1.491633177E0
1.037795862E0,5.104593754E0,9.945817947E0,-1.561067224E0
1.039796928E0,5.128536701E0,9.917086601E0,-1.637683988E0
1.041796661E0,5.051919937E0,9.888355255E0,-1.879505754E0
1.043796394E0,4.980091572E0,9.838075638E0,-2.018373728E0
1.045796127E0,4.860377789E0,9.682447433E0,-2.298503876E0
1.047795927E0,4.757423878E0,9.426259995E0,-2.592999697E0
1.049795727E0,4.733481407E0,9.268238068E0,-2.743839025E0
1.051795460E0,4.721509933E0,8.961771011E0,-3.074248791E0
1.053795193E0,4.647287369E0,8.791776657E0,-3.265790939E0
1.055795393E0,3.603383541E0,8.111803055E0,-4.364762783E0
1.057795126E0,3.632114887E0,8.116591454E0,-4.628133297E0
1.059794859E0,3.632114887E0,8.116591454E0,-4.628133297E0
1.061794592E0,3.957736254E0,8.159688950E0,-5.092622280E0
1.063794492E0,4.525179386E0,8.190814018E0,-5.480494976E0
1.065794225E0,4.836435318E0,8.183630943E0,-5.624151707E0
1.067793958E0,5.341627121E0,8.118986130E0,-5.719922543E0
1.069793691E0,5.504437923E0,8.037580490E0,-5.679219723E0
1.071793424E0,5.712739468E0,7.829278469E0,-5.420638084E0
1.073793157E0,5.525986195E0,7.467742920E0,-4.970514297E0
1.075792623E0,4.690384388E0,6.866780281E0,-3.684788942E0
1.077792356E0,4.690384388E0,6.866780281E0,-3.684788942E0
1.079791256E0,4.419831276E0,6.773403645E0,-3.450150013E0
1.081790989E0,4.115758419E0,6.624958515E0,-3.347196102E0
1.083790722E0,3.361561775E0,5.978504181E0,-3.299310684E0
1.085790455E0,2.648067951E0,5.597814560E0,-3.466909885E0
1.087790188E0,2.351177931E0,4.920234680E0,-3.622537851E0
1.089789921E0,1.874717116E0,4.324060440E0,-3.940976381E0
1.091789654E0,1.711906433E0,4.048718929E0,-4.091815472E0
1.093789387E0,1.611346960E0,3.691971779E0,-4.465322495E0
1.095789187E0,1.786128998E0,3.421418667E0,-4.580247879E0
1.097788987E0,1.879505754E0,3.529160976E0,-4.400677204E0
1.099786620E0,1.879505754E0,3.529160976E0,-4.400677204E0
1.101786353E0,2.063864946E0,4.019987583E0,-4.067873001E0
1.103786086E0,2.133298874E0,4.381523132E0,-3.962524891E0
1.105785819E0,2.130904675E0,5.233884811E0,-3.888302326E0
1.107785552E0,2.051893473E0,5.660065651E0,-3.909850836E0
1.109785285E0,1.814860344E0,6.481301785E0,-3.869148016E0
1.111785085E0,1.513181686E0,7.182824612E0,-3.615355015E0
1.113784818E0,1.371919513E0,7.513234138E0,-3.445361376E0
1.115784084E0,1.333611012E0,9.124581337E0,-3.079037428E0
1.117783817E0,1.455719113E0,9.545973778E0,-3.052700281E0
1.119783550E0,1.455719113E0,9.545973778E0,-3.052700281E0
1.121783283E0,1.716695070E0,1.028580475E1,-2.968900681E0
1.123783016E0,1.805283189E0,1.059227180E1,-2.875524044E0
1.125782816E0,1.934574008E0,1.111422348E1,-2.537931204E0
1.127782616E0,1.960911036E0,1.145181656E1,-2.231464148E0
1.129782349E0,1.927391171E0,1.158829021E1,-2.092596292E0
1.131782082E0,1.845985889E0,1.182053471E1,-1.845985889E0
1.133781815E0,1.769369125E0,1.194982529E1,-1.637683988E0
1.135781548E0,1.723877907E0,1.179180336E1,-1.113337755E0
1.137781281E0,1.723877907E0,1.179180336E1,-1.113337755E0
1.139781881E0,1.738243461E0,1.167448425E1,-1.043903828E0
1.141781681E0,1.764580488E0,1.152603912E1,-1.019961119E0
1.143781414E0,1.790917516E0,1.124830341E1,-9.672870040E-1
1.145781147E0,1.757397652E0,1.113577175E1,-9.361614585E-1
1.147780880E0,1.400650740E0,1.107112694E1,-7.087053657E-1
1.149780613E0,9.816526771E-1,1.119802284E1,-4.429408312E-1
1.151780346E0,8.906702399E-1,1.126985168E1,-3.878725171E-1
1.153780079E0,9.888355136E-1,1.138477707E1,-6.775797606E-1
1.155779812E0,1.766974807E0,1.093944168E1,-2.411034822E0
1.157779612E0,1.766974807E0,1.093944168E1,-2.411034822E0
1.159779345E0,1.944151163E0,1.074071693E1,-2.506805658E0
1.161779078E0,2.075836182E0,1.053241444E1,-2.329629421E0
1.163778811E0,2.068653345E0,1.018045616E1,-1.304879785E0
1.165778544E0,1.664021015E0,9.881172180E0,4.549122229E-2
1.167778277E0,1.333611012E0,9.773429871E0,5.818088055E-1
1.169778010E0,5.842030644E-1,9.579493523E0,1.278542757E0
1.171777743E0,-6.464541703E-2,9.366402626E0,1.453324795E0
1.173777543E0,-3.040728867E-1,9.251478195E0,1.424593568E0
1.175777276E0,-6.823683381E-1,8.822902679E0,1.048692346E0
1.177777009E0,-6.823683381E-1,8.822902679E0,1.048692346E0
1.179776775E0,-6.656084061E-1,8.691217422E0,9.481328130E-1
1.181776508E0,-5.674431324E-1,8.490098000E0,8.954587579E-1
1.183776241E0,-4.956148863E-1,8.432636261E0,8.451790214E-1
1.185775974E0,-3.304099143E-1,8.396721840E0,7.685621977E-1
1.187775707E0,-1.987248063E-1,8.305739403E0,7.158881426E-1
1.189775507E0,-1.364736706E-1,8.238699913E0,6.464542150E-1
1.191775240E0,4.788549617E-2,8.174054146E0,4.142095447E-1
1.193774973E0,2.609759569E-1,8.152505875E0,1.364736706E-1
1.195774706E0,6.560313106E-1,8.008849144E0,-8.499675393E-1
1.197774439E0,6.560313106E-1,8.008849144E0,-8.499675393E-1
1.199774172E0,6.560313106E-1,8.008849144E0,-8.499675393E-1
1.201773905E0,9.601042271E-1,8.104619980E0,-1.573038578E0
1.203773705E0,1.247417212E0,8.186025620E0,-2.308080912E0
1.205773505E0,1.362342358E0,8.190814018E0,-2.624125242E0
1.207773238E0,1.556278586E0,8.102226257E0,-3.031152010E0
1.209772971E0,1.841197371E0,8.128562927E0,-3.280156374E0
1.211772704E0,2.023162127E0,8.195602417E0,-3.414235830E0
1.213772437E0,2.334417820E0,8.298556328E0,-3.749434233E0
1.215772170E0,2.415823221E0,8.099831581E0,-4.687990189E0
1.217771903E0,2.415823221E0,8.099831581E0,-4.687990189E0
1.219771703E0,2.387091875E0,7.996877670E0,-4.927417755E0
1.221771436E0,2.367937803E0,7.891529560E0,-5.135719299E0
1.223771169E0,2.389486313E0,7.711959362E0,-5.346415520E0
1.225770902E0,2.518777132E0,7.659285069E0,-5.461340904E0
1.227770635E0,2.552296877E0,7.599428177E0,-5.394300938E0
1.229770368E0,2.533142805E0,7.443800449E0,-4.963331699E0
1.231770101E0,2.420611858E0,7.371972084E0,-4.364762783E0
1.233769834E0,2.391880512E0,7.403097630E0,-4.142095566E0
1.235769634E0,1.965699673E0,7.620976925E0,-3.375927448E0
1.237769367E0,1.965699673E0,7.620976925E0,-3.375927448E0
1.239769067E0,1.774157643E0,7.731113434E0,-3.198751211E0
1.241768800E0,1.321639657E0,8.059128761E0,-2.853975534E0
1.243768533E0,1.144463301E0,8.269824982E0,-2.739050388E0
1.245768266E0,8.212362528E-1,8.717555046E0,-2.497228622E0
1.247767999E0,5.889915824E-1,9.273026466E0,-2.209915638E0
1.249767732E0,5.387118459E-1,9.562733650E0,-2.023162127E0
1.251767532E0,5.243461728E-1,1.013017654E1,-1.453324795E0
1.253767265E0,5.506832004E-1,1.039115238E1,-1.084606528E0
1.255766998E0,8.068706393E-1,1.140871906E1,8.763045669E-1
1.257766731E0,8.068706393E-1,1.140871906E1,8.763045669E-1
1.259766764E0,8.068706393E-1,1.140871906E1,8.763045669E-1
1.261766497E0,8.427847624E-1,1.152125072E1,1.594586968E0
1.263766230E0,8.954587579E-1,1.160505009E1,2.063864946E0
1.265765963E0,8.978530765E-1,1.157871342E1,2.200338602E0
1.267765763E0,8.260248303E-1,1.143745041E1,2.394274712E0
1.269765496E0,7.781392932E-1,1.132970810E1,2.772570133E0
1.271765229E0,7.877163887E-1,1.110464668E1,2.971295118E0
1.273764962E0,8.475732803E-1,1.083169937E1,3.153259993E0
1.275764695E0,1.019961119E0,1.023313046E1,2.324840784E0
1.277764428E0,1.019961119E0,1.023313046E1,2.324840784E0
1.279764161E0,9.864411950E-1,1.000806904E1,1.987248063E0
1.281763961E0,9.409499764E-1,9.775823593E0,1.573038578E0
1.283763761E0,7.733507752E-1,9.273026466E0,7.326480746E-1
1.285763494E0,5.794144869E-1,8.810931206E0,-5.985686928E-2
1.287763227E0,4.716721475E-1,8.571503639E0,-3.830839694E-1
1.289762960E0,3.567469418E-1,8.166871071E0,-1.197137356E0
1.291762693E0,3.950553536E-1,7.992089272E0,-1.644866824E0
1.293762426E0,4.549122155E-1,7.494080067E0,-2.434977531E0
1.295762159E0,3.519583941E-1,5.760625362E0,-3.768588543E0
1.297761959E0,3.519583941E-1,5.760625362E0,-3.768588543E0
1.299761759E0,1.963305324E-1,5.480494976E0,-3.926610708E0
1.301761492E0,-7.901106775E-2,5.933012962E0,-3.150865555E0
1.303761225E0,-2.154847383E-1,6.486090660E0,-2.492439985E0
1.305760958E0,-3.878725171E-1,7.707170486E0,-1.568249941E0
1.307760691E0,-3.687183261E-1,8.322499275E0,-1.331216812E0
1.309760424E0,2.633702382E-2,9.399923325E0,-1.264177084E0
1.311760157E0,7.494080067E-1,1.023073673E1,-1.642472506E0
1.313759957E0,1.118126392E0,1.052044392E1,-1.879505754E0
1.315759690E0,1.757397652E0,1.070240879E1,-2.602576733E0
1.317759423E0,1.656838179E0,1.056593513E1,-2.621730804E0
1.319758856E0,1.656838179E0,1.056593513E1,-2.621730804E0
1.321758589E0,1.268965602E0,1.011341667E1,-2.478074312E0
1.323758322E0,8.834874034E-1,9.632167816E0,-1.721483588E0
1.325758055E0,7.374366522E-1,9.462174416E0,-1.180377483E0
1.327757788E0,6.296942830E-1,9.268238068E0,1.747820675E-1
1.329757588E0,6.081457734E-1,9.256266594E0,9.792584181E-1
1.331757321E0,4.094209969E-1,9.146129608E0,2.497228622E0
1.333757054E0,4.525179267E-1,9.148524284E0,3.794925690E0
1.335756787E0,8.044763207E-1,9.313729286E0,5.130930901E0
1.337756520E0,8.044763207E-1,9.313729286E0,5.130930901E0
1.339756286E0,8.691217303E-1,9.320911407E0,4.915446281E0
1.341756019E0,9.050358534E-1,9.335277557E0,4.585036278E0
1.343755752E0,9.481328130E-1,9.354432106E0,3.842811108E0
1.345755552E0,8.906702399E-1,9.282603264E0,3.380716085E0
1.347755285E0,6.608198285E-1,9.112609863E0,2.291321039E0
1.349755018E0,4.046324492E-1,8.952193260E0,1.240234375E0
1.351754751E0,3.328042030E-1,8.904308319E0,8.188419938E-1
1.353754484E0,1.532335877E-1,8.844450951E0,2.106961906E-1
1.355754217E0,2.777358890E-1,9.031204224E0,-6.177229285E-1
1.357753917E0,2.777358890E-1,9.031204224E0,-6.177229285E-1
1.359753250E0,2.825244367E-1,9.040781975E0,-8.691217303E-1
1.361753050E0,2.059076279E-1,9.033598900E0,-1.235445857E0
1.363752783E0,2.035133541E-1,9.136552811E0,-1.388679385E0
1.365752516E0,2.537931204E-1,9.466962814E0,-1.585009933E0
1.367752249E0,3.064671755E-1,9.624984741E0,-1.532335877E0
1.369751982E0,4.285751879E-1,9.852440834E0,-1.331216812E0
1.371751715E0,6.536370516E-1,9.988914490E0,-1.185166001E0
1.373751448E0,7.613793612E-1,1.007271385E1,-1.022355318E0
1.375751248E0,9.912297726E-1,1.024031353E1,-2.992843390E-1
1.377751048E0,1.058269501E0,1.024031353E1,-1.699935049E-1
1.379750814E0,1.058269501E0,1.033368969E1,-1.699935049E-1
1.381750580E0,1.221080184E0,1.047495270E1,7.422251999E-2
1.383750346E0,1.285725594E0,1.056354046E1,5.746259540E-2
1.385750112E0,1.383890867E0,1.068564892E1,0.000000000E0
1.387749878E0,1.355159521E0,1.069761944E1,1.292908341E-1
1.389749644E0,1.333611012E0,1.069283104E1,1.652049571E-1
1.391749477E0,1.522758722E0,1.064015770E1,-4.788549617E-3
1.393749243E0,1.671203852E0,1.050128937E1,-2.490045726E-1
1.395749009E0,1.822043180E0,1.007750225E1,-8.523618579E-1
1.397748775E0,1.822043180E0,1.007750225E1,-8.523618579E-1
1.399750041E0,1.802888989E0,1.007750225E1,-9.098244309E-1
1.401749807E0,1.728666425E0,9.754275322E0,-1.024749637E0
1.403749573E0,1.616135478E0,9.529213905E0,-1.331216812E0
1.405749339E0,1.525153041E0,9.426259995E0,-1.391073704E0
1.407749172E0,1.142069101E0,9.390345573E0,-1.362342358E0
1.409748938E0,8.475732803E-1,9.323306084E0,-1.472478986E0
1.411748704E0,7.182824612E-1,9.263449669E0,-1.587404251E0
1.413748470E0,3.232271075E-1,9.229928970E0,-1.592192769E0
1.415748236E0,-5.267404765E-2,8.937828064E0,-2.004008055E0
1.417748036E0,-5.267404765E-2,8.937828064E0,-2.004008055E0
1.419748202E0,-1.388679445E-1,8.921068192E0,-2.080624819E0
1.421747968E0,-2.657645047E-1,8.954587936E0,-2.071047783E0
1.423747801E0,-6.320885420E-1,9.043175697E0,-2.008796453E0
1.425747567E0,-1.005595446E0,9.136552811E0,-1.994430900E0
1.427747333E0,-1.156434774E0,9.165284157E0,-2.037527800E0
1.429747099E0,-1.486844659E0,9.263449669E0,-2.169213057E0
1.431746865E0,-1.769369125E0,9.486116409E0,-2.150058746E0
1.433746631E0,-1.819648862E0,9.565128326E0,-2.157241583E0
1.435746397E0,-1.783734679E0,9.703995705E0,-1.958516836E0
1.437746163E0,-1.889082789E0,9.670475960E0,-1.877111435E0
1.439745963E0,-1.889082789E0,9.670475960E0,-1.877111435E0
1.441745696E0,-2.190761566E0,9.632167816E0,-1.613741279E0
1.443745429E0,-2.253012657E0,9.615407944E0,-1.501210332E0
1.445745162E0,-2.305686712E0,9.610619545E0,-1.336005330E0
1.447744895E0,-2.360754967E0,9.636956215E0,-1.046298146E0
1.449744628E0,-2.329629421E0,9.703995705E0,-9.720755816E-1
1.451744361E0,-2.320052385E0,9.953000069E0,-9.194015265E-1
1.453744161E0,-2.279349566E0,9.972154617E0,-9.912297726E-1
1.455743961E0,-2.535537004E0,9.565128326E0,-5.889915824E-1
1.457743694E0,-2.535537004E0,9.565128326E0,-5.889915824E-1
1.459743460E0,-2.535537004E0,9.565128326E0,-5.889915824E-1
1.461743193E0,-2.614548206E0,9.407105446E0,-4.980091453E-1
1.463742926E0,-2.753416061E0,9.335277557E0,-2.657645047E-1
1.465742659E0,-2.820455790E0,9.241900444E0,-2.753416002E-1
1.467742392E0,-3.021574736E0,8.988107681E0,-3.399870098E-1
1.469742192E0,-3.318464994E0,8.739103317E0,-4.046324492E-1
1.471741992E0,-3.490852594E0,8.772623062E0,-3.256213665E-1
1.473741725E0,-3.706337452E0,8.655303001E0,-4.213923812E-1
1.475741925E0,-4.094210148E0,8.672063828E0,-2.897072434E-1
1.477741658E0,-4.094210148E0,8.672063828E0,-2.897072434E-1
1.479741591E0,-4.374340057E0,8.767834663E0,-2.298503816E-1
1.481741324E0,-4.635315895E0,8.751074791E0,-1.316851079E-1
1.483741057E0,-4.881926537E0,8.593051910E0,-7.182824425E-3
1.485740857E0,-4.850800991E0,8.736708641E0,1.580221355E-1
1.487740590E0,-4.807703972E0,8.877970695E0,2.154847383E-1
1.489740323E0,-4.767001152E0,9.045570374E0,2.777358890E-1
1.491740056E0,-4.989668846E0,9.107821465E0,2.753416002E-1
1.493739789E0,-5.047131062E0,9.179649353E0,2.681587934E-1
1.495739522E0,-4.501236439E0,9.438231468E0,5.530774593E-1
1.497739255E0,-4.501236439E0,9.438231468E0,5.530774593E-1
1.499739055E0,-4.482082367E0,9.483722687E0,6.703969240E-1
1.501738855E0,-4.400677204E0,9.462174416E0,6.823683381E-1
1.503738588E0,-4.290540695E0,9.409500122E0,6.584255695E-1
1.505738321E0,-4.182797909E0,9.438231468E0,7.518022656E-1
1.507738054E0,-4.132518291E0,9.433443069E0,6.943396926E-1
1.509737787E0,-4.137306690E0,9.335277557E0,6.416656375E-1
1.511737520E0,-4.199557781E0,9.107821465E0,5.794144869E-1
1.513737253E0,-4.137306690E0,8.992896080E0,5.937801600E-1
1.515736986E0,-3.998438835E0,8.190814018E0,8.044763207E-1
1.517736752E0,-3.998438835E0,8.190814018E0,8.044763207E-1
1.519735185E0,-3.998438835E0,8.190814018E0,8.044763207E-1
1.521734918E0,-3.909850836E0,7.699987888E0,7.948992252E-1
1.523734651E0,-4.149278164E0,7.173247337E0,8.308133483E-1
1.525734384E0,-4.292934895E0,6.864386082E0,9.026415944E-1
1.527734117E0,-4.376734257E0,5.985687256E0,9.050358534E-1
1.529733850E0,-4.369551659E0,5.284164429E0,8.164477348E-1
1.531733583E0,-4.539545059E0,3.081431627E0,7.446194887E-1
1.533733383E0,-5.200365067E0,-1.256994247E0,1.130097747E0
1.535732649E0,-7.494080067E0,-1.493548584E1,5.722316742E0
1.537732382E0,-7.494080067E0,-1.493548584E1,5.722316742E0
1.539732348E0,-8.056735039E0,-1.443987179E1,6.493273258E0
1.541732081E0,-8.674457550E0,-1.231614971E1,5.643305779E0
1.543731814E0,-1.002961731E1,-7.589851379E0,9.984126091E-1
1.545731547E0,-1.021876526E1,-5.363175392E0,-3.589017868E0
1.547731347E0,-9.828497887E0,-2.253012657E0,-4.896292210E0
1.549731147E0,-8.703188896E0,-9.313728809E-1,-5.631334305E0
1.551730880E0,-8.221940041E0,-5.411061049E-1,-5.700768471E0
1.553730613E0,-7.462954521E0,1.867534369E-1,-5.418243885E0
1.555730346E0,-6.507638931E0,-3.926610649E-1,-7.491685867E0
1.557730079E0,-6.548341751E0,-1.149251908E-1,-7.975329399E0
1.559728812E0,-6.548341751E0,-1.149251908E-1,-7.975329399E0
1.561728545E0,-6.929031372E0,7.230709791E-1,-7.379155159E0
1.563728345E0,-7.173247337E0,8.547561169E-1,-6.735095024E0
1.565728078E0,-7.304932594E0,1.333611012E0,-5.097411156E0
1.567727811E0,-6.567495823E0,2.004008055E0,-3.261002302E0
1.569727544E0,-3.996044636E0,4.192375183E0,1.836408734E0
1.571727277E0,-3.330436230E0,6.854808807E0,6.067092419E0
1.573727010E0,-3.739857197E0,7.798152924E0,7.369577885E0
1.575726743E0,-4.764606953E0,1.119562912E1,6.490879059E0
1.577726443E0,-4.764606953E0,1.119562912E1,6.490879059E0
1.579726909E0,-4.441379547E0,1.183489990E1,5.621757030E0
1.581726642E0,-3.445361376E0,1.268247414E1,3.775771379E0
1.583725942E0,-3.100585938E0,1.362342358E1,2.049499273E0
1.585725675E0,-3.330436230E0,1.395862198E1,1.087000728E0
1.587725408E0,-3.612960577E0,1.463620186E1,-4.644893110E-1
1.589725141E0,-3.421418667E0,1.500252628E1,-8.547561169E-1
1.591724874E0,-2.633702278E0,1.557715225E1,-2.825244367E-1
1.593724607E0,-1.850774407E0,1.539997578E1,2.406246185E0
1.595724407E0,-1.699935049E-1,1.513660526E1,5.595420361E0
1.597724140E0,-1.699935049E-1,1.513660526E1,5.595420361E0
1.599723440E0,-1.149251908E-1,1.455719090E1,5.463735104E0
1.601723173E0,-2.897072434E-1,1.366412640E1,4.992063046E0
1.603722906E0,-1.213897347E0,1.127464008E1,3.565075159E0
1.605721706E0,-1.807677507E0,9.969759941E0,2.842004299E0
1.607721439E0,-2.767781734E0,7.544359684E0,1.752609134E0
1.609721172E0,-4.477293968E0,5.885127544E0,4.237866402E-1
1.611720972E0,-5.296135902E0,5.375146866E0,2.011190802E-1
1.613720705E0,-6.601015568E0,5.382329941E0,1.034326673E0
1.615720438E0,-1.664021015E0,8.887548447E0,4.984879971E0
1.617720171E0,-1.664021015E0,8.887548447E0,4.984879971E0
1.619719904E0,-1.664021015E0,8.887548447E0,4.984879971E0
1.621719104E0,-2.772570133E0,9.332882881E0,4.841223717E0
1.623718837E0,-4.884320736E0,1.017327404E1,4.620950222E0
1.625718637E0,-4.620950222E0,1.109506989E1,4.039141655E0
1.627718437E0,-4.036747456E0,1.145421028E1,3.395081758E0
1.629718170E0,-3.143682718E0,1.159307861E1,1.652049661E0
1.631717903E0,-3.385504484E0,1.085564232E1,-3.591412306E-2
1.633717636E0,-3.869148016E0,1.041509533E1,-7.925049663E-1
1.635717369E0,-5.882733345E0,9.253871918E0,-2.760598898E0
1.637717135E0,-5.882733345E0,9.253871918E0,-2.760598898E0
1.639716868E0,-5.971321583E0,9.447808266E0,-3.124528646E0
1.641716668E0,-5.707951069E0,1.051326084E1,-3.720703125E0
1.643716834E0,-5.552323341E0,1.117408085E1,-3.849993944E0
1.645716567E0,-6.438204765E0,1.141590214E1,-4.759818554E0
1.647716300E0,-8.025609016E0,1.076226521E1,-5.425426483E0
1.649716033E0,-7.910684109E0,1.082212257E1,-5.640911579E0
1.651715766E0,-6.378347874E0,1.156913567E1,-6.062304020E0
1.653715499E0,-4.726298332E0,1.290514088E1,-5.968926907E0
1.655715232E0,-3.617749214E0,1.410227871E1,-4.498842239E0
1.657714998E0,-3.617749214E0,1.410227871E1,-4.498842239E0
1.659714731E0,-3.723097324E0,1.412382698E1,-3.689577579E0
1.661714464E0,-3.950553417E0,1.377426338E1,-1.901054144E0
1.663714197E0,-4.096604347E0,1.306795216E1,-5.698373914E-1
1.665714863E0,-4.364762783E0,1.257473087E1,2.418217510E-1
1.667714596E0,-4.929811954E0,1.138717079E1,1.582615614E0
1.669714329E0,-5.387118340E0,1.036721039E1,2.140481710E0
1.671714062E0,-5.549929142E0,1.010383987E1,2.157241583E0
1.673713862E0,-5.619362831E0,9.756669998E0,1.841197371E0
1.675713595E0,-5.442186832E0,1.040312386E1,1.505998850E0
1.677713328E0,-5.442186832E0,1.040312386E1,1.505998850E0
1.679713994E0,-5.157268047E0,1.075029373E1,1.460507631E0
1.681714260E0,-4.996851444E0,1.084367085E1,1.383890867E0
1.683713993E0,-4.726298332E0,1.104478931E1,1.228263021E0
1.685713726E0,-4.455745220E0,1.115253162E1,9.768640995E-1
1.687713459E0,-4.312088966E0,1.118605232E1,8.116591573E-1
1.689713259E0,-4.802915096E0,1.082212257E1,6.871568561E-1
1.691712992E0,-4.994457245E0,1.033847904E1,8.619389534E-1
1.693712725E0,-5.111776829E0,1.000806904E1,7.853221297E-1
1.695712458E0,-5.016005516E0,9.258660316E0,1.699935049E-1
1.697712224E0,-4.465322495E0,9.581888199E0,4.142095447E-1
1.699711090E0,-4.465322495E0,9.581888199E0,4.142095447E-1
1.701709890E0,-3.529160976E0,1.046537495E1,1.431776285E0
1.703709690E0,-3.208328247E0,1.089873886E1,1.927391171E0
1.705709490E0,-3.809291124E0,1.032171917E1,2.619336605E0
1.707709223E0,-3.766194344E0,9.680052757E0,3.160442829E0
1.709708956E0,-3.193962574E0,9.969759941E0,3.270579338E0
1.711708689E0,-3.000026226E0,1.082691097E1,2.576239586E0
1.713708422E0,-3.739857197E0,1.082691097E1,1.709512234E0
1.715708155E0,-5.394300938E0,9.464568138E0,-1.891477108E0
1.717707921E0,-5.312895775E0,9.380768776E0,-2.600182533E0
1.719707721E0,-5.312895775E0,9.380768776E0,-2.600182533E0
1.721707521E0,-5.296135902E0,9.574705124E0,-3.840416908E0
1.723707254E0,-5.727105141E0,9.505270958E0,-4.338426113E0
1.725706987E0,-5.664854050E0,9.371191978E0,-4.259414673E0
1.727706720E0,-4.458139896E0,9.984126091E0,-3.493247032E0
1.729706453E0,-4.398283005E0,1.047974110E1,-3.124528646E0
1.731706186E0,-4.359974384E0,1.104239559E1,-2.983266354E0
1.733705919E0,-4.091815472E0,1.095859623E1,-2.779752970E0
1.735705719E0,-2.784541607E0,1.128900528E1,-1.534730196E0
1.737705452E0,-2.762993097E0,1.148294163E1,-1.625712633E0
1.739704252E0,-2.762993097E0,1.148294163E1,-1.625712633E0
1.741703985E0,-3.119740009E0,1.133689117E1,-1.927391171E0
1.743703718E0,-4.240260601E0,9.804554939E0,-1.977671027E0
1.745703451E0,-4.288146019E0,8.243488312E0,-1.580221415E0
1.747703184E0,-3.404658794E0,8.274613380E0,-1.077423692E0
1.749702917E0,-1.838803053E0,9.033598900E0,-1.340793967E-1
1.751702717E0,-1.802888989E0,9.265843391E0,2.370332032E-1
1.753702450E0,-2.719896078E0,8.770228386E0,5.842030644E-1
1.755702183E0,-3.414235830E0,7.166064739E0,9.768640995E-1
1.757701849E0,-3.079037428E0,6.924242973E0,1.182771802E0
1.759702449E0,-2.837215662E0,6.885934353E0,1.383890867E0
1.761703115E0,-3.002420664E0,6.955368519E0,1.711906433E0
1.763702848E0,-3.071854591E0,6.919454098E0,1.924996972E0
1.765702581E0,-2.298503876E0,7.316903591E0,2.075836182E0
1.767702381E0,-2.166818619E0,7.407886028E0,1.989642382E0
1.769702114E0,-2.174001455E0,7.649707794E0,1.896265626E0
1.771701847E0,-2.363149166E0,7.764633179E0,1.731060743E0
1.773701580E0,-2.600182533E0,7.719141960E0,1.532335877E0
1.775701313E0,-1.984853864E0,8.925856590E0,6.703969240E-1
1.777701046E0,-2.123721838E0,9.189227104E0,6.608198285E-1
1.779700779E0,-2.123721838E0,9.189227104E0,6.608198285E-1
1.781700512E0,-2.250618219E0,9.636956215E0,6.488484740E-1
1.783700312E0,-2.485257149E0,9.646533012E0,6.464542150E-1
1.785700078E0,-3.055094719E0,9.397528648E0,5.578660369E-1
1.787699844E0,-3.727885962E0,8.825297356E0,2.418217510E-1
1.789699610E0,-3.670423269E0,8.775016785E0,-2.154847234E-2
1.791698976E0,-3.778165579E0,9.177255630E0,-4.046324492E-1
1.793698742E0,-5.200365067E0,9.993702888E0,-1.599375606E0
1.795698508E0,-2.561874151E0,1.271120453E1,-3.445361376E0
1.797698341E0,-2.561874151E0,1.315414619E1,-3.256213665E0
1.799698207E0,-2.561874151E0,1.315414619E1,-3.256213665E0
1.801697973E0,-2.150058746E0,1.376947403E1,-2.870735407E0
1.803697739E0,-1.031932473E0,1.496421719E1,-1.201925993E0
1.805697505E0,-8.858816624E-1,1.521801090E1,-2.106961906E-1
1.807697271E0,-1.470084786E0,1.480380154E1,1.108549237E0
1.809697037E0,-1.125309110E0,1.415255833E1,1.594586968E0
1.811696803E0,-1.268965602E0,1.395143890E1,1.628106833E0
1.813696636E0,-1.956122518E0,1.417410660E1,1.704723716E0
1.815696402E0,-3.031152010E0,1.409988403E1,4.429408312E-1
1.817696168E0,-2.628913641E0,1.396580505E1,-1.747820675E-1
1.819695934E0,-2.037527800E0,1.380538845E1,-6.488484740E-1
1.821695700E0,-1.941756845E0,1.345343018E1,-1.398256540E0
1.823695466E0,-2.250618219E0,1.273754215E1,-1.549095750E0
1.825695232E0,-3.562680960E0,1.136801720E1,-1.869928598E0
1.827694998E0,-3.917033672E0,1.182292938E1,-2.466102988E-1
1.829694831E0,-2.798907280E0,1.375271416E1,2.396669149E0
1.831694597E0,-8.858817071E-2,1.368806934E1,1.247417212E0
1.833694363E0,7.206767201E-1,1.300809479E1,5.291347504E-1
1.835694129E0,-8.523618579E-1,1.196419144E1,-3.328042030E-1
1.837693895E0,-8.523618579E-1,1.196419144E1,-3.328042030E-1
1.839693661E0,-1.180377483E0,1.188518047E1,-5.482889414E-1
1.841693427E0,-1.822043180E0,1.104478931E1,-9.385557175E-1
1.843693193E0,-2.066259146E0,1.065452290E1,-8.834874034E-1
1.845692993E0,-1.867534399E0,1.036002731E1,-6.081457734E-1
1.847692726E0,-2.083019018E0,1.022115898E1,-3.830839694E-1
1.849692459E0,-2.255406857E0,1.008468533E1,-2.083019018E-1
1.851692592E0,-2.269772530E0,1.000088596E1,1.125309169E-1
1.853692325E0,-2.094990492E0,1.019961071E1,3.567469418E-1
1.855692058E0,-1.707117915E0,1.039594078E1,6.440598965E-1
1.857691791E0,-1.707117915E0,1.039594078E1,6.440598965E-1
1.859692124E0,-1.740637779E0,1.031932449E1,7.182824612E-1
1.861691924E0,-1.675992370E0,1.021397591E1,7.853221297E-1
1.863691657E0,-1.889082789E0,9.852440834E0,1.084606528E0
1.865691390E0,-2.260195494E0,9.632167816E0,1.273754239E0
1.867691123E0,-3.859570980E0,8.858817101E0,1.673598051E0
1.869690856E0,-6.340039730E0,7.383943558E0,2.475680113E0
1.871690589E0,-8.114197731E0,6.186806202E0,3.363956213E0
1.873690322E0,-1.750454330E1,-4.788549617E-2,8.190814018E0
1.875689588E0,-4.837392807E1,-2.397147942E1,2.289405632E1
1.877689454E0,-4.837392807E1,-2.397147942E1,2.289405632E1
1.879689187E0,-3.744885254E1,-1.742553139E1,1.719328690E1
1.881688920E0,-2.654532433E1,-8.985713005E0,1.115013790E1
1.883688653E0,-6.325674057E0,7.386337757E0,-9.912297726E-1
1.885688386E0,9.675264359E0,1.883336639E1,-8.226728439E0
1.887688119E0,1.410706711E1,2.142397118E1,-9.984126091E0
1.889687852E0,1.772242165E1,2.267138863E1,-1.150449085E1
1.891687652E0,1.603685188E1,2.118933296E1,-1.280458164E1
1.893687385E0,1.453324795E1,2.019331360E1,-1.346061325E1
1.895686685E0,8.190814018E0,1.658514214E1,-1.118844604E1
1.897686418E0,8.190814018E0,1.658514214E1,-1.118844604E1
1.899686618E0,6.593832970E0,1.547419834E1,-9.771035194E0
1.901686351E0,2.573845387E0,1.275430202E1,-6.852414608E0
1.903686084E0,5.243461728E-1,1.133210278E1,-5.482889175E0
1.905685817E0,-3.043123245E0,8.956981659E0,-2.820455790E0
1.907685617E0,-5.585843086E0,7.826884270E0,-3.471698463E-1
1.909685350E0,-6.780586243E0,7.726325035E0,9.194015265E-1
1.911685083E0,-8.044763565E0,8.310527802E0,2.401457548E0
1.913684816E0,-8.255459785E0,8.753468513E0,3.016786337E0
1.915684549E0,-8.825297356E0,1.098732662E1,1.752609134E0
1.917684282E0,-8.825297356E0,1.098732662E1,1.752609134E0
1.919684315E0,-8.825297356E0,1.098732662E1,1.752609134E0
1.921684048E0,-8.025609016E0,1.188757420E1,8.116591573E-1
1.923683848E0,-7.240286827E0,1.240234375E1,-2.394274808E-2
1.925683581E0,-6.438204765E0,1.261543369E1,-3.950553536E-1
1.927683314E0,-5.056708336E0,1.326188850E1,-1.189954638E0
1.929683047E0,-3.184385538E0,1.374792576E1,-1.860351562E0
1.931682780E0,-2.027950764E0,1.394904518E1,-2.116539001E0
1.933682513E0,-6.225114316E-2,1.449015141E1,-2.631308079E0
1.935682779E0,5.650488377E0,1.525153065E1,-3.311282158E0
1.937682512E0,5.650488377E0,1.525153065E1,-3.311282158E0
1.939681445E0,5.650488377E0,1.525153065E1,-3.311282158E0
1.941681178E0,6.931425571E0,1.530659866E1,-3.560286522E0
1.943680911E0,8.806142807E0,1.514857674E1,-3.687183142E0
1.945680644E0,1.128900528E1,1.505759430E1,-4.355185986E0
1.947680377E0,1.234009266E1,1.488281250E1,-4.594613552E0
1.949680110E0,1.386524582E1,1.413819313E1,-4.824463844E0
1.951679843E0,1.464099026E1,1.354441261E1,-4.795732498E0
1.953679643E0,1.511505699E1,1.259388542E1,-5.281770229E0
1.955679876E0,1.506238270E1,1.097774982E1,-5.344021320E0
1.957679542E0,1.456676769E1,1.097774982E1,-5.418243885E0
1.959678808E0,1.364257812E1,9.885960579E0,-5.312895775E0
1.961678541E0,1.057790565E1,8.873182297E0,-4.762212753E0
1.963678274E0,8.856422424E0,8.526012421E0,-4.438985348E0
1.965678007E0,6.026389599E0,8.257853508E0,-3.804502726E0
1.967677740E0,4.285751820E0,8.466156006E0,-3.105374336E0
1.969677540E0,3.749434233E0,8.664880753E0,-2.789330244E0
1.971677340E0,3.047911882E0,9.026415825E0,-2.226675510E0
1.973677073E0,2.851581335E0,9.165284157E0,-1.960911036E0
1.975676806E0,2.494834423E0,9.205986977E0,-9.313728809E-1
1.977676539E0,2.494834423E0,9.205986977E0,-9.313728809E-1
1.979677105E0,2.494834423E0,9.205986977E0,-9.313728809E-1
1.981676838E0,2.420611858E0,8.980924606E0,-7.733507752E-1
1.983676571E0,2.104567528E0,8.952193260E0,-4.692778587E-1
1.985676371E0,1.982459545E0,8.949799538E0,-1.580221355E-1
1.987676137E0,2.008796453E0,8.928250313E0,4.285751879E-1
1.989675903E0,2.075836182E0,8.894730568E0,7.039167881E-1
1.991675669E0,2.150058746E0,8.942616463E0,1.405439258E0
1.993675435E0,2.126116037E0,8.892336845E0,2.037527800E0
1.995675201E0,1.484450340E0,8.626572609E0,3.038334846E0
1.997674967E0,1.484450340E0,8.626572609E0,3.038334846E0
1.999674767E0,1.199531674E0,8.751074791E0,3.203539610E0
2.001674600E0,1.175588965E0,8.865999222E0,3.356773376E0
2.003674166E0,1.649655342E0,9.004867554E0,3.732674360E0
2.005673966E0,1.956122518E0,9.031204224E0,4.015198708E0
2.007673766E0,1.936968327E0,8.976136208E0,3.996044636E0
2.009673566E0,1.802888989E0,8.901913643E0,3.648874760E0
2.011673366E0,1.812466025E0,9.007262230E0,3.349590540E0
2.013673166E0,2.430188894E0,9.490905762E0,2.571451187E0
2.015672966E0,4.151672363E0,1.050128937E1,1.345582485E0
2.017672899E0,4.151672363E0,1.050128937E1,1.345582485E0
2.019672765E0,4.233078003E0,1.064973450E1,1.130097747E0
2.021672631E0,4.034353256E0,1.079099655E1,7.230709791E-1
2.023672497E0,3.861965179E0,1.085803604E1,5.387118459E-1
2.025672363E0,3.488458395E0,1.097535610E1,2.130904645E-1
2.027672229E0,3.328042030E0,1.102084732E1,9.337671846E-2
2.029672095E0,2.758204460E0,1.104478931E1,-8.379961550E-2
2.031671961E0,2.142875910E0,1.094662476E1,-3.615354896E-1
2.033671894E0,1.989642382E0,1.085324764E1,-4.668835998E-1
2.035671760E0,1.376708031E0,1.042706680E1,-5.411061049E-1
2.037671626E0,1.268965602E0,1.038157558E1,-5.219519138E-1
2.039670659E0,1.268965602E0,1.038157558E1,-5.219519138E-1
2.041670525E0,1.077423692E0,1.034087276E1,-4.237866402E-1
2.043670391E0,7.877163887E-1,1.031932449E1,-3.830839694E-1
2.045670257E0,5.698373914E-1,1.019961071E1,-3.543526828E-1
2.047670157E0,6.703969836E-2,9.976943016E0,-5.650488734E-1
2.049670057E0,-2.705530524E-1,9.814132690E0,-7.541965842E-1
2.051669890E0,-1.053480864E0,9.232323647E0,-1.529941559E0
2.053669723E0,-1.374313712E0,8.731920242E0,-2.384697676E0
2.055669556E0,-1.343188167E0,8.300951004E0,-3.914639235E0
2.057669389E0,-1.343188167E0,8.300951004E0,-3.914639235E0
2.059669255E0,-1.142069101E0,8.300951004E0,-3.914639235E0
2.061669088E0,-9.792584181E-1,8.291373253E0,-4.309694767E0
2.063669188E0,-9.864411950E-1,8.351230621E0,-4.544333458E0
2.065668988E0,-1.048692346E0,8.408693314E0,-4.565882206E0
2.067668788E0,-1.058269501E0,8.662486076E0,-4.319271564E0
2.069668588E0,-9.217957854E-1,8.844450951E0,-3.562680960E0
2.071668388E0,-7.757450342E-1,8.909096718E0,-3.153259993E0
2.073668188E0,-2.059076279E-1,9.196409225E0,-2.164424419E0
2.075667988E0,1.290514112E0,1.017806244E1,1.915419847E-2
2.077667788E0,1.290514112E0,1.017806244E1,1.915419847E-2
2.079667588E0,1.628106833E0,1.040312386E1,5.746259689E-1
2.081667321E0,1.838803053E0,1.059706020E1,1.098972082E0
2.083667054E0,1.714300752E0,1.072874546E1,2.116539001E0
2.085666787E0,1.075029373E0,1.051326084E1,2.992843628E0
2.087666520E0,8.308133483E-1,1.031692982E1,3.237059593E0
2.089666253E0,6.249057055E-1,9.838075638E0,3.241847992E0
2.091665986E0,7.302538157E-1,9.423865318E0,2.791724443E0
2.093665719E0,7.972934842E-1,9.246688843E0,2.497228622E0
2.095665519E0,2.777358890E-1,9.177255630E0,9.792584181E-1
2.097665252E0,1.508393139E-1,9.177255630E0,9.792584181E-1
2.099664985E0,1.508393139E-1,9.227535248E0,6.320885420E-1
2.101664718E0,2.944957912E-1,9.265843391E0,2.106961906E-1
2.103664451E0,5.291347504E-1,9.320911407E0,1.316851079E-1
2.105664184E0,9.337671995E-1,9.567522049E0,9.337671846E-2
2.107663917E0,1.249811411E0,9.974549294E0,1.652049571E-1
2.109663650E0,1.391073704E0,1.009186840E1,2.370332032E-1
2.111663450E0,1.532335877E0,1.020918751E1,3.184385598E-1
2.113663183E0,1.383890867E0,1.027383327E1,3.399870098E-1
2.115662916E0,8.140534163E-1,1.018524456E1,1.245022863E-1
2.117662649E0,8.140534163E-1,1.018524456E1,1.245022863E-1
2.119662382E0,8.140534163E-1,1.018524456E1,1.245022863E-1
2.121662115E0,7.254652381E-1,1.003440571E1,-3.112557158E-2
2.123661848E0,6.344828010E-1,9.883566856E0,-9.098244458E-2
2.125661648E0,6.105400920E-1,9.790189743E0,-7.661679387E-2
2.127661448E0,5.219519138E-1,9.555550575E0,-4.070267081E-2
2.129661181E0,4.166038036E-1,9.462174416E0,-4.788549617E-2
2.131660914E0,3.830839694E-1,9.488511086E0,-8.619388938E-2
2.133660647E0,5.315290093E-1,9.613013268E0,-2.394274771E-1
2.135660380E0,6.608198285E-1,9.660899162E0,-4.668835998E-1
2.137660113E0,6.608198285E-1,9.660899162E0,-4.668835998E-1
2.139659846E0,6.296942830E-1,9.644139290E0,-4.980091453E-1
2.141659646E0,5.913859010E-1,9.634561539E0,-5.291347504E-1
2.143659379E0,5.482889414E-1,9.651321411E0,-5.794144869E-1
2.145659112E0,5.171633363E-1,9.670475960E0,-6.320885420E-1
2.147658845E0,5.051919818E-1,9.696812630E0,-6.464542150E-1
2.149658578E0,4.812492430E-1,9.747093201E0,-6.656084061E-1
2.151658311E0,4.692778587E-1,9.785401344E0,-6.632141471E-1
2.153658044E0,4.788549542E-1,9.806949615E0,-6.536370516E-1
2.155657777E0,5.195576549E-1,9.871595383E0,-5.698373914E-1
2.157657577E0,5.099805593E-1,9.881172180E0,-5.315290093E-1
2.159656443E0,5.099805593E-1,9.881172180E0,-5.315290093E-1
2.161656176E0,4.477293789E-1,9.902720451E0,-4.549122155E-1
2.163655909E0,4.333637357E-1,9.926663399E0,-4.261809289E-1
2.165655675E0,4.261809289E-1,9.964971542E0,-3.471698463E-1
2.167655408E0,3.998439014E-1,9.988914490E0,-2.657645047E-1
2.169655141E0,3.950553536E-1,1.000327969E1,-2.250618339E-1
2.171654874E0,3.543526828E-1,1.002722263E1,-1.460507661E-1
2.173654674E0,3.423812985E-1,1.004158878E1,-1.077423692E-1
2.175654407E0,2.418217510E-1,1.002482891E1,6.464541703E-2
2.177654140E0,2.418217510E-1,1.002482891E1,6.464541703E-2
2.179653740E0,2.418217510E-1,1.002482891E1,6.464541703E-2
2.181653473E0,1.771763414E-1,1.001285744E1,1.173194647E-1
2.183653206E0,1.340793967E-1,1.000567436E1,1.460507661E-1
2.185652639E0,1.077423692E-1,1.000088596E1,1.484450400E-1
2.187652372E0,-2.633702382E-2,9.974549294E0,1.915419847E-1
2.189652172E0,-1.580221355E-1,9.955394745E0,2.035133541E-1
2.191651905E0,-2.298503816E-1,9.921875000E0,2.298503816E-1
2.193651638E0,-3.806896806E-1,9.897932053E0,2.849186957E-1
2.195651371E0,-6.081457734E-1,9.900326729E0,3.399870098E-1
2.197651104E0,-6.081457734E-1,9.900326729E0,3.399870098E-1
2.199650837E0,-6.536370516E-1,9.905115128E0,3.471698463E-1
2.201650570E0,-7.015225291E-1,9.926663399E0,3.543526828E-1
2.203650370E0,-8.164477348E-1,9.969759941E0,3.759011328E-1
2.205650170E0,-9.361614585E-1,9.998491287E0,3.854782581E-1
2.207649903E0,-9.984126091E-1,1.001525116E1,3.711125851E-1
2.209649636E0,-1.103760719E0,1.007271385E1,3.351984620E-1
2.211648469E0,-1.132491946E0,1.010144520E1,3.184385598E-1
2.213648202E0,-1.197137356E0,1.013496494E1,2.825244367E-1
2.215647935E0,-1.359948039E0,1.025467873E1,1.771763414E-1
2.217647668E0,-1.359948039E0,1.025467873E1,1.771763414E-1
2.219648334E0,-1.422199249E0,1.028101635E1,1.484450400E-1
2.221648134E0,-1.515576005E0,1.033847904E1,8.858817071E-2
2.223647867E0,-1.565855742E0,1.036481571E1,6.225114316E-2
2.225647567E0,-1.695146561E0,1.020439911E1,1.556278616E-1
2.227647300E0,-2.138087511E0,9.984126091E0,3.351984620E-1
2.229647033E0,-2.310475111E0,9.548367500E0,8.427847624E-1
2.231646766E0,-2.473285913E0,9.380768776E0,1.271359921E0
2.233646499E0,-2.427794695E0,9.433443069E0,1.429382086E0
2.235646299E0,-1.177983165E0,1.047495270E1,1.383890867E0
2.237645999E0,-1.177983165E0,1.047495270E1,1.383890867E0
2.239646032E0,-1.177983165E0,1.047495270E1,1.383890867E0
2.241645765E0,-5.698373914E-1,1.095141315E1,1.118126392E0
2.243645498E0,-1.412622184E-1,1.126985168E1,8.260248303E-1
2.245645531E0,6.943397224E-2,1.137998772E1,6.727912426E-1
2.247645264E0,3.759011328E-1,1.150927925E1,3.878725171E-1
2.249644997E0,4.525179267E-1,1.151885605E1,2.633702159E-1
2.251644797E0,5.219519138E-1,1.149251938E1,6.464541703E-2
2.253644097E0,6.225114465E-1,1.142787361E1,-1.245022863E-1
2.255643830E0,8.451790214E-1,1.134646797E1,-3.998439014E-1
2.257643563E0,8.451790214E-1,1.134646797E1,-3.998439014E-1
2.259643396E0,8.451790214E-1,1.130337143E1,-4.357580245E-1
2.261643129E0,8.284190893E-1,1.125069714E1,-4.620950520E-1
2.263642862E0,7.589851022E-1,1.119084072E1,-4.860377908E-1
2.265642595E0,7.230709791E-1,1.114774323E1,-4.812492430E-1
2.267642395E0,6.488484740E-1,1.107591534E1,-4.764606953E-1
2.269642128E0,5.051919818E-1,1.104718399E1,-4.764606953E-1
2.271642761E0,4.166038036E-1,1.103281784E1,-4.692778587E-1
2.273642494E0,2.992843390E-1,1.105436707E1,-4.573064744E-1
2.275642227E0,1.197137386E-1,1.111661816E1,-4.046324492E-1
2.277641960E0,1.197137386E-1,1.111661816E1,-4.046324492E-1
2.279641593E0,9.816526622E-2,1.113337803E1,-3.735068738E-1
2.281641326E0,4.309694469E-2,1.115492630E1,-3.256213665E-1
2.283641126E0,1.675992459E-2,1.119323444E1,-2.992843390E-1
2.285640859E0,-2.873129770E-2,1.123633194E1,-2.537931204E-1
2.287640592E0,-3.351984918E-2,1.126506329E1,-2.442160249E-1
2.289640325E0,-2.154847234E-2,1.129379463E1,-2.537931204E-1
2.291640058E0,-1.675992459E-2,1.131773663E1,-3.016786277E-1
2.293639791E0,-2.154847234E-2,1.131773663E1,-3.399870098E-1
2.295639524E0,-3.351984918E-2,1.129618835E1,-5.291347504E-1
2.297639357E0,-3.351984918E-2,1.128661156E1,-5.291347504E-1
2.299638857E0,-3.351984918E-2,1.128661156E1,-5.291347504E-1
2.301638590E0,-4.788549617E-2,1.121717739E1,-6.201171875E-1
2.303638323E0,-5.985686928E-2,1.118844604E1,-6.584255695E-1
2.305638056E0,-5.506832153E-2,1.114056110E1,-7.398309112E-1
2.307637789E0,-5.027977005E-2,1.109985828E1,-8.092648983E-1
2.309637522E0,-4.788549617E-2,1.108788681E1,-8.379961848E-1
2.311637255E0,-3.112557158E-2,1.108070374E1,-8.834874034E-1
2.313637488E0,1.675992459E-2,1.108070374E1,-9.577099085E-1
2.315637221E0,1.101366431E-1,1.107591534E1,-1.206714511E0
2.317636954E0,1.101366431E-1,1.107591534E1,-1.206714511E0
2.319636587E0,1.149251908E-1,1.107591534E1,-1.206714511E0
2.321636320E0,1.197137386E-1,1.107591534E1,-1.328822494E0
2.323636053E0,1.484450400E-1,1.106633854E1,-1.453324795E0
2.325635786E0,1.747820675E-1,1.104239559E1,-1.510787368E0
2.327635519E0,2.250618339E-1,1.103042412E1,-1.652049661E0
2.329635319E0,2.154847383E-1,1.097774982E1,-1.755003452E0
2.331635052E0,2.178790122E-1,1.095380688E1,-1.802888989E0
2.333634785E0,2.178790122E-1,1.089155579E1,-1.862745762E0
2.335634518E0,1.819648892E-1,1.087000751E1,-1.786128998E0
2.337634251E0,1.963305324E-1,1.087000751E1,-1.786128998E0
2.339633251E0,1.963305324E-1,1.087240219E1,-1.733454943E0
2.341632984E0,2.298503816E-1,1.087958431E1,-1.678386688E0
2.343632717E0,3.375927508E-1,1.092747021E1,-1.529941559E0
2.345632517E0,4.620950520E-1,1.099690437E1,-1.326428294E0
2.347632250E0,5.387118459E-1,1.102084732E1,-1.201925993E0
2.349631983E0,6.153286099E-1,1.110943508E1,-8.954587579E-1
2.351631716E0,5.865973234E-1,1.113098335E1,-5.411061049E-1
2.353631449E0,5.363175869E-1,1.110225201E1,-3.351984620E-1
2.355631182E0,2.681587934E-1,1.072874546E1,4.740664065E-1
2.357630915E0,2.729473412E-1,1.063297462E1,6.153286099E-1
2.359630648E0,2.729473412E-1,1.063297462E1,6.153286099E-1
2.361630448E0,3.782954216E-1,1.051326084E1,7.948992252E-1
2.363630181E0,4.213923812E-1,1.048452950E1,8.308133483E-1
2.365629914E0,4.788549542E-1,1.048692322E1,8.116591573E-1
2.367629647E0,5.937801600E-1,1.055396366E1,7.158881426E-1
2.369629380E0,6.799740195E-1,1.059706020E1,6.584255695E-1
2.371629113E0,8.547561169E-1,1.065212822E1,5.219519138E-1
2.373628846E0,9.122186899E-1,1.066170597E1,3.615354896E-1
2.375628646E0,1.055875182E0,1.061860847E1,1.556278616E-1
2.377628446E0,1.151646137E0,1.059945488E1,1.005595401E-1
2.379628179E0,1.151646137E0,1.059945488E1,1.005595401E-1
2.381627912E0,1.336005330E0,1.051565456E1,4.309694469E-2
2.383627645E0,1.616135478E0,1.036242104E1,-8.379961550E-2
2.385627378E0,1.687963724E0,1.030495834E1,-1.053480953E-1
2.387627111E0,1.640078187E0,1.017806244E1,-1.053480953E-1
2.389626844E0,1.781340480E0,1.004158878E1,-3.232271075E-1
2.391626644E0,1.810071707E0,1.002482891E1,-3.663240373E-1
2.393626410E0,1.587404251E0,1.008947372E1,-2.250618339E-1
2.395626143E0,1.309668303E0,1.056354046E1,4.309694767E-1
2.397625876E0,1.309668303E0,1.056354046E1,4.309694767E-1
2.399626976E0,1.340793848E0,1.072635078E1,6.344828010E-1
2.401626709E0,1.415016413E0,1.088437366E1,8.356019258E-1
2.403626442E0,1.652049661E0,1.120999432E1,1.213897347E0
2.405626175E0,1.934574008E0,1.149251938E1,1.606558442E0
2.407625975E0,2.111750364E0,1.155955887E1,1.812466025E0
2.409625741E0,2.370332003E0,1.169363785E1,2.171607256E0
2.411625507E0,2.475680113E0,1.178701496E1,2.535537004E0
2.413625273E0,2.502017260E0,1.200489426E1,2.712713242E0
2.415625039E0,2.573845387E0,1.254360580E1,3.232270956E0
2.417624805E0,2.588211060E0,1.266331959E1,3.323253393E0
2.419624571E0,2.588211060E0,1.266331959E1,3.323253393E0
2.421624337E0,2.631308079E0,1.287880421E1,3.502824068E0
2.423624170E0,2.664827824E0,1.297936344E1,3.577046633E0
2.425623936E0,2.727078915E0,1.310147190E1,3.629720688E0
2.427623702E0,2.746233225E0,1.316372299E1,3.598595142E0
2.429623468E0,2.753416061E0,1.318287754E1,3.560286522E0
2.431623234E0,2.789330244E0,1.316851139E1,3.359167576E0
2.433623000E0,2.796513081E0,1.314696312E1,3.201145411E0
2.435622766E0,2.834821463E0,1.295063210E1,1.745426297E0
2.437622532E0,2.834821463E0,1.288598728E1,1.745426297E0
2.439622365E0,2.834821463E0,1.288598728E1,1.745426297E0
2.441622131E0,2.976083517E0,1.270641613E1,9.122186899E-1
2.443621897E0,3.184385538E0,1.249571991E1,2.873129770E-2
2.445621663E0,3.294522047E0,1.236642933E1,-3.878725171E-1
2.447621429E0,3.426207304E0,1.202165413E1,-1.101366401E0
2.449621195E0,3.426207304E0,1.183011150E1,-1.407833576E0
2.451620961E0,3.340013266E0,1.131534290E1,-1.817254543E0
2.453620761E0,3.167625666E0,1.069283104E1,-1.793311834E0
2.455620594E0,2.600182533E0,9.191620827E0,-3.926610649E-1
2.457620327E0,2.600182533E0,9.191620827E0,-3.926610649E-1
2.459619560E0,2.423006058E0,8.813325882E0,2.226675600E-1
2.461619326E0,2.255406857E0,8.447001457E0,9.505270720E-1
2.463619092E0,2.128510237E0,7.824490070E0,2.664827824E0
2.465618858E0,2.140481710E0,7.379155159E0,4.613767624E0
2.467618624E0,2.150058746E0,7.213950157E0,5.631334305E0
2.469618424E0,2.181184292E0,6.979310989E0,7.565908432E0
2.471618224E0,2.202732801E0,6.931425571E0,8.293767929E0
2.473617324E0,2.212309837E0,6.976916790E0,9.237112045E0
2.475617490E0,1.999219418E0,7.077476501E0,9.141341209E0
2.477617223E0,1.987248063E0,7.063110828E0,8.719948769E0
2.479616956E0,1.987248063E0,7.063110828E0,8.719948769E0
2.481616689E0,1.948939681E0,7.029590607E0,7.678439140E0
2.483616422E0,1.908236980E0,7.036773682E0,7.158881664E0
2.485616222E0,1.728666425E0,7.077476501E0,6.136526108E0
2.487615955E0,1.601769805E0,7.079870701E0,5.633728504E0
2.489615688E0,1.407833576E0,7.125361919E0,4.733481407E0
2.491615421E0,1.199531674E0,7.199584484E0,4.060689926E0
2.493615154E0,1.120520592E0,7.264229774E0,3.828445435E0
2.495614887E0,9.672870040E-1,7.618582249E0,3.488458395E0
2.497614620E0,9.768640995E-1,7.731113434E0,3.500429869E0
2.499614353E0,9.768640995E-1,7.731113434E0,3.500429869E0
2.501614153E0,1.012778282E0,7.963357925E0,3.660846233E0
2.503613886E0,1.120520592E0,8.083071709E0,3.929004908E0
2.505613619E0,1.154040456E0,8.308133125E0,4.043930054E0
2.507613352E0,1.247417212E0,8.506858826E0,4.312088966E0
2.509613085E0,1.295302629E0,8.609811783E0,4.477293968E0
2.511612818E0,1.350371003E0,8.753468513E0,4.752635479E0
2.513612551E0,1.338399649E0,8.806142807E0,4.884320736E0
2.515612284E0,1.173194647E0,8.698400497E0,4.817280769E0
2.517612117E0,1.173194647E0,8.698400497E0,4.817280769E0
2.519612183E0,1.180377483E0,8.657697678E0,4.711932659E0
2.521611916E0,1.213897347E0,8.619389534E0,4.580247879E0
2.523611649E0,1.340793848E0,8.552350044E0,4.273780346E0
2.525611382E0,1.467690468E0,8.535589218E0,4.087027073E0
2.527611115E0,1.649655342E0,8.432636261E0,3.727885962E0
2.529610848E0,1.726272106E0,8.248276711E0,3.399870157E0
2.531610148E0,1.783734679E0,8.164477348E0,3.253819466E0
2.533610581E0,1.951334000E0,7.970541000E0,3.009603500E0
2.535609881E0,2.276955366E0,7.613793850E0,2.880312681E0
2.537609614E0,2.372726440E0,7.541965485E0,2.892283916E0
2.539609580E0,2.372726440E0,7.541965485E0,2.892283916E0
2.541609313E0,2.439765930E0,7.467742920E0,2.921015263E0
2.543609046E0,2.461314440E0,7.290566921E0,3.059883118E0
2.545608779E0,2.480468750E0,7.101418972E0,3.261002302E0
2.547608579E0,2.490045786E0,7.012830734E0,3.383110285E0
2.549608379E0,2.497228622E0,6.864386082E0,3.620143414E0
2.551608112E0,2.451737404E0,6.773403645E0,3.864359617E0
2.553607845E0,2.387091875E0,6.696786404E0,3.996044636E0
2.555607578E0,2.106961727E0,6.330462456E0,4.587430477E0
2.557607311E0,2.061470509E0,6.256239891E0,4.697566986E0
2.559607044E0,2.061470509E0,6.256239891E0,4.697566986E0
2.561606777E0,1.968093872E0,6.141314983E0,4.877137661E0
2.563606577E0,1.948939681E0,6.095823765E0,4.963331699E0
2.565606310E0,1.968093872E0,6.086246490E0,5.138113976E0
2.567606043E0,1.956122518E0,6.148497581E0,5.219519138E0
2.569605776E0,1.953728199E0,6.184412003E0,5.229096413E0
2.571605509E0,1.743032098E0,6.059909344E0,5.298530102E0
2.573605242E0,1.553884387E0,5.887521744E0,5.322473049E0
2.575604975E0,1.563461423E0,5.724710941E0,5.185999393E0
2.577604708E0,1.563461423E0,5.722316742E0,5.185999393E0
2.579604174E0,1.563461423E0,5.722316742E0,5.185999393E0
2.581603907E0,1.666415215E0,5.806116581E0,5.054314137E0
2.583603640E0,1.865140080E0,5.976109982E0,4.920234680E0
2.585603373E0,1.889082789E0,6.014418125E0,4.855589390E0
2.587603106E0,1.862745762E0,5.988081455E0,4.752635479E0
2.589602839E0,1.781340480E0,5.873156071E0,4.611373425E0
2.591603005E0,1.755003452E0,5.822876453E0,4.517996788E0
2.593602738E0,1.723877907E0,5.765413761E0,4.367157459E0
2.595602538E0,2.023162127E0,5.779779434E0,4.185192585E0
2.597602271E0,2.023162127E0,5.779779434E0,4.185192585E0
2.599601771E0,2.154847383E0,5.839636326E0,4.158855438E0
2.601601504E0,2.253012657E0,5.909070015E0,4.154066563E0
2.603601237E0,2.329629421E0,5.971321583E0,4.173221111E0
2.605600970E0,2.339206457E0,5.990475655E0,4.235472202E0
2.607600703E0,2.370332003E0,6.000052452E0,4.271386147E0
2.609600436E0,2.430188894E0,6.038361073E0,4.343214512E0
2.611600236E0,2.432583094E0,6.019207001E0,4.427014351E0
2.613599969E0,2.430188894E0,6.007235527E0,4.477293968E0
2.615599702E0,2.351177931E0,5.923435688E0,4.676018715E0
2.617599435E0,2.351177931E0,5.923435688E0,4.676018715E0
2.619598835E0,2.379909277E0,5.952167034E0,4.726298332E0
2.621598568E0,2.542719841E0,6.098217964E0,4.860377789E0
2.623598301E0,2.616942406E0,6.172440529E0,4.944177628E0
2.625598101E0,2.631308079E0,6.217931747E0,5.140508175E0
2.627597901E0,2.612153769E0,6.239480019E0,5.351204395E0
2.629597634E0,2.592999697E0,6.249057293E0,5.435003757E0
2.631597367E0,2.590605259E0,6.280182838E0,5.552323341E0
2.633597100E0,2.557085514E0,6.251451492E0,5.619362831E0
2.635596833E0,2.480468750E0,6.126949310E0,5.889915943E0
2.637596566E0,2.475680113E0,6.105400562E0,5.918647289E0
2.639596299E0,2.475680113E0,6.105400562E0,5.918647289E0
2.641596099E0,2.552296877E0,6.158074856E0,5.978504181E0
2.643595899E0,2.643279314E0,6.270605564E0,6.040755272E0
2.645595632E0,2.638490915E0,6.311308384E0,6.059909344E0
2.647595365E0,2.693559170E0,6.385530949E0,6.040755272E0
2.649595098E0,2.762993097E0,6.462147713E0,6.009629726E0
2.651594831E0,2.741444588E0,6.428627968E0,5.961744308E0
2.653594564E0,2.710319042E0,6.253845692E0,5.810904980E0
2.655594830E0,2.822849989E0,6.220325947E0,5.576265812E0
2.657594630E0,2.822849989E0,6.220325947E0,5.576265812E0
2.659594663E0,2.782147408E0,6.174834728E0,5.492466450E0
2.661594396E0,2.676799297E0,6.088640690E0,5.394300938E0
2.663594129E0,2.537931204E0,5.935407162E0,5.238673210E0
2.665593862E0,2.564268351E0,5.861184597E0,5.068679810E0
2.667593595E0,2.592999697E0,5.849213123E0,5.016005516E0
2.669593328E0,2.636096478E0,5.887521744E0,4.944177628E0
2.671593061E0,2.638490915E0,5.935407162E0,4.903474808E0
2.673592861E0,2.662433624E0,6.143709183E0,4.879531860E0
2.675592594E0,2.312869549E0,6.184412003E0,4.671230316E0
2.677592327E0,2.312869549E0,6.184412003E0,4.671230316E0
2.679592393E0,2.212309837E0,6.129343510E0,4.608979225E0
2.681592126E0,2.080624819E0,6.069486618E0,4.484476566E0
2.683591859E0,2.025556564E0,6.076669693E0,4.438985348E0
2.685591592E0,1.917814136E0,6.091034889E0,4.369551659E0
2.687591325E0,1.867534399E0,6.114977837E0,4.319271564E0
2.689591125E0,1.814860344E0,6.124555111E0,4.264203548E0
2.691590858E0,1.781340480E0,6.167652130E0,4.161249638E0
2.693590591E0,1.805283189E0,6.208354473E0,4.127729893E0
2.695590324E0,1.920208454E0,6.591438770E0,3.948159218E0
2.697590057E0,1.920208454E0,6.591438770E0,3.948159218E0
2.699590057E0,1.920208454E0,6.591438770E0,3.948159218E0
2.701589790E0,1.929785490E0,6.759037971E0,3.924216509E0
2.703589523E0,1.932179809E0,6.917059898E0,3.909850836E0
2.705589323E0,1.929785490E0,6.979310989E0,3.900273561E0
2.707589056E0,1.975276709E0,7.178035736E0,3.917033672E0
2.709588789E0,1.963305354E0,7.228315830E0,3.890696526E0
2.711588522E0,1.834014535E0,7.182824612E0,3.751828671E0
2.713588255E0,1.829225898E0,7.170853138E0,3.653663397E0
2.715587455E0,2.015979290E0,7.292961121E0,3.641691923E0
2.717587188E0,2.015979290E0,7.292961121E0,3.641691923E0
2.719587088E0,2.066259146E0,7.328875065E0,3.653663397E0
2.721586888E0,2.111750364E0,7.362394810E0,3.675211906E0
2.723586254E0,2.195549965E0,7.403097630E0,3.703943014E0
2.725585987E0,2.214704275E0,7.424646378E0,3.732674360E0
2.727585720E0,2.257801056E0,7.513234138E0,3.806896925E0
2.729585453E0,2.288926601E0,7.582668304E0,3.854782343E0
2.731585186E0,2.284138203E0,7.616188049E0,3.888302326E0
2.733584919E0,2.308080912E0,7.635342598E0,3.964919090E0
2.735584719E0,2.375120640E0,7.664073467E0,4.058295727E0
2.737584452E0,2.375120640E0,7.664073467E0,4.058295727E0
2.739584185E0,2.379909277E0,7.666468143E0,4.089421272E0
2.741583918E0,2.355966330E0,7.656890869E0,4.144489765E0
2.743583751E0,2.341600657E0,7.664073467E0,4.178009510E0
2.745583484E0,2.329629421E0,7.685622215E0,4.218712330E0
2.747583217E0,2.332023621E0,7.699987888E0,4.240260601E0
2.749582950E0,2.332023621E0,7.738296032E0,4.295329094E0
2.751582750E0,2.312869549E0,7.752661705E0,4.340820312E0
2.753582483E0,2.286532402E0,7.764633179E0,4.364762783E0
2.755582216E0,2.279349566E0,7.793364525E0,4.443774223E0
2.757581949E0,2.288926601E0,7.802941799E0,4.465322495E0
2.759581415E0,2.288926601E0,7.802941799E0,4.465322495E0
2.761581148E0,2.293715239E0,7.819701672E0,4.522785187E0
2.763580881E0,2.296109438E0,7.819701672E0,4.553910732E0
2.765580614E0,2.300898075E0,7.812518597E0,4.597007751E0
2.767580414E0,2.324840784E0,7.805335999E0,4.647287369E0
2.769580147E0,2.329629421E0,7.798152924E0,4.671230316E0
2.771579880E0,2.351177931E0,7.798152924E0,4.704750061E0
2.773579613E0,2.370332003E0,7.826884270E0,4.743058205E0
2.775579346E0,2.470891714E0,7.910684109E0,4.853195190E0
2.777579079E0,2.470891714E0,7.910684109E0,4.853195190E0
2.779578512E0,2.470891714E0,7.910684109E0,4.853195190E0
2.781578245E0,2.521171331E0,7.946598053E0,4.891503334E0
2.783578411E0,2.604970932E0,8.004060745E0,4.932206154E0
2.785578144E0,2.648067951E0,8.032792091E0,4.951360226E0
2.787577877E0,2.719896078E0,8.102226257E0,5.001639843E0
2.789577610E0,2.782147408E0,8.174054146E0,5.032765865E0
2.791577343E0,2.822849989E0,8.200390816E0,5.054314137E0
2.793577076E0,2.851581335E0,8.245882034E0,5.085439682E0
2.795576809E0,2.880312681E0,8.300951004E0,5.135719299E0
2.797576575E0,2.880312681E0,8.300951004E0,5.135719299E0
2.799576608E0,2.911438227E0,8.317710876E0,5.135719299E0
2.801576341E0,2.944957972E0,8.332076073E0,5.130930901E0
2.803575974E0,2.992843628E0,8.360807419E0,5.157268047E0
2.805575707E0,3.000026226E0,8.401510239E0,5.178816319E0
2.807575440E0,2.997632027E0,8.394327164E0,5.176422119E0
2.809575173E0,3.026363373E0,8.401510239E0,5.183605194E0
2.811574906E0,3.045517445E0,8.408693314E0,5.207547665E0
2.813574706E0,3.064671755E0,8.406298637E0,5.233884811E0
2.815574472E0,3.215511084E0,8.406298637E0,5.360781193E0
2.817574238E0,3.215511084E0,8.406298637E0,5.360781193E0
2.819574004E0,3.227482557E0,8.387145042E0,5.403878212E0
2.821573770E0,3.253819466E0,8.346442223E0,5.461340904E0
2.823573536E0,3.282550812E0,8.341653824E0,5.478100777E0
2.825573302E0,3.316070557E0,8.360807419E0,5.537957668E0
2.827573068E0,3.392687321E0,8.384750366E0,5.597814560E0
2.829572901E0,3.428601503E0,8.394327164E0,5.631334305E0
2.831572667E0,3.498035431E0,8.375173569E0,5.731894016E0
2.833572433E0,3.536343813E0,8.344047546E0,5.834847927E0
2.835572199E0,3.620143414E0,8.224333763E0,6.059909344E0
2.837571965E0,3.620143414E0,8.224333763E0,6.059909344E0
2.839572098E0,3.620143414E0,8.224333763E0,6.059909344E0
2.841571864E0,3.691971779E0,8.248276711E0,6.126949310E0
2.843571630E0,3.725491524E0,8.317710876E0,6.165257454E0
2.845571463E0,3.742251635E0,8.346442223E0,6.189200401E0
2.847572563E0,3.806896925E0,8.375173569E0,6.277788639E0
2.849572329E0,3.873936653E0,8.384750366E0,6.419050694E0
2.851572095E0,3.900273561E0,8.372778893E0,6.490879059E0
2.853571861E0,3.998438835E0,8.351230621E0,6.660872459E0
2.855571627E0,4.017592907E0,8.308133125E0,6.924242973E0
2.857571427E0,4.017592907E0,8.308133125E0,6.924242973E0
2.859570960E0,4.012804508E0,8.281796455E0,6.955368519E0
2.861570793E0,3.993650436E0,8.260248184E0,6.972128391E0
2.863570559E0,4.010410309E0,8.219545364E0,7.077476501E0
2.865570325E0,4.012804508E0,8.152505875E0,7.192401409E0
2.867570091E0,4.027170181E0,8.121379852E0,7.266623974E0
2.869569857E0,4.031958580E0,8.051946640E0,7.405491829E0
2.871569623E0,4.039141655E0,8.030397415E0,7.501263142E0
2.873569389E0,4.065478802E0,8.011243820E0,7.534782887E0
2.875569189E0,4.106181145E0,7.903501034E0,7.757450581E0
2.877568989E0,4.087027073E0,7.853221416E0,7.759844780E0
2.879569022E0,4.087027073E0,7.853221416E0,7.759844780E0
2.881568755E0,4.036747456E0,7.738296032E0,7.733507633E0
2.883568488E0,4.039141655E0,7.692804813E0,7.728719234E0
2.885568221E0,4.113364220E0,7.664073467E0,7.726325035E0
2.887567954E0,4.149278164E0,7.668862343E0,7.771816254E0
2.889567687E0,4.178009510E0,7.666468143E0,7.786181450E0
2.891567487E0,4.249837875E0,7.680833817E0,7.757450581E0
2.893567287E0,4.297723293E0,7.704776287E0,7.755055904E0
2.895567020E0,4.498842239E0,7.798152924E0,7.745479107E0
2.897566753E0,4.498842239E0,7.798152924E0,7.745479107E0
2.899566053E0,4.498842239E0,7.798152924E0,7.745479107E0
2.901565786E0,4.532361984E0,7.786181450E0,7.812518597E0
2.903565519E0,4.654470444E0,7.898712635E0,7.834067345E0
2.905565252E0,4.795732498E0,8.020820618E0,7.826884270E0
2.907563718E0,5.013611317E0,8.293767929E0,7.807730198E0
2.909563451E0,5.109382629E0,8.411087036E0,7.786181450E0
2.911563184E0,5.164450645E0,8.621783257E0,7.841249943E0
2.913562917E0,5.238673210E0,8.875576973E0,7.939415455E0
2.915562650E0,5.437397957E0,9.613013268E0,7.884346962E0
2.917562383E0,5.437397957E0,9.613013268E0,7.884346962E0
2.919561916E0,5.509226322E0,9.859623909E0,7.826884270E0
2.921561649E0,5.578660488E0,1.009905148E1,7.728719234E0
2.923561449E0,5.734288216E0,1.059945488E1,7.491685867E0
2.925561182E0,5.813299179E0,1.106873226E1,7.427040577E0
2.927560915E0,5.834847927E0,1.126985168E1,7.412674904E0
2.929560648E0,5.863578796E0,1.166011810E1,7.355212212E0
2.931560381E0,5.889915943E0,1.184687138E1,7.331269264E0
2.933560114E0,5.976109982E0,1.218685913E1,7.422251701E0
2.935559847E0,6.313702583E0,1.283810139E1,7.520417213E0
2.937559580E0,6.313702583E0,1.283810139E1,7.520417213E0
2.939559080E0,6.354405403E0,1.300570107E1,7.460560322E0
2.941558813E0,6.414262295E0,1.335526466E1,7.328875065E0
2.943558546E0,6.361588001E0,1.348934460E1,7.252258301E0
2.945558279E0,6.007235527E0,1.365215492E1,7.161275864E0
2.947558012E0,5.810904980E0,1.371201229E1,7.142121792E0
2.949557745E0,5.545140266E0,1.377665710E1,7.072687626E0
2.951557111E0,5.284164429E0,1.377665710E1,7.005648136E0
2.953556844E0,5.140508175E0,1.376229191E1,6.938608170E0
2.955556644E0,4.395888329E0,1.322118568E1,6.591438770E0
2.957556377E0,4.395888329E0,1.322118568E1,6.591438770E0
2.959556110E0,4.395888329E0,1.322118568E1,6.591438770E0
2.961556210E0,4.237866402E0,1.273754215E1,6.565101624E0
2.963555943E0,4.235472202E0,1.244783497E1,6.502850533E0
2.965555676E0,4.326454639E0,1.183729458E1,6.478907585E0
2.967555409E0,4.594613552E0,1.120999432E1,6.419050694E0
2.969555209E0,4.783761024E0,1.087240219E1,6.378347874E0
2.971555009E0,5.147690773E0,1.024749660E1,6.179623127E0
2.973554742E0,5.511620522E0,9.656110764E0,5.897099018E0
2.975554475E0,6.031178474E0,8.616994858E0,5.157268047E0
2.977554208E0,6.031178474E0,8.616994858E0,5.157268047E0
2.979554141E0,6.043149471E0,8.399115562E0,4.946571827E0
2.981553874E0,6.057515144E0,8.217150688E0,4.728692532E0
2.983553607E0,5.923435688E0,7.855615616E0,4.357580185E0
2.985553407E0,5.815693378E0,7.704776287E0,4.180403709E0
2.987553140E0,5.545140266E0,7.479714394E0,3.811685562E0
2.989552873E0,5.243461609E0,7.324086666E0,3.462121487E0
2.991552606E0,5.095016956E0,7.247469902E0,3.328042030E0
2.993552339E0,4.764606953E0,7.058321953E0,3.076643229E0
2.995552072E0,4.362368584E0,6.656084061E0,2.535537004E0
2.997551805E0,4.362368584E0,6.656084061E0,2.535537004E0
2.999551538E0,4.292934895E0,6.550735950E0,2.370332003E0
3.001551338E0,4.180403709E0,6.438204765E0,2.176395893E0
3.003551071E0,4.144489765E0,6.198777676E0,1.743032098E0
3.005550804E0,4.067873001E0,5.947378635E0,1.319245458E0
3.007550537E0,4.058295727E0,5.827664852E0,1.130097747E0
3.009550270E0,4.034353256E0,5.698374271E0,8.403904438E-1
3.011550370E0,4.005621910E0,5.715134144E0,6.560313106E-1
3.013550103E0,3.972101927E0,5.774991035E0,6.153286099E-1
3.015549836E0,3.775771379E0,6.591438770E0,9.194015265E-1
3.017549602E0,3.775771379E0,6.591438770E0,9.194015265E-1
3.019550202E0,3.775771379E0,6.591438770E0,9.194015265E-1
3.021549568E0,3.632114887E0,7.178035736E0,1.245022893E0
3.023549301E0,3.533949614E0,7.515628815E0,1.438959122E0
3.025549034E0,3.249030828E0,8.221940041E0,1.822043180E0
3.027548767E0,2.880312681E0,8.997684479E0,2.142875910E0
3.029548500E0,2.655250788E0,9.380768776E0,2.267378330E0
3.031548233E0,2.185972929E0,1.016369629E1,2.458920240E0
3.033548033E0,1.664021015E0,1.088676739E1,2.549902678E0
3.035547799E0,5.411061049E-1,1.203601933E1,2.703136206E0
3.037547565E0,5.411061049E-1,1.203601933E1,2.703136206E0
3.039547331E0,5.411061049E-1,1.203601933E1,2.703136206E0
3.041547097E0,3.351984918E-2,1.245262337E1,2.782147408E0
3.043546863E0,-4.333637357E-1,1.276866722E1,2.875524044E0
3.045546629E0,-6.344828010E-1,1.289077568E1,2.930592299E0
3.047546462E0,-9.792584181E-1,1.307034588E1,3.050306082E0
3.049546295E0,-1.259388566E0,1.318766594E1,3.107768774E0
3.051546161E0,-1.393467903E0,1.321400261E1,3.112557173E0
3.053546027E0,-1.661626697E0,1.322836876E1,3.043123245E0
3.055545693E0,-2.075836182E0,1.314456844E1,2.722290516E0
3.057545559E0,-2.075836182E0,1.314456844E1,2.722290516E0
3.059544492E0,-2.154847383E0,1.307752895E1,2.597788095E0
3.061544358E0,-2.221887112E0,1.300570107E1,2.478074312E0
3.063544291E0,-2.257801056E0,1.284767818E1,2.214704275E0
3.065544224E0,-2.310475111E0,1.261064529E1,2.006402254E0
3.067544157E0,-2.296109438E0,1.247177792E1,1.910631299E0
3.069544090E0,-2.224281311E0,1.217967606E1,1.807677507E0
3.071544023E0,-2.114144564E0,1.184447765E1,1.752609134E0
3.073543589E0,-2.061470509E0,1.166730118E1,1.731060743E0
3.075543522E0,-1.845985889E0,1.090592194E1,1.618529797E0
3.077543488E0,-1.802888989E0,1.075268841E1,1.587404251E0
3.079542588E0,-1.802888989E0,1.075268841E1,1.587404251E0
3.081542554E0,-1.766974807E0,1.045579815E1,1.534730196E0
3.083542520E0,-1.781340480E0,1.029538155E1,1.544307232E0
3.085542486E0,-1.786128998E0,9.967366219E0,1.573038578E0
3.087542452E0,-1.807677507E0,9.648927689E0,1.635289669E0
3.089542418E0,-1.798100352E0,9.517242432E0,1.685569525E0
3.091542384E0,-1.802888989E0,9.251478195E0,1.843591571E0
3.093542350E0,-1.831620216E0,9.119792938E0,1.920208454E0
3.095542350E0,-1.898659945E0,8.609811783E0,2.224281311E0
3.097542316E0,-1.913025618E0,8.497281075E0,2.322446585E0
3.099542282E0,-1.913025618E0,8.497281075E0,2.322446585E0
3.101542248E0,-1.901054144E0,8.243488312E0,2.499622822E0
3.103542214E0,-1.886688590E0,8.030397415E0,2.652856588E0
3.105542180E0,-1.877111435E0,7.927443981E0,2.731867552E0
3.107541713E0,-1.932179809E0,7.771816254E0,2.865947008E0
3.109541679E0,-1.884294271E0,7.671256542E0,2.925803900E0
3.111541612E0,-1.853168726E0,7.652102470E0,2.954535007E0
3.113541512E0,-1.831620216E0,7.632947922E0,3.002420664E0
3.115541612E0,-1.577827096E0,7.532388687E0,2.935380936E0
3.117541512E0,-1.577827096E0,7.532388687E0,2.935380936E0
3.119542345E0,-1.438959122E0,7.585062504E0,2.822849989E0
3.121542245E0,-1.290514112E0,7.654496670E0,2.698347807E0
3.123542145E0,-1.015172482E0,7.704776287E0,2.540325642E0
3.125542045E0,-7.613793612E-1,7.786181450E0,2.396669149E0
3.127541945E0,-6.177229285E-1,7.826884270E0,2.310475111E0
3.129541845E0,-4.022381604E-1,7.848433018E0,2.193155766E0
3.131541745E0,-3.304099143E-1,7.848433018E0,2.133298874E0
3.133542011E0,-1.364736706E-1,7.834067345E0,2.054287672E0
3.135541911E0,2.059076279E-1,8.006455421E0,2.030344963E0
3.137541811E0,2.202732861E-1,8.085466385E0,2.006402254E0
3.139541877E0,2.202732861E-1,8.085466385E0,2.006402254E0
3.141541810E0,1.652049571E-1,8.226728439E0,2.020767927E0
3.143541743E0,2.274561077E-1,8.296162605E0,2.047105074E0
3.145541609E0,5.147690773E-1,8.461367607E0,2.174001455E0
3.147541475E0,7.685621977E-1,8.535589218E0,2.300898075E0
3.149541341E0,9.672870040E-1,8.743891716E0,2.324840784E0
3.151541207E0,1.218685865E0,8.880365372E0,2.511594296E0
3.153541073E0,1.249811411E0,8.839662552E0,2.674404860E0
3.155540939E0,1.247417212E0,8.485309601E0,3.375927448E0
3.157540839E0,1.333611012E0,8.509252548E0,3.481275558E0
3.159540672E0,1.333611012E0,8.509252548E0,3.481275558E0
3.161540505E0,1.403045058E0,8.645726204E0,3.629720688E0
3.163540105E0,1.309668303E0,8.719948769E0,3.838022470E0
3.165832085E0,1.221080184E0,8.722343445E0,3.929004908E0
3.167832351E0,8.858816624E-1,8.686429024E0,4.012804508E0
3.169832184E0,6.344828010E-1,8.643332481E0,4.053507328E0
3.171832017E0,2.561874092E-1,8.621783257E0,3.926610708E0
3.173831883E0,-1.436564885E-2,8.576292038E0,3.641691923E0
3.175831683E0,-6.536370516E-1,8.360807419E0,2.791724443E0
3.177831483E0,-6.536370516E-1,8.360807419E0,2.791724443E0
3.179831349E0,-7.781392932E-1,8.274613380E0,2.449343204E0
3.181831149E0,-8.284190893E-1,8.217150688E0,2.061470509E0
3.183830949E0,-9.098244309E-1,8.121379852E0,1.314456820E0
3.185830749E0,-9.601042271E-1,8.051946640E0,1.000806928E0
3.187830549E0,-9.601042271E-1,7.939415455E0,3.328042030E-1
3.189830349E0,-9.840469360E-1,7.862798691E0,-2.753416002E-1
3.191830082E0,-1.039115310E0,7.800547123E0,-5.482889414E-1
3.193829815E0,-1.199531674E0,7.632947922E0,-1.010383964E0
3.195829548E0,-1.508393168E0,7.515628815E0,-1.647261024E0
3.197829281E0,-1.561067224E0,7.520417213E0,-1.759791970E0
3.199828847E0,-1.561067224E0,7.520417213E0,-1.759791970E0
3.201828580E0,-1.666415215E0,7.501263142E0,-1.889082789E0
3.203828313E0,-1.721483588E0,7.489291668E0,-1.891477108E0
3.205828113E0,-1.759791970E0,7.534782887E0,-1.845985889E0
3.207827846E0,-1.745426297E0,7.577879906E0,-1.774157643E0
3.209827579E0,-1.690358043E0,7.628159523E0,-1.596981287E0
3.211827312E0,-1.642472506E0,7.683228016E0,-1.415016413E0
3.213827045E0,-1.599375606E0,7.771816254E0,-1.340793848E0
3.215826778E0,-1.508393168E0,8.116591454E0,-1.015172482E0
3.217826511E0,-1.446141958E0,8.135746002E0,-9.002473354E-1
3.219826311E0,-1.446141958E0,8.135746002E0,-9.002473354E-1
3.221826111E0,-1.319245458E0,8.164477348E0,-6.225114465E-1
3.223826077E0,-1.228263021E0,8.190814018E0,-4.788549542E-1
3.225825810E0,-1.029538155E0,8.224333763E0,-1.843591630E-1
3.227825543E0,-9.122186899E-1,8.233911514E0,1.245022863E-1
3.229825276E0,-8.882759809E-1,8.231516838E0,2.801301479E-1
3.231825009E0,-7.972934842E-1,8.229122162E0,5.435003638E-1
3.233824742E0,-6.775797606E-1,8.217150688E0,7.877163887E-1
3.235824542E0,-4.549122155E-1,8.281796455E0,1.146857619E0
3.237824275E0,-4.549122155E-1,8.281796455E0,1.146857619E0
3.239823041E0,-4.549122155E-1,8.281796455E0,1.146857619E0
3.241822774E0,-4.166038036E-1,8.217150688E0,1.235445857E0
3.243822507E0,-3.471698463E-1,8.159688950E0,1.304879785E0
3.245822240E0,-3.040728867E-1,8.171659470E0,1.280937076E0
3.247821973E0,-1.221080124E-1,8.320104599E0,1.259388566E0
3.249821706E0,7.661679387E-2,8.485309601E0,1.256994247E0
3.251821506E0,1.652049571E-1,8.458972931E0,1.233051538E0
3.253821239E0,3.375927508E-1,8.413481712E0,1.139674783E0
3.255820972E0,5.698373914E-1,8.676852226E0,9.720755816E-1
3.257820705E0,5.698373914E-1,8.676852226E0,9.720755816E-1
3.259820438E0,5.387118459E-1,8.590658188E0,9.050358534E-1
3.261820171E0,5.458946824E-1,8.583475113E0,8.356019258E-1
3.263819904E0,7.278595567E-1,8.956981659E0,7.398309112E-1
3.265819637E0,8.691217303E-1,9.134158134E0,7.063110471E-1
3.267819437E0,9.026415944E-1,9.038387299E0,6.416656375E-1
3.269819170E0,1.137280583E0,9.095849991E0,5.458946824E-1
3.271818903E0,1.374313712E0,9.423865318E0,4.525179267E-1
3.273818636E0,1.405439258E0,9.466962814E0,3.950553536E-1
3.275818369E0,1.338399649E0,9.512454033E0,8.140534163E-2
3.277818102E0,1.338399649E0,9.512454033E0,8.140534163E-2
3.279817835E0,1.350371003E0,9.586676598E0,-1.675992459E-2
3.281817568E0,1.271359921E0,9.275420189E0,-2.657645047E-1
3.283817368E0,1.211503029E0,9.043175697E0,-3.926610649E-1
3.285817101E0,1.163617611E0,8.956981659E0,-5.530774593E-1
3.287816834E0,1.216291547E0,9.227535248E0,-6.273000240E-1
3.289816567E0,1.192348838E0,9.229928970E0,-6.656084061E-1
3.291816300E0,1.094183564E0,8.861210823E0,-6.967339516E-1
3.293816033E0,1.096577883E0,8.557138443E0,-7.254652381E-1
3.295815766E0,7.996878028E-1,8.537983894E0,-7.254652381E-1
3.297815566E0,7.996878028E-1,8.537983894E0,-7.254652381E-1
3.299816299E0,6.009629965E-1,8.537983894E0,-7.254652381E-1
3.301816032E0,4.573064744E-1,8.226728439E0,-7.613793612E-1
3.303815765E0,3.926610649E-1,8.013637543E0,-7.254652381E-1
3.305815498E0,3.926610649E-1,7.999272346E0,-6.656084061E-1
3.307815231E0,3.351984620E-1,7.958569527E0,-5.267404318E-1
3.309814964E0,1.388679445E-1,7.738296032E0,-4.549122155E-1
3.311814697E0,-9.577099234E-3,7.620976925E0,-4.046324492E-1
3.313814497E0,-3.064671755E-1,7.501263142E0,-3.184385598E-1
3.315814230E0,-4.956148863E-1,7.874769688E0,9.577099234E-2
3.317813963E0,-4.956148863E-1,7.874769688E0,9.577099234E-2
3.319813696E0,-5.985686779E-1,7.929838181E0,2.106961906E-1
3.321813429E0,-7.350423932E-1,7.927443981E0,2.657645047E-1
3.323813162E0,-1.005595446E0,7.846038342E0,3.112557232E-1
3.325812895E0,-1.213897347E0,7.884346962E0,2.585816681E-1
3.327812628E0,-1.316851139E0,7.994483471E0,2.083019018E-1
3.329812428E0,-1.395862222E0,8.327287674E0,1.556278616E-1
3.331812161E0,-1.431776285E0,8.451789856E0,3.830839694E-2
3.333811894E0,-1.474873304E0,8.353624344E0,-1.029538140E-1
3.335811627E0,-1.517970204E0,8.044763565E0,-8.930644989E-1
3.337811360E0,-1.491633177E0,8.044763565E0,-1.122914910E0
3.339811093E0,-1.491633177E0,8.061523438E0,-1.122914910E0
3.341810826E0,-1.374313712E0,8.154899597E0,-1.544307232E0
3.343810559E0,-1.316851139E0,8.260248184E0,-1.743032098E0
3.345810359E0,-1.189954638E0,8.547560692E0,-2.118933201E0
3.347810092E0,-1.154040456E0,8.626572609E0,-2.487651587E0
3.349809825E0,-1.146857619E0,8.566715240E0,-2.667222023E0
3.351809558E0,-1.084606528E0,8.442213058E0,-2.882706881E0
3.353809291E0,-9.864411950E-1,8.423058510E0,-2.940169573E0
3.355809024E0,-3.543526828E-1,8.660092354E0,-2.736656189E0
3.357808724E0,-1.843591630E-1,8.777411461E0,-2.576239586E0
3.359808057E0,-1.843591630E-1,8.777411461E0,-2.576239586E0
3.361807857E0,1.364736706E-1,9.098244667E0,-2.145270348E0
3.363807590E0,4.788549542E-1,9.486116409E0,-1.477267504E0
3.365807323E0,6.225114465E-1,9.670475960E0,-1.067846537E0
3.367807056E0,8.092648983E-1,1.000327969E1,-1.532335877E-1
3.369806789E0,1.007989645E0,1.013975334E1,2.968900800E-1
3.371806522E0,1.055875182E0,1.031453609E1,1.156434774E0
3.373806255E0,1.072635174E0,1.044382668E1,1.944151163E0
3.375806055E0,9.720755816E-1,1.046537495E1,3.086220264E0
3.377805855E0,9.720755816E-1,1.046537495E1,3.086220264E0
3.379805588E0,8.954587579E-1,1.041988373E1,3.215511084E0
3.381805321E0,7.948992252E-1,1.034087276E1,3.268185139E0
3.383805054E0,5.506832004E-1,1.019003391E1,3.220299721E0
3.385804787E0,2.825244367E-1,1.007271385E1,2.956929445E0
3.387804520E0,1.771763414E-1,1.002482891E1,2.767781734E0
3.389804253E0,-5.267404765E-2,9.941028595E0,2.262589693E0
3.391804053E0,-2.106961906E-1,9.909903526E0,1.970488191E0
3.393803853E0,-5.315290093E-1,9.900326729E0,1.326428294E0
3.395803586E0,-1.024749637E0,9.885960579E0,-1.197137404E-2
3.397803319E0,-1.024749637E0,9.885960579E0,-1.197137404E-2
3.399803052E0,-1.118126392E0,9.890748978E0,-3.136500120E-1
3.401802785E0,-1.256994247E0,9.888355255E0,-8.763045669E-1
3.403802518E0,-1.328822494E0,9.885960579E0,-1.137280583E0
3.405802251E0,-1.431776285E0,9.960183144E0,-1.623318315E0
3.407802051E0,-1.465296149E0,1.000567436E1,-1.829225898E0
3.409801784E0,-1.491633177E0,1.005356026E1,-2.126116037E0
3.411801517E0,-1.477267504E0,1.013735962E1,-2.207521439E0
3.413801250E0,-1.455719113E0,1.017087936E1,-2.174001455E0
3.415800983E0,-1.295302629E0,1.039594078E1,-1.620923996E0
3.417800716E0,-1.295302629E0,1.039594078E1,-1.620923996E0
3.419801182E0,-1.295302629E0,1.039594078E1,-1.620923996E0
3.421800915E0,-1.182771802E0,1.050128937E1,-1.283331275E0
3.423800715E0,-1.103760719E0,1.057551193E1,-9.888355136E-1
3.425800448E0,-1.075029373E0,1.078860188E1,-8.810931444E-1
3.427800181E0,-1.003201127E0,1.098493290E1,-7.374366522E-1
3.429799914E0,-9.744698405E-1,1.109746361E1,-6.823683381E-1
3.431799647E0,-9.433442950E-1,1.135365105E1,-5.865973234E-1
3.433799380E0,-8.810931444E-1,1.157631874E1,-4.812492430E-1
3.435799113E0,-7.877163887E-1,1.196419144E1,-3.304099143E-1
3.437798846E0,-7.877163887E-1,1.196419144E1,-3.304099143E-1
3.439799346E0,-7.709565163E-1,1.204080772E1,-2.897072434E-1
3.441799679E0,-7.589851022E-1,1.211503029E1,-2.274561077E-1
3.443799979E0,-7.518022656E-1,1.221319580E1,-9.816526622E-2
3.445799712E0,-7.589851022E-1,1.226587009E1,-3.112557158E-2
3.447799445E0,-7.877163887E-1,1.233051491E1,1.508393139E-1
3.449799178E0,-8.571503758E-1,1.234966946E1,3.280156553E-1
3.451798911E0,-9.289786220E-1,1.234727478E1,4.142095447E-1
3.453798644E0,-1.110943556E0,1.233769798E1,5.842030644E-1
3.455798444E0,-1.582615614E0,1.235685253E1,9.265843630E-1
3.457798177E0,-1.582615614E0,1.235685253E1,9.265843630E-1
3.459797577E0,-1.680780888E0,1.240473747E1,1.007989645E0
3.461797310E0,-1.865140080E0,1.246459484E1,1.096577883E0
3.463797043E0,-1.951334000E0,1.256994247E1,1.113337755E0
3.465796776E0,-2.075836182E0,1.266331959E1,1.101366401E0
3.467796509E0,-2.114144564E0,1.270162773E1,1.101366401E0
3.469796309E0,-2.159635782E0,1.274951363E1,1.091789365E0
3.471796109E0,-2.162030220E0,1.279021645E1,1.043903828E0
3.473795875E0,-2.150058746E0,1.279500484E1,1.005595446E0
3.475795641E0,-2.080624819E0,1.277824497E1,8.978530765E-1
3.477795441E0,-2.054287672E0,1.277824497E1,8.978530765E-1
3.479794674E0,-2.054287672E0,1.273993587E1,8.978530765E-1
3.481794440E0,-1.960911036E0,1.261782837E1,9.194015265E-1
3.483794206E0,-1.920208454E0,1.255318260E1,9.241901040E-1
3.485794039E0,-1.836408734E0,1.247417164E1,8.882759809E-1
3.487793805E0,-1.723877907E0,1.242149734E1,8.188419938E-1
3.489793571E0,-1.668809533E0,1.237840080E1,8.068706393E-1
3.491793337E0,-1.613741279E0,1.224432182E1,8.116591573E-1
3.493793103E0,-1.585009933E0,1.210066509E1,7.972934842E-1
3.495792869E0,-1.822043180E0,1.181095791E1,6.320885420E-1
3.497792635E0,-1.822043180E0,1.181095791E1,6.320885420E-1
3.499791701E0,-1.822043180E0,1.181095791E1,6.320885420E-1
3.501790934E0,-2.023162127E0,1.171039772E1,3.998439014E-1
3.503790134E0,-2.264983892E0,1.166011810E1,1.005595401E-1
3.505789900E0,-2.403851986E0,1.167687798E1,-7.901106775E-2
3.507789666E0,-2.681587696E0,1.179180336E1,-4.501236677E-1
3.509789432E0,-2.901860952E0,1.201686573E1,-8.116591573E-1
3.511789198E0,-2.985660791E0,1.216770458E1,-9.840469360E-1
3.513788964E0,-3.158048391E0,1.262022209E1,-1.331216812E0
3.515788730E0,-3.430995703E0,1.376229191E1,-1.884294271E0
3.517788563E0,-3.430995703E0,1.376229191E1,-1.884294271E0
3.519788663E0,-3.442967176E0,1.405439281E1,-1.994430900E0
3.521788429E0,-3.442967176E0,1.432494640E1,-2.090201855E0
3.523788195E0,-3.387898922E0,1.481816673E1,-2.250618219E0
3.525787961E0,-3.272973776E0,1.521082783E1,-2.346389294E0
3.527787727E0,-3.208328247E0,1.535208988E1,-2.387091875E0
3.529787493E0,-3.076643229E0,1.551729488E1,-2.456526041E0
3.531787259E0,-2.949746609E0,1.550053501E1,-2.564268351E0
3.533787059E0,-2.901860952E0,1.544067860E1,-2.633702278E0
3.535786792E0,-2.865947008E0,1.502407455E1,-2.952140808E0
3.537786525E0,-2.865947008E0,1.502407455E1,-2.952140808E0
3.539786758E0,-2.880312681E0,1.491154385E1,-3.014391899E0
3.541786491E0,-2.940169573E0,1.471042442E1,-3.124528646E0
3.543786224E0,-2.961717844E0,1.463380718E1,-3.167625666E0
3.545785957E0,-2.985660791E0,1.444466019E1,-3.282550812E0
3.547785757E0,-2.980872154E0,1.427466679E1,-3.526766777E0
3.549785557E0,-2.968900681E0,1.417889500E1,-3.691971779E0
3.551785290E0,-2.921015263E0,1.397059345E1,-4.161249638E0
3.553785023E0,-2.818061352E0,1.384848595E1,-4.740664005E0
3.555784756E0,-2.537931204E0,1.305837440E1,-5.645699978E0
3.557784489E0,-2.537931204E0,1.305837440E1,-5.645699978E0
3.559784222E0,-2.537931204E0,1.305837440E1,-5.645699978E0
3.561783955E0,-2.245829821E0,1.270402241E1,-5.875550270E0
3.563783755E0,-1.886688590E0,1.230896664E1,-5.940196037E0
3.565783555E0,-1.666415215E0,1.213657856E1,-5.918647289E0
3.567783288E0,-1.125309110E0,1.187799740E1,-5.791750908E0
3.569783021E0,-4.261809289E-1,1.168406105E1,-5.516408920E0
3.571782754E0,-5.267404765E-2,1.162180996E1,-5.303318501E0
3.573782487E0,7.326480746E-1,1.150449085E1,-4.807703972E0
3.575782220E0,2.298503876E0,1.134407425E1,-3.902667999E0
3.577781920E0,2.298503876E0,1.134407425E1,-3.902667999E0
3.579782186E0,2.672010660E0,1.131534290E1,-3.782954216E0
3.581781919E0,3.043123245E0,1.129139996E1,-3.706337452E0
3.583781652E0,3.751828671E0,1.130576611E1,-3.749434233E0
3.585781385E0,4.443774223E0,1.133449650E1,-4.046324253E0
3.587781118E0,4.788549423E0,1.132731438E1,-4.264203548E0
3.589780851E0,5.437397957E0,1.130337143E1,-4.767001152E0
3.591780584E0,5.727105141E0,1.128182316E1,-5.011217117E0
3.593780317E0,6.215537548E0,1.118365765E1,-5.509226322E0
3.595780117E0,6.672843933E0,1.098253822E1,-6.064698219E0
3.597779850E0,6.703969479E0,1.098732662E1,-6.129343510E0
3.599779516E0,6.703969479E0,1.098732662E1,-6.129343510E0
3.601779249E0,6.739883423E0,1.113577175E1,-6.234691620E0
3.603778982E0,6.749460697E0,1.125309181E1,-6.268211365E0
3.605778715E0,6.771008968E0,1.155237579E1,-6.256239891E0
3.607778448E0,6.747066498E0,1.197616291E1,-6.167652130E0
3.609778181E0,6.706363678E0,1.219404125E1,-6.095823765E0
3.611777981E0,6.524398804E0,1.260346222E1,-5.877944469E0
3.613777714E0,6.383136749E0,1.281655312E1,-5.727105141E0
3.615777447E0,5.312895775E0,1.394425678E1,-4.671230316E0
3.617777180E0,5.312895775E0,1.394425678E1,-4.671230316E0
3.619776980E0,5.312895775E0,1.394425678E1,-4.671230316E0
3.621776713E0,4.800520897E0,1.443029404E1,-4.137306690E0
3.623776446E0,4.283357620E0,1.490914917E1,-3.536343813E0
3.625776179E0,4.012804508E0,1.515575981E1,-3.208328247E0
3.627775979E0,3.531555414E0,1.562982559E1,-2.525959969E0
3.629775712E0,3.332830429E0,1.587883091E1,-2.202732801E0
3.631775445E0,3.000026226E0,1.640557098E1,-1.589798450E0
3.633775178E0,2.774964571E0,1.691315651E1,-1.000806928E0
3.635774911E0,2.616942406E0,1.774636459E1,-5.985686928E-2
3.637774677E0,2.616942406E0,1.774636459E1,-5.985686928E-2
3.639773943E0,2.609759569E0,1.790438652E1,1.556278616E-1
3.641773743E0,2.595393896E0,1.805522728E1,3.663240373E-1
3.643773543E0,2.612153769E0,1.830423164E1,7.422251701E-1
3.645773276E0,2.676799297E0,1.839281845E1,1.017566800E0
3.647773009E0,2.751021862E0,1.850774384E1,1.091789365E0
3.649772742E0,2.952140808E0,1.858436012E1,1.154040456E0
3.651772475E0,3.076643229E0,1.860830307E1,1.146857619E0
3.653772208E0,3.344801903E0,1.861309242E1,1.051086664E0
3.655771941E0,3.641691923E0,1.851971626E1,4.716721475E-1
3.657771741E0,3.641691923E0,1.851971626E1,4.716721475E-1
3.659771207E0,3.663240433E0,1.846704102E1,2.825244367E-1
3.661770940E0,3.656057596E0,1.837127113E1,-1.436564922E-1
3.663770673E0,3.624932051E0,1.833296204E1,-3.759011328E-1
3.665770406E0,3.505218267E0,1.825634575E1,-8.619389534E-1
3.667770139E0,3.438178539E0,1.819648933E1,-1.130097747E0
3.669769872E0,3.311282158E0,1.802170563E1,-1.755003452E0
3.671769605E0,3.177202702E0,1.782537651E1,-2.456526041E0
3.673769405E0,3.074248791E0,1.769847870E1,-2.832427025E0
3.675769138E0,2.423006058E0,1.688442612E1,-4.314483166E0
3.677768871E0,2.423006058E0,1.688442612E1,-4.314483166E0
3.679768571E0,2.423006058E0,1.688442612E1,-4.314483166E0
3.681768304E0,2.094990492E0,1.640796471E1,-4.752635479E0
3.683768037E0,1.939362645E0,1.613741302E1,-4.908263206E0
3.685767770E0,1.683175206E0,1.557236290E1,-5.099805355E0
3.687767503E0,1.491633177E0,1.501210308E1,-5.150084972E0
3.689767303E0,1.429382086E0,1.473676109E1,-5.116565228E0
3.691767036E0,1.362342358E0,1.415734673E1,-4.968120098E0
3.693766769E0,1.290514112E0,1.357074928E1,-4.671230316E0
3.695766502E0,1.252205729E0,1.242149734E1,-3.526766777E0
3.697766235E0,1.252205729E0,1.242149734E1,-3.526766777E0
3.699765601E0,1.235445857E0,1.211503029E1,-3.170019865E0
3.701765334E0,1.199531674E0,1.180377483E1,-2.806090117E0
3.703765067E0,1.139674783E0,1.118365765E1,-2.152452946E0
3.705764867E0,1.101366401E0,1.088197899E1,-1.778946161E0
3.707764600E0,1.046298146E0,1.027862167E1,-9.601042271E-1
3.709764333E0,9.984126091E-1,9.692024231E0,-1.939362586E-1
3.711764066E0,9.577099085E-1,9.380768776E0,1.675992310E-1
3.713763799E0,8.595446348E-1,8.772623062E0,8.284190893E-1
3.715763532E0,7.781392932E-1,7.726325035E0,1.800494671E0
3.717763265E0,7.781392932E-1,7.726325035E0,1.800494671E0
3.719763198E0,7.589851022E-1,7.489291668E0,1.980065227E0
3.721762998E0,7.541965842E-1,7.259441376E0,2.111750364E0
3.723762731E0,7.110996246E-1,6.854808807E0,2.260195494E0
3.725762464E0,6.081457734E-1,6.440599442E0,2.300898075E0
3.727762197E0,5.339232683E-1,6.213143349E0,2.322446585E0
3.729761930E0,3.998439014E-1,5.746259689E0,2.367937803E0
3.731761663E0,3.280156553E-1,5.363175392E0,2.358360767E0
3.733761396E0,3.375927508E-1,5.231490612E0,2.296109438E0
3.735761196E0,3.567469418E-1,4.697566986E0,1.690358043E0
3.737760929E0,3.567469418E-1,4.697566986E0,1.690358043E0
3.739760929E0,3.567469418E-1,4.697566986E0,1.690358043E0
3.741760662E0,2.490045726E-1,4.324060440E0,1.517970204E0
3.743760395E0,2.130904645E-1,4.161249638E0,1.436564922E0
3.745760128E0,2.059076279E-1,3.869148016E0,1.268965602E0
3.747759861E0,1.939362586E-1,3.610566378E0,1.132491946E0
3.749759594E0,1.699935049E-1,3.483669758E0,1.077423692E0
3.751759394E0,8.619388938E-2,3.181991339E0,9.696813226E-1
3.753759127E0,-1.436564885E-2,2.834821463E0,8.427847624E-1
3.755758860E0,-1.987248063E-1,2.423006058E0,5.985686779E-1
3.757758593E0,-1.987248063E-1,2.260195494E0,5.985686779E-1
3.759758693E0,-1.987248063E-1,2.260195494E0,5.985686779E-1
3.761758426E0,-2.083019018E-1,2.023162127E0,5.339232683E-1
3.763758159E0,-1.891477108E-1,1.874717116E0,4.189980924E-1
3.765757892E0,-2.035133541E-1,1.790917516E0,3.663240373E-1
3.767757692E0,-2.059076279E-1,1.647261024E0,2.849186957E-1
3.769757425E0,-2.298503816E-1,1.479661822E0,2.130904645E-1
3.771757158E0,-2.322446555E-1,1.400650740E0,1.628106833E-1
3.773756891E0,-1.723877788E-1,1.355159521E0,5.985686928E-2
3.775756624E0,1.149251908E-1,1.307274103E0,-1.652049571E-1
3.777756357E0,1.149251908E-1,1.307274103E0,-1.652049571E-1
3.779756123E0,1.652049571E-1,1.300091267E0,-2.370332032E-1
3.781755856E0,2.178790122E-1,1.283331275E0,-3.112557232E-1
3.783754856E0,3.112557232E-1,1.300091267E0,-3.974496126E-1
3.785754589E0,4.166038036E-1,1.364736676E0,-4.788549542E-1
3.787754322E0,4.477293789E-1,1.371919513E0,-5.051919818E-1
3.789754055E0,4.692778587E-1,1.386285067E0,-4.932205975E-1
3.791753788E0,4.980091453E-1,1.364736676E0,-4.980091453E-1
3.793753521E0,4.932205975E-1,1.359948039E0,-5.243461728E-1
3.795753254E0,5.075862408E-1,1.359948039E0,-5.961744189E-1
3.797753054E0,5.267404318E-1,1.336005330E0,-6.225114465E-1
3.799752587E0,5.267404318E-1,1.336005330E0,-6.225114465E-1
3.801752320E0,6.296942830E-1,1.319245458E0,-6.057515144E-1
3.803752053E0,6.847625971E-1,1.314456820E0,-5.650488734E-1
3.805751786E0,6.727912426E-1,1.242628574E0,-4.573064744E-1
3.807751519E0,5.889915824E-1,1.118126392E0,-3.184385598E-1
3.809751252E0,6.129343510E-1,1.115732074E0,-2.011190802E-1
3.811750985E0,6.967339516E-1,1.151646137E0,6.703969836E-2
3.813750785E0,6.775797606E-1,1.130097747E0,1.843591630E-1
3.815750585E0,6.177229285E-1,9.768640995E-1,7.350423932E-1
3.817750318E0,5.913859010E-1,9.409499764E-1,8.667274714E-1
3.819750051E0,5.913859010E-1,9.409499764E-1,8.667274714E-1
3.821749784E0,6.009629965E-1,8.834874034E-1,1.106154919E0
3.823749517E0,6.727912426E-1,9.098244309E-1,1.357553840E0
3.825749250E0,7.182824612E-1,9.217957854E-1,1.460507631E0
3.827748983E0,8.044763207E-1,9.529213905E-1,1.673598051E0
3.829748783E0,8.451790214E-1,9.696813226E-1,1.924996972E0
3.831748516E0,8.547561169E-1,1.007989645E0,2.047105074E0
3.833748249E0,8.786988258E-1,1.041509509E0,2.229069948E0
3.835747982E0,1.003201127E0,1.336005330E0,2.473285913E0
3.837747715E0,1.003201127E0,1.336005330E0,2.473285913E0
3.839747281E0,1.053480864E0,1.453324795E0,2.530748367E0
3.841747014E0,1.096577883E0,1.551490068E0,2.578634024E0
3.843747547E0,1.139674783E0,1.692752242E0,2.657644987E0
3.845747347E0,1.230657220E0,1.867534399E0,2.779752970E0
3.847747413E0,1.288119793E0,1.970488191E0,2.822849989E0
3.849747146E0,1.391073704E0,2.171607256E0,2.964112282E0
3.851746879E0,1.448536277E0,2.276955366E0,3.055094719E0
3.853746612E0,1.525153041E0,2.473285913E0,3.208328247E0
3.855746345E0,1.637683988E0,2.968900681E0,3.478881359E0
3.857746078E0,1.661626697E0,3.107768774E0,3.543526649E0
3.859745811E0,1.661626697E0,3.107768774E0,3.543526649E0
3.861745611E0,1.704723716E0,3.395081758E0,3.668029070E0
3.863745344E0,1.735849261E0,3.531555414E0,3.737462997E0
3.865745077E0,1.812466025E0,3.790137053E0,3.859570980E0
3.867744810E0,1.879505754E0,3.914639235E0,3.907456398E0
3.869744543E0,1.915419817E0,4.161249638E0,3.976890564E0
3.871744276E0,1.984853864E0,4.369551659E0,4.058295727E0
3.873744009E0,2.015979290E0,4.460534096E0,4.098998547E0
3.875743742E0,2.162030220E0,4.757423878E0,4.290540695E0
3.877743542E0,2.176395893E0,4.819674969E0,4.328848839E0
3.879743308E0,2.176395893E0,4.819674969E0,4.328848839E0
3.881743074E0,2.219492674E0,4.917840481E0,4.403071404E0
3.883742840E0,2.250618219E0,5.018400192E0,4.477293968E0
3.885742606E0,2.284138203E0,5.066285610E0,4.508419514E0
3.887742372E0,2.343995094E0,5.171633720E0,4.556304932E0
3.889742138E0,2.365543604E0,5.217124939E0,4.582642078E0
3.891741971E0,2.413429022E0,5.274587631E0,4.616161823E0
3.893741804E0,2.451737404E0,5.348809719E0,4.668835640E0
3.895741570E0,2.449343204E0,5.528380394E0,4.721509933E0
3.897741336E0,2.449343204E0,5.528380394E0,4.721509933E0
3.899741102E0,2.446948767E0,5.576265812E0,4.731087208E0
3.901740868E0,2.444554567E0,5.636122704E0,4.740664005E0
3.903740634E0,2.406246185E0,5.731894016E0,4.764606953E0
3.905740400E0,2.384697676E0,5.784567833E0,4.778972626E0
3.907739900E0,2.329629421E0,5.894704342E0,4.790944099E0
3.909739666E0,2.264983892E0,5.985687256E0,4.802915096E0
3.911739432E0,2.212309837E0,6.038361073E0,4.817280769E0
3.913739198E0,2.114144564E0,6.165257454E0,4.841223717E0
3.915738964E0,1.963305354E0,6.414262295E0,4.867560863E0
3.917738730E0,1.920208454E0,6.414262295E0,4.874743462E0
3.919738463E0,1.920208454E0,6.478907585E0,4.874743462E0
3.921738229E0,1.850774407E0,6.560312748E0,4.893897533E0
3.923738062E0,1.814860344E0,6.737489223E0,4.917840481E0
3.925737828E0,1.735849261E0,6.914665699E0,4.999245644E0
3.927737594E0,1.687963724E0,7.020013809E0,5.032765865E0
3.929737360E0,1.601769805E0,7.230710030E0,5.102199554E0
3.931737126E0,1.508393168E0,7.436617374E0,5.169239521E0
3.933736892E0,1.460507631E0,7.534782887E0,5.217124939E0
3.935736658E0,1.254600048E0,7.999272346E0,5.403878212E0
3.937736424E0,1.211503029E0,8.111803055E0,5.454157829E0
3.939736224E0,1.211503029E0,8.111803055E0,5.454157829E0
3.941735957E0,1.156434774E0,8.382355690E0,5.545140266E0
3.943735690E0,1.127703428E0,8.528407097E0,5.593026161E0
3.945735423E0,1.094183564E0,8.832479477E0,5.691191196E0
3.947735156E0,1.077423692E0,9.150918007E0,5.815693378E0
3.949734889E0,1.077423692E0,9.342460632E0,5.887521744E0
3.951734622E0,1.149251938E0,9.730332375E0,6.081458092E0
3.953734355E0,1.216291547E0,1.013257122E1,6.249057293E0
3.955734155E0,1.388679385E0,1.111182976E1,6.656084061E0
3.957733888E0,1.388679385E0,1.111182976E1,6.656084061E0
3.959732688E0,1.388679385E0,1.111182976E1,6.656084061E0
3.961732421E0,1.537124395E0,1.164096451E1,6.833260536E0
3.963732154E0,1.695146561E0,1.219883060E1,6.981705189E0
3.965731887E0,1.786128998E0,1.248374844E1,7.046350956E0
3.967731620E0,1.901054144E0,1.306316376E1,7.120573044E0
3.969731420E0,1.956122518E0,1.362581825E1,7.158881664E0
3.971731220E0,1.972882390E0,1.389876556E1,7.146910191E0
3.973730953E0,2.020767927E0,1.443508244E1,7.089447498E0
3.975730686E0,2.066259146E0,1.543588924E1,6.771008968E0
3.977730419E0,2.066259146E0,1.543588924E1,6.771008968E0
3.979730152E0,2.054287672E0,1.565376854E1,6.636929989E0
3.981729885E0,2.059076309E0,1.586207104E1,6.490879059E0
3.983729618E0,2.109356165E0,1.623318291E1,6.193988800E0
3.985729418E0,2.185972929E0,1.649655342E1,5.897099018E0
3.987729151E0,2.226675510E0,1.661626625E1,5.758230686E0
3.989728884E0,2.336812258E0,1.680302048E1,5.449369431E0
3.991728617E0,2.478074312E0,1.689160919E1,5.207547665E0
3.993728350E0,2.585816860E0,1.690357971E1,5.102199554E0
3.995728083E0,3.102980137E0,1.669527817E1,4.846012115E0
3.997727816E0,3.102980137E0,1.669527817E1,4.846012115E0
3.999727749E0,3.225088120E0,1.656119919E1,4.829252243E0
4.001727549E0,3.435784340E0,1.623318291E1,4.846012115E0
4.003727282E0,3.526766777E0,1.604643059E1,4.865166187E0
4.005727015E0,3.696760416E0,1.557475758E1,4.917840481E0
4.007726748E0,3.849993944E0,1.508393097E1,4.958543301E0
4.009726481E0,3.933793545E0,1.483732128E1,4.999245644E0
4.011726214E0,4.115758419E0,1.424832916E1,5.044736862E0
4.013725947E0,4.218712330E0,1.392510223E1,5.080651283E0
4.015725680E0,4.132518291E0,1.192348862E1,4.980091572E0
4.017725480E0,4.132518291E0,1.192348862E1,4.980091572E0
4.019725880E0,4.132518291E0,1.192348862E1,4.980091572E0
4.021725613E0,4.058295727E0,1.102563572E1,4.898686409E0
4.023725346E0,4.058295727E0,1.017327404E1,4.838829517E0
4.025725079E0,4.060689926E0,9.725543976E0,4.788549423E0
4.027724812E0,3.955342054E0,8.715160370E0,4.606584549E0
4.029724545E0,3.864359617E0,7.747873306E0,4.427014351E0
4.031724078E0,3.866753817E0,7.319298267E0,4.381523132E0
4.033723878E0,3.878725290E0,6.481301785E0,4.297723293E0
4.035723611E0,4.161249638E0,5.090228081E0,4.316877365E0
4.037723344E0,4.161249638E0,5.090228081E0,4.316877365E0
4.039723344E0,4.290540695E0,4.822069645E0,4.410254002E0
4.041723077E0,4.369551659E0,4.551516533E0,4.517996788E0
4.043724210E0,4.410254002E0,4.017592907E0,4.795732498E0
4.045723943E0,4.455745220E0,3.565075159E0,5.047131062E0
4.047723743E0,4.491659641E0,3.378321648E0,5.114171028E0
4.049723543E0,4.666441441E0,3.119740009E0,5.298530102E0
4.051723276E0,5.030371189E0,3.067065954E0,5.430215359E0
4.053723009E0,5.260221958E0,3.086220264E0,5.779779434E0
4.055722742E0,6.227508545E0,3.713520288E0,6.292154312E0
4.057722475E0,6.227508545E0,3.713520288E0,6.292154312E0
4.059722008E0,6.483695984E0,4.003227711E0,6.399896622E0
4.061721741E0,6.957762718E0,4.687990189E0,6.684815407E0
4.063721541E0,7.137333393E0,5.099805355E0,6.866780281E0
4.065721341E0,7.388731956E0,6.004841328E0,7.245075703E0
4.067721074E0,7.424646378E0,7.060716629E0,7.635342598E0
4.069720807E0,7.350423813E0,7.609005451E0,7.817307472E0
4.071720540E0,7.106207848E0,8.746285439E0,8.104619980E0
4.073720273E0,6.950579643E0,9.308940887E0,8.193208694E0
4.075720006E0,6.043149471E0,1.137041092E1,8.114197731E0
4.077719739E0,5.763019562E0,1.183729458E1,8.032792091E0
4.079719805E0,5.763019562E0,1.183729458E1,8.032792091E0
4.081719538E0,5.159662247E0,1.270402241E1,7.858009815E0
4.083719271E0,4.647287369E0,1.358750916E1,7.664073467E0
4.085719004E0,4.443774223E0,1.405678749E1,7.529994488E0
4.087718737E0,4.101392746E0,1.505041122E1,7.190007210E0
4.089718470E0,3.950553417E0,1.560827732E1,7.012830734E0
4.091718403E0,3.593806505E0,1.681738663E1,6.663266659E0
4.093718136E0,3.119740009E0,1.815818024E1,6.172440529E0
4.095717936E0,2.013585091E0,2.101454926E1,4.936994553E0
4.097717669E0,2.013585091E0,2.101454926E1,4.936994553E0
4.099717135E0,1.759791970E0,2.172086143E1,4.668835640E0
4.101716868E0,1.544307232E0,2.241520119E1,4.427014351E0
4.103715201E0,1.228263021E0,2.383021736E1,4.012804508E0
4.105714934E0,1.024749637E0,2.452695084E1,3.696760416E0
4.107714667E0,8.739103079E-1,2.585816765E1,3.565075159E0
4.109714400E0,4.644893110E-1,2.682306099E1,3.340013266E0
4.111714200E0,2.083019018E-1,2.714628792E1,3.275367975E0
4.113713933E0,-3.088614643E-1,2.748388100E1,3.158048391E0
4.115713666E0,-5.674431324E-1,2.655490112E1,2.384697676E0
4.117713399E0,-5.674431324E-1,2.655490112E1,2.384697676E0
4.119712799E0,-3.878725171E-1,2.602816200E1,1.917814136E0
4.121712532E0,-2.106961906E-1,2.424203300E1,3.759011328E-1
4.123712265E0,-7.661679387E-2,2.303292274E1,-5.387118459E-1
4.125711998E0,4.836435020E-1,2.019570732E1,-2.418217659E0
4.127711798E0,9.050358534E-1,1.864661217E1,-3.284945011E0
4.129711564E0,1.857957244E0,1.545983219E1,-4.460534096E0
4.131711330E0,2.604970932E0,1.198813438E1,-4.767001152E0
4.133711096E0,2.858764172E0,1.026665020E1,-4.539545059E0
4.135710862E0,3.004814863E0,3.543526649E0,-1.620923996E0
4.137710628E0,3.004814863E0,3.543526649E0,-1.620923996E0
4.139709528E0,3.004814863E0,3.543526649E0,-1.620923996E0
4.141709361E0,2.832427025E0,1.783734679E0,-7.853221297E-1
4.143709194E0,2.758204460E0,1.041509509E0,-5.626545548E-1
4.145709060E0,2.722290516E0,-1.508393139E-1,-5.458946824E-1
4.147708926E0,2.621730804E0,-1.094183564E0,-9.313728809E-1
4.149708792E0,2.566662550E0,-1.510787368E0,-1.201925993E0
4.151708658E0,2.492439985E0,-2.145270348E0,-1.867534399E0
4.153708524E0,2.482862949E0,-2.497228622E0,-2.549902678E0
4.155708390E0,2.600182533E0,-2.698347807E0,-3.452544212E0
4.157708323E0,2.600182533E0,-2.698347807E0,-3.452544212E0
4.159708256E0,2.600182533E0,-2.698347807E0,-3.452544212E0
4.161708189E0,2.710319042E0,-2.578634024E0,-3.591412306E0
4.163708122E0,2.827638626E0,-2.288926601E0,-3.500429869E0
4.165708055E0,2.868341208E0,-2.073441982E0,-3.368744612E0
4.167707988E0,2.803695917E0,-1.426987767E0,-2.877918243E0
4.169707921E0,2.583422422E0,-5.219519138E-1,-2.178790092E0
4.171707854E0,2.420611858E0,2.154847234E-2,-1.733454943E0
4.173707854E0,1.984853864E0,1.324033976E0,-6.177229285E-1
4.175707820E0,5.602602959E-1,4.503631115E0,2.027950764E0
4.177707786E0,5.602602959E-1,4.503631115E0,2.027950764E0
4.179708019E0,4.549122229E-2,5.370358467E0,2.695953369E0
4.181707985E0,-5.099805593E-1,6.251451492E0,3.323253393E0
4.183707951E0,-1.652049661E0,7.989695072E0,4.379128456E0
4.185707917E0,-2.729473352E0,9.622590065E0,5.207547665E0
4.187707883E0,-3.268185139E0,1.037918091E1,5.511620522E0
4.189707883E0,-4.218712330E0,1.176307201E1,5.930618763E0
4.191707849E0,-4.855589390E0,1.303682613E1,6.069486618E0
4.193707815E0,-5.121353626E0,1.359469223E1,6.052726746E0
4.195707781E0,-6.038361073E0,1.539279270E1,5.427821159E0
4.197707747E0,-6.196382999E0,1.539279270E1,5.427821159E0
4.199708580E0,-6.196382999E0,1.575193405E1,5.121353626E0
4.201708546E0,-6.390319347E0,1.633134842E1,4.324060440E0
4.203708512E0,-6.541158676E0,1.652767944E1,3.857176781E0
4.205708445E0,-6.701575279E0,1.686766624E1,2.743839025E0
4.207708378E0,-6.706363678E0,1.710709381E1,1.505998850E0
4.209708311E0,-6.715940952E0,1.718849945E1,8.691217303E-1
4.211708244E0,-6.572284222E0,1.731778908E1,-4.908263385E-1
4.213708177E0,-6.335251331E0,1.730581856E1,-1.869928598E0
4.215708110E0,-5.379935265E0,1.708794022E1,-3.952947617E0
4.217708043E0,-5.379935265E0,1.708794022E1,-3.952947617E0
4.219707976E0,-5.379935265E0,1.708794022E1,-3.952947617E0
4.221707909E0,-4.678412914E0,1.696583176E1,-4.427014351E0
4.223707775E0,-3.876330853E0,1.685808945E1,-4.517996788E0
4.225707641E0,-3.481275558E0,1.678626060E1,-4.448562622E0
4.227707507E0,-2.700742006E0,1.657316971E1,-4.094210148E0
4.229707373E0,-2.004008055E0,1.629543495E1,-3.478881359E0
4.231707239E0,-1.745426297E0,1.609671021E1,-3.091008663E0
4.233707105E0,-1.285725594E0,1.567531681E1,-2.229069948E0
4.235707005E0,-7.158881426E-1,1.466014481E1,-1.364736706E-1
4.237706838E0,-7.158881426E-1,1.466014481E1,-1.364736706E-1
4.239706738E0,-6.249057055E-1,1.438719749E1,3.782954216E-1
4.241706571E0,-5.315290093E-1,1.411425018E1,8.906702399E-1
4.243706404E0,-2.394274771E-1,1.361863518E1,1.877111435E0
4.245706237E0,4.788549617E-3,1.310147190E1,2.753416061E0
4.247706070E0,6.225114316E-2,1.278782177E1,3.143682718E0
4.249705903E0,2.633702159E-1,1.225868702E1,3.689577579E0
4.251705769E0,4.836435020E-1,1.174152374E1,4.053507328E0
4.253705569E0,6.296942830E-1,1.147336483E1,4.166038036E0
4.255705369E0,9.409499764E-1,1.039354706E1,4.185192585E0
4.257705169E0,9.409499764E-1,1.039354706E1,4.185192585E0
4.259704602E0,1.031932473E0,1.012059975E1,4.189980984E0
4.261704402E0,1.170800328E0,9.522030830E0,4.252232075E0
4.263704202E0,1.218685865E0,9.143735886E0,4.271386147E0
4.265704002E0,1.290514112E0,8.360807419E0,4.055901527E0
4.267703802E0,1.345582485E0,7.716747761E0,3.754222870E0
4.269703535E0,1.331216812E0,7.441406250E0,3.653663397E0
4.271703268E0,1.221080184E0,6.924242973E0,3.399870157E0
4.273703001E0,1.151646137E0,6.648900986E0,3.234665155E0
4.275702734E0,7.350423932E-1,5.435003757E0,2.255406857E0
4.277702467E0,7.350423932E-1,5.435003757E0,2.255406857E0
4.279702200E0,7.350423932E-1,5.435003757E0,2.255406857E0
4.281701933E0,6.225114465E-1,5.056708336E0,1.941756845E0
4.283701733E0,5.123748183E-1,4.771789551E0,1.675992370E0
4.285701466E0,4.381522834E-1,4.687990189E0,1.592192769E0
4.287701199E0,3.088614643E-1,4.575459003E0,1.453324795E0
4.289700932E0,2.513988614E-1,4.549122334E0,1.359948039E0
4.291700665E0,2.250618339E-1,4.537150860E0,1.338399649E0
4.293700398E0,1.149251908E-1,4.525179386E0,1.357553840E0
4.295700131E0,1.292908341E-1,4.704750061E0,1.345582485E0
4.297699931E0,1.292908341E-1,4.704750061E0,1.345582485E0
4.299699731E0,1.604164094E-1,4.783761024E0,1.333611012E0
4.301699464E0,1.867534369E-1,4.879531860E0,1.319245458E0
