"Time (s)","Gyroscope x (rad/s)","Gyroscope y (rad/s)","Gyroscope z (rad/s)"
3.052000000E-5,4.602082670E-1,1.246397421E-1,-2.418224066E-1
9.832500000E-3,3.355685472E-1,1.970799267E-1,-2.546059787E-1
1.481734500E-2,3.291767538E-1,1.970799267E-1,-2.652589381E-1
1.990437600E-2,2.940219641E-1,2.194511741E-1,-2.727160156E-1
2.490390900E-2,2.567365468E-1,2.375612110E-1,-2.886954844E-1
2.999859600E-2,2.311694324E-1,2.460835874E-1,-3.142625988E-1
3.498052400E-2,2.087981999E-1,2.492794842E-1,-3.494173884E-1
4.007276400E-2,1.853616685E-1,2.471488863E-1,-3.920292854E-1
4.505266100E-2,1.640557349E-1,2.460835874E-1,-4.420982301E-1
5.015833700E-2,1.459456831E-1,2.503447831E-1,-4.974936545E-1
5.512453700E-2,1.289009303E-1,2.524753809E-1,-5.486279130E-1
6.023073400E-2,1.150520667E-1,2.535406649E-1,-6.029580832E-1
6.520651700E-2,1.107908785E-1,2.546059787E-1,-6.519617438E-1
7.030646400E-2,1.182479635E-1,2.567365468E-1,-7.041612864E-1
7.529552800E-2,1.459456831E-1,2.567365468E-1,-7.648832202E-1
8.039646500E-2,2.024064213E-1,2.524753809E-1,-8.394539952E-1
8.543589400E-2,2.823036909E-1,2.492794842E-1,-9.332001209E-1
9.047151900E-2,3.877680898E-1,2.546059787E-1,-1.040795088E0
9.544636400E-2,5.038854480E-1,2.609977424E-1,-1.151585937E0
1.005499570E-1,6.242640018E-1,2.673895359E-1,-1.263442159E0
1.055189690E-1,7.339895964E-1,2.705854177E-1,-1.367841244E0
1.106172500E-1,8.256051540E-1,2.631283402E-1,-1.469044447E0
1.156002200E-1,8.916535378E-1,2.471488863E-1,-1.565986514E0
1.207199070E-1,9.406571984E-1,2.183858752E-1,-1.656536698E0
1.256929810E-1,9.651589990E-1,1.757739931E-1,-1.734303355E0
1.307852730E-1,9.587672353E-1,1.203785539E-1,-1.804612994E0
1.357601180E-1,9.321348071E-1,5.433014408E-2,-1.861073732E0
1.408511070E-1,8.852617741E-1,-2.556712553E-2,-1.911142707E0
1.458616290E-1,8.256051540E-1,-1.246397421E-1,-1.956950426E0
1.509413160E-1,7.606220245E-1,-2.599324584E-1,-2.013411283E0
1.559385050E-1,6.785941720E-1,-3.877680898E-1,-2.074133158E0
1.610044420E-1,5.912398100E-1,-4.410329461E-1,-2.112483740E0
1.659940790E-1,5.049507618E-1,-4.687306583E-1,-2.134855032E0
1.711050680E-1,4.282493591E-1,-4.761877358E-1,-2.151899815E0
1.760700170E-1,3.590050638E-1,-4.666000605E-1,-2.173205853E0
1.811992360E-1,3.036096394E-1,-4.740571380E-1,-2.200903416E0
1.861524140E-1,2.578018606E-1,-4.367717505E-1,-2.224339962E0
1.912488720E-1,2.237123549E-1,-3.345032334E-1,-2.232862473E0
1.962474670E-1,2.087981999E-1,-2.524753809E-1,-2.243515253E0
2.013291860E-1,2.109287977E-1,-2.226470560E-1,-2.252037764E0
2.063261140E-1,2.226470560E-1,-2.258429527E-1,-2.265886545E0
2.114165310E-1,2.407571077E-1,-2.428877056E-1,-2.282931328E0
2.163896570E-1,2.620630562E-1,-2.759118974E-1,-2.306367874E0
2.215159590E-1,2.865648866E-1,-3.227849603E-1,-2.336196184E0
2.264677830E-1,3.121320009E-1,-3.600703776E-1,-2.363893986E0
2.315880430E-1,3.387644291E-1,-3.867027760E-1,-2.390526295E0
2.365467940E-1,3.611356616E-1,-4.101393223E-1,-2.408636332E0
2.416973150E-1,3.771151006E-1,-4.463594258E-1,-2.412897587E0
2.466306500E-1,3.898986876E-1,-4.879060090E-1,-2.411832333E0
2.517248680E-1,3.941598535E-1,-5.081466436E-1,-2.403309822E0
2.567038280E-1,3.930945694E-1,-5.102772117E-1,-2.375612259E0
2.618133590E-1,3.888333738E-1,-5.198649168E-1,-2.343653202E0
2.668026310E-1,3.653968573E-1,-5.688685775E-1,-2.313824892E0
2.718834120E-1,2.993484437E-1,-6.668758988E-1,-2.313824892E0
2.768620590E-1,2.471488863E-1,-7.137489319E-1,-2.292519093E0
2.819602360E-1,2.183858752E-1,-7.297284007E-1,-2.253103018E0
2.869414870E-1,1.981452256E-1,-7.489037514E-1,-2.201968670E0
2.920408620E-1,1.800351888E-1,-7.787320614E-1,-2.147638559E0
2.970339360E-1,1.683169156E-1,-7.947115302E-1,-2.089047194E0
3.021448730E-1,1.544680595E-1,-7.979074121E-1,-2.027260065E0
3.071017490E-1,1.427497864E-1,-8.085603714E-1,-1.964407563E0
3.122026340E-1,1.289009303E-1,-8.234745264E-1,-1.900489688E0
3.171833650E-1,1.107908785E-1,-8.373233676E-1,-1.835506678E0
3.222762290E-1,8.841964602E-2,-8.288010359E-1,-1.771588802E0
3.286655530E-1,6.817900389E-2,-7.925809026E-1,-1.711932182E0
3.323136270E-1,5.646073818E-2,-7.201407552E-1,-1.643753171E0
3.374041990E-1,6.178722158E-2,-6.615493894E-1,-1.559594750E0
3.423747220E-1,7.457078248E-2,-6.817900538E-1,-1.490350366E0
3.474993050E-1,1.054643989E-1,-6.956388950E-1,-1.434955001E0
3.524656080E-1,1.502068639E-1,-6.977695227E-1,-1.359318852E0
3.575626910E-1,2.024064213E-1,-6.722023487E-1,-1.235744476E0
3.625525880E-1,2.759118974E-1,-7.382507920E-1,-1.082341671E0
3.676371190E-1,3.334379494E-1,-8.607599139E-1,-9.449183941E-1
3.726311310E-1,3.153278828E-1,-9.172206521E-1,-8.639557958E-1
3.777143600E-1,2.503447831E-1,-9.268083572E-1,-8.298662901E-1
3.827091530E-1,1.821657717E-1,-9.204165339E-1,-8.202786446E-1
3.877938400E-1,1.246397421E-1,-9.076330066E-1,-8.160174489E-1
3.927814970E-1,7.350549102E-2,-8.628905416E-1,-7.957767844E-1
3.978840490E-1,3.941598535E-2,-7.829932570E-1,-7.563608289E-1
4.028555090E-1,3.195890784E-2,-6.956388950E-1,-7.190754414E-1
4.079603520E-1,5.113425106E-2,-6.402434707E-1,-7.062918544E-1
4.129385310E-1,7.244019210E-2,-6.136110425E-1,-7.244018912E-1
4.180284260E-1,8.202786744E-2,-5.848480463E-1,-7.467731237E-1
4.230116050E-1,9.907261282E-2,-5.635420680E-1,-7.595567107E-1
4.281415520E-1,1.182479635E-1,-5.411708355E-1,-7.829932570E-1
4.331111370E-1,1.395539045E-1,-5.017548800E-1,-8.042991757E-1
4.381996260E-1,1.757739931E-1,-4.506205916E-1,-8.170827627E-1
4.431825440E-1,2.151899785E-1,-3.792456985E-1,-8.224092126E-1
4.482690020E-1,2.556712627E-1,-2.588671446E-1,-8.170827627E-1
4.532463470E-1,2.801730931E-1,-1.257050335E-1,-8.074950576E-1
4.583510860E-1,2.886954844E-1,2.343653329E-2,-8.021686077E-1
4.633348900E-1,2.812383771E-1,2.002758235E-1,-8.053644896E-1
4.684406710E-1,2.556712627E-1,3.717886209E-1,-8.128215671E-1
4.734112970E-1,2.034717202E-1,4.921671748E-1,-8.011032939E-1
4.785033800E-1,1.331621110E-1,5.571503043E-1,-7.776667476E-1
4.834908290E-1,5.859133229E-2,6.072192788E-1,-7.755361795E-1
4.885864540E-1,-2.343653329E-2,6.668758988E-1,-8.085603714E-1
4.935727570E-1,-1.001379117E-1,6.839206219E-1,-8.511722684E-1
4.986668720E-1,-1.651210189E-1,6.498311162E-1,-8.895229697E-1
5.036584880E-1,-2.024064213E-1,6.114804149E-1,-9.204165339E-1
5.087424460E-1,-2.247776538E-1,5.614115000E-1,-9.321348071E-1
5.137322390E-1,-2.396918088E-1,5.475625992E-1,-9.342654347E-1
5.188508840E-1,-2.183858752E-1,6.008274555E-1,-9.300042391E-1
5.238058330E-1,-1.619251370E-1,6.903123856E-1,-9.182859659E-1
5.289038540E-1,-1.012032107E-1,7.744708657E-1,-9.161553383E-1
5.338850010E-1,-3.728539124E-2,7.925809026E-1,-9.246777296E-1
5.390235950E-1,6.498311460E-2,7.190754414E-1,-9.321348071E-1
5.439607830E-1,2.109287977E-1,5.986968875E-1,-9.395918846E-1
5.490706270E-1,3.994863629E-1,4.783183336E-1,-9.427877665E-1
5.540511490E-1,5.976315737E-1,3.419603109E-1,-9.470489621E-1
5.591417740E-1,7.734055519E-1,1.544680595E-1,-9.736813903E-1
5.641271390E-1,9.012411833E-1,-3.622009605E-2,-1.029076815E0
5.692218270E-1,1.001379132E0,-1.448803842E-1,-1.110039353E0
5.742143800E-1,1.090864062E0,-1.917534471E-1,-1.147324800E0
5.793001090E-1,1.179283738E0,-2.279735506E-1,-1.130280018E0
5.842949020E-1,1.283682823E0,-2.652589381E-1,-1.071688771E0
5.893780270E-1,1.437085509E0,-3.345032334E-1,-9.885955453E-1
5.943605800E-1,1.656536698E0,-4.719265401E-1,-9.193512797E-1
5.994719340E-1,1.924991608E0,-3.781804144E-1,-8.916535378E-1
6.044477680E-1,1.926056862E0,-4.037475288E-1,-8.415845633E-1
6.095362060E-1,1.770523548E0,-5.251913667E-1,-8.373233676E-1
6.145190190E-1,1.732172847E0,-2.844342887E-1,-8.980453014E-1
6.196223520E-1,1.678907990E0,2.982831374E-2,-9.832690954E-1
6.246004790E-1,1.594749570E0,3.366338313E-1,-9.875302315E-1
6.297098010E-1,1.496742249E0,6.231986880E-1,-8.426498771E-1
6.346769900E-1,1.418975472E0,8.639557958E-1,-6.285251975E-1
6.398045940E-1,1.379559517E0,1.037599206E0,-4.239881933E-1
6.447516270E-1,1.363580108E0,1.122823000E0,-2.471488863E-1
6.498510010E-1,1.359318852E0,1.152651310E0,-7.030959427E-2
6.548467320E-1,1.360384226E0,1.146259546E0,1.299662292E-1
6.599411590E-1,1.372102499E0,1.100451708E0,3.217196763E-1
6.649200660E-1,1.380624771E0,1.046121597E0,4.527511895E-1
6.700048050E-1,1.372102499E0,1.014162660E0,5.198649168E-1
6.749902760E-1,1.335882306E0,9.939220548E-1,5.358443856E-1
6.801026710E-1,1.290074587E0,9.566366673E-1,5.187996030E-1
6.850862660E-1,1.238940358E0,8.905882239E-1,4.719265401E-1
6.901816300E-1,1.193132520E0,7.861891389E-1,4.080087245E-1
6.951463710E-1,1.156912446E0,6.498311162E-1,3.259808719E-1
7.002596520E-1,1.126018882E0,4.889712930E-1,2.279735506E-1
7.052417890E-1,1.110039353E0,3.110667169E-1,1.225091442E-1
7.103373090E-1,1.103647590E0,1.331621110E-1,0.000000000E0
7.153263210E-1,1.092994690E0,-1.065296959E-2,-1.150520667E-1
7.204085080E-1,1.074884653E0,-7.776667923E-2,-2.119940966E-1
7.254019470E-1,1.092994690E0,-1.544680595E-1,-3.195890784E-1
7.304915820E-1,1.146259546E0,-2.546059787E-1,-4.101393223E-1
7.354686670E-1,1.205916166E0,-3.387644291E-1,-4.729918540E-1
7.405601770E-1,1.255985141E0,-4.080087245E-1,-5.305178761E-1
7.455491890E-1,1.298596978E0,-4.687306583E-1,-5.880439281E-1
7.506885120E-1,1.329490542E0,-4.942977726E-1,-6.445046663E-1
7.556276270E-1,1.346535325E0,-4.783183336E-1,-6.764635444E-1
7.607470020E-1,1.338012934E0,-4.463594258E-1,-6.732676625E-1
7.657261700E-1,1.298596978E0,-4.165311158E-1,-6.402434707E-1
7.708313260E-1,1.240005612E0,-3.739192188E-1,-5.859133005E-1
7.757875250E-1,1.160108328E0,-3.206543922E-1,-5.038854480E-1
7.808833580E-1,1.070623398E0,-2.620630562E-1,-4.058781266E-1
7.858659640E-1,9.779425859E-1,-2.056023031E-1,-3.068055212E-1
7.909771610E-1,8.873923421E-1,-1.502068639E-1,-2.162552774E-1
7.959473710E-1,8.074950576E-1,-1.043990999E-1,-1.289009303E-1
8.010399230E-1,7.425119877E-1,-7.563608140E-2,-4.154657945E-2
8.060241430E-1,6.967042089E-1,-6.072192639E-2,3.622009605E-2
8.111211220E-1,6.722023487E-1,-5.752603337E-2,9.374613315E-2
8.161123730E-1,6.647452712E-1,-6.391781569E-2,1.342274100E-1
8.211976850E-1,6.817900538E-1,-8.309315890E-2,1.640557349E-1
8.261953430E-1,7.137489319E-1,-1.129214764E-1,1.864269674E-1
8.312869050E-1,7.563608289E-1,-1.459456831E-1,1.917534471E-1
8.362643020E-1,8.000379801E-1,-1.725780964E-1,1.906881481E-1
8.413601350E-1,8.383886814E-1,-1.938840449E-1,1.842963696E-1
8.463434700E-1,8.735435009E-1,-2.119940966E-1,1.725780964E-1
8.514663340E-1,9.140247703E-1,-2.322347313E-1,1.608598381E-1
8.564217520E-1,9.587672353E-1,-2.503447831E-1,1.459456831E-1
8.615260220E-1,1.008836150E0,-2.652589381E-1,1.257050335E-1
8.664976380E-1,1.061035752E0,-2.727160156E-1,9.907261282E-2
8.716144090E-1,1.111104727E0,-2.705854177E-1,7.457078248E-2
8.765784210E-1,1.148390055E0,-2.546059787E-1,6.924430281E-2
8.816738370E-1,1.167565465E0,-2.226470560E-1,8.628904819E-2
8.866640990E-1,1.176087856E0,-1.597945392E-1,1.097255871E-1
8.917652960E-1,1.170761347E0,-7.030959427E-2,1.320968270E-1
8.967393080E-1,1.144128919E0,2.663242258E-2,1.608598381E-1
9.022599850E-1,1.116431236E0,1.289009303E-1,1.949493438E-1
9.068233720E-1,1.078080535E0,2.109287977E-1,2.311694324E-1
9.119076940E-1,1.028011560E0,2.609977424E-1,2.780424953E-1
9.169084250E-1,9.747467041E-1,3.014790416E-1,3.142625988E-1
9.220013930E-1,9.204165339E-1,3.376991153E-1,3.313073516E-1
9.269871240E-1,8.639557958E-1,3.579397798E-1,3.366338313E-1
9.320825920E-1,7.989727259E-1,3.600703776E-1,3.313073516E-1
9.370643120E-1,7.403813601E-1,3.462215066E-1,3.217196763E-1
9.421473850E-1,6.743329763E-1,3.036096394E-1,3.131972849E-1
9.471351980E-1,6.050886512E-1,2.460835874E-1,2.982831299E-1
9.522550940E-1,5.305178761E-1,1.896228492E-1,2.769772112E-1
9.572111890E-1,4.495553076E-1,1.363580078E-1,2.609977424E-1
9.623053030E-1,3.632662594E-1,9.481142461E-2,2.492794842E-1
9.673052000E-1,2.918913662E-1,6.924430281E-2,2.386265099E-1
9.724227520E-1,2.354306281E-1,5.752603337E-2,2.322347313E-1
9.773700450E-1,1.970799267E-1,6.178722158E-2,2.269082516E-1
9.824834820E-1,1.779045910E-1,8.202786744E-2,2.194511741E-1
9.874493690E-1,1.736433953E-1,1.065296903E-1,2.109287977E-1
9.925482750E-1,1.715128124E-1,1.235744432E-1,2.109287977E-1
9.975279120E-1,1.747086942E-1,1.576639414E-1,2.183858752E-1
1.002625932E0,1.842963696E-1,2.162552774E-1,2.226470560E-1
1.007609944E0,1.906881481E-1,2.631283402E-1,2.183858752E-1
1.012700673E0,1.917534471E-1,2.812383771E-1,2.141246796E-1
1.017702653E0,1.960146427E-1,2.929566503E-1,2.173205763E-1
1.022792132E0,1.938840449E-1,3.068055212E-1,2.205164731E-1
1.027764217E0,1.779045910E-1,3.057402074E-1,2.247776538E-1
1.032881717E0,1.438150853E-1,3.025443256E-1,2.343653291E-1
1.037846510E0,9.907261282E-2,3.025443256E-1,2.471488863E-1
1.042981405E0,5.219954997E-2,3.036096394E-1,2.471488863E-1
1.047929740E0,9.587672539E-3,2.982831299E-1,2.407571077E-1
1.053031042E0,-2.982831374E-2,2.791078091E-1,2.322347313E-1
1.058008595E0,-6.391781569E-2,2.428877056E-1,2.194511741E-1
1.063097397E0,-9.694202244E-2,1.906881481E-1,2.056023031E-1
1.068096044E0,-1.331621110E-1,1.331621110E-1,1.917534471E-1
1.073180210E0,-1.693822145E-1,8.096256852E-2,1.747086942E-1
1.078178128E0,-2.013411224E-1,3.622009605E-2,1.544680595E-1
1.083276826E0,-2.333000302E-1,4.261187743E-3,1.310315281E-1
1.088253442E0,-2.716507316E-1,-2.343653329E-2,1.129214764E-1
1.093344848E0,-3.142625988E-1,-3.835069016E-2,1.086602882E-1
1.098327505E0,-3.622009456E-1,-3.515479714E-2,1.054643989E-1
1.103430369E0,-4.090740085E-1,-2.024064213E-2,1.139867753E-1
1.108401725E0,-4.538165033E-1,-2.130593872E-3,1.278356314E-1
1.113511412E0,-4.868406951E-1,1.811004803E-2,1.448803842E-1
1.118484851E0,-5.081466436E-1,3.515479714E-2,1.725780964E-1
1.123580111E0,-5.230607986E-1,3.941598535E-2,1.981452256E-1
1.128556675E0,-5.347790718E-1,3.515479714E-2,2.269082516E-1
1.133663497E0,-5.433014631E-1,2.876301669E-2,2.588671446E-1
1.138650738E0,-4.580776691E-1,1.331621110E-1,2.641936541E-1
1.143730998E0,-1.459456831E-1,4.783183336E-1,1.832310706E-1
1.148734594E0,2.396918088E-1,8.234745264E-1,1.065296903E-1
1.153814541E0,6.359822750E-1,1.042925715E0,5.219954997E-2
1.158807720E0,9.534407854E-1,1.102582335E0,0.000000000E0
1.163890948E0,1.089798808E0,1.015228033E0,-1.278356276E-2
1.168891835E0,1.110039353E0,8.426498771E-1,6.391781382E-3
1.173970168E0,1.094059944E0,6.647452712E-1,3.195890784E-2
1.178958242E0,1.088733435E0,5.486279130E-1,4.048128426E-2
1.184082409E0,1.097255826E0,5.166690350E-1,4.261187837E-2
1.189033348E0,1.100451708E0,5.283873081E-1,5.539543927E-2
1.194150847E0,1.089798808E0,5.539544225E-1,7.350549102E-2
1.199122203E0,1.057839870E0,5.827174187E-1,9.268083423E-2
1.204224390E0,9.896608591E-1,6.327863932E-1,1.161173657E-1
1.209193193E0,8.948494196E-1,7.062918544E-1,1.448803842E-1
1.214294130E0,8.011032939E-1,7.350549102E-1,1.629904360E-1
1.219274601E0,7.339895964E-1,7.361201644E-1,1.448803842E-1
1.224397934E0,6.828553081E-1,7.222713232E-1,1.054643989E-1
1.229366945E0,6.498311162E-1,6.668758988E-1,5.859133229E-2
1.234450903E0,6.434393525E-1,5.859133005E-1,-4.261187743E-3
1.239434915E0,6.583535075E-1,4.932324886E-1,-8.628904819E-2
1.244527206E0,6.828553081E-1,4.101393223E-1,-1.853616685E-1
1.249519447E0,6.924430132E-1,3.195890784E-1,-2.737812996E-1
1.254605905E0,6.764635444E-1,2.109287977E-1,-3.494173884E-1
1.259590542E0,6.636800170E-1,1.257050335E-1,-4.175963998E-1
1.264697000E0,6.615493894E-1,6.178722158E-2,-4.740571380E-1
1.269672679E0,6.583535075E-1,6.391781382E-3,-5.081466436E-1
1.274764709E0,6.423740387E-1,-5.113425106E-2,-5.241261125E-1
1.279749815E0,6.242640018E-1,-1.001379117E-1,-5.294525623E-1
1.284856690E0,6.029580832E-1,-1.214438528E-1,-5.337137580E-1
1.289821535E0,5.720644593E-1,-1.257050335E-1,-5.230607986E-1
1.294960232E0,5.283873081E-1,-1.182479635E-1,-4.921671748E-1
1.299908046E0,4.847100973E-1,-9.161553532E-2,-4.431635141E-1
1.304997525E0,4.580776691E-1,-4.900366068E-2,-3.920292854E-1
1.310010651E0,4.463594258E-1,8.522375487E-3,-3.483521044E-1
1.315083099E0,4.495553076E-1,8.096256852E-2,-3.131972849E-1
1.320078517E0,4.474247098E-1,1.725780964E-1,-2.556712627E-1
1.325161433E0,4.303799570E-1,2.748466134E-1,-1.896228492E-1
1.330157268E0,4.303799570E-1,3.877680898E-1,-1.565986425E-1
1.335248101E0,4.282493591E-1,4.879060090E-1,-1.406191885E-1
1.340220238E0,4.186616838E-1,5.411708355E-1,-1.427497864E-1
1.345330446E0,4.197269976E-1,5.518237948E-1,-1.672516167E-1
1.350306645E0,4.431635141E-1,5.241261125E-1,-1.970799267E-1
1.355394301E0,4.655347466E-1,4.559471011E-1,-2.077329010E-1
1.360382583E0,4.634041786E-1,3.707233369E-1,-1.981452256E-1
1.365489458E0,4.580776691E-1,3.078708053E-1,-1.842963696E-1
1.370476386E0,4.697959423E-1,2.886954844E-1,-1.651210189E-1
1.375600970E0,4.697959423E-1,2.865648866E-1,-1.342274100E-1
1.380568627E0,4.484900236E-1,2.897607684E-1,-1.012032107E-1
1.385637481E0,4.261187613E-1,3.110667169E-1,-6.711370498E-2
1.390751701E0,4.026822448E-1,3.483521044E-1,-3.728539124E-2
1.395958472E0,3.803110123E-1,4.048128426E-1,-2.343653329E-2
1.400704723E0,3.600703776E-1,4.655347466E-1,-1.917534508E-2
1.406065348E0,3.195890784E-1,5.156037211E-1,-1.065296936E-3
1.411069724E0,2.567365468E-1,5.550196767E-1,4.261187837E-2
1.416125661E0,1.885575503E-1,6.029580832E-1,7.883197069E-2
1.421099569E0,1.171826646E-1,6.551576257E-1,1.139867753E-1
1.426260818E0,5.219954997E-2,6.999000907E-1,1.459456831E-1
1.431189049E0,2.130593872E-3,7.425119877E-1,1.683169156E-1
1.436283059E0,-2.237123623E-2,8.011032939E-1,1.789698899E-1
1.441302956E0,-2.769771963E-2,8.628905416E-1,1.928187460E-1
1.446358164E0,-2.982831374E-2,8.969800472E-1,2.141246796E-1
1.451369467E0,-3.302420676E-2,8.980453014E-1,2.375612110E-1
1.456473009E0,-3.302420676E-2,8.671516776E-1,2.578018606E-1
1.461510458E0,-2.876301669E-2,8.117562532E-1,2.705854177E-1
1.466560510E0,3.195890691E-3,7.616873384E-1,2.961525619E-1
1.471527178E0,4.580776766E-2,7.190754414E-1,3.259808719E-1
1.476604573E0,6.924430281E-2,6.913776994E-1,3.632662594E-1
1.481610981E0,7.030959427E-2,6.903123856E-1,3.877680898E-1
1.486710460E0,5.006895587E-2,7.265325189E-1,4.069434404E-1
1.491657596E0,2.450183034E-2,7.904503345E-1,4.239881933E-1
1.496830305E0,1.065296936E-3,8.746087551E-1,4.282493591E-1
1.501809108E0,-2.024064213E-2,9.630284309E-1,4.271840751E-1
1.506905930E0,-1.491415687E-2,1.066362262E0,4.069434404E-1
1.511802651E0,4.261187743E-3,1.150520682E0,3.653968573E-1
1.516951765E0,1.171826664E-2,1.182479620E0,3.259808719E-1
1.521912027E0,3.195890784E-2,1.173957229E0,2.918913662E-1
1.526974943E0,5.965662748E-2,1.157977819E0,2.460835874E-1
1.531986142E0,8.415845782E-2,1.153716564E0,2.141246796E-1
1.537136975E0,9.587672353E-2,1.147324800E0,2.237123549E-1
1.542072393E0,8.735434711E-2,1.118561745E0,2.609977424E-1
1.547192705E0,6.604841352E-2,1.072754025E0,3.131972849E-1
1.552162915E0,6.178722158E-2,1.035468578E0,3.845722079E-1
1.557246092E0,8.202786744E-2,1.003509760E0,4.271840751E-1
1.562201718E0,1.331621110E-1,9.747467041E-1,4.293146729E-1
1.567356301E0,1.874922663E-1,9.406571984E-1,4.207922816E-1
1.572317761E0,2.439530045E-1,9.097635746E-1,4.346411526E-1
1.577437292E0,2.823036909E-1,8.852617741E-1,4.463594258E-1
1.582416564E0,2.993484437E-1,8.937841058E-1,4.399676323E-1
1.587692918E0,2.886954844E-1,9.150900841E-1,4.154658020E-1
1.592473492E0,2.535406649E-1,9.363960028E-1,3.771151006E-1
1.597602294E0,2.237123549E-1,9.630284309E-1,3.302420378E-1
1.602575837E0,2.130593807E-1,9.853996634E-1,2.812383771E-1
1.607641982E0,2.066676021E-1,9.832690954E-1,2.450182885E-1
1.612843494E0,2.194511741E-1,9.608978629E-1,2.173205763E-1
1.617696300E0,2.322347313E-1,9.001759291E-1,2.066676021E-1
1.622701711E0,2.428877056E-1,7.861891389E-1,2.066676021E-1
1.627861411E0,2.535406649E-1,6.221334338E-1,2.130593807E-1
1.632866822E0,2.588671446E-1,4.410329461E-1,2.322347313E-1
1.637902753E0,2.535406649E-1,2.727160156E-1,2.652589381E-1
1.642613445E0,2.386265099E-1,1.363580078E-1,2.780424953E-1
1.647701986E0,2.087981999E-1,2.663242258E-2,2.727160156E-1
1.652689644E0,1.874922663E-1,-4.900366068E-2,2.652589381E-1
1.657780008E0,1.800351888E-1,-9.481142461E-2,2.375612110E-1
1.662765739E0,1.896228492E-1,-1.001379117E-1,1.864269674E-1
1.667885374E0,2.045370042E-1,-6.391781569E-2,1.225091442E-1
1.672996469E0,2.194511741E-1,-2.343653329E-2,5.113425106E-2
1.678086833E0,2.322347313E-1,1.065296936E-3,-2.450183034E-2
1.683098084E0,2.439530045E-1,-1.704475097E-2,-9.374613315E-2
1.688163032E0,2.428877056E-1,-6.285251677E-2,-1.299662292E-1
1.693136835E0,2.301041335E-1,-1.150520667E-1,-1.374233067E-1
1.698123502E0,2.119940966E-1,-1.715128124E-1,-1.193132550E-1
1.703267513E0,1.906881481E-1,-2.130593807E-1,-5.859133229E-2
1.708319128E0,1.651210189E-1,-2.183858752E-1,4.154657945E-2
1.713342671E0,1.480762810E-1,-1.917534471E-1,1.587292403E-1
1.718452202E0,1.289009303E-1,-1.544680595E-1,2.759118974E-1
1.723382567E0,1.097255871E-1,-1.182479635E-1,3.707233369E-1
1.728506213E0,1.001379117E-1,-8.841964602E-2,4.335758388E-1
1.733444548E0,9.907261282E-2,-8.096256852E-2,4.697959423E-1
1.738534131E0,1.278356314E-1,-9.800732136E-2,4.697959423E-1
1.743517622E0,1.789698899E-1,-1.363580078E-1,4.484900236E-1
1.748699861E0,2.322347313E-1,-1.960146427E-1,4.122699201E-1
1.753628456E0,2.609977424E-1,-2.514100671E-1,3.696580231E-1
1.758725429E0,2.823036909E-1,-2.748466134E-1,3.334379494E-1
1.763785488E0,3.110667169E-1,-2.918913662E-1,3.046749234E-1
1.768826269E0,3.568744659E-1,-3.110667169E-1,2.865648866E-1
1.773783562E0,4.165311158E-1,-3.302420378E-1,2.588671446E-1
1.778863770E0,4.676653445E-1,-3.622009456E-1,2.492794842E-1
1.783872834E0,4.580776691E-1,-4.154658020E-1,2.940219641E-1
1.789036896E0,3.781804144E-1,-4.484900236E-1,3.600703776E-1
1.793940022E0,2.748466134E-1,-4.154658020E-1,4.218575954E-1
1.799045335E0,1.917534471E-1,-3.579397798E-1,4.996242523E-1
1.804160336E0,1.299662292E-1,-3.270461559E-1,5.795215368E-1
1.809107836E0,5.859133229E-2,-2.716507316E-1,6.530269980E-1
1.814190962E0,-9.587672539E-3,-2.013411224E-1,6.903123856E-1
1.819247732E0,-6.711370498E-2,-1.267703325E-1,6.999000907E-1
1.824255911E0,-1.129214764E-1,-5.113425106E-2,6.945735812E-1
1.829326640E0,-1.768392920E-1,4.580776766E-2,6.913776994E-1
1.834288933E0,-2.492794842E-1,1.363580078E-1,6.860512495E-1
1.839434662E0,-3.195890784E-1,1.757739931E-1,6.785941720E-1
1.844338882E0,-3.451561928E-1,1.129214764E-1,6.732676625E-1
1.849441017E0,-3.174584806E-1,-4.367717355E-2,6.615493894E-1
1.854423362E0,-2.695201337E-1,-1.906881481E-1,6.349169612E-1
1.859483570E0,-2.386265099E-1,-2.737812996E-1,5.859133005E-1
1.864666384E0,-2.290388346E-1,-3.195890784E-1,5.464973450E-1
1.869700706E0,-2.119940966E-1,-3.781804144E-1,5.326484442E-1
1.874678728E0,-1.917534471E-1,-4.122699201E-1,5.198649168E-1
1.879775238E0,-1.906881481E-1,-3.930945694E-1,5.113425255E-1
1.884747323E0,-1.768392920E-1,-3.611356616E-1,5.198649168E-1
1.889871281E0,-1.331621110E-1,-3.121320009E-1,5.326484442E-1
1.894823626E0,-5.859133229E-2,-2.599324584E-1,5.550196767E-1
1.899959303E0,3.515479714E-2,-2.183858752E-1,5.944356918E-1
1.904972638E0,1.480762810E-1,-1.683169156E-1,6.359822750E-1
1.910035502E0,2.737812996E-1,-8.415845782E-2,6.722023487E-1
1.915009409E0,4.207922816E-1,4.154657945E-2,7.052266002E-1
1.920102638E0,5.603461862E-1,1.608598381E-1,7.339895964E-1
1.925169463E0,6.871165037E-1,2.269082516E-1,7.531649470E-1
1.930222223E0,7.893850207E-1,2.471488863E-1,7.648832202E-1
1.935154359E0,8.575640321E-1,2.428877056E-1,7.702096701E-1
1.940222640E0,8.948494196E-1,2.205164731E-1,7.638179064E-1
1.945242485E0,9.108288884E-1,2.162552774E-1,7.254672050E-1
1.950309881E0,9.278736115E-1,2.876301706E-1,6.871165037E-1
1.955310143E0,9.491795897E-1,3.355685472E-1,6.839206219E-1
1.960447903E0,9.555713534E-1,3.334379494E-1,6.658105850E-1
1.965423217E0,9.683549404E-1,3.046749234E-1,6.434393525E-1
1.970512279E0,9.694201946E-1,2.663242221E-1,6.157416105E-1
1.975493009E0,9.790078998E-1,2.194511741E-1,6.029580832E-1
1.980581186E0,1.001379132E0,1.342274100E-1,5.592808723E-1
1.985573323E0,1.017358541E0,1.150520667E-1,4.761877358E-1
1.990668843E0,1.031207442E0,2.343653329E-2,4.420982301E-1
1.995649834E0,9.864649773E-1,1.704475097E-2,3.632662594E-1
2.000747803E0,9.310694933E-1,7.244019210E-2,3.174584806E-1
2.005858533E0,9.001759291E-1,1.235744432E-1,3.323726356E-1
2.010807908E0,8.586293459E-1,2.354306281E-1,3.195890784E-1
2.015604524E0,7.936462164E-1,3.089361191E-1,3.195890784E-1
2.020901607E0,7.371854782E-1,3.888333738E-1,3.281114697E-1
2.025866191E0,6.732676625E-1,4.090740085E-1,3.227849603E-1
2.030982806E0,6.498311162E-1,3.813762963E-1,3.717886209E-1
2.035976088E0,6.082845330E-1,3.472867906E-1,3.451561928E-1
2.041082077E0,6.285251975E-1,2.897607684E-1,4.144005179E-1
2.046119683E0,5.955010056E-1,2.439530045E-1,3.898986876E-1
2.051182860E0,5.880439281E-1,2.929566503E-1,4.357064366E-1
2.056128278E0,5.635420680E-1,2.716507316E-1,5.145384073E-1
2.061241715E0,4.879060090E-1,2.897607684E-1,4.783183336E-1
2.066010362E0,4.389023483E-1,3.398297131E-1,5.475625992E-1
2.071361403E0,3.973557651E-1,3.014790416E-1,6.285251975E-1
2.076449998E0,3.632662594E-1,2.769772112E-1,6.413087845E-1
2.081514998E0,2.993484437E-1,3.185237944E-1,6.338516474E-1
2.086399218E0,2.801730931E-1,3.664621413E-1,7.244018912E-1
2.091501093E0,2.631283402E-1,3.249155581E-1,7.861891389E-1
2.097711718E0,2.290388346E-1,3.163931966E-1,7.947115302E-1
2.101532188E0,2.002758235E-1,3.515479863E-1,8.128215671E-1
2.106614740E0,1.651210189E-1,4.005516469E-1,8.319969177E-1
2.111551200E0,1.320968270E-1,4.516859055E-1,8.501069546E-1
2.116867866E0,1.043990999E-1,4.996242523E-1,8.639557958E-1
2.121638649E0,7.457078248E-2,5.550196767E-1,8.746087551E-1
2.126718336E0,4.793836176E-2,6.221334338E-1,8.788699508E-1
2.131746306E0,1.704475097E-2,6.711370945E-1,8.756740689E-1
2.136812758E0,1.065296936E-3,6.796594262E-1,8.724781871E-1
2.141870786E0,6.391781382E-3,6.572881937E-1,8.724781871E-1
2.147031255E0,2.876301669E-2,6.477005482E-1,8.767393827E-1
2.151913443E0,6.178722158E-2,6.445046663E-1,8.735435009E-1
2.156987037E0,9.907261282E-2,6.285251975E-1,8.671516776E-1
2.161964903E0,1.342274100E-1,6.104151607E-1,8.586293459E-1
2.166806725E0,1.651210189E-1,5.901744962E-1,8.394539952E-1
2.172083914E0,1.928187460E-1,5.646073818E-1,8.096256852E-1
2.177125997E0,1.842963696E-1,5.656726956E-1,7.446425557E-1
2.182127405E0,1.789698899E-1,6.210681200E-1,7.265325189E-1
2.187215738E0,2.151899785E-1,5.709991455E-1,7.329242826E-1
2.192235375E0,2.002758235E-1,5.805868506E-1,6.658105850E-1
2.197300114E0,1.928187460E-1,5.816521049E-1,6.210681200E-1
2.202293605E0,2.151899785E-1,5.464973450E-1,5.709991455E-1
2.207377719E0,2.556712627E-1,4.900365770E-1,5.092119575E-1
2.212358293E0,2.823036909E-1,4.516859055E-1,4.452941120E-1
2.217467876E0,2.865648866E-1,4.250534773E-1,3.930945694E-1
2.222424857E0,2.737812996E-1,4.442288280E-1,3.568744659E-1
2.227584440E0,2.684548199E-1,5.006895661E-1,3.376991153E-1
2.232645691E0,2.791078091E-1,5.635420680E-1,3.174584806E-1
2.237650535E0,2.812383771E-1,6.317210793E-1,2.972178459E-1
2.242750380E0,2.588671446E-1,7.137489319E-1,2.556712627E-1
2.247697202E0,3.291767538E-1,6.572881937E-1,3.430256248E-1
2.252754651E0,3.632662594E-1,5.848480463E-1,3.526133001E-1
2.257858505E0,3.259808719E-1,6.359822750E-1,3.078708053E-1
2.262744757E0,3.440909088E-1,6.231986880E-1,3.803110123E-1
2.267588663E0,3.462215066E-1,5.837827325E-1,3.962904513E-1
2.272836112E0,3.206543922E-1,5.528891087E-1,3.888333738E-1
2.278000851E0,2.929566503E-1,5.038854480E-1,3.653968573E-1
2.282959707E0,2.247776538E-1,5.241261125E-1,2.897607684E-1
2.288076477E0,1.992105246E-1,4.623388648E-1,3.153278828E-1
2.293065541E0,1.789698899E-1,3.653968573E-1,2.865648866E-1
2.298087832E0,1.629904360E-1,2.897607684E-1,2.428877056E-1
2.303181219E0,1.768392920E-1,1.832310706E-1,2.130593807E-1
2.308317104E0,2.024064213E-1,7.030959427E-2,1.800351888E-1
2.313196897E0,2.290388346E-1,-1.811004803E-2,1.491415650E-1
2.318273095E0,2.471488863E-1,-8.096256852E-2,1.246397421E-1
2.323271742E0,2.375612110E-1,-1.129214764E-1,1.043990999E-1
2.328318408E0,2.119940966E-1,-1.352927089E-1,7.670138031E-2
2.333050284E0,1.683169156E-1,-1.235744432E-1,3.622009605E-2
2.338397159E0,1.523374617E-1,-1.789698899E-1,6.817900389E-2
2.343391692E0,9.694202244E-2,-2.151899785E-1,5.326484516E-2
2.348494660E0,2.024064213E-2,-2.205164731E-1,3.089361079E-2
2.353510807E0,-4.580776766E-2,-2.482141852E-1,1.811004803E-2
2.358572317E0,-1.054643989E-1,-2.897607684E-1,5.326484796E-3
2.363607527E0,-1.523374617E-1,-3.355685472E-1,-3.195890691E-3
2.368678985E0,-1.779045910E-1,-3.898986876E-1,-9.587672539E-3
2.373633882E0,-1.981452256E-1,-4.410329461E-1,-2.237123623E-2
2.378711017E0,-2.183858752E-1,-4.889712930E-1,-4.048128426E-2
2.383445342E0,-2.279735506E-1,-5.315831900E-1,-6.178722158E-2
2.388549716E0,-2.290388346E-1,-5.667379498E-1,-7.883197069E-2
2.395516696E0,-2.247776538E-1,-6.050886512E-1,-8.309315890E-2
2.398859041E0,-2.173205763E-1,-6.210681200E-1,-8.415845782E-2
2.403940447E0,-2.119940966E-1,-6.040233374E-1,-8.415845782E-2
2.408988886E0,-2.130593807E-1,-5.773909688E-1,-8.735434711E-2
2.414029927E0,-2.237123549E-1,-5.614115000E-1,-8.628904819E-2
2.419044043E0,-2.311694324E-1,-5.741950274E-1,-8.841964602E-2
2.424072689E0,-2.450182885E-1,-6.072192788E-1,-1.033338010E-1
2.429050711E0,-2.588671446E-1,-6.700717807E-1,-1.182479635E-1
2.434324825E0,-2.769772112E-1,-7.254672050E-1,-1.363580078E-1
2.439238003E0,-2.950872481E-1,-7.584913969E-1,-1.534027606E-1
2.444246336E0,-3.025443256E-1,-7.691444159E-1,-1.811004728E-1
2.449265244E0,-3.110667169E-1,-7.648832202E-1,-2.173205763E-1
2.454377952E0,-3.249155581E-1,-7.616873384E-1,-2.556712627E-1
2.459342797E0,-3.291767538E-1,-7.776667476E-1,-2.982831299E-1
2.464423786E0,-3.345032334E-1,-7.840585709E-1,-3.526133001E-1
2.469419621E0,-3.323726356E-1,-7.680791020E-1,-4.090740085E-1
2.474534152E0,-3.270461559E-1,-7.222713232E-1,-4.687306583E-1
2.479474726E0,-3.451561928E-1,-6.168069243E-1,-5.401055217E-1
2.484560403E0,-3.813762963E-1,-4.452941120E-1,-6.231986880E-1
2.489612331E0,-4.367717505E-1,-2.460835874E-1,-7.254672050E-1
2.494667956E0,-5.113425255E-1,-8.522375673E-2,-8.405193090E-1
2.499619103E0,-5.901744962E-1,-1.384885982E-2,-9.715508223E-1
2.504710561E0,-6.668758988E-1,-8.522375487E-3,-1.120692372E0
2.509711135E0,-7.595567107E-1,-2.876301669E-2,-1.277291059E0
2.514887645E0,-8.575640321E-1,-9.907261282E-2,-1.441346765E0
2.519802647E0,-9.491795897E-1,-2.173205763E-1,-1.621381879E0
2.524956084E0,-1.032272696E0,-3.835068941E-1,-1.789698839E0
2.529844419E0,-1.083406925E0,-5.784562230E-1,-1.942036271E0
2.534986762E0,-1.097255826E0,-7.105530500E-1,-2.083720922E0
2.539957701E0,-1.086602926E0,-7.638179064E-1,-2.161487579E0
2.545016242E0,-1.047186852E0,-7.648832202E-1,-2.193446398E0
2.550111816E0,-9.864649773E-1,-7.105530500E-1,-2.198772907E0
2.554859212E0,-9.129594564E-1,-6.231986880E-1,-2.157226324E0
2.560128640E0,-8.224092126E-1,-4.879060090E-1,-2.083720922E0
2.565188171E0,-7.116183639E-1,-3.504827023E-1,-2.015541792E0
2.570183173E0,-5.997622013E-1,-2.780424953E-1,-1.945232153E0
2.575441349E0,-4.889712930E-1,-2.684548199E-1,-1.882379651E0
2.580280569E0,-3.888333738E-1,-3.036096394E-1,-1.819527149E0
2.585355777E0,-2.854995728E-1,-3.547438681E-1,-1.772654057E0
2.590351820E0,-1.896228492E-1,-3.675274551E-1,-1.746021628E0
2.595496091E0,-1.097255871E-1,-2.982831299E-1,-1.715128064E0
2.600432603E0,-4.048128426E-2,-1.693822145E-1,-1.705540419E0
2.605548384E0,-2.130593872E-3,-1.054643989E-1,-1.689560890E0
2.610476302E0,2.663242258E-2,-8.096256852E-2,-1.706605673E0
2.615569270E0,8.309315890E-2,-9.800732136E-2,-1.766262293E0
2.620579584E0,1.214438528E-1,-1.736433953E-1,-1.803547740E0
2.625661875E0,1.065296903E-1,-2.695201337E-1,-1.851486087E0
2.630642085E0,7.670138031E-2,-3.558091819E-1,-1.917534471E0
2.635824428E0,4.687306657E-2,-4.282493591E-1,-1.991039991E0
2.640788596E0,7.457078435E-3,-4.879060090E-1,-2.075198412E0
2.645865419E0,-4.687306657E-2,-5.646073818E-1,-2.160422087E0
2.650818597E0,-1.257050335E-1,-6.423740387E-1,-2.233927727E0
2.656056045E0,-2.173205763E-1,-6.722023487E-1,-2.297845602E0
2.661015005E0,-3.004137278E-1,-6.242640018E-1,-2.335130930E0
2.666138598E0,-3.430256248E-1,-5.752603412E-1,-2.331934929E0
2.670982297E0,-3.462215066E-1,-5.560849905E-1,-2.294649601E0
2.676107401E0,-3.270461559E-1,-5.678032637E-1,-2.222209454E0
2.681060423E0,-3.004137278E-1,-5.859133005E-1,-2.130593777E0
2.686188600E0,-2.748466134E-1,-5.741950274E-1,-2.040043592E0
2.691314643E0,-2.844342887E-1,-5.209302306E-1,-1.995301127E0
2.696220216E0,-2.929566503E-1,-3.281114697E-1,-1.860008478E0
2.701405269E0,-2.588671446E-1,-2.503447831E-1,-1.699148655E0
2.706332092E0,-2.546059787E-1,-3.185237944E-1,-1.585161805E0
2.711286416E0,-2.791078091E-1,-3.472867906E-1,-1.463717937E0
2.716362874E0,-2.929566503E-1,-3.643315434E-1,-1.353992462E0
2.721445323E0,-2.929566503E-1,-3.483521044E-1,-1.252789140E0
2.726472354E0,-3.036096394E-1,-3.057402074E-1,-1.175022483E0
2.731451991E0,-3.206543922E-1,-2.588671446E-1,-1.108974099E0
2.736574699E0,-3.270461559E-1,-2.418224066E-1,-1.051448107E0
2.741528763E0,-3.036096394E-1,-2.897607684E-1,-9.949873090E-1
2.746626419E0,-2.641936541E-1,-3.526133001E-1,-9.204165339E-1
2.751678712E0,-2.322347313E-1,-3.888333738E-1,-8.277357221E-1
2.756761316E0,-2.024064213E-1,-3.867027760E-1,-7.275978327E-1
2.761815483E0,-1.651210189E-1,-3.739192188E-1,-6.327863932E-1
2.766831525E0,-1.246397421E-1,-3.302420378E-1,-5.305178761E-1
2.771862099E0,-9.268083423E-2,-2.705854177E-1,-4.410329461E-1
2.776917203E0,-1.384885982E-2,-2.162552774E-1,-2.823036909E-1
2.781825902E0,8.202786744E-2,-2.215817571E-1,-8.948494494E-2
2.786971162E0,1.651210189E-1,-1.576639414E-1,7.137489319E-2
2.791914497E0,2.950872481E-1,-4.367717355E-2,2.524753809E-1
2.797001996E0,4.367717505E-1,4.261187837E-2,4.154658020E-1
2.802077623E0,5.571503043E-1,1.757739931E-1,5.859133005E-1
2.807192779E0,7.180101275E-1,2.034717202E-1,8.181480169E-1
2.812062884E0,8.277357221E-1,2.471488863E-1,1.016293287E0
2.817180384E0,9.640937448E-1,2.748466134E-1,1.228287339E0
2.822189656E0,1.095125198E0,3.259808719E-1,1.461587429E0
2.827321322E0,1.205916166E0,3.494173884E-1,1.705540419E0
2.832229553E0,1.328425288E0,3.259808719E-1,1.929252744E0
2.837347365E0,1.404061317E0,3.217196763E-1,2.043239594E0
2.842307523E0,1.412583709E0,3.653968573E-1,2.194511652E0
2.847410022E0,1.453065038E0,4.154658020E-1,2.401179314E0
2.852423617E0,1.507395148E0,5.230607986E-1,2.573757410E0
2.857227211E0,1.527635813E0,7.094877362E-1,2.796404362E0
2.862493306E0,1.528701067E0,8.852617741E-1,3.012659788E0
2.867585910E0,1.526570559E0,1.039729834E0,3.143691301E0
2.872600859E0,1.495676875E0,1.098321199E0,3.042488098E0
2.877641432E0,1.417910218E0,8.916535378E-1,2.786816835E0
2.882617423E0,1.376363635E0,6.445046663E-1,2.582279682E0
2.887769922E0,1.398734927E0,4.101393223E-1,2.706919432E0
2.892756642E0,1.381690145E0,2.013411224E-1,2.748466015E0
2.897817788E0,1.302858114E0,1.107908785E-1,2.625957012E0
2.902806591E0,1.254919767E0,8.628904819E-2,2.498121262E0
2.907986956E0,1.253854513E0,7.563608140E-2,2.372416258E0
2.912906332E0,1.246397376E0,2.237123623E-2,2.201968670E0
2.917994456E0,1.191002011E0,-1.811004803E-2,2.035782337E0
2.922954041E0,1.114300609E0,3.195890691E-3,1.862138987E0
2.928070603E0,1.034403324E0,4.474247247E-2,1.701279163E0
2.933262011E0,9.449183941E-1,1.342274100E-1,1.580900669E0
2.938339823E0,8.234745264E-1,2.823036909E-1,1.471175075E0
2.943248210E0,6.530269980E-1,4.729918540E-1,1.355057716E0
2.948246387E0,4.719265401E-1,7.222713232E-1,1.249593258E0
2.953220711E0,2.918913662E-1,1.013097405E0,1.155847192E0
2.958432065E0,1.651210189E-1,1.186740756E0,1.049317479E0
2.963257535E0,7.350549102E-2,1.261311531E0,9.300042391E-1
2.968410659E0,0.000000000E0,1.265572786E0,8.053644896E-1
2.973418109E0,-6.391781569E-2,1.172891974E0,6.807247400E-1
2.978445921E0,-1.161173657E-1,1.013097405E0,5.592808723E-1
2.983509776E0,-1.534027606E-1,8.501069546E-1,4.389023483E-1
2.988563526E0,-1.970799267E-1,7.222713232E-1,3.398297131E-1
2.993496027E0,-2.237123549E-1,6.136110425E-1,2.514100671E-1
2.998653683E0,-2.343653291E-1,5.315831900E-1,1.661863178E-1
3.003674987E0,-2.343653291E-1,4.879060090E-1,8.841964602E-2
3.008690715E0,-2.087981999E-1,4.793836176E-1,-2.130593872E-3
3.013659415E0,-1.512721628E-1,4.783183336E-1,-8.096256852E-2
3.018765821E0,-6.498311460E-2,4.953630865E-1,-1.214438528E-1
3.023804728E0,2.769771963E-2,5.464973450E-1,-1.416844875E-1
3.030028270E0,1.193132550E-1,6.274598837E-1,-1.576639414E-1
3.033907229E0,2.024064213E-1,7.030959725E-1,-1.640557349E-1
3.038990979E0,2.727160156E-1,7.478384376E-1,-1.555333585E-1
3.043939887E0,3.376991153E-1,7.627525926E-1,-1.502068639E-1
3.049210199E0,3.920292854E-1,7.510343194E-1,-1.619251370E-1
3.054044471E0,4.484900236E-1,7.073571682E-1,-1.715128124E-1
3.059088116E0,4.996242523E-1,6.658105850E-1,-1.768392920E-1
3.064052909E0,5.358443856E-1,6.477005482E-1,-1.874922663E-1
3.069165669E0,5.528891087E-1,6.498311162E-1,-1.917534471E-1
3.074202858E0,5.571503043E-1,6.477005482E-1,-1.928187460E-1
3.079299733E0,5.582156181E-1,6.615493894E-1,-2.130593807E-1
3.084277286E0,5.688685775E-1,6.764635444E-1,-2.226470560E-1
3.089458744E0,5.880439281E-1,6.764635444E-1,-2.364959270E-1
3.094333954E0,5.891091824E-1,6.445046663E-1,-2.471488863E-1
3.099408850E0,5.827174187E-1,6.157416105E-1,-2.769772112E-1
3.104390518E0,5.784562230E-1,6.008274555E-1,-2.993484437E-1
3.109569528E0,5.827174187E-1,6.061539650E-1,-3.387644291E-1
3.114483904E0,5.976315737E-1,6.423740387E-1,-3.696580231E-1
3.119557654E0,6.306557655E-1,6.764635444E-1,-4.005516469E-1
3.124558332E0,6.508964300E-1,6.594188213E-1,-4.602082670E-1
3.129624478E0,6.274598837E-1,5.955010056E-1,-5.060160160E-1
3.134694896E0,6.189374924E-1,6.093498468E-1,-5.283873081E-1
3.139740208E0,6.157416105E-1,6.530269980E-1,-5.614115000E-1
3.144706563E0,5.784562230E-1,7.052266002E-1,-6.466352344E-1
3.149790469E0,5.518237948E-1,7.489037514E-1,-6.711370945E-1
3.154794168E0,5.443667173E-1,7.425119877E-1,-6.317210793E-1
3.159917137E0,5.049507618E-1,7.563608289E-1,-6.125457287E-1
3.164852555E0,4.751224220E-1,7.584913969E-1,-6.018927693E-1
3.169971148E0,4.335758388E-1,7.659484744E-1,-5.720644593E-1
3.174971931E0,4.612735808E-1,7.712749839E-1,-5.219954848E-1
3.180052243E0,4.527511895E-1,7.489037514E-1,-4.591429830E-1
3.185022609E0,3.717886209E-1,8.426498771E-1,-4.144005179E-1
3.190232140E0,3.313073516E-1,9.395918846E-1,-4.037475288E-1
3.195417975E0,3.398297131E-1,9.949873090E-1,-3.952251673E-1
3.200217818E0,3.366338313E-1,1.007770896E0,-3.835068941E-1
3.205191205E0,3.195890784E-1,1.006705642E0,-3.611356616E-1
3.210324225E0,3.366338313E-1,1.002444386E0,-3.334379494E-1
3.215261987E0,4.420982301E-1,9.310694933E-1,-2.514100671E-1
3.220445060E0,5.518237948E-1,7.616873384E-1,-1.683169156E-1
3.225551675E0,5.646073818E-1,6.306557655E-1,-1.544680595E-1
3.230422456E0,5.283873081E-1,5.678032637E-1,-1.374233067E-1
3.235435947E0,5.028201342E-1,5.379749537E-1,-1.470109820E-1
3.240531676E0,4.815142155E-1,5.326484442E-1,-1.906881481E-1
3.245535688E0,4.729918540E-1,5.635420680E-1,-2.439530045E-1
3.250710271E0,4.825794995E-1,5.678032637E-1,-2.876301706E-1
3.255564647E0,5.006895661E-1,5.518237948E-1,-3.206543922E-1
3.260747616E0,5.166690350E-1,5.177342892E-1,-3.739192188E-1
3.265638398E0,5.401055217E-1,4.644694626E-1,-4.239881933E-1
3.270788658E0,5.763256550E-1,4.495553076E-1,-4.495553076E-1
3.275804441E0,6.285251975E-1,4.719265401E-1,-4.740571380E-1
3.280942982E0,6.807247400E-1,4.655347466E-1,-4.697959423E-1
3.285959650E0,7.094877362E-1,3.739192188E-1,-4.431635141E-1
3.291042098E0,7.371854782E-1,1.672516167E-1,-3.994863629E-1
3.295892412E0,7.094877362E-1,2.663242258E-2,-3.259808719E-1
3.301059963E0,6.210681200E-1,3.835069016E-2,-2.290388346E-1
3.305983506E0,5.283873081E-1,9.161553532E-2,-1.075949892E-1
3.311156944E0,4.580776691E-1,1.214438528E-1,-1.704475097E-2
3.316076528E0,4.186616838E-1,1.054643989E-1,2.556712553E-2
3.321190642E0,3.962904513E-1,9.055023640E-2,4.048128426E-2
3.328000591E0,3.568744659E-1,5.859133229E-2,4.687306657E-2
3.331327358E0,3.249155581E-1,7.563608140E-2,5.752603337E-2
3.336261738E0,3.728539348E-1,1.320968270E-1,8.522375673E-2
3.340969760E0,4.207922816E-1,1.214438528E-1,5.965662748E-2
3.346315801E0,4.346411526E-1,9.587672353E-2,4.154657945E-2
3.351392105E0,4.261187613E-1,1.012032107E-1,7.563608140E-2
3.356494500E0,4.016169310E-1,1.043990999E-1,1.363580078E-1
3.361415335E0,3.867027760E-1,1.193132550E-1,2.183858752E-1
3.366533720E0,3.781804144E-1,1.352927089E-1,3.046749234E-1
3.371665388E0,3.526133001E-1,1.416844875E-1,3.845722079E-1
3.376592627E0,3.142625988E-1,1.619251370E-1,4.431635141E-1
3.381549451E0,2.524753809E-1,1.725780964E-1,4.825794995E-1
3.386677889E0,1.811004728E-1,1.960146427E-1,4.889712930E-1
3.391671796E0,9.907261282E-2,2.002758235E-1,4.974936545E-1
3.396728879E0,2.130593918E-2,2.098634988E-1,5.294525623E-1
3.401740026E0,-6.391781382E-3,2.301041335E-1,4.793836176E-1
3.406991432E0,-1.171826664E-2,1.640557349E-1,3.973557651E-1
3.411801017E0,-2.024064213E-2,6.391781569E-2,3.472867906E-1
3.416921173E0,-1.491415687E-2,1.917534508E-2,3.100014031E-1
3.421892997E0,-7.457078435E-3,-1.811004803E-2,3.057402074E-1
3.426968622E0,7.457078435E-3,-4.154657945E-2,3.057402074E-1
3.431942061E0,3.302420676E-2,-4.580776766E-2,3.323726356E-1
3.437076592E0,5.965662748E-2,-6.604841352E-2,3.856374919E-1
3.442084666E0,9.268083423E-2,-5.646073818E-2,4.293146729E-1
3.447121332E0,1.193132550E-1,-2.769771963E-2,4.602082670E-1
3.452216646E0,1.406191885E-1,-2.237123623E-2,4.420982301E-1
3.457308885E0,1.523374617E-1,-4.367717355E-2,3.909639716E-1
3.462208939E0,1.512721628E-1,-7.457078248E-2,3.313073516E-1
3.467358001E0,1.299662292E-1,-9.055023640E-2,2.823036909E-1
3.472388054E0,9.161553532E-2,-8.522375673E-2,2.215817571E-1
3.477440658E0,4.367717355E-2,-9.694202244E-2,1.747086942E-1
3.482354514E0,3.195890691E-3,-1.097255871E-1,1.352927089E-1
3.487509201E0,-3.515479714E-2,-1.161173657E-1,1.086602882E-1
3.492574306E0,-7.244019210E-2,-1.289009303E-1,8.309315890E-2
3.497591858E0,-1.012032107E-1,-1.107908785E-1,8.096256852E-2
3.502518266E0,-1.267703325E-1,-9.374613315E-2,6.711370498E-2
3.507707328E0,-1.491415650E-1,-7.563608140E-2,5.433014408E-2
3.512592381E0,-1.715128124E-1,-4.154657945E-2,7.030959427E-2
3.517687120E0,-1.811004728E-1,-1.171826664E-2,1.075949892E-1
3.522698736E0,-1.619251370E-1,-4.261187743E-3,1.544680595E-1
3.527787069E0,-1.523374617E-1,5.326484796E-3,2.375612110E-1
3.532770144E0,-1.427497864E-1,1.384885982E-2,2.844342887E-1
3.537842591E0,-1.352927089E-1,-5.326484796E-3,3.217196763E-1
3.542889728E0,-1.235744432E-1,-3.089361079E-2,3.462215066E-1
3.547930353E0,-1.097255871E-1,-5.752603337E-2,3.643315434E-1
3.552924052E0,-1.118561774E-1,-8.415845782E-2,3.739192188E-1
3.558059416E0,-1.310315281E-1,-9.694202244E-2,3.462215066E-1
3.563034306E0,-1.491415650E-1,-1.193132550E-1,3.014790416E-1
3.568180250E0,-1.587292403E-1,-1.544680595E-1,2.514100671E-1
3.573089991E0,-1.608598381E-1,-1.949493438E-1,2.130593807E-1
3.578132387E0,-1.427497864E-1,-2.215817571E-1,1.757739931E-1
3.583116190E0,-1.065296903E-1,-2.322347313E-1,1.235744432E-1
3.588265409E0,-6.604841352E-2,-2.460835874E-1,9.481142461E-2
3.593318847E0,-4.154657945E-2,-2.769772112E-1,8.841964602E-2
3.598385299E0,-4.367717355E-2,-3.078708053E-1,1.182479635E-1
3.603285203E0,-6.711370498E-2,-3.238502741E-1,1.597945392E-1
3.608415150E0,-1.033338010E-1,-3.195890784E-1,1.981452256E-1
3.613360881E0,-1.320968270E-1,-3.174584806E-1,2.343653291E-1
3.618492183E0,-1.470109820E-1,-3.078708053E-1,2.631283402E-1
3.623472288E0,-1.565986425E-1,-2.950872481E-1,2.961525619E-1
3.628564944E0,-1.470109820E-1,-2.918913662E-1,3.302420378E-1
3.633510935E0,-1.214438528E-1,-3.014790416E-1,3.760498166E-1
3.638633226E0,-1.054643989E-1,-3.089361191E-1,4.207922816E-1
3.643707394E0,-8.948494494E-2,-3.142625988E-1,4.697959423E-1
3.648704686E0,-7.776667923E-2,-3.036096394E-1,5.326484442E-1
3.653780520E0,-5.859133229E-2,-2.673895359E-1,6.221334338E-1
3.658792603E0,-4.367717355E-2,-2.098634988E-1,6.871165037E-1
3.663775469E0,-3.302420676E-2,-1.491415650E-1,7.339895964E-1
3.668850365E0,-2.876301669E-2,-8.948494494E-2,7.968420982E-1
3.673916303E0,-9.587672539E-3,-3.728539124E-2,8.586293459E-1
3.678950001E0,2.982831374E-2,4.261187743E-3,8.969800472E-1
3.683944221E0,7.137489319E-2,9.587672539E-3,9.470489621E-1
3.689103335E0,1.054643989E-1,4.687306657E-2,1.040795088E0
3.694010837E0,1.544680595E-1,1.161173657E-1,1.130280018E0
3.699081670E0,2.183858752E-1,1.779045910E-1,1.242136240E0
3.704208129E0,2.982831299E-1,2.471488863E-1,1.292205215E0
3.709183962E0,4.708612561E-1,3.355685472E-1,1.405126691E0
3.714153026E0,7.030959725E-1,4.857754111E-1,1.412583709E0
3.719267766E0,7.467731237E-1,4.080087245E-1,1.347600579E0
3.724379329E0,6.935083270E-1,3.366338313E-1,1.373167753E0
3.729356569E0,6.178722382E-1,4.325105548E-1,1.376363635E0
3.734323184E0,5.006895661E-1,5.070813298E-1,1.382755399E0
3.739409695E0,3.717886209E-1,5.422361493E-1,1.335882306E0
3.744545633E0,2.428877056E-1,5.582156181E-1,1.287943959E0
3.749507612E0,1.235744432E-1,5.869786143E-1,1.303923488E0
3.754517249E0,-2.237123623E-2,6.828553081E-1,1.348665953E0
3.759610999E0,-1.779045910E-1,7.797973752E-1,1.366775990E0
3.764555271E0,-2.854995728E-1,8.000379801E-1,1.332686424E0
3.769705739E0,-3.185237944E-1,7.009654045E-1,1.247462749E0
3.774745688E0,-3.121320009E-1,5.624767542E-1,1.089798808E0
3.779719178E0,-2.727160156E-1,3.419603109E-1,9.342654347E-1
3.784699231E0,-1.214438528E-1,1.182479635E-1,8.341274858E-1
3.789846262E0,9.907261282E-2,-1.278356276E-2,7.542302012E-1
3.794809597E0,3.014790416E-1,-5.965662748E-2,7.030959725E-1
3.799904753E0,3.760498166E-1,-1.693822145E-1,5.688685775E-1
3.804891941E0,4.207922816E-1,-2.471488863E-1,4.868406951E-1
3.809981472E0,4.591429830E-1,-2.748466134E-1,4.570123851E-1
3.814962828E0,4.612735808E-1,-2.748466134E-1,4.218575954E-1
3.820101265E0,4.303799570E-1,-2.609977424E-1,3.877680898E-1
3.825137197E0,3.632662594E-1,-2.535406649E-1,3.611356616E-1
3.830150068E0,2.812383771E-1,-2.695201337E-1,3.494173884E-1
3.835122361E0,2.034717202E-1,-2.588671446E-1,3.430256248E-1
3.840375434E0,1.587292403E-1,-1.491415650E-1,3.440909088E-1
3.845360904E0,1.139867753E-1,-4.367717355E-2,3.110667169E-1
3.850421997E0,6.924430281E-2,-1.949493438E-1,1.491415650E-1
3.855290436E0,-3.195890691E-3,-1.289009303E-1,4.793836176E-2
3.860404602E0,-3.515479714E-2,2.343653329E-2,4.793836176E-2
3.865439239E0,5.433014408E-2,-7.563608140E-2,4.793836176E-2
3.870483301E0,1.672516167E-1,-1.438150853E-1,5.539543927E-2
3.875563719E0,3.185237944E-1,-1.917534508E-2,6.924430281E-2
3.880573407E0,4.740571380E-1,1.065296903E-1,5.859133229E-2
3.885575231E0,4.825794995E-1,-5.539543927E-2,6.391781382E-3
3.890727626E0,4.548817873E-1,-2.503447831E-1,-3.089361079E-2
3.895692315E0,4.367717505E-1,-3.004137278E-1,-4.900366068E-2
3.900709138E0,3.994863629E-1,-2.673895359E-1,-4.793836176E-2
3.905715545E0,3.100014031E-1,-2.215817571E-1,-2.237123623E-2
3.910767889E0,1.747086942E-1,-1.736433953E-1,8.522375487E-3
3.915751275E0,2.769771963E-2,-8.415845782E-2,3.408950195E-2
3.920951484E0,-9.694202244E-2,2.556712553E-2,6.711370498E-2
3.925885860E0,-1.896228492E-1,1.289009303E-1,1.065296903E-1
3.931062526E0,-2.620630562E-1,2.087981999E-1,1.406191885E-1
3.935948777E0,-3.185237944E-1,2.482141852E-1,1.661863178E-1
3.941060131E0,-3.440909088E-1,2.524753809E-1,1.757739931E-1
3.946030497E0,-3.408950269E-1,2.290388346E-1,1.683169156E-1
3.951093674E0,-3.110667169E-1,1.874922663E-1,1.491415650E-1
3.956124457E0,-2.652589381E-1,1.406191885E-1,1.171826646E-1
3.961194508E0,-2.130593807E-1,8.202786744E-2,8.415845782E-2
3.966158416E0,-1.565986425E-1,1.811004803E-2,5.219954997E-2
3.971295968E0,-1.097255871E-1,-4.687306657E-2,3.728539124E-2
3.976235500E0,-7.989726961E-2,-1.001379117E-1,2.130593918E-2
3.981370552E0,-6.711370498E-2,-1.214438528E-1,-2.130593872E-3
3.986318887E0,-7.244019210E-2,-1.086602882E-1,-3.089361079E-2
3.991494563E0,-9.268083423E-2,-7.137489319E-2,-6.391781569E-2
3.996384877E0,-1.182479635E-1,-1.171826664E-2,-9.374613315E-2
4.001477741E0,-1.459456831E-1,3.835069016E-2,-9.587672353E-2
4.006499774E0,-1.853616685E-1,6.711370498E-2,-9.800732136E-2
4.011586909E0,-2.162552774E-1,1.001379117E-1,-1.054643989E-1
4.016611858E0,-2.333000302E-1,1.139867753E-1,-1.065296903E-1
4.021476650E0,-2.460835874E-1,1.043990999E-1,-1.054643989E-1
4.026648266E0,-2.460835874E-1,9.907261282E-2,-1.001379117E-1
4.031731911E0,-2.343653291E-1,7.670138031E-2,-9.907261282E-2
4.036721183E0,-2.258429527E-1,5.539543927E-2,-9.481142461E-2
4.041849412E0,-2.034717202E-1,3.835069016E-2,-8.202786744E-2
4.046907174E0,-1.811004728E-1,3.622009605E-2,-5.752603337E-2
4.051892434E0,-1.597945392E-1,5.859133229E-2,-2.556712553E-2
4.056925925E0,-1.448803842E-1,8.415845782E-2,1.278356276E-2
4.061994414E0,-1.406191885E-1,1.054643989E-1,6.178722158E-2
4.066969624E0,-1.491415650E-1,1.480762810E-1,1.118561774E-1
4.072158947E0,-1.715128124E-1,1.800351888E-1,1.289009303E-1
4.077166500E0,-2.045370042E-1,2.034717202E-1,1.534027606E-1
4.082121083E0,-2.258429527E-1,2.279735506E-1,1.811004728E-1
4.087098532E0,-2.322347313E-1,2.418224066E-1,1.970799267E-1
4.092203167E0,-2.386265099E-1,2.567365468E-1,2.066676021E-1
4.097256450E0,-2.407571077E-1,2.737812996E-1,2.045370042E-1
4.102301293E0,-2.460835874E-1,2.801730931E-1,1.811004728E-1
4.107297597E0,-2.471488863E-1,2.865648866E-1,1.416844875E-1
4.112404419E0,-2.407571077E-1,2.876301706E-1,9.587672353E-2
4.117342129E0,-2.343653291E-1,2.854995728E-1,6.072192639E-2
4.122454993E0,-2.322347313E-1,2.716507316E-1,1.597945392E-2
4.127456765E0,-2.226470560E-1,2.556712627E-1,-2.130593918E-2
4.132551140E0,-2.045370042E-1,2.556712627E-1,-3.408950195E-2
4.137518954E0,-1.928187460E-1,2.684548199E-1,-2.876301669E-2
4.142411245E0,-1.864269674E-1,2.769772112E-1,-2.450183034E-2
4.147605309E0,-1.917534471E-1,2.897607684E-1,-1.491415687E-2
4.152662184E0,-2.087981999E-1,2.972178459E-1,7.457078435E-3
4.157731560E0,-2.237123549E-1,3.068055212E-1,3.408950195E-2
4.162786664E0,-2.428877056E-1,3.206543922E-1,6.817900389E-2
4.167753436E0,-2.631283402E-1,3.345032334E-1,9.161553532E-2
4.172929634E0,-2.791078091E-1,3.291767538E-1,9.694202244E-2
4.177883854E0,-2.886954844E-1,3.110667169E-1,9.587672353E-2
4.183041510E0,-2.844342887E-1,3.078708053E-1,9.694202244E-2
4.187922709E0,-2.652589381E-1,3.110667169E-1,8.202786744E-2
4.193004115E0,-2.439530045E-1,3.142625988E-1,5.539543927E-2
4.197983387E0,-2.258429527E-1,3.121320009E-1,4.687306657E-2
4.203104949E0,-2.034717202E-1,3.100014031E-1,5.965662748E-2
4.208079794E0,-1.693822145E-1,3.110667169E-1,6.711370498E-2
4.213291877E0,-1.320968270E-1,3.163931966E-1,7.244019210E-2
4.218129431E0,-1.001379117E-1,3.387644291E-1,8.628904819E-2
4.223322972E0,-7.776667923E-2,3.856374919E-1,9.481142461E-2
4.228241775E0,-8.415845782E-2,4.399676323E-1,9.481142461E-2
4.233317817E0,-1.097255871E-1,4.655347466E-1,9.481142461E-2
4.238303026E0,-1.331621110E-1,4.772530198E-1,8.309315890E-2
4.243437766E0,-1.640557349E-1,4.708612561E-1,7.030959427E-2
4.248487142E0,-1.949493438E-1,4.442288280E-1,5.326484516E-2
4.253494017E0,-2.151899785E-1,4.112046063E-1,8.522375487E-3
4.258571778E0,-2.183858752E-1,3.749845326E-1,-3.515479714E-2
4.263653341E0,-2.215817571E-1,3.291767538E-1,-5.326484516E-2
4.268540113E0,-2.279735506E-1,2.737812996E-1,-6.285251677E-2
4.273678550E0,-2.322347313E-1,2.258429527E-1,-8.202786744E-2
4.278613603E0,-2.130593807E-1,1.938840449E-1,-1.054643989E-1
4.283699228E0,-1.874922663E-1,2.002758235E-1,-1.363580078E-1
4.288732771E0,-1.565986425E-1,2.311694324E-1,-1.693822145E-1
4.293941677E0,-1.161173657E-1,2.705854177E-1,-1.981452256E-1
4.298757147E0,-8.096256852E-2,3.100014031E-1,-2.215817571E-1
4.303853709E0,-5.646073818E-2,3.504827023E-1,-2.407571077E-1
4.308874908E0,-3.835069016E-2,3.643315434E-1,-2.471488863E-1
4.313955273E0,-2.343653329E-2,3.419603109E-1,-2.322347313E-1
4.318955118E0,-2.130593872E-3,3.004137278E-1,-2.109287977E-1
4.324073659E0,1.065296959E-2,2.301041335E-1,-1.832310706E-1
4.329026629E0,2.024064213E-2,1.182479635E-1,-1.555333585E-1
4.334109806E0,2.876301669E-2,-2.130593872E-3,-1.299662292E-1
4.339084026E0,3.408950195E-2,-1.150520667E-1,-1.161173657E-1
4.344264026E0,4.154657945E-2,-1.864269674E-1,-1.065296903E-1
4.349199339E0,4.900366068E-2,-2.130593807E-1,-1.054643989E-1
4.354364079E0,5.859133229E-2,-1.874922663E-1,-1.118561774E-1
4.359323247E0,7.137489319E-2,-1.363580078E-1,-1.182479635E-1
4.364375382E0,8.628904819E-2,-7.670138031E-2,-1.171826646E-1
4.369322154E0,9.481142461E-2,-2.769771963E-2,-9.587672353E-2
4.374453091E0,1.033338010E-1,1.065296936E-3,-7.350549102E-2
4.379479707E0,1.235744432E-1,1.384885982E-2,-6.178722158E-2
4.384527728E0,1.427497864E-1,2.130593918E-2,-4.900366068E-2
4.389575281E0,1.480762810E-1,2.237123623E-2,-3.728539124E-2
4.395357885E0,1.406191885E-1,2.130593872E-3,-3.195890784E-2
4.399630386E0,1.235744432E-1,-2.450183034E-2,-4.580776766E-2
4.404652730E0,9.374613315E-2,-5.113425106E-2,-6.498311460E-2
4.409649502E0,5.965662748E-2,-7.457078248E-2,-8.096256852E-2
4.414725699E0,3.515479714E-2,-9.374613315E-2,-8.415845782E-2
4.419725596E0,2.237123623E-2,-1.139867753E-1,-7.350549102E-2
4.424856794E0,1.491415687E-2,-1.310315281E-1,-5.113425106E-2
4.429816691E0,-5.326484796E-3,-1.203785539E-1,-2.556712553E-2
4.434906378E0,-3.302420676E-2,-7.670138031E-2,0.000000000E0
4.439901848E0,-6.285251677E-2,-5.326484796E-3,2.663242258E-2
4.444982265E0,-8.841964602E-2,8.202786744E-2,5.859133229E-2
4.449991433E0,-1.107908785E-1,1.811004728E-1,9.587672353E-2
4.455069662E0,-1.384886056E-1,2.705854177E-1,1.352927089E-1
4.460052580E0,-1.736433953E-1,3.462215066E-1,1.715128124E-1
4.465152371E0,-2.098634988E-1,4.090740085E-1,2.045370042E-1
4.470174716E0,-2.407571077E-1,4.559471011E-1,2.343653291E-1
4.475244299E0,-2.695201337E-1,4.804489315E-1,2.631283402E-1
4.480233675E0,-2.865648866E-1,4.783183336E-1,2.854995728E-1
4.485293050E0,-2.886954844E-1,4.516859055E-1,2.982831299E-1
4.490399197E0,-2.780424953E-1,3.930945694E-1,3.046749234E-1
4.495411697E0,-2.503447831E-1,3.270461559E-1,3.057402074E-1
4.500366698E0,-2.098634988E-1,2.503447831E-1,2.972178459E-1
4.505223677E0,-1.661863178E-1,1.651210189E-1,2.801730931E-1
4.510472897E0,-1.331621110E-1,5.646073818E-2,2.588671446E-1
4.515528626E0,-1.161173657E-1,-8.948494494E-2,2.450182885E-1
4.520447273E0,-9.268083423E-2,-1.896228492E-1,2.386265099E-1
4.525715658E0,-7.883197069E-2,-2.290388346E-1,2.354306281E-1
4.530613003E0,-6.178722158E-2,-2.109287977E-1,2.396918088E-1
4.536037847E0,-7.670138031E-2,-2.279735506E-1,2.322347313E-1
4.540689098E0,-1.161173657E-1,-2.812383771E-1,2.258429527E-1
4.545807275E0,-1.608598381E-1,-2.886954844E-1,2.322347313E-1
4.550758630E0,-2.034717202E-1,-2.418224066E-1,2.535406649E-1
4.555742536E0,-2.418224066E-1,-1.512721628E-1,2.759118974E-1
4.560885715E0,-2.844342887E-1,-4.793836176E-2,2.886954844E-1
4.565979777E0,-3.185237944E-1,6.604841352E-2,3.163931966E-1
4.571009830E0,-3.536785841E-1,1.747086942E-1,3.472867906E-1
4.575984719E0,-3.888333738E-1,2.333000302E-1,3.824416101E-1
4.580998998E0,-4.197269976E-1,2.546059787E-1,4.133352041E-1
4.586092696E0,-4.410329461E-1,2.578018606E-1,4.335758388E-1
4.590991291E0,-4.580776691E-1,2.301041335E-1,4.325105548E-1
4.596201967E0,-4.676653445E-1,1.768392920E-1,4.175963998E-1
4.601150146E0,-4.761877358E-1,1.278356314E-1,3.962904513E-1
4.606269781E0,-4.932324886E-1,5.859133229E-2,3.771151006E-1
4.611323584E0,-5.251913667E-1,-5.113425106E-2,3.600703776E-1
4.616361813E0,-5.496932268E-1,-1.320968270E-1,3.376991153E-1
4.621406710E0,-5.528891087E-1,-1.384886056E-1,3.068055212E-1
4.626473533E0,-5.379749537E-1,-5.113425106E-2,2.705854177E-1
4.631389524E0,-5.347790718E-1,3.195890784E-2,2.364959270E-1
4.636493117E0,-5.582156181E-1,6.498311460E-2,2.034717202E-1
4.641543431E0,-5.837827325E-1,9.694202244E-2,1.992105246E-1
4.646582702E0,-5.869786143E-1,1.683169156E-1,2.364959270E-1
4.651593849E0,-5.709991455E-1,2.929566503E-1,2.578018606E-1
4.656676400E0,-5.528891087E-1,4.101393223E-1,2.599324584E-1
4.661555881E0,-5.571503043E-1,4.676653445E-1,2.588671446E-1
4.666482756E0,-5.763256550E-1,4.729918540E-1,2.503447831E-1
4.671430726E0,-5.891091824E-1,4.580776691E-1,2.247776538E-1
4.676522184E0,-5.901744962E-1,4.239881933E-1,1.352927089E-1
4.681514841E0,-5.709991455E-1,3.707233369E-1,6.498311460E-2
4.686601143E0,-5.347790718E-1,3.345032334E-1,7.244019210E-2
4.691599165E0,-4.974936545E-1,3.174584806E-1,9.161553532E-2
4.696683696E0,-4.623388648E-1,2.972178459E-1,9.800732136E-2
4.701666354E0,-4.367717505E-1,2.695201337E-1,1.012032107E-1
4.707168124E0,-4.186616838E-1,2.396918088E-1,1.086602882E-1
4.711931928E0,-4.005516469E-1,2.151899785E-1,1.182479635E-1
4.717101771E0,-3.835068941E-1,1.938840449E-1,1.246397421E-1
4.722120158E0,-3.664621413E-1,1.693822145E-1,1.331621110E-1
4.727270939E0,-3.547438681E-1,1.459456831E-1,1.416844875E-1
4.732219690E0,-3.462215066E-1,1.267703325E-1,1.416844875E-1
4.737317971E0,-3.408950269E-1,1.118561774E-1,1.342274100E-1
4.742572295E0,-3.408950269E-1,9.694202244E-2,1.267703325E-1
4.747516826E0,-3.419603109E-1,7.244019210E-2,1.214438528E-1
4.752322140E0,-3.494173884E-1,4.793836176E-2,1.161173657E-1
4.757439067E0,-3.558091819E-1,2.982831374E-2,1.139867753E-1
4.762453704E0,-3.622009456E-1,9.587672539E-3,1.182479635E-1
4.767595266E0,-3.685927391E-1,-8.522375487E-3,1.225091442E-1
4.772518757E0,-3.760498166E-1,-1.704475097E-2,1.331621110E-1
4.777616048E0,-3.781804144E-1,-1.065296959E-2,1.502068639E-1
4.782575476E0,-3.739192188E-1,-1.065296936E-3,1.661863178E-1
4.787733028E0,-3.707233369E-1,1.065296936E-3,1.779045910E-1
4.792852665E0,-3.696580231E-1,2.130593872E-3,1.938840449E-1
4.797811206E0,-3.622009456E-1,-2.130593872E-3,2.173205763E-1
4.802736833E0,-3.536785841E-1,-9.587672539E-3,2.364959270E-1
4.807850791E0,-3.408950269E-1,-1.704475097E-2,2.588671446E-1
4.812877250E0,-3.270461559E-1,-1.811004803E-2,2.748466134E-1
4.817966156E0,-3.142625988E-1,-2.343653329E-2,2.929566503E-1
4.822964699E0,-3.078708053E-1,-3.622009605E-2,3.036096394E-1
4.828037824E0,-3.057402074E-1,-5.965662748E-2,3.110667169E-1
4.832920794E0,-3.036096394E-1,-9.055023640E-2,3.142625988E-1
4.838091210E0,-3.004137278E-1,-1.203785539E-1,3.131972849E-1
4.843091628E0,-3.014790416E-1,-1.480762810E-1,3.131972849E-1
4.848155638E0,-3.004137278E-1,-1.768392920E-1,3.121320009E-1
4.853224598E0,-3.046749234E-1,-2.045370042E-1,3.131972849E-1
4.858367254E0,-3.068055212E-1,-2.333000302E-1,3.153278828E-1
4.863286318E0,-3.110667169E-1,-2.546059787E-1,3.195890784E-1
4.868314807E0,-3.174584806E-1,-2.780424953E-1,3.281114697E-1
4.873567621E0,-3.206543922E-1,-2.972178459E-1,3.376991153E-1
4.878501110E0,-3.206543922E-1,-3.100014031E-1,3.483521044E-1
4.883357361E0,-3.195890784E-1,-3.153278828E-1,3.600703776E-1
4.888502361E0,-3.163931966E-1,-3.185237944E-1,3.760498166E-1
4.893545383E0,-3.089361191E-1,-3.259808719E-1,3.920292854E-1
4.898551789E0,-3.025443256E-1,-3.345032334E-1,4.058781266E-1
4.903589707E0,-2.908260524E-1,-3.440909088E-1,4.186616838E-1
4.908648978E0,-2.801730931E-1,-3.504827023E-1,4.239881933E-1
4.913618250E0,-2.673895359E-1,-3.558091819E-1,4.325105548E-1
4.918728354E0,-2.578018606E-1,-3.696580231E-1,4.452941120E-1
4.923688824E0,-2.471488863E-1,-3.835068941E-1,4.612735808E-1
4.928804084E0,-2.364959270E-1,-3.962904513E-1,4.719265401E-1
4.933832054E0,-2.290388346E-1,-4.005516469E-1,4.815142155E-1
4.938889710E0,-2.237123549E-1,-4.026822448E-1,4.847100973E-1
4.943854607E0,-2.226470560E-1,-4.080087245E-1,4.857754111E-1
4.948953565E0,-2.247776538E-1,-4.058781266E-1,4.857754111E-1
4.953922525E0,-2.311694324E-1,-3.952251673E-1,4.825794995E-1
4.959092524E0,-2.343653291E-1,-3.856374919E-1,4.761877358E-1
4.964090755E0,-2.333000302E-1,-3.622009456E-1,4.804489315E-1
4.969095234E0,-2.258429527E-1,-3.323726356E-1,4.772530198E-1
4.974105287E0,-2.226470560E-1,-2.886954844E-1,4.676653445E-1
4.979230547E0,-2.151899785E-1,-2.301041335E-1,4.570123851E-1
4.984189038E0,-1.970799267E-1,-1.683169156E-1,4.399676323E-1
4.989276173E0,-1.832310706E-1,-9.800732136E-2,4.101393223E-1
4.994246591E0,-1.661863178E-1,-1.917534508E-2,3.685927391E-1
4.999416487E0,-1.416844875E-1,5.113425106E-2,3.121320009E-1
5.004445290E0,-1.214438528E-1,1.118561774E-1,2.354306281E-1
5.009429561E0,-1.033338010E-1,1.661863178E-1,1.534027606E-1
5.014485395E0,-7.776667923E-2,2.109287977E-1,8.309315890E-2
5.019533207E0,-4.580776766E-2,2.503447831E-1,2.556712553E-2
5.024609250E0,-1.065296936E-3,2.876301706E-1,-2.663242258E-2
5.029615396E0,5.006895587E-2,3.345032334E-1,-7.457078248E-2
5.034571647E0,1.182479635E-1,3.920292854E-1,-1.257050335E-1
5.039797845E0,2.013411224E-1,4.612735808E-1,-1.842963696E-1
5.044643315E0,2.950872481E-1,5.411708355E-1,-2.482141852E-1
5.049729408E0,3.909639716E-1,6.231986880E-1,-3.121320009E-1
5.054725451E0,4.825794995E-1,7.009654045E-1,-3.717886209E-1
5.059892951E0,5.731297731E-1,7.702096701E-1,-4.293146729E-1
5.064891130E0,6.615493894E-1,8.234745264E-1,-4.857754111E-1
5.070050869E0,7.499690652E-1,8.650211096E-1,-5.326484442E-1
5.074903787E0,8.351927996E-1,9.055023789E-1,-5.624767542E-1
5.080154880E0,9.118942022E-1,9.332001209E-1,-6.210681200E-1
5.085028632E0,9.651589990E-1,9.374613166E-1,-6.903123856E-1
5.090207381E0,1.005640268E0,9.300042391E-1,-7.297284007E-1
5.094787018E0,1.038664460E0,9.278736115E-1,-7.403813601E-1
5.100140038E0,1.077015162E0,9.363960028E-1,-7.425119877E-1
5.105110509E0,1.129214764E0,9.577019215E-1,-7.403813601E-1
5.110289935E0,1.191002011E0,9.917914271E-1,-7.297284007E-1
5.115194989E0,1.260246277E0,1.012032032E0,-7.126836777E-1
5.120299520E0,1.341208816E0,1.015228033E0,-6.903123856E-1
5.125298115E0,1.428563237E0,1.003509760E0,-6.658105850E-1
5.130405823E0,1.511656404E0,9.715508223E-1,-6.498311162E-1
5.135471032E0,1.596880078E0,9.278736115E-1,-6.370475888E-1
5.140506084E0,1.679973245E0,8.618252277E-1,-6.370475888E-1
5.145534835E0,1.756674647E0,7.702096701E-1,-6.466352344E-1
5.150709731E0,1.823788404E0,6.572881937E-1,-6.668758988E-1
5.155551034E0,1.878118515E0,5.337137580E-1,-6.999000907E-1
5.160692649E0,1.917534471E0,4.197269976E-1,-7.478384376E-1
5.165584733E0,1.937775135E0,3.206543922E-1,-8.096256852E-1
5.170684004E0,1.938840389E0,2.428877056E-1,-8.788699508E-1
5.175684057E0,1.920730352E0,1.970799267E-1,-9.534407854E-1
5.180947755E0,1.882379651E0,1.800351888E-1,-1.030142188E0
5.185867548E0,1.834441304E0,1.864269674E-1,-1.105778217E0
5.190702183E0,1.783307076E0,2.109287977E-1,-1.175022483E0
5.195850882E0,1.723650455E0,2.503447831E-1,-1.235744476E0
5.200938694E0,1.669320345E0,3.068055212E-1,-1.286878705E0
5.205948539E0,1.622447252E0,3.813762963E-1,-1.328425288E0
5.211021404E0,1.585161805E0,4.591429830E-1,-1.355057716E0
5.216062186E0,1.547876477E0,5.369096398E-1,-1.364645362E0
5.221108905E0,1.511656404E0,6.114804149E-1,-1.361449480E0
5.226120104E0,1.472240329E0,6.817900538E-1,-1.355057716E0
5.231190468E0,1.434955001E0,7.435772419E-1,-1.342274189E0
5.236151772E0,1.397669554E0,7.957767844E-1,-1.326294661E0
5.241260365E0,1.353992462E0,8.437151909E-1,-1.311380506E0
5.246306877E0,1.303923488E0,8.895229697E-1,-1.298596978E0
5.251322033E0,1.249593258E0,9.236124158E-1,-1.283682823E0
5.256292138E0,1.189936638E0,9.385265708E-1,-1.282617569E0
5.261395992E0,1.120692372E0,9.406571984E-1,-1.291139841E0
5.266446722E0,1.053578615E0,9.193512797E-1,-1.300727606E0
5.271532087E0,9.896608591E-1,8.810005784E-1,-1.313511133E0
5.276502036E0,9.332001209E-1,8.309316039E-1,-1.332686424E0
5.281630473E0,8.884576559E-1,7.734055519E-1,-1.359318852E0
5.286542506E0,8.564987183E-1,7.084224820E-1,-1.385951281E0
5.291734276E0,8.415845633E-1,6.391781569E-1,-1.407257199E0
5.296650163E0,8.362581134E-1,5.720644593E-1,-1.424301982E0
5.301718184E0,8.447804451E-1,5.134730935E-1,-1.434955001E0
5.306833914E0,8.682169914E-1,4.687306583E-1,-1.436020255E0
5.311802976E0,9.012411833E-1,4.410329461E-1,-1.432824373E0
5.316793394E0,9.332001209E-1,4.229228795E-1,-1.415779591E0
5.321864123E0,9.608978629E-1,4.122699201E-1,-1.395539045E0
5.326870270E0,9.853996634E-1,4.122699201E-1,-1.365710616E0
5.332005426E0,1.002444386E0,4.218575954E-1,-1.330555916E0
5.337044542E0,1.010966778E0,4.335758388E-1,-1.293270469E0
5.342122458E0,1.013097405E0,4.431635141E-1,-1.246397376E0
5.347076939E0,1.003509760E0,4.452941120E-1,-1.185675502E0
5.352107199E0,9.790078998E-1,4.346411526E-1,-1.133475900E0
5.357164648E0,9.491795897E-1,4.186616838E-1,-1.082341671E0
5.362462669E0,9.118942022E-1,3.930945694E-1,-1.023750305E0
5.367179233E0,8.682169914E-1,3.558091819E-1,-9.577019215E-1
5.372276212E0,8.224092126E-1,3.195890784E-1,-8.895229697E-1
5.377278504E0,7.723402977E-1,2.759118974E-1,-8.277357221E-1
5.382427358E0,7.169448137E-1,2.333000302E-1,-7.712749839E-1
5.387349964E0,6.530269980E-1,1.970799267E-1,-7.244018912E-1
5.392454859E0,5.805868506E-1,1.619251370E-1,-6.817900538E-1
5.397423194E0,5.017548800E-1,1.278356314E-1,-6.359822750E-1
5.402704183E0,4.165311158E-1,1.033338010E-1,-5.848480463E-1
5.407573612E0,3.376991153E-1,9.268083423E-2,-5.294525623E-1
5.412631476E0,2.620630562E-1,9.907261282E-2,-4.740571380E-1
5.417743821E0,1.821657717E-1,1.193132550E-1,-4.144005179E-1
5.422692414E0,1.139867753E-1,1.416844875E-1,-3.366338313E-1
5.427704603E0,5.006895587E-2,1.629904360E-1,-2.546059787E-1
5.432748144E0,-8.522375487E-3,1.789698899E-1,-1.747086942E-1
5.437734865E0,-6.604841352E-2,1.874922663E-1,-9.800732136E-2
5.442962416E0,-1.257050335E-1,1.842963696E-1,-2.343653329E-2
5.447943095E0,-1.832310706E-1,1.619251370E-1,5.113425106E-2
5.452929240E0,-2.354306281E-1,1.267703325E-1,1.257050335E-1
5.457705179E0,-2.823036909E-1,8.522375673E-2,1.906881481E-1
5.463123460E0,-3.185237944E-1,3.941598535E-2,2.503447831E-1
5.468068357E0,-3.494173884E-1,-4.261187743E-3,3.057402074E-1
5.473085805E0,-3.813762963E-1,-4.793836176E-2,3.515479863E-1
5.478256431E0,-4.133352041E-1,-9.694202244E-2,3.962904513E-1
5.483198410E0,-4.506205916E-1,-1.427497864E-1,4.346411526E-1
5.488197318E0,-4.964283705E-1,-1.874922663E-1,4.793836176E-1
5.493269192E0,-5.443667173E-1,-2.162552774E-1,5.209302306E-1
5.498318048E0,-5.901744962E-1,-2.226470560E-1,5.656726956E-1
5.503324662E0,-6.338516474E-1,-2.109287977E-1,6.168069243E-1
5.508335392E0,-6.615493894E-1,-1.853616685E-1,6.700717807E-1
5.513434194E0,-6.743329763E-1,-1.416844875E-1,7.265325189E-1
5.518368727E0,-6.690064669E-1,-7.989726961E-2,7.797973752E-1
5.523467685E0,-6.498311162E-1,-5.326484796E-3,8.319969177E-1
5.528517634E0,-6.168069243E-1,8.415845782E-2,8.735435009E-1
5.533550394E0,-5.773909688E-1,1.821657717E-1,9.023064971E-1
5.538516802E0,-5.337137580E-1,2.886954844E-1,9.140247703E-1
5.543650603E0,-4.804489315E-1,3.898986876E-1,9.118942022E-1
5.548647480E0,-4.218575954E-1,4.761877358E-1,8.980453014E-1
5.553702167E0,-3.579397798E-1,5.358443856E-1,8.756740689E-1
5.558758366E0,-2.876301706E-1,5.624767542E-1,8.373233676E-1
5.563790553E0,-2.056023031E-1,5.571503043E-1,7.712749839E-1
5.568767742E0,-1.257050335E-1,5.177342892E-1,6.807247400E-1
5.574016440E0,-5.433014408E-2,4.570123851E-1,5.646073818E-1
5.578896545E0,5.326484796E-3,3.824416101E-1,4.303799570E-1
5.584020295E0,4.793836176E-2,3.057402074E-1,3.004137278E-1
5.589036703E0,7.457078248E-2,2.322347313E-1,1.938840449E-1
5.594053369E0,9.587672353E-2,1.576639414E-1,9.268083423E-2
5.599017172E0,1.161173657E-1,9.374613315E-2,-3.195890691E-3
5.604104464E0,1.320968270E-1,5.219954997E-2,-9.374613315E-2
5.609282069E0,1.342274100E-1,1.384885982E-2,-1.629904360E-1
5.614224985E0,1.203785539E-1,-1.917534508E-2,-2.034717202E-1
5.619152226E0,8.948494494E-2,-4.261187837E-2,-2.183858752E-1
5.624272434E0,4.474247247E-2,-5.965662748E-2,-2.056023031E-1
5.629271498E0,-2.450183034E-2,-5.965662748E-2,-1.715128124E-1
5.634393060E0,-1.257050335E-1,-5.326484516E-2,-1.214438528E-1
5.639339989E0,-2.620630562E-1,-4.367717355E-2,-6.178722158E-2
5.644504416E0,-4.133352041E-1,-2.556712553E-2,8.522375487E-3
5.649421761E0,-5.720644593E-1,-1.384885982E-2,9.268083423E-2
5.654496500E0,-7.520996332E-1,-2.876301669E-2,1.715128124E-1
5.659489366E0,-9.406571984E-1,-7.030959427E-2,2.343653291E-1
5.664722334E0,-1.124953508E0,-1.416844875E-1,2.865648866E-1
5.669691606E0,-1.282617569E0,-2.375612110E-1,3.259808719E-1
5.674692596E0,-1.407257199E0,-3.398297131E-1,3.643315434E-1
5.679607753E0,-1.498872757E0,-4.303799570E-1,4.122699201E-1
5.684769003E0,-1.560660005E0,-4.974936545E-1,4.761877358E-1
5.689757129E0,-1.587292433E0,-5.315831900E-1,5.507585406E-1
5.694831139E0,-1.551072359E0,-5.401055217E-1,6.082845330E-1
5.699819578E0,-1.432824373E0,-5.145384073E-1,5.965662599E-1
5.704955724E0,-1.231483221E0,-4.634041786E-1,4.857754111E-1
5.710087079E0,-9.800731540E-1,-3.930945694E-1,3.025443256E-1
5.714983433E0,-7.105530500E-1,-3.121320009E-1,1.118561774E-1
5.719968903E0,-4.346411526E-1,-2.503447831E-1,-2.343653329E-2
5.725124007E0,-1.565986425E-1,-2.087981999E-1,-1.257050335E-1
5.730076769E0,1.065296903E-1,-1.811004728E-1,-2.269082516E-1
5.735125675E0,3.100014031E-1,-1.960146427E-1,-3.185237944E-1
5.740118124E0,4.442288280E-1,-2.578018606E-1,-3.451561928E-1
5.745205571E0,5.379749537E-1,-3.430256248E-1,-2.705854177E-1
5.750188750E0,6.029580832E-1,-4.005516469E-1,-1.310315281E-1
5.755313906E0,6.274598837E-1,-3.909639716E-1,3.089361079E-2
5.760307761E0,5.965662599E-1,-3.036096394E-1,1.885575503E-1
5.765392865E0,4.942977726E-1,-1.629904360E-1,3.579397798E-1
5.770389637E0,3.323726356E-1,4.261187743E-3,5.486279130E-1
5.775190731E0,1.363580078E-1,1.874922663E-1,7.595567107E-1
5.780498232E0,-6.817900389E-2,3.440909088E-1,9.768772721E-1
5.785531721E0,-2.641936541E-1,4.538165033E-1,1.178218365E0
5.790589587E0,-4.420982301E-1,5.113425255E-1,1.341208816E0
5.795620993E0,-5.986968875E-1,5.209302306E-1,1.436020255E0
5.800641359E0,-7.148142457E-1,4.825794995E-1,1.451999664E0
5.807020578E0,-7.989727259E-1,3.952251673E-1,1.378494263E0
5.810855891E0,-8.660864234E-1,2.705854177E-1,1.209112048E0
5.815754693E0,-9.140247703E-1,9.800732136E-2,9.577019215E-1
5.820759121E0,-9.683549404E-1,-1.225091442E-1,6.445046663E-1
5.825862975E0,-1.055709243E0,-3.845722079E-1,3.121320009E-1
5.830842925E0,-1.170761347E0,-6.306557655E-1,3.728539124E-2
5.835972560E0,-1.266638041E0,-7.915156484E-1,-1.448803842E-1
5.840941884E0,-1.303923488E0,-8.639557958E-1,-2.503447831E-1
5.846016311E0,-1.269833922E0,-8.916535378E-1,-3.014790416E-1
5.851025062E0,-1.178218365E0,-9.086982608E-1,-3.014790416E-1
5.856106624E0,-1.050382733E0,-8.991106153E-1,-2.482141852E-1
5.861166730E0,-9.065676928E-1,-8.458457589E-1,-1.512721628E-1
5.866212511E0,-7.659484744E-1,-7.552955151E-1,-2.130593918E-2
5.871144335E0,-6.413087845E-1,-6.402434707E-1,1.193132550E-1
5.876361730E0,-5.475625992E-1,-5.230607986E-1,2.567365468E-1
5.881324700E0,-4.953630865E-1,-4.133352041E-1,3.824416101E-1
5.886322617E0,-4.825794995E-1,-3.355685472E-1,4.825794995E-1
5.891324441E0,-5.006895661E-1,-2.897607684E-1,5.475625992E-1
5.896491107E0,-5.454320312E-1,-2.620630562E-1,5.699338317E-1
5.901432775E0,-6.136110425E-1,-2.567365468E-1,5.699338317E-1
5.906500588E0,-6.881818175E-1,-2.759118974E-1,5.646073818E-1
5.911483141E0,-7.563608289E-1,-3.046749234E-1,5.486279130E-1
5.916552568E0,-8.192133307E-1,-3.302420378E-1,5.283873081E-1
5.921586423E0,-8.628905416E-1,-3.408950269E-1,5.038854480E-1
5.926649183E0,-8.905882239E-1,-3.323726356E-1,4.740571380E-1
5.931622414E0,-9.076330066E-1,-3.100014031E-1,4.325105548E-1
5.936707101E0,-9.150900841E-1,-2.801730931E-1,3.877680898E-1
5.941766061E0,-9.129594564E-1,-2.556712627E-1,3.515479863E-1
5.946880331E0,-9.001759291E-1,-2.311694324E-1,3.281114697E-1
5.951789864E0,-8.767393827E-1,-2.258429527E-1,3.259808719E-1
5.956919395E0,-8.405193090E-1,-2.503447831E-1,3.419603109E-1
5.962042313E0,-7.989727259E-1,-2.897607684E-1,3.675274551E-1
5.967027156E0,-7.584913969E-1,-3.163931966E-1,3.941598535E-1
5.971941637E0,-7.275978327E-1,-3.174584806E-1,4.250534773E-1
5.977039345E0,-7.030959725E-1,-3.078708053E-1,4.644694626E-1
5.982037315E0,-6.892471313E-1,-2.876301706E-1,5.017548800E-1
5.987148044E0,-6.785941720E-1,-2.471488863E-1,5.315831900E-1
5.992167159E0,-6.807247400E-1,-2.024064213E-1,5.614115000E-1
5.997224919E0,-6.903123856E-1,-1.747086942E-1,5.827174187E-1
6.002309140E0,-7.116183639E-1,-1.459456831E-1,5.955010056E-1
6.007410129E0,-7.382507920E-1,-1.278356314E-1,6.018927693E-1
6.012268724E0,-7.659484744E-1,-1.139867753E-1,5.986968875E-1
6.017388463E0,-7.840585709E-1,-1.043990999E-1,5.901744962E-1
6.022410079E0,-7.872544527E-1,-1.012032107E-1,5.805868506E-1
6.027552839E0,-7.829932570E-1,-9.374613315E-2,5.699338317E-1
6.032431538E0,-7.755361795E-1,-8.735434711E-2,5.528891087E-1
6.037604559E0,-7.638179064E-1,-8.948494494E-2,5.294525623E-1
6.042544404E0,-7.520996332E-1,-1.001379117E-1,5.124078393E-1
6.047348049E0,-7.371854782E-1,-1.075949892E-1,4.985589683E-1
6.052572165E0,-7.233366370E-1,-1.139867753E-1,4.857754111E-1
6.057820811E0,-7.126836777E-1,-1.203785539E-1,4.772530198E-1
6.062806802E0,-7.041612864E-1,-1.267703325E-1,4.761877358E-1
6.067778781E0,-6.977695227E-1,-1.267703325E-1,4.847100973E-1
6.072758730E0,-6.924430132E-1,-1.278356314E-1,4.953630865E-1
6.077842688E0,-6.935083270E-1,-1.203785539E-1,5.187996030E-1
6.082900554E0,-6.999000907E-1,-1.065296903E-1,5.507585406E-1
6.087929981E0,-7.041612864E-1,-8.948494494E-2,5.912398100E-1
6.093110086E0,-7.009654045E-1,-7.457078248E-2,6.253293157E-1
6.098031596E0,-6.977695227E-1,-7.350549102E-2,6.540923119E-1
6.104855607E0,-6.892471313E-1,-9.374613315E-2,6.785941720E-1
6.108112379E0,-6.796594262E-1,-1.246397421E-1,6.977695227E-1
6.113137431E0,-6.647452712E-1,-1.608598381E-1,7.073571682E-1
6.118106912E0,-6.402434707E-1,-2.087981999E-1,7.030959725E-1
6.123199567E0,-6.157416105E-1,-2.450182885E-1,6.924430132E-1
6.128182173E0,-5.944356918E-1,-2.578018606E-1,6.807247400E-1
6.133331183E0,-5.699338317E-1,-2.588671446E-1,6.626147032E-1
6.138277695E0,-5.496932268E-1,-2.535406649E-1,6.381128430E-1
6.143520663E0,-5.337137580E-1,-2.524753809E-1,6.125457287E-1
6.148369258E0,-5.230607986E-1,-2.588671446E-1,5.891091824E-1
6.153467070E0,-5.102772117E-1,-2.780424953E-1,5.667379498E-1
6.158409624E0,-4.985589683E-1,-3.036096394E-1,5.486279130E-1
6.163655978E0,-4.825794995E-1,-3.270461559E-1,5.283873081E-1
6.168515510E0,-4.729918540E-1,-3.430256248E-1,5.124078393E-1
6.173781291E0,-4.591429830E-1,-3.504827023E-1,4.996242523E-1
6.178574782E0,-4.463594258E-1,-3.408950269E-1,4.932324886E-1
6.183674990E0,-4.303799570E-1,-3.249155581E-1,4.836448133E-1
6.188667700E0,-4.080087245E-1,-3.110667169E-1,4.708612561E-1
6.193740824E0,-3.771151006E-1,-2.865648866E-1,4.559471011E-1
6.198754159E0,-3.462215066E-1,-2.428877056E-1,4.357064366E-1
6.203883742E0,-3.227849603E-1,-1.874922663E-1,4.080087245E-1
6.208887858E0,-3.014790416E-1,-1.544680595E-1,3.579397798E-1
6.213909837E0,-2.844342887E-1,-1.257050335E-1,2.844342887E-1
6.218911505E0,-2.609977424E-1,-9.055023640E-2,1.970799267E-1
6.223968848E0,-2.301041335E-1,-5.539543927E-2,9.907261282E-2
6.229023850E0,-1.992105246E-1,-2.769771963E-2,-2.130593872E-3
6.234062651E0,-1.565986425E-1,-1.171826664E-2,-9.907261282E-2
6.239041455E0,-9.268083423E-2,1.065296936E-3,-1.874922663E-1
6.244181246E0,-1.171826664E-2,1.065296959E-2,-2.705854177E-1
6.248866872E0,9.587672353E-2,1.917534508E-2,-3.451561928E-1
6.254253330E0,2.183858752E-1,4.048128426E-2,-4.101393223E-1
6.259222342E0,3.590050638E-1,6.178722158E-2,-4.729918540E-1
6.264343800E0,5.102772117E-1,8.948494494E-2,-5.326484442E-1
6.269391874E0,6.668758988E-1,1.267703325E-1,-5.859133005E-1
6.274367707E0,8.288010359E-1,1.821657717E-1,-6.359822750E-1
6.279389792E0,9.896608591E-1,2.460835874E-1,-6.860512495E-1
6.284620417E0,1.147324800E0,3.238502741E-1,-7.265325189E-1
6.289459168E0,1.293270469E0,4.261187613E-1,-7.584913969E-1
6.294571980E0,1.424301982E0,5.326484442E-1,-7.787320614E-1
6.299552138E0,1.538288832E0,6.263945699E-1,-7.851238251E-1
6.304621773E0,1.634165525E0,7.073571682E-1,-7.829932570E-1
6.309621774E0,1.724715710E0,8.011032939E-1,-7.819279432E-1
6.314796097E0,1.817396522E0,8.991106153E-1,-7.787320614E-1
6.319722973E0,1.929252744E0,9.864649773E-1,-7.755361795E-1
6.324785160E0,2.057088375E0,1.056774616E0,-7.712749839E-1
6.329777141E0,2.188119888E0,1.094059944E0,-7.670137882E-1
6.334872141E0,2.303171873E0,1.074884653E0,-7.691444159E-1
6.339891569E0,2.394787550E0,9.704855084E-1,-7.797973752E-1
6.344950371E0,2.450182915E0,7.755361795E-1,-7.979074121E-1
6.349940060E0,2.469358206E0,5.262566805E-1,-8.277357221E-1
6.355083549E0,2.460835934E0,2.578018606E-1,-8.692823052E-1
6.359741675E0,2.425681114E0,2.130593872E-3,-9.204165339E-1
6.365265060E0,2.373481512E0,-2.151899785E-1,-9.800731540E-1
6.370099332E0,2.318086147E0,-3.930945694E-1,-1.048252225E0
6.375165686E0,2.254168272E0,-5.347790718E-1,-1.116431236E0
6.380178031E0,2.180662870E0,-6.391781569E-1,-1.184610248E0
6.385266833E0,2.095438957E0,-7.126836777E-1,-1.252789140E0
6.390279491E0,2.005954027E0,-7.446425557E-1,-1.328425288E0
6.395416365E0,1.923926234E0,-7.318589687E-1,-1.404061317E0
6.400388971E0,1.856812596E0,-6.658105850E-1,-1.473305702E0
6.405486523E0,1.807808876E0,-5.496932268E-1,-1.534027576E0
6.410216784E0,1.768392920E0,-4.037475288E-1,-1.580900669E0
6.415494805E0,1.727911592E0,-2.215817571E-1,-1.596880078E0
6.420495067E0,1.677842617E0,-1.065296936E-3,-1.571313024E0
6.425560535E0,1.620316625E0,2.460835874E-1,-1.522309303E0
6.430618974E0,1.547876477E0,4.932324886E-1,-1.480762720E0
6.435716109E0,1.461587429E0,7.180101275E-1,-1.451999664E0
6.440632464E0,1.369971871E0,9.108288884E-1,-1.437085509E0
6.445777881E0,1.277291059E0,1.059970498E0,-1.429628491E0
6.450790018E0,1.195263147E0,1.164369583E0,-1.420040846E0
6.455783559E0,1.122823000E0,1.235744476E0,-1.406191945E0
6.460536060E0,1.056774616E0,1.275160432E0,-1.393408418E0
6.465603299E0,9.896608591E-1,1.271964550E0,-1.368906617E0
6.470586686E0,9.278736115E-1,1.228287339E0,-1.336947680E0
6.475682675E0,8.692823052E-1,1.143063664E0,-1.300727606E0
6.480668927E0,8.085603714E-1,1.031207442E0,-1.264507413E0
6.485787260E0,7.510343194E-1,9.097635746E-1,-1.231483221E0
6.490757574E0,6.956388950E-1,7.851238251E-1,-1.205916166E0
6.495855021E0,6.572881937E-1,6.753982306E-1,-1.176087856E0
6.500829085E0,6.349169612E-1,5.837827325E-1,-1.137737155E0
6.505921324E0,6.327863932E-1,5.092119575E-1,-1.096190572E0
6.511182940E0,6.455699205E-1,4.495553076E-1,-1.053578615E0
6.516316950E0,6.753982306E-1,4.069434404E-1,-9.960526228E-1
6.521250962E0,7.212060094E-1,3.781804144E-1,-9.257430434E-1
6.526385493E0,7.702096701E-1,3.568744659E-1,-8.543681502E-1
6.531334296E0,8.064298034E-1,3.462215066E-1,-7.808626294E-1
6.536435129E0,8.298662901E-1,3.366338313E-1,-7.073571682E-1
6.541429089E0,8.298662901E-1,3.387644291E-1,-6.338516474E-1
6.546509037E0,8.000379801E-1,3.504827023E-1,-5.688685775E-1
6.551479298E0,7.403813601E-1,3.824416101E-1,-5.187996030E-1
6.556569975E0,6.540923119E-1,4.261187613E-1,-4.751224220E-1
6.561620706E0,5.337137580E-1,4.761877358E-1,-4.303799570E-1
6.566746226E0,3.898986876E-1,5.315831900E-1,-3.888333738E-1
6.571712634E0,2.322347313E-1,5.763256550E-1,-3.419603109E-1
6.576756592E0,6.391781569E-2,5.955010056E-1,-2.897607684E-1
6.581461749E0,-1.065296903E-1,5.869786143E-1,-2.386265099E-1
6.586881801E0,-2.684548199E-1,5.624767542E-1,-1.874922663E-1
6.591813625E0,-4.165311158E-1,5.156037211E-1,-1.310315281E-1
6.596916750E0,-5.411708355E-1,4.506205916E-1,-7.350549102E-2
6.602030814E0,-6.487658620E-1,3.781804144E-1,-1.811004803E-2
6.606999251E0,-7.318589687E-1,3.036096394E-1,4.687306657E-2
6.611980711E0,-7.968420982E-1,2.333000302E-1,1.150520667E-1
6.617204773E0,-8.447804451E-1,1.715128124E-1,1.874922663E-1
6.622210184E0,-8.756740689E-1,1.193132550E-1,2.609977424E-1
6.627276636E0,-8.937841058E-1,6.924430281E-2,3.419603109E-1
6.632023525E0,-9.065676928E-1,2.130593918E-2,4.261187613E-1
6.637089977E0,-9.161553383E-1,-2.663242258E-2,5.006895661E-1
6.642125909E0,-9.321348071E-1,-7.776667923E-2,5.646073818E-1
6.647359151E0,-9.481142759E-1,-1.374233067E-1,6.189374924E-1
6.652305142E0,-9.704855084E-1,-2.077329010E-1,6.700717807E-1
6.657410298E0,-1.001379132E0,-2.865648866E-1,7.158795595E-1
6.662368789E0,-1.025880933E0,-3.696580231E-1,7.531649470E-1
6.667517226E0,-1.047186852E0,-4.431635141E-1,7.787320614E-1
6.672726081E0,-1.047186852E0,-5.006895661E-1,8.011032939E-1
6.677599987E0,-1.020554423E0,-5.241261125E-1,8.181480169E-1
6.682630041E0,-9.651589990E-1,-5.028201342E-1,8.277357221E-1
6.687738217E0,-8.863270283E-1,-4.452941120E-1,8.256051540E-1
6.692607437E0,-7.883197069E-1,-3.494173884E-1,8.138868809E-1
6.697775198E0,-6.839206219E-1,-2.386265099E-1,7.861891389E-1
6.702706241E0,-5.859133005E-1,-1.427497864E-1,7.489037514E-1
6.707783219E0,-5.049507618E-1,-7.030959427E-2,6.988347769E-1
6.712819887E0,-4.325105548E-1,-2.556712553E-2,6.253293157E-1
6.717911502E0,-3.632662594E-1,-5.326484796E-3,5.294525623E-1
6.722842545E0,-2.833689749E-1,-5.326484796E-3,4.239881933E-1
6.727956815E0,-1.885575503E-1,-2.024064213E-2,3.217196763E-1
6.732928119E0,-8.202786744E-2,-4.687306657E-2,2.237123549E-1
6.738049160E0,2.450183034E-2,-7.137489319E-2,1.246397421E-1
6.743083953E0,1.182479635E-1,-1.012032107E-1,3.089361079E-2
6.748184317E0,1.938840449E-1,-1.384886056E-1,-5.539543927E-2
6.753154944E0,2.418224066E-1,-1.683169156E-1,-1.267703325E-1
6.758213016E0,2.599324584E-1,-1.821657717E-1,-1.821657717E-1
6.762946247E0,2.471488863E-1,-1.672516167E-1,-2.034717202E-1
6.768360309E0,2.130593807E-1,-1.427497864E-1,-1.757739931E-1
6.773298175E0,1.608598381E-1,-1.257050335E-1,-1.352927089E-1
6.778149476E0,7.776667923E-2,-1.118561774E-1,-1.075949892E-1
6.783329582E0,-4.580776766E-2,-1.097255871E-1,-7.883197069E-2
6.788425207E0,-1.928187460E-1,-1.107908785E-1,-4.048128426E-2
6.793406823E0,-3.526133001E-1,-1.342274100E-1,-4.261187743E-3
6.798680364E0,-5.177342892E-1,-1.896228492E-1,2.769771963E-2
6.803595990E0,-6.572881937E-1,-2.748466134E-1,6.604841352E-2
6.808560104E0,-7.734055519E-1,-3.771151006E-1,1.203785539E-1
6.813621200E0,-8.852617741E-1,-4.815142155E-1,1.853616685E-1
6.818670470E0,-9.875302315E-1,-5.741950274E-1,2.524753809E-1
6.823619794E0,-1.065296888E0,-6.391781569E-1,3.068055212E-1
6.828754690E0,-1.090864062E0,-6.519617438E-1,3.100014031E-1
6.833790733E0,-1.036533952E0,-5.763256550E-1,2.194511741E-1
6.839003076E0,-9.012411833E-1,-4.207922816E-1,2.769771963E-2
6.843819900E0,-7.009654045E-1,-2.546059787E-1,-2.024064213E-1
6.848914171E0,-4.634041786E-1,-1.075949892E-1,-4.005516469E-1
6.853949797E0,-2.087981999E-1,2.982831374E-2,-5.443667173E-1
6.858906620E0,2.769771963E-2,1.214438528E-1,-6.327863932E-1
6.863966777E0,2.056023031E-1,1.182479635E-1,-6.423740387E-1
6.869080423E0,3.259808719E-1,5.859133229E-2,-5.678032637E-1
6.874018549E0,4.495553076E-1,3.941598535E-2,-3.909639716E-1
6.879120945E0,5.965662599E-1,1.182479635E-1,-1.043990999E-1
6.884191363E0,6.817900538E-1,2.375612110E-1,2.077329010E-1
6.889218915E0,6.413087845E-1,3.558091819E-1,4.442288280E-1
6.894186103E0,4.772530198E-1,4.634041786E-1,6.082845330E-1
6.899073343E0,2.407571077E-1,5.582156181E-1,7.819279432E-1
6.904280271E0,-3.408950195E-2,6.285251975E-1,1.001379132E0
6.909344854E0,-3.345032334E-1,6.530269980E-1,1.258115649E0
6.914356835E0,-6.253293157E-1,6.423740387E-1,1.519113421E0
6.919431157E0,-8.628905416E-1,6.125457287E-1,1.759870529E0
6.924513606E0,-1.029076815E0,5.475625992E-1,1.935644507E0
6.929534283E0,-1.107908845E0,4.580776691E-1,2.001693010E0
6.934570847E0,-1.101517081E0,3.579397798E-1,1.950558662E0
6.939617253E0,-1.052513361E0,2.428877056E-1,1.768392920E0
6.944666525E0,-1.014162660E0,9.907261282E-2,1.440281510E0
6.949452462E0,-1.040795088E0,-1.150520667E-1,9.822037816E-1
6.954666005E0,-1.160108328E0,-3.909639716E-1,4.719265401E-1
6.959841265E0,-1.309249878E0,-6.434393525E-1,5.326484516E-2
6.964833923E0,-1.406191945E0,-7.979074121E-1,-1.970799267E-1
6.969836996E0,-1.399800181E0,-8.724781871E-1,-3.217196763E-1
6.974819705E0,-1.302858114E0,-9.097635746E-1,-3.664621413E-1
6.979752413E0,-1.155847192E0,-9.065676928E-1,-3.462215066E-1
6.984924550E0,-9.875302315E-1,-8.469110727E-1,-2.631283402E-1
6.989997831E0,-8.224092126E-1,-7.414466739E-1,-1.352927089E-1
6.995041895E0,-6.796594262E-1,-6.114804149E-1,1.704475097E-2
7.000141165E0,-5.731297731E-1,-4.793836176E-1,1.832310706E-1
7.005049187E0,-5.113425255E-1,-3.483521044E-1,3.632662594E-1
7.010181843E0,-4.996242523E-1,-2.482141852E-1,5.401055217E-1
7.015134188E0,-5.326484442E-1,-1.747086942E-1,6.935083270E-1
7.020223667E0,-6.029580832E-1,-1.129214764E-1,7.851238251E-1
7.025216429E0,-7.073571682E-1,-6.924430281E-2,8.170827627E-1
7.030320179E0,-8.479763865E-1,-4.154657945E-2,7.936462164E-1
7.035337524E0,-1.002444386E0,-2.450183034E-2,7.414466739E-1
7.040454242E0,-1.140933037E0,-3.302420676E-2,6.977695227E-1
7.045457525E0,-1.246397376E0,-6.711370498E-2,6.615493894E-1
7.050473618E0,-1.301792860E0,-1.150520667E-1,6.295905113E-1
7.055483567E0,-1.310315251E0,-1.629904360E-1,5.944356918E-1
7.060550807E0,-1.281552196E0,-2.056023031E-1,5.592808723E-1
7.065697891E0,-1.219764948E0,-2.524753809E-1,5.262566805E-1
7.070636328E0,-1.138802409E0,-3.046749234E-1,5.028201342E-1
7.075640653E0,-1.045056343E0,-3.483521044E-1,4.836448133E-1
7.080864299E0,-9.470489621E-1,-3.888333738E-1,4.687306583E-1
7.085737477E0,-8.543681502E-1,-4.282493591E-1,4.506205916E-1
7.090787112E0,-7.734055519E-1,-4.644694626E-1,4.325105548E-1
7.095786280E0,-7.073571682E-1,-4.825794995E-1,4.229228795E-1
7.100906540E0,-6.551576257E-1,-4.740571380E-1,4.303799570E-1
7.105843520E0,-6.157416105E-1,-4.506205916E-1,4.474247098E-1
7.111039666E0,-5.880439281E-1,-4.250534773E-1,4.719265401E-1
7.115971959E0,-5.795215368E-1,-3.888333738E-1,5.081466436E-1
7.121059927E0,-5.880439281E-1,-3.419603109E-1,5.475625992E-1
7.126073731E0,-6.082845330E-1,-3.004137278E-1,5.901744962E-1
7.131116387E0,-6.349169612E-1,-2.631283402E-1,6.253293157E-1
7.136148628E0,-6.615493894E-1,-2.279735506E-1,6.477005482E-1
7.141252482E0,-6.913776994E-1,-2.056023031E-1,6.445046663E-1
7.146170504E0,-7.169448137E-1,-1.970799267E-1,6.285251975E-1
7.151504566E0,-7.403813601E-1,-1.949493438E-1,6.040233374E-1
7.156237119E0,-7.627525926E-1,-2.024064213E-1,5.773909688E-1
7.161421233E0,-7.787320614E-1,-2.119940966E-1,5.496932268E-1
7.166493839E0,-7.979074121E-1,-2.205164731E-1,5.251913667E-1
7.171563682E0,-8.160174489E-1,-2.333000302E-1,5.060160160E-1
7.176423371E0,-8.277357221E-1,-2.514100671E-1,4.900365770E-1
7.181556965E0,-8.288010359E-1,-2.673895359E-1,4.783183336E-1
7.186565768E0,-8.138868809E-1,-2.705854177E-1,4.772530198E-1
7.191578007E0,-7.829932570E-1,-2.663242221E-1,4.868406951E-1
7.196590352E0,-7.361201644E-1,-2.567365468E-1,5.113425255E-1
7.201650300E0,-6.807247400E-1,-2.567365468E-1,5.486279130E-1
7.206640562E0,-6.210681200E-1,-2.641936541E-1,5.933703780E-1
7.211791968E0,-5.635420680E-1,-2.695201337E-1,6.434393525E-1
7.216941292E0,-5.177342892E-1,-2.759118974E-1,6.956388950E-1
7.221833219E0,-4.751224220E-1,-2.769772112E-1,7.414466739E-1
7.226827178E0,-4.420982301E-1,-2.695201337E-1,7.766014934E-1
7.231961657E0,-4.250534773E-1,-2.695201337E-1,7.936462164E-1
7.236908117E0,-4.207922816E-1,-2.844342887E-1,7.904503345E-1
7.241977700E0,-4.261187613E-1,-3.163931966E-1,7.712749839E-1
7.246969055E0,-4.389023483E-1,-3.483521044E-1,7.339895964E-1
7.252057388E0,-4.527511895E-1,-3.707233369E-1,6.839206219E-1
7.257033379E0,-4.623388648E-1,-3.803110123E-1,6.349169612E-1
7.262242441E0,-4.676653445E-1,-3.824416101E-1,5.859133005E-1
7.267128849E0,-4.580776691E-1,-3.856374919E-1,5.326484442E-1
7.272275984E0,-4.346411526E-1,-3.749845326E-1,4.761877358E-1
7.277192235E0,-4.090740085E-1,-3.600703776E-1,4.175963998E-1
7.282392443E0,-3.803110123E-1,-3.419603109E-1,3.558091819E-1
7.287313278E0,-3.472867906E-1,-3.206543922E-1,2.854995728E-1
7.292453798E0,-3.089361191E-1,-2.929566503E-1,2.098634988E-1
7.297354685E0,-2.759118974E-1,-2.492794842E-1,1.363580078E-1
7.302519529E0,-2.482141852E-1,-1.992105246E-1,6.498311460E-2
7.307449322E0,-2.130593807E-1,-1.565986425E-1,-1.171826664E-2
7.312568488E0,-1.736433953E-1,-1.054643989E-1,-9.800732136E-2
7.317592031E0,-1.161173657E-1,-5.646073818E-2,-1.885575503E-1
7.322614374E0,-4.793836176E-2,-3.089361079E-2,-2.791078091E-1
7.327759949E0,2.982831374E-2,-2.130593872E-3,-3.579397798E-1
7.332787657E0,1.171826646E-1,6.924430281E-2,-4.261187613E-1
7.337695158E0,2.269082516E-1,1.779045910E-1,-4.868406951E-1
7.342768387E0,3.536785841E-1,2.833689749E-1,-5.379749537E-1
7.347762138E0,4.942977726E-1,3.749845326E-1,-5.923051238E-1
7.353004534E0,6.477005482E-1,4.559471011E-1,-6.423740387E-1
7.357838598E0,8.096256852E-1,5.337137580E-1,-6.945735812E-1
7.362937399E0,9.907261729E-1,6.263945699E-1,-7.563608289E-1
7.367951359E0,1.181414247E0,7.393160462E-1,-8.170827627E-1
7.373000265E0,1.378494263E0,8.660864234E-1,-8.778046966E-1
7.377982818E0,1.556398869E0,9.992485046E-1,-9.427877665E-1
7.383261412E0,1.703409791E0,1.113235354E0,-1.007770896E0
7.388079434E0,1.830180168E0,1.185675502E0,-1.064231634E0
7.393169902E0,1.943101645E0,1.246397376E0,-1.119627118E0
7.398179643E0,2.064545393E0,1.283682823E0,-1.167565465E0
7.403247143E0,2.188119888E0,1.291139841E0,-1.199524403E0
7.408224905E0,2.312759638E0,1.277291059E0,-1.198459029E0
7.413385529E0,2.432072878E0,1.231483221E0,-1.168630719E0
7.418434176E0,2.529014826E0,1.116431236E0,-1.119627118E0
7.423391884E0,2.595063448E0,9.129594564E-1,-1.067427516E0
7.428388552E0,2.629152775E0,6.200028062E-1,-1.022685051E0
7.433493969E0,2.634479284E0,2.684548199E-1,-9.939220548E-1
7.438517824E0,2.609977484E0,-9.907261282E-2,-9.811384678E-1
7.443593293E0,2.568430901E0,-4.484900236E-1,-9.811384678E-1
7.448566419E0,2.520492554E0,-7.574261427E-1,-9.992485046E-1
7.453757825E0,2.466162443E0,-1.007770896E0,-1.031207442E0
7.458632462E0,2.404375076E0,-1.197393775E0,-1.069558144E0
7.463718138E0,2.335130930E0,-1.319902897E0,-1.119627118E0
7.468725588E0,2.275474310E0,-1.372102499E0,-1.185675502E0
7.473840275E0,2.231796980E0,-1.350796461E0,-1.264507413E0
7.478792672E0,2.198772907E0,-1.257050395E0,-1.339078307E0
7.483909130E0,2.159356833E0,-1.108974099E0,-1.391277790E0
7.488885954E0,2.115679741E0,-9.108288884E-1,-1.428563237E0
7.493959183E0,2.065610647E0,-6.785941720E-1,-1.455195665E0
7.499060382E0,1.999562383E0,-4.186616838E-1,-1.478632092E0
7.504251580E0,1.920730352E0,-1.384886056E-1,-1.499938130E0
7.509033300E0,1.828049541E0,1.395539045E-1,-1.521244049E0
7.514260279E0,1.720454574E0,4.101393223E-1,-1.551072359E0
7.519136270E0,1.612859607E0,6.402434707E-1,-1.571313024E0
7.524246322E0,1.515917540E0,8.106909394E-1,-1.584096551E0
7.529275958E0,1.437085509E0,9.417225122E-1,-1.586227179E0
7.534446167E0,1.366775990E0,1.049317479E0,-1.570247650E0
7.539302209E0,1.301792860E0,1.131345391E0,-1.529766440E0
7.544371063E0,1.234679103E0,1.176087856E0,-1.471175075E0
7.549378617E0,1.161173701E0,1.184610248E0,-1.399800181E0
7.554449918E0,1.081276417E0,1.166500092E0,-1.318837643E0
7.559427576E0,9.960526228E-1,1.124953508E0,-1.235744476E0
7.564551899E0,9.140247703E-1,1.059970498E0,-1.154781938E0
7.569574244E0,8.383886814E-1,9.811384678E-1,-1.072754025E0
7.574634660E0,7.776667476E-1,8.884576559E-1,-9.832690954E-1
7.579595755E0,7.307937145E-1,7.979074121E-1,-8.991106153E-1
7.584716536E0,7.030959725E-1,7.073571682E-1,-8.245398402E-1
7.589661173E0,6.871165037E-1,6.136110425E-1,-7.531649470E-1
7.594740756E0,6.796594262E-1,5.187996030E-1,-6.935083270E-1
7.599767580E0,6.807247400E-1,4.197269976E-1,-6.349169612E-1
7.604884819E0,6.828553081E-1,3.249155581E-1,-5.773909688E-1
7.609818414E0,6.796594262E-1,2.450182885E-1,-5.358443856E-1
7.614920706E0,6.679411530E-1,1.821657717E-1,-5.070813298E-1
7.619911176E0,6.466352344E-1,1.555333585E-1,-4.666000605E-1
7.625004873E0,6.200028062E-1,1.629904360E-1,-4.197269976E-1
7.630156802E0,5.816521049E-1,2.002758235E-1,-3.803110123E-1
7.635129249E0,5.219954848E-1,2.652589381E-1,-3.451561928E-1
7.640058053E0,4.335758388E-1,3.323726356E-1,-3.100014031E-1
7.645266542E0,3.206543922E-1,4.037475288E-1,-2.684548199E-1
7.650305502E0,1.842963696E-1,4.687306583E-1,-2.130593807E-1
7.655244355E0,2.982831374E-2,5.134730935E-1,-1.427497864E-1
7.660215815E0,-1.363580078E-1,5.379749537E-1,-6.391781569E-2
7.665342481E0,-3.068055212E-1,5.305178761E-1,1.491415687E-2
7.670392743E0,-4.761877358E-1,4.857754111E-1,9.481142461E-2
7.675459253E0,-6.370475888E-1,4.080087245E-1,1.704475135E-1
7.680376078E0,-7.861891389E-1,3.142625988E-1,2.418224066E-1
7.685710244E0,-9.321348071E-1,2.130593807E-1,2.940219641E-1
7.690563839E0,-1.080211043E0,1.033338010E-1,3.185237944E-1
7.695608578E0,-1.199524403E0,9.587672539E-3,3.696580231E-1
7.700552955E0,-1.291139841E0,-7.457078248E-2,4.378370345E-1
7.705630558E0,-1.362514734E0,-1.629904360E-1,5.038854480E-1
7.710619987E0,-1.418975472E0,-2.407571077E-1,5.688685775E-1
7.715746080E0,-1.461587429E0,-2.982831299E-1,6.274598837E-1
7.720694259E0,-1.489285111E0,-3.366338313E-1,6.753982306E-1
7.725870196E0,-1.499938130E0,-3.515479863E-1,7.137489319E-1
7.730632072E0,-1.491415739E0,-3.387644291E-1,7.499690652E-1
7.735878791E0,-1.459456801E0,-2.918913662E-1,7.819279432E-1
7.740855094E0,-1.410453200E0,-2.333000302E-1,8.138868809E-1
7.745937177E0,-1.351861835E0,-1.640557349E-1,8.458457589E-1
7.750932074E0,-1.281552196E0,-8.309315890E-2,8.724781871E-1
7.756063272E0,-1.209112048E0,0.000000000E0,8.937841058E-1
7.761019940E0,-1.140933037E0,5.433014408E-2,9.033718109E-1
7.766145617E0,-1.062101007E0,7.350549102E-2,8.831311464E-1
7.771114680E0,-9.726160765E-1,4.793836176E-2,8.298662901E-1
7.776182857E0,-8.522375226E-1,0.000000000E0,7.425119877E-1
7.781186817E0,-6.999000907E-1,-5.006895587E-2,6.093498468E-1
7.786277077E0,-5.198649168E-1,-9.587672353E-2,4.570123851E-1
7.791249787E0,-3.281114697E-1,-1.384886056E-1,3.046749234E-1
7.796332078E0,-1.289009303E-1,-1.842963696E-1,1.512721628E-1
7.801331558E0,4.900366068E-2,-2.162552774E-1,-3.195890691E-3
7.806448069E0,1.981452256E-1,-2.439530045E-1,-1.544680595E-1
7.811404789E0,3.131972849E-1,-2.769772112E-1,-2.727160156E-1
7.816520049E0,3.824416101E-1,-3.121320009E-1,-3.504827023E-1
7.821485727E0,4.048128426E-1,-3.249155581E-1,-3.941598535E-1
7.826594737E0,3.824416101E-1,-2.940219641E-1,-4.016169310E-1
7.831602238E0,3.259808719E-1,-2.258429527E-1,-3.579397798E-1
7.836785571E0,2.546059787E-1,-1.257050335E-1,-2.801730931E-1
7.841649792E0,1.544680595E-1,-6.391781382E-3,-2.119940966E-1
7.846863541E0,1.597945392E-2,8.735434711E-2,-1.651210189E-1
7.851853959E0,-1.555333585E-1,1.299662292E-1,-1.235744432E-1
7.856831407E0,-3.387644291E-1,9.161553532E-2,-6.498311460E-2
7.861843596E0,-5.219954848E-1,-3.302420676E-2,5.326484796E-3
7.866966095E0,-7.030959725E-1,-1.768392920E-1,8.628904819E-2
7.871915524E0,-8.810005784E-1,-2.780424953E-1,1.800351888E-1
7.876963336E0,-1.041860461E0,-3.302420378E-1,2.759118974E-1
7.881985473E0,-1.153716564E0,-3.494173884E-1,3.558091819E-1
7.887090733E0,-1.182479620E0,-3.430256248E-1,3.984210491E-1
7.892029015E0,-1.121757627E0,-3.142625988E-1,4.005516469E-1
7.897143702E0,-9.747467041E-1,-2.460835874E-1,3.579397798E-1
7.902149537E0,-7.489037514E-1,-1.342274100E-1,2.737812996E-1
7.907291412E0,-4.847100973E-1,-2.130593872E-3,1.438150853E-1
7.912221257E0,-2.119940966E-1,1.310315281E-1,-9.587672539E-3
7.917328809E0,5.006895587E-2,2.471488863E-1,-1.608598381E-1
7.922353393E0,2.684548199E-1,2.982831299E-1,-2.897607684E-1
7.927430685E0,4.048128426E-1,2.641936541E-1,-3.962904513E-1
7.932523759E0,4.676653445E-1,1.821657717E-1,-4.474247098E-1
7.937482196E0,5.028201342E-1,1.374233067E-1,-3.898986876E-1
7.942442874E0,5.358443856E-1,1.757739931E-1,-2.237123549E-1
7.947573499E0,5.646073818E-1,2.929566503E-1,-8.522375487E-3
7.952692511E0,5.507585406E-1,4.399676323E-1,1.768392920E-1
7.957708709E0,4.516859055E-1,5.635420680E-1,2.876301706E-1
7.962586470E0,2.854995728E-1,6.349169612E-1,4.069434404E-1
7.967710376E0,9.268083423E-2,6.636800170E-1,5.582156181E-1
7.972681211E0,-1.225091442E-1,6.647452712E-1,7.212060094E-1
7.977778711E0,-3.558091819E-1,6.583535075E-1,8.937841058E-1
7.982759441E0,-5.986968875E-1,6.434393525E-1,1.047186852E0
7.988356628E0,-8.213439584E-1,6.061539650E-1,1.146259546E0
7.992847307E0,-9.939220548E-1,5.454320312E-1,1.166500092E0
7.997995952E0,-1.087668180E0,4.516859055E-1,1.115365863E0
8.002994547E0,-1.114300609E0,3.281114697E-1,9.981832504E-1
8.008036943E0,-1.115365863E0,1.768392920E-1,7.968420982E-1
8.013130486E0,-1.149455428E0,-1.917534508E-2,5.092119575E-1
8.018078923E0,-1.238940358E0,-2.567365468E-1,1.811004728E-1
8.023063299E0,-1.350796461E0,-4.879060090E-1,-1.054643989E-1
8.028160174E0,-1.415779591E0,-6.242640018E-1,-3.068055212E-1
8.033281738E0,-1.396604300E0,-6.785941720E-1,-4.250534773E-1
8.038366685E0,-1.298596978E0,-6.860512495E-1,-4.516859055E-1
8.043237520E0,-1.150520682E0,-6.466352344E-1,-3.856374919E-1
8.048355124E0,-9.736813903E-1,-5.720644593E-1,-2.439530045E-1
8.053369708E0,-7.893850207E-1,-4.751224220E-1,-5.539543927E-2
8.058403458E0,-6.157416105E-1,-3.739192188E-1,1.406191885E-1
8.063380178E0,-4.687306583E-1,-2.929566503E-1,3.259808719E-1
8.068515126E0,-3.685927391E-1,-2.173205763E-1,4.964283705E-1
8.073523513E0,-3.153278828E-1,-1.363580078E-1,6.434393525E-1
8.078582939E0,-3.185237944E-1,-8.096256852E-2,7.659484744E-1
8.083618871E0,-3.643315434E-1,-5.752603337E-2,8.618252277E-1
8.088664815E0,-4.420982301E-1,-3.835069016E-2,9.236124158E-1
8.093625285E0,-5.528891087E-1,-3.515479714E-2,9.545060396E-1
8.098747212E0,-6.828553081E-1,-5.219954997E-2,9.683549404E-1
8.103735338E0,-8.213439584E-1,-8.735434711E-2,9.640937448E-1
8.108802578E0,-9.608978629E-1,-1.342274100E-1,9.321348071E-1
8.113796850E0,-1.085537553E0,-1.874922663E-1,8.788699508E-1
8.118880235E0,-1.187806129E0,-2.460835874E-1,7.979074121E-1
8.123872372E0,-1.264507413E0,-3.195890784E-1,6.967042089E-1
8.129149090E0,-1.306053996E0,-3.941598535E-1,5.859133005E-1
8.133943519E0,-1.310315251E0,-4.655347466E-1,4.708612561E-1
8.139037164E0,-1.268768668E0,-5.337137580E-1,3.771151006E-1
8.144034040E0,-1.193132520E0,-5.901744962E-1,3.313073516E-1
8.149131696E0,-1.087668180E0,-6.391781569E-1,3.281114697E-1
8.154220604E0,-9.747467041E-1,-6.636800170E-1,3.568744659E-1
8.159219718E0,-8.778046966E-1,-6.562229395E-1,4.101393223E-1
8.164192532E0,-8.011032939E-1,-6.327863932E-1,4.751224220E-1
8.169360448E0,-7.446425557E-1,-6.029580832E-1,5.422361493E-1
8.174249720E0,-7.158795595E-1,-5.624767542E-1,6.114804149E-1
8.179454668E0,-7.116183639E-1,-5.198649168E-1,6.764635444E-1
8.184357794E0,-7.275978327E-1,-4.868406951E-1,7.371854782E-1
8.189451440E0,-7.520996332E-1,-4.783183336E-1,7.883197069E-1
8.194410920E0,-7.776667476E-1,-4.825794995E-1,8.149521351E-1
8.199755712E0,-8.021686077E-1,-4.900365770E-1,8.234745264E-1
8.204548005E0,-8.213439584E-1,-4.921671748E-1,8.202786446E-1
8.209577848E0,-8.341274858E-1,-4.900365770E-1,8.021686077E-1
8.214590610E0,-8.458457589E-1,-4.868406951E-1,7.755361795E-1
8.219707224E0,-8.533028364E-1,-4.793836176E-1,7.393160462E-1
8.224644673E0,-8.650211096E-1,-4.772530198E-1,7.009654045E-1
8.229768788E0,-8.788699508E-1,-4.953630865E-1,6.583535075E-1
8.234757018E0,-8.959147334E-1,-5.219954848E-1,6.178722382E-1
8.239827695E0,-8.980453014E-1,-5.507585406E-1,5.784562230E-1
8.244896394E0,-8.799352646E-1,-5.773909688E-1,5.507585406E-1
8.249928790E0,-8.469110727E-1,-5.965662599E-1,5.379749537E-1
8.254996083E0,-7.915156484E-1,-6.040233374E-1,5.411708355E-1
8.260066030E0,-7.201407552E-1,-6.008274555E-1,5.528891087E-1
8.264981813E0,-6.445046663E-1,-5.816521049E-1,5.805868506E-1
8.270087125E0,-5.656726956E-1,-5.454320312E-1,6.157416105E-1
8.275057022E0,-4.932324886E-1,-4.985589683E-1,6.540923119E-1
8.280168011E0,-4.282493591E-1,-4.559471011E-1,6.935083270E-1
8.286113793E0,-3.792456985E-1,-4.239881933E-1,7.158795595E-1
8.290163951E0,-3.504827023E-1,-4.058781266E-1,7.275978327E-1
8.295263117E0,-3.387644291E-1,-3.984210491E-1,7.222713232E-1
8.300255098E0,-3.355685472E-1,-4.048128426E-1,6.945735812E-1
8.305363170E0,-3.408950269E-1,-4.122699201E-1,6.540923119E-1
8.310314213E0,-3.504827023E-1,-4.218575954E-1,6.040233374E-1
8.315415619E0,-3.590050638E-1,-4.346411526E-1,5.507585406E-1
8.320551818E0,-3.611356616E-1,-4.516859055E-1,5.006895661E-1
8.325540256E0,-3.515479863E-1,-4.708612561E-1,4.548817873E-1
8.330700257E0,-3.345032334E-1,-4.857754111E-1,4.133352041E-1
8.335584736E0,-3.110667169E-1,-4.911018908E-1,3.707233369E-1
8.340582966E0,-2.833689749E-1,-4.911018908E-1,3.238502741E-1
8.345650778E0,-2.588671446E-1,-4.911018908E-1,2.716507316E-1
8.350658644E0,-2.460835874E-1,-4.857754111E-1,2.162552774E-1
8.355749686E0,-2.354306281E-1,-4.815142155E-1,1.597945392E-1
8.360747604E0,-2.258429527E-1,-4.815142155E-1,1.054643989E-1
8.365859270E0,-2.141246796E-1,-4.751224220E-1,5.752603337E-2
8.370602188E0,-2.045370042E-1,-4.548817873E-1,1.491415687E-2
8.375910469E0,-1.960146427E-1,-4.005516469E-1,-2.663242258E-2
8.380960991E0,-1.779045910E-1,-3.366338313E-1,-7.350549102E-2
8.385989897E0,-1.416844875E-1,-2.897607684E-1,-1.395539045E-1
8.391087711E0,-9.161553532E-2,-2.556712627E-1,-2.247776538E-1
8.396047294E0,-2.343653329E-2,-2.119940966E-1,-3.174584806E-1
8.401093701E0,5.646073818E-2,-1.480762810E-1,-4.026822448E-1
8.406140784E0,1.395539045E-1,-6.391781569E-2,-4.729918540E-1
8.411121150E0,2.396918088E-1,4.154657945E-2,-5.326484442E-1
8.416263546E0,3.675274551E-1,1.534027606E-1,-5.816521049E-1
8.421223235E0,5.166690350E-1,2.588671446E-1,-6.274598837E-1
8.426296932E0,6.839206219E-1,3.398297131E-1,-6.764635444E-1
8.431299173E0,8.682169914E-1,4.069434404E-1,-7.201407552E-1
8.436527819E0,1.059970498E0,4.783183336E-1,-7.584913969E-1
8.441397924E0,1.244266868E0,5.550196767E-1,-7.904503345E-1
8.446441674E0,1.416844964E0,6.498311162E-1,-8.138868809E-1
8.451460217E0,1.571313024E0,7.787320614E-1,-8.277357221E-1
8.456596206E0,1.714062810E0,9.278736115E-1,-8.319969177E-1
8.461515270E0,1.840833068E0,1.052513361E0,-8.330622315E-1
8.466624436E0,1.942036271E0,1.139867663E0,-8.383886814E-1
8.471607458E0,2.013411283E0,1.202720284E0,-8.458457589E-1
8.476691989E0,2.067741394E0,1.226156831E0,-8.437151909E-1
8.481680272E0,2.105026722E0,1.204850793E0,-8.213439584E-1
8.486856678E0,2.128463268E0,1.132410645E0,-7.947115302E-1
8.491778658E0,2.143377542E0,9.981832504E-1,-7.829932570E-1
8.496885221E0,2.146573305E0,7.883197069E-1,-7.957767844E-1
8.502006420E0,2.146573305E0,4.974936545E-1,-8.362581134E-1
8.506921159E0,2.132724524E0,1.523374617E-1,-8.959147334E-1
8.511901212E0,2.105026722E0,-1.949493438E-1,-9.800731540E-1
8.517024389E0,2.065610647E0,-5.017548800E-1,-1.083406925E0
8.522000797E0,2.014476538E0,-7.531649470E-1,-1.194197893E0
8.527150536E0,1.960146308E0,-9.545060396E-1,-1.291139841E0
8.532121267E0,1.904750943E0,-1.112169981E0,-1.375298381E0
8.536957568E0,1.856812596E0,-1.221895576E0,-1.445607901E0
8.542168507E0,1.823788404E0,-1.278356314E0,-1.496742249E0
8.547267048E0,1.803547740E0,-1.282617569E0,-1.526570559E0
8.552547831E0,1.785437703E0,-1.222960830E0,-1.532962322E0
8.557427310E0,1.757739902E0,-1.120692372E0,-1.518048167E0
8.562319030E0,1.732172847E0,-9.694201946E-1,-1.494611621E0
8.567562988E0,1.701279163E0,-7.478384376E-1,-1.479697466E0
8.572401687E0,1.660797954E0,-4.772530198E-1,-1.461587429E0
8.577487572E0,1.611794233E0,-1.853616685E-1,-1.456260920E0
8.582216688E0,1.555333495E0,1.065296903E-1,-1.469044447E0
8.587630125E0,1.493546247E0,3.973557651E-1,-1.475436211E0
8.592567887E0,1.420040846E0,6.785941720E-1,-1.457326174E0
8.597694970E0,1.357188344E0,9.321348071E-1,-1.427497864E0
8.602669086E0,1.309249878E0,1.139867663E0,-1.377428889E0
8.607711638E0,1.263442159E0,1.296466351E0,-1.316707015E0
8.612694139E0,1.217634439E0,1.411518455E0,-1.245332122E0
8.617843878E0,1.167565465E0,1.472240329E0,-1.164369583E0
8.622803984E0,1.114300609E0,1.485023975E0,-1.077015162E0
8.627990494E0,1.063166380E0,1.451999664E0,-9.843343496E-1
8.632980131E0,1.012032032E0,1.384886026E0,-9.012411833E-1
8.638045808E0,9.704855084E-1,1.300727606E0,-8.138868809E-1
8.643136486E0,9.300042391E-1,1.218699694E0,-7.275978327E-1
8.648078934E0,8.948494196E-1,1.139867663E0,-6.508964300E-1
8.653032268E0,8.607599139E-1,1.058905125E0,-5.837827325E-1
8.658133987E0,8.170827627E-1,9.768772721E-1,-5.273219943E-1
8.663186123E0,7.808626294E-1,8.820658922E-1,-4.772530198E-1
8.668283095E0,7.467731237E-1,7.595567107E-1,-4.410329461E-1
8.673188312E0,7.201407552E-1,6.157416105E-1,-4.197269976E-1
8.678387791E0,6.967042089E-1,4.623388648E-1,-4.026822448E-1
8.683024927E0,6.817900538E-1,3.206543922E-1,-3.994863629E-1
8.688450708E0,6.711370945E-1,2.119940966E-1,-4.069434404E-1
8.693352324E0,6.583535075E-1,1.342274100E-1,-4.239881933E-1
8.698437220E0,6.402434707E-1,9.587672353E-2,-4.367717505E-1
8.703425607E0,6.104151607E-1,9.587672353E-2,-4.367717505E-1
8.708508575E0,5.560849905E-1,1.214438528E-1,-4.271840751E-1
8.713472118E0,4.900365770E-1,1.661863178E-1,-3.930945694E-1
8.718634878E0,4.037475288E-1,2.290388346E-1,-3.323726356E-1
8.723586442E0,2.897607684E-1,3.025443256E-1,-2.535406649E-1
8.728664983E0,1.470109820E-1,3.728539348E-1,-1.725780964E-1
8.733725610E0,-1.065296959E-2,4.197269976E-1,-8.628904819E-2
8.738735661E0,-1.800351888E-1,4.271840751E-1,3.195890691E-3
8.743725975E0,-3.558091819E-1,3.845722079E-1,8.096256852E-2
8.748858735E0,-5.294525623E-1,3.089361191E-1,1.502068639E-1
8.753860768E0,-6.913776994E-1,2.194511741E-1,2.194511741E-1
8.758921028E0,-8.426498771E-1,1.257050335E-1,2.865648866E-1
8.763869727E0,-9.779425859E-1,3.728539124E-2,3.355685472E-1
8.768999935E0,-1.091929317E0,-4.580776766E-2,3.760498166E-1
8.774008895E0,-1.187806129E0,-1.161173657E-1,4.229228795E-1
8.779093999E0,-1.254919767E0,-1.725780964E-1,4.729918540E-1
8.784144104E0,-1.304988742E0,-2.279735506E-1,5.134730935E-1
8.789154989E0,-1.336947680E0,-2.705854177E-1,5.539544225E-1
8.794183949E0,-1.347600579E0,-2.961525619E-1,6.029580832E-1
8.799212334E0,-1.342274189E0,-3.110667169E-1,6.413087845E-1
8.804298117E0,-1.314576387E0,-2.993484437E-1,6.647452712E-1
8.809298012E0,-1.267703295E0,-2.737812996E-1,6.817900538E-1
8.814283795E0,-1.200589657E0,-2.343653291E-1,7.052266002E-1
8.819402701E0,-1.119627118E0,-1.800351888E-1,7.158795595E-1
8.824477910E0,-1.034403324E0,-1.278356314E-1,7.126836777E-1
8.829496712E0,-9.470489621E-1,-7.137489319E-2,6.999000907E-1
8.834624578E0,-8.607599139E-1,-1.917534508E-2,6.785941720E-1
8.839527807E0,-7.659484744E-1,6.391781382E-3,6.477005482E-1
8.844614006E0,-6.626147032E-1,0.000000000E0,5.976315737E-1
8.849637443E0,-5.390402675E-1,-2.343653329E-2,5.251913667E-1
8.854610882E0,-3.824416101E-1,-5.326484516E-2,4.303799570E-1
8.859861559E0,-2.034717202E-1,-6.498311460E-2,3.131972849E-1
8.864703279E0,-2.024064213E-2,-5.965662748E-2,1.949493438E-1
8.869782549E0,1.470109820E-1,-6.178722158E-2,8.415845782E-2
8.874769634E0,2.791078091E-1,-6.072192639E-2,-2.556712553E-2
8.879839946E0,3.760498166E-1,-6.178722158E-2,-1.331621110E-1
8.884850468E0,4.346411526E-1,-6.285251677E-2,-2.354306281E-1
8.889979739E0,4.495553076E-1,-6.391781569E-2,-3.376991153E-1
8.894985150E0,4.207922816E-1,-7.989726961E-2,-4.058781266E-1
8.900205677E0,3.590050638E-1,-1.171826646E-1,-4.399676323E-1
8.905023595E0,2.759118974E-1,-1.331621110E-1,-4.516859055E-1
8.910103908E0,1.779045910E-1,-1.171826646E-1,-4.538165033E-1
8.915165263E0,5.326484516E-2,-1.193132550E-1,-4.527511895E-1
8.920359377E0,-9.800732136E-2,-1.395539045E-1,-4.410329461E-1
8.925170160E0,-2.524753809E-1,-1.384886056E-1,-4.090740085E-1
8.930275524E0,-4.037475288E-1,-1.065296903E-1,-3.675274551E-1
8.935250578E0,-5.422361493E-1,-9.374613315E-2,-3.355685472E-1
8.940393650E0,-6.658105850E-1,-1.161173657E-1,-3.036096394E-1
8.945317454E0,-7.883197069E-1,-1.597945392E-1,-2.663242221E-1
8.950468339E0,-9.193512797E-1,-2.087981999E-1,-2.151899785E-1
8.955428757E0,-1.052513361E0,-2.396918088E-1,-1.512721628E-1
8.960502350E0,-1.187806129E0,-2.450182885E-1,-6.285251677E-2
8.965490476E0,-1.301792860E0,-2.450182885E-1,4.580776766E-2
8.970586257E0,-1.363580108E0,-2.567365468E-1,1.661863178E-1
8.975551154E0,-1.326294661E0,-2.460835874E-1,2.769772112E-1
8.980652196E0,-1.160108328E0,-1.374233067E-1,3.078708053E-1
8.985659020E0,-8.980453014E-1,8.202786744E-2,2.173205763E-1
8.990886884E0,-6.050886512E-1,3.345032334E-1,6.498311460E-2
8.995826886E0,-2.929566503E-1,5.379749537E-1,-4.367717355E-2
9.000842667E0,3.515479714E-2,6.743329763E-1,-1.043990999E-1
9.005829230E0,3.238502741E-1,7.073571682E-1,-1.523374617E-1
9.010924387E0,5.496932268E-1,6.349169612E-1,-1.800351888E-1
9.015924075E0,7.094877362E-1,5.347790718E-1,-1.246397421E-1
9.020971939E0,8.245398402E-1,4.879060090E-1,3.728539124E-2
9.025954805E0,9.023064971E-1,4.911018908E-1,2.578018606E-1
9.031066420E0,9.246777296E-1,5.219954848E-1,4.634041786E-1
9.036072567E0,8.522375226E-1,5.688685775E-1,5.709991455E-1
9.041227098E0,6.636800170E-1,5.976315737E-1,6.061539650E-1
9.046211943E0,3.930945694E-1,5.944356918E-1,6.775288582E-1
9.051272047E0,6.924430281E-2,5.709991455E-1,7.712749839E-1
9.056409548E0,-2.972178459E-1,5.134730935E-1,8.756740689E-1
9.061467777E0,-6.849859357E-1,4.154658020E-1,9.864649773E-1
9.066332257E0,-1.045056343E0,2.854995728E-1,1.066362262E0
9.071438715E0,-1.322033525E0,1.384886056E-1,1.053578615E0
9.076363717E0,-1.464783311E0,4.474247247E-2,9.321348071E-1
9.081446112E0,-1.515917540E0,2.130593918E-2,7.094877362E-1
9.086505280E0,-1.559594750E0,-2.556712553E-2,4.271840751E-1
9.091688092E0,-1.633100152E0,-1.661863178E-1,1.672516167E-1
9.096585281E0,-1.698083282E0,-3.462215066E-1,-1.491415687E-2
9.101624604E0,-1.695952773E0,-4.697959423E-1,-1.257050335E-1
9.106611011E0,-1.592618942E0,-5.422361493E-1,-1.757739931E-1
9.111682417E0,-1.393408418E0,-5.816521049E-1,-1.523374617E-1
9.116673564E0,-1.135606527E0,-5.752603412E-1,-6.285251677E-2
9.121810231E0,-8.479763865E-1,-5.241261125E-1,6.604841352E-2
9.126850180E0,-5.709991455E-1,-4.335758388E-1,2.141246796E-1
9.131943669E0,-3.366338313E-1,-3.195890784E-1,3.653968573E-1
9.136931171E0,-1.725780964E-1,-1.928187460E-1,5.113425255E-1
9.141966951E0,-9.481142461E-2,-6.604841352E-2,6.349169612E-1
9.146903828E0,-9.800732136E-2,4.900366068E-2,7.244018912E-1
9.152021119E0,-1.683169156E-1,1.320968270E-1,7.702096701E-1
9.157034037E0,-2.961525619E-1,1.651210189E-1,7.744708657E-1
9.162098464E0,-4.772530198E-1,1.619251370E-1,7.542302012E-1
9.167110236E0,-6.988347769E-1,1.342274100E-1,7.222713232E-1
9.171940392E0,-9.332001209E-1,7.883197069E-2,6.977695227E-1
9.177144820E0,-1.156912446E0,3.195890691E-3,6.817900538E-1
9.182265914E0,-1.344404697E0,-1.012032107E-1,6.668758988E-1
9.187067842E0,-1.477566838E0,-2.290388346E-1,6.423740387E-1
9.192308259E0,-1.555333495E0,-3.547438681E-1,6.050886512E-1
9.197340708E0,-1.568117142E0,-4.495553076E-1,5.614115000E-1
9.202410135E0,-1.530831695E0,-5.038854480E-1,5.273219943E-1
9.207470865E0,-1.450934410E0,-5.209302306E-1,5.017548800E-1
9.212528209E0,-1.331621170E0,-5.166690350E-1,4.942977726E-1
9.217488262E0,-1.184610248E0,-5.113425255E-1,5.134730935E-1
9.222575918E0,-1.025880933E0,-5.177342892E-1,5.507585406E-1
9.227587950E0,-8.682169914E-1,-5.315831900E-1,5.901744962E-1
9.232633106E0,-7.435772419E-1,-5.369096398E-1,6.168069243E-1
9.237657743E0,-6.562229395E-1,-5.369096398E-1,6.413087845E-1
9.242720347E0,-6.061539650E-1,-5.379749537E-1,6.594188213E-1
9.247713421E0,-5.912398100E-1,-5.496932268E-1,6.743329763E-1
9.252850088E0,-5.976315737E-1,-5.688685775E-1,6.828553081E-1
9.257790922E0,-6.242640018E-1,-5.933703780E-1,6.849859357E-1
9.262877953E0,-6.647452712E-1,-6.210681200E-1,6.860512495E-1
9.267879621E0,-7.084224820E-1,-6.317210793E-1,6.817900538E-1
9.272993735E0,-7.542302012E-1,-6.306557655E-1,6.753982306E-1
9.277975455E0,-7.968420982E-1,-6.253293157E-1,6.711370945E-1
9.283194986E0,-8.319969177E-1,-6.253293157E-1,6.636800170E-1
9.288097436E0,-8.490416408E-1,-6.381128430E-1,6.519617438E-1
9.293130456E0,-8.501069546E-1,-6.572881937E-1,6.381128430E-1
9.298089832E0,-8.266704082E-1,-6.785941720E-1,6.178722382E-1
9.303211134E0,-7.883197069E-1,-6.924430132E-1,5.923051238E-1
9.308202073E0,-7.425119877E-1,-6.903123856E-1,5.614115000E-1
9.313261760E0,-6.988347769E-1,-6.785941720E-1,5.369096398E-1
9.318263897E0,-6.647452712E-1,-6.594188213E-1,5.187996030E-1
9.323430199E0,-6.349169612E-1,-6.349169612E-1,5.124078393E-1
9.328371190E0,-6.136110425E-1,-6.093498468E-1,5.187996030E-1
9.333487439E0,-5.955010056E-1,-5.795215368E-1,5.326484442E-1
9.338449003E0,-5.891091824E-1,-5.464973450E-1,5.518237948E-1
9.343520305E0,-5.816521049E-1,-5.145384073E-1,5.731297731E-1
9.348493692E0,-5.741950274E-1,-4.889712930E-1,5.933703780E-1
9.353695202E0,-5.646073818E-1,-4.772530198E-1,6.082845330E-1
9.358600516E0,-5.560849905E-1,-4.868406951E-1,6.200028062E-1
9.363700619E0,-5.464973450E-1,-5.028201342E-1,6.253293157E-1
9.368695517E0,-5.358443856E-1,-5.219954848E-1,6.231986880E-1
9.373784943E0,-5.198649168E-1,-5.464973450E-1,6.114804149E-1
9.378743226E0,-5.017548800E-1,-5.709991455E-1,5.891091824E-1
9.383837184E0,-4.836448133E-1,-5.997622013E-1,5.709991455E-1
9.388824164E0,-4.623388648E-1,-6.327863932E-1,5.475625992E-1
9.393897081E0,-4.378370345E-1,-6.690064669E-1,5.187996030E-1
9.400093904E0,-4.101393223E-1,-7.084224820E-1,4.921671748E-1
9.403953176E0,-3.781804144E-1,-7.382507920E-1,4.719265401E-1
9.409063384E0,-3.504827023E-1,-7.542302012E-1,4.612735808E-1
9.414099316E0,-3.206543922E-1,-7.542302012E-1,4.538165033E-1
9.419123177E0,-2.972178459E-1,-7.403813601E-1,4.399676323E-1
9.424143960E0,-2.705854177E-1,-7.158795595E-1,4.271840751E-1
9.429196251E0,-2.439530045E-1,-6.732676625E-1,4.080087245E-1
9.434173388E0,-2.215817571E-1,-6.093498468E-1,3.803110123E-1
9.439289325E0,-2.045370042E-1,-5.337137580E-1,3.366338313E-1
9.444261774E0,-1.906881481E-1,-4.548817873E-1,2.663242221E-1
9.449351253E0,-1.789698899E-1,-3.685927391E-1,1.651210189E-1
9.454400161E0,-1.576639414E-1,-2.844342887E-1,3.941598535E-2
9.459452140E0,-1.289009303E-1,-2.109287977E-1,-9.694202244E-2
9.464404641E0,-9.481142461E-2,-1.470109820E-1,-2.183858752E-1
9.469530838E0,-5.646073818E-2,-8.415845782E-2,-3.100014031E-1
9.474491100E0,1.065296936E-3,-2.130593918E-2,-3.781804144E-1
9.479573756E0,9.161553532E-2,3.941598535E-2,-4.474247098E-1
9.484654070E0,2.119940966E-1,8.948494494E-2,-5.262566805E-1
9.489685580E0,3.558091819E-1,1.299662292E-1,-6.082845330E-1
9.494659071E0,5.092119575E-1,1.768392920E-1,-6.839206219E-1
9.499957091E0,6.615493894E-1,2.418224066E-1,-7.510343194E-1
9.504772509E0,8.202786446E-1,3.323726356E-1,-8.138868809E-1
9.509984488E0,9.960526228E-1,4.335758388E-1,-8.692823052E-1
9.514856625E0,1.178218365E0,5.347790718E-1,-9.246777296E-1
9.519909958E0,1.348665953E0,6.317210793E-1,-9.694201946E-1
9.524897668E0,1.499938130E0,7.052266002E-1,-9.992485046E-1
9.530006001E0,1.627773762E0,7.552955151E-1,-1.023750305E0
9.534973971E0,1.737499356E0,7.872544527E-1,-1.049317479E0
9.540084074E0,1.834441304E0,8.330622315E-1,-1.065296888E0
9.545042617E0,1.922860980E0,8.927188516E-1,-1.054643989E0
9.550130534E0,2.016607046E0,9.246777296E-1,-1.002444386E0
9.555137723E0,2.127398014E0,9.023064971E-1,-9.140247703E-1
9.560220847E0,2.252037764E0,8.202786446E-1,-8.213439584E-1
9.565194494E0,2.385199785E0,6.711370945E-1,-7.499690652E-1
9.570316473E0,2.490664244E0,4.357064366E-1,-6.977695227E-1
9.575318766E0,2.565235138E0,1.193132550E-1,-6.540923119E-1
9.580376318E0,2.614238739E0,-2.418224066E-1,-6.487658620E-1
9.585377309E0,2.634479284E0,-6.018927693E-1,-6.743329763E-1
9.590509132E0,2.636610031E0,-9.257430434E-1,-7.148142457E-1
9.595446841E0,2.625957012E0,-1.178218365E0,-7.734055519E-1
9.600530122E0,2.608912230E0,-1.344404697E0,-8.426498771E-1
9.605527884E0,2.575887918E0,-1.431759119E0,-9.193512797E-1
9.610611582E0,2.522623062E0,-1.444542646E0,-9.885955453E-1
9.615622729E0,2.449117661E0,-1.385951281E0,-1.068492770E0
9.620710489E0,2.360697985E0,-1.268768668E0,-1.164369583E0
9.625752678E0,2.257364273E0,-1.103647590E0,-1.258115649E0
9.630789761E0,2.152965069E0,-9.172206521E-1,-1.349731207E0
9.635957210E0,2.052827120E0,-7.158795595E-1,-1.426432610E0
9.640997887E0,1.955885172E0,-4.942977726E-1,-1.483958602E0
9.645869086E0,1.868530869E0,-2.588671446E-1,-1.537223458E0
9.650957419E0,1.795025349E0,-3.195890784E-2,-1.606467724E0
9.655967368E0,1.719389200E0,1.874922663E-1,-1.683169127E0
9.661036847E0,1.637361407E0,4.080087245E-1,-1.763066411E0
9.666027682E0,1.557464123E0,6.157416105E-1,-1.839767814E0
9.671260390E0,1.486089230E0,7.979074121E-1,-1.886640906E0
9.676140651E0,1.413649082E0,9.395918846E-1,-1.893032670E0
9.681207370E0,1.340143561E0,1.041860461E0,-1.861073732E0
9.686227215E0,1.263442159E0,1.108974099E0,-1.801417112E0
9.691342579E0,1.184610248E0,1.159043074E0,-1.730042219E0
9.696278258E0,1.105778217E0,1.202720284E0,-1.645883799E0
9.701406226E0,1.031207442E0,1.227222085E0,-1.548941731E0
9.706371540E0,9.598325491E-1,1.227222085E0,-1.448803782E0
9.711465394E0,9.023064971E-1,1.206981421E0,-1.356122971E0
9.716532582E0,8.469110727E-1,1.161173701E0,-1.276225686E0
9.721616124E0,8.011032939E-1,1.088733435E0,-1.215503812E0
9.726534511E0,7.659484744E-1,1.003509760E0,-1.162238955E0
9.731591854E0,7.371854782E-1,9.076330066E-1,-1.120692372E0
9.736575397E0,7.148142457E-1,7.947115302E-1,-1.077015162E0
9.741673626E0,6.967042089E-1,6.700717807E-1,-1.041860461E0
9.746672846E0,6.796594262E-1,5.401055217E-1,-1.008836150E0
9.751795189E0,6.668758988E-1,4.112046063E-1,-9.758120179E-1
9.756773628E0,6.498311162E-1,3.014790416E-1,-9.513101578E-1
9.761825555E0,6.285251975E-1,2.322347313E-1,-9.427877665E-1
9.766819671E0,6.125457287E-1,2.311694324E-1,-9.172206521E-1
9.772041650E0,5.933703780E-1,2.705854177E-1,-8.841964602E-1
9.776879047E0,5.592808723E-1,3.110667169E-1,-8.426498771E-1
9.782118630E0,5.113425255E-1,3.643315434E-1,-7.776667476E-1
9.787139881E0,4.538165033E-1,4.303799570E-1,-6.903123856E-1
9.792163787E0,3.877680898E-1,5.049507618E-1,-5.880439281E-1
9.797110351E0,2.993484437E-1,5.592808723E-1,-4.857754111E-1
9.802465194E0,1.917534471E-1,5.933703780E-1,-3.813762963E-1
9.807180612E0,8.415845782E-2,6.168069243E-1,-2.716507316E-1
9.812210039E0,-2.663242258E-2,6.104151607E-1,-1.608598381E-1
9.817269520E0,-1.406191885E-1,5.678032637E-1,-6.072192639E-2
9.822333738E0,-2.503447831E-1,4.953630865E-1,3.728539124E-2
9.827330458E0,-3.515479863E-1,4.069434404E-1,1.363580078E-1
9.832378843E0,-4.431635141E-1,3.259808719E-1,2.322347313E-1
9.837427438E0,-5.198649168E-1,2.599324584E-1,3.249155581E-1
9.842588167E0,-5.901744962E-1,1.970799267E-1,4.144005179E-1
9.847433533E0,-6.562229395E-1,1.438150853E-1,4.900365770E-1
9.852545043E0,-7.244018912E-1,9.694202244E-2,5.550196767E-1
9.857530409E0,-8.053644896E-1,4.154657945E-2,6.125457287E-1
9.862618482E0,-8.937841058E-1,-1.384885982E-2,6.572881937E-1
9.867694837E0,-9.811384678E-1,-5.965662748E-2,7.052266002E-1
9.872789472E0,-1.057839870E0,-9.907261282E-2,7.606220245E-1
9.877695099E0,-1.132410645E0,-1.299662292E-1,8.096256852E-1
9.882793171E0,-1.196328402E0,-1.576639414E-1,8.522375226E-1
9.887792964E0,-1.245332122E0,-1.683169156E-1,8.863270283E-1
9.892921193E0,-1.274095178E0,-1.651210189E-1,9.129594564E-1
9.897849111E0,-1.274095178E0,-1.416844875E-1,9.332001209E-1
9.902977861E0,-1.235744476E0,-9.694202244E-2,9.406571984E-1
9.907688539E0,-1.167565465E0,-3.302420676E-2,9.395918846E-1
9.913036924E0,-1.073819280E0,3.728539124E-2,9.289389253E-1
9.918037394E0,-9.662243128E-1,1.012032107E-1,9.076330066E-1
9.923138956E0,-8.618252277E-1,1.523374617E-1,8.714128733E-1
9.928125468E0,-7.702096701E-1,1.747086942E-1,8.085603714E-1
9.933189530E0,-6.892471313E-1,1.779045910E-1,7.180101275E-1
9.938191302E0,-6.061539650E-1,1.683169156E-1,6.093498468E-1
9.943458073E0,-5.060160160E-1,1.576639414E-1,4.889712930E-1
9.948241668E0,-3.867027760E-1,1.608598381E-1,3.781804144E-1
9.953336928E0,-2.503447831E-1,1.853616685E-1,2.791078091E-1
9.958314586E0,-1.150520667E-1,2.173205763E-1,1.896228492E-1
9.963398856E0,1.065296959E-2,2.375612110E-1,1.139867753E-1
9.968414899E0,1.161173657E-1,2.151899785E-1,5.965662748E-2
9.973488909E0,1.821657717E-1,1.438150853E-1,2.237123623E-2
9.978503286E0,1.960146427E-1,3.515479714E-2,-3.195890691E-3
9.983715837E0,1.587292403E-1,-8.628904819E-2,-1.811004803E-2
9.988589745E0,9.268083423E-2,-1.757739931E-1,-9.587672539E-3
9.993678234E0,-7.457078435E-3,-2.396918088E-1,-4.261187743E-3
9.998641673E0,-1.480762810E-1,-3.068055212E-1,-5.326484796E-3
1.000375292E1,-3.014790416E-1,-3.813762963E-1,1.384885982E-2
1.000874975E1,-4.538165033E-1,-4.506205916E-1,5.965662748E-2
1.001384141E1,-6.061539650E-1,-4.942977726E-1,1.246397421E-1
1.001899303E1,-7.520996332E-1,-4.996242523E-1,1.992105246E-1
1.002397912E1,-8.831311464E-1,-4.825794995E-1,2.652589381E-1
1.002887923E1,-9.768772721E-1,-4.495553076E-1,3.259808719E-1
1.003397277E1,-1.035468578E0,-3.930945694E-1,3.856374919E-1
1.003895798E1,-1.068492770E0,-3.100014031E-1,4.506205916E-1
1.004413845E1,-1.094059944E0,-2.045370042E-1,5.305178761E-1
1.004903808E1,-1.113235354E0,-1.054643989E-1,6.274598837E-1
1.005414522E1,-1.095125198E0,-4.261187837E-2,7.137489319E-1
1.005918621E1,-1.019489169E0,-1.491415687E-2,7.542302012E-1
