"Time (s)","Acceleration x (m/s^2)","Acceleration y (m/s^2)","Acceleration z (m/s^2)"
0.000000000E0,1.142034173E0,6.628347397E0,7.896077156E0
1.509150000E-2,9.995791912E-1,6.385335922E0,8.289923668E0
2.498950000E-2,9.600749016E-1,6.238092422E0,8.236053467E0
3.495050000E-2,5.829881430E-1,6.265625954E0,8.190564156E0
4.508550000E-2,4.034229815E-1,6.038176537E0,8.414422035E0
5.507950000E-2,5.518634915E-1,6.007051945E0,7.752425194E0
6.498150000E-2,4.477157295E-1,5.963956356E0,7.538144112E0
7.505250000E-2,2.861070931E-1,5.929240704E0,7.571662903E0
8.496250000E-2,3.890577853E-1,5.980715752E0,7.766790390E0
9.512550000E-2,6.248866320E-1,5.990292549E0,7.922413349E0
1.051135000E-1,9.337386489E-1,6.032191277E0,7.911639690E0
1.149915000E-1,1.100135684E0,6.180631638E0,8.214506149E0
1.249425000E-1,8.954314590E-1,6.232107162E0,8.801085472E0
1.350635000E-1,4.979939461E-1,5.950788498E0,8.892065048E0
1.450415000E-1,2.059013397E-1,5.473145008E0,8.467094421E0
1.551135000E-1,-1.795651205E-2,5.049371243E0,7.814674377E0
1.649975000E-1,-7.302315533E-2,4.886565685E0,7.425616741E0
1.749935000E-1,-4.548983276E-2,4.922478676E0,7.507019520E0
1.850665000E-1,2.118868530E-1,5.189432144E0,7.661445618E0
1.950605000E-1,5.171475410E-1,5.489904404E0,7.874529362E0
2.050425000E-1,6.057330370E-1,5.474342346E0,8.135497093E0
2.152095000E-1,5.662286878E-1,5.295974255E0,8.312667847E0
2.250655000E-1,3.280056417E-1,5.110423565E0,8.462306023E0
2.351485000E-1,-4.309563041E-1,4.774038315E0,8.489839554E0
2.450865000E-1,-6.751648784E-1,4.596867085E0,8.652645111E0
2.550065000E-1,-8.391677141E-1,4.404133797E0,9.046490669E0
2.653015000E-1,-8.906430602E-1,4.222174644E0,9.449913979E0
2.750255000E-1,-9.026140571E-1,4.022258759E0,9.758766174E0
2.850215000E-1,-8.942343593E-1,3.861847401E0,9.740809441E0
2.950615000E-1,-9.193734527E-1,4.024652958E0,9.479841232E0
3.050445000E-1,-9.457096457E-1,4.079719543E0,9.135076523E0
3.151145000E-1,-9.121908545E-1,4.113238335E0,8.811859131E0
3.249965000E-1,-1.246181965E0,3.788824081E0,8.711302757E0
3.351095000E-1,-1.173158884E0,3.703830004E0,8.355764389E0
3.450195000E-1,-1.365892053E0,3.623624325E0,8.615534782E0
3.550895000E-1,-1.428141356E0,3.529053211E0,9.107542992E0
3.650035000E-1,-1.310825467E0,3.499125719E0,9.464279175E0
3.750845000E-1,-1.290474772E0,3.459621429E0,9.993397713E0
3.850105000E-1,-1.313219666E0,3.433285236E0,1.075475407E1
3.952535000E-1,-1.108515382E0,3.384204149E0,1.115817738E1
4.049805000E-1,-1.045069098E0,3.232172251E0,1.079425812E1
4.150525000E-1,-1.261744261E0,3.059789658E0,1.002931118E1
4.249885000E-1,-1.613691926E0,2.898181200E0,9.412803650E0
4.353875000E-1,-1.660378933E0,2.923320293E0,8.747216225E0
4.451665000E-1,-1.788468719E0,2.855085611E0,8.318654060E0
4.550995000E-1,-1.796848416E0,2.840720415E0,8.090007782E0
4.650065000E-1,-1.146822572E0,4.003105164E0,6.560112476E0
4.751385000E-1,-7.003039718E-1,4.030638695E0,6.574477673E0
4.849595000E-1,-1.046266198E0,3.398569345E0,7.990648270E0
4.952055000E-1,-1.260547161E0,2.831143618E0,9.220070839E0
5.050155000E-1,-1.643619418E0,2.363077164E0,9.730035782E0
5.151045000E-1,-2.346317768E0,1.980004787E0,9.775525093E0
5.249545000E-1,-2.416946650E0,2.003946781E0,1.024718285E1
5.349815000E-1,-2.133233786E0,2.093729496E0,1.087566090E1
5.450465000E-1,-1.903390408E0,1.914164305E0,1.104086113E1
5.550065000E-1,-1.487996340E0,1.909375906E0,1.117254257E1
5.649895000E-1,-1.027112484E0,2.038662672E0,1.091516590E1
5.749875000E-1,-7.350199223E-1,2.272097349E0,9.779116631E0
5.850355000E-1,-8.391677141E-1,2.466027737E0,8.649053574E0
5.952095000E-1,-1.116895080E0,2.639607430E0,8.413225174E0
6.049905000E-1,-1.209071875E0,2.825158119E0,8.356961250E0
6.149995000E-1,-1.517923832E0,2.653972626E0,8.512583733E0
6.249775000E-1,-1.978807688E0,2.444479942E0,8.367734909E0
6.350545000E-1,-1.440112352E0,2.737769604E0,8.588001251E0
6.450575000E-1,-9.397241473E-1,2.809595585E0,9.583989143E0
6.550385000E-1,-5.470750928E-1,2.873042107E0,1.025915432E1
6.649945000E-1,-8.523358107E-1,2.470816135E0,1.029985619E1
6.750375000E-1,-1.005564690E0,2.116474390E0,1.004966164E1
6.851525000E-1,-1.216254473E0,2.157175779E0,9.819818497E0
6.950745000E-1,-1.300051570E0,1.980004787E0,9.199720383E0
7.049905000E-1,-9.576807022E-1,2.187103271E0,9.297882080E0
7.151335000E-1,-7.362170219E-1,2.351106167E0,9.562441826E0
7.250335000E-1,-7.314286232E-1,2.424129248E0,9.695320129E0
7.352115000E-1,-1.145625472E0,2.451662540E0,9.186552048E0
7.450765000E-1,-7.541735470E-2,2.851494312E0,8.370129585E0
7.553035000E-1,3.938461840E-1,3.286041737E0,8.519766808E0
7.651025000E-1,4.261679053E-1,3.263296843E0,8.571242332E0
7.750115000E-1,3.172317147E-1,3.174711466E0,8.979453087E0
7.850205000E-1,6.117185354E-1,3.518279314E0,9.005789757E0
7.950745000E-1,5.327098966E-1,3.592499733E0,8.969876289E0
8.049965000E-1,7.864952683E-1,5.190629482E0,9.459490776E0
8.150105000E-1,4.788403399E-3,4.727351189E0,1.213740540E1
8.250385000E-1,-7.158663273E-1,2.670732021E0,1.224514484E1
8.349835000E-1,1.753752708E0,4.186261654E0,9.240421295E0
8.450975000E-1,8.355764151E-1,3.508702517E0,1.056202126E1
8.550075000E-1,7.266402245E-1,3.536235809E0,1.046146393E1
8.649905000E-1,2.992752194E-1,3.751713991E0,8.949525833E0
8.750865000E-1,2.765302956E-1,3.632004023E0,7.705738068E0
8.849925000E-1,3.519476354E-1,3.796006680E0,7.803900242E0
8.949615000E-1,3.770867586E-1,3.688267708E0,7.873332500E0
9.049935000E-1,6.332663298E-1,3.803189516E0,8.136694908E0
9.150005000E-1,3.998316824E-1,3.895366192E0,8.804677010E0
9.250215000E-1,3.351882473E-2,4.029441357E0,9.591172218E0
9.350085000E-1,-5.542576909E-1,3.769670486E0,9.855731010E0
9.450405000E-1,-4.955997467E-1,3.773261786E0,9.734824181E0
9.549865000E-1,-6.045359373E-1,3.798400879E0,9.617507935E0
9.650135000E-1,-9.708487988E-1,3.806780815E0,9.479841232E0
9.751115000E-1,-1.249773264E0,3.986345768E0,9.131484985E0
9.850115000E-1,-1.288080573E0,4.110844135E0,8.746018410E0
9.952755000E-1,-1.085770488E0,4.171896458E0,8.330624580E0
1.004993500E0,-7.637503147E-1,4.285621166E0,7.910442352E0
1.015256500E0,-6.715735793E-1,4.382586002E0,7.647080421E0
1.025089500E0,-5.195417404E-1,4.420893669E0,7.360973358E0
1.035098500E0,-5.363011956E-1,4.684255600E0,7.504625320E0
1.045045500E0,-3.100491166E-1,4.818330765E0,7.548917770E0
1.055016500E0,-5.506663769E-2,4.493916512E0,8.055291176E0
1.065175500E0,9.217676520E-2,4.327519417E0,8.957905769E0
1.074979500E0,2.801215947E-1,4.070142746E0,9.661801338E0
1.085013500E0,4.596867263E-1,4.162319660E0,1.039083576E1
1.095034500E0,6.691793799E-1,4.161122322E0,9.968258858E0
1.104995500E0,5.075707436E-1,4.192247391E0,9.701305389E0
1.115033500E0,3.184288144E-1,4.416105270E0,9.147047997E0
1.125070500E0,3.651157618E-1,4.595670223E0,8.695740700E0
1.135012500E0,6.751648784E-1,4.681861401E0,8.233659744E0
1.145164500E0,7.829039693E-1,4.611232281E0,8.167819023E0
1.154976500E0,6.165069342E-1,4.584896088E0,8.452729225E0
1.165169500E0,-3.507505357E-1,4.637568474E0,8.826224327E0
1.175034500E0,-7.374141216E-1,4.795586109E0,8.773551941E0
1.185089500E0,-1.029506683E0,4.948814869E0,8.658630371E0
1.194961500E0,-1.294066072E0,5.131971359E0,8.350975990E0
1.205008500E0,-1.350329757E0,5.179855347E0,7.923610687E0
1.215010500E0,-1.000776291E0,5.237316132E0,7.513004780E0
1.225070500E0,-5.877765417E-1,5.146336555E0,6.777985096E0
1.235023500E0,-7.026981711E-1,5.187037945E0,7.298723698E0
1.244986500E0,-1.136048675E0,5.475539207E0,7.580042362E0
1.254929500E0,-1.653196216E0,5.352237701E0,8.335412979E0
1.265080500E0,-2.194285870E0,5.339069843E0,8.936357498E0
1.274975500E0,-2.288856745E0,5.612008572E0,8.772355080E0
1.285050500E0,-2.173935175E0,5.772420406E0,8.197746277E0
1.295074500E0,-1.927332401E0,5.773617268E0,7.759607792E0
1.305029500E0,-2.202665567E0,5.967547894E0,7.425616741E0
1.315829500E0,-1.983596087E0,5.792770863E0,7.472303391E0
1.325017500E0,-1.912967205E0,5.791574001E0,7.611167431E0
1.334963500E0,-1.784877419E0,5.844246387E0,7.902062893E0
1.345003500E0,-1.841141105E0,5.799953461E0,8.044517517E0
1.354968500E0,-1.869871497E0,5.773617268E0,8.084021568E0
1.365044500E0,-1.971625090E0,5.701791286E0,8.020575523E0
1.375004500E0,-2.045845270E0,5.698200226E0,7.970297337E0
1.385019500E0,-2.006340981E0,5.771223068E0,7.720103264E0
1.394981500E0,-1.928529501E0,5.866991043E0,7.321468830E0
1.405008500E0,-1.887827992E0,5.872976780E0,7.145494938E0
1.415047500E0,-1.807622313E0,5.881356239E0,7.190984726E0
1.425015500E0,-1.666364431E0,5.871779442E0,7.387309551E0
1.434996500E0,-1.440112352E0,5.900510311E0,7.587224960E0
1.445008500E0,-1.361103654E0,5.878962040E0,7.641094685E0
1.454989500E0,-1.416170359E0,5.900510311E0,7.647080421E0
1.465020500E0,-1.431732655E0,5.826289654E0,8.306682587E0
1.475013500E0,-1.295263171E0,5.825092793E0,8.433575630E0
1.485017500E0,-1.165976286E0,5.864596844E0,7.463923931E0
1.495145500E0,-1.007958889E0,5.917269707E0,7.044938564E0
1.504991500E0,-1.082179189E0,5.899312973E0,6.775590897E0
1.514961500E0,-1.195903778E0,5.986701488E0,6.924031258E0
1.524972500E0,-1.326387763E0,5.997475147E0,7.254431248E0
1.534998500E0,-1.365892053E0,6.050147533E0,7.969100475E0
1.544980500E0,-1.363497853E0,6.013037682E0,8.015787125E0
1.554979500E0,-1.424550056E0,6.072892666E0,7.757213593E0
1.565075500E0,-1.495178938E0,6.139930248E0,7.533355713E0
1.575016500E0,-1.577778935E0,6.154295444E0,7.439981937E0
1.584983500E0,-1.648407817E0,6.179434776E0,7.334636688E0
1.595118500E0,-1.644816518E0,6.131550789E0,7.262810707E0
1.604995500E0,-1.456871748E0,6.100425720E0,7.247248650E0
1.615001500E0,-1.364694953E0,5.875370979E0,6.726509571E0
1.625016500E0,-1.389834046E0,5.742492676E0,8.232462883E0
1.635200500E0,-1.355118155E0,5.833472252E0,8.042123795E0
1.645023500E0,-1.248576164E0,5.847837448E0,7.372944355E0
1.655032500E0,-1.233013868E0,5.832275391E0,6.961141586E0
1.665360500E0,-1.161187768E0,5.820304394E0,7.026981831E0
1.674994500E0,-1.212663174E0,5.742492676E0,7.581239700E0
1.684984500E0,-1.502361536E0,5.756857872E0,8.090007782E0
1.698413500E0,-1.835155606E0,5.949591160E0,8.167819023E0
1.714980500E0,-2.315192938E0,6.314706802E0,7.836222172E0
1.724976500E0,-2.037465572E0,6.378153324E0,7.211335659E0
1.735207500E0,-1.361103654E0,6.309918404E0,6.557718277E0
1.744963500E0,-7.529764175E-1,6.063315868E0,6.312312603E0
1.755129500E0,-3.854664862E-1,5.799953461E0,6.645106792E0
1.764973500E0,-2.885012925E-1,5.512649536E0,7.150283337E0
1.774987500E0,-3.758896589E-1,5.230133533E0,7.465120792E0
1.784987500E0,-6.356605291E-1,5.123591423E0,7.813477039E0
1.795041500E0,-8.307880163E-1,5.165490150E0,7.734468460E0
1.805120500E0,-7.134721279E-1,5.189432144E0,7.194576263E0
1.814991500E0,-7.457938194E-1,5.204994678E0,6.833051682E0
1.824998500E0,-8.535329103E-1,5.301959515E0,6.815094948E0
1.835026500E0,-5.662286878E-1,5.020640850E0,6.907271862E0
1.844951500E0,-8.116343617E-1,4.933252811E0,7.386112213E0
1.855051500E0,-1.011550188E0,4.764461517E0,8.637083054E0
1.864988500E0,-1.112106681E0,4.862623692E0,8.968679428E0
1.875121500E0,-1.052251697E0,5.145139217E0,9.045293808E0
1.884958500E0,-1.110909581E0,5.446808815E0,8.576030731E0
1.894986500E0,-1.039083481E0,5.719748020E0,8.333019257E0
1.904975500E0,-6.991068721E-1,5.799953461E0,7.928399086E0
1.915040500E0,-3.148375154E-1,5.795165062E0,7.540538311E0
1.924997500E0,-2.549824715E-1,5.853823185E0,7.747636795E0
1.935077500E0,-3.268085420E-1,5.835866451E0,8.744821548E0
1.944970500E0,-3.866635859E-1,5.789179802E0,8.819042206E0
1.955036500E0,-3.435679376E-1,5.716156483E0,8.384494781E0
1.964959500E0,-4.118026793E-1,5.615600109E0,8.371326447E0
1.974996500E0,-5.937620401E-1,5.595249176E0,8.848969460E0
1.984953500E0,-8.104372621E-1,5.614402771E0,9.084798813E0
1.995070500E0,-8.619126081E-1,5.645527840E0,9.119514465E0
2.004983500E0,-8.607155085E-1,5.506663799E0,9.006986618E0
2.015222500E0,-6.572083831E-1,5.325901508E0,8.743624687E0
2.025001500E0,-6.763619781E-1,5.147533417E0,8.711302757E0
2.035090500E0,-7.781155705E-1,5.108029366E0,8.827422142E0
2.044990500E0,-8.834604025E-1,5.158307552E0,8.772355080E0
2.054982500E0,-8.595184088E-1,5.293580055E0,8.549694061E0
2.065123500E0,-7.661445141E-1,5.349843502E0,8.426392555E0
2.074988500E0,-7.888894677E-1,5.425261021E0,8.450334549E0
2.084974500E0,-8.774749041E-1,5.515043736E0,8.455122948E0
2.095115500E0,-7.457938194E-1,5.582081318E0,8.259995461E0
2.105013500E0,-7.086837292E-1,5.546168327E0,8.295908928E0
2.114994500E0,-7.601590157E-1,5.495890141E0,8.522160530E0
2.125166500E0,-8.954314590E-1,5.458779812E0,8.729259491E0
2.134995500E0,-9.445125461E-1,5.503072739E0,8.766369820E0
2.144967500E0,-9.026140571E-1,5.542576790E0,8.743624687E0
2.155078500E0,-9.002198577E-1,5.626373768E0,8.747216225E0
2.164989500E0,-7.673416734E-1,5.771223068E0,8.532935143E0
2.175038500E0,-6.081272364E-1,5.820304394E0,8.118738174E0
2.185033500E0,-4.764461517E-1,5.847837448E0,7.866149902E0
2.194984500E0,-5.051765442E-1,5.822698593E0,7.911639690E0
2.204976500E0,-6.404489279E-1,5.834669590E0,8.099584579E0
2.214995500E0,-7.038952708E-1,5.883750439E0,8.066065788E0
2.225036500E0,-7.386112213E-1,5.853823185E0,7.923610687E0
2.234971500E0,-9.157821536E-1,5.827486992E0,7.921216488E0
2.244984500E0,-1.085770488E0,5.832275391E0,7.967903137E0
2.254975500E0,-1.154005170E0,5.778405666E0,7.831433773E0
2.264984500E0,-1.222239971E0,5.718550682E0,7.764396191E0
2.275436500E0,-1.327584863E0,5.621585369E0,7.783549786E0
2.284981500E0,-1.414973259E0,5.538985729E0,7.795520782E0
2.295108500E0,-1.575384736E0,5.457582951E0,7.855375767E0
2.305003500E0,-1.665167332E0,5.432443619E0,7.870938301E0
2.315029500E0,-1.770512104E0,5.341464043E0,8.385691643E0
2.324999500E0,-1.877054095E0,5.443217754E0,8.546102524E0
2.335196500E0,-1.650802016E0,5.613205910E0,8.286332130E0
2.345021500E0,-1.400607944E0,5.700594425E0,7.812280178E0
2.355136500E0,-1.302445769E0,5.857414246E0,7.802703381E0
2.364999500E0,-1.233013868E0,5.979518890E0,7.971494675E0
2.375011500E0,-1.171961784E0,6.022614479E0,8.115146637E0
2.384993500E0,-1.154005170E0,6.007051945E0,8.104372978E0
2.395113500E0,-1.085770488E0,6.035782337E0,7.831433773E0
2.404973500E0,-1.120486379E0,6.041768074E0,7.668628216E0
2.415166500E0,-1.320402265E0,6.129156113E0,7.790732384E0
2.425321500E0,-1.583764434E0,6.257246017E0,7.948749542E0
2.434988500E0,-1.643619418E0,6.297947407E0,7.781155586E0
2.445136500E0,-1.617283225E0,6.270414352E0,7.715314865E0
2.455099500E0,-1.601720929E0,6.076483727E0,7.837419033E0
2.465026500E0,-1.607706428E0,5.798756599E0,7.903259754E0
2.475030500E0,-1.587355733E0,5.479130745E0,7.862558365E0
2.484990500E0,-1.580173135E0,5.195417881E0,7.860164165E0
2.495183500E0,-1.495178938E0,5.098452568E0,7.863755703E0
2.505017500E0,-1.357512355E0,5.029020786E0,7.785943985E0
2.515015500E0,-1.262941360E0,5.008669853E0,7.751227856E0
2.525349500E0,-1.246181965E0,4.970362663E0,7.851784706E0
2.535169500E0,-1.278503656E0,4.921281815E0,8.007407188E0
2.545020500E0,-1.278503656E0,4.872200489E0,7.926004887E0
2.555108500E0,-1.499967337E0,4.881777287E0,7.744045258E0
2.565002500E0,-1.608903527E0,4.967968464E0,7.514202118E0
2.575177500E0,-1.569399238E0,5.020640850E0,7.320271492E0
2.584977500E0,-1.558625340E0,4.975151062E0,7.339425087E0
2.595172500E0,-1.614889026E0,4.893748283E0,7.547720909E0
2.605009500E0,-1.606509328E0,4.882974148E0,7.671022415E0
2.615255500E0,-1.552639842E0,4.856637955E0,7.672219276E0
2.625429500E0,-1.446097851E0,4.753687382E0,7.672219276E0
2.634995500E0,-1.444900751E0,4.738125324E0,7.753622055E0
2.645137500E0,-1.538274646E0,4.765658379E0,7.630321026E0
2.655104500E0,-1.423352957E0,4.853046894E0,7.187393665E0
2.665031500E0,-1.392228246E0,4.976348400E0,6.873753071E0
2.675246500E0,-1.467645645E0,5.203797340E0,6.602011204E0
2.685009500E0,-1.622071624E0,5.513846397E0,6.373364925E0
2.695110500E0,-1.738190413E0,5.737704277E0,6.427234650E0
2.705001500E0,-1.619677424E0,5.905298710E0,6.593631268E0
2.715031500E0,-1.647210717E0,5.937620163E0,6.944382191E0
2.725406500E0,-1.771709204E0,5.949591160E0,7.469909191E0
2.735100500E0,-1.989581585E0,5.936423302E0,8.172607422E0
2.745157500E0,-2.177526474E0,6.045359135E0,8.725667953E0
2.755113500E0,-2.238578558E0,6.149507046E0,8.953117371E0
2.765003500E0,-2.132036686E0,6.196194172E0,8.863334656E0
2.775300500E0,-1.962048292E0,6.240486622E0,8.786720276E0
2.785019500E0,-1.316810966E0,6.384139061E0,8.518569946E0
2.795134500E0,-9.062053561E-1,6.438008308E0,8.390480042E0
2.804999500E0,-7.050924301E-1,6.380547523E0,8.750806808E0
2.815028500E0,-5.841852427E-1,6.312312603E0,9.402029991E0
2.824971500E0,-3.519476354E-1,6.069301128E0,9.964667320E0
2.834994500E0,-2.813186944E-1,5.783194065E0,1.034774017E1
2.844993500E0,-1.819593310E-1,5.674258232E0,1.018373680E1
2.854992500E0,-2.885012925E-1,5.865794182E0,9.855731010E0
2.864982500E0,-5.183446407E-1,6.215347767E0,9.422380447E0
2.875124500E0,-8.738836050E-1,6.575675011E0,9.028534889E0
2.885002500E0,-1.248576164E0,6.932411194E0,8.596381187E0
2.895129500E0,-1.353921056E0,7.192182064E0,8.140285492E0
2.904995500E0,-1.635239720E0,7.079654217E0,7.629123688E0
2.914978500E0,-1.912967205E0,6.874950409E0,6.991068840E0
2.925017500E0,-2.357091665E0,6.265625954E0,6.859387875E0
2.935119500E0,-2.728192806E0,5.516240597E0,6.676231384E0
2.945164500E0,-3.044227362E0,4.711789131E0,6.447585106E0
2.955088500E0,-3.234566450E0,3.861847401E0,6.428431511E0
2.964990500E0,-3.239354849E0,2.914940596E0,6.556521416E0
2.975139500E0,-3.336320162E0,1.900996208E0,6.867767811E0
2.985007500E0,-3.562572241E0,1.082179189E0,7.261613846E0
2.995023500E0,-3.666719913E0,5.386953950E-1,7.241262913E0
3.004999500E0,-3.442862034E0,-4.788403213E-2,6.216544628E0
3.015011500E0,-2.920926094E0,-6.703764796E-1,5.202600479E0
3.025117500E0,-3.230975151E0,-8.044517636E-1,6.555324078E0
3.035100500E0,-3.561375141E0,-7.625532150E-1,7.639897823E0
3.045005500E0,-3.632004023E0,-5.650315881E-1,7.953537941E0
3.055104500E0,-3.303998232E0,-2.418143749E-1,7.897274494E0
3.065042500E0,-3.134010077E0,1.053448766E-1,8.275558472E0
3.075128500E0,-3.205836058E0,5.183446407E-1,8.959102631E0
3.084995500E0,-3.124433279E0,9.732429981E-1,9.524134636E0
3.095044500E0,-3.016694069E0,1.599326730E0,1.003888798E1
3.104991500E0,-3.111265182E0,2.467224836E0,1.024359226E1
3.114998500E0,-3.184288263E0,3.457227230E0,1.001614285E1
3.124997500E0,-3.193865061E0,4.425682068E0,9.570821762E0
3.135087500E0,-3.023876667E0,5.234921932E0,8.990227699E0
3.145031500E0,-2.803610086E0,5.829881191E0,8.689755440E0
3.155074500E0,-2.634819031E0,6.144718647E0,8.514978409E0
3.164983500E0,-2.449268341E0,6.420052052E0,8.271966934E0
3.175189500E0,-2.115277290E0,6.581660271E0,8.262390137E0
3.185024500E0,-1.921346903E0,6.645106792E0,8.591592789E0
3.195580500E0,-1.804031014E0,6.823474884E0,8.808267593E0
3.205014500E0,-1.486799240E0,6.983886242E0,8.870517731E0
3.215084500E0,-1.288080573E0,7.092822552E0,9.422380447E0
3.224969500E0,-1.046266198E0,7.214926720E0,9.491812706E0
3.234973500E0,-5.925649405E-1,7.353790283E0,9.393650055E0
3.244975500E0,-3.208230138E-1,7.660248280E0,9.562441826E0
3.255005500E0,-3.303998411E-1,8.474276543E0,9.138668060E0
3.265081500E0,-5.590460896E-1,9.400833130E0,9.093177795E0
3.275111500E0,-9.181763530E-1,1.094748688E1,7.454347134E0
3.285004500E0,-8.906430602E-1,1.193509579E1,5.692214489E0
3.295308500E0,-7.433996201E-1,1.231098557E1,4.902127743E0
3.305001500E0,-7.433996201E-1,1.286284828E1,5.078101635E0
3.315033500E0,-8.834604025E-1,1.351287460E1,5.518634796E0
3.325061500E0,-1.312022567E0,1.360145950E1,5.554547787E0
3.335186500E0,-1.832761407E0,1.272159100E1,5.899312973E0
3.345062500E0,-1.939303398E0,1.074637413E1,6.843825340E0
3.355215500E0,-1.478419542E0,7.882909298E0,8.463502884E0
3.365064500E0,-4.489128292E-1,5.097255230E0,9.854534149E0
3.375064500E0,1.508347094E-1,3.649960518E0,9.962273598E0
3.385008500E0,-2.561795712E-1,4.054580688E0,8.688557625E0
3.395105500E0,-1.120486379E0,5.382165432E0,7.467514992E0
3.404976500E0,-1.898601890E0,6.725312710E0,7.252037048E0
3.415072500E0,-2.194285870E0,8.328230858E0,6.936002254E0
3.425002500E0,-2.370259762E0,1.003649330E1,5.923254967E0
3.435084500E0,-3.718195200E0,1.221282291E1,6.653486729E0
3.445061500E0,-4.969165802E0,1.515170574E1,3.675099611E0
3.455088500E0,-3.590105534E0,1.620874596E1,-4.033032894E0
3.464989500E0,-1.850717902E0,1.431014347E1,-5.395333767E0
3.475078500E0,-1.983596087E0,1.178904915E1,2.780865192E0
3.484986500E0,-2.115277290E0,1.031182671E1,2.967612982E0
3.495065500E0,-2.097320795E0,9.946710587E0,2.703053713E0
3.504996500E0,-1.747767210E0,9.375694275E0,2.844311714E0
3.515032500E0,-1.926135302E0,8.145073891E0,4.744110584E0
3.525002500E0,-1.535880446E0,6.722918510E0,5.378573895E0
3.535039500E0,-1.323993564E0,6.428431511E0,4.126406670E0
3.545050500E0,-1.608903527E0,5.668272495E0,6.603208065E0
3.555117500E0,-2.021903276E0,5.827486992E0,7.255628109E0
3.564988500E0,-2.378639460E0,6.515820026E0,7.133523941E0
3.575126500E0,-2.631227732E0,7.188590527E0,7.159860134E0
3.585004500E0,-2.719813108E0,8.542511940E0,5.622782707E0
3.595121500E0,-2.814383984E0,9.727641106E0,4.569334030E0
3.605007500E0,-2.807201385E0,1.003529644E1,3.952826977E0
3.615101500E0,-2.365471363E0,9.599552155E0,2.869450808E0
3.624989500E0,-1.953668594E0,9.075222015E0,2.454056740E0
3.635045500E0,-1.813607812E0,9.021351814E0,2.908955097E0
3.645170500E0,-1.895010591E0,9.343372345E0,2.849100113E0
3.655046500E0,-2.300827742E0,9.684545517E0,3.402160645E0
3.665298500E0,-2.846705914E0,1.016099167E1,4.085705280E0
3.675015500E0,-2.838326216E0,1.012507915E1,4.167108059E0
3.685000500E0,-2.591723442E0,9.364919662E0,5.023035049E0
3.695097500E0,-2.329558372E0,8.859743118E0,4.727351189E0
3.705070500E0,-2.237381458E0,8.538920403E0,4.680664539E0
3.715018500E0,-1.623268723E0,8.147468567E0,4.996698856E0
3.724996500E0,-1.339555860E0,7.584830761E0,5.402516365E0
3.735104500E0,-1.581370234E0,7.280767441E0,6.100425720E0
3.745277500E0,-1.619677424E0,7.694964409E0,3.733757496E0
3.755193500E0,-1.538274646E0,8.512583733E0,1.340752959E0
3.764989500E0,-1.689109325E0,8.906430244E0,1.707065821E0
3.775133500E0,-1.897404790E0,8.717288017E0,3.230975151E0
3.784990500E0,-1.716642618E0,7.996633530E0,3.896563292E0
3.795163500E0,-1.472434044E0,7.048529625E0,4.681861401E0
3.805542500E0,-1.626860023E0,6.628347397E0,5.100846767E0
3.814989500E0,-1.662773132E0,6.934805393E0,4.936843872E0
3.825025500E0,-1.890222192E0,7.436390400E0,4.847061157E0
3.835042500E0,-2.129642487E0,7.850587368E0,5.015852451E0
3.844999500E0,-2.454056740E0,8.103176117E0,5.194220543E0
3.855148500E0,-2.682703018E0,8.182184219E0,4.933252811E0
3.865014500E0,-2.780865192E0,8.317456245E0,4.077325344E0
3.875090500E0,-2.625242233E0,8.669404030E0,2.917334795E0
3.884989500E0,-2.815581083E0,8.646659851E0,3.743334293E0
3.895088500E0,-2.991554976E0,8.504204750E0,4.920084476E0
3.905148500E0,-2.861071110E0,8.503006935E0,4.984727859E0
3.915169500E0,-2.827552319E0,8.643068314E0,5.094861031E0
3.925002500E0,-3.011905670E0,8.746018410E0,5.820304394E0
3.935122500E0,-2.956839085E0,8.573636055E0,5.930437565E0
3.945019500E0,-2.333149672E0,8.179790497E0,4.744110584E0
3.955219500E0,-2.179920673E0,8.170213699E0,4.058171749E0
3.964972500E0,-2.287659645E0,8.540117264E0,3.295618534E0
3.975104500E0,-2.456450939E0,8.927978516E0,3.683479309E0
3.984989500E0,-2.701856613E0,8.599972725E0,4.715380192E0
3.994989500E0,-1.988384485E0,8.370129585E0,2.761711597E0
4.005316500E0,-1.940500498E0,8.323442459E0,2.977189779E0
4.015095500E0,-2.066195965E0,8.388085365E0,3.592499733E0
4.025095500E0,-2.033874273E0,8.254010201E0,3.980360270E0
4.034990500E0,-2.084152699E0,8.073247910E0,4.490325451E0
4.045031500E0,-2.154781580E0,8.021772385E0,4.632780075E0
4.054980500E0,-2.062604666E0,8.147468567E0,4.346673012E0
4.065050500E0,-2.334346771E0,8.346187592E0,4.546588898E0
4.075107500E0,-2.572569609E0,8.518569946E0,4.807557106E0
4.084978500E0,-2.625242233E0,8.801085472E0,4.417302132E0
4.096388500E0,-2.881421804E0,8.890868187E0,4.590881824E0
4.106655500E0,-2.849100113E0,8.931569099E0,3.919308186E0
4.115243500E0,-2.663549423E0,8.590395927E0,3.209427357E0
4.125031500E0,-2.466027737E0,7.918822289E0,3.224989653E0
4.134971500E0,-2.341529369E0,7.583633900E0,3.165134668E0
4.145059500E0,-2.430114746E0,7.712920666E0,3.499125719E0
4.154988500E0,-2.541445017E0,7.880515099E0,4.106055737E0
4.164998500E0,-2.594117641E0,8.202534676E0,4.238934040E0
4.175004500E0,-2.385822058E0,9.336189270E0,2.698265314E0
4.184974500E0,-1.977610588E0,9.637859344E0,2.055422068E0
4.194971500E0,-1.206677675E0,7.672219276E0,4.027047157E0
4.205080500E0,-1.065419793E0,6.291962147E0,4.262876034E0
4.214978500E0,-1.503558636E0,6.776787758E0,3.405751944E0
4.225256500E0,-2.814383984E0,8.249221802E0,4.649539471E0
4.234977500E0,-3.782838583E0,8.754398346E0,6.610390663E0
4.244976500E0,-2.421735048E0,7.939172745E0,4.760869980E0
4.254940500E0,-1.246181965E0,7.703343868E0,3.324349165E0
4.264946500E0,-8.511387110E-1,8.294712067E0,2.755726099E0
4.274961500E0,-9.193734527E-1,8.895656586E0,2.612074137E0
4.284949500E0,-1.217451572E0,9.440337181E0,3.422511339E0
4.295041500E0,-1.574187636E0,9.917980194E0,3.763684988E0
4.304977500E0,-1.792060018E0,1.036330223E1,3.353079557E0
4.314962500E0,-1.646013618E0,1.033098030E1,2.689885616E0
4.324955500E0,-1.557428241E0,9.908403397E0,3.132812977E0
4.334945500E0,-1.015141487E0,8.943540573E0,3.256114244E0
4.344957500E0,-5.614402890E-1,8.015787125E0,3.938461781E0
4.354979500E0,-8.846575022E-1,7.712920666E0,5.337872505E0
4.365016500E0,-1.256955862E0,7.754819393E0,5.923254967E0
4.374954500E0,-1.116895080E0,7.659051418E0,6.324283600E0
4.385020500E0,-8.990227580E-1,7.759607792E0,6.300341606E0
4.395038500E0,-5.386953950E-1,7.988254070E0,5.583278179E0
4.405119500E0,1.194706678E0,7.739256859E0,2.179920673E0
4.414963500E0,1.635239720E0,7.198167324E0,1.819593310E0
4.424974500E0,9.600749016E-1,7.550115108E0,2.084152699E0
4.434986500E0,-3.076549172E-1,8.197746277E0,3.348291159E0
4.444942500E0,-2.025494576E0,8.649053574E0,5.651513100E0
4.455097500E0,-2.898181200E0,9.442731857E0,5.906495571E0
4.464950500E0,-2.142810583E0,9.064447403E0,4.327519417E0
4.475145500E0,-1.052251697E0,8.655038834E0,2.961627483E0
4.484973500E0,-2.489969730E-1,8.538920403E0,2.874239206E0
4.494944500E0,4.297592044E-1,8.370129585E0,2.877830505E0
4.504962500E0,3.399766386E-1,8.570044518E0,1.426944256E0
4.515058500E0,1.472434103E-1,8.620323181E0,-3.411737382E-1
4.525047500E0,4.788403399E-3,9.016563416E0,-1.411381960E0
4.535001500E0,6.584054977E-2,8.929175377E0,-2.219424963E0
4.544968500E0,-9.804255962E-1,9.317035675E0,-5.973533392E-1
4.554957500E0,-3.944447279E0,1.000656605E1,1.375468850E0
4.565018500E0,-5.894524574E0,1.074996567E1,1.423352957E0
4.575016500E0,-4.650736809E0,1.127668953E1,5.425261021E0
4.584949500E0,-3.920505285E0,1.108515358E1,4.477157116E0
4.594962500E0,-4.088099480E0,1.268687439E1,2.705447912E0
4.605075500E0,-3.760093689E0,1.523789692E1,3.175908566E0
4.614971500E0,-2.886210203E0,1.515529633E1,2.717418969E-1
4.625028500E0,-1.350329757E0,1.330338192E1,-3.398569345E0
4.636493500E0,5.758054852E-1,1.157117653E1,-2.011129409E-1
4.645524500E0,-9.971849918E-1,1.098100567E1,3.532644510E0
4.654990500E0,-1.161187768E0,9.792284966E0,1.232175922E1
4.664954500E0,-9.421183467E-1,9.761159897E0,7.557297707E0
4.675858500E0,-7.206547260E-1,8.736441612E0,5.942408562E0
4.684938500E0,-1.307234168E0,8.248024940E0,4.141968727E0
4.695024500E0,-7.457938194E-1,8.504204750E0,2.365471363E0
4.704955500E0,-3.770867586E-1,8.876502991E0,1.636436820E0
4.715068500E0,-4.596867263E-1,9.557653427E0,1.151610970E0
4.725022500E0,-1.048660398E0,1.039083576E1,2.310404539E0
4.734960500E0,-1.635239720E0,1.052610779E1,3.029862165E0
4.744964500E0,-1.155202270E0,1.042076302E1,3.166331768E0
4.754982500E0,-1.194706678E0,1.030224991E1,2.765302896E0
4.764970500E0,-1.130063176E0,1.025915432E1,2.196680069E0
4.775052500E0,-1.954865694E0,9.642647743E0,2.218227863E0
4.784956500E0,-1.274912357E0,9.600749016E0,2.765302956E-1
4.795521500E0,-1.754949808E0,9.742006302E0,1.880645394E0
4.806008500E0,-2.789244890E0,9.532513618E0,1.738190413E0
4.815256500E0,-3.013102770E0,9.732429504E0,1.736993313E0
4.825367500E0,-3.161543369E0,9.534908295E0,2.716221809E0
4.835039500E0,-2.706645012E0,9.633070946E0,2.260126352E0
4.844971500E0,-2.914940596E0,9.739612579E0,2.683900118E0
4.854975500E0,-2.396595955E0,1.003170490E1,2.375048161E0
4.865053500E0,-1.705868721E0,1.023042393E1,1.725022316E0
4.874976500E0,-3.974374831E-1,1.008677197E1,1.194706678E0
4.885023500E0,1.424549967E-1,1.034295177E1,2.092532396E0
4.894947500E0,-5.219359994E-1,9.890447617E0,2.828749418E0
4.904977500E0,-2.621650994E-1,1.011191082E1,3.266888142E0
4.918625500E0,-7.565677166E-1,9.780313492E0,2.671929121E0
4.934933500E0,-2.898181200E0,9.708487511E0,3.537432909E0
4.945033500E0,-3.434482336E0,1.000058079E1,2.105700493E0
4.955044500E0,-6.300341606E0,8.191761017E0,2.728192806E0
4.965058500E0,-6.610390663E0,7.894880295E0,1.933317900E0
4.975001500E0,-4.679467201E0,8.713697433E0,1.133654475E0
4.984955500E0,-3.019088268E0,8.604761124E0,6.428431273E-1
4.995294500E0,-2.570175409E0,8.137891769E0,5.398924947E-1
5.004978500E0,-1.632845521E0,9.261969566E0,-1.939303428E-1
5.015455500E0,-1.180341482E0,9.030928612E0,4.908113480E-1
5.024979500E0,-1.657984734E0,8.953117371E0,8.248024583E-1
5.034992500E0,-1.228225470E0,1.017894840E1,-1.771709204E0
5.044986500E0,-1.452083349E0,1.017056847E1,-1.693897724E0
5.055040500E0,-1.692700624E0,9.987412453E0,-1.146822572E0
5.064960500E0,-1.628057122E0,9.539696693E0,-2.407369852E0
5.074989500E0,-1.729810715E0,9.509769440E0,-1.667561531E0
5.085170500E0,-1.903390408E0,9.667786598E0,8.499415964E-2
5.094941500E0,-2.294842243E0,9.406818390E0,2.585737944E0
5.105061500E0,-2.175132275E0,9.927556992E0,-2.673126221E0
5.114984500E0,-2.510320425E0,9.320627213E0,-5.099649429E0
5.125374500E0,-2.209848166E0,9.653421402E0,-3.797203779E0
5.134943500E0,-3.193865061E0,9.695320129E0,-1.911770105E0
5.144951500E0,-2.474407434E0,9.404424667E0,-1.101332754E-1
5.155343500E0,-1.589749932E0,9.640253067E0,-3.028665185E-1
5.164982500E0,-1.404199243E0,9.324218750E0,-2.585737705E-1
5.175085500E0,-1.561019540E0,1.016458321E1,-1.520318091E-1
5.184935500E0,-2.354697466E0,1.073081207E1,9.816227108E-2
5.195267500E0,-3.739742994E0,9.807847023E0,1.951274425E-1
5.204980500E0,-3.184288263E0,9.442731857E0,-8.595184088E-1
5.215030500E0,-2.839523315E0,9.668983459E0,-4.944026470E-1
5.225401500E0,-2.252943754E0,9.968258858E0,3.303998411E-1
5.235371500E0,-2.075772762E0,1.009634876E1,3.040636182E-1
5.244964500E0,-2.059013367E0,9.727641106E0,-3.196259141E-1
5.254962500E0,-1.577778935E0,7.649474621E0,-9.337386489E-2
5.265053500E0,-1.650802016E0,7.010222435E0,-1.361103654E0
5.274967500E0,-3.368641853E0,1.047702694E1,-1.403002143E0
5.284948500E0,-3.677493811E0,1.091755962E1,1.690306425E0
5.294999500E0,-2.410961151E0,1.039203262E1,1.130063176E0
5.305129500E0,-1.855506301E0,9.986215591E0,1.705868721E0
5.315075500E0,-2.002749681E0,1.016697788E1,1.703474522E0
5.325062500E0,-2.184709072E0,9.879673004E0,4.489128292E-1
5.334993500E0,-2.467224836E0,9.659406662E0,-1.991975784E0
5.344971500E0,-2.414552450E0,9.481039047E0,-1.198297977E0
5.354979500E0,-2.296039343E0,9.466673851E0,3.220201433E-1
5.364984500E0,-2.148796082E0,9.431957245E0,2.676717520E0
5.374979500E0,-1.970427990E0,9.651026726E0,2.996343374E0
5.385012500E0,-2.229001760E0,9.933543205E0,6.033388376E-1
5.394946500E0,-2.643198729E0,9.537302017E0,5.781996846E-1
5.404957500E0,-2.279279947E0,9.618705750E0,-6.655880809E-1
5.414958500E0,-1.613691926E0,9.791088104E0,5.674257874E-1
5.424972500E0,5.833472252E0,1.210867500E1,1.046385860E1
5.434973500E0,-7.801506042E0,7.474697590E0,-3.591302633E-1
5.444996500E0,-8.572439194E0,8.058882713E0,-8.232462883E0
5.454976500E0,-3.112462282E0,9.428366661E0,-8.628703117E0
5.465011500E0,-9.576807022E-1,9.736021042E0,-1.581370234E0
5.474969500E0,-5.279214978E-1,9.773131371E0,3.055001259E0
5.484970500E0,-1.101332784E0,9.683348656E0,2.924517393E0
5.495003500E0,-2.072181463E0,9.615114212E0,1.532289088E-1
5.504986500E0,-2.070984364E0,9.860519409E0,-1.798045516E0
5.515054500E0,-1.520318031E0,1.005684471E1,8.643068075E-1
5.525039500E0,-1.547851443E0,9.710882187E0,7.481880188E-1
5.535015500E0,-2.317587137E0,9.580398560E0,-5.853823423E-1
5.544988500E0,-2.449268341E0,9.467870712E0,2.106897533E-1
5.555001500E0,-1.831564307E0,9.660603523E0,-3.057395458E0
5.565019500E0,-9.612720013E-1,9.840168953E0,-3.948038578E0
5.575103500E0,-1.859097600E0,9.806650162E0,1.321599364E0
5.585012500E0,-2.060210466E0,9.945513725E0,3.342305660E0
5.594969500E0,-1.777694821E0,9.793481827E0,8.080430627E-1
5.604978500E0,-2.183511972E0,9.485827446E0,-1.632845521E0
5.615126500E0,-2.449268341E0,9.431957245E0,-1.909375906E0
5.624958500E0,-2.578555346E0,9.525331497E0,-4.477157295E-1
5.635060500E0,-2.686294317E0,9.616311073E0,6.655880809E-1
5.645014500E0,-2.771288395E0,9.682151794E0,-2.537853718E-1
5.655049500E0,-2.828749418E0,9.645041466E0,-4.010287821E-1
5.664982500E0,-3.094505787E0,9.683348656E0,2.669534981E-1
5.674957500E0,-2.853888512E0,9.500192642E0,-1.247379065E0
5.684987500E0,-2.559401512E0,9.393650055E0,-1.027112484E0
5.695094500E0,-2.724601507E0,9.428366661E0,-3.926490843E-1
5.704955500E0,-2.852691412E0,9.527725220E0,-2.789244950E-1
5.715031500E0,-2.796427488E0,9.580398560E0,-4.477157295E-1
5.724964500E0,-2.731784105E0,9.621099472E0,-6.967126727E-1
5.735151500E0,-2.691082716E0,9.628282547E0,-9.959878922E-1
5.744943500E0,-2.534262419E0,9.564835548E0,-4.932055473E-1
5.754988500E0,-2.385822058E0,9.471462250E0,-4.022258818E-1
5.764922500E0,-2.074575663E0,9.534908295E0,-9.373299479E-1
5.775059500E0,-1.995567083E0,9.607931137E0,-1.243787766E0
5.785695500E0,-2.498349428E0,8.823830605E0,4.118026793E-1
5.795003500E0,-1.752555609E0,9.338583946E0,-4.022258759E0
5.805083500E0,-1.224634171E0,9.631873131E0,-2.110488892E0
5.815082500E0,-1.717839718E0,1.044590187E1,1.710657120E0
5.825064500E0,-2.094926596E0,9.684545517E0,-4.944026470E-1
5.834933500E0,-2.000355482E0,9.144653320E0,-9.864110947E-1
5.845101500E0,-1.138442874E0,1.010951710E1,-1.720233917E0
5.854992500E0,-8.918401599E-1,1.036210537E1,7.661445439E-2
5.864968500E0,-1.211466074E0,9.890447617E0,-4.800374508E-1
5.875029500E0,-9.780313969E-1,9.750386238E0,-1.114500880E0
5.884960500E0,-1.070208192E0,9.582792282E0,-1.328781962E0
5.895037500E0,-1.623268723E0,9.416395187E0,-9.361328483E-1
5.905539500E0,-1.604115129E0,9.508571625E0,-4.860229492E-1
5.915102500E0,-1.229422569E0,9.889249802E0,-4.297592044E-1
5.924965500E0,-1.567005038E0,9.913191795E0,-2.501940727E-1
5.935755500E0,-1.757344007E0,1.000058079E1,-4.249708056E-1
5.944938500E0,-2.109291792E0,9.856928825E0,2.035071515E-2
5.955068500E0,-2.178723574E0,9.874884605E0,-6.368576288E-1
5.964982500E0,-1.918952703E0,9.819818497E0,-4.249708056E-1
5.974986500E0,-2.135627985E0,9.629479408E0,-6.524199843E-1
5.985159500E0,-3.100491285E0,9.144653320E0,-5.482721925E-1
5.994985500E0,-3.366247654E0,9.315838814E0,-3.591302410E-2
6.005103500E0,-3.189076662E0,9.616311073E0,-2.513911761E-2
6.015069500E0,-2.833537817E0,9.921571732E0,9.935937077E-2
6.025049500E0,-2.298433542E0,1.004966164E1,-6.751648784E-1
6.035044500E0,-1.762132406E0,1.022084713E1,5.087678432E-1
6.045270500E0,-1.788468719E0,1.018014526E1,4.944026470E-1
6.054943500E0,-1.154005170E0,1.011669922E1,-6.380547285E-1
6.064942500E0,-1.528697729E0,9.253589630E0,-9.181763530E-1
6.074968500E0,-1.644816518E0,9.715670586E0,1.000776291E0
6.085039500E0,-2.658761024E0,9.658209801E0,1.495178938E0
6.094959500E0,-4.346673012E0,9.168595314E0,1.831564307E-1
6.104956500E0,-1.365892053E0,1.015021801E1,-9.744400978E-1
6.114948500E0,-1.756146908E0,9.406818390E0,1.640028208E-1
6.124979500E0,-1.471236944E0,9.884461403E0,-4.908113554E-2
6.135616500E0,-2.171540976E0,9.431957245E0,5.434837937E-1
6.144949500E0,-1.789665818E0,9.825803757E0,2.394201607E-2
6.154980500E0,-1.789665818E0,9.732429504E0,-7.577648163E-1
6.164972500E0,-1.674744129E0,9.929951668E0,-3.675099611E-1
6.175215500E0,-2.236184359E0,9.849745750E0,2.789244950E-1
6.184968500E0,-2.437297344E0,9.937133789E0,5.027823523E-2
6.194953500E0,-2.370259762E0,9.684545517E0,-2.561795712E-1
6.205005500E0,-2.050633669E0,9.612719536E0,1.699883193E-1
6.215179500E0,-2.136825085E0,9.629479408E0,3.878606856E-1
6.225095500E0,-2.363077164E0,9.810241699E0,3.363853395E-1
6.235004500E0,-2.477998734E0,9.958682060E0,1.496376097E-1
6.245051500E0,-2.244564056E0,9.897629738E0,-6.344634295E-2
6.255143500E0,-2.055422068E0,9.599552155E0,6.440402865E-1
6.265026500E0,-2.117671490E0,9.245209694E0,4.620809257E-1
6.275084500E0,-2.120065689E0,9.123106003E0,1.065419763E-1
6.285075500E0,-2.114080191E0,8.911218643E0,-2.633621916E-2
6.295025500E0,-2.148796082E0,8.845377922E0,2.286462635E-1
6.304972500E0,-2.181117773E0,8.591592789E0,7.661445439E-2
6.314950500E0,-1.869871497E0,8.850166321E0,-9.816227108E-2
6.325019500E0,-1.774103403E0,9.279925346E0,-3.040636182E-1
6.335113500E0,-1.613691926E0,9.775525093E0,-6.967126727E-1
6.345092500E0,-1.428141356E0,1.009156036E1,2.873041928E-1
6.355146500E0,-1.508347034E0,9.976638794E0,2.035071403E-1
6.364955500E0,-1.835155606E0,1.042435455E1,1.568202078E-1
6.375034500E0,-1.902193308E0,1.074637413E1,-7.194576263E-1
6.385134500E0,-1.944091797E0,1.086847878E1,-8.583213091E-1
6.394985500E0,-2.388216257E0,1.053089619E1,-6.883329749E-1
6.405112500E0,-2.288856745E0,1.030105305E1,-2.980781198E-1
6.414951500E0,-1.940500498E0,1.007480049E1,-4.824316502E-1
6.425157500E0,-2.070984364E0,9.939528465E0,-3.555389643E-1
6.434997500E0,-2.328361034E0,9.934740067E0,-3.471592367E-1
6.444988500E0,-2.952050686E0,9.897629738E0,-3.830722719E-2
6.454963500E0,-3.369838953E0,9.586383820E0,5.171475410E-1
6.464962500E0,-3.136404276E0,9.223662376E0,9.217676520E-1
6.474947500E0,-3.020285368E0,9.076418877E0,9.528923035E-1
6.485128500E0,-3.180696964E0,9.168595314E0,6.081272364E-1
6.495053500E0,-3.275267839E0,9.527725220E0,-2.322375625E-1
6.505177500E0,-3.064578056E0,9.600749016E0,1.197100878E-1
6.514958500E0,-2.794033289E0,9.633070946E0,5.434837937E-1
6.524998500E0,-2.606088638E0,9.496601105E0,5.841852427E-1
6.535081500E0,-2.534262419E0,9.153033257E0,3.974374831E-1
6.545030500E0,-2.381033659E0,9.267954826E0,4.273650050E-1
6.554965500E0,-2.401384354E0,9.297882080E0,2.896983922E-1
6.565013500E0,-2.412158251E0,9.392453194E0,2.035071515E-2
6.575100500E0,-2.571372509E0,9.549273491E0,-1.855506301E-1
6.585004500E0,-2.503137827E0,9.727641106E0,-6.464344263E-2
6.595052500E0,-2.427720547E0,9.668983459E0,1.556231081E-1
6.604947500E0,-2.446874142E0,9.671378136E0,-4.429273307E-2
6.614940500E0,-2.415749550E0,9.683348656E0,-6.464344263E-2
6.624947500E0,-2.371456861E0,9.750386238E0,5.147533491E-2
6.635081500E0,-2.297236443E0,9.721655846E0,2.035071403E-1
6.644997500E0,-2.189497471E0,9.703699112E0,2.920926213E-1
6.655010500E0,-2.171540976E0,9.722852707E0,2.849099934E-1
6.664962500E0,-2.233790159E0,9.662998199E0,2.094926536E-1
6.675207500E0,-2.298433542E0,9.646238327E0,1.173158810E-1
6.685014500E0,-2.364274263E0,9.561244011E0,9.217676520E-2
6.694997500E0,-2.462436438E0,9.540893555E0,7.182604820E-2
6.704994500E0,-2.505532026E0,9.514557838E0,-6.464344263E-2
6.715081500E0,-2.565387011E0,9.502586365E0,-1.173158810E-1
6.724991500E0,-2.598906040E0,9.567230225E0,-7.182604820E-2
6.735108500E0,-2.586935043E0,9.576807022E0,-2.513911761E-2
6.745030500E0,-2.604891539E0,9.574412346E0,-7.182605099E-3
6.755027500E0,-2.630030632E0,9.633070946E0,3.351882473E-2
6.765059500E0,-2.645592928E0,9.654618263E0,7.182604820E-2
6.775064500E0,-2.639607430E0,9.683348656E0,1.185129806E-1
6.785011500E0,-2.577358246E0,9.659406662E0,9.097966552E-2
6.795125500E0,-2.539050817E0,9.607931137E0,3.471592441E-2
6.805031500E0,-2.505532026E0,9.630676270E0,3.591302410E-2
6.814992500E0,-2.480392933E0,9.662998199E0,6.943184882E-2
6.824999500E0,-2.482787132E0,9.642647743E0,2.633621916E-2
6.835192500E0,-2.462436438E0,9.645041466E0,6.823474914E-2
6.844998500E0,-2.450465441E0,9.651026726E0,5.865794048E-2
6.855011500E0,-2.452859640E0,9.657012939E0,5.865794048E-2
6.864993500E0,-2.501940727E0,9.707290649E0,1.149216816E-1
6.874983500E0,-2.524685621E0,9.635464668E0,4.309562966E-2
6.885017500E0,-2.530671120E0,9.606734276E0,4.548983276E-2
6.894994500E0,-2.500743628E0,9.515754700E0,3.711012751E-2
6.905051500E0,-2.479195833E0,9.470264435E0,4.070143029E-2
6.914986500E0,-2.369062662E0,9.390059471E0,-2.992752194E-2
6.925023500E0,-2.212242365E0,9.367314339E0,-1.065419763E-1
6.935006500E0,-2.120065689E0,9.416395187E0,3.112462163E-2
6.944998500E0,-2.159569979E0,9.510966301E0,2.430114746E-1
6.955011500E0,-2.161964178E0,9.557653427E0,4.177882075E-1
6.964967500E0,-2.153584480E0,9.562441826E0,3.567360640E-1
6.975170500E0,-2.073378563E0,9.554061890E0,4.465186298E-1
6.985036500E0,-1.950077295E0,9.482235909E0,4.225766063E-1
6.995056500E0,-1.813607812E0,9.483432770E0,2.693476975E-1
7.005031500E0,-1.638831019E0,9.677363396E0,1.831564307E-1
7.015050500E0,-1.487996340E0,9.816226959E0,4.908113554E-2
7.025139500E0,-1.302445769E0,9.950302124E0,-7.781155407E-2
7.035035500E0,-1.195903778E0,1.000895977E1,1.592144072E-1
7.045021500E0,-9.852139950E-1,1.004487324E1,3.914519846E-1
7.054987500E0,-7.386112213E-1,1.015859795E1,4.728548229E-1
7.064945500E0,-6.105214357E-1,1.017416000E1,2.549824715E-1
7.074968500E0,-5.758054852E-1,1.038245583E1,-5.985504389E-2
7.084942500E0,-7.685387731E-1,1.039801788E1,-1.711854190E-1
7.094995500E0,-1.003170490E0,1.036569595E1,-1.795651317E-1
7.104978500E0,-1.300051570E0,1.025197124E1,-3.256114423E-1
7.114998500E0,-1.614889026E0,1.012627602E1,-5.291185975E-1
7.124961500E0,-1.933317900E0,9.888052940E0,-6.500257850E-1
7.135021500E0,-2.191891670E0,9.543288231E0,-7.457938194E-1
7.144982500E0,-2.243366957E0,9.384073257E0,-7.709329724E-1
7.155130500E0,-2.230198860E0,9.330204010E0,-7.206547260E-1
7.164980500E0,-2.124854088E0,9.391256332E0,-6.212953329E-1
7.174991500E0,-1.945288897E0,9.263166428E0,-6.655880809E-1
7.185091500E0,-1.738190413E0,9.436745644E0,-3.100491166E-1
7.195094500E0,-1.540668845E0,9.643844604E0,-3.435679376E-1
7.205003500E0,-1.535880446E0,9.671378136E0,-1.687912196E-1
7.215087500E0,-1.599326730E0,9.673771858E0,-6.344634295E-2
7.225145500E0,-1.612494826E0,9.676166534E0,1.316810958E-2
7.235139500E0,-1.691503525E0,9.591172218E0,6.344634295E-2
7.245010500E0,-1.672349930E0,9.573215485E0,-1.316810958E-2
7.255092500E0,-1.650802016E0,9.510966301E0,-1.400607973E-1
7.265026500E0,-1.575384736E0,9.524134636E0,-3.136404157E-1
7.274983500E0,-1.490390539E0,9.525331497E0,-4.309563041E-1
7.285128500E0,-1.458068848E0,9.586383820E0,-5.303156972E-1
7.295085500E0,-1.424550056E0,9.672574997E0,-6.189011335E-1
7.305040500E0,-1.373074651E0,9.745597839E0,-6.536170840E-1
7.315587500E0,-1.431732655E0,9.710882187E0,-6.835445762E-1
7.325028500E0,-1.459265947E0,9.654618263E0,-6.320692301E-1
7.335016500E0,-1.416170359E0,9.555258751E0,-6.045359373E-1
7.344982500E0,-1.337161660E0,9.526528358E0,-6.584054828E-1
7.355101500E0,-1.274912357E0,9.563638687E0,-7.493851185E-1
7.365069500E0,-1.211466074E0,9.557653427E0,-7.852981687E-1
7.375027500E0,-1.119289279E0,9.521739960E0,-8.164227605E-1
7.385003500E0,-1.051054597E0,9.441534042E0,-9.217676520E-1
7.395086500E0,-9.672574997E-1,9.357737541E0,-9.720458984E-1
7.405096500E0,-8.990227580E-1,9.311050415E0,-9.804255962E-1
7.415025500E0,-8.667010069E-1,9.331400871E0,-1.064222693E0
7.425075500E0,-7.182605267E-1,9.538499832E0,-8.702923059E-1
7.435052500E0,-6.979097724E-1,9.688137054E0,-7.086837292E-1
7.444945500E0,-6.811503768E-1,9.765948296E0,-6.260837317E-1
7.455002500E0,-6.727706790E-1,9.727641106E0,-5.470750928E-1
7.465414500E0,-6.536170840E-1,9.679757118E0,-5.327098966E-1
7.475005500E0,-6.308721304E-1,9.637859344E0,-4.668693244E-1
7.484996500E0,-6.200982332E-1,9.586383820E0,-3.878606856E-1
7.495012500E0,-6.464344859E-1,9.692925453E0,-3.028665185E-1
7.505020500E0,-6.967126727E-1,9.713275909E0,-1.651999205E-1
7.515302500E0,-8.259995580E-1,9.580398560E0,-1.496376097E-1
7.525037500E0,-9.493009448E-1,9.455899239E0,-2.896983922E-1
7.534936500E0,-1.082179189E0,9.491812706E0,-3.136404157E-1
7.545035500E0,-1.171961784E0,9.622296333E0,-3.363853395E-1
7.555041500E0,-1.307234168E0,9.718064308E0,-3.232172430E-1
7.565083500E0,-1.399410844E0,9.934740067E0,-3.890577853E-1
7.574991500E0,-1.414973259E0,1.040160942E1,-9.576806426E-2
7.585150500E0,-1.411381960E0,1.119049835E1,7.374141216E-1
7.595021500E0,-1.582567334E0,1.178306389E1,1.454477549E0
7.604994500E0,-1.891419291E0,1.180341434E1,1.448492050E0
7.614983500E0,-1.569399238E0,1.185129833E1,8.499416113E-1
7.625128500E0,-9.720458984E-1,1.245463753E1,5.303156972E-1
7.635063500E0,-9.732429981E-1,1.320282555E1,9.457096457E-1
7.644962500E0,-1.575384736E0,1.338119316E1,1.335964561E0
7.654988500E0,-2.268506050E0,1.225232697E1,1.143231273E0
7.665023500E0,-2.199074268E0,1.213381386E1,1.188721180E0
7.675141500E0,-2.339135170E0,1.225831223E1,1.359906554E0
7.684974500E0,-2.832340717E0,1.241393566E1,1.635239720E0
7.695013500E0,-3.185485363E0,1.246181965E1,1.976413488E0
7.705033500E0,-3.221398354E0,1.220803452E1,2.276885748E0
7.715163500E0,-2.997540474E0,1.173517990E1,2.475604534E0
7.724953500E0,-2.659958124E0,1.120366669E1,2.670732021E0
7.735018500E0,-2.208651066E0,1.070327854E1,2.855085611E0
7.744969500E0,-1.909375906E0,1.012388229E1,3.155557871E0
7.754955500E0,-1.866280198E0,9.495404243E0,3.104082584E0
7.765084500E0,-1.951274395E0,9.039308548E0,2.725798607E0
7.774956500E0,-2.142810583E0,8.823830605E0,2.260126352E0
7.785031500E0,-2.537853718E0,8.838195801E0,1.873462796E0
7.795150500E0,-2.961627483E0,9.026140213E0,1.716642618E0
7.805041500E0,-3.532644510E0,9.103952408E0,1.671152830E0
7.815395500E0,-4.006696701E0,9.238027573E0,1.555034041E0
7.825074500E0,-4.440047264E0,9.421183586E0,1.377863050E0
7.835203500E0,-4.657919407E0,9.640253067E0,2.238578647E-1
7.845073500E0,-4.325125217E0,9.946710587E0,-1.197100850E-3
7.855175500E0,-4.248510838E0,9.991003990E0,8.882488012E-1
7.865114500E0,-3.882198095E0,9.742006302E0,1.006761789E0
7.875608500E0,-3.499125719E0,9.613917351E0,4.237737060E-1
7.890460500E0,-2.886210203E0,9.642647743E0,-3.375824392E-1
7.905308500E0,-2.316390038E0,9.548076630E0,-3.758896589E-1
7.914997500E0,-2.042253971E0,9.453505516E0,-4.345476031E-1
7.925019500E0,-1.932120800E0,9.433155060E0,-6.057330370E-1
7.935014500E0,-1.952471495E0,9.309853554E0,-7.158663273E-1
7.945485500E0,-2.018311977E0,9.173383713E0,-7.326257229E-1
7.955081500E0,-2.041056871E0,8.914810181E0,-7.601590157E-1
7.966479500E0,-2.152387381E0,8.702922821E0,-8.846575022E-1
7.975695500E0,-2.296039343E0,8.416815758E0,-1.238999367E0
7.985078500E0,-2.474407434E0,8.184578896E0,-1.279700756E0
7.995768500E0,-2.557007313E0,8.022970200E0,-1.048660398E0
8.005027500E0,-2.528276920E0,7.759607792E0,-1.265335560E0
8.016599500E0,-2.364274263E0,7.211335659E0,-1.618480325E0
8.025034500E0,-2.169146776E0,6.822277546E0,-1.917755604E0
8.035057500E0,-1.929726601E0,6.593631268E0,-2.330755472E0
8.045014500E0,-1.776497602E0,6.528987885E0,-2.445677042E0
8.055101500E0,-1.693897724E0,6.449979305E0,-2.224213362E0
8.065028500E0,-1.497573137E0,6.337451935E0,-2.151190281E0
8.075030500E0,-1.271321058E0,6.137536049E0,-2.221819162E0
8.085441500E0,-1.109712481E0,6.038176537E0,-2.176329374E0
8.095161500E0,-1.042674899E0,6.078877926E0,-2.438494444E0
8.105414500E0,-1.001973391E0,6.172252178E0,-2.674323320E0
8.116172500E0,-7.230489254E-1,6.047753334E0,-2.874239206E0
8.124991500E0,-4.417302012E-1,6.198588371E0,-3.007117271E0
8.135193500E0,-2.741360962E-1,6.400898457E0,-3.147178173E0
8.145043500E0,-2.082955539E-1,6.758831501E0,-3.144783974E0
8.156875500E0,-3.746925592E-1,7.182605267E0,-2.934094191E0
8.165136500E0,-7.290344238E-1,7.951143742E0,-2.669534922E0
8.175023500E0,-1.179144382E0,8.882488251E0,-1.733402014E0
8.185492500E0,-1.565807939E0,9.774328232E0,-8.355764151E-1
8.195003500E0,-1.918952703E0,1.061469364E1,-6.224924326E-1
8.204964500E0,-2.509123325E0,1.164060879E1,-8.104372621E-1
8.215012500E0,-3.375824451E0,1.252167511E1,-1.905784607E0
8.224988500E0,-4.180276394E0,1.328662205E1,-2.743755102E0
8.235059500E0,-4.589684486E0,1.418085670E1,-3.005920172E0
8.244949500E0,-4.860229492E0,1.442506504E1,-3.349488258E0
8.254973500E0,-5.408501625E0,1.409346867E1,-2.991554976E0
8.264998500E0,-5.428852558E0,1.489672279E1,-2.363077164E0
8.275111500E0,-5.155913353E0,1.563294029E1,-2.175132275E0
8.285107500E0,-4.370615005E0,1.598728180E1,-2.451662540E0
8.295040500E0,-3.740940094E0,1.573469353E1,-2.169146776E0
8.305014500E0,-3.702632904E0,1.464892292E1,-8.571242094E-1
8.315026500E0,-4.434061527E0,1.354639339E1,3.387795389E-1
8.324979500E0,-4.902127743E0,1.187524033E1,-1.388636976E-1
8.335665500E0,-4.946420670E0,9.339780807E0,-2.224213362E0
8.344924500E0,-4.566939831E0,7.958326340E0,-8.140285611E-1
8.354976500E0,-3.105279684E0,5.483919144E0,6.619967818E-1
8.365138500E0,-2.211045265E0,4.967968464E0,1.429338455E0
8.375094500E0,-1.504755735E0,5.067327976E0,1.074996591E0
8.386465500E0,-1.015141487E0,5.983109951E0,3.220201433E-1
8.394957500E0,-3.938461840E-1,7.569268703E0,1.041477770E-1
8.404940500E0,-5.099649429E-1,8.906430244E0,1.771709323E-1
8.414960500E0,-8.523358107E-1,1.014542961E1,3.902548850E-1
8.424940500E0,-1.527500629E0,1.130661774E1,-9.181763530E-1
8.435144500E0,-2.401384354E0,1.204522896E1,1.197100850E-3
8.444978500E0,-2.974795580E0,1.210628128E1,1.089361757E-1
8.454947500E0,-3.708618402E0,1.117613316E1,-4.548983276E-1
8.464957500E0,-4.440047264E0,9.955090523E0,-9.504981041E-1
8.474946500E0,-4.708197594E0,9.273940086E0,-9.217676520E-1
8.485332500E0,-4.614823818E0,8.870517731E0,-9.983820915E-1
8.494957500E0,-3.711012602E0,8.732851028E0,-7.972691655E-1
8.504995500E0,-2.814383984E0,8.969876289E0,-2.310404629E-1
8.515193500E0,-2.217030764E0,9.144653320E0,2.059013397E-1
8.524966500E0,-1.742978811E0,9.144653320E0,3.399766386E-1
8.534972500E0,-1.428141356E0,8.908824921E0,8.140286058E-2
8.544949500E0,-1.205480576E0,8.479064941E0,5.386953801E-2
8.555072500E0,-1.037886381E0,7.892486095E0,2.885012925E-1
8.565039500E0,-9.660604000E-1,7.720103264E0,1.436520964E-1
8.575003500E0,-1.149216771E0,7.686584473E0,6.105214357E-2
8.584996500E0,-1.375468850E0,7.524975777E0,1.999158412E-1
8.594940500E0,-1.432929754E0,7.762001991E0,4.213795066E-1
8.604976500E0,-1.514332533E0,7.999027729E0,4.620809257E-1
8.614982500E0,-1.629254222E0,8.206126213E0,3.603273630E-1
8.624950500E0,-1.632845521E0,8.425195694E0,2.094926536E-1
8.634972500E0,-1.659181833E0,8.613141060E0,2.130839527E-1
8.645003500E0,-1.581370234E0,8.732851028E0,2.214636505E-1
8.654970500E0,-1.401805043E0,8.731653214E0,1.520318091E-1
8.664972500E0,-1.173158884E0,8.719682693E0,-1.316810958E-2
8.674960500E0,-9.337386489E-1,8.832210541E0,-1.783680320E-1
8.684986500E0,-7.242460251E-1,9.187748909E0,-2.837128937E-1
8.695054500E0,-7.673416734E-1,9.607931137E0,-3.411737382E-1
8.704979500E0,-1.118092179E0,9.950302124E0,-4.058171809E-1
8.715096500E0,-1.547851443E0,1.005325317E1,-2.801215947E-1
8.724966500E0,-1.702277422E0,9.736021042E0,-1.101332754E-1
8.735065500E0,-1.746570110E0,9.106346130E0,1.436521020E-2
8.744945500E0,-1.759738207E0,8.653841972E0,4.046200812E-1
8.754983500E0,-1.827973008E0,8.803479195E0,5.195417404E-1
8.764955500E0,-2.124854088E0,9.303867340E0,3.196259141E-1
8.774965500E0,-2.246958256E0,9.809044838E0,1.436521020E-2
8.785435500E0,-1.722628117E0,1.030105305E1,-1.017535701E-1
8.794995500E0,-1.039083481E0,1.084693050E1,2.633621916E-2
8.804997500E0,-5.865794420E-1,1.139879417E1,1.185129806E-1
8.815085500E0,-1.161187813E-1,1.225951004E1,-1.017535686E0
8.824967500E0,-3.459621370E-1,1.227148056E1,-1.359906554E0
8.834982500E0,-8.319851160E-1,1.219127464E1,-1.258152962E0
8.844951500E0,-1.088164687E0,1.271321106E1,-7.529764175E-1
8.854965500E0,-1.389834046E0,1.358350372E1,4.848258495E-1
8.865006500E0,-2.116474390E0,1.353322506E1,1.558625340E0
8.874981500E0,-2.867056608E0,1.246181965E1,1.804031014E0
8.884974500E0,-2.597708941E0,1.232774448E1,1.199495077E0
8.894963500E0,-2.557007313E0,1.337041950E1,2.003946781E0
8.904972500E0,-3.090914488E0,1.400607967E1,3.435679436E0
8.915085500E0,-4.050989151E0,1.345661068E1,3.842693806E0
8.924968500E0,-4.531026840E0,1.196621990E1,3.591302633E0
8.935057500E0,-4.119224072E0,1.060870743E1,3.052607059E0
8.944955500E0,-3.233369350E0,9.403226852E0,2.601300240E0
8.955063500E0,-2.539050817E0,8.323442459E0,2.036268473E0
8.964974500E0,-2.302024841E0,7.826645374E0,1.956062794E0
8.974975500E0,-2.197877169E0,7.949946880E0,2.055422068E0
8.985090500E0,-2.103306293E0,8.404845238E0,2.056619167E0
8.994992500E0,-2.189497471E0,9.047688484E0,1.746570110E0
9.004960500E0,-2.275688648E0,9.848548889E0,3.208230138E-1
9.015113500E0,-2.251746655E0,1.084693050E1,8.523358107E-1
9.024971500E0,-2.552218914E0,1.130781460E1,1.507149935E0
9.035018500E0,-2.864662409E0,1.118331623E1,8.451532125E-1
9.045072500E0,-3.414131641E0,1.071046162E1,6.847416759E-1
9.055027500E0,-3.501519918E0,1.080503273E1,3.711012602E-1
9.064995500E0,-3.421314240E0,1.045308495E1,1.364694983E-1
9.074986500E0,-3.245340347E0,1.004487324E1,-1.149216816E-1
9.085092500E0,-3.027467966E0,9.743204117E0,-5.243301988E-1
9.095132500E0,-2.912546396E0,9.405621529E0,-6.212953329E-1
9.105354500E0,-2.845508814E0,9.242815971E0,-5.207388401E-1
9.115078500E0,-2.743755102E0,9.245209694E0,-3.950432837E-1
9.124967500E0,-2.639607430E0,9.253589630E0,-4.417302012E-1
9.134988500E0,-2.525882721E0,9.276334763E0,-5.925649405E-1
9.145112500E0,-2.401384354E0,9.238027573E0,-6.919242740E-1
9.155273500E0,-2.254140854E0,9.060855865E0,-9.624691010E-1
9.164985500E0,-2.187103271E0,9.159018517E0,-9.552865028E-1
9.175054500E0,-2.134430885E0,8.846575737E0,-1.225831270E0
9.184970500E0,-2.050633669E0,8.306682587E0,-1.459265947E0
9.195138500E0,-1.835155606E0,7.492654324E0,-1.538274646E0
9.205011500E0,-1.701080322E0,7.119158745E0,-2.112883091E0
9.215059500E0,-1.637633920E0,6.823474884E0,-2.116474390E0
9.224964500E0,-1.496376038E0,6.501454830E0,-1.717839718E0
9.234996500E0,-1.304839969E0,6.125565052E0,-1.741781712E0
9.245014500E0,-1.169567585E0,6.008249283E0,-1.873462796E0
9.255033500E0,-1.137245774E0,6.001066685E0,-1.980004787E0
9.264989500E0,-1.124077678E0,6.032191277E0,-2.027888775E0
9.275034500E0,-8.870517015E-1,5.808333397E0,-2.516305923E0
9.284987500E0,-7.589619160E-1,5.606023312E0,-2.695871115E0
9.295003500E0,-5.458779931E-1,5.415684223E0,-2.760514498E0
9.305010500E0,-2.286462635E-1,5.379771233E0,-3.015496969E0
9.315005500E0,4.668693244E-2,5.511452198E0,-3.119644880E0
9.324977500E0,2.274491638E-1,5.724536419E0,-3.023876667E0
9.334978500E0,2.047042400E-1,6.005855083E0,-2.762908697E0
9.345351500E0,-1.185129806E-1,6.399701118E0,-2.118868589E0
9.355108500E0,-7.864952683E-1,6.963535786E0,-1.035492182E0
9.364973500E0,-1.557428241E0,7.850587368E0,-5.506663918E-1
9.375031500E0,-2.304419041E0,8.791508675E0,-4.489128292E-1
9.384953500E0,-3.128024578E0,9.884461403E0,-1.532289088E-1
9.394965500E0,-4.050989151E0,1.127070427E1,-4.405331016E-1
9.404932500E0,-4.841075897E0,1.282573891E1,-1.617283225E0
9.414953500E0,-4.977545261E0,1.465490818E1,-2.952050686E0
9.424950500E0,-4.291606426E0,1.566406441E1,-4.191050053E0
9.434978500E0,-4.462791920E0,1.417726517E1,-4.789600372E0
9.445010500E0,-4.187458992E0,1.239478207E1,-4.086902142E0
9.454982500E0,-3.567360640E0,1.231697083E1,-2.901772499E0
9.465005500E0,-3.185485363E0,1.381933212E1,-2.203862667E0
9.474985500E0,-2.418143749E0,1.493143845E1,-3.499125719E0
9.484984500E0,-7.721300721E-1,1.491108799E1,-3.696647406E0
9.494966500E0,-1.268926859E0,1.428979301E1,-6.308721304E-1
9.504965500E0,-5.031414986E0,1.371518421E1,1.404199243E0
9.514989500E0,-6.022614479E0,1.338598156E1,9.481038451E-1
9.524985500E0,-6.825869083E0,1.336563110E1,-6.715735793E-1
9.534991500E0,-7.716512203E0,1.175672722E1,-2.312798738E0
9.545291500E0,-7.152677536E0,9.566033363E0,-8.595184088E-1
9.555150500E0,-5.981913090E0,8.033743858E0,7.948749661E-1
9.565018500E0,-4.363432407E0,6.833051682E0,1.288080573E0
9.574968500E0,-2.912546396E0,5.750872612E0,9.301473498E-1
9.585013500E0,-1.510741234E0,5.385756493E0,6.464344859E-1
9.595126500E0,-4.094084799E-1,6.247669220E0,3.914519846E-1
9.604964500E0,1.089361757E-1,6.771999359E0,2.358288616E-1
9.615105500E0,2.238578647E-1,7.244854450E0,2.130839527E-1
9.624990500E0,-1.197100850E-3,7.989450932E0,3.363853395E-1
9.635078500E0,-3.064578176E-1,9.202114105E0,-2.346317619E-1
9.645133500E0,-6.117185354E-1,1.038245583E1,-8.571242094E-1
9.655125500E0,-1.723825216E0,1.131260300E1,-2.825157940E-1
9.665280500E0,-4.168305397E0,1.155920601E1,-4.261679053E-1
9.674966500E0,-5.761646271E0,1.128626728E1,-1.071405292E0
9.685004500E0,-5.947196960E0,1.039203262E1,-9.660604000E-1
9.695056500E0,-5.341464043E0,9.431957245E0,-2.298433632E-1
9.704970500E0,-4.352658749E0,9.006986618E0,6.464344263E-2
9.715006500E0,-3.456030130E0,8.984241486E0,3.339911401E-1
9.725126500E0,-2.770091295E0,8.992621422E0,1.161187813E-1
9.735081500E0,-2.144007683E0,8.665813446E0,4.824316502E-1
9.745126500E0,-1.127668977E0,7.562086105E0,3.088520169E-1
9.754982500E0,-8.667010069E-1,7.691372871E0,-2.154781483E-2
9.764985500E0,-8.942343593E-1,7.643488884E0,-1.771709323E-1
9.775059500E0,-8.259995580E-1,7.341819286E0,-1.029506698E-1
9.785132500E0,-5.231330991E-1,7.536946774E0,9.576806426E-2
9.794971500E0,-4.836287498E-1,7.969100475E0,2.956839204E-1
9.805018500E0,-6.619967818E-1,8.280346870E0,5.195417404E-1
9.815101500E0,-9.588778019E-1,8.441955566E0,3.076549172E-1
9.824963500E0,-1.258152962E0,8.517372131E0,3.076549172E-1
9.835019500E0,-1.375468850E0,8.518569946E0,-1.077390742E-2
9.845019500E0,-1.243787766E0,8.469488144E0,7.900865376E-2
9.855032500E0,-1.082179189E0,8.520963669E0,4.668693244E-2
9.864983500E0,-9.588778019E-1,8.705317497E0,-1.556231081E-1
9.874936500E0,-8.475474119E-1,9.101557732E0,-2.633621991E-1
9.885009500E0,-8.774749041E-1,9.601945877E0,-1.029506698E-1
9.895083500E0,-1.096544385E0,9.982624054E0,1.616086215E-1
9.904980500E0,-1.429338455E0,1.011430550E1,1.939303428E-1
9.915006500E0,-1.695094824E0,9.889249802E0,3.902548850E-1
9.924994500E0,-1.934514999E0,9.356540680E0,5.638344884E-1
9.935008500E0,-2.205059767E0,9.089587212E0,5.219359994E-1
9.945056500E0,-2.701856613E0,9.113529205E0,-1.903390288E-1
9.954998500E0,-2.986766577E0,9.336189270E0,-9.708487988E-1
9.964980500E0,-2.691082716E0,9.498994827E0,-1.017535686E0
9.974995500E0,-7.326257229E-1,1.027591324E1,-5.410895944E-1
9.984991500E0,-2.202665508E-1,1.087087250E1,-8.200140595E-1
9.995022500E0,-1.256955862E-1,1.152568722E1,-1.235408068E0
1.000499450E1,-4.429273307E-2,1.206318569E1,-1.727416515E0
1.001498350E1,-2.657563984E-1,1.230978775E1,-1.630451322E0
1.002495550E1,-4.860229492E-1,1.259709263E1,-9.097966552E-1
1.003510450E1,-5.985504389E-1,1.307114410E1,6.224924326E-2
1.004498150E1,-1.098938584E0,1.326268005E1,8.236053586E-1
1.005516150E1,-2.225410461E0,1.279222012E1,9.864110947E-1
1.006517450E1,-2.701856613E0,1.233612442E1,1.127668977E0
1.007505250E1,-2.381033659E0,1.250132370E1,1.971625090E0
1.008499850E1,-2.498349428E0,1.283890629E1,3.104082584E0
1.009508650E1,-2.922123194E0,1.259589481E1,2.965218782E0
1.010492850E1,-3.268085241E0,1.146583176E1,2.506729126E0
1.011496950E1,-3.379415751E0,9.749189377E0,2.580949545E0
1.012498650E1,-3.496731520E0,8.323442459E0,2.922123194E0
1.013499450E1,-3.493140221E0,7.623138428E0,2.974795580E0
1.014508450E1,-3.614047527E0,7.455543995E0,2.343923569E0
1.015497450E1,-3.556586742E0,8.048109055E0,6.045359373E-1
1.016503650E1,-3.447650433E0,9.329007149E0,1.349132657E0
1.017498850E1,-3.525461912E0,1.042195988E1,1.625662923E0
1.018505450E1,-3.586514235E0,1.133295345E1,1.334767461E0
1.019501550E1,-3.770867586E0,1.176031876E1,8.355764151E-1
1.020500950E1,-3.931279182E0,1.137485218E1,4.668693244E-1
1.021496750E1,-3.878606796E0,1.134013653E1,3.914519846E-1
1.022498950E1,-3.581725836E0,1.124795914E1,7.182604820E-2
1.023503250E1,-3.081337690E0,1.088164711E1,-2.681505978E-1
1.024496850E1,-2.711433411E0,1.033098030E1,-3.663128614E-1
1.025501850E1,-2.420537949E0,9.897629738E0,-5.877765417E-1
1.026496450E1,-2.225410461E0,9.670180321E0,-6.715735793E-1
1.027496650E1,-2.076969862E0,9.593565941E0,-6.200982332E-1
1.028495550E1,-1.932120800E0,9.538499832E0,-5.351040959E-1
1.029495150E1,-1.772906303E0,9.526528358E0,-6.212953329E-1
1.030494150E1,-1.502361536E0,9.562441826E0,-7.134721279E-1
1.031505450E1,-1.192312479E0,9.556455612E0,-9.935936928E-1
1.032497950E1,-8.894459605E-1,9.358934402E0,-1.323993564E0
1.033508050E1,-8.259995580E-1,9.174580574E0,-1.183932781E0
1.034498650E1,-8.475474119E-1,8.807070732E0,-1.663970232E0
1.035496350E1,-9.864110947E-1,8.422801971E0,-1.638831019E0
1.036503550E1,-1.058237195E0,7.948749542E0,-1.813607812E0
1.037498750E1,-1.003170490E0,7.364564419E0,-1.918952703E0
1.038580850E1,-8.643068075E-1,6.938396454E0,-2.427720547E0
1.039545850E1,-9.253589511E-1,6.788758755E0,-2.701856613E0
1.040539250E1,-1.046266198E0,6.406883717E0,-2.553416014E0
1.041497850E1,-9.768342972E-1,5.963956356E0,-2.266111851E0
1.042539050E1,-8.846575022E-1,5.228936672E0,-2.064998865E0
1.043495450E1,-8.152256608E-1,5.091269970E0,-2.104503393E0
1.044496750E1,-7.302315235E-1,5.029020786E0,-2.364274263E0
1.045495150E1,-6.057330370E-1,4.867412090E0,-2.568978310E0
1.046496450E1,-3.435679376E-1,4.667496204E0,-2.647987127E0
1.047492150E1,8.379706182E-3,4.553771496E0,-2.783259392E0
1.048495450E1,3.806780577E-1,4.712985992E0,-2.924517393E0
1.049493250E1,5.901707411E-1,5.165490150E0,-2.875436306E0
1.050495050E1,4.189853072E-1,5.815515995E0,-2.364274263E0
1.051493050E1,-2.106897533E-1,6.700173378E0,-1.158793569E0
1.052494050E1,-9.433154464E-1,7.805097580E0,5.877765417E-1
1.053492650E1,-1.884236693E0,9.165003777E0,1.353921056E0
1.054495950E1,-3.193865061E0,1.086129570E1,1.594538331E0
1.055499750E1,-4.744110584E0,1.282573891E1,1.218648672E0
1.056495950E1,-6.385335922E0,1.508466816E1,-3.256114423E-1
1.057504350E1,-6.511031628E0,1.724663162E1,-3.448847532E0
1.058494850E1,-5.492298603E0,1.704432106E1,-4.651933670E0
1.059496250E1,-5.813121796E0,1.453160763E1,-4.633977413E0
1.060495850E1,-5.637147903E0,1.310346603E1,-3.641580820E0
1.061567150E1,-5.075707436E0,1.323873806E1,-2.181117773E0
1.062495850E1,-4.346673012E0,1.411501598E1,-2.436100245E0
1.063494250E1,-3.475183725E0,1.467645645E1,-3.296815634E0
1.064494550E1,-1.957259893E0,1.494221306E1,-2.370259762E0
1.065494150E1,-2.270900249E0,1.452322769E1,2.908954918E-1
1.066496050E1,-5.137956619E0,1.264856720E1,9.828197956E-1
1.067507750E1,-5.946000099E0,1.220683765E1,2.154781520E-1
1.068496550E1,-6.828263283E0,1.050096893E1,-1.021126986E0
1.069525150E1,-6.335057735E0,8.956708908E0,-8.678981066E-1
1.070495450E1,-5.230133533E0,7.570465565E0,3.818751574E-1
1.071497750E1,-3.908534288E0,6.922834396E0,1.388636947E0
1.072496550E1,-2.755726099E0,6.617573261E0,1.273715258E0
1.073841450E1,-1.766920805E0,6.868964672E0,7.445967197E-1
1.075495050E1,-3.699041605E-1,8.299500465E0,1.951274425E-1
1.076495750E1,-1.927332431E-1,8.935160637E0,1.388636976E-1
1.077506450E1,-4.153940082E-1,9.600749016E0,1.484405100E-1
1.078495450E1,-1.037886381E0,1.012747288E1,-1.663970202E-1
1.079503650E1,-2.005143881E0,1.033457184E1,-2.849099934E-1
1.080497750E1,-2.825158119E0,1.027232265E1,-2.849099934E-1
1.081498950E1,-3.634398222E0,1.025556278E1,-5.219359994E-1
1.082496450E1,-4.514267445E0,1.043393135E1,-7.350199223E-1
1.083505050E1,-5.097255230E0,1.021965027E1,-1.301248670E0
1.084506550E1,-5.094861031E0,9.665391922E0,-7.637503147E-1
1.085494350E1,-4.426878929E0,9.285911560E0,-1.831564307E-1
1.086496550E1,-3.485957623E0,9.050082207E0,1.041477770E-1
1.087497250E1,-2.719813108E0,8.582015991E0,3.280056417E-1
1.088495650E1,-2.075772762E0,7.917624950E0,5.279214978E-1
1.089496350E1,-1.587355733E0,7.230489254E0,1.304839998E-1
1.090496150E1,-1.040280581E0,6.900089264E0,-9.935937077E-2
1.091506550E1,-8.643068075E-1,6.596025467E0,-8.858546615E-2
1.092496750E1,-4.596867263E-1,6.636727333E0,-2.513911761E-2
1.093508550E1,-2.968810201E-1,6.926425457E0,4.070143029E-2
1.094499850E1,-2.717418969E-1,7.425616741E0,1.628057212E-1
1.095505550E1,-3.854664862E-1,8.007407188E0,1.915361285E-1
1.096500450E1,-6.572083831E-1,8.354566574E0,-5.865794048E-2
1.097666750E1,-9.876081944E-1,8.507795334E0,-2.322375625E-1
1.098497250E1,-1.124077678E0,8.548497200E0,-1.149216816E-1
1.099497850E1,-1.082179189E0,8.583212852E0,-1.556231081E-1
1.100494050E1,-1.035492182E0,8.783128738E0,-3.160346150E-1
1.101495450E1,-1.049857497E0,9.156624794E0,-2.370259613E-1
1.102580850E1,-1.074996591E0,9.428366661E0,-2.968810201E-1
1.103499050E1,-1.282094955E0,9.691728592E0,4.788403399E-3
1.104502650E1,-1.540668845E0,9.906009674E0,5.003881454E-1
1.105496650E1,-1.807622313E0,9.926360130E0,4.920084476E-1
1.106497550E1,-1.959654093E0,9.955090523E0,1.723825186E-1
1.107498750E1,-2.161964178E0,1.000536919E1,-2.430114746E-1
1.108543350E1,-2.214636564E0,1.008677197E1,-8.068459630E-1
1.109518050E1,-1.934514999E0,1.015740108E1,-9.768342972E-1
1.110632650E1,-1.180341482E0,1.044829655E1,-7.817068696E-1
1.111512550E1,-4.237737060E-1,1.090319443E1,-5.530605912E-1
1.112545050E1,4.584896266E-1,1.223796177E1,-6.117185354E-1
1.113517050E1,5.674257874E-1,1.292150688E1,-9.708487988E-1
1.114500850E1,5.219359994E-1,1.337879944E1,-1.355118155E0
1.115491850E1,9.696517140E-2,1.326746845E1,-1.455674648E0
1.116495450E1,-3.459621370E-1,1.301847172E1,-1.101332784E0
1.117503150E1,-5.506663918E-1,1.316571522E1,-3.208230138E-1
1.118507850E1,-7.601590157E-1,1.352843666E1,5.973533392E-1
1.119511950E1,-1.456871748E0,1.331295872E1,1.211466074E0
1.120494550E1,-2.269703150E0,1.283651257E1,1.228225470E0
1.121495550E1,-2.606088638E0,1.269046593E1,2.097320795E0
1.122584450E1,-2.946065187E0,1.221880817E1,3.272873640E0
1.123493450E1,-3.576937437E0,1.131978607E1,3.211821556E0
1.124495450E1,-3.942053080E0,1.035611916E1,2.560598612E0
1.125498150E1,-3.932476282E0,9.064447403E0,2.292448044E0
1.126504150E1,-3.740940094E0,7.904457092E0,2.424129248E0
1.127494950E1,-3.518279314E0,7.510610580E0,2.536656618E0
1.128499350E1,-3.369838953E0,7.724891663E0,2.371456861E0
1.129495650E1,-3.259705544E0,8.362946510E0,1.921346903E0
1.130492850E1,-3.059789658E0,9.311050415E0,-2.489969730E-1
1.131499150E1,-2.689885616E0,1.079425812E1,2.849099934E-1
1.132510450E1,-3.165134668E0,1.149815369E1,1.091755986E0
1.133509150E1,-3.815160513E0,1.162384892E1,1.033097982E0
1.134495650E1,-4.232948780E0,1.154484081E1,7.817068696E-1
1.135504050E1,-4.356249809E0,1.134731865E1,3.986345828E-1
1.136501750E1,-3.914519787E0,1.155202293E1,3.028665185E-1
1.137502050E1,-3.337517262E0,1.106719780E1,2.968810201E-1
1.138495050E1,-2.875436306E0,1.058955383E1,-1.161187813E-1
1.139499950E1,-2.572569609E0,1.027950478E1,-8.319851160E-1
1.140498950E1,-2.449268341E0,9.934740067E0,-9.133879542E-1
1.141501550E1,-2.472013235E0,9.453505516E0,-6.572083831E-1
1.142504350E1,-2.369062662E0,9.190143585E0,-7.110779285E-1
1.143495750E1,-2.178723574E0,8.892065048E0,-1.018732786E0
1.144496150E1,-1.970427990E0,8.898050308E0,-1.268926859E0
1.145493450E1,-1.788468719E0,8.834604263E0,-1.285686255E0
1.146497050E1,-1.529894829E0,8.342596054E0,-1.418564558E0
1.147497050E1,-1.468842745E0,7.648277283E0,-1.498770237E0
1.148497750E1,-1.420958757E0,7.357381821E0,-2.111685991E0
1.149496050E1,-1.253364563E0,6.855796337E0,-2.146401882E0
1.150501850E1,-1.113303781E0,6.247669220E0,-1.947683096E0
1.151494050E1,-8.128314614E-1,5.967547894E0,-2.458845139E0
1.152516250E1,-4.022258818E-1,5.449203014E0,-2.430114746E0
1.153496050E1,-2.035071515E-2,5.135562420E0,-2.381033659E0
1.154496050E1,4.548983276E-2,5.035006046E0,-1.972822189E0
1.155493550E1,9.935937077E-2,5.131971359E0,-1.750161409E0
1.156495150E1,1.556231081E-2,5.285200119E0,-1.892616391E0
1.157499950E1,-3.746925592E-1,5.443217754E0,-2.250549555E0
1.158493150E1,-5.363011956E-1,5.494692802E0,-2.578555346E0
1.159506550E1,-2.920926213E-1,5.664681435E0,-3.015496969E0
1.160492550E1,-1.292868853E-1,5.979518890E0,-3.224989653E0
1.161496150E1,8.379706182E-3,6.314706802E0,-3.222595453E0
1.162498050E1,-1.807622313E-1,6.898892403E0,-2.772485495E0
1.163497750E1,-6.117185354E-1,7.722497463E0,-1.338358760E0
1.164497750E1,-1.209071875E0,8.589199066E0,1.747767180E-1
1.165506750E1,-2.128445387E0,9.619902611E0,-1.197100803E-2
1.166495450E1,-2.995146275E0,1.069968700E1,-3.112462163E-2
1.167499850E1,-3.931279182E0,1.220803452E1,-4.010287821E-1
1.168510350E1,-4.953603268E0,1.451005936E1,-2.264914751E0
1.169500250E1,-5.742492676E0,1.689947319E1,-4.204218388E0
1.170494450E1,-5.181052685E0,1.701918221E1,-4.988319397E0
1.171506850E1,-5.584475517E0,1.510741234E1,-4.144362926E0
1.172493650E1,-5.628767967E0,1.415332317E1,-2.841917515E0
1.173497350E1,-5.054159641E0,1.384447098E1,-1.131260276E0
1.174495850E1,-4.135983467E0,1.309987450E1,-1.256955862E0
1.175505750E1,-2.699462414E0,1.316810894E1,-1.902193308E0
1.176495150E1,-2.309207439E0,1.289636707E1,-1.004367590E0
1.177525750E1,-3.964797974E0,1.243787766E1,1.406593442E0
1.178493350E1,-5.576095581E0,1.198657036E1,9.852139950E-1
1.179499450E1,-6.438008308E0,1.153885555E1,-4.513070285E-1
1.180496050E1,-6.545747280E0,1.125753593E1,-1.041477770E-1
1.181496350E1,-6.011840343E0,9.598354340E0,9.337386489E-2
1.182510550E1,-3.084928989E0,7.887697697E0,2.112883091E0
1.183496350E1,-2.208651066E0,8.755595207E0,1.428141356E0
1.184496950E1,-1.414973259E0,9.762357712E0,4.860229492E-1
1.185496350E1,-8.355764151E-1,1.025556278E1,-3.052607179E-1
1.186498150E1,-4.501099288E-1,1.036449909E1,-5.578489900E-1
1.187586750E1,-2.609679997E-1,1.031781197E1,-1.939303428E-1
1.188495750E1,-6.631938815E-1,1.036928749E1,2.250549644E-1
1.189499650E1,-1.414973259E0,1.012867069E1,7.062894851E-2
1.190495350E1,-3.094505787E0,9.405621529E0,-4.632780254E-1
1.191497650E1,-4.396951199E0,8.878896713E0,-1.171961784E0
1.192495550E1,-4.952406406E0,8.647856712E0,-1.203086376E0
1.193494750E1,-5.039794445E0,8.403648376E0,-7.829039693E-1
1.194492450E1,-4.878185749E0,8.301894188E0,-5.829881430E-1
1.195502650E1,-4.466383457E0,8.325836182E0,-6.272808313E-1
1.196494650E1,-3.822343111E0,8.389283180E0,1.388636976E-1
1.197494750E1,-3.049015760E0,8.446743965E0,8.667010069E-1
1.198496250E1,-2.472013235E0,8.188169479E0,9.373299479E-1
1.199497950E1,-2.144007683E0,7.635109425E0,5.087678432E-1
1.200507150E1,-1.934514999E0,6.987477779E0,3.112462163E-1
1.201498650E1,-1.685518026E0,6.812700748E0,1.424549967E-1
1.202506850E1,-1.547851443E0,7.019799232E0,-2.154781483E-2
1.203504650E1,-1.404199243E0,6.918045998E0,-1.197100878E-1
1.204506850E1,-1.230619669E0,6.714538574E0,1.292868853E-1
1.205495650E1,-7.757213712E-1,7.657854080E0,4.692635238E-1
1.206500550E1,-8.032546639E-1,8.306682587E0,5.422866940E-1
1.207495850E1,-8.834604025E-1,8.796297073E0,1.855506301E-1
1.208500750E1,-8.750807047E-1,9.154230118E0,-3.208230138E-1
1.209496150E1,-7.374141216E-1,9.351752281E0,-7.577648163E-1
1.210494950E1,-6.440402865E-1,9.405621529E0,-8.224082589E-1
1.211501050E1,-4.740519226E-1,9.313444138E0,-8.295909166E-1
1.212495750E1,-3.519476354E-1,9.312247276E0,-8.894459605E-1
1.213501750E1,-3.423708379E-1,9.533711433E0,-7.793126702E-1
1.214506250E1,-3.016694188E-1,9.807847023E0,-4.489128292E-1
1.215503850E1,-3.914519846E-1,9.719262123E0,-9.097966552E-2
1.216496650E1,-6.308721304E-1,9.277531624E0,1.424549967E-1
1.217499050E1,-8.798691034E-1,8.944737434E0,2.035071403E-1
1.218495450E1,-1.246181965E0,8.995016098E0,-2.082955539E-1
1.219501150E1,-1.753752708E0,9.339780807E0,-6.476315856E-1
1.220496950E1,-2.100912094E0,9.560047150E0,-8.104372621E-1
1.221500650E1,-1.631648421E0,9.799467087E0,-8.032546639E-1
1.222503850E1,-6.560112834E-1,1.034893703E1,-7.158663273E-1
1.223500850E1,-4.788403399E-3,1.093551636E1,-8.271966577E-1
1.224536250E1,3.363853395E-1,1.175553036E1,-1.356315255E0
1.225500050E1,5.458779931E-1,1.279461384E1,-1.816002011E0
1.226502350E1,4.189853072E-1,1.353442192E1,-1.985990286E0
1.227500650E1,1.340752989E-1,1.389714336E1,-1.980004787E0
1.228493750E1,-3.591302410E-2,1.408508873E1,-1.413776159E0
1.229504050E1,-1.855506301E-1,1.408987713E1,8.930372596E-1
1.230511350E1,-4.632780254E-1,1.319803715E1,1.294066072E0
1.231495450E1,-1.025915384E0,1.303044319E1,1.361103654E0
1.232498250E1,-1.994369984E0,1.343386555E1,2.401384354E0
1.233500550E1,-2.972401381E0,1.309508610E1,3.630806923E0
1.234501350E1,-3.774458885E0,1.201290703E1,3.654748917E0
1.235497550E1,-4.018667698E0,1.065898609E1,2.896984100E0
1.236508450E1,-4.055777550E0,9.319430351E0,2.442085743E0
1.237503850E1,-4.120420933E0,8.305485725E0,2.521094322E0
1.238499250E1,-4.265270233E0,7.803900242E0,2.601300240E0
1.239497550E1,-4.377797604E0,7.884106159E0,2.256535053E0
1.240493550E1,-4.258087635E0,8.130708694E0,1.653196216E0
1.241506250E1,-3.678690910E0,8.777143478E0,1.460463107E-1
1.242501650E1,-2.857479811E0,9.931148529E0,1.206677675E0
1.243498050E1,-2.849100113E0,1.062187576E1,2.155978680E0
1.244496050E1,-3.074155092E0,1.098340034E1,1.836352706E0
1.245495050E1,-3.353079557E0,1.099058247E1,9.157821536E-1
1.246498550E1,-3.446453333E0,1.088164711E1,1.663970202E-1
1.247502450E1,-3.472789526E0,1.106240940E1,1.256955862E-1
1.248496950E1,-3.456030130E0,1.124915695E1,3.711012602E-1
1.249495350E1,-3.161543369E0,1.073679733E1,5.339069963E-1
1.250495850E1,-2.821566820E0,1.022084713E1,3.363853395E-1
1.251495850E1,-2.606088638E0,9.891644478E0,6.464344263E-2
1.252497550E1,-2.436100245E0,9.403226852E0,-5.255272985E-1
1.253504550E1,-2.436100245E0,9.198522568E0,-4.920084476E-1
1.254495750E1,-2.339135170E0,9.011775017E0,-7.996633649E-1
1.255496450E1,-2.258929253E0,9.125499725E0,-7.625532150E-1
1.256498950E1,-2.100912094E0,9.179368973E0,-7.410054207E-1
1.257496550E1,-1.831564307E0,9.012971878E0,-7.146692276E-1
1.258496350E1,-1.817199111E0,8.501810074E0,-5.770025849E-1
1.259498450E1,-1.873462796E0,8.218097687E0,-9.588778019E-1
1.260507150E1,-1.953668594E0,8.068459511E0,-1.449689150E0
1.261498650E1,-1.981201887E0,7.657854080E0,-1.471236944E0
1.262508250E1,-1.776497602E0,7.043741226E0,-1.748964310E0
1.263499450E1,-1.562216640E0,6.671442986E0,-2.343923569E0
1.264510250E1,-1.351526856E0,6.203376770E0,-2.190694571E0
1.265501850E1,-9.923965931E-1,5.768828869E0,-2.256535053E0
1.266497150E1,-9.385270476E-1,5.549759388E0,-1.985990286E0
1.267506950E1,-7.829039693E-1,5.322310448E0,-1.771709204E0
1.268496350E1,-5.339069963E-1,4.886565685E0,-1.825578809E0
1.269499750E1,-4.596867263E-1,4.928464413E0,-2.376245260E0
1.270497850E1,-5.111620426E-1,5.232527733E0,-2.928108692E0
1.271506050E1,-5.805938840E-1,5.425261021E0,-3.092111588E0
1.272497850E1,-5.638344884E-1,5.566518784E0,-3.147178173E0
1.273505250E1,-3.136404157E-1,5.863399982E0,-2.981978178E0
1.274498650E1,3.112462163E-2,6.488286495E0,-2.455253839E0
1.275531450E1,3.471592441E-2,8.293514252E0,-7.326257229E-1
1.276510450E1,-4.812345505E-1,9.552865028E0,-2.106897533E-1
1.277495250E1,-1.419761658E0,1.103008747E1,5.327098966E-1
1.278497750E1,-2.533065319E0,1.244146919E1,7.206547260E-1
1.279497150E1,-3.620033026E0,1.370441055E1,-1.322796464E0
1.280508050E1,-4.325125217E0,1.476623917E1,-2.221819162E0
1.281506750E1,-4.180276394E0,1.547971153E1,-3.448847532E0
1.282513050E1,-3.804386616E0,1.454597282E1,-4.847061157E0
1.283499350E1,-3.919308186E0,1.262821674E1,-4.819528103E0
1.284498350E1,-3.229778051E0,1.125274754E1,-4.584896088E0
1.285501750E1,-2.339135170E0,1.056202126E1,-3.132812977E0
1.286495550E1,-1.860294700E0,1.074278259E1,-8.164227605E-1
1.287509450E1,-1.934514999E0,1.189319706E1,-1.108515382E0
1.288494450E1,-1.395819545E0,1.261744308E1,-3.442862034E0
1.289502050E1,-1.954865694E0,1.217331886E1,-1.152808070E0
1.290499250E1,-2.792836189E0,1.183693314E1,-2.286462635E-1
1.291498450E1,-4.277241230E0,1.055842972E1,7.685387731E-1
1.292496250E1,-6.232107162E0,9.872490883E0,3.457227230E0
1.293504850E1,-7.580042362E0,1.117373943E1,1.731007814E0
1.294497850E1,-7.447164536E0,1.240435886E1,-3.591302633E-1
1.295501450E1,-6.588842869E0,1.183932781E1,-1.115697980E0
1.296503050E1,-5.189432144E0,1.099537086E1,4.836287498E-1
1.297497650E1,-3.305195332E0,1.176989555E1,2.685097218E0
1.298505550E1,-1.798045516E0,1.026154804E1,-3.327940404E-1
1.299498650E1,-1.616086125E0,8.892065048E0,-5.829881430E-1
1.300510150E1,-1.860294700E0,8.125920296E0,-5.410895944E-1
1.301502150E1,-2.472013235E0,7.668628216E0,2.992752194E-1
1.302545150E1,-2.859874010E0,7.559691906E0,1.783680320E-1
1.303521450E1,-3.165134668E0,7.709329605E0,-4.453215301E-1
1.304500750E1,-3.502717018E0,8.139088631E0,-1.268926859E0
1.305506450E1,-3.731363297E0,8.919598579E0,-1.657984734E0
1.306500050E1,-3.800795317E0,9.864110947E0,-9.540894032E-1
1.307504650E1,-3.617638826E0,1.044231033E1,-5.602431893E-1
1.308500950E1,-3.219004154E0,1.001614285E1,-2.250549644E-1
1.309505650E1,-2.662352324E0,9.194931984E0,7.254431248E-1
1.310552450E1,-1.960851192E0,8.452729225E0,8.439561129E-1
1.311497950E1,-1.357512355E0,7.671022415E0,5.327098966E-1
1.312504550E1,-9.313444495E-1,7.022193432E0,4.249708056E-1
1.313504250E1,-6.619967818E-1,6.812700748E0,3.136404157E-1
1.314499850E1,-5.937620401E-1,6.898892403E0,2.274491638E-2
1.315504650E1,-5.315127969E-1,6.794744492E0,-2.346317619E-1
1.316505050E1,-3.914519846E-1,6.557718277E0,-1.185129806E-1
1.317509950E1,-2.454056740E-1,6.704961777E0,-3.112462163E-2
1.318500350E1,-2.466027737E-1,7.224503517E0,1.723825186E-1
1.319500550E1,-3.112462163E-1,7.921216488E0,3.004723191E-1
1.320508250E1,-3.722983599E-1,8.574832916E0,1.675941199E-1
1.321509150E1,-4.106055796E-1,9.483432770E0,7.781155407E-2
1.322499650E1,-4.129997790E-1,9.935936928E0,-8.259996027E-2
1.323496150E1,-4.967968464E-1,1.019451046E1,-8.499415964E-2
1.324500550E1,-7.685387731E-1,9.983820915E0,1.927332431E-1
1.325547350E1,-1.025915384E0,9.635464668E0,3.675099611E-1
1.326498550E1,-1.262941360E0,9.342175484E0,4.333505034E-1
1.327502850E1,-1.559822440E0,9.042900085E0,5.889736414E-1
1.328505050E1,-1.855506301E0,8.852560997E0,2.537853718E-1
1.329501450E1,-2.141613483E0,8.892065048E0,-6.715735793E-1
1.330500050E1,-2.206256866E0,9.125499725E0,-1.672349930E0
1.331496450E1,-1.909375906E0,9.519346237E0,-1.902193308E0
1.332500750E1,-1.157596469E0,1.001255131E1,-1.357512355E0
1.333501650E1,-3.292027414E-1,1.060751057E1,-6.943184733E-1
1.334497650E1,5.027823523E-2,1.119289303E1,-7.086837292E-1
1.335501150E1,2.561795712E-1,1.202487850E1,-1.201889277E0
1.336500350E1,4.692635238E-1,1.293467426E1,-1.440112352E0
1.337586750E1,3.351882398E-1,1.348174953E1,-1.310825467E0
1.338501850E1,-1.149216816E-1,1.365532970E1,-8.667010069E-1
1.339500350E1,-6.619967818E-1,1.368406010E1,-1.460463107E-1
1.340502550E1,-1.438915253E0,1.370441055E1,6.955155730E-1
1.341504650E1,-2.650381327E0,1.330098724E1,1.304839969E0
1.342503050E1,-2.800018787E0,1.332971764E1,1.613691926E0
1.343502950E1,-2.319981337E0,1.418085670E1,2.724601507E0
1.344498150E1,-2.608482838E0,1.448132896E1,3.902548790E0
1.345505750E1,-3.399766445E0,1.243189240E1,3.149572372E0
1.346538250E1,-3.184288263E0,1.058237171E1,2.857479811E0
1.347501250E1,-3.055001259E0,8.893261909E0,3.178302765E0
1.348498450E1,-3.113659382E0,7.902062893E0,3.722983599E0
1.349501450E1,-3.329137564E0,7.411251545E0,3.608062029E0
1.350514950E1,-3.653551817E0,7.383718014E0,2.499546528E0
1.351504350E1,-4.080916882E0,7.884106159E0,2.298433632E-1
1.352503550E1,-3.689464808E0,9.272743225E0,-1.856703401E0
1.353505750E1,-3.882198095E0,1.036928749E1,3.830722570E-1
1.354529850E1,-4.371812344E0,1.064821243E1,1.308431268E0
1.355498250E1,-4.395754337E0,1.068053341E1,6.284779310E-1
1.356508350E1,-4.347870350E0,1.052371311E1,7.182605099E-3
1.357516850E1,-4.207809448E0,1.070088482E1,1.580173075E-1
1.358558050E1,-3.857059002E0,1.107797146E1,3.268085420E-1
1.359502650E1,-3.202244759E0,1.079306126E1,-3.591302410E-2
1.360505150E1,-2.567781210E0,1.055723286E1,-4.297592044E-1
1.361512450E1,-2.227804661E0,1.048181534E1,-5.243301988E-1
1.362501850E1,-2.116474390E0,1.044111347E1,-4.249708056E-1
1.363500350E1,-2.152387381E0,1.028788471E1,-4.620809257E-1
1.364505850E1,-2.148796082E0,1.001255131E1,-8.295909166E-1
1.365503050E1,-2.021903276E0,9.583989143E0,-1.085770488E0
1.366504250E1,-1.739387512E0,9.380482674E0,-9.995791912E-1
1.367502750E1,-1.430535555E0,9.102754593E0,-1.555034041E0
1.368494850E1,-8.319851160E-1,8.221688271E0,-1.768117905E0
1.369536450E1,-4.908113480E-1,7.593210697E0,-1.709460020E0
1.370503750E1,-5.829881430E-1,7.516596317E0,-1.995567083E0
1.371500750E1,-6.440402865E-1,7.225700855E0,-1.997961283E0
1.372498650E1,-4.884171486E-1,6.670246124E0,-2.335543871E0
1.373496950E1,-5.722141862E-1,6.373364925E0,-2.737769604E0
1.374501350E1,-3.447650373E-1,6.011840343E0,-2.625242233E0
1.375504850E1,-2.501940727E-1,5.729324818E0,-2.602497339E0
1.376502350E1,-3.148375154E-1,5.444414616E0,-2.364274263E0
1.377500950E1,-4.285621047E-1,5.178658485E0,-2.367865562E0
1.378499350E1,-5.650315881E-1,5.012261391E0,-2.476801634E0
1.379504750E1,-7.266402245E-1,5.037400246E0,-2.698265314E0
1.380786650E1,-9.133879542E-1,4.979939461E0,-2.919728994E0
1.382511550E1,-6.416460276E-1,4.802768707E0,-3.102885485E0
1.383658550E1,-3.543418646E-1,5.026626587E0,-3.242946148E0
1.384501350E1,-1.053448766E-1,5.402516365E0,-2.747346401E0
1.385540150E1,-2.418143749E-1,6.084863663E0,-1.929726601E0
1.386497550E1,-7.505822182E-1,7.177816868E0,-1.436520964E-1
1.387500850E1,-1.307234168E0,8.435969353E0,1.043871999E0
1.388501050E1,-2.087743998E0,9.732429504E0,7.469909191E-1
1.389511550E1,-2.943670988E0,1.139161205E1,9.313444495E-1
1.390502950E1,-4.054580688E0,1.343027401E1,2.956839204E-1
1.391506650E1,-5.972336292E0,1.789546013E1,-3.599682331E0
1.392503950E1,-5.640739441E0,1.600643539E1,-4.523844242E0
1.393501250E1,-5.386953831E0,1.344583702E1,-4.514267445E0
1.394512050E1,-4.625597477E0,1.233732128E1,-4.244919777E0
1.395507650E1,-3.609259129E0,1.124317074E1,-3.722983599E0
1.396498250E1,-3.086126089E0,1.113662910E1,-2.364274263E0
1.397497250E1,-2.659958124E0,1.163941193E1,-2.557007313E0
1.398495750E1,-1.329979062E0,1.283292103E1,-3.570951939E0
1.399643950E1,-1.054645896E0,1.320282555E1,-2.139219284E0
1.400504950E1,-2.303221941E0,1.332732391E1,1.802833915E0
1.401497450E1,-3.550601006E0,1.326028633E1,1.363497853E0
1.402504450E1,-5.075707436E0,1.219845772E1,-4.369418025E-1
1.403503550E1,-6.487089634E0,1.110670185E1,1.286883354E0
1.404511150E1,-7.614758492E0,1.003170490E1,4.465186298E-1
1.405682450E1,-6.951564789E0,9.064447403E0,1.640028208E-1
1.406657750E1,-5.396530628E0,8.552088737E0,9.528923035E-1
1.407654750E1,-3.702632904E0,8.505401611E0,1.829170108E0
1.408678150E1,-2.305616140E0,9.082404137E0,1.787271619E0
1.409554650E1,-1.307234168E0,9.763554573E0,8.954314590E-1
1.410505650E1,-1.102529883E0,9.779116631E0,2.130839527E-1
1.411505450E1,-1.079784989E0,9.634267807E0,5.027823523E-2
1.412535850E1,-1.441309452E0,9.357737541E0,3.579331636E-1
1.413505450E1,-1.847126603E0,9.178172112E0,4.955997467E-1
1.414502750E1,-2.229001760E0,9.260771751E0,-1.556231141E0
1.415507050E1,-2.728192806E0,9.279925346E0,-7.685387731E-1
1.416497550E1,-3.602076530E0,9.610325813E0,-2.238578647E-1
1.417502850E1,-4.378994942E0,1.000058079E1,-8.678981066E-1
1.418502850E1,-4.831499100E0,9.829395294E0,-7.757213712E-1
1.419667950E1,-4.328716755E0,9.258378029E0,-2.956839204E-1
1.420502650E1,-3.350685358E0,8.942343712E0,6.344634295E-1
1.421546550E1,-2.640804529E0,8.655038834E0,9.816226959E-1
1.422862350E1,-2.248155355E0,8.180987358E0,8.319851160E-1
1.423817850E1,-2.033874273E0,7.544129372E0,6.033388376E-1
1.425505250E1,-1.514332533E0,6.800729752E0,2.537853718E-1
1.427088750E1,-1.309628367E0,7.091625214E0,-8.379706182E-3
1.428508950E1,-9.325415492E-1,6.624756336E0,3.124433160E-1
1.429522850E1,-5.123591423E-1,7.091625214E0,4.501099288E-1
1.430503550E1,-4.225766063E-1,7.839813232E0,5.458779931E-1
1.431506850E1,-6.320692301E-1,8.504204750E0,2.717418969E-1
1.432542250E1,-8.463503122E-1,8.933963776E0,-1.759738177E-1
1.433531850E1,-9.445125461E-1,9.090784073E0,-4.417302012E-1
1.434499750E1,-8.367735147E-1,9.090784073E0,-6.320692301E-1
1.435501450E1,-5.410895944E-1,9.233239174E0,-7.841010690E-1
1.436502950E1,-3.567360640E-1,9.488221169E0,-6.452373862E-1
1.437509150E1,-4.932055473E-1,9.868899345E0,-5.590460896E-1
1.438501050E1,-6.200982332E-1,9.634267807E0,-1.472434103E-1
1.439499250E1,-6.643909812E-1,9.135076523E0,4.201824069E-1
1.440513850E1,-7.888894677E-1,8.750806808E0,6.368576288E-1
1.441502250E1,-1.165976286E0,9.005789757E0,3.363853395E-1
1.442506850E1,-1.945288897E0,9.530119896E0,-4.489128292E-1
1.443505950E1,-2.534262419E0,9.971850395E0,-8.224082589E-1
1.444559450E1,-2.321178436E0,1.015141487E1,-7.110779285E-1
1.445510250E1,-1.452083349E0,1.021366405E1,-7.565677166E-1
1.446502450E1,-6.392518282E-1,1.049258900E1,-9.265560508E-1
1.447502550E1,-1.640028208E-1,1.108994198E1,-1.222239971E0
1.448499850E1,7.541735470E-2,1.175792408E1,-1.723825216E0
1.449500750E1,7.302315533E-2,1.220683765E1,-2.195482969E0
1.450506450E1,-1.987187415E-1,1.231337929E1,-2.306813240E0
1.451512250E1,-5.099649429E-1,1.241273880E1,-2.042253971E0
1.452502050E1,-5.267243981E-1,1.300051498E1,-9.612720013E-1
1.453785050E1,-4.237737060E-1,1.341590881E1,4.369418025E-1
1.455504750E1,-1.364694953E0,1.215775585E1,9.720458984E-1
1.456500150E1,-1.774103403E0,1.237802315E1,7.338228226E-1
1.457498750E1,-2.237381458E0,1.321000767E1,2.081758261E0
1.458497050E1,-2.917334795E0,1.334647751E1,3.677493811E0
1.459525050E1,-3.690661907E0,1.251808357E1,4.216189384E0
1.460498750E1,-4.088099480E0,1.114860058E1,3.400963545E0
1.461501650E1,-3.404554844E0,8.898050308E0,3.374627352E0
1.462500450E1,-2.971204281E0,8.388085365E0,2.910152197E0
1.463572050E1,-2.749740601E0,8.463502884E0,2.485181332E0
1.464518150E1,-2.795230389E0,8.832210541E0,2.328361034E0
1.465697750E1,-2.773682594E0,9.313444138E0,2.232593060E0
1.466513850E1,-2.568978310E0,9.920374870E0,1.191115379E0
1.467504950E1,-2.322375536E0,1.074876881E1,1.199495077E0
1.468501350E1,-2.734178305E0,1.111029339E1,2.038662672E0
1.469503050E1,-3.283647537E0,1.103367901E1,1.896207690E0
1.470505550E1,-3.573346138E0,1.076313400E1,1.140837073E0
1.471497750E1,-3.709815502E0,1.035013390E1,4.692635238E-1
1.472504450E1,-3.724180698E0,1.015979481E1,2.980781198E-1
1.473550650E1,-3.643975019E0,1.014183807E1,3.866635859E-1
1.474790950E1,-3.531447411E0,1.036928749E1,2.753331959E-1
1.476587950E1,-2.791639090E0,9.799467087E0,2.454056740E-1
1.477504750E1,-2.610877037E0,9.423578262E0,6.344634295E-2
1.478579750E1,-2.397793055E0,9.358934402E0,-2.705447972E-1
1.479499650E1,-2.237381458E0,9.470264435E0,-4.812345505E-1
1.480497350E1,-2.017114878E0,9.757569313E0,-4.489128292E-1
1.481510250E1,-1.848323703E0,9.987412453E0,-4.453215301E-1
1.482506850E1,-1.812410712E0,1.007958889E1,-5.554547906E-1
1.483523450E1,-1.642422318E0,9.995792389E0,-1.041477680E0
1.484509150E1,-1.237802267E0,8.870517731E0,-1.126471877E0
1.485520350E1,-1.059434295E0,8.349778175E0,-1.734599113E0
1.486503450E1,-9.792284966E-1,7.881711960E0,-1.940500498E0
1.487501250E1,-9.361328483E-1,7.362170219E0,-1.702277422E0
1.488569050E1,-8.451532125E-1,6.910863400E0,-2.221819162E0
1.489502950E1,-7.637503147E-1,6.574477673E0,-2.517503023E0
1.490499850E1,-6.284779310E-1,6.115988255E0,-2.258929253E0
1.491498150E1,-3.914519846E-1,5.698200226E0,-2.361880064E0
1.492508250E1,-3.495534360E-1,5.398924828E0,-2.372653961E0
1.493559850E1,-2.597708702E-1,5.133168221E0,-2.219424963E0
1.494500850E1,-1.616086215E-1,4.738125324E0,-2.252943754E0
1.495510550E1,3.351882473E-2,4.441244125E0,-2.337938070E0
1.496497350E1,6.224924326E-2,4.528632641E0,-2.796427488E0
1.497500750E1,-8.379705995E-2,4.769249916E0,-2.867056608E0
1.498504350E1,6.584054977E-2,4.896142483E0,-2.802412987E0
1.499504950E1,3.423708379E-1,5.161899090E0,-2.894589901E0
1.500500350E1,5.853823423E-1,5.612008572E0,-2.442085743E0
1.501586150E1,5.698199868E-1,6.351817131E0,-1.618480325E0
1.502498550E1,1.412578970E-1,7.388506413E0,-4.824316502E-1
1.503506850E1,-7.637503147E-1,8.653841972E0,2.047042400E-1
1.504499850E1,-1.707065821E0,9.829395294E0,1.177947283E0
1.505504850E1,-2.640804529E0,1.118570995E1,1.819593310E-1
1.506503650E1,-3.223792553E0,1.268926907E1,-1.903390288E-1
1.507499450E1,-3.908534288E0,1.664448929E1,-3.627215624E0
1.508534350E1,-3.476380825E0,1.599805546E1,-4.944026470E0
1.509496550E1,-4.060565948E0,1.388996124E1,-4.001908302E0
1.510512950E1,-4.042609692E0,1.271919632E1,-2.213439465E0
1.511498950E1,-3.871424198E0,1.243787766E1,-1.005564705E-1
1.512500450E1,-3.830722809E0,1.302565479E1,6.703764945E-2
1.513499150E1,-3.239354849E0,1.380017853E1,-9.217676520E-1
1.514504250E1,-3.145981073E0,1.413416958E1,6.823474914E-2
1.515526450E1,-4.280832767E0,1.414374638E1,2.061407566E0
1.516499950E1,-5.568912983E0,1.451963615E1,1.502361536E0
1.517504550E1,-6.913257599E0,1.397615242E1,1.109712481E0
1.518514850E1,-8.558073997E0,1.142872143E1,-3.483563364E-1
1.519503450E1,-9.058462143E0,7.857769966E0,-1.783680320E0
1.520507150E1,-6.523002625E0,6.562506676E0,-5.901707411E-1
1.521539150E1,-3.914519787E0,6.702567577E0,1.971625090E0
1.522506050E1,-1.877054095E0,7.835024834E0,2.857479811E0
1.523571650E1,-4.955997467E-1,9.166201591E0,1.182735682E0
1.524501250E1,1.197100850E-3,9.815030098E0,-9.229647517E-1
1.525508650E1,6.344634295E-2,1.029267311E1,-2.076969862E0
1.526500150E1,-3.256114423E-1,1.071764374E1,-1.351526856E0
1.527501450E1,-1.826775908E0,1.087326717E1,7.374141216E-1
1.528499150E1,-3.787626982E0,1.077031612E1,2.825157940E-1
1.529498850E1,-4.787206173E0,1.089960289E1,-2.741360962E-1
1.530505250E1,-5.323507309E0,1.089601231E1,-1.338358760E0
1.531498550E1,-5.189432144E0,1.030823517E1,-6.883329749E-1
1.532500450E1,-4.757278919E0,9.539696693E0,-2.370259613E-1
1.533555450E1,-3.758896589E0,9.100360870E0,-4.704606235E-1
1.534502450E1,-2.530671120E0,9.017760277E0,-3.830722719E-2
1.535517050E1,-1.502361536E0,8.741230011E0,4.572925270E-1
1.536499850E1,-7.422025204E-1,8.224082947E0,5.351040959E-1
1.537505150E1,-2.932897210E-1,7.495048523E0,8.439561129E-1
1.538507950E1,-5.267243832E-2,6.773196697E0,1.155202270E0
1.539571450E1,1.520318091E-1,6.663063526E0,7.769184709E-1
1.540503950E1,-2.633621916E-2,6.558915615E0,2.130839527E-1
1.541502750E1,-3.519476354E-1,5.728127480E0,9.337386489E-2
1.542498350E1,-1.520318091E-1,5.688623428E0,4.812345505E-1
1.543504250E1,-1.544260085E-1,6.484695435E0,3.794809580E-1
1.544498950E1,-6.500257850E-1,7.341819286E0,2.370259613E-1
1.545500750E1,-1.159990668E0,8.210914612E0,1.687912196E-1
1.546503750E1,-1.434126854E0,8.554482460E0,2.585737705E-1
1.547500050E1,-1.460463047E0,8.623914719E0,2.885012925E-1
1.548501850E1,-1.429338455E0,8.744821548E0,1.149216816E-1
1.549498250E1,-1.337161660E0,9.163806915E0,-1.185129806E-1
1.550502050E1,-1.416170359E0,9.691728592E0,-2.693476975E-1
1.551501650E1,-1.708262920E0,9.947908401E0,-3.711012751E-2
1.552499350E1,-1.869871497E0,9.747992516E0,6.212953329E-1
1.553513050E1,-1.776497602E0,8.633491516E0,8.978256583E-1
1.554499050E1,-2.018311977E0,8.372523308E0,2.370259613E-1
1.555498750E1,-2.488772631E0,8.631096840E0,-5.279214978E-1
1.556498150E1,-2.466027737E0,9.186552048E0,-1.241393566E0
1.557499750E1,-1.696291924E0,9.795876503E0,-1.403002143E0
1.558504650E1,-7.912836671E-1,1.055004978E1,-7.984662652E-1
1.559501050E1,-1.999158412E-1,1.133175659E1,-6.057330370E-1
1.560500550E1,7.302315533E-2,1.188960552E1,-1.015141487E0
1.561498350E1,2.298433632E-1,1.233372974E1,-1.581370234E0
1.562495950E1,3.220201433E-1,1.258512115E1,-1.985990286E0
1.563512650E1,3.280056417E-1,1.267490387E1,-1.970427990E0
1.564499050E1,2.765302956E-1,1.294784260E1,-1.388636947E0
1.565499450E1,6.584054977E-2,1.327704525E1,-5.303156972E-1
1.566496550E1,-3.244143426E-1,1.344463921E1,1.616086215E-1
1.567502350E1,-9.385270476E-1,1.321240234E1,5.985504389E-1
1.568505850E1,-1.327584863E0,1.313459015E1,8.415619135E-1
1.569497650E1,-1.872265697E0,1.364216137E1,1.995567083E0
1.570499150E1,-2.510320425E0,1.360864258E1,3.167528868E0
1.571502250E1,-3.011905670E0,1.264617348E1,2.996343374E0
1.572500250E1,-3.282450438E0,1.132217979E1,2.428917646E0
1.573504850E1,-3.359065056E0,9.652224541E0,2.486378431E0
1.574496250E1,-3.581725836E0,8.064867973E0,3.072957993E0
1.575512650E1,-3.740940094E0,7.179013729E0,3.039438963E0
1.576506350E1,-3.999513865E0,7.298723698E0,2.722207308E0
1.577500450E1,-4.109647274E0,8.039729118E0,1.534683347E0
1.578503350E1,-3.605667830E0,9.635464668E0,1.070208192E0
1.579501750E1,-3.651157618E0,1.101452446E1,1.899798989E0
1.580500950E1,-3.884592295E0,1.163941193E1,1.950077295E0
1.581497050E1,-3.955221176E0,1.167412758E1,1.277306557E0
1.582497450E1,-3.847482204E0,1.153047562E1,6.045359373E-1
1.583499150E1,-3.885789394E0,1.160828686E1,4.668693244E-1
1.584500150E1,-3.690661907E0,1.188362026E1,5.602431893E-1
1.585495950E1,-3.338714361E0,1.180939960E1,8.978256583E-2
1.586501450E1,-2.697068214E0,1.134851646E1,-2.059013397E-1
1.587500850E1,-2.184709072E0,1.073440361E1,-3.603273630E-1
1.588501450E1,-1.930923700E0,1.024478912E1,-6.308721304E-1
1.589499650E1,-1.866280198E0,9.925163269E0,-5.877765417E-1
1.590505050E1,-1.796848416E0,9.855731010E0,-6.165069342E-1
1.591510450E1,-1.823184609E0,9.862914085E0,-9.744400978E-1
1.592514350E1,-1.759738207E0,9.890447617E0,-1.235408068E0
1.593554850E1,-1.534683347E0,9.860519409E0,-1.272518158E0
1.594506750E1,-1.377863050E0,9.871294022E0,-1.386242747E0
1.595498250E1,-1.307234168E0,9.708487511E0,-1.696291924E0
1.596501750E1,-1.210268974E0,9.324218750E0,-1.690306425E0
1.597501350E1,-1.036689281E0,8.696937561E0,-1.617283225E0
1.598500850E1,-8.643068075E-1,8.189367294E0,-2.339135170E0
1.599513650E1,-8.978256583E-1,7.783549786E0,-2.079364061E0
1.600503150E1,-4.584896266E-1,6.390124321E0,-2.385822058E0
1.601503550E1,-4.393360019E-1,5.922058105E0,-2.381033659E0
1.602501350E1,-3.699041605E-1,5.415684223E0,-2.042253971E0
1.603502850E1,-4.441244006E-1,5.029020786E0,-2.104503393E0
1.604500750E1,-6.284779310E-1,4.802768707E0,-2.130839586E0
1.605500250E1,-7.996633649E-1,4.650736809E0,-2.218227863E0
1.606497650E1,-9.109937549E-1,4.556165695E0,-2.462436438E0
1.607504750E1,-9.720458984E-1,4.431667328E0,-2.665943623E0
1.608504250E1,-8.248024583E-1,4.323928356E0,-2.853888512E0
1.609515950E1,-5.698199868E-1,4.431667328E0,-3.025073767E0
1.610501850E1,-2.825157940E-1,4.891354084E0,-3.134010077E0
1.611499050E1,-1.795651317E-1,5.525817394E0,-2.585737944E0
1.612501850E1,-2.561795712E-1,6.335057735E0,-1.362300754E0
1.613508950E1,-5.781996846E-1,7.381323814E0,-5.267243832E-2
1.614504150E1,-1.088164687E0,8.578424454E0,6.799532771E-1
1.615501150E1,-1.732204914E0,9.859322548E0,1.291671872E0
1.616501450E1,-2.473210335E0,1.139879417E1,1.109712481E0
1.617498750E1,-3.337517262E0,1.350449467E1,-1.879448295E-1
1.618527650E1,-3.961206675E0,1.633922958E1,-2.788047791E0
1.619507750E1,-3.999513865E0,1.738310051E1,-4.455609322E0
1.620502350E1,-4.352658749E0,1.498770237E1,-5.068524837E0
1.621498950E1,-4.663905144E0,1.293587208E1,-4.672284603E0
1.622499950E1,-4.529829502E0,1.242351246E1,-3.567360640E0
1.623507250E1,-3.746925592E0,1.397615242E1,-3.350685358E0
1.624511450E1,-1.960851192E0,1.461660099E1,-3.954024076E0
1.625498550E1,-1.107318282E0,1.453040981E1,-1.430535555E0
1.626500050E1,-2.703053713E0,1.423113537E1,1.418564558E0
1.627494650E1,-4.207809448E0,1.361821938E1,2.537853718E-1
1.628501250E1,-5.731719017E0,1.234570122E1,-3.519476354E-1
1.629513650E1,-6.649895191E0,1.144907284E1,-3.746925592E-1
1.630498350E1,-7.107187748E0,9.551667213E0,-1.301248670E0
1.631501750E1,-6.284779549E0,8.008605003E0,-8.355764151E-1
1.632504850E1,-5.443217754E0,6.920440197E0,8.224082589E-1
1.633503850E1,-4.419696331E0,6.719326973E0,9.828197956E-1
1.634502750E1,-2.879027605E0,7.394492149E0,1.040280581E0
1.635499350E1,-1.768117905E0,8.251616478E0,5.351040959E-1
1.636499750E1,-1.040280581E0,8.652645111E0,-2.717418969E-1
1.637534950E1,-7.194576263E-1,9.039308548E0,-6.272808313E-1
1.638510450E1,-1.150413871E0,9.299078941E0,-2.920926213E-1
1.639504850E1,-2.093729496E0,9.767146111E0,-1.148019671E0
1.640503450E1,-2.906560898E0,9.897629738E0,1.041477770E-1
1.641572250E1,-3.460818529E0,1.002332497E1,-4.129997790E-1
1.642500150E1,-3.875015497E0,1.051892471E1,-2.015917778E0
1.643499650E1,-4.399345398E0,1.056441498E1,-8.008604646E-1
1.644499650E1,-4.465186119E0,1.039322948E1,-1.029506683E0
1.645500550E1,-4.016273499E0,1.004966164E1,-9.576807022E-1
1.646501950E1,-2.167949677E0,9.254786491E0,8.140286058E-2
1.647500750E1,-1.249773264E0,8.706514359E0,4.991910458E-1
1.648500750E1,-6.464344859E-1,7.971494675E0,5.722141862E-1
1.649509750E1,-2.585737705E-1,7.193378925E0,6.859387755E-1
1.650496650E1,-6.224924326E-2,6.578069210E0,7.062895298E-1
1.651530250E1,-9.576806799E-3,6.494272232E0,3.890577853E-1
1.652496350E1,-2.298433632E-1,6.720524311E0,-2.513911761E-2
1.653498250E1,-6.356605291E-1,6.353013992E0,5.267243832E-2
1.654506250E1,-6.895300746E-1,6.287173748E0,3.519476354E-1
1.655496650E1,-7.146692276E-1,6.883329868E0,3.232172430E-1
1.656498150E1,-1.109712481E0,7.559691906E0,3.303998411E-1
1.657514250E1,-1.503558636E0,8.124723434E0,2.801215947E-1
1.658500550E1,-1.696291924E0,8.601169586E0,6.105214357E-2
1.659515650E1,-1.692700624E0,8.977059364E0,-4.668693244E-2
1.660497350E1,-1.470039845E0,9.209297180E0,-1.233013868E-1
1.661506350E1,-1.252167463E0,9.447520256E0,-3.148375154E-1
1.662502850E1,-1.074996591E0,9.854534149E0,-5.003881454E-1
1.663499350E1,-1.126471877E0,9.967061996E0,-2.920926213E-1
1.664508250E1,-1.097741485E0,9.628282547E0,2.537853718E-1
1.665498450E1,-1.006761789E0,9.148244858E0,7.841010690E-1
1.666502550E1,-9.516952038E-1,8.939949036E0,5.351040959E-1
1.667500850E1,-1.194706678E0,9.169792175E0,-6.464344263E-2
1.668497150E1,-1.465251446E0,9.588777542E0,-5.722141862E-1
1.669504350E1,-5.303156972E-1,1.058237171E1,-1.292868972E0
1.670500750E1,1.137245819E-1,1.151491261E1,-1.246181965E0
1.671498750E1,3.327940404E-1,1.231337929E1,-1.341950059E0
1.672497050E1,2.908954918E-1,1.270123959E1,-1.544260144E0
1.673496350E1,1.951274425E-1,1.291552067E1,-1.892616391E0
1.674512850E1,2.489969730E-1,1.310945129E1,-1.684320927E0
1.675500650E1,2.154781520E-1,1.324951267E1,-1.310825467E0
1.676506550E1,1.520318091E-1,1.387918758E1,-5.027823448E-1
1.677502750E1,8.858546615E-2,1.472673512E1,1.414973259E0
1.678498350E1,-3.555389643E-1,1.450766563E1,2.609679937E0
1.679496950E1,-1.391031146E0,1.338239002E1,2.408566952E0
1.680496650E1,-2.270900249E0,1.277426338E1,2.223016262E0
1.681511750E1,-3.083731890E0,1.263899040E1,2.652775526E0
1.682504350E1,-3.641580820E0,1.239717674E1,2.779668093E0
1.683512850E1,-4.055777550E0,1.176869869E1,2.450465441E0
1.684499550E1,-4.400542736E0,1.048420906E1,2.070984364E0
1.685501850E1,-4.742913723E0,8.888473511E0,1.974019289E0
1.686501450E1,-4.747702122E0,8.117541313E0,2.606088638E0
1.687500950E1,-4.623203278E0,8.014590263E0,3.499125719E0
1.688503350E1,-4.259284973E0,8.505401611E0,3.716998100E0
1.689499450E1,-3.798400879E0,9.411606789E0,3.114856482E0
1.690505350E1,-2.989160776E0,1.058596325E1,6.464344263E-2
1.691618150E1,-2.960430384E0,1.189918232E1,1.508347094E-1
1.692501050E1,-3.626018524E0,1.141435623E1,3.004723191E-1
1.693512850E1,-3.907337189E0,1.093910789E1,4.872200489E-1
1.694499050E1,-3.892971992E0,1.070208168E1,7.565677166E-1
1.695501350E1,-3.708618402E0,1.027471638E1,1.265335560E0
1.696506850E1,-3.685873508E0,9.653421402E0,9.445125461E-1
1.697504550E1,-3.616441727E0,9.252392769E0,1.592144072E-1
1.698502350E1,-3.476380825E0,9.180566788E0,-5.518634915E-1
1.699495350E1,-3.290830135E0,9.174580574E0,-4.321534038E-1
1.700499450E1,-3.098097086E0,9.078812599E0,-2.633621916E-2
1.701503650E1,-2.833537817E0,8.956708908E0,-2.849099934E-1
1.702496750E1,-2.535459518E0,9.017760277E0,-6.165069342E-1
1.703504850E1,-2.261323452E0,9.044096947E0,-6.584054828E-1
1.704505350E1,-1.916558504E0,8.872911453E0,-9.588778019E-1
1.705501050E1,-1.388636947E0,8.526948929E0,-1.268926859E0
1.706499850E1,-9.588778019E-1,8.159439087E0,-1.720233917E0
1.707514950E1,-9.097966552E-1,7.876923561E0,-2.229001760E0
1.708503350E1,-9.325415492E-1,7.417236805E0,-1.748964310E0
1.709495650E1,-7.469909191E-1,6.902483463E0,-1.944091797E0
1.710497550E1,-6.524199843E-1,6.584054470E0,-2.003946781E0
1.711524450E1,-3.579331636E-1,6.131550789E0,-1.902193308E0
1.712498050E1,-2.920926213E-1,5.753266811E0,-2.063801765E0
1.713499950E1,-3.902548850E-1,5.546168327E0,-1.783680320E0
1.714496850E1,-4.249708056E-1,5.219359875E0,-1.577778935E0
1.715500450E1,-4.608838260E-1,4.872200489E0,-2.316390038E0
1.716504050E1,-9.205705523E-1,4.996698856E0,-2.847903013E0
1.717516950E1,-8.583213091E-1,4.973954201E0,-3.049015760E0
1.718528450E1,-6.847416759E-1,4.991910458E0,-3.274070740E0
1.719499850E1,-3.722983599E-1,5.124788761E0,-3.550601006E0
1.720503250E1,-8.379705995E-2,5.477933407E0,-3.448847532E0
1.721500750E1,-2.873042040E-2,5.954379559E0,-2.792836189E0
1.722502450E1,-3.699041605E-1,6.678625584E0,-2.240972757E0
1.723505550E1,-1.028309584E0,7.704541206E0,-9.325415492E-1
1.724498550E1,-1.765723705E0,8.774748802E0,-4.908113480E-1
1.725500750E1,-2.485181332E0,1.004008484E1,4.429273307E-2
1.726501150E1,-3.293224335E0,1.142872143E1,1.197100878E-1
1.727505950E1,-4.100070477E0,1.320402241E1,-9.552865028E-1
1.728508450E1,-4.856637955E0,1.547133160E1,-2.906560898E0
1.729499550E1,-4.637568474E0,1.665765762E1,-4.659116745E0
1.730514450E1,-4.566939831E0,1.474708557E1,-5.349843502E0
1.731502050E1,-4.639962673E0,1.248935318E1,-5.093664169E0
1.732501450E1,-3.846285105E0,1.163941193E1,-4.707000732E0
1.733519950E1,-2.851494312E0,1.154603767E1,-2.195482969E0
1.734500550E1,-2.536656618E0,1.276348972E1,-4.070142806E-1
1.735501350E1,-1.746570110E0,1.397615242E1,-1.772906303E0
1.736501250E1,-1.156399369E0,1.496495819E1,-1.710657120E0
1.737502350E1,-2.407369852E0,1.542464447E1,1.343147159E0
1.738507350E1,-3.318363667E0,1.564610767E1,9.014169574E-1
1.739498750E1,-6.816292286E0,1.223676491E1,1.703474522E0
1.740499450E1,-8.449137688E0,9.713275909E0,1.339555860E0
1.741507850E1,-7.984662533E0,7.653065681E0,3.926490843E-1
1.742501650E1,-5.801150799E0,6.957550049E0,-1.352723986E-1
1.743500150E1,-4.192247391E0,7.274781704E0,1.100135684E0
1.744501450E1,-2.817975283E0,8.425195694E0,1.131260276E0
1.745503150E1,-1.584961534E0,9.235632896E0,4.740519226E-1
1.746497150E1,-9.421183467E-1,9.307458878E0,-5.937620401E-1
1.747503850E1,-9.732429981E-1,9.273940086E0,-1.276109457E0
1.748499550E1,-1.495178938E0,9.284713745E0,-1.145625472E0
1.749500050E1,-2.166752577E0,9.154230118E0,2.466027737E-1
1.750502250E1,-2.529474020E0,9.203310966E0,3.339911401E-1
1.751506550E1,-2.816778183E0,9.493009567E0,-5.746083856E-1
1.752499550E1,-3.458424330E0,9.635464668E0,-9.409212470E-1
1.753497850E1,-4.076128483E0,9.906009674E0,-1.114500880E0
1.754499950E1,-4.363432407E0,1.016218948E1,-9.097966552E-1
1.755498750E1,-4.465186119E0,1.004487324E1,-8.846575022E-1
1.756499450E1,-3.988739967E0,9.732429504E0,-1.508347094E-1
1.757505850E1,-3.069366693E0,9.496601105E0,7.182605267E-1
1.758498150E1,-2.099714994E0,9.042900085E0,7.362170219E-1
1.759497550E1,-1.431732655E0,8.312667847E0,3.842693865E-1
1.760500050E1,-1.007958889E0,7.497442722E0,3.663128614E-1
1.761499250E1,-7.098808289E-1,6.830657482E0,4.572925270E-1
1.762501250E1,-6.512228847E-1,6.726509571E0,1.113303825E-1
1.763512350E1,-6.727706790E-1,6.355408192E0,-1.436521020E-2
1.764496150E1,-4.740519226E-1,6.339846134E0,2.178723514E-1
1.765497850E1,-3.615244627E-1,6.991068840E0,2.418143749E-1
1.766511750E1,-4.776432514E-1,7.794323444E0,9.217676520E-2
1.767508750E1,-7.206547260E-1,8.365341187E0,6.584054977E-2
1.768499950E1,-9.265560508E-1,8.752004623E0,-1.316810995E-1
1.769499150E1,-9.588778019E-1,9.029731750E0,-2.238578647E-1
1.770504650E1,-8.295909166E-1,9.163806915E0,-4.848258495E-1
1.771505550E1,-6.619967818E-1,9.214085579E0,-8.140285611E-1
1.772499950E1,-6.847416759E-1,9.284713745E0,-9.528923035E-1
1.773593750E1,-8.104372621E-1,9.253589630E0,-5.841852427E-1
1.774507850E1,-8.702923059E-1,8.942343712E0,1.149216816E-1
1.775500350E1,-8.990227580E-1,8.427590370E0,7.781155705E-1
1.776515050E1,-9.947907925E-1,8.230068207E0,9.385270476E-1
1.777498750E1,-1.319205165E0,8.769960403E0,4.656722248E-1
1.778505250E1,-1.957259893E0,9.643844604E0,-2.968810201E-1
1.779504650E1,-2.285265446E0,1.036449909E1,-1.031900883E0
1.780502050E1,-1.994369984E0,1.078348446E1,-1.128866076E0
1.781502850E1,-1.168370485E0,1.115578270E1,-1.194706678E0
1.782498250E1,-3.830722570E-1,1.162744045E1,-1.515529633E0
1.783498650E1,8.738835901E-2,1.208233929E1,-1.958456993E0
1.784497350E1,4.644751251E-1,1.241513252E1,-2.658761024E0
1.785502750E1,7.745242715E-1,1.275391293E1,-2.634819031E0
1.786506350E1,6.512228847E-1,1.323155594E1,-1.391031146E0
1.787500750E1,3.064578176E-1,1.363737297E1,-1.939303428E-1
1.788498150E1,-3.363853395E-1,1.347696114E1,9.337386489E-1
1.789499950E1,-1.039083481E0,1.310466290E1,1.430535555E0
1.790528150E1,-1.691503525E0,1.317648888E1,1.963245392E0
1.791508150E1,-2.528276920E0,1.312740803E1,2.863465309E0
1.792497050E1,-3.209427357E0,1.239957047E1,3.296815634E0
1.793500750E1,-3.562572241E0,1.127309895E1,3.101688385E0
1.794498950E1,-3.493140221E0,9.993397713E0,3.207033157E0
1.795505250E1,-3.434482336E0,8.491036415E0,3.451241732E0
1.796500750E1,-3.562572241E0,7.492654324E0,3.283647537E0
1.797501250E1,-3.616441727E0,7.188590527E0,2.776076794E0
1.798501150E1,-3.569754839E0,7.565677166E0,1.739387512E0
1.799504150E1,-3.214215755E0,8.892065048E0,5.602431893E-1
1.800499850E1,-3.178302765E0,1.051413631E1,1.944091797E0
1.801502850E1,-3.362656355E0,1.150294209E1,2.412158251E0
1.802496650E1,-3.627215624E0,1.194706631E1,1.976413488E0
1.803507750E1,-3.794809580E0,1.193629265E1,1.101332784E0
1.804516150E1,-3.665522814E0,1.175553036E1,5.758054852E-1
1.805499350E1,-3.536235809E0,1.157596493E1,7.517793179E-1
1.806500350E1,-3.238157749E0,1.144667816E1,5.853823423E-1
1.807510450E1,-2.801215887E0,1.115578270E1,-9.097966552E-2
1.808499150E1,-2.059013367E0,1.054765606E1,-1.640028208E-1
1.809542450E1,-1.959654093E0,1.021366405E1,-2.035071515E-2
1.810501050E1,-1.927332401E0,9.913191795E0,-1.915361285E-1
1.811546250E1,-1.853112102E0,9.698910713E0,-5.973533392E-1
1.812496850E1,-1.684320927E0,9.689333916E0,-6.057330370E-1
1.813501550E1,-1.623268723E0,9.710882187E0,-8.307880163E-1
1.814506650E1,-1.646013618E0,9.734824181E0,-7.422025204E-1
1.815501550E1,-1.590947032E0,9.667786598E0,-7.182605267E-1
1.816508150E1,-1.507149935E0,9.446322441E0,-9.253589511E-1
1.817500050E1,-1.382651448E0,8.924386978E0,-1.259350061E0
1.818500750E1,-1.339555860E0,8.432378769E0,-1.634042621E0
1.819613950E1,-1.339555860E0,8.005013466E0,-1.999158382E0
1.820499850E1,-1.303642869E0,7.601590633E0,-2.121262789E0
1.821496550E1,-1.200692177E0,7.226897717E0,-2.090138197E0
1.822497950E1,-1.018732786E0,6.752845764E0,-2.060210466E0
1.823498950E1,-9.014169574E-1,6.417657852E0,-2.388216257E0
1.824543950E1,-8.774749041E-1,6.082469463E0,-2.468421936E0
1.825500850E1,-7.841010690E-1,5.541379929E0,-2.050633669E0
1.826500550E1,-6.691793799E-1,5.052962780E0,-2.060210466E0
1.827507450E1,-5.925649405E-1,4.663905144E0,-2.086546898E0
1.828498250E1,-5.398924947E-1,4.398148537E0,-2.123656988E0
1.829501550E1,-5.925649405E-1,4.393360138E0,-2.482787132E0
1.830497850E1,-6.835445762E-1,4.461595058E0,-3.066972494E0
1.831509250E1,-1.568202078E-1,4.866214752E0,-3.082534790E0
1.832515050E1,5.267243832E-2,5.471948147E0,-2.729389906E0
1.833501050E1,-6.224924326E-2,6.135141850E0,-1.812410712E0
1.834509150E1,-5.386953950E-1,6.941987991E0,-7.757213712E-1
1.835501850E1,-1.326387763E0,7.952341080E0,-2.442085743E-1
1.836503350E1,-2.031480074E0,8.881291389E0,2.885012925E-1
1.837496950E1,-2.760514498E0,9.952696800E0,1.279700756E0
1.838499250E1,-4.472368717E0,1.127309895E1,5.398924947E-1
1.839507650E1,-5.220556736E0,1.332852077E1,-1.085770488E0
1.840506250E1,-4.740519524E0,1.560660362E1,-2.748543501E0
1.841501050E1,-3.752911091E0,1.569758320E1,-4.480748653E0
1.842501550E1,-3.877409697E0,1.379778481E1,-4.623203278E0
1.843504250E1,-3.699041605E0,1.244027233E1,-3.757699490E0
1.844553150E1,-2.904166698E0,1.162265205E1,-3.302801132E0
1.845499750E1,-2.170343876E0,1.153286934E1,-1.533486247E0
1.846502250E1,-2.066195965E0,1.207755089E1,-8.451532125E-1
1.847499050E1,-2.062604666E0,1.307593250E1,-2.928108692E0
1.848497650E1,-1.323993564E0,1.480813789E1,-3.570951939E0
1.849515550E1,-1.853112102E0,1.561139202E1,-3.268085420E-1
1.850500750E1,-3.022679567E0,1.595855141E1,1.218648672E0
1.851498350E1,-4.212597847E0,1.497812557E1,-6.380547285E-1
1.852515850E1,-5.767632008E0,1.309269238E1,1.744175911E0
1.853506250E1,-7.606379032E0,1.141794777E1,2.123656988E0
1.854502350E1,-7.955932140E0,9.593565941E0,-6.284779310E-1
1.855498150E1,-4.860229492E0,8.783128738E0,2.262520641E-1
1.856498350E1,-3.744531393E0,8.506598473E0,1.352723956E0
1.857502750E1,-2.011129379E0,8.573636055E0,1.411381960E0
1.858498650E1,-4.680664241E-1,8.361749649E0,1.347935557E0
1.859514250E1,-1.747767180E-1,8.117541313E0,8.511387110E-1
1.860498650E1,-5.279214978E-1,7.982268333E0,4.022258818E-1
1.861503350E1,-1.072602391E0,8.078036308E0,7.745242715E-1
1.862504550E1,-1.899798989E0,8.236053467E0,6.536170840E-1
1.863503150E1,-2.470816135E0,8.244433403E0,1.316810995E-1
1.864516650E1,-2.888604403E0,8.315062523E0,2.166752517E-1
1.865510350E1,-3.453635931E0,8.921992302E0,-3.651157618E-1
1.866500850E1,-4.466383457E0,1.022563553E1,-9.445125461E-1
1.867502650E1,-5.585672379E0,1.106360626E1,-9.648633003E-1
1.868500850E1,-5.817910194E0,1.099417400E1,-6.955155730E-1
1.869528850E1,-5.088875771E0,1.038484955E1,1.915361360E-2
1.870509750E1,-3.895366192E0,9.819818497E0,4.764461517E-1
1.871504850E1,-2.840720415E0,9.235632896E0,6.081272364E-1
1.872496750E1,-2.287659645E0,8.578424454E0,8.978256583E-1
1.873547950E1,-1.835155606E0,7.837419033E0,7.194576263E-1
1.874502050E1,-1.408987641E0,7.146692276E0,4.800374508E-1
1.875500250E1,-1.022324085E0,7.003039837E0,4.106055796E-1
1.876497450E1,-8.032546639E-1,7.177816868E0,1.975216419E-1
1.877509450E1,-6.488286853E-1,6.852205276E0,-9.935937077E-2
1.878499950E1,2.382230759E-1,7.238868713E0,2.154781483E-2
1.879504150E1,4.405331016E-1,7.831433773E0,2.513911761E-2
1.880503650E1,3.758896589E-1,8.313865662E0,-2.466027737E-1
1.881520950E1,1.077390742E-2,8.487444878E0,-5.159504414E-1
1.882501750E1,-2.011129409E-1,8.565256119E0,-6.428431273E-1
1.883497550E1,-2.059013397E-1,8.772355080E0,-5.781996846E-1
1.884500850E1,-1.628057212E-1,9.117119789E0,-3.172317147E-1
1.885503250E1,-6.224924326E-2,9.495404243E0,-8.858546615E-2
1.886558650E1,-5.626374111E-2,9.737217903E0,-1.496376097E-1
1.887508450E1,-2.454056740E-1,9.910798073E0,-1.280897856E-1
1.888503450E1,-5.374982953E-1,9.951498985E0,9.097966552E-2
1.889517050E1,-8.403648138E-1,9.655815125E0,2.765302956E-1
1.890507450E1,-9.876081944E-1,9.191340446E0,3.471592367E-1
1.891507350E1,-1.079784989E0,9.010578156E0,2.896983922E-1
1.892498250E1,-1.493981838E0,9.301473618E0,-2.226607651E-1
1.893498950E1,-2.035071373E0,9.746794701E0,-1.070208192E0
1.894505650E1,-2.112883091E0,1.013704967E1,-1.270123959E0
1.895517450E1,-1.399410844E0,1.042794514E1,-8.930372596E-1
1.896501850E1,-6.009446383E-1,1.069489861E1,-5.398924947E-1
1.897514050E1,-2.406172752E-1,1.100973606E1,-6.584054828E-1
1.898505150E1,-3.351882473E-2,1.157357121E1,-1.136048675E0
1.899517050E1,1.017535701E-1,1.229302883E1,-1.674744129E0
1.900501950E1,1.915361360E-2,1.305917358E1,-1.400607944E0
1.901503150E1,-3.615244627E-1,1.394023895E1,2.454056740E-1
1.902502250E1,-6.212953329E-1,1.408987713E1,1.073799491E0
1.903501250E1,-1.204283476E0,1.405755520E1,1.267729759E0
1.904508150E1,-2.042253971E0,1.419402504E1,1.341950059E0
1.905504150E1,-2.814383984E0,1.440710831E1,2.161964178E0
1.906535650E1,-3.373430252E0,1.397615242E1,3.214215755E0
1.907514850E1,-3.927687883E0,1.281616211E1,3.460818529E0
1.908517150E1,-4.436455727E0,1.134731865E1,2.958036184E0
1.909502850E1,-4.574122429E0,9.767146111E0,2.782062292E0
1.910499750E1,-4.356249809E0,8.206126213E0,2.524685621E0
1.911503050E1,-4.140771866E0,7.351396084E0,2.229001760E0
1.912501350E1,-4.039018154E0,7.286752701E0,2.134430885E0
1.913503450E1,-3.859453201E0,7.545326710E0,1.655590534E0
1.914500450E1,-2.984372377E0,8.395268440E0,-6.835445762E-1
1.915501850E1,-2.494758129E0,9.576807022E0,-3.076549172E-1
1.916502550E1,-2.440888643E0,1.053209305E1,2.585737705E-1
1.917515650E1,-2.608482838E0,1.109233665E1,9.935937077E-2
1.918499450E1,-2.840720415E0,1.123239708E1,-6.823474914E-2
1.919505250E1,-3.002328873E0,1.118451309E1,1.843535304E-1
1.920497050E1,-2.821566820E0,1.075595093E1,4.405331016E-1
1.921513850E1,-2.519897223E0,1.012867069E1,4.620809257E-1
1.922505950E1,-2.287659645E0,9.998186111E0,-6.224924326E-2
1.923497850E1,-2.041056871E0,1.013704967E1,-4.848258495E-1
1.924502250E1,-1.763329506E0,1.028549004E1,-1.085770488E0
1.925514850E1,-1.792060018E0,1.014064121E1,-1.304839969E0
1.926527450E1,-1.844732404E0,1.000177765E1,-1.223437071E0
1.927506550E1,-1.917755604E0,9.831789017E0,-9.804255962E-1
1.928501150E1,-1.905784607E0,9.588777542E0,-1.041477680E0
1.929514150E1,-1.872265697E0,9.096769333E0,-9.445125461E-1
1.930503050E1,-1.866280198E0,8.814253807E0,-1.493981838E0
1.931502450E1,-1.821987510E0,8.682572365E0,-1.918952703E0
1.932498750E1,-1.863885999E0,8.368931770E0,-1.590947032E0
1.933499450E1,-1.782483220E0,7.785943985E0,-1.595735431E0
1.934499050E1,-1.710657120E0,7.360973358E0,-1.853112102E0
1.935500550E1,-1.587355733E0,6.866570473E0,-2.138022184E0
1.936498950E1,-1.306037068E0,6.291962147E0,-1.884236693E0
1.937498650E1,-9.612720013E-1,5.838260651E0,-2.171540976E0
1.938501850E1,-5.410895944E-1,5.504269600E0,-1.892616391E0
1.939498250E1,-3.483563364E-1,5.246892929E0,-1.649604917E0
1.940501150E1,1.795651205E-2,5.086481571E0,-1.493981838E0
1.941501750E1,1.939303428E-1,4.981136799E0,-1.818396211E0
1.942502650E1,-2.394201700E-3,4.990713596E0,-2.381033659E0
1.943498550E1,-3.100491166E-1,5.027823448E0,-2.811989784E0
1.944502950E1,-3.088520169E-1,5.018246651E0,-3.183091164E0
1.945499650E1,-1.233013868E-1,5.094861031E0,-3.041833162E0
1.946499750E1,8.619125932E-2,5.479130745E0,-2.743755102E0
1.947501750E1,-1.017535701E-1,6.357802391E0,-1.726219416E0
1.948497850E1,-7.374141216E-1,7.141903877E0,-1.064222693E0
1.949501850E1,-1.501164436E0,8.028955460E0,-3.495534360E-1
1.950501350E1,-2.129642487E0,9.068038940E0,1.544260085E-1
1.951499450E1,-2.864662409E0,1.060391903E1,3.447650373E-1
1.952498950E1,-3.669114113E0,1.217810726E1,-2.011129409E-1
1.953511850E1,-4.442441463E0,1.380496693E1,-1.661576033E0
1.954503250E1,-3.746925592E0,1.548689365E1,-3.181894064E0
1.955503650E1,-3.134010077E0,1.555273438E1,-4.535815239E0
1.956503150E1,-3.685873508E0,1.402643108E1,-4.290409565E0
1.957513950E1,-3.709815502E0,1.337161636E1,-2.537853718E0
1.958516650E1,-3.612850428E0,1.411022758E1,-1.343147159E0
1.959502050E1,-3.653551817E0,1.528218937E1,-2.179920673E0
1.960500450E1,-2.846705914E0,1.645894051E1,-3.155557871E0
1.961517450E1,-2.021903276E0,1.703354836E1,-1.810016513E0
1.962501850E1,-3.143586874E0,1.643260384E1,1.203086376E0
1.963499050E1,-4.929661274E0,1.479137802E1,1.782483220E0
1.964531950E1,-6.264428616E0,1.357392693E1,6.607996821E-1
1.965498750E1,-7.823053837E0,1.180221748E1,-7.074866295E-1
1.966502750E1,-8.058882713E0,8.931569099E0,-1.842338204E0
1.967500750E1,-6.585251808E0,6.664260387E0,-5.315127969E-1
1.968503650E1,-4.697423935E0,5.809530258E0,6.679822803E-1
1.969498650E1,-3.196259260E0,5.697002888E0,8.307880163E-1
1.970497750E1,-1.772906303E0,6.003460884E0,5.638344884E-1
1.971504150E1,3.244143426E-1,7.979874134E0,3.064578176E-1
1.972505050E1,3.627215624E-1,8.287528992E0,-1.963245422E-1
1.973502250E1,-1.316810958E-2,8.767566681E0,-8.738835901E-2
1.974502950E1,-1.127668977E0,9.764751434E0,-7.864952683E-1
1.975501250E1,-2.346317768E0,1.056321812E1,2.346317619E-1
1.976500550E1,-3.458424330E0,1.113423538E1,6.883329749E-1
1.977495150E1,-4.424484730E0,1.118930149E1,-3.052607179E-1
1.978494750E1,-5.305551052E0,1.095466995E1,-8.104372621E-1
1.979500050E1,-5.877765179E0,1.054166985E1,-5.674257874E-1
1.980499150E1,-5.585672379E0,9.867702484E0,-6.093243361E-1
1.981500650E1,-4.635174274E0,9.367314339E0,1.173158810E-1
1.982500950E1,-3.422511339E0,9.218873978E0,1.328781992E-1
1.983516850E1,-2.266111851E0,9.198522568E0,1.544260085E-1
1.984502450E1,-1.441309452E0,8.871714592E0,3.818751574E-1
1.985510050E1,-7.757213712E-1,8.353369713E0,6.524199843E-1
1.986497650E1,-4.752490520E-1,7.636306286E0,6.584054828E-1
1.987510750E1,-3.842693865E-1,7.044938564E0,4.477157295E-1
1.988515350E1,-3.651157618E-1,7.074865818E0,1.376665980E-1
1.989502250E1,-5.542576909E-1,7.074865818E0,4.788403399E-3
1.990501050E1,-6.488286853E-1,6.787561893E0,3.591302410E-2
1.991499350E1,-5.063736439E-1,7.000645638E0,2.454056740E-1
1.992507350E1,-5.686228871E-1,7.433996201E0,2.657563984E-1
1.993495950E1,-8.762778044E-1,7.740454197E0,5.027823523E-2
1.994498750E1,-1.272518158E0,8.147468567E0,-4.692635238E-1
1.995505850E1,-1.276109457E0,8.254010201E0,-4.920084476E-1
1.996501950E1,-1.086967587E0,8.337807655E0,-2.896983922E-1
1.997503650E1,-7.505822182E-1,8.565256119E0,-2.657563984E-1
1.998502250E1,-4.225766063E-1,8.943540573E0,-2.633621991E-1
1.999498850E1,-3.423708379E-1,9.276334763E0,-4.788403213E-2
2.000504250E1,-4.884171486E-1,9.676166534E0,3.028665185E-1
2.001504350E1,-8.475474119E-1,9.986215591E0,7.445967197E-1
2.002512750E1,-1.236605167E0,1.001374817E1,8.822633028E-1
2.003502350E1,-1.613691926E0,9.761159897E0,9.696516991E-1
2.004536050E1,-1.875856996E0,9.484629631E0,8.236053586E-1
2.005500850E1,-2.069787264E0,9.289502144E0,-8.499415964E-2
2.006506550E1,-2.419340849E0,9.324218750E0,-9.516952038E-1
2.007503350E1,-2.706645012E0,9.821015358E0,-1.274912357E0
2.008507350E1,-2.541445017E0,1.043871975E1,-1.219845772E0
2.009497750E1,-1.831564307E0,1.088763237E1,-1.217451572E0
2.010502650E1,-9.888052940E-1,1.117613316E1,-1.121683478E0
2.011499950E1,-3.076549172E-1,1.148618221E1,-1.115697980E0
2.012508850E1,3.292027414E-1,1.194586945E1,-1.393425345E0
2.013499550E1,7.781155705E-1,1.252167511E1,-1.614889026E0
2.014533050E1,6.835445762E-1,1.310226917E1,-1.471236944E0
2.015510250E1,1.556231081E-2,1.329859352E1,-9.995791912E-1
2.016505450E1,-3.627215624E-1,1.359906578E1,-1.699883193E-1
2.017539950E1,-1.459265947E0,1.393066216E1,1.696291924E0
2.018500350E1,-2.268506050E0,1.319923401E1,2.170343876E0
2.019499650E1,-2.588132143E0,1.313937855E1,2.627636433E0
2.020501750E1,-2.896984100E0,1.347097588E1,4.088099480E0
2.021502050E1,-3.329137564E0,1.309388924E1,4.896142483E0
2.022499150E1,-3.812766314E0,1.199614716E1,5.507861137E0
2.023500750E1,-4.000710964E0,1.013345909E1,5.172672749E0
2.024498550E1,-3.773261786E0,8.481459618E0,4.250905037E0
2.025524650E1,-3.159149170E0,7.568071365E0,3.238157749E0
2.026503350E1,-2.562992811E0,7.606379032E0,2.363077164E0
2.027537150E1,-2.343923569E0,8.330624580E0,1.807622313E0
2.028506450E1,-2.297236443E0,9.121908188E0,1.669955730E0
2.029501950E1,-2.148796082E0,9.866505623E0,1.581370234E0
2.030501150E1,-1.932120800E0,1.040639782E1,1.963245422E-1
2.031500450E1,-2.005143881E0,1.068412495E1,8.762778044E-1
2.032503150E1,-2.410961151E0,1.057159805E1,1.618480325E0
2.033501150E1,-2.718616009E0,1.028429317E1,1.438915253E0
2.034572850E1,-2.906560898E0,1.002212811E1,8.678981066E-1
2.035496750E1,-3.011905670E0,1.001733971E1,3.447650373E-1
2.036497350E1,-3.135207176E0,1.026394272E1,3.950432688E-2
2.037504050E1,-2.929305792E0,1.006881523E1,1.520318091E-1
2.038499850E1,-2.554613113E0,9.642647743E0,2.442085743E-1
2.039514550E1,-2.268506050E0,9.343372345E0,1.448491961E-1
2.040497250E1,-1.952471495E0,9.076418877E0,-7.278373241E-1
2.041500650E1,-1.868674397E0,9.020154953E0,-1.115697980E0
2.042503150E1,-1.778891921E0,9.143456459E0,-9.552865028E-1
2.043499350E1,-1.720233917E0,9.319430351E0,-9.433154464E-1
2.044506150E1,-1.576581836E0,9.212887764E0,-1.193509579E0
2.045501250E1,-1.425747156E0,8.859743118E0,-1.055842996E0
2.046500650E1,-1.361103654E0,8.579621315E0,-1.498770237E0
2.047500750E1,-1.426944256E0,8.406042099E0,-1.545457244E0
2.048497050E1,-1.418564558E0,8.067262650E0,-1.273715258E0
2.049514350E1,-1.339555860E0,7.454347134E0,-1.559822440E0
2.050503250E1,-1.315613866E0,7.164648533E0,-1.975216389E0
2.051499150E1,-9.325415492E-1,6.648698330E0,-2.133233786E0
2.052501950E1,-5.901707411E-1,6.169857979E0,-2.396595955E0
2.053513250E1,-2.573766708E-1,5.770026207E0,-2.299630642E0
2.054507650E1,-2.226607651E-1,5.473145008E0,-2.026691675E0
2.055499350E1,-1.089361757E-1,5.246892929E0,-1.873462796E0
2.056499450E1,-1.903390288E-1,5.135562420E0,-2.136825085E0
2.057503350E1,-5.231330991E-1,5.210979939E0,-2.659958124E0
2.058502250E1,-6.081272364E-1,5.179855347E0,-3.035847664E0
2.059510150E1,-4.285621047E-1,5.058948040E0,-3.219004154E0
2.060505350E1,-7.541735470E-2,5.200206280E0,-3.138798475E0
2.061501550E1,3.004723191E-1,5.737704277E0,-3.108870983E0
2.062504850E1,5.003881454E-1,6.178237438E0,-2.901772499E0
2.063498250E1,4.429273307E-2,7.617152691E0,-1.004367590E0
2.064501850E1,-6.883329749E-1,8.504204750E0,5.434837937E-1
2.065496650E1,-1.612494826E0,9.556455612E0,1.410184860E0
2.066512050E1,-2.335543871E0,1.091037750E1,1.374271750E0
2.067514950E1,-3.132812977E0,1.271799946E1,7.422025204E-1
2.068500650E1,-4.362235546E0,1.527740097E1,-1.805228114E0
2.069500150E1,-5.260061264E0,1.659421158E1,-3.895366192E0
