"Time (s)","Acceleration x (m/s^2)","Acceleration y (m/s^2)","Acceleration z (m/s^2)"
0.000000000E0,5.407840014E-1,9.413866043E0,-2.844295025E0
7.496094000E-3,-7.623680234E-1,9.250971794E0,-5.925250053E-1
9.994844000E-3,-1.035454988E0,9.318045616E0,-3.146469891E-1
1.249354200E-2,-1.318124056E0,9.332419395E0,-9.905199707E-2
1.499224000E-2,-1.543300986E0,9.447402954E0,2.794370055E-1
1.749197900E-2,-1.749313951E0,9.548013687E0,7.681189775E-1
1.999171900E-2,-1.821179032E0,9.672579765E0,1.137025952E0
2.249041700E-2,-1.873880029E0,9.869010925E0,1.309502006E0
2.500609400E-2,-1.782850981E0,1.007502365E1,1.400531054E0
2.752171900E-2,-1.672657967E0,1.024750042E1,1.539469957E0
3.002041700E-2,-1.567255974E0,1.046309471E1,1.596961975E0
3.251916700E-2,-1.452272058E0,1.071222687E1,1.601752996E0
3.501786500E-2,-1.155230045E0,1.098531437E1,1.448441029E0
3.751661500E-2,-9.731720090E-1,1.126319218E1,1.333456993E0
4.001531300E-2,-8.198599815E-1,1.150753307E1,1.184936047E0
4.251401100E-2,-5.755190253E-1,1.174229240E1,9.214310050E-1
4.501270800E-2,-4.030430019E-1,1.195788670E1,4.806590080E-1
4.751145800E-2,-2.257760018E-1,1.223097420E1,4.467799887E-2
5.001015600E-2,-6.767299771E-2,1.241782284E1,-2.427819967E-1
5.250885400E-2,5.210199952E-2,1.264299965E1,-5.110780001E-1
5.500755200E-2,1.958319992E-1,1.281068516E1,-7.745829821E-1
5.757375000E-2,3.395619988E-1,1.286817741E1,-1.004551053E0
6.007244800E-2,5.120379925E-1,1.282984924E1,-1.229727983E0
6.257119800E-2,7.084689736E-1,1.282505798E1,-1.387830973E0
6.506989600E-2,1.082167029E0,1.277235699E1,-1.512397051E0
6.756859400E-2,1.489402056E0,1.268132782E1,-1.502815008E0
7.006729200E-2,1.762488961E0,1.258550835E1,-1.445322990E0
7.256604200E-2,1.954128981E0,1.239865875E1,-1.426159024E0
7.506474000E-2,2.073904037E0,1.225971985E1,-1.426159024E0
7.756343800E-2,2.164932966E0,1.204891586E1,-1.272847056E0
8.006218800E-2,2.198470116E0,1.175187397E1,-9.374769926E-1
8.256088600E-2,2.241589069E0,1.157939816E1,-6.212710142E-1
8.505958300E-2,2.447602034E0,1.147399616E1,-3.290199935E-1
8.760281300E-2,2.663197041E0,1.136859417E1,-6.551499665E-2
9.010151100E-2,2.754225969E0,1.125840092E1,3.321380019E-1
9.260026100E-2,2.806926966E0,1.120569992E1,7.729099989E-1
9.509895800E-2,2.730271101E0,1.104280567E1,1.031623960E0
9.759765600E-2,2.696733952E0,1.077930069E1,1.366994023E0
1.000963540E-1,2.648823977E0,1.057328796E1,1.587380052E0
1.025951040E-1,2.514676094E0,1.047267723E1,1.630499005E0
1.050938020E-1,2.428437948E0,1.037685680E1,1.683200002E0
1.075925000E-1,2.332617998E0,1.021875381E1,1.683200002E0
1.100912500E-1,2.284708023E0,1.018042564E1,1.601752996E0
1.125899480E-1,2.155350924E0,1.011335182E1,1.395740032E0
1.150886460E-1,2.155350924E0,9.916920662E0,1.108279943E0
1.176664060E-1,2.102649927E0,9.787564278E0,8.495659828E-1
1.201651560E-1,2.035576105E0,9.648625374E0,6.435530186E-1
1.226639060E-1,1.915801048E0,9.490522385E0,4.279580116E-1
1.251625520E-1,1.805608034E0,9.413866043E0,3.992120028E-1
1.276613020E-1,1.671460032E0,9.351582527E0,4.279580116E-1
1.301600000E-1,1.657086968E0,9.227017403E0,4.806590080E-1
1.326586980E-1,1.681041956E0,9.155152321E0,5.716879964E-1
1.351574480E-1,1.633131981E0,9.035376549E0,7.202090025E-1
1.376561980E-1,1.575639963E0,8.977885246E0,8.208199739E-1
1.401548440E-1,1.599594951E0,8.963512421E0,9.885050058E-1
1.426535940E-1,1.599594951E0,8.877273560E0,1.261592031E0
1.451523440E-1,1.613968015E0,8.896437645E0,1.438858986E0
1.476961980E-1,1.642714024E0,8.829363823E0,1.529888034E0
1.501948960E-1,1.829563022E0,8.848527908E0,1.601752996E0
1.526935940E-1,1.867890954E0,8.800618172E0,1.697572947E0
1.551922920E-1,1.925382972E0,8.747917175E0,1.793393016E0
1.576910420E-1,1.992457032E0,8.795826912E0,1.740692019E0
1.601897400E-1,1.978083968E0,8.767081261E0,1.788601995E0
1.626884380E-1,1.954128981E0,8.728753090E0,1.922749996E0
1.651871880E-1,1.973292947E0,8.704797745E0,2.100017071E0
1.676858860E-1,1.997248054E0,8.647306442E0,2.219791889E0
1.701845830E-1,2.016412020E0,8.517949104E0,2.339566946E0
1.726833330E-1,2.112231970E0,8.532321930E0,2.339566946E0
1.751820310E-1,2.131396055E0,8.450875282E0,2.258120060E0
1.776889580E-1,2.097858906E0,8.417338371E0,2.191046000E0
1.801876560E-1,1.930173993E0,8.359846115E0,2.128762960E0
1.826863540E-1,1.896636963E0,8.244861603E0,2.032943010E0
1.851851040E-1,1.839144945E0,8.105922699E0,1.817348003E0
1.876838540E-1,1.700206041E0,8.086758614E0,1.630499005E0
1.901825520E-1,1.704996943E0,8.077177048E0,1.438858986E0
1.926812500E-1,1.690623999E0,8.010103226E0,1.271173954E0
1.951799480E-1,1.657086968E0,7.986147881E0,1.146607995E0
1.976786460E-1,1.666669011E0,7.976565838E0,1.017251015E0
2.001773960E-1,1.585222006E0,8.024476051E0,1.031623960E0
2.026760940E-1,1.489402056E0,8.043640137E0,9.932960272E-1
2.051747920E-1,1.417536974E0,8.115505219E0,9.166399837E-1
2.077481250E-1,1.403164029E0,8.105922699E0,9.597589970E-1
2.102468750E-1,1.460656047E0,8.101132393E0,1.108279943E0
2.127455730E-1,1.407955050E0,8.158623695E0,1.319084048E0
2.152442710E-1,1.388790965E0,8.125086784E0,1.491559982E0
2.177430210E-1,1.316926003E0,8.125086784E0,1.721528053E0
2.202417190E-1,1.249851942E0,8.077177048E0,1.999405980E0
2.227404170E-1,1.197150946E0,8.010103226E0,2.329984903E0
2.252391670E-1,1.182778001E0,7.923864841E0,2.516834021E0
2.277378650E-1,1.278597951E0,7.928656101E0,2.751593113E0
2.302365630E-1,1.264225006E0,7.837626934E0,3.043843985E0
2.327353130E-1,1.278597951E0,7.693896770E0,3.297766924E0
2.352340110E-1,1.259433985E0,7.626822948E0,3.542108059E0
2.377433330E-1,1.216315031E0,7.531002998E0,3.705002069E0
2.402420310E-1,1.197150946E0,7.454347134E0,3.887059927E0
2.427407290E-1,1.245061040E0,7.301034927E0,4.030789852E0
2.452394790E-1,1.235478997E0,7.224379063E0,4.121819019E0
2.477381770E-1,1.168405056E0,7.075858116E0,4.179310799E0
2.502368750E-1,1.134868026E0,6.951292038E0,4.212848186E0
2.527356250E-1,1.096539974E0,6.836308002E0,4.198474884E0
2.552343230E-1,1.120494962E0,6.692577839E0,4.131401062E0
2.577330210E-1,1.110913038E0,6.601549149E0,4.121819019E0
2.602317710E-1,1.125285983E0,6.453028202E0,4.045163155E0
2.627304690E-1,1.106122017E0,6.342834949E0,3.944551945E0
2.652291670E-1,1.067793965E0,6.242224216E0,3.877477884E0
2.678060420E-1,1.134868026E0,6.194314003E0,3.791239977E0
2.703047920E-1,1.144449949E0,6.199104786E0,3.767285109E0
2.728034900E-1,1.072584987E0,6.098494053E0,3.652301073E0
2.753021880E-1,1.134868026E0,6.021838188E0,3.522943974E0
2.778009380E-1,1.230687976E0,5.964345932E0,3.518152952E0
2.802996360E-1,1.192360044E0,5.892480850E0,3.489407063E0
2.827983330E-1,1.259433985E0,5.782288074E0,3.417541981E0
2.852970830E-1,1.269016027E0,5.691258907E0,3.412750959E0
2.877957810E-1,1.364835978E0,5.600230217E0,3.455869913E0
2.902944790E-1,1.475028992E0,5.485246181E0,3.417541981E0
2.927932290E-1,1.532521009E0,5.317561150E0,3.412750959E0
2.952919270E-1,1.657086968E0,5.245696068E0,3.388796091E0
2.978339060E-1,1.757698059E0,5.125920773E0,3.407959938E0
3.003326560E-1,1.805608034E0,5.039682865E0,3.407959938E0
3.028313540E-1,1.891845942E0,4.905535221E0,3.431915045E0
3.053300520E-1,1.982874990E0,4.780969143E0,3.417541981E0
3.078288020E-1,2.040366888E0,4.747432232E0,3.393587112E0
3.103275000E-1,2.160141945E0,4.694731236E0,3.374423027E0
3.128261980E-1,2.208051920E0,4.651611805E0,3.360049963E0
3.153249480E-1,2.203260899E0,4.589328766E0,3.360049963E0
3.178236460E-1,2.208051920E0,4.507882118E0,3.355258942E0
3.203223440E-1,2.140978098E0,4.507882118E0,3.326513052E0
3.228210940E-1,2.136187077E0,4.512672901E0,3.264230013E0
3.253197920E-1,2.088277102E0,4.594120026E0,3.259438992E0
3.278612500E-1,2.030785084E0,4.661193848E0,3.206737995E0
3.303600000E-1,1.954128981E0,4.742640972E0,3.144454956E0
3.328586980E-1,1.887055039E0,4.733058929E0,3.101336002E0
3.353573960E-1,1.796025991E0,4.733058929E0,3.063008070E0
3.378561460E-1,1.700206041E0,4.761805058E0,2.995934010E0
3.403548960E-1,1.633131981E0,4.689939976E0,3.043843985E0
3.428535420E-1,1.522938967E0,4.622866154E0,3.168410063E0
3.453522920E-1,1.360044956E0,4.551001072E0,3.211529016E0
3.478509900E-1,1.345672011E0,4.507882118E0,3.216320038E0
3.503496880E-1,1.441491961E0,4.469553947E0,3.316931009E0
3.528484380E-1,1.508566022E0,4.455181122E0,3.489407063E0
3.553471360E-1,1.522938967E0,4.431225777E0,3.676255941E0
3.578870830E-1,1.532521009E0,4.349779129E0,3.796030998E0
3.603858330E-1,1.522938967E0,4.364151955E0,3.963716030E0
3.628845310E-1,1.652295947E0,4.368943214E0,4.102654934E0
3.653832290E-1,1.704996943E0,4.378524780E0,4.251175880E0
3.678819790E-1,1.772071004E0,4.330615044E0,4.380533218E0
3.703806770E-1,1.911010027E0,4.330615044E0,4.567381859E0
3.728793750E-1,2.011620998E0,4.368943214E0,4.667993069E0
3.753781250E-1,2.097858906E0,4.383316040E0,4.715902805E0
3.778768230E-1,2.260752916E0,4.507882118E0,4.778185844E0
3.803755210E-1,2.394901037E0,4.560583115E0,4.816514015E0
3.828742710E-1,2.533839941E0,4.622866154E0,4.763813019E0
3.853729690E-1,2.706315994E0,4.761805058E0,4.739858150E0
3.879167190E-1,2.864418983E0,4.871997833E0,4.691947937E0
3.904154690E-1,3.022521973E0,5.044474125E0,4.572173119E0
3.929141670E-1,3.156670094E0,5.202577114E0,4.461979866E0
3.954128650E-1,3.242908001E0,5.351098061E0,4.370951176E0
3.979116150E-1,3.324354887E0,5.547529221E0,4.279922009E0
4.004103130E-1,3.324354887E0,5.839779854E0,4.174520016E0
4.029090110E-1,3.343518972E0,6.155985832E0,4.131401062E0
4.054077610E-1,3.329145908E0,6.491355896E0,4.150565147E0
4.079064580E-1,3.223743916E0,6.845890045E0,4.117028236E0
4.104051560E-1,3.218952894E0,7.281870842E0,4.155355930E0
4.129039060E-1,3.022521973E0,7.808880806E0,4.260757923E0
4.154026040E-1,2.854836941E0,8.326309204E0,4.361369133E0
4.179446880E-1,2.763808012E0,8.829363823E0,4.524262905E0
4.204434380E-1,2.533839941E0,9.399493217E0,4.701529980E0
4.229421360E-1,2.414064884E0,9.869010925E0,4.902751923E0
4.254408860E-1,2.227216005E0,1.031457424E1,5.161466122E0
4.279395830E-1,2.160141945E0,1.073618221E1,5.290822983E0
4.304382810E-1,2.160141945E0,1.110029793E1,5.391434193E0
4.329369790E-1,2.164932966E0,1.149316025E1,5.448925972E0
4.354357290E-1,2.145768881E0,1.188602161E1,5.525581837E0
4.379344270E-1,2.059530973E0,1.234116745E1,5.645357132E0
4.404331250E-1,1.968502045E0,1.276756573E1,5.717222214E0
4.429318750E-1,1.949337959E0,1.314126396E1,5.894488811E0
4.454305730E-1,1.901427984E0,1.354370785E1,6.134038925E0
4.479723960E-1,1.805608034E0,1.386470509E1,6.162785053E0
4.504711460E-1,1.872681975E0,1.406592655E1,6.004682064E0
4.529698440E-1,2.155350924E0,1.411862755E1,5.846579075E0
4.554685420E-1,2.490720987E0,1.394136143E1,5.822624207E0
4.579672920E-1,2.845254898E0,1.369222927E1,5.813042164E0
4.604659900E-1,3.080013990E0,1.351975346E1,5.789086819E0
4.629646880E-1,3.161461115E0,1.345746994E1,5.621401787E0
4.654634380E-1,3.262072086E0,1.348142529E1,5.338733196E0
4.679621360E-1,3.377055883E0,1.357245445E1,4.988989830E0
4.704608330E-1,3.391428947E0,1.376888466E1,4.706320763E0
4.729595830E-1,3.458503008E0,1.391261482E1,4.538636208E0
4.754582810E-1,3.506412983E0,1.406592655E1,4.524262905E0
4.779632810E-1,3.587860107E0,1.415216541E1,4.634456158E0
4.804619790E-1,3.573487043E0,1.414737415E1,4.960244179E0
4.829606770E-1,3.458503008E0,1.403238964E1,5.372270107E0
4.854594270E-1,3.324354887E0,1.384074974E1,5.803460121E0
4.879581770E-1,3.204580069E0,1.354849911E1,6.153203011E0
4.904568230E-1,3.137506008E0,1.323229313E1,6.421498775E0
4.929555730E-1,3.056058884E0,1.291608715E1,6.570020199E0
4.954542710E-1,3.089596033E0,1.250885201E1,6.574810982E0
4.979529690E-1,3.113550901E0,1.204412460E1,6.498155117E0
5.004517190E-1,3.103969097E0,1.155065155E1,6.450244904E0
5.029504170E-1,2.907537937E0,1.104759693E1,6.311306000E0
5.054491150E-1,2.615287066E0,1.057807922E1,6.316096783E0
5.080261460E-1,2.198470116E0,1.033373833E1,6.450244904E0
5.105248960E-1,1.800817013E0,1.013251591E1,6.555646896E0
5.130236460E-1,1.393581986E0,1.006065083E1,6.694585800E0
5.155222920E-1,1.091748953E0,1.013251591E1,6.761660099E0
5.180210420E-1,8.330349922E-1,1.023791790E1,6.704167843E0
5.205197400E-1,6.701409817E-1,1.040081215E1,6.512527943E0
5.230184380E-1,6.701409817E-1,1.051579571E1,6.153203011E0
5.255171880E-1,6.222310066E-1,1.059724331E1,5.702848911E0
5.280158860E-1,6.078580022E-1,1.062119770E1,5.132719994E0
5.305145830E-1,5.791119933E-1,1.064515305E1,4.548217773E0
5.330133330E-1,4.785009921E-1,1.062598896E1,3.992461920E0
5.355120310E-1,3.060249984E-1,1.068827248E1,3.460660934E0
5.380569790E-1,6.647499651E-2,1.085595703E1,3.029470921E0
5.405565110E-1,-2.353579998E-1,1.110988045E1,2.708473921E0
5.430559900E-1,-5.036540031E-1,1.139254856E1,2.406641006E0
5.455554690E-1,-7.719500065E-1,1.182853031E1,2.181463957E0
5.480549480E-1,-1.030663967E0,1.243219566E1,2.061688900E0
5.505544790E-1,-1.322914958E0,1.300711632E1,1.994614959E0
5.530539580E-1,-1.437898993E0,1.358203602E1,1.879631042E0
5.555534380E-1,-1.437898993E0,1.413300133E1,1.793393016E0
5.580529170E-1,-1.385197997E0,1.464563847E1,1.793393016E0
5.605524480E-1,-1.255841017E0,1.513432026E1,1.764647007E0
5.630519270E-1,-9.635900259E-1,1.562300205E1,1.659245014E0
5.655514060E-1,-4.844900072E-1,1.603981972E1,1.443650007E0
5.680833860E-1,4.252000153E-2,1.646142769E1,1.079534054E0
5.705829170E-1,6.893050075E-1,1.688303566E1,6.100159883E-1
5.730823960E-1,1.379209042E0,1.704592896E1,-1.760499924E-2
5.755818750E-1,2.073904037E0,1.714653969E1,-7.170910239E-1
5.780813540E-1,2.701524973E0,1.708425713E1,-1.450114012E0
5.805808860E-1,3.204580069E0,1.675367737E1,-2.312494040E0
5.830803650E-1,3.410593033E0,1.611647415E1,-2.978442907E0
5.855798440E-1,3.458503008E0,1.527805042E1,-3.452752113E0
5.880793230E-1,3.372265100E0,1.430068588E1,-3.855195999E0
5.905788020E-1,3.175833941E0,1.330894947E1,-4.051627159E0
5.930783330E-1,2.917119980E0,1.236512184E1,-4.080372810E0
5.955778130E-1,2.548213005E0,1.135422134E1,-3.927061081E0
5.980746880E-1,2.179306030E0,1.050142288E1,-3.615645885E0
6.005742190E-1,1.963711023E0,9.816309929E0,-3.265902996E0
6.030736980E-1,1.829563022E0,9.222226143E0,-2.791594028E0
6.055731770E-1,1.719370008E0,8.704797745E0,-2.322076082E0
6.080726560E-1,1.590013027E0,8.355054855E0,-1.852558017E0
6.105721880E-1,1.513357043E0,7.995729923E0,-1.383039951E0
6.130716670E-1,1.431910038E0,7.689105988E0,-9.470589757E-1
6.155711460E-1,1.379209042E0,7.406436920E0,-5.973160267E-1
6.180706250E-1,1.321717024E0,7.128559113E0,-2.427819967E-1
6.205701560E-1,1.364835978E0,6.865054131E0,1.114100032E-2
6.230696360E-1,1.326508045E0,6.548848152E0,2.171539962E-1
6.255691150E-1,1.302553058E0,6.213478088E0,2.986010015E-1
6.281379690E-1,1.235478997E0,5.882898808E0,2.650640011E-1
6.306375000E-1,1.197150946E0,5.456500053E0,5.905099958E-2
6.331369790E-1,1.110913038E0,5.010937214E0,-1.565439999E-1
6.356364580E-1,1.010301948E0,4.555791855E0,-4.631679952E-1
6.381359380E-1,9.911379814E-1,4.129393101E0,-9.135220051E-1
6.406354690E-1,8.042889833E-1,3.731739998E0,-1.373458028E0
6.431349480E-1,7.372149825E-1,3.516144991E0,-1.957960010E0
6.456344270E-1,7.563790083E-1,3.362833023E0,-2.623908997E0
6.481339060E-1,8.042889833E-1,3.286176920E0,-3.237157106E0
6.506334380E-1,7.851250172E-1,3.343668938E0,-3.840822935E0
6.531329170E-1,6.557679772E-1,3.530518055E0,-4.348669052E0
6.556323960E-1,4.257999957E-1,3.856306076E0,-4.693621159E0
6.581659380E-1,1.766680032E-1,4.234795094E0,-4.870888233E0
6.606654690E-1,4.252000153E-2,4.685149193E0,-4.918797970E0
6.631649480E-1,-1.539109945E-1,5.250486851E0,-4.866096973E0
6.656644270E-1,-2.784770131E-1,5.839779854E0,-4.631338120E0
6.681639060E-1,-4.701170027E-1,6.553638935E0,-4.233685017E0
6.706634380E-1,-7.479950190E-1,7.291452885E0,-3.649183035E0
6.731629170E-1,-8.581879735E-1,8.024476051E0,-3.055099010E0
6.756623960E-1,-7.959049940E-1,8.738334656E0,-2.470597029E0
6.781618750E-1,-4.701170027E-1,9.351582527E0,-1.857349038E0
6.806614060E-1,-3.892700002E-2,9.921711922E0,-1.258473992E0
6.831608860E-1,4.593369961E-1,1.057328796E1,-7.506279945E-1
6.856603650E-1,9.240639806E-1,1.117216301E1,-4.056760073E-1
6.881926040E-1,1.441491961E0,1.165605354E1,-5.593299866E-2
6.906921360E-1,2.035576105E0,1.214473629E1,2.075719982E-1
6.931916150E-1,2.529048920E0,1.252801609E1,4.614950120E-1
6.956910940E-1,2.998567104E0,1.276756573E1,5.621060133E-1
6.981905730E-1,3.448920965E0,1.290171432E1,7.920740247E-1
7.006901040E-1,3.755544901E0,1.289692307E1,8.543570042E-1
7.031895830E-1,4.028632164E0,1.274840164E1,9.358040094E-1
7.056890630E-1,4.110078812E0,1.243219566E1,9.358040094E-1
7.081885420E-1,4.095705986E0,1.197226048E1,8.208199739E-1
7.106880730E-1,4.023840904E0,1.144524956E1,6.435530186E-1
7.131875520E-1,3.928020954E0,1.093261337E1,4.423309863E-1
7.156870310E-1,3.698052883E0,1.039122963E1,2.123630047E-1
7.182216670E-1,3.381846905E0,9.988785744E0,-6.551499665E-2
7.207211460E-1,3.185415983E0,9.610297203E0,-3.242290020E-1
7.232206770E-1,2.902746916E0,9.394701958E0,-7.793740034E-1
7.257201560E-1,2.672779083E0,9.193479538E0,-1.014132977E0
7.282196360E-1,2.787763119E0,8.767081261E0,-1.004551053E0
7.307191150E-1,2.605705023E0,8.680843353E0,-1.023715019E0
7.332186460E-1,2.476347923E0,8.723961830E0,-1.009341955E0
7.357181250E-1,2.461975098E0,8.752708435E0,-1.018923998E0
7.382176040E-1,2.615287066E0,8.862900734E0,-1.042878985E0
7.407170830E-1,2.720689058E0,9.035376549E0,-1.009341955E0
7.432166150E-1,2.840464115E0,9.140778542E0,-9.374769926E-1
7.457160940E-1,2.965029955E0,9.222226143E0,-9.135220051E-1
7.482119270E-1,3.132714987E0,9.375537872E0,-9.087309837E-1
7.507114580E-1,3.343518972E0,9.509686470E0,-7.889559865E-1
7.532109380E-1,3.381846905E0,9.552804947E0,-6.068980098E-1
7.557104170E-1,3.348309994E0,9.682162285E0,-5.206599832E-1
7.582098960E-1,3.396219969E0,9.777981758E0,-3.769299984E-1
7.607094270E-1,3.262072086E0,9.816309929E0,-2.188269943E-1
7.632089060E-1,3.051268101E0,9.907339096E0,-1.086340025E-1
7.657083860E-1,2.878792048E0,9.873802185E0,-5.114199966E-2
7.682078650E-1,2.792553902E0,9.739653587E0,-1.760499924E-2
7.707073960E-1,2.667988062E0,9.615088463E0,3.030500002E-2
7.732068750E-1,2.529048920E0,9.423447609E0,-4.635100067E-2
7.757063540E-1,2.557795048E0,9.188689232E0,-1.373800039E-1
7.782780730E-1,2.596122980E0,8.920392990E0,-2.427819967E-1
7.807776040E-1,2.639241934E0,8.743125916E0,-3.290199935E-1
7.832770830E-1,2.691942930E0,8.618559837E0,-3.960939944E-1
7.857765630E-1,2.840464115E0,8.570650101E0,-4.631679952E-1
7.882760420E-1,2.950656891E0,8.517949104E0,-5.541970134E-1
7.907755730E-1,3.147088051E0,8.546694756E0,-6.548079848E-1
7.932750520E-1,3.262072086E0,8.522740364E0,-7.266730070E-1
7.957745310E-1,3.391428947E0,8.637723923E0,-8.608210087E-1
7.982740110E-1,3.492039919E0,8.656888008E0,-9.278950095E-1
8.007735420E-1,3.640561104E0,8.666469574E0,-9.997599721E-1
8.032730210E-1,3.678889036E0,8.733544350E0,-1.052461028E0
8.057725000E-1,3.611814976E0,8.800618172E0,-1.052461028E0
8.083029170E-1,3.573487043E0,8.800618172E0,-1.014132977E0
8.108024480E-1,3.573487043E0,8.781454086E0,-9.662230015E-1
8.133019270E-1,3.645351887E0,8.709589005E0,-9.566410184E-1
8.158014060E-1,3.583069086E0,8.652096748E0,-9.710140228E-1
8.183008860E-1,3.482458115E0,8.685633659E0,-9.662230015E-1
8.208004170E-1,3.401010990E0,8.700007439E0,-9.231039882E-1
8.232998960E-1,3.290817976E0,8.719170570E0,-8.847759962E-1
8.257993750E-1,3.247699022E0,8.728753090E0,-8.656119704E-1
8.282988540E-1,3.180624962E0,8.752708435E0,-8.512390256E-1
8.307983860E-1,3.060849905E0,8.733544350E0,-8.464480042E-1
8.332978650E-1,2.979403019E0,8.752708435E0,-8.847759962E-1
8.357973440E-1,2.945866108E0,8.733544350E0,-8.416569829E-1
8.383328650E-1,2.869210005E0,8.723961830E0,-8.177019954E-1
8.408323960E-1,2.749434948E0,8.781454086E0,-7.123000026E-1
8.433318750E-1,2.682360888E0,8.762290001E0,-6.500170231E-1
8.458313540E-1,2.653614998E0,8.771871567E0,-6.068980098E-1
8.483308330E-1,2.629659891E0,8.757498741E0,-6.068980098E-1
8.508303650E-1,2.629659891E0,8.800618172E0,-6.404349804E-1
8.533298440E-1,2.605705023E0,8.795826912E0,-7.027180195E-1
8.558293230E-1,2.562586069E0,8.747917175E0,-7.266730070E-1
8.583288020E-1,2.529048920E0,8.767081261E0,-7.889559865E-1
8.608283330E-1,2.524257898E0,8.743125916E0,-8.033289909E-1
8.633278130E-1,2.509885073E0,8.690424919E0,-7.554190159E-1
8.658272920E-1,2.538630962E0,8.661679268E0,-7.218819857E-1
8.683600520E-1,2.600914001E0,8.661679268E0,-6.356440187E-1
8.708595830E-1,2.600914001E0,8.628142357E0,-5.973160267E-1
8.733590630E-1,2.624869108E0,8.537113190E0,-5.781520009E-1
8.758585420E-1,2.730271101E0,8.498785019E0,-6.931359768E-1
8.783580210E-1,2.874001026E0,8.446084023E0,-8.081200123E-1
8.808575520E-1,2.993776083E0,8.407755852E0,-8.512390256E-1
8.833570310E-1,3.065640926E0,8.379010201E0,-9.614319801E-1
8.858565110E-1,3.118341923E0,8.355054855E0,-1.042878985E0
8.883559900E-1,3.214162111E0,8.297562599E0,-1.095579982E0
8.908555210E-1,3.238116980E0,8.287981033E0,-1.186609030E0
8.933550000E-1,3.281235933E0,8.311936378E0,-1.205772996E0
8.958544790E-1,3.324354887E0,8.316726685E0,-1.210564017E0
8.983525520E-1,3.305191040E0,8.283189774E0,-1.244101048E0
9.008520830E-1,3.381846905E0,8.307145119E0,-1.330338955E0
9.033515630E-1,3.391428947E0,8.321517944E0,-1.383039951E0
9.058510420E-1,3.429757118E0,8.307145119E0,-1.440531969E0
9.083505210E-1,3.424966097E0,8.383801460E0,-1.416576982E0
9.108500520E-1,3.410593033E0,8.412547112E0,-1.368667006E0
9.133495310E-1,3.362683058E0,8.441292763E0,-1.253682971E0
9.158490110E-1,3.281235933E0,8.517949104E0,-1.229727983E0
9.183484900E-1,3.271653891E0,8.498785019E0,-1.157863021E0
9.208480210E-1,3.238116980E0,8.465248108E0,-1.057252049E0
9.233475000E-1,3.185415983E0,8.422128677E0,-9.566410184E-1
9.258469790E-1,3.032104015E0,8.393383026E0,-9.374769926E-1
9.284197920E-1,2.936284065E0,8.264025688E0,-9.039400220E-1
9.309193230E-1,2.878792048E0,8.187370300E0,-9.422680140E-1
9.334188020E-1,2.806926966E0,8.125086784E0,-9.949690104E-1
9.359182810E-1,2.701524973E0,8.077177048E0,-1.042878985E0
9.384177610E-1,2.667988062E0,8.062804222E0,-1.124325991E0
9.409172920E-1,2.620078087E0,8.019684792E0,-1.138699055E0
9.434167710E-1,2.629659891E0,8.014893532E0,-1.210564017E0
9.459162500E-1,2.615287066E0,8.048431396E0,-1.205772996E0
9.484157290E-1,2.610496044E0,8.096341133E0,-1.177026987E0
9.509152610E-1,2.581749916E0,8.192160606E0,-1.148280978E0
9.534147400E-1,2.634450912E0,8.311936378E0,-1.023715019E0
9.559142190E-1,2.653614998E0,8.412547112E0,-9.949690104E-1
9.584406770E-1,2.629659891E0,8.546694756E0,-9.231039882E-1
9.609402080E-1,2.663197041E0,8.690424919E0,-8.416569829E-1
9.634396880E-1,2.687151909E0,8.805409431E0,-7.458369732E-1
9.659391670E-1,2.720689058E0,8.939557076E0,-6.500170231E-1
9.684386460E-1,2.720689058E0,9.011422157E0,-5.685700178E-1
9.709381770E-1,2.739852905E0,9.112032890E0,-5.206599832E-1
9.734376560E-1,2.725480080E0,9.198270798E0,-5.254510045E-1
9.759371360E-1,2.682360888E0,9.274927139E0,-4.344219863E-1
9.784366150E-1,2.691942930E0,9.318045616E0,-4.679589868E-1
9.809360940E-1,2.648823977E0,9.327628136E0,-4.296309948E-1
9.834356250E-1,2.576958895E0,9.385120392E0,-3.625569940E-1
9.859351040E-1,2.524257898E0,9.442611694E0,-3.194380105E-1
9.884595830E-1,2.471556902E0,9.504895210E0,-3.098559976E-1
9.909591150E-1,2.380527973E0,9.538432121E0,-2.859010100E-1
9.934585940E-1,2.279917002E0,9.591133118E0,-3.050650060E-1
9.959580730E-1,2.145768881E0,9.662998199E0,-2.523640096E-1
9.984575520E-1,2.025994062E0,9.677371025E0,-2.236180007E-1
1.000957083E0,1.934965014E0,9.686952591E0,-2.667370141E-1
1.003456563E0,1.863100052E0,9.691743851E0,-2.571550012E-1
1.005956042E0,1.757698059E0,9.653415680E0,-2.715280056E-1
1.008455521E0,1.695415020E0,9.662998199E0,-2.667370141E-1
1.010955052E0,1.613968015E0,9.682162285E0,-2.044540048E-1
1.013454531E0,1.551684976E0,9.710907936E0,-1.421709955E-1
1.015954011E0,1.475028992E0,9.739653587E0,-1.661259979E-1
1.018486979E0,1.494192958E0,9.758817673E0,-1.757079959E-1
1.020986511E0,1.508566022E0,9.792354584E0,-1.613350064E-1
1.023485990E0,1.561267018E0,9.763608932E0,-1.948720068E-1
1.025985469E0,1.690623999E0,9.787564278E0,-2.236180007E-1
1.028484948E0,1.858309031E0,9.821101189E0,-2.763189971E-1
1.030984479E0,2.021203041E0,9.840265274E0,-3.673479855E-1
1.033483958E0,2.208051920E0,9.821101189E0,-4.871230125E-1
1.035983438E0,2.409274101E0,9.825892448E0,-6.739720106E-1
1.038482917E0,2.634450912E0,9.835474014E0,-8.177019954E-1
1.040982448E0,2.897955894E0,9.830682755E0,-9.470589757E-1
1.043481927E0,3.175833941E0,9.840265274E0,-1.109953046E0
1.045981406E0,3.396219969E0,9.816309929E0,-1.277637959E0
1.048518802E0,3.602232933E0,9.873802185E0,-1.392621994E0
1.051018854E0,3.793873072E0,9.955248833E0,-1.498023987E0
1.053518854E0,3.947185040E0,9.979204178E0,-1.478860021E0
1.056018906E0,4.043004990E0,1.006065083E1,-1.555516005E0
1.058518958E0,4.162779808E0,1.017563534E1,-1.589053035E0
1.061019011E0,4.196317196E0,1.030499172E1,-1.550724983E0
1.063519063E0,4.258600235E0,1.047746754E1,-1.488441944E0
1.066019115E0,4.296927929E0,1.054933262E1,-1.421368003E0
1.068519167E0,4.306509972E0,1.065473461E1,-1.325548053E0
1.071019219E0,4.354420185E0,1.081283760E1,-1.200981975E0
1.073519271E0,4.368793011E0,1.093261337E1,-1.153072000E0
1.076019271E0,4.426284790E0,1.106196976E1,-1.177026987E0
1.078545833E0,4.517313957E0,1.120090866E1,-1.248891950E0
1.081045886E0,4.579596996E0,1.135901165E1,-1.220145941E0
1.083545886E0,4.694581032E0,1.149316025E1,-1.205772996E0
1.086045938E0,4.776028156E0,1.161772633E1,-1.268056035E0
1.088545990E0,4.598761082E0,1.167521763E1,-1.464486957E0
1.091046042E0,4.445448875E0,1.165605354E1,-1.488441944E0
1.093546094E0,4.306509972E0,1.160335255E1,-1.373458028E0
1.096046146E0,4.157989025E0,1.153148842E1,-1.220145941E0
1.098546198E0,4.038214207E0,1.136380291E1,-1.090788960E0
1.101046250E0,3.947185040E0,1.122007275E1,-1.100371003E0
1.103546302E0,3.884902000E0,1.111467075E1,-1.071624994E0
1.106046302E0,3.875319958E0,1.100926876E1,-1.052461028E0
1.108572656E0,3.851365089E0,1.086074829E1,-1.047670007E0
1.111072708E0,3.808245897E0,1.084158421E1,-1.033296943E0
1.113572708E0,3.769917965E0,1.082242012E1,-9.949690104E-1
1.116072761E0,3.750754118E0,1.080804729E1,-9.901779890E-1
1.118572813E0,3.674098015E0,1.077930069E1,-9.278950095E-1
1.121072865E0,3.640561104E0,1.075055504E1,-8.799849749E-1
1.123572917E0,3.597441912E0,1.073139095E1,-8.081200123E-1
1.126072969E0,3.611814976E0,1.069785404E1,-6.883450150E-1
1.128573021E0,3.583069086E0,1.064036179E1,-6.500170231E-1
1.131073073E0,3.583069086E0,1.064994431E1,-5.494059920E-1
1.133573125E0,3.583069086E0,1.058286953E1,-4.104669988E-1
1.136073125E0,3.563905001E0,1.052537823E1,-2.763189971E-1
1.138600052E0,3.578278065E0,1.051100540E1,-2.331999987E-1
1.141100104E0,3.611814976E0,1.052537823E1,-1.565439999E-1
1.143600104E0,3.607023954E0,1.053016853E1,-1.038430035E-1
1.146100156E0,3.674098015E0,1.053495979E1,-1.134250015E-1
1.148600208E0,3.726799011E0,1.052537823E1,-2.044540048E-1
1.151100261E0,3.851365089E0,1.056370640E1,-3.481839895E-1
1.153600313E0,3.956767082E0,1.058766079E1,-5.398240089E-1
1.156100365E0,4.047795773E0,1.068348122E1,-8.129109740E-1
1.158600417E0,4.186735153E0,1.077451038E1,-1.062042952E0
1.161100469E0,4.325674057E0,1.098531437E1,-1.330338955E0
1.163600521E0,4.387957096E0,1.117216301E1,-1.545933962E0
1.166100521E0,4.426284790E0,1.138775826E1,-1.651335955E0
1.168627865E0,4.354420185E0,1.170875454E1,-1.632171988E0
1.171127917E0,4.191525936E0,1.200100613E1,-1.493232965E0
1.173627917E0,3.995095015E0,1.227409267E1,-1.282428980E0
1.176127969E0,3.693262100E0,1.259508991E1,-1.162654042E0
1.178628021E0,3.381846905E0,1.283463955E1,-1.062042952E0
1.181128073E0,3.147088051E0,1.297357941E1,-9.805960059E-1
1.183628125E0,2.921911001E0,1.312689114E1,-9.278950095E-1
1.186128177E0,2.696733952E0,1.311730862E1,-9.470589757E-1
1.188628229E0,2.471556902E0,1.314126396E1,-1.014132977E0
1.191128281E0,2.370945930E0,1.309335423E1,-1.186609030E0
1.193628333E0,2.299081087E0,1.293045998E1,-1.411785960E0
1.196128333E0,2.332617998E0,1.277714825E1,-1.747156024E0
1.198654792E0,2.409274101E0,1.262383556E1,-2.250211000E0
1.201154844E0,2.581749916E0,1.241303158E1,-2.805967093E0
1.203654844E0,2.797344923E0,1.214952660E1,-3.443170071E0
1.206154896E0,3.008148909E0,1.189560413E1,-4.013298988E0
1.208654948E0,3.084805012E0,1.168480015E1,-4.521144867E0
1.211155000E0,3.032104015E0,1.157460690E1,-4.866096973E0
1.213655052E0,2.725480080E0,1.144524956E1,-4.971498966E0
1.216155104E0,2.366154909E0,1.133984756E1,-4.813395977E0
1.218655156E0,1.982874990E0,1.128714657E1,-4.415742874E0
1.221155208E0,1.599594951E0,1.132068443E1,-3.850404978E0
1.223655261E0,1.206732988E0,1.143087673E1,-3.232366085E0
1.226155261E0,9.049000144E-1,1.152190590E1,-2.599953890E0
1.228682240E0,6.509770155E-1,1.155544281E1,-2.106481075E0
1.231182292E0,4.928739965E-1,1.162730789E1,-1.823812008E0
1.233682292E0,4.449639916E-1,1.165126324E1,-1.684872985E0
1.236182344E0,4.066359997E-1,1.168959141E1,-1.866930962E0
1.238682396E0,3.730989993E-1,1.162730789E1,-2.053780079E0
1.241182448E0,3.060249984E-1,1.156981564E1,-2.245419979E0
1.243682500E0,1.766680032E-1,1.153148842E1,-2.283747911E0
1.246182552E0,6.168400124E-2,1.138775826E1,-2.341239929E0
1.248682604E0,-1.018100046E-2,1.126319218E1,-2.408313990E0
1.251182656E0,-1.060009971E-1,1.113862610E1,-2.461014986E0
1.253682708E0,-2.114029974E-1,1.105717945E1,-2.614326954E0
1.256182708E0,-2.736859918E-1,1.100447845E1,-2.743684053E0
1.258712865E0,-3.503420055E-1,1.093261337E1,-2.647864103E0
1.261212917E0,-4.844900072E-1,1.096615028E1,-2.264584064E0
1.263712917E0,-6.473839879E-1,1.117216301E1,-1.747156024E0
1.266212969E0,-7.911139727E-1,1.134943008E1,-1.263265014E0
1.268713021E0,-9.396349788E-1,1.151232433E1,-9.326859713E-1
1.271213073E0,-1.045037031E0,1.161293507E1,-7.458369732E-1
1.273713125E0,-1.092947006E0,1.165605354E1,-4.152579904E-1
1.276213177E0,-1.083364964E0,1.165126324E1,-7.509700209E-2
1.278713229E0,-1.068992019E0,1.164168072E1,2.986010015E-1
1.281213281E0,-1.078573942E0,1.162730789E1,6.052250266E-1
1.283713333E0,-9.971269965E-1,1.168959141E1,8.351929784E-1
1.286213333E0,-9.300529957E-1,1.185248470E1,9.837139845E-1
1.288739636E0,-8.725609779E-1,1.206807995E1,1.137025952E0
1.291239688E0,-7.815319896E-1,1.230762959E1,1.256801009E0
1.293739688E0,-7.432039976E-1,1.253280735E1,1.319084048E0
1.296239740E0,-5.659369826E-1,1.277235699E1,1.381366968E0
1.298739792E0,-3.982520103E-1,1.297836971E1,1.390949011E0
1.301239844E0,-2.497310042E-1,1.316042805E1,1.343039036E0
1.303739896E0,-5.330000073E-2,1.331373978E1,1.309502006E0
1.306239948E0,2.245779932E-1,1.340476894E1,1.237637043E0
1.308740000E0,4.880830050E-1,1.341914177E1,1.084324956E0
1.311240052E0,6.797230244E-1,1.340476894E1,8.543570042E-1
1.313740104E0,9.384369850E-1,1.335685921E1,5.333600044E-1
1.316240104E0,1.206732988E0,1.324187469E1,1.021699980E-1
1.318766615E0,1.451074004E0,1.306460762E1,-3.865120113E-1
1.321266667E0,1.666669011E0,1.283943081E1,-7.218819857E-1
1.323766667E0,1.887055039E0,1.258071709E1,-9.853870273E-1
1.326266719E0,2.107440948E0,1.231721210E1,-1.282428980E0
1.328766771E0,2.289499044E0,1.212557220E1,-1.742365003E0
1.331266823E0,2.519467115E0,1.197226048E1,-2.130435944E0
1.333766875E0,2.931493044E0,1.169438171E1,-2.365195036E0
1.336266927E0,3.381846905E0,1.135901165E1,-2.240628958E0
1.338766979E0,3.664515972E0,1.104280567E1,-1.938796043E0
1.341267031E0,3.971139908E0,1.079367447E1,-1.421368003E0
1.343767083E0,4.191525936E0,1.050142288E1,-9.278950095E-1
1.346267083E0,4.325674057E0,1.020917225E1,-5.062869787E-1
1.348794219E0,4.244226933E0,9.974412918E0,-6.551499665E-2
1.351294271E0,4.052587032E0,9.854638100E0,4.519129992E-1
1.353794271E0,3.894484043E0,9.720490456E0,9.118490219E-1
1.356294323E0,3.722007990E0,9.576760292E0,1.223263979E0
1.358794375E0,3.549531937E0,9.471358299E0,1.577798009E0
1.361294427E0,3.492039919E0,9.413866043E0,1.855676055E0
1.363794479E0,3.511204004E0,9.313255310E0,2.023360968E0
1.366294531E0,3.463294029E0,9.289299965E0,2.090435028E0
1.368794583E0,3.343518972E0,9.236598969E0,1.999405980E0
1.371294636E0,3.233325958E0,9.203062057E0,1.807765961E0
1.373794688E0,3.070431948E0,9.198270798E0,1.438858986E0
1.376294688E0,2.931493044E0,9.246180534E0,1.036414981E0
1.378821771E0,2.912328959E0,9.279718399E0,6.722990274E-1
1.381321823E0,2.806926966E0,9.313255310E0,2.794370055E-1
1.383821823E0,2.653614998E0,9.322836876E0,-4.156000167E-2
1.386321875E0,2.572168112E0,9.322836876E0,-2.379910052E-1
1.388821927E0,2.394901037E0,9.279718399E0,-3.338110149E-1
1.391321979E0,2.179306030E0,9.250971794E0,-4.823319912E-1
1.393822031E0,2.030785084E0,9.164733887E0,-4.871230125E-1
1.396322083E0,1.944547057E0,9.083287239E0,-4.679589868E-1
1.398822136E0,1.944547057E0,8.982675552E0,-4.392130077E-1
1.401322188E0,1.887055039E0,8.771871567E0,-3.625569940E-1
1.403822240E0,1.791234970E0,8.695216179E0,-2.619459927E-1
1.406322240E0,1.704996943E0,8.680843353E0,-1.182160005E-1
1.408849271E0,1.647505045E0,8.561067581E0,-4.156000167E-2
1.411349323E0,1.637923002E0,8.489203453E0,8.300600201E-2
1.413849323E0,1.585222006E0,8.364637375E0,3.081830144E-1
1.416349375E0,1.503775001E0,8.278399467E0,5.237780213E-1
1.418849427E0,1.374418020E0,8.153833389E0,8.687300086E-1
1.421349479E0,1.398373008E0,8.058012962E0,1.146607995E0
1.423849531E0,1.393581986E0,7.966983795E0,1.481978059E0
1.426349583E0,1.350463033E0,7.895119190E0,1.726318955E0
1.428849636E0,1.302553058E0,7.856791019E0,1.846094012E0
1.431349688E0,1.364835978E0,7.852000237E0,1.903586030E0
1.433849740E0,1.350463033E0,7.832836151E0,2.056898117E0
1.436349740E0,1.288179994E0,7.770553112E0,2.128762960E0
1.438878958E0,1.221106052E0,7.660359859E0,2.104808092E0
1.441379011E0,1.182778001E0,7.602868080E0,2.085644007E0
1.443879011E0,1.120494962E0,7.531002998E0,1.970659971E0
1.446379063E0,1.096539974E0,7.406436920E0,1.841302991E0
1.448879115E0,1.115704060E0,7.382482052E0,1.721528053E0
1.451379167E0,1.110913038E0,7.305826187E0,1.601752996E0
1.453879219E0,1.106122017E0,7.224379063E0,1.462813973E0
1.456379271E0,1.072584987E0,7.214797020E0,1.304710984E0
1.458879323E0,1.053421021E0,7.210006237E0,1.146607995E0
1.461379375E0,1.043838978E0,7.157304764E0,1.041206002E0
1.463879427E0,9.192730188E-1,7.123767853E0,9.214310050E-1
1.466379427E0,8.761540055E-1,7.090230942E0,8.591480255E-1
1.468905625E0,9.096909761E-1,7.104603767E0,6.675080061E-1
1.471405677E0,9.863470197E-1,7.061484814E0,4.902409911E-1
1.473905677E0,9.959290028E-1,7.066276073E0,4.327490032E-1
1.476405729E0,1.053421021E0,6.994410992E0,4.231669903E-1
1.478905781E0,1.130077004E0,6.965664864E0,5.573149920E-1
1.481405833E0,1.106122017E0,7.051902771E0,7.537459731E-1
1.483905886E0,1.115704060E0,7.037529945E0,9.022669792E-1
1.486405938E0,1.197150946E0,7.003993034E0,1.151399016E0
1.488905990E0,1.235478997E0,6.999201775E0,1.462813973E0
1.491406042E0,1.283388972E0,6.994410992E0,1.731109977E0
1.493906094E0,1.345672011E0,6.984828949E0,1.951496005E0
1.496406094E0,1.364835978E0,7.032739162E0,2.258120060E0
1.498932865E0,1.398373008E0,7.018365860E0,2.622236013E0
1.501432917E0,1.360044956E0,6.951292038E0,2.885740995E0
1.503932917E0,1.364835978E0,7.023157120E0,3.130081892E0
1.506432969E0,1.417536974E0,6.999201775E0,3.350467920E0
1.508933021E0,1.388790965E0,6.994410992E0,3.494198084E0
1.511433073E0,1.417536974E0,6.984828949E0,3.580435991E0
1.513933125E0,1.292971015E0,6.912963867E0,3.714584112E0
1.516433177E0,1.154031992E0,6.932127953E0,3.839149952E0
1.518933229E0,1.082167029E0,6.889008999E0,3.839149952E0
1.521433281E0,1.019883990E0,6.898591042E0,3.834358931E0
1.523933333E0,9.384369850E-1,6.869844913E0,3.824776888E0
1.526433333E0,9.001089931E-1,6.788397789E0,3.767285109E0
1.528961094E0,8.186619878E-1,6.774024963E0,3.671464920E0
1.531461146E0,7.132599950E-1,6.721323967E0,3.623554945E0
1.533961146E0,6.413949728E-1,6.716533184E0,3.561271906E0
1.536461198E0,5.982760191E-1,6.663832188E0,3.455869913E0
1.538961250E0,5.934849977E-1,6.539266109E0,3.379214048E0
1.541461302E0,5.503659844E-1,6.500937939E0,3.307348967E0
1.543961354E0,5.407840014E-1,6.405117989E0,3.211529016E0
1.546461406E0,5.695300102E-1,6.328462124E0,3.182782888E0
1.548961458E0,6.030669808E-1,6.151195049E0,3.149245977E0
1.551461511E0,5.503659844E-1,6.036211014E0,3.106127024E0
1.553961563E0,5.599480271E-1,5.935599804E0,3.110918045E0
1.556461563E0,6.413949728E-1,5.811034203E0,3.053426027E0
1.558988594E0,6.605589986E-1,5.662512779E0,3.034261942E0
1.561489063E0,7.420060039E-1,5.499619007E0,3.005516052E0
1.563989583E0,8.186619878E-1,5.375052929E0,2.991142988E0
1.566490052E0,9.288550019E-1,5.226531982E0,2.948024035E0
1.568990573E0,9.288550019E-1,5.068428993E0,2.928859949E0
1.571491042E0,9.959290028E-1,4.915116787E0,2.928859949E0
1.573991563E0,1.072584987E0,4.771387100E0,2.885740995E0
1.576492083E0,1.149240971E0,4.642029762E0,2.933650970E0
1.578992552E0,1.163614035E0,4.565373898E0,3.015098095E0
1.581493073E0,1.182778001E0,4.594120026E0,3.067799091E0
1.583993542E0,1.168405056E0,4.632448196E0,3.216320038E0
1.586494063E0,1.115704060E0,4.651611805E0,3.340886116E0
1.589018490E0,1.101330996E0,4.742640972E0,3.518152952E0
1.591518958E0,1.039047956E0,4.843252182E0,3.786448956E0
1.594019479E0,9.623919725E-1,4.919908047E0,3.997252941E0
1.596519948E0,9.767649770E-1,4.929490089E0,4.107446194E0
1.599020469E0,9.959290028E-1,5.006145954E0,4.188892841E0
1.601520938E0,9.767649770E-1,5.044474125E0,4.275131226E0
1.604021458E0,9.863470197E-1,5.006145954E0,4.447607040E0
1.606521979E0,1.048629999E0,4.967817783E0,4.648828983E0
1.609022448E0,1.101330996E0,4.953444958E0,4.869215012E0
1.611522969E0,1.187569022E0,4.891161919E0,5.041690826E0
1.614023438E0,1.288179994E0,4.876789093E0,5.175838947E0
1.616523958E0,1.436701059E0,4.848042965E0,5.266868114E0
1.619044271E0,1.575639963E0,4.761805058E0,5.271658897E0
1.621544740E0,1.743324995E0,4.699522018E0,5.247704029E0
1.624045261E0,1.944547057E0,4.728268147E0,5.151884079E0
1.626545729E0,2.179306030E0,4.780969143E0,5.080018997E0
1.629046250E0,2.423646927E0,4.824088097E0,4.931498051E0
1.631546719E0,2.677570105E0,4.900743961E0,4.735066891E0
1.634047240E0,2.950656891E0,5.078011036E0,4.605710030E0
1.636547761E0,3.180624962E0,5.260068893E0,4.442815781E0
1.639048229E0,3.401010990E0,5.480454922E0,4.212848186E0
1.641548750E0,3.597441912E0,5.648139954E0,4.006834984E0
1.644049219E0,3.827409983E0,5.921226978E0,3.762494087E0
1.646549740E0,4.033422947E0,6.127240181E0,3.585227013E0
1.649074896E0,4.239436150E0,6.342834949E0,3.369632006E0
1.651575365E0,4.330464840E0,6.620713234E0,3.201946974E0
1.654075886E0,4.455030918E0,6.850680828E0,3.053426027E0
1.656576354E0,4.383165836E0,7.181260109E0,3.067799091E0
1.659076875E0,4.114870071E0,7.550167084E0,3.173201084E0
1.661577344E0,3.985512972E0,7.837626934E0,3.278603077E0
1.664077865E0,3.798664093E0,8.172997475E0,3.388796091E0
1.666578386E0,3.448920965E0,8.666469574E0,3.561271906E0
1.669078854E0,3.089596033E0,9.126405716E0,3.752912045E0
1.671579375E0,2.826091051E0,9.667789459E0,4.035581112E0
1.674079844E0,2.533839941E0,1.019000816E1,4.342205048E0
1.676580365E0,2.260752916E0,1.070743561E1,4.600918770E0
1.679099115E0,2.035576105E0,1.127277374E1,4.869215012E0
1.681599583E0,1.848726988E0,1.172791862E1,5.142302036E0
1.684100104E0,1.690623999E0,1.212557220E1,5.439343929E0
1.686600573E0,1.522938967E0,1.243219566E1,5.707640171E0
1.689101094E0,1.527729988E0,1.252801609E1,5.908862114E0
1.691601563E0,1.479820013E0,1.260946274E1,6.196321964E0
1.694102083E0,1.412745953E0,1.269091034E1,6.546064854E0
1.696602604E0,1.345672011E0,1.281547642E1,6.799987793E0
1.699103073E0,1.326508045E0,1.288255024E1,6.828733921E0
1.701603594E0,1.518147945E0,1.298316097E1,6.694585800E0
1.704104063E0,1.872681975E0,1.289213181E1,6.656258106E0
1.706604583E0,2.303872108E0,1.284422207E1,6.560438156E0
1.709126823E0,2.739852905E0,1.268132782E1,6.407125950E0
1.711627292E0,3.118341923E0,1.254238892E1,6.119666100E0
1.714127813E0,3.463294029E0,1.248968792E1,5.817832947E0
1.716628281E0,3.650142908E0,1.253280735E1,5.563910007E0
1.719128802E0,3.817827940E0,1.264779091E1,5.204585075E0
1.721629271E0,3.913647890E0,1.284901333E1,4.902751923E0
1.724129792E0,3.928020954E0,1.313168240E1,4.624874115E0
1.726630313E0,3.880110979E0,1.337602329E1,4.471561909E0
1.729130781E0,3.808245897E0,1.354370785E1,4.490725994E0
1.731631302E0,3.755544901E0,1.362036419E1,4.591337204E0
1.734131771E0,3.664515972E0,1.357724476E1,4.739858150E0
1.736632292E0,3.630979061E0,1.349100685E1,4.993781090E0
1.739155313E0,3.544740915E0,1.327062130E1,5.262076855E0
1.741655781E0,3.401010990E0,1.297836971E1,5.674102783E0
1.744156302E0,3.214162111E0,1.265737343E1,6.014264107E0
1.746656771E0,2.998567104E0,1.230283928E1,6.301723957E0
1.749157292E0,2.715898037E0,1.193872261E1,6.474199772E0
1.751657761E0,2.428437948E0,1.158418941E1,6.589183807E0
1.754158281E0,2.131396055E0,1.125360966E1,6.799987793E0
1.756658802E0,1.829563022E0,1.115299892E1,6.958090782E0
1.759159271E0,1.570848942E0,1.110029793E1,6.924553871E0
1.761659792E0,1.422327995E0,1.120090866E1,6.900599003E0
1.764160261E0,1.398373008E0,1.145962334E1,6.847898006E0
1.766660781E0,1.465446949E0,1.175187397E1,6.589183807E0
1.769183906E0,1.637923002E0,1.204891586E1,6.263395786E0
1.771684375E0,1.791234970E0,1.239386845E1,5.817832947E0
1.774184896E0,2.016412020E0,1.260467243E1,5.348314762E0
1.776685365E0,2.193679094E0,1.275798416E1,4.830886841E0
1.779185886E0,2.251171112E0,1.287775898E1,4.299086094E0
1.781686354E0,2.145768881E0,1.300232506E1,3.791239977E0
1.784186875E0,1.843935966E0,1.312689114E1,3.316931009E0
1.786687396E0,1.417536974E0,1.326583004E1,2.900114059E0
1.789187865E0,9.144819975E-1,1.348621559E1,2.444968939E0
1.791688386E0,4.641279876E-1,1.381200409E1,1.985033035E0
1.794188854E0,1.048030034E-1,1.414258289E1,1.558634043E0
1.796689375E0,-2.832680047E-1,1.449711704E1,1.247218966E0
1.799213125E0,-5.515639782E-1,1.474624920E1,1.017251015E0
1.801713594E0,-7.432039976E-1,1.489956093E1,8.064470291E-1
1.804214115E0,-9.444260001E-1,1.496663475E1,7.106270194E-1
1.806714583E0,-9.060980082E-1,1.497621727E1,6.627169847E-1
1.809215104E0,-6.569659710E-1,1.501933575E1,5.764790177E-1
1.811715573E0,-2.736859918E-1,1.497142601E1,4.135850072E-1
1.814216094E0,1.095940024E-1,1.486123276E1,1.117520034E-1
1.816716615E0,5.886939764E-1,1.464084721E1,-2.284090072E-1
1.819217083E0,1.269016027E0,1.450190830E1,-6.739720106E-1
1.821717604E0,1.858309031E0,1.433901405E1,-1.220145941E0
1.824218073E0,2.385318995E0,1.413300133E1,-1.790274978E0
1.826718594E0,2.845254898E0,1.401801682E1,-2.393940926E0
1.829238594E0,3.070431948E0,1.389824200E1,-2.877831936E0
1.831739063E0,3.084805012E0,1.379763126E1,-3.208410978E0
1.834239583E0,2.984194040E0,1.358682728E1,-3.462333918E0
1.836740052E0,2.816509008E0,1.324187469E1,-3.524616957E0
1.839240573E0,2.648823977E0,1.285380363E1,-3.505453110E0
1.841741042E0,2.514676094E0,1.238428593E1,-3.323395014E0
1.844241563E0,2.423646927E0,1.192914104E1,-3.069472075E0
1.846742083E0,2.375736952E0,1.144045925E1,-2.734102011E0
1.849242552E0,2.313453913E0,1.107155228E1,-2.374777079E0
1.851743073E0,2.198470116E0,1.064036179E1,-2.058571100E0
1.854243542E0,2.073904037E0,1.012772465E1,-1.665709019E0
1.856744063E0,2.059530973E0,9.662998199E0,-1.311174989E0
1.859265938E0,2.069113016E0,9.159942627E0,-1.076416016E0
1.861766406E0,2.121814013E0,8.642515182E0,-8.368660212E-1
1.864266927E0,2.217633963E0,8.163414955E0,-6.021069884E-1
1.866767396E0,2.356573105E0,7.703478813E0,-4.967049956E-1
1.869267917E0,2.485929966E0,7.272288799E0,-4.008849859E-1
1.871768386E0,2.529048920E0,6.874636173E0,-3.721390069E-1
1.874268906E0,2.495512009E0,6.587175846E0,-4.344219863E-1
1.876769427E0,2.442811012E0,6.294925213E0,-5.302420259E-1
1.879269896E0,2.337409019E0,5.940391064E0,-7.075089812E-1
1.881770417E0,2.241589069E0,5.614603043E0,-8.320749998E-1
1.884270886E0,2.112231970E0,5.317561150E0,-9.183130264E-1
1.886771406E0,1.901427984E0,5.087593079E0,-1.066833973E0
1.889293854E0,1.671460032E0,4.833670139E0,-1.311174989E0
1.891794323E0,1.489402056E0,4.646821022E0,-1.464486957E0
1.894294844E0,1.240270019E0,4.517464161E0,-1.670500040E0
1.896795313E0,1.077376008E0,4.330615044E0,-1.814229965E0
1.899295833E0,9.288550019E-1,4.182094097E0,-2.010660887E0
1.901796302E0,7.084689736E-1,4.067110062E0,-2.183136940E0
1.904296823E0,5.647389889E-1,4.086274147E0,-2.346030951E0
1.906797344E0,4.449639916E-1,4.162930012E0,-2.465806007E0
1.909297813E0,2.389509976E-1,4.253959179E0,-2.504133940E0
1.911798333E0,5.689299852E-2,4.479135990E0,-2.451432943E0
1.914298802E0,-5.809099972E-2,4.694731236E0,-2.331657887E0
1.916799323E0,-1.730750054E-1,5.006145954E0,-2.116063118E0
1.919322031E0,-2.641040087E-1,5.408589840E0,-1.866930962E0
1.921822500E0,-3.263869882E-1,5.801452160E0,-1.569888949E0
1.924323021E0,-2.114029974E-1,6.184731960E0,-1.292011023E0
1.926823490E0,-5.330000073E-2,6.673414230E0,-1.018923998E0
1.929324011E0,1.239669994E-1,7.229169846E0,-7.218819857E-1
1.931824479E0,4.401730001E-1,7.828044891E0,-4.535860121E-1
1.934325000E0,6.940960288E-1,8.436502457E0,-1.661259979E-1
1.936825521E0,9.432280064E-1,9.030586243E0,3.509600088E-2
1.939325990E0,1.321717024E0,9.466567039E0,2.506909966E-1
1.941826511E0,1.709787965E0,9.849846840E0,3.800480068E-1
1.944326979E0,2.112231970E0,1.017563534E1,4.423309863E-1
1.946827500E0,2.414064884E0,1.046309471E1,4.279580116E-1
1.949350208E0,2.691942930E0,1.063557053E1,3.896299899E-1
1.951850677E0,3.075222969E0,1.071701813E1,2.171539962E-1
1.954351198E0,3.410593033E0,1.072180939E1,5.426000059E-2
1.956851667E0,3.578278065E0,1.061640739E1,-1.757079959E-1
1.959352188E0,3.693262100E0,1.047267723E1,-4.440039992E-1
1.961852656E0,3.683680058E0,1.030020142E1,-6.691809893E-1
1.964353177E0,3.626188040E0,1.008939743E1,-9.326859713E-1
1.966853698E0,3.520786047E0,9.950457573E0,-1.105162024E0
1.969354167E0,3.386637926E0,9.830682755E0,-1.224936962E0
1.971854688E0,3.204580069E0,9.706116676E0,-1.325548053E0
1.974355156E0,3.022521973E0,9.543223381E0,-1.330338955E0
1.976855677E0,2.806926966E0,9.471358299E0,-1.378249049E0
1.979383021E0,2.620078087E0,9.394701958E0,-1.301592946E0
1.981883490E0,2.442811012E0,9.294091225E0,-1.200981975E0
1.984384011E0,2.346991062E0,9.284508705E0,-1.095579982E0
1.986884479E0,2.337409019E0,9.289299965E0,-9.326859713E-1
1.989385000E0,2.279917002E0,9.394701958E0,-7.650009990E-1
1.991885469E0,2.275125980E0,9.581550598E0,-6.212710142E-1
1.994385990E0,2.332617998E0,9.801937103E0,-5.302420259E-1
1.996886511E0,2.553004026E0,9.854638100E0,-9.426099807E-2
1.999386979E0,2.667988062E0,9.825892448E0,1.644529998E-1
2.001887500E0,2.605705023E0,9.902547836E0,2.554819882E-1
2.004387969E0,2.586540937E0,1.007981491E1,5.189870000E-1
2.006888490E0,2.653614998E0,1.021396255E1,6.675080061E-1
2.009385313E0,2.644032955E0,1.032894707E1,6.962540150E-1
2.011885781E0,2.567377090E0,1.035290241E1,6.770899892E-1
2.014386302E0,2.596122980E0,1.039602089E1,5.477330089E-1
2.016886771E0,2.505094051E0,1.030020142E1,5.621060133E-1
2.019387292E0,2.414064884E0,1.011335182E1,4.710769951E-1
2.021887761E0,2.265543938E0,1.003669643E1,3.177649975E-1
2.024388281E0,2.011620998E0,9.964831352E0,2.075719982E-1
2.026888750E0,1.661877990E0,9.907339096E0,-1.281400025E-2
2.029389271E0,1.489402056E0,9.806728363E0,-1.421709955E-1
2.031889792E0,1.379209042E0,9.648625374E0,-3.050650060E-1
2.034390261E0,1.278597951E0,9.485731125E0,-5.781520009E-1
2.036890781E0,1.225896955E0,9.385120392E0,-8.895670176E-1
2.039445833E0,1.221106052E0,9.284508705E0,-1.119534969E0
2.041946302E0,1.187569022E0,9.236598969E0,-1.287220001E0
2.044446823E0,1.144449949E0,9.236598969E0,-1.406995058E0
2.046947292E0,1.259433985E0,9.198270798E0,-1.450114012E0
2.049447813E0,1.393581986E0,9.193479538E0,-1.430950046E0
2.051948281E0,1.566058040E0,9.246180534E0,-1.344712019E0
2.054448802E0,1.685832977E0,9.289299965E0,-1.248891950E0
2.056949323E0,1.891845942E0,9.389910698E0,-1.157863021E0
2.059449792E0,2.083486080E0,9.437821388E0,-1.095579982E0
2.061950313E0,2.203260899E0,9.495312691E0,-1.014132977E0
2.064450781E0,2.303872108E0,9.485731125E0,-9.470589757E-1
2.066951302E0,2.394901037E0,9.480939865E0,-9.566410184E-1
2.069439688E0,2.452393055E0,9.480939865E0,-9.183130264E-1
2.071940469E0,2.505094051E0,9.433030128E0,-8.799849749E-1
2.074441354E0,2.600914001E0,9.342000961E0,-8.847759962E-1
2.076942188E0,2.653614998E0,9.318045616E0,-8.847759962E-1
2.079443021E0,2.715898037E0,9.303672791E0,-9.087309837E-1
2.081943854E0,2.663197041E0,9.274927139E0,-9.183130264E-1
2.084444688E0,2.648823977E0,9.188689232E0,-9.087309837E-1
2.086945521E0,2.711107016E0,9.212643623E0,-9.278950095E-1
2.089446354E0,2.701524973E0,9.135988235E0,-8.991490006E-1
2.091947240E0,2.696733952E0,9.112032890E0,-9.326859713E-1
2.094448073E0,2.682360888E0,9.059331894E0,-9.183130264E-1
2.096948906E0,2.653614998E0,8.968302727E0,-8.751940131E-1
2.099499583E0,2.701524973E0,8.925184250E0,-8.320749998E-1
2.102000417E0,2.725480080E0,8.877273560E0,-7.554190159E-1
2.104501250E0,2.730271101E0,8.810199738E0,-6.260619760E-1
2.107002083E0,2.739852905E0,8.795826912E0,-5.302420259E-1
2.109502917E0,2.782972097E0,8.767081261E0,-4.392130077E-1
2.112003750E0,2.816509008E0,8.767081261E0,-3.960939944E-1
2.114504583E0,2.912328959E0,8.714380264E0,-3.817209899E-1
2.117005469E0,2.950656891E0,8.656888008E0,-4.056760073E-1
2.119506302E0,2.979403019E0,8.604187012E0,-4.008849859E-1
2.122007136E0,3.017730951E0,8.594605446E0,-4.296309948E-1
2.124507969E0,3.075222969E0,8.618559837E0,-5.110780001E-1
2.127008802E0,3.108760118E0,8.585022926E0,-6.068980098E-1
2.129492292E0,3.180624962E0,8.589814186E0,-6.835539937E-1
2.131993073E0,3.257281065E0,8.527530670E0,-7.458369732E-1
2.134493958E0,3.333936930E0,8.537113190E0,-8.895670176E-1
2.136994792E0,3.424966097E0,8.474829674E0,-9.662230015E-1
2.139495625E0,3.434547901E0,8.470039368E0,-9.805960059E-1
2.141996458E0,3.458503008E0,8.489203453E0,-1.057252049E0
2.144497292E0,3.525577068E0,8.460456848E0,-1.109953046E0
2.146998125E0,3.573487043E0,8.426919937E0,-1.177026987E0
2.149498958E0,3.630979061E0,8.388591766E0,-1.258473992E0
2.151999844E0,3.616605997E0,8.350263596E0,-1.315966010E0
2.154500677E0,3.635770082E0,8.345473289E0,-1.359084964E0
2.157001511E0,3.707634926E0,8.321517944E0,-1.430950046E0
2.159556979E0,3.607023954E0,8.264025688E0,-1.387830973E0
2.162057813E0,3.597441912E0,8.259235382E0,-1.383039951E0
2.164558646E0,3.578278065E0,8.225698471E0,-1.349503040E0
2.167059479E0,3.515995026E0,8.206534386E0,-1.248891950E0
2.169560313E0,3.487248898E0,8.149042130E0,-1.191400051E0
2.172061146E0,3.420175076E0,8.139459610E0,-1.138699055E0
2.174561979E0,3.353101015E0,8.129878044E0,-1.047670007E0
2.177062865E0,3.286026955E0,8.077177048E0,-9.614319801E-1
2.179563698E0,3.295608997E0,8.062804222E0,-8.656119704E-1
2.182064531E0,3.247699022E0,8.024476051E0,-7.841650248E-1
2.184565365E0,3.238116980E0,8.000520706E0,-7.889559865E-1
2.187066198E0,3.166251898E0,7.995729923E0,-7.602099776E-1
2.189583281E0,3.161461115E0,8.019684792E0,-7.218819857E-1
2.192084115E0,3.142297029E0,8.129878044E0,-6.404349804E-1
2.194584948E0,3.089596033E0,8.153833389E0,-5.925250053E-1
2.197085781E0,3.008148909E0,8.244861603E0,-5.350329876E-1
2.199586615E0,2.993776083E0,8.345473289E0,-4.679589868E-1
2.202087448E0,2.945866108E0,8.412547112E0,-5.062869787E-1
2.204588281E0,2.874001026E0,8.570650101E0,-4.823319912E-1
2.207089167E0,2.806926966E0,8.690424919E0,-4.392130077E-1
2.209590000E0,2.773390055E0,8.786245346E0,-4.008849859E-1
2.212090833E0,2.653614998E0,8.977885246E0,-4.008849859E-1
2.214591667E0,2.562586069E0,9.025794983E0,-3.529750109E-1
2.217092500E0,2.505094051E0,9.131196976E0,-2.859010100E-1
2.219610938E0,2.409274101E0,9.255763054E0,-2.284090072E-1
2.222111771E0,2.351782084E0,9.303672791E0,-2.188269943E-1
2.224612604E0,2.332617998E0,9.380329132E0,-1.852899939E-1
2.227113438E0,2.294290066E0,9.423447609E0,-1.373800039E-1
2.229614271E0,2.227216005E0,9.471358299E0,-5.114199966E-2
2.232115104E0,2.169723988E0,9.538432121E0,-6.551499665E-2
2.234615938E0,2.117022991E0,9.610297203E0,-2.718699910E-2
2.237116823E0,2.045157909E0,9.610297203E0,2.072300017E-2
2.239617656E0,2.030785084E0,9.571969032E0,1.593199931E-2
2.242118490E0,1.982874990E0,9.552804947E0,3.030500002E-2
2.244619323E0,1.944547057E0,9.533640862E0,8.779700100E-2
2.247120156E0,1.930173993E0,9.504895210E0,1.404979974E-1
2.249639271E0,1.925382972E0,9.476148605E0,2.315270007E-1
2.252140104E0,1.915801048E0,9.447402954E0,2.075719982E-1
2.254640938E0,1.973292947E0,9.490522385E0,1.788260043E-1
2.257141771E0,2.040366888E0,9.485731125E0,7.821500301E-2
2.259642604E0,2.131396055E0,9.471358299E0,-2.718699910E-2
2.262143438E0,2.275125980E0,9.490522385E0,-1.613350064E-1
2.264644271E0,2.385318995E0,9.571969032E0,-3.529750109E-1
2.267145156E0,2.500303030E0,9.595924377E0,-5.110780001E-1
2.269645990E0,2.644032955E0,9.658206940E0,-6.452260017E-1
2.272146823E0,2.792553902E0,9.662998199E0,-7.506279945E-1
2.274647656E0,2.979403019E0,9.643834114E0,-8.991490006E-1
2.277148490E0,3.080013990E0,9.653415680E0,-9.901779890E-1
2.279667656E0,3.190207005E0,9.691743851E0,-1.042878985E0
2.282168490E0,3.286026955E0,9.696535110E0,-1.085998058E0
2.284669323E0,3.338727951E0,9.667789459E0,-1.071624994E0
2.287170156E0,3.396219969E0,9.730072021E0,-1.028506041E0
2.289670990E0,3.448920965E0,9.730072021E0,-9.710140228E-1
2.292171823E0,3.458503008E0,9.739653587E0,-9.087309837E-1
2.294672656E0,3.367474079E0,9.806728363E0,-7.745829821E-1
2.297173542E0,3.348309994E0,9.878593445E0,-6.500170231E-1
2.299674375E0,3.247699022E0,1.000315857E1,-4.775409997E-1
2.302175208E0,3.175833941E0,1.005585957E1,-3.194380105E-1
2.304676042E0,3.127923965E0,1.023312664E1,-2.331999987E-1
2.307176875E0,3.041686058E0,1.032415581E1,-1.757079959E-1
2.309694115E0,2.974611998E0,1.037206554E1,-2.140360028E-1
2.312194948E0,2.969820976E0,1.037206554E1,-3.098559976E-1
2.314695781E0,3.089596033E0,1.037685680E1,-3.769299984E-1
2.317196615E0,3.190207005E0,1.045351315E1,-4.583770037E-1
2.319697448E0,3.233325958E0,1.042955780E1,-6.500170231E-1
2.322198281E0,3.242908001E0,1.046309471E1,-8.656119704E-1
2.324699167E0,3.290817976E0,1.042955780E1,-9.997599721E-1
2.327200000E0,3.319564104E0,1.039602089E1,-1.023715019E0
2.329700833E0,3.362683058E0,1.035769272E1,-9.710140228E-1
2.332201667E0,3.420175076E0,1.031936455E1,-9.614319801E-1
2.334702500E0,3.515995026E0,1.022833633E1,-9.326859713E-1
2.337203333E0,3.611814976E0,1.010377026E1,-8.943579793E-1
2.339722136E0,3.674098015E0,9.964831352E0,-8.991490006E-1
2.342222969E0,3.755544901E0,9.878593445E0,-9.183130264E-1
2.344723802E0,3.846574068E0,9.792354584E0,-8.943579793E-1
2.347224636E0,3.918438911E0,9.701326370E0,-9.231039882E-1
2.349725469E0,4.009468079E0,9.662998199E0,-9.087309837E-1
2.352226302E0,4.124452114E0,9.653415680E0,-9.518499970E-1
2.354727136E0,4.201107979E0,9.639042854E0,-1.033296943E0
2.357228021E0,4.320882797E0,9.710907936E0,-1.124325991E0
2.359728854E0,4.402329922E0,9.734863281E0,-1.200981975E0
2.362229688E0,4.493359089E0,9.835474014E0,-1.253682971E0
2.364730521E0,4.531686783E0,9.936084747E0,-1.311174989E0
2.367231354E0,4.579596996E0,1.006544209E1,-1.320757031E0
2.369749688E0,4.622715950E0,1.021396255E1,-1.224936962E0
2.372250521E0,4.708953857E0,1.037685680E1,-1.229727983E0
2.374751354E0,4.761654854E0,1.052058697E1,-1.287220001E0
2.377252188E0,4.847893238E0,1.071222687E1,-1.383039951E0
2.379753021E0,4.948503971E0,1.097094059E1,-1.483651042E0
2.382253854E0,5.049115181E0,1.125360966E1,-1.675290942E0
2.384754688E0,5.149725914E0,1.155544281E1,-1.795065999E0
2.387255573E0,5.159307957E0,1.188123131E1,-1.895676970E0
2.389756406E0,5.154517174E0,1.226451111E1,-1.876513004E0
2.392257240E0,5.039533138E0,1.271486473E1,-1.814229965E0
2.394758073E0,4.852684021E0,1.317000961E1,-1.742365003E0
2.397258906E0,4.565224171E0,1.364431858E1,-1.617799044E0
2.399745469E0,4.239436150E0,1.406113625E1,-1.502815008E0
2.402246250E0,3.928020954E0,1.441567039E1,-1.493232965E0
2.404747136E0,3.616605997E0,1.473666668E1,-1.378249049E0
2.407247969E0,3.372265100E0,1.498100758E1,-1.363875985E0
2.409748802E0,3.209371090E0,1.517264843E1,-1.383039951E0
2.412249636E0,3.051268101E0,1.528284073E1,-1.416576982E0
2.414750469E0,2.902746916E0,1.534991455E1,-1.584262013E0
2.417251302E0,2.878792048E0,1.533075142E1,-1.804648042E0
2.419752136E0,2.965029955E0,1.533554173E1,-2.125644922E0
2.422253021E0,3.032104015E0,1.526367664E1,-2.484970093E0
2.424753854E0,3.108760118E0,1.514390182E1,-2.839504004E0
2.427254688E0,3.180624962E0,1.494268036E1,-3.337768078E0
2.429758802E0,3.290817976E0,1.469833946E1,-3.850404978E0
2.432259583E0,3.338727951E0,1.444920731E1,-4.339087009E0
2.434760469E0,3.362683058E0,1.427194023E1,-4.616964817E0
2.437261302E0,3.305191040E0,1.405155373E1,-4.746322155E0
2.439762136E0,3.180624962E0,1.388386917E1,-4.525936127E0
2.442262969E0,2.984194040E0,1.374972057E1,-4.248057842E0
2.444763802E0,2.682360888E0,1.367785645E1,-3.778539896E0
2.447264636E0,2.375736952E0,1.360120010E1,-3.217993021E0
2.449765469E0,2.160141945E0,1.345267868E1,-2.700565100E0
2.452266354E0,1.949337959E0,1.319396496E1,-2.336448908E0
2.454767188E0,1.786443949E0,1.282026672E1,-2.125644922E0
2.457268021E0,1.613968015E0,1.247531509E1,-2.039407015E0
2.459835677E0,1.436701059E0,1.203933430E1,-2.163973093E0
2.462336511E0,1.206732988E0,1.149316025E1,-2.374777079E0
2.464837344E0,1.072584987E0,1.099489594E1,-2.681401014E0
2.467338177E0,9.528099895E-1,1.057328796E1,-2.949697018E0
2.469839011E0,8.234530091E-1,1.016126156E1,-3.304230928E0
2.472339844E0,6.557679772E-1,9.777981758E0,-3.630018950E0
2.474840677E0,5.072469711E-1,9.485731125E0,-3.888732910E0
2.477341563E0,3.539350033E-1,9.303672791E0,-3.883941889E0
2.479842396E0,1.622949988E-1,9.265344620E0,-3.433588028E0
2.482343229E0,-1.060009971E-1,9.322836876E0,-2.820339918E0
2.484844063E0,-3.647150099E-1,9.418657303E0,-2.211883068E0
2.487344896E0,-6.617569923E-1,9.591133118E0,-1.579470992E0
2.489825521E0,-1.001917958E0,9.734863281E0,-1.028506041E0
2.492326354E0,-1.327705979E0,9.835474014E0,-5.254510045E-1
2.494827240E0,-1.557674050E0,9.950457573E0,1.593199931E-2
2.497328073E0,-1.802014947E0,1.005585957E1,6.339709759E-1
2.499828906E0,-1.912207961E0,1.016605282E1,1.175354004E0
2.502329740E0,-1.955327034E0,1.033852863E1,1.558634043E0
2.504830573E0,-1.916998982E0,1.050621414E1,1.788601995E0
2.507331406E0,-1.830760956E0,1.066431713E1,1.937122941E0
2.509832240E0,-1.725358963E0,1.091344929E1,2.004196882E0
2.512333125E0,-1.557674050E0,1.117216301E1,2.066479921E0
2.514833958E0,-1.370825052E0,1.145004082E1,2.047316074E0
2.517334792E0,-1.193557978E0,1.179020214E1,1.985033035E0
2.519891302E0,-9.348440170E-1,1.207287121E1,1.917958975E0
2.522392136E0,-7.336220145E-1,1.225971985E1,1.884421945E0
2.524892969E0,-5.084450245E-1,1.250885201E1,1.702363968E0
2.527393802E0,-2.066120058E-1,1.266695499E1,1.549052000E0
2.529894636E0,4.731100053E-2,1.281547642E1,1.390949011E0
2.532395469E0,2.820700109E-1,1.291129589E1,1.165771961E0
2.534896302E0,5.934849977E-1,1.294004154E1,8.351929784E-1
2.537397188E0,9.288550019E-1,1.295920563E1,4.183759987E-1
2.539898021E0,1.245061040E0,1.294004154E1,-8.023000322E-3
2.542398854E0,1.484611034E0,1.288734055E1,-2.715280056E-1
2.544899688E0,1.724161029E0,1.284422207E1,-5.973160267E-1
2.547400521E0,2.030785084E0,1.273882008E1,-9.183130264E-1
2.549920104E0,2.284708023E0,1.259988117E1,-1.153072000E0
2.552420938E0,2.533839941E0,1.248489666E1,-1.349503040E0
2.554921771E0,2.730271101E0,1.229804802E1,-1.440531969E0
2.557422604E0,3.041686058E0,1.198663330E1,-1.373458028E0
2.559923438E0,3.242908001E0,1.179499340E1,-1.148280978E0
2.562424271E0,3.329145908E0,1.152669716E1,-9.710140228E-1
2.564925104E0,3.175833941E0,1.125840092E1,-7.362549901E-1
2.567425990E0,2.993776083E0,1.096615028E1,-5.110780001E-1
2.569926823E0,2.869210005E0,1.062598896E1,-3.481839895E-1
2.572427656E0,2.768599033E0,1.041039371E1,-1.373800039E-1
2.574928490E0,2.720689058E0,1.024750042E1,1.788260043E-1
2.577429323E0,2.562586069E0,1.006065083E1,4.567039907E-1
2.579909844E0,2.452393055E0,9.878593445E0,7.250000238E-1
2.582410990E0,2.399692059E0,9.730072021E0,9.645500183E-1
2.584912083E0,2.275125980E0,9.600714684E0,1.208891034E0
2.587413229E0,2.208051920E0,9.476148605E0,1.362203002E0
2.589914375E0,2.097858906E0,9.394701958E0,1.501142025E0
2.592415521E0,1.997248054E0,9.356373787E0,1.596961975E0
2.594916615E0,1.863100052E0,9.207853317E0,1.678408980E0
2.597417761E0,1.824772000E0,9.155152321E0,1.692782044E0
2.599918906E0,1.848726988E0,9.088077545E0,1.544260979E0
2.602420052E0,1.944547057E0,9.073704720E0,1.419695020E0
2.604921198E0,2.006829977E0,9.035376549E0,1.362203002E0
2.607422292E0,1.987666011E0,9.040167809E0,1.247218966E0
2.609936979E0,1.987666011E0,8.963512421E0,1.223263979E0
2.612438125E0,2.035576105E0,8.853319168E0,1.084324956E0
2.614939219E0,2.121814013E0,8.829363823E0,1.007668972E0
2.617440365E0,2.131396055E0,8.786245346E0,1.002877951E0
2.619941511E0,2.112231970E0,8.642515182E0,9.549679756E-1
2.622442656E0,1.954128981E0,8.522740364E0,9.549679756E-1
2.624943750E0,1.997248054E0,8.374218941E0,1.002877951E0
2.627444896E0,2.102649927E0,8.264025688E0,1.127444029E0
2.629946042E0,2.097858906E0,8.240071297E0,1.242427945E0
2.632447188E0,2.078695059E0,8.201743126E0,1.371785045E0
2.634948333E0,2.088277102E0,8.115505219E0,1.481978059E0
2.637449427E0,2.097858906E0,7.995729923E0,1.553843021E0
2.640006042E0,2.136187077E0,7.885537148E0,1.668827057E0
2.642507136E0,2.217633963E0,7.784925938E0,1.889212966E0
2.645008281E0,2.327826977E0,7.669941902E0,2.032943010E0
2.647509427E0,2.409274101E0,7.511838913E0,2.229373932E0
2.650010521E0,2.447602034E0,7.320199013E0,2.382685900E0
2.652511667E0,2.428437948E0,7.233961105E0,2.425805092E0
2.655012813E0,2.380527973E0,7.123767853E0,2.531207085E0
2.657513958E0,2.423646927E0,7.008783817E0,2.473715067E0
2.660015052E0,2.476347923E0,6.893799782E0,2.478506088E0
2.662516198E0,2.533839941E0,6.826725960E0,2.373104095E0
2.665017344E0,2.600914001E0,6.740488052E0,2.344357967E0
2.667518490E0,2.586540937E0,6.726115227E0,2.349148989E0
2.669993125E0,2.620078087E0,6.654250145E0,2.238955975E0
2.672494271E0,2.553004026E0,6.577593803E0,2.104808092E0
2.674995365E0,2.452393055E0,6.630294800E0,1.975450993E0
2.677496511E0,2.390110016E0,6.606339931E0,1.884421945E0
2.679997656E0,2.318244934E0,6.654250145E0,1.788601995E0
2.682498802E0,2.217633963E0,6.735696793E0,1.687991023E0
2.684999896E0,2.179306030E0,6.817143917E0,1.649662971E0
2.687501094E0,2.035576105E0,6.898591042E0,1.616125941E0
2.690002188E0,1.877472997E0,6.970456123E0,1.625707984E0
2.692503333E0,1.776862025E0,7.071066856E0,1.678408980E0
2.695004479E0,1.719370008E0,7.133349895E0,1.726318955E0
2.697505573E0,1.628340960E0,7.262707233E0,1.846094012E0
2.700058542E0,1.470237970E0,7.353735924E0,1.946704984E0
2.702559688E0,1.369626999E0,7.435183048E0,2.085644007E0
2.705060833E0,1.273807049E0,7.492674828E0,2.272492886E0
2.707561979E0,1.192360044E0,7.569331169E0,2.421014071E0
2.710063073E0,1.072584987E0,7.626822948E0,2.507251978E0
2.712564219E0,9.432280064E-1,7.708270073E0,2.555161953E0
2.715065365E0,8.809450269E-1,7.751389027E0,2.684519053E0
2.717566511E0,7.899159789E-1,7.775343895E0,2.756383896E0
2.720067604E0,6.270220280E-1,7.780135155E0,2.818666935E0
2.722568750E0,6.078580022E-1,7.784925938E0,2.885740995E0
2.725069896E0,5.024560094E-1,7.770553112E0,2.876158953E0
2.727571042E0,3.874720037E-1,7.770553112E0,2.837831020E0
2.730086198E0,2.868610024E-1,7.727434158E0,2.823457956E0
2.732587344E0,2.006230056E-1,7.727434158E0,2.852204084E0
2.735088490E0,9.042999893E-2,7.698688030E0,2.842622042E0
2.737589636E0,-5.809099972E-2,7.665151119E0,2.823457956E0
2.740090729E0,-1.634930074E-1,7.669941902E0,2.895323038E0
2.742591875E0,-2.401490062E-1,7.607658863E0,2.890532017E0
2.745093021E0,-3.263869882E-1,7.564539909E0,2.943233013E0
2.747594167E0,-3.407599926E-1,7.454347134E0,2.938441992E0
2.750095261E0,-3.647150099E-1,7.372900009E0,2.981560946E0
2.752596406E0,-4.317890108E-1,7.329781055E0,3.029470921E0
2.755097552E0,-4.988630116E-1,7.210006237E0,3.029470921E0
2.757598698E0,-4.988630116E-1,7.109395027E0,3.039052963E0
2.760075052E0,-5.132359862E-1,6.960874081E0,3.067799091E0
2.762576198E0,-5.515639782E-1,6.889008999E0,3.082171917E0
2.765077292E0,-5.324000120E-1,6.783607006E0,3.067799091E0
2.767578490E0,-5.851010084E-1,6.596757889E0,3.106127024E0
2.770079583E0,-5.371909738E-1,6.424282074E0,3.115709066E0
2.772580729E0,-4.317890108E-1,6.314088821E0,3.154036999E0
2.775081823E0,-2.976410091E-1,6.132030964E0,3.106127024E0
2.777582969E0,-1.730750054E-1,5.921226978E0,3.053426027E0
2.780084115E0,-1.976300031E-2,5.772706032E0,3.053426027E0
2.782585261E0,1.000119969E-1,5.600230217E0,3.034261942E0
2.785086406E0,3.012340069E-1,5.456500053E0,2.995934010E0
2.787587500E0,4.976649880E-1,5.293605804E0,3.015098095E0
2.790142396E0,6.461859941E-1,5.178621769E0,2.976769924E0
2.792643542E0,7.851250172E-1,5.121129990E0,2.952815056E0
2.795144688E0,9.144819975E-1,5.063638210E0,2.928859949E0
2.797645833E0,1.043838978E0,5.058846951E0,2.895323038E0
2.800146927E0,1.120494962E0,5.049264908E0,2.885740995E0
2.802648073E0,1.206732988E0,5.068428993E0,2.866576910E0
2.805149219E0,1.235478997E0,5.121129990E0,2.861785889E0
2.807650365E0,1.264225006E0,5.164248943E0,2.852204084E0
2.810151458E0,1.312134981E0,5.317561150E0,2.914486885E0
2.812652604E0,1.336089969E0,5.384634972E0,2.967187881E0
2.815153750E0,1.307343960E0,5.432545185E0,3.010307074E0
2.817654896E0,1.316926003E0,5.437335968E0,3.053426027E0
2.820168854E0,1.374418020E0,5.427753925E0,3.134872913E0
2.822670000E0,1.412745953E0,5.403799057E0,3.168410063E0
2.825171146E0,1.417536974E0,5.399007797E0,3.235483885E0
2.827672292E0,1.446282983E0,5.375052929E0,3.345676899E0
2.830173386E0,1.498983979E0,5.384634972E0,3.446288109E0
2.832674531E0,1.532521009E0,5.384634972E0,3.561271906E0
2.835175677E0,1.556475997E0,5.298397064E0,3.666673899E0
2.837676823E0,1.551684976E0,5.336725235E0,3.815195084E0
2.840177917E0,1.604385972E0,5.284023762E0,3.997252941E0
2.842679063E0,1.618759036E0,5.260068893E0,4.126609802E0
2.845180208E0,1.652295947E0,5.284023762E0,4.342205048E0
2.847681354E0,1.748116016E0,5.274442196E0,4.481143951E0
2.850196719E0,1.834354043E0,5.274442196E0,4.648828983E0
2.852697865E0,1.949337959E0,5.331933975E0,4.763813019E0
2.855199011E0,2.097858906E0,5.379844189E0,4.830886841E0
2.857700156E0,2.279917002E0,5.413381100E0,4.854842186E0
2.860201250E0,2.428437948E0,5.461290836E0,4.874005795E0
2.862702396E0,2.629659891E0,5.528365135E0,4.869215012E0
2.865203542E0,2.759016991E0,5.638557911E0,4.792559147E0
2.867704688E0,2.984194040E0,5.748751163E0,4.682365894E0
2.870205781E0,3.185415983E0,5.897272110E0,4.533844948E0
2.872706927E0,3.338727951E0,6.074539185E0,4.452397823E0
2.875208073E0,3.492039919E0,6.256597042E0,4.370951176E0
2.877709219E0,3.597441912E0,6.491355896E0,4.255967140E0
2.880222917E0,3.611814976E0,6.802771091E0,4.179310799E0
2.882724063E0,3.650142908E0,7.085440159E0,4.184102058E0
2.885225208E0,3.654933929E0,7.387272835E0,4.217638969E0
2.887726354E0,3.602232933E0,7.679523945E0,4.212848186E0
2.890227448E0,3.587860107E0,8.000520706E0,4.260757923E0
2.892728594E0,3.492039919E0,8.297562599E0,4.447607040E0
2.895229740E0,3.424966097E0,8.565858841E0,4.572173119E0
2.897730886E0,3.372265100E0,8.819782257E0,4.816514015E0
2.900231979E0,3.343518972E0,9.059331894E0,5.036900043E0
2.902733125E0,3.305191040E0,9.332419395E0,5.223749161E0
2.905234271E0,3.257281065E0,9.624670029E0,5.477672100E0
2.907735417E0,3.266863108E0,9.873802185E0,5.698058128E0
2.910243281E0,3.309982061E0,1.013730717E1,5.860951900E0
2.912744427E0,3.391428947E0,1.034331989E1,6.023846149E0
2.915245573E0,3.487248898E0,1.053016853E1,6.090919971E0
2.917746719E0,3.664515972E0,1.075534630E1,6.110084057E0
2.920247813E0,3.899275064E0,1.092303085E1,6.062173843E0
2.922748958E0,4.138824940E0,1.110988045E1,6.100502014E0
2.925250104E0,4.359210968E0,1.134943008E1,6.076547146E0
2.927751250E0,4.560432911E0,1.153148842E1,6.052591801E0
2.930252344E0,4.795191765E0,1.173270988E1,5.999890804E0
2.932753490E0,4.972458839E0,1.192914104E1,5.971145153E0
2.935254636E0,5.097024918E0,1.207766247E1,6.023846149E0
2.937755781E0,5.245545864E0,1.229804802E1,5.966353893E0
2.940269271E0,5.408440113E0,1.240824127E1,5.908862114E0
2.942770417E0,5.528214931E0,1.248968792E1,5.817832947E0
2.945271563E0,5.667153835E0,1.249447918E1,5.726803780E0
2.947772708E0,5.873167038E0,1.240824127E1,5.645357132E0
2.950273802E0,6.007315159E0,1.230283928E1,5.535163879E0
2.952774948E0,6.074388981E0,1.220222759E1,5.492044926E0
2.955276094E0,6.112717152E0,1.205370712E1,5.357896805E0
2.957777240E0,6.045642853E0,1.201058769E1,5.228539944E0
2.960278333E0,5.978569031E0,1.190997696E1,5.161466122E0
2.962779479E0,5.801301956E0,1.176145554E1,5.094391823E0
2.965280625E0,5.561751842E0,1.161772633E1,5.094391823E0
2.967781771E0,5.350947857E0,1.147878742E1,5.127929211E0
2.970297396E0,5.068278790E0,1.123444557E1,5.228539944E0
2.972798542E0,4.799983025E0,1.103322411E1,5.391434193E0
2.975299688E0,4.512523174E0,1.079846478E1,5.520791054E0
2.977800833E0,4.157989025E0,1.060203362E1,5.664521217E0
2.980301927E0,3.841783047E0,1.041518497E1,5.755549908E0
2.982803073E0,3.578278065E0,1.023791790E1,5.822624207E0
2.985304219E0,3.353101015E0,1.008939743E1,5.856161118E0
2.987805365E0,3.113550901E0,9.940876007E0,5.860951900E0
2.990306458E0,2.878792048E0,9.754027367E0,5.779504776E0
2.992807604E0,2.572168112E0,9.624670029E0,5.678894043E0
2.995308750E0,2.294290066E0,9.533640862E0,5.702848911E0
2.997809896E0,2.011620998E0,9.528849602E0,5.765131950E0
3.000325938E0,1.685832977E0,9.581550598E0,5.808250904E0
3.002827083E0,1.407955050E0,9.754027367E0,5.784296036E0
3.005328229E0,1.192360044E0,9.979204178E0,5.774713993E0
3.007829375E0,1.039047956E0,1.028582764E1,5.698058128E0
3.010330469E0,1.029466033E0,1.055412388E1,5.530373096E0
3.012831615E0,1.120494962E0,1.094219494E1,5.290822983E0
3.015332761E0,1.269016027E0,1.133505726E1,4.945870876E0
3.017833906E0,1.455865026E0,1.171833706E1,4.524262905E0
3.020335000E0,1.647505045E0,1.210640812E1,4.021207809E0
3.022836146E0,1.695415020E0,1.252801609E1,3.446288109E0
3.025337292E0,1.590013027E0,1.309335423E1,2.895323038E0
3.027838438E0,1.412745953E0,1.363952827E1,2.444968939E0
3.030353281E0,1.149240971E0,1.426714897E1,2.042525053E0
3.032854427E0,8.426169753E-1,1.492351627E1,1.707154989E0
3.035355573E0,5.455750227E-1,1.557509232E1,1.419695020E0
3.037856719E0,3.970539868E-1,1.622187614E1,1.165771961E0
3.040357813E0,3.203980029E-1,1.685428810E1,1.041206002E0
3.042858958E0,3.108159900E-1,1.736213493E1,1.017251015E0
3.045360104E0,4.162180126E-1,1.771666908E1,8.974760175E-1
3.047861250E0,4.880830050E-1,1.800892067E1,8.160290122E-1
3.050362344E0,6.653500199E-1,1.822451591E1,6.339709759E-1
3.052863490E0,9.911379814E-1,1.832512665E1,3.129740059E-1
3.055364636E0,1.316926003E0,1.827721596E1,-1.277980059E-1
3.057865781E0,1.647505045E0,1.796100998E1,-5.925250053E-1
3.060379219E0,1.791234970E0,1.755856514E1,-1.057252049E0
3.062880365E0,1.805608034E0,1.697885513E1,-1.526769996E0
3.065381511E0,1.633131981E0,1.628416061E1,-1.934005022E0
3.067882656E0,1.379209042E0,1.544573498E1,-2.317285061E0
3.070383750E0,1.101330996E0,1.460251904E1,-2.571208000E0
3.072884896E0,8.426169753E-1,1.374493027E1,-2.714937925E0
3.075386042E0,5.503659844E-1,1.287296772E1,-2.676609993E0
3.077887188E0,2.676970065E-1,1.210161686E1,-2.504133940E0
3.080388281E0,2.335599996E-2,1.145483208E1,-2.283747911E0
3.082889427E0,-1.012099981E-1,1.090386677E1,-2.010660887E0
3.085390573E0,-1.682839990E-1,1.030020142E1,-1.708827972E0
3.087891719E0,-7.246399671E-2,9.624670029E0,-1.292011023E0
3.090407240E0,1.239669994E-1,8.910811424E0,-9.231039882E-1
3.092908646E0,3.778899908E-1,8.297562599E0,-6.116889715E-1
3.095410000E0,6.605589986E-1,7.737016201E0,-2.954829931E-1
3.097911406E0,9.001089931E-1,7.248333931E0,-9.426099807E-2
3.100412813E0,1.024675012E0,6.764442921E0,6.384199858E-2
3.102914219E0,1.158823013E0,6.381163120E0,3.988699988E-2
3.105415625E0,1.230687976E0,6.026628971E0,-5.114199966E-2
3.107916979E0,1.340880990E0,5.672094822E0,-2.331999987E-1
3.110418386E0,1.427119017E0,5.274442196E0,-4.583770037E-1
3.112919792E0,1.556475997E0,4.891161919E0,-7.650009990E-1
3.115421198E0,1.604385972E0,4.560583115E0,-1.100371003E0
3.117922552E0,1.508566022E0,4.220421791E0,-1.330338955E0
3.120434844E0,1.551684976E0,3.808396101E0,-1.756737947E0
3.122936250E0,1.647505045E0,3.530518055E0,-2.298120975E0
3.125437604E0,1.676251054E0,3.262222052E0,-2.825130939E0
3.127939011E0,1.594804049E0,3.132864952E0,-3.261111975E0
3.130440417E0,1.436701059E0,3.166402102E0,-3.749794006E0
3.132941823E0,1.269016027E0,3.262222052E0,-4.195356846E0
3.135443229E0,9.240639806E-1,3.463443995E0,-4.540308952E0
3.137944583E0,5.168290138E-1,3.798814058E0,-4.765485764E0
3.140445990E0,2.533240020E-1,4.095856190E0,-4.894843102E0
3.142947396E0,5.210199952E-2,4.440807819E0,-4.894843102E0
3.145448802E0,-1.443289965E-1,4.857625008E0,-4.755904198E0
3.147950156E0,-2.257760018E-1,5.303187847E0,-4.473235130E0
3.150464167E0,-2.784770131E-1,5.830197811E0,-4.152237892E0
3.152965573E0,-3.311780095E-1,6.390745163E0,-3.701884031E0
3.155466927E0,-3.455510139E-1,6.980038166E0,-3.141336918E0
3.157968333E0,-2.257760018E-1,7.617240906E0,-2.537671089E0
3.160469740E0,6.647499651E-2,8.311936378E0,-1.948377967E0
3.162971146E0,3.587259948E-1,8.944348335E0,-1.263265014E0
3.165472552E0,6.174399853E-1,9.538432121E0,-7.218819857E-1
3.167973906E0,1.029466033E0,1.019479942E1,-3.529750109E-1
3.170475313E0,1.388790965E0,1.084158421E1,-7.509700209E-2
3.172976719E0,1.901427984E0,1.133984756E1,6.863299757E-2
3.175478125E0,2.337409019E0,1.183811188E1,1.213340014E-1
3.177979479E0,2.600914001E0,1.225013828E1,2.171539962E-1
3.180490677E0,2.969820976E0,1.237949467E1,2.986010015E-1
3.182992083E0,3.281235933E0,1.238428593E1,3.033919930E-1
3.185493438E0,3.415384054E0,1.234595776E1,2.171539962E-1
3.187994844E0,3.487248898E0,1.218785477E1,2.459000051E-1
3.190496250E0,3.482458115E0,1.189560413E1,2.315270007E-1
3.192997656E0,3.410593033E0,1.148357773E1,1.692440063E-1
3.195499063E0,3.367474079E0,1.100447845E1,2.075719982E-1
3.198000417E0,3.204580069E0,1.045351315E1,1.452890038E-1
3.200501823E0,2.965029955E0,1.003669643E1,1.114100032E-2
3.203003229E0,2.677570105E0,9.634251595E0,-8.946999907E-2
3.205504636E0,2.303872108E0,9.241390228E0,-1.804990023E-1
3.208005990E0,1.944547057E0,9.001839638E0,-3.673479855E-1
3.210519271E0,1.690623999E0,8.819782257E0,-5.350329876E-1
3.213020677E0,1.599594951E0,8.695216179E0,-7.506279945E-1
3.215522031E0,1.556475997E0,8.733544350E0,-9.422680140E-1
3.218023438E0,1.609176993E0,8.877273560E0,-1.090788960E0
3.220524844E0,1.748116016E0,8.906020164E0,-9.278950095E-1
3.223026250E0,1.772071004E0,8.987466812E0,-9.183130264E-1
3.225527656E0,1.824772000E0,9.193479538E0,-9.326859713E-1
3.228029011E0,1.939756036E0,9.533640862E0,-8.991490006E-1
3.230530417E0,2.049948931E0,9.845055580E0,-8.560299873E-1
3.233031823E0,2.131396055E0,1.007023335E1,-7.458369732E-1
3.235533229E0,2.227216005E0,1.031936455E1,-6.116889715E-1
3.238034583E0,2.308662891E0,1.056370640E1,-4.679589868E-1
3.240546458E0,2.337409019E0,1.071701813E1,-3.577660024E-1
3.243047865E0,2.366154909E0,1.081283760E1,-4.104669988E-1
3.245549219E0,2.418855906E0,1.089428520E1,-4.392130077E-1
3.248050625E0,2.327826977E0,1.096135902E1,-3.721390069E-1
3.250552031E0,2.318244934E0,1.089428520E1,-4.008849859E-1
3.253053438E0,2.361363888E0,1.064994431E1,-5.062869787E-1
3.255554844E0,2.404483080E0,1.045351315E1,-6.739720106E-1
3.258056198E0,2.553004026E0,1.025708199E1,-7.793740034E-1
3.260557604E0,2.615287066E0,1.002711391E1,-8.704029918E-1
3.263059011E0,2.610496044E0,9.835474014E0,-9.566410184E-1
3.265560417E0,2.706315994E0,9.662998199E0,-1.014132977E0
3.268061771E0,2.792553902E0,9.437821388E0,-1.052461028E0
3.270574219E0,2.926702023E0,9.250971794E0,-1.162654042E0
3.273075625E0,3.075222969E0,9.054540634E0,-1.296802044E0
3.275576979E0,3.218952894E0,8.949138641E0,-1.406995058E0
3.278078386E0,3.381846905E0,8.824572563E0,-1.426159024E0
3.280579792E0,3.482458115E0,8.781454086E0,-1.445322990E0
3.283081198E0,3.578278065E0,8.714380264E0,-1.306383967E0
3.285582604E0,3.635770082E0,8.714380264E0,-1.215355039E0
3.288083958E0,3.731590033E0,8.723961830E0,-1.095579982E0
3.290585365E0,3.688471079E0,8.723961830E0,-9.710140228E-1
3.293086771E0,3.731590033E0,8.781454086E0,-8.847759962E-1
3.295588177E0,3.683680058E0,8.819782257E0,-8.224930167E-1
3.298089531E0,3.654933929E0,8.858110428E0,-7.123000026E-1
3.300603750E0,3.611814976E0,8.886856079E0,-6.787629724E-1
3.303105156E0,3.530368090E0,8.915601730E0,-6.356440187E-1
3.305606511E0,3.453711987E0,8.929974556E0,-6.835539937E-1
3.308107917E0,3.391428947E0,8.920392990E0,-7.506279945E-1
3.310609323E0,3.319564104E0,8.862900734E0,-7.697920203E-1
3.313110729E0,3.156670094E0,8.920392990E0,-7.458369732E-1
3.315612136E0,2.993776083E0,8.939557076E0,-7.123000026E-1
3.318113490E0,2.960238934E0,8.915601730E0,-6.260619760E-1
3.320614896E0,2.902746916E0,8.901228905E0,-6.068980098E-1
3.323116302E0,2.811717987E0,8.858110428E0,-5.829430223E-1
3.325617708E0,2.830882072E0,8.795826912E0,-6.164799929E-1
3.328119063E0,2.826091051E0,8.704797745E0,-6.931359768E-1
3.330629427E0,2.864418983E0,8.580231667E0,-7.745829821E-1
3.333130833E0,2.907537937E0,8.517949104E0,-7.793740034E-1
3.335632188E0,2.955447912E0,8.474829674E0,-7.841650248E-1
3.338133594E0,3.008148909E0,8.431711197E0,-6.739720106E-1
3.340635000E0,3.046477079E0,8.402964592E0,-5.637789965E-1
3.343136406E0,3.075222969E0,8.383801460E0,-4.967049956E-1
3.345637813E0,3.099178076E0,8.402964592E0,-4.440039992E-1
3.348139167E0,3.214162111E0,8.393383026E0,-4.919140041E-1
3.350640573E0,3.309982061E0,8.402964592E0,-6.068980098E-1
3.353141979E0,3.309982061E0,8.369427681E0,-6.739720106E-1
3.355643386E0,3.333936930E0,8.311936378E0,-7.650009990E-1
3.358144740E0,3.396219969E0,8.278399467E0,-8.704029918E-1
3.360657344E0,3.415384054E0,8.230488777E0,-9.278950095E-1
3.363158750E0,3.410593033E0,8.168206215E0,-9.997599721E-1
3.365660104E0,3.492039919E0,8.096341133E0,-9.997599721E-1
3.368161511E0,3.563905001E0,7.976565838E0,-1.018923998E0
3.370662917E0,3.654933929E0,7.890327930E0,-1.042878985E0
3.373164323E0,3.726799011E0,7.818462849E0,-9.997599721E-1
3.375665729E0,3.765126944E0,7.760971069E0,-9.901779890E-1
3.378167083E0,3.841783047E0,7.760971069E0,-1.028506041E0
3.380668490E0,3.899275064E0,7.713060856E0,-1.076416016E0
3.383169896E0,3.966348886E0,7.617240906E0,-1.105162024E0
3.385671302E0,3.971139908E0,7.645987034E0,-1.143489957E0
3.388172656E0,3.937602997E0,7.669941902E0,-1.172235966E0
3.390685000E0,3.889693022E0,7.607658863E0,-1.224936962E0
3.393186406E0,3.836992025E0,7.636404991E0,-1.229727983E0
3.395687761E0,3.717216969E0,7.713060856E0,-1.215355039E0
3.398189167E0,3.645351887E0,7.784925938E0,-1.220145941E0
3.400690573E0,3.506412983E0,7.904701233E0,-1.143489957E0
3.403191979E0,3.319564104E0,8.000520706E0,-1.095579982E0
3.405693386E0,3.242908001E0,8.062804222E0,-1.105162024E0
3.408194740E0,3.118341923E0,8.172997475E0,-1.124325991E0
3.410696146E0,2.965029955E0,8.297562599E0,-1.143489957E0
3.413197552E0,2.840464115E0,8.364637375E0,-1.105162024E0
3.415698958E0,2.701524973E0,8.513157845E0,-9.901779890E-1
3.418200313E0,2.524257898E0,8.589814186E0,-9.278950095E-1
3.420711875E0,2.390110016E0,8.704797745E0,-8.560299873E-1
3.423213281E0,2.318244934E0,8.800618172E0,-7.362549901E-1
3.425714636E0,2.275125980E0,8.872483253E0,-6.116889715E-1
3.428216042E0,2.227216005E0,8.934765816E0,-5.637789965E-1
3.430717448E0,2.174515009E0,8.920392990E0,-4.919140041E-1
3.433218854E0,2.121814013E0,8.973093987E0,-4.344219863E-1
3.435720261E0,2.088277102E0,9.025794983E0,-4.392130077E-1
3.438221615E0,2.088277102E0,9.083287239E0,-4.152579904E-1
3.440723021E0,2.097858906E0,9.164733887E0,-4.487949908E-1
3.443224427E0,2.054739952E0,9.222226143E0,-4.440039992E-1
3.445725833E0,2.059530973E0,9.313255310E0,-4.296309948E-1
3.448227188E0,2.083486080E0,9.447402954E0,-4.152579904E-1
3.450741042E0,2.002038956E0,9.610297203E0,-3.960939944E-1
3.453242448E0,1.992457032E0,9.787564278E0,-4.152579904E-1
3.455743802E0,2.040366888E0,9.979204178E0,-3.913030028E-1
3.458245208E0,2.073904037E0,1.005585957E1,-3.673479855E-1
3.460746615E0,2.030785084E0,1.023791790E1,-3.194380105E-1
3.463248021E0,2.021203041E0,1.035769272E1,-3.050650060E-1
3.465749427E0,2.078695059E0,1.041039371E1,-2.284090072E-1
3.468250781E0,2.136187077E0,1.037685680E1,-1.373800039E-1
3.470752188E0,2.164932966E0,1.038643932E1,-1.086340025E-1
3.473253594E0,2.236798048E0,1.043434906E1,-7.030600309E-2
3.475755000E0,2.303872108E0,1.041039371E1,-1.038430035E-1
3.478256354E0,2.346991062E0,1.041039371E1,-1.469620019E-1
3.480770156E0,2.476347923E0,1.039122963E1,-2.427819967E-1
3.483271563E0,2.591331959E0,1.036727524E1,-4.775409997E-1
3.485772917E0,2.682360888E0,1.030020142E1,-5.973160267E-1
3.488274323E0,2.763808012E0,1.031457424E1,-7.362549901E-1
3.490775729E0,2.830882072E0,1.027624607E1,-8.656119704E-1
3.493277136E0,2.907537937E0,1.022354507E1,-9.949690104E-1
3.495778542E0,2.988985062E0,1.012293434E1,-1.177026987E0
3.498279896E0,3.113550901E0,1.000794983E1,-1.296802044E0
3.500781302E0,3.233325958E0,9.955248833E0,-1.406995058E0
3.503282708E0,3.324354887E0,9.888175011E0,-1.445322990E0
3.505784115E0,3.396219969E0,9.859429359E0,-1.430950046E0
3.508285469E0,3.477667093E0,9.792354584E0,-1.373458028E0
3.510796979E0,3.544740915E0,9.734863281E0,-1.378249049E0
3.513298386E0,3.578278065E0,9.658206940E0,-1.268056035E0
3.515799740E0,3.664515972E0,9.538432121E0,-1.224936962E0
3.518301146E0,3.683680058E0,9.456985474E0,-1.167444944E0
3.520802552E0,3.731590033E0,9.365956306E0,-1.133908033E0
3.523303958E0,3.741172075E0,9.318045616E0,-1.191400051E0
3.525805365E0,3.741172075E0,9.351582527E0,-1.100371003E0
3.528306719E0,3.702843904E0,9.404283524E0,-1.009341955E0
3.530808125E0,3.698052883E0,9.528849602E0,-9.231039882E-1
3.533309531E0,3.640561104E0,9.696535110E0,-7.650009990E-1
3.535810938E0,3.659724951E0,9.864219666E0,-7.123000026E-1
3.538312292E0,3.678889036E0,9.969621658E0,-5.877339840E-1
3.540824063E0,3.726799011E0,1.009897900E1,-5.973160267E-1
3.543325469E0,3.789082050E0,1.022354507E1,-6.116889715E-1
3.545826823E0,3.851365089E0,1.032415581E1,-6.404349804E-1
3.548328229E0,3.951976061E0,1.039602089E1,-7.075089812E-1
3.550829636E0,4.028632164E0,1.047267723E1,-7.889559865E-1
3.553331042E0,4.076541901E0,1.046788597E1,-8.847759962E-1
3.555832448E0,4.167571068E0,1.051579571E1,-9.662230015E-1
3.558333802E0,4.253808975E0,1.052537823E1,-1.085998058E0
3.560835208E0,4.354420185E0,1.051579571E1,-1.090788960E0
3.563336615E0,4.383165836E0,1.046788597E1,-1.047670007E0
3.565838021E0,4.416703224E0,1.042955780E1,-9.901779890E-1
3.568339375E0,4.474195004E0,1.034331989E1,-9.805960059E-1
3.570853021E0,4.507731915E0,1.023791790E1,-9.710140228E-1
3.573354427E0,4.531686783E0,1.023312664E1,-8.847759962E-1
3.575855781E0,4.579596996E0,1.015647125E1,-7.937470078E-1
3.578357188E0,4.574806213E0,1.010856056E1,-7.027180195E-1
3.580858594E0,4.555642128E0,1.008460617E1,-5.685700178E-1
3.583360000E0,4.478985786E0,1.001274109E1,-5.062869787E-1
3.585861406E0,4.411911964E0,9.993577003E0,-4.344219863E-1
3.588362761E0,4.340046883E0,1.003669643E1,-3.529750109E-1
3.590864167E0,4.258600235E0,1.008460617E1,-3.098559976E-1
3.593365573E0,4.134034157E0,1.015647125E1,-2.811099887E-1
3.595866979E0,4.038214207E0,1.019000816E1,-2.619459927E-1
3.598368333E0,3.899275064E0,1.026666355E1,-2.523640096E-1
3.600880104E0,3.750754118E0,1.035769272E1,-2.092449963E-1
3.603381719E0,3.559113979E0,1.043914032E1,-1.230069995E-1
3.605883229E0,3.372265100E0,1.048705006E1,-7.509700209E-2
3.608384844E0,3.218952894E0,1.059724331E1,1.114100032E-2
3.610886458E0,3.103969097E0,1.072180939E1,1.357070059E-1
3.613388021E0,2.965029955E0,1.082721138E1,1.979900002E-1
3.615889583E0,2.797344923E0,1.091344929E1,2.650640011E-1
3.618391198E0,2.696733952E0,1.102364159E1,2.650640011E-1
3.620892761E0,2.677570105E0,1.108113384E1,1.309159994E-1
3.623394323E0,2.725480080E0,1.110988045E1,-6.551499665E-2
3.625895886E0,2.802135944E0,1.110988045E1,-2.763189971E-1
3.628397500E0,2.950656891E0,1.117216301E1,-5.589879751E-1
3.630906563E0,3.080013990E0,1.120569992E1,-8.368660212E-1
3.633408177E0,3.228534937E0,1.130152035E1,-1.138699055E0
3.635909740E0,3.333936930E0,1.140692234E1,-1.363875985E0
3.638411302E0,3.405802011E0,1.162730789E1,-1.512397051E0
3.640912917E0,3.458503008E0,1.186685753E1,-1.512397051E0
3.643414479E0,3.453711987E0,1.217348194E1,-1.387830973E0
3.645916042E0,3.410593033E0,1.252801609E1,-1.196190953E0
3.648417656E0,3.247699022E0,1.287775898E1,-1.038087964E0
3.650919219E0,3.108760118E0,1.326103878E1,-8.895670176E-1
3.653420781E0,2.936284065E0,1.360120010E1,-6.548079848E-1
3.655922396E0,2.730271101E0,1.392698765E1,-4.823319912E-1
3.658423958E0,2.567377090E0,1.416653824E1,-4.248400033E-1
3.660935729E0,2.485929966E0,1.429110432E1,-5.254510045E-1
3.663437344E0,2.423646927E0,1.436775970E1,-6.739720106E-1
3.665938906E0,2.385318995E0,1.435817814E1,-9.422680140E-1
3.668440469E0,2.351782084E0,1.411383724E1,-1.296802044E0
3.670942083E0,2.351782084E0,1.381200409E1,-1.756737947E0
3.673443646E0,2.323035955E0,1.351017094E1,-2.288538933E0
3.675945208E0,2.255961895E0,1.308377171E1,-2.887413979E0
3.678446823E0,2.308662891E0,1.261904526E1,-3.404841900E0
3.680948386E0,2.327826977E0,1.215910912E1,-3.749794006E0
3.683449948E0,2.294290066E0,1.179499340E1,-4.075582027E0
3.685951563E0,2.236798048E0,1.141650391E1,-4.233685017E0
3.688453125E0,2.131396055E0,1.121528244E1,-4.190566063E0
3.690963438E0,2.021203041E0,1.100926876E1,-3.994134903E0
3.693465052E0,1.944547057E0,1.079846478E1,-3.764167070E0
3.695966615E0,1.829563022E0,1.062598896E1,-3.567735910E0
3.698468177E0,1.752907038E0,1.048705006E1,-3.318603992E0
3.700969792E0,1.618759036E0,1.034331989E1,-3.261111975E0
3.703471354E0,1.451074004E0,1.020438099E1,-3.251529932E0
3.705972917E0,1.369626999E0,1.007981491E1,-3.203619957E0
3.708474531E0,1.182778001E0,1.003190517E1,-3.227575064E0
3.710976094E0,1.010301948E0,9.931294441E0,-3.213202000E0
3.713477656E0,9.144819975E-1,9.883383751E0,-3.179665089E0
3.715979271E0,7.036780119E-1,9.859429359E0,-3.270694017E0
3.718480833E0,5.312020183E-1,9.878593445E0,-3.332977057E0
3.720990833E0,4.018450081E-1,9.897756577E0,-3.160501003E0
3.723492448E0,2.006230056E-1,1.003669643E1,-2.652654886E0
3.725994011E0,-7.246399671E-2,1.026666355E1,-2.130435944E0
3.728495573E0,-3.790880144E-1,1.048705006E1,-1.704036951E0
3.730997188E0,-6.665480137E-1,1.068348122E1,-1.263265014E0
3.733498750E0,-9.587990046E-1,1.097573185E1,-9.566410184E-1
3.736000313E0,-1.337288022E0,1.135422134E1,-6.931359768E-1
3.738501927E0,-1.667866945E0,1.162251663E1,-3.960939944E-1
3.741003490E0,-1.840342999E0,1.190518570E1,-1.281400025E-2
3.743505052E0,-2.012819052E0,1.218306446E1,4.471220076E-1
3.746006667E0,-2.084683895E0,1.237470436E1,9.453859925E-1
3.748508229E0,-2.151757956E0,1.273882008E1,1.280755997E0
3.751019583E0,-1.859506965E0,1.316521931E1,1.553843021E0
3.753521198E0,-1.423526049E0,1.350537968E1,1.697572947E0
3.756022761E0,-1.054618955E0,1.380721283E1,1.788601995E0
3.758524323E0,-8.486059904E-1,1.412341881E1,1.850885034E0
3.761025938E0,-7.144579887E-1,1.450669861E1,1.850885034E0
3.763527500E0,-5.898920298E-1,1.490914345E1,1.874840021E0
3.766029063E0,-3.647150099E-1,1.523013973E1,1.750273943E0
3.768530677E0,-1.012099981E-1,1.539303398E1,1.616125941E0
3.771032240E0,2.341600060E-1,1.542177963E1,1.529888034E0
3.773533802E0,5.503659844E-1,1.527325916E1,1.352620959E0
3.776035417E0,8.617810011E-1,1.508161926E1,1.156190038E0
3.778536979E0,1.149240971E0,1.482769585E1,9.262220263E-1
3.781046771E0,1.355254054E0,1.445878887E1,7.824919820E-1
3.783548386E0,1.551684976E0,1.400364399E1,5.573149920E-1
3.786049948E0,1.958920002E0,1.352454376E1,1.644529998E-1
3.788551511E0,2.418855906E0,1.303586197E1,-2.859010100E-1
3.791053125E0,2.735061884E0,1.263341808E1,-6.308529973E-1
3.793554688E0,3.012939930E0,1.216869068E1,-1.004551053E0
3.796056250E0,3.242908001E0,1.177103806E1,-1.349503040E0
3.798557865E0,3.286026955E0,1.156023407E1,-1.622589946E0
3.801059427E0,3.501621962E0,1.141650391E1,-1.900467992E0
3.803560990E0,3.875319958E0,1.113862610E1,-2.101690054E0
3.806062604E0,4.311301231E0,1.080804729E1,-2.183136940E0
3.808564167E0,4.732909203E0,1.065952587E1,-2.135226965E0
3.811074479E0,4.977250099E0,1.041997623E1,-1.842975974E0
3.813576094E0,5.020369053E0,1.017084408E1,-1.483651042E0
3.816077656E0,4.986832142E0,9.892966270E0,-1.062042952E0
3.818579219E0,4.891012192E0,9.615088463E0,-6.068980098E-1
3.821080833E0,4.776028156E0,9.322836876E0,-8.946999907E-2
3.823582396E0,4.617925167E0,9.083287239E0,3.465110064E-1
3.826083958E0,4.421494007E0,8.901228905E0,7.250000238E-1
3.828585573E0,4.177153111E0,8.771871567E0,1.079534054E0
3.831087136E0,3.961558104E0,8.632932663E0,1.371785045E0
3.833588698E0,3.765126944E0,8.527530670E0,1.573006988E0
3.836090313E0,3.568696022E0,8.431711197E0,1.788601995E0
3.838591875E0,3.338727951E0,8.383801460E0,1.817348003E0
3.841101719E0,3.118341923E0,8.417338371E0,1.745483041E0
3.843603333E0,2.878792048E0,8.465248108E0,1.582589030E0
3.846104896E0,2.725480080E0,8.465248108E0,1.314293027E0
3.848606458E0,2.586540937E0,8.455665588E0,1.002877951E0
3.851108073E0,2.370945930E0,8.489203453E0,7.010449767E-1
3.853609636E0,2.198470116E0,8.455665588E0,4.279580116E-1
3.856111198E0,2.040366888E0,8.455665588E0,2.650640011E-1
3.858612813E0,1.819980979E0,8.484412193E0,6.863299757E-2
3.861114375E0,1.575639963E0,8.450875282E0,-8.023000322E-3
3.863615938E0,1.431910038E0,8.489203453E0,-3.197799996E-2
3.866117552E0,1.292971015E0,8.450875282E0,-2.239600010E-2
3.868619115E0,1.110913038E0,8.517949104E0,2.551399916E-2
3.871129583E0,1.019883990E0,8.532321930E0,3.988699988E-2
3.873631198E0,9.719740152E-1,8.517949104E0,1.261249930E-1
3.876132761E0,8.761540055E-1,8.474829674E0,2.554819882E-1
3.878634323E0,7.803339958E-1,8.455665588E0,3.896299899E-1
3.881135938E0,6.461859941E-1,8.383801460E0,4.375399947E-1
3.883637500E0,4.928739965E-1,8.278399467E0,5.525239706E-1
3.886139063E0,5.024560094E-1,8.144250870E0,7.058359981E-1
3.888640625E0,5.743209720E-1,7.976565838E0,8.447750211E-1
3.891142240E0,5.934849977E-1,7.880745888E0,9.932960272E-1
3.893643802E0,5.455750227E-1,7.765761852E0,1.290338039E0
3.896145417E0,5.072469711E-1,7.626822948E0,1.573006988E0
3.898646979E0,4.545460045E-1,7.540585041E0,1.764647007E0
3.901170156E0,4.976649880E-1,7.463929176E0,1.970659971E0
3.903671771E0,5.407840014E-1,7.382482052E0,2.143136024E0
3.906173333E0,5.216199756E-1,7.396854877E0,2.171881914E0
3.908674896E0,6.174399853E-1,7.339363098E0,2.147927046E0
3.911176511E0,6.174399853E-1,7.329781055E0,2.100017071E0
3.913678073E0,6.701409817E-1,7.272288799E0,2.056898117E0
3.916179636E0,7.563790083E-1,7.181260109E0,1.870049000E0
3.918681250E0,8.138710260E-1,7.152513981E0,1.716737032E0
3.921182813E0,8.474079967E-1,7.233961105E0,1.491559982E0
3.923684375E0,9.288550019E-1,7.272288799E0,1.328665972E0
3.926185990E0,1.106122017E0,7.291452885E0,1.180145025E0
3.928687500E0,1.173195958E0,7.392064095E0,1.017251015E0
3.931197761E0,1.154031992E0,7.449555874E0,8.112379909E-1
3.933699375E0,1.197150946E0,7.531002998E0,6.052250266E-1
3.936200938E0,1.254642963E0,7.722642899E0,5.046139956E-1
3.938702500E0,1.249851942E0,7.861581802E0,4.040029943E-1
3.941204115E0,1.221106052E0,7.919074059E0,2.698549926E-1
3.943705677E0,1.254642963E0,8.000520706E0,2.411089987E-1
3.946207240E0,1.201941967E0,8.096341133E0,2.794370055E-1
3.948708802E0,1.177986979E0,8.096341133E0,3.848389983E-1
3.951210417E0,1.139659047E0,8.086758614E0,5.333600044E-1
3.953711979E0,1.010301948E0,8.077177048E0,6.722990274E-1
3.956213594E0,1.015092969E0,8.058012962E0,9.501770139E-1
3.958715156E0,8.905270100E-1,8.081968307E0,1.175354004E0
3.961224844E0,7.755429745E-1,8.000520706E0,1.458022952E0
3.963726458E0,6.749320030E-1,7.938238144E0,1.764647007E0
3.966228021E0,5.168290138E-1,7.856791019E0,2.104808092E0
3.968729583E0,4.162180126E-1,7.799298763E0,2.406641006E0
3.971231198E0,3.251889944E-1,7.679523945E0,2.794712067E0
3.973732761E0,2.341600060E-1,7.569331169E0,3.053426027E0
3.976234323E0,1.431310028E-1,7.502256870E0,3.326513052E0
3.978735938E0,7.605700195E-2,7.411228180E0,3.609181881E0
3.981237500E0,-1.018100046E-2,7.344153881E0,3.800822020E0
3.983739063E0,-1.874479949E-1,7.315408230E0,3.987670898E0
3.986240677E0,-3.024320006E-1,7.286662102E0,4.155355930E0
3.988742188E0,-3.455510139E-1,7.243543148E0,4.303876877E0
3.991252188E0,-3.934609890E-1,7.205214977E0,4.351787090E0
3.993753802E0,-4.701170027E-1,7.162096024E0,4.375741959E0
3.996255365E0,-5.659369826E-1,7.118977070E0,4.375741959E0
3.998756927E0,-5.946829915E-1,7.109395027E0,4.342205048E0
4.001258542E0,-5.898920298E-1,7.032739162E0,4.318250179E0
4.003760104E0,-6.617569923E-1,6.994410992E0,4.236803055E0
4.006261667E0,-6.569659710E-1,6.845890045E0,4.136191845E0
4.008763229E0,-6.330109835E-1,6.812353134E0,4.021207809E0
4.011264844E0,-4.796989858E-1,6.702159882E0,3.911015034E0
4.013766406E0,-4.269979894E-1,6.539266109E0,3.767285109E0
4.016267969E0,-3.551329970E-1,6.371581078E0,3.647510052E0
4.018769583E0,-2.114029974E-1,6.270969868E0,3.508570910E0
4.021281042E0,-3.892700002E-2,6.184731960E0,3.369632006E0
4.023782656E0,1.000119969E-1,6.108076096E0,3.221111059E0
4.026284219E0,2.485329956E-1,5.964345932E0,3.110918045E0
4.028785781E0,4.305909872E-1,5.873316765E0,3.015098095E0
4.031287344E0,5.839030147E-1,5.772706032E0,2.962397099E0
4.033788958E0,7.180510163E-1,5.691258907E0,2.890532017E0
4.036290521E0,8.474079967E-1,5.619393826E0,2.823457956E0
4.038792136E0,1.015092969E0,5.533155918E0,2.818666935E0
4.041293698E0,1.130077004E0,5.456500053E0,2.833039999E0
4.043795261E0,1.158823013E0,5.427753925E0,2.856995106E0
4.046296875E0,1.230687976E0,5.375052929E0,2.914486885E0
4.048798386E0,1.297762036E0,5.360680103E0,2.976769924E0
4.051309583E0,1.312134981E0,5.317561150E0,3.043843985E0
4.053811198E0,1.312134981E0,5.322351933E0,3.115709066E0
4.056312761E0,1.345672011E0,5.312769890E0,3.197155952E0
4.058814323E0,1.379209042E0,5.250486851E0,3.331304073E0
4.061315938E0,1.388790965E0,5.240904808E0,3.427124023E0
4.063817500E0,1.460656047E0,5.240904808E0,3.522943974E0
4.066319063E0,1.460656047E0,5.169040203E0,3.671464920E0
4.068820625E0,1.532521009E0,5.140294075E0,3.800822020E0
4.071322240E0,1.604385972E0,5.063638210E0,3.915806055E0
4.073823802E0,1.690623999E0,4.963027000E0,4.002044201E0
4.076325417E0,1.796025991E0,4.881579876E0,4.093072891E0
4.078826979E0,1.848726988E0,4.833670139E0,4.208056927E0
4.081299323E0,1.958920002E0,4.800133228E0,4.342205048E0
4.083800886E0,2.049948931E0,4.752223015E0,4.485935211E0
4.086302448E0,2.155350924E0,4.699522018E0,4.634456158E0
4.088804011E0,2.308662891E0,4.642029762E0,4.720694065E0
4.091305625E0,2.423646927E0,4.589328766E0,4.806931973E0
4.093807188E0,2.538630962E0,4.594120026E0,4.907543182E0
4.096308802E0,2.720689058E0,4.570165157E0,4.974617004E0
4.098810365E0,2.878792048E0,4.598910809E0,5.056064129E0
4.101311927E0,3.108760118E0,4.637238979E0,5.094391823E0
4.103813542E0,3.295608997E0,4.718686104E0,5.051272869E0
4.106315104E0,3.472876072E0,4.766595840E0,4.955452919E0
4.108816667E0,3.669306993E0,4.819296837E0,4.859632969E0
4.111363177E0,3.889693022E0,4.953444958E0,4.648828983E0
4.113864896E0,4.081333160E0,5.078011036E0,4.452397823E0
4.116366615E0,4.239436150E0,5.293605804E0,4.289504051E0
4.118868386E0,4.306509972E0,5.585856915E0,4.184102058E0
4.121370104E0,4.325674057E0,5.906854153E0,4.112236977E0
4.123871823E0,4.244226933E0,6.237432957E0,4.059535980E0
4.126373594E0,4.076541901E0,6.644668102E0,3.978089094E0
4.128875365E0,3.884902000E0,7.099812984E0,3.963716030E0
4.131377031E0,3.654933929E0,7.564539909E0,3.944551945E0
4.133878802E0,3.434547901E0,8.043640137E0,3.944551945E0
4.136380521E0,3.199789047E0,8.436502457E0,4.073908806E0
4.138882292E0,2.950656891E0,8.843736649E0,4.232011795E0
4.141392031E0,2.759016991E0,9.236598969E0,4.428442955E0
4.143893750E0,2.667988062E0,9.615088463E0,4.620082855E0
4.146395521E0,2.639241934E0,9.936084747E0,4.893169880E0
4.148897240E0,2.620078087E0,1.018042564E1,5.118347168E0
4.151398958E0,2.624869108E0,1.033852863E1,5.362688065E0
4.153900677E0,2.730271101E0,1.049184132E1,5.554327965E0
4.156402448E0,2.936284065E0,1.064036179E1,5.683684826E0
4.158904167E0,3.262072086E0,1.078888321E1,5.755549908E0
4.161405886E0,3.683680058E0,1.084637547E1,5.774713993E0
4.163907656E0,4.076541901E0,1.089907646E1,5.745967865E0
4.166409427E0,4.459822178E0,1.106676102E1,5.760341167E0
4.168911146E0,4.886220932E0,1.125360966E1,5.654939175E0
4.171420521E0,5.288664818E0,1.155544281E1,5.539955139E0
4.173922240E0,5.576125145E0,1.189560413E1,5.554327965E0
4.176423958E0,5.633616924E0,1.226451111E1,5.583074093E0
4.178925729E0,5.671945095E0,1.271965599E1,5.698058128E0
4.181427448E0,5.681527138E0,1.307898140E1,5.750759125E0
4.183929167E0,5.777347088E0,1.339997768E1,5.722012997E0
4.186430938E0,5.925868034E0,1.360120010E1,5.765131950E0
4.188932656E0,6.026478767E0,1.370660210E1,5.875325203E0
4.191434375E0,6.069598198E0,1.371618366E1,5.918444157E0
4.193936146E0,6.218119144E0,1.362994576E1,5.894488811E0
4.196437865E0,6.299565792E0,1.351496220E1,5.880115986E0
4.198939636E0,6.261238098E0,1.346226120E1,5.832205772E0
4.201449375E0,6.189373016E0,1.334727669E1,5.765131950E0
4.203951094E0,6.036060810E0,1.317959213E1,5.630983829E0
4.206452813E0,5.830048084E0,1.280110264E1,5.621401787E0
4.208954583E0,5.518632889E0,1.239386845E1,5.563910007E0
4.211456302E0,5.207218170E0,1.190039539E1,5.592656136E0
4.213958073E0,4.895802975E0,1.132547474E1,5.587864876E0
4.216459792E0,4.507731915E0,1.078409195E1,5.554327965E0
4.218961511E0,4.143616199E0,1.030499172E1,5.535163879E0
4.221463229E0,3.856156111E0,9.883383751E0,5.554327965E0
4.223965000E0,3.573487043E0,9.548013687E0,5.535163879E0
4.226466719E0,3.228534937E0,9.135988235E0,5.568700790E0
4.228968490E0,2.917119980E0,8.862900734E0,5.549537182E0
4.231440052E0,2.653614998E0,8.695216179E0,5.544745922E0
4.233941771E0,2.447602034E0,8.532321930E0,5.626193047E0
4.236443490E0,2.260752916E0,8.474829674E0,5.741177082E0
4.238945208E0,2.112231970E0,8.575441360E0,5.932816982E0
4.241446979E0,1.939756036E0,8.762290001E0,6.153203011E0
4.243948698E0,1.733742952E0,8.992258072E0,6.325678825E0
4.246450417E0,1.522938967E0,9.361165047E0,6.455036163E0
4.248952188E0,1.345672011E0,9.806728363E0,6.512527943E0
4.251453906E0,1.235478997E0,1.035290241E1,6.450244904E0
4.253955625E0,1.230687976E0,1.090865803E1,6.177157879E0
4.256457396E0,1.312134981E0,1.159856224E1,5.832205772E0
4.258959115E0,1.451074004E0,1.230762959E1,5.348314762E0
4.261502500E0,1.566058040E0,1.288255024E1,4.739858150E0
4.264004219E0,1.661877990E0,1.352454376E1,4.002044201E0
4.266505938E0,1.700206041E0,1.410904598E1,3.240274906E0
4.269007708E0,1.546893954E0,1.454981804E1,2.440177917E0
4.271509427E0,1.331298947E0,1.507203674E1,1.640081048E0
4.274011146E0,1.110913038E0,1.548885441E1,1.031623960E0
4.276512917E0,6.797230244E-1,1.580506039E1,4.902409911E-1
4.279014636E0,2.820700109E-1,1.597274494E1,7.821500301E-2
4.281516354E0,-7.246399671E-2,1.600628281E1,-1.900810003E-1
4.284018125E0,-3.455510139E-1,1.602065468E1,-3.098559976E-1
4.286519844E0,-4.940719903E-1,1.588171577E1,-3.242290020E-1
4.289021615E0,-5.228180289E-1,1.569486713E1,-4.248400033E-1
4.291530781E0,-3.934609890E-1,1.535949707E1,-5.637789965E-1
4.294032552E0,-1.874479949E-1,1.483727837E1,-8.033289909E-1
4.296534219E0,1.335490048E-1,1.427673054E1,-9.997599721E-1
4.299035990E0,5.551570058E-1,1.373534775E1,-1.220145941E0
4.301537708E0,8.426169753E-1,1.327541161E1,-1.569888949E0
4.304039427E0,9.863470197E-1,1.282984924E1,-2.063361883E0
4.306541198E0,1.091748953E0,1.233637619E1,-2.638282061E0
4.309042969E0,9.815559983E-1,1.179978371E1,-3.021562099E0
4.311544636E0,7.372149825E-1,1.127277374E1,-3.395260096E0
4.314046406E0,4.066359997E-1,1.076971912E1,-3.649183035E0
4.316548125E0,2.054139972E-1,1.034331989E1,-3.706675053E0
4.319049896E0,4.191999789E-3,1.010377026E1,-3.797703981E0
4.321525938E0,5.210199952E-2,9.840265274E0,-3.740211964E0
4.324027656E0,1.239669994E-1,9.739653587E0,-3.567735910E0
4.326529375E0,3.060249984E-1,9.744444847E0,-3.390469074E0
4.329031094E0,4.880830050E-1,9.782773018E0,-3.155709982E0
4.331532865E0,6.940960288E-1,9.830682755E0,-2.805967093E0
4.334034583E0,9.815559983E-1,9.816309929E0,-2.326867104E0
4.336536302E0,1.269016027E0,9.787564278E0,-1.785483956E0
4.339038073E0,1.575639963E0,9.710907936E0,-1.244101048E0
4.341539792E0,1.848726988E0,9.662998199E0,-8.847759962E-1
4.344041511E0,2.126605034E0,9.619878769E0,-6.212710142E-1
4.346543281E0,2.481138945E0,9.485731125E0,-4.152579904E-1
4.349045052E0,2.792553902E0,9.255763054E0,-3.529750109E-1
4.351585261E0,3.123132944E0,9.044959068E0,-3.529750109E-1
4.354086979E0,3.372265100E0,8.695216179E0,-4.008849859E-1
4.356588698E0,3.626188040E0,8.474829674E0,-5.925250053E-1
4.359090469E0,3.798664093E0,8.163414955E0,-8.272839785E-1
4.361592188E0,3.918438911E0,7.799298763E0,-1.071624994E0
4.364093958E0,4.004676819E0,7.449555874E0,-1.421368003E0
4.366595677E0,3.990303993E0,7.147723198E0,-1.833394051E0
4.369097448E0,3.889693022E0,6.831517220E0,-2.192718983E0
4.371599115E0,3.765126944E0,6.563220978E0,-2.480179071E0
4.374100886E0,3.654933929E0,6.285343170E0,-2.643073082E0
4.376602604E0,3.424966097E0,6.170359135E0,-2.729310989E0
4.379104375E0,3.113550901E0,6.050583839E0,-2.825130939E0
4.381616406E0,2.782972097E0,5.964345932E0,-2.858668089E0
4.384118125E0,2.500303030E0,5.906854153E0,-2.849086046E0
4.386619844E0,2.179306030E0,5.849361897E0,-2.729310989E0
4.389121615E0,1.877472997E0,5.787078857E0,-2.599953890E0
4.391623333E0,1.551684976E0,5.921226978E0,-2.451432943E0
4.394125104E0,1.254642963E0,6.041001797E0,-2.154391050E0
4.396626823E0,7.851250172E-1,6.285343170E0,-1.842975974E0
4.399128542E0,3.970539868E-1,6.539266109E0,-1.402204037E0
4.401630261E0,1.000119969E-1,6.793189049E0,-1.057252049E0
4.404132031E0,-4.850900173E-2,7.171678066E0,-8.608210087E-1
4.406633750E0,-2.066120058E-1,7.617240906E0,-6.068980098E-1
4.409135521E0,-3.311780095E-1,8.139459610E0,-3.242290020E-1
4.411642188E0,-3.886699975E-1,8.585022926E0,-1.852899939E-1
4.414143906E0,-3.982520103E-1,9.174316406E0,-4.635100067E-2
4.416645625E0,-3.311780095E-1,9.662998199E0,9.258800000E-2
4.419147396E0,-1.874479949E-1,1.004627800E1,1.213340014E-1
4.421649167E0,-2.934500016E-2,1.029061890E1,7.342399657E-2
4.424150833E0,1.143850014E-1,1.046309471E1,-8.023000322E-3
4.426652604E0,2.820700109E-1,1.056849670E1,-1.661259979E-1
4.429154375E0,4.210090041E-1,1.067868996E1,-3.769299984E-1
4.431656042E0,5.982760191E-1,1.050142288E1,-4.919140041E-1
4.434157813E0,8.090800047E-1,1.028582764E1,-6.164799929E-1
4.436659531E0,9.288550019E-1,1.022354507E1,-7.266730070E-1
4.439161302E0,9.480190277E-1,1.007502365E1,-8.512390256E-1
4.441668854E0,9.815559983E-1,9.816309929E0,-9.135220051E-1
4.444170573E0,9.288550019E-1,9.605505943E0,-9.614319801E-1
4.446672292E0,8.905270100E-1,9.428238869E0,-9.901779890E-1
4.449174063E0,8.234530091E-1,9.255763054E0,-1.028506041E0
4.451675833E0,8.378260136E-1,9.212643623E0,-1.062042952E0
4.454177500E0,9.576010108E-1,9.126405716E0,-1.081207037E0
4.456679271E0,1.163614035E0,8.810199738E0,-8.464480042E-1
4.459180990E0,1.130077004E0,8.723961830E0,-8.991490006E-1
4.461682708E0,1.221106052E0,8.743125916E0,-8.943579793E-1
4.464184479E0,1.388790965E0,8.776662827E0,-8.751940131E-1
4.466686198E0,1.585222006E0,8.853319168E0,-9.135220051E-1
4.469187969E0,1.743324995E0,9.102451324E0,-9.183130264E-1
4.471660938E0,1.867890954E0,9.279718399E0,-9.805960059E-1
4.474162656E0,2.059530973E0,9.342000961E0,-1.062042952E0
4.476664375E0,2.136187077E0,9.586341858E0,-1.018923998E0
4.479166094E0,2.289499044E0,9.777981758E0,-1.081207037E0
4.481667865E0,2.399692059E0,9.892966270E0,-1.076416016E0
4.484169583E0,2.500303030E0,1.003669643E1,-1.018923998E0
4.486671302E0,2.596122980E0,1.011814308E1,-9.997599721E-1
4.489173073E0,2.701524973E0,1.020917225E1,-1.090788960E0
4.491674792E0,2.711107016E0,1.024750042E1,-1.244101048E0
4.494176511E0,2.806926966E0,1.017084408E1,-1.157863021E0
4.496678281E0,2.773390055E0,1.014209843E1,-1.272847056E0
4.499180000E0,2.706315994E0,1.023791790E1,-1.311174989E0
4.501688177E0,2.687151909E0,1.022833633E1,-1.263265014E0
4.504189948E0,2.399692059E0,1.033373833E1,-1.157863021E0
4.506691667E0,2.140978098E0,1.031457424E1,-1.023715019E0
4.509193438E0,2.078695059E0,1.011814308E1,-9.949690104E-1
4.511695156E0,2.121814013E0,9.888175011E0,-1.114743948E0
4.514196875E0,2.164932966E0,9.754027367E0,-1.311174989E0
4.516698594E0,2.236798048E0,9.595924377E0,-1.474068999E0
4.519200365E0,2.289499044E0,9.490522385E0,-1.598634958E0
4.521702083E0,2.399692059E0,9.361165047E0,-1.660917997E0
4.524203802E0,2.490720987E0,9.236598969E0,-1.713618994E0
4.526705573E0,2.667988062E0,9.135988235E0,-1.670500040E0
4.529207344E0,2.816509008E0,8.992258072E0,-1.608217001E0
4.531752396E0,3.012939930E0,8.882064819E0,-1.493232965E0
4.534254115E0,3.228534937E0,8.762290001E0,-1.387830973E0
4.536755833E0,3.405802011E0,8.680843353E0,-1.311174989E0
4.539257604E0,3.405802011E0,8.700007439E0,-1.200981975E0
4.541759323E0,3.501621962E0,8.676052094E0,-1.119534969E0
4.544261042E0,3.654933929E0,8.652096748E0,-1.018923998E0
4.546762813E0,3.765126944E0,8.585022926E0,-8.847759962E-1
4.549264583E0,3.760335922E0,8.541904449E0,-8.224930167E-1
4.551766250E0,3.813036919E0,8.551486015E0,-7.745829821E-1
4.554268021E0,3.904066086E0,8.565858841E0,-7.027180195E-1
4.556769740E0,3.851365089E0,8.618559837E0,-5.925250053E-1
4.559271511E0,3.865737915E0,8.628142357E0,-4.727500081E-1
4.561781042E0,3.884902000E0,8.570650101E0,-4.104669988E-1
4.564282761E0,3.923229933E0,8.508366585E0,-4.248400033E-1
4.566784479E0,3.990303993E0,8.489203453E0,-3.817209899E-1
4.569286250E0,4.023840904E0,8.484412193E0,-3.098559976E-1
4.571787969E0,4.043004990E0,8.455665588E0,-2.140360028E-1
4.574289688E0,4.019050121E0,8.441292763E0,-2.239600010E-2
4.576791458E0,4.043004990E0,8.426919937E0,6.384199858E-2
4.579293177E0,4.071751118E0,8.436502457E0,9.258800000E-2
4.581794896E0,4.157989025E0,8.431711197E0,1.165430024E-1
4.584296667E0,4.196317196E0,8.407755852E0,4.946900159E-2
4.586798386E0,4.292137146E0,8.374218941E0,-9.905199707E-2
4.589300156E0,4.359210968E0,8.402964592E0,-2.044540048E-1
4.591808958E0,4.378375053E0,8.431711197E0,-2.763189971E-1
4.594310677E0,4.431076050E0,8.402964592E0,-3.960939944E-1
4.596812396E0,4.502941132E0,8.393383026E0,-5.110780001E-1
4.599314167E0,4.531686783E0,8.412547112E0,-6.260619760E-1
4.601815886E0,4.483777046E0,8.465248108E0,-7.075089812E-1
4.604317604E0,4.512523174E0,8.484412193E0,-8.368660212E-1
4.606819375E0,4.464612961E0,8.441292763E0,-9.374769926E-1
4.609321146E0,4.450240135E0,8.484412193E0,-1.076416016E0
4.611822813E0,4.421494007E0,8.465248108E0,-1.215355039E0
4.614324583E0,4.383165836E0,8.493993759E0,-1.258473992E0
4.616826302E0,4.287345886E0,8.522740364E0,-1.263265014E0
4.619328073E0,4.162779808E0,8.527530670E0,-1.301592946E0
4.621837083E0,4.081333160E0,8.575441360E0,-1.325548053E0
4.624338958E0,3.913647890E0,8.551486015E0,-1.306383967E0
4.626840781E0,3.813036919E0,8.551486015E0,-1.263265014E0
4.629342604E0,3.688471079E0,8.503576279E0,-1.157863021E0
4.631844479E0,3.587860107E0,8.460456848E0,-1.081207037E0
4.634346354E0,3.434547901E0,8.402964592E0,-1.038087964E0
4.636848229E0,3.305191040E0,8.355054855E0,-9.949690104E-1
4.639350052E0,3.171042919E0,8.321517944E0,-9.614319801E-1
4.641851927E0,3.012939930E0,8.335890770E0,-8.847759962E-1
4.644353750E0,2.888374090E0,8.264025688E0,-8.799849749E-1
4.646855625E0,2.768599033E0,8.216115952E0,-8.656119704E-1
4.649357500E0,2.701524973E0,8.196951866E0,-8.464480042E-1
4.651865104E0,2.548213005E0,8.192160606E0,-8.847759962E-1
4.654366979E0,2.461975098E0,8.158623695E0,-8.991490006E-1
4.656868802E0,2.414064884E0,8.163414955E0,-8.416569829E-1
4.659370677E0,2.303872108E0,8.206534386E0,-8.704029918E-1
4.661872500E0,2.236798048E0,8.273608208E0,-8.272839785E-1
4.664374375E0,2.155350924E0,8.369427681E0,-7.793740034E-1
4.666876250E0,2.097858906E0,8.489203453E0,-7.841650248E-1
4.669378073E0,2.011620998E0,8.508366585E0,-7.506279945E-1
4.671879948E0,1.877472997E0,8.589814186E0,-7.362549901E-1
4.674381771E0,1.872681975E0,8.695216179E0,-7.506279945E-1
4.676883646E0,1.834354043E0,8.810199738E0,-6.979269981E-1
4.679385521E0,1.743324995E0,8.915601730E0,-6.500170231E-1
4.681892917E0,1.709787965E0,9.049750328E0,-6.260619760E-1
4.684394792E0,1.676251054E0,9.169525146E0,-6.212710142E-1
4.686896615E0,1.700206041E0,9.270135880E0,-6.308529973E-1
4.689398490E0,1.642714024E0,9.413866043E0,-6.068980098E-1
4.691900313E0,1.599594951E0,9.548013687E0,-5.733609796E-1
4.694402188E0,1.575639963E0,9.648625374E0,-5.829430223E-1
4.696904063E0,1.546893954E0,9.720490456E0,-5.494059920E-1
4.699405886E0,1.580430984E0,9.758817673E0,-6.068980098E-1
4.701907761E0,1.604385972E0,9.811518669E0,-5.925250053E-1
4.704409583E0,1.633131981E0,9.892966270E0,-5.158690214E-1
4.706911458E0,1.666669011E0,9.964831352E0,-4.967049956E-1
4.709413281E0,1.657086968E0,1.001753235E1,-4.296309948E-1
4.711920417E0,1.695415020E0,1.000794983E1,-3.625569940E-1
4.714422292E0,1.772071004E0,9.964831352E0,-3.098559976E-1
4.716924115E0,1.872681975E0,9.955248833E0,-2.523640096E-1
4.719425990E0,2.025994062E0,9.945667267E0,-1.373800039E-1
4.721927813E0,2.150559902E0,1.000315857E1,-5.114199966E-2
4.724429688E0,2.275125980E0,1.003669643E1,-9.426099807E-2
4.726931563E0,2.457184076E0,1.011814308E1,-7.988800108E-2
4.729433386E0,2.701524973E0,1.012293434E1,-1.852899939E-1
4.731935261E0,2.917119980E0,1.019958973E1,-3.433929980E-1
4.734437083E0,3.137506008E0,1.017084408E1,-5.446149707E-1
4.736938958E0,3.305191040E0,1.018042564E1,-6.979269981E-1
4.739440833E0,3.472876072E0,1.014209843E1,-8.656119704E-1
4.741949063E0,3.640561104E0,1.007981491E1,-1.042878985E0
4.744450938E0,3.736381054E0,1.001753235E1,-1.129117012E0
4.746952761E0,3.827409983E0,9.983995438E0,-1.263265014E0
4.749454583E0,3.884902000E0,9.845055580E0,-1.292011023E0
4.751956458E0,3.932811975E0,9.768400192E0,-1.330338955E0
4.754458333E0,4.023840904E0,9.710907936E0,-1.402204037E0
4.756960208E0,3.961558104E0,9.730072021E0,-1.359084964E0
4.759462031E0,3.889693022E0,9.710907936E0,-1.215355039E0
4.761963906E0,3.846574068E0,9.686952591E0,-1.081207037E0
4.764465729E0,3.702843904E0,9.686952591E0,-9.326859713E-1
4.766967604E0,3.563905001E0,9.763608932E0,-7.506279945E-1
4.769469427E0,3.453711987E0,9.806728363E0,-5.781520009E-1
4.771938594E0,3.343518972E0,9.892966270E0,-4.008849859E-1
4.774440469E0,3.252490044E0,1.000315857E1,-3.194380105E-1
4.776942344E0,3.171042919E0,1.004627800E1,-2.667370141E-1
4.779444167E0,3.142297029E0,1.004148674E1,-2.667370141E-1
4.781946042E0,3.175833941E0,1.014688873E1,-3.242290020E-1
4.784447865E0,3.319564104E0,1.022833633E1,-4.392130077E-1
4.786949740E0,3.463294029E0,1.029541016E1,-6.068980098E-1
4.789451615E0,3.607023954E0,1.050142288E1,-7.889559865E-1
4.791953438E0,3.717216969E0,1.062598896E1,-1.033296943E0
4.794455313E0,3.827409983E0,1.064036179E1,-1.200981975E0
4.796957136E0,3.875319958E0,1.064036179E1,-1.148280978E0
4.799459011E0,3.913647890E0,1.062598896E1,-1.114743948E0
4.802003594E0,3.966348886E0,1.057807922E1,-1.090788960E0
4.804505469E0,3.947185040E0,1.051579571E1,-1.052461028E0
4.807007292E0,3.999886036E0,1.039122963E1,-9.997599721E-1
4.809509167E0,4.047795773E0,1.030020142E1,-9.853870273E-1
4.812010990E0,4.105288029E0,1.013730717E1,-9.710140228E-1
4.814512865E0,4.105288029E0,1.001753235E1,-9.614319801E-1
4.817014740E0,4.114870071E0,9.955248833E0,-9.614319801E-1
4.819516563E0,4.129242897E0,9.873802185E0,-9.422680140E-1
4.822018438E0,4.143616199E0,9.859429359E0,-8.991490006E-1
4.824520261E0,4.134034157E0,9.873802185E0,-8.512390256E-1
4.827022136E0,4.086123943E0,9.840265274E0,-7.697920203E-1
4.829524011E0,4.071751118E0,9.854638100E0,-7.650009990E-1
4.832029792E0,4.038214207E0,9.840265274E0,-6.739720106E-1
4.834531667E0,4.019050121E0,9.854638100E0,-6.260619760E-1
4.837033490E0,4.023840904E0,9.845055580E0,-6.308529973E-1
4.839535365E0,3.990303993E0,9.797145844E0,-6.164799929E-1
4.842037188E0,4.038214207E0,9.816309929E0,-7.027180195E-1
4.844539063E0,4.162779808E0,9.777981758E0,-8.416569829E-1
4.847040938E0,4.311301231E0,9.792354584E0,-9.710140228E-1
4.849542761E0,4.498149872E0,9.840265274E0,-1.157863021E0
4.852044636E0,4.708953857E0,9.964831352E0,-1.411785960E0
4.854546458E0,4.943713188E0,1.013251591E1,-1.632171988E0
4.857048333E0,5.063488007E0,1.038164806E1,-1.742365003E0
4.859550208E0,5.135353088E0,1.064515305E1,-1.876513004E0
4.862022031E0,5.207218170E0,1.101885128E1,-2.015451908E0
4.864523906E0,5.221590996E0,1.135422134E1,-1.953168988E0
4.867025781E0,5.140143871E0,1.173750114E1,-1.910050035E0
4.869527604E0,4.953295231E0,1.220222759E1,-1.862140059E0
4.872029479E0,4.704163074E0,1.263341808E1,-1.751947045E0
4.874531302E0,4.455030918E0,1.304544353E1,-1.694455028E0
4.877033177E0,4.134034157E0,1.340956020E1,-1.613008022E0
4.879535052E0,3.836992025E0,1.375451183E1,-1.531561017E0
4.882036875E0,3.650142908E0,1.393657017E1,-1.464486957E0
4.884538750E0,3.420175076E0,1.406592655E1,-1.483651042E0
4.887040573E0,3.271653891E0,1.419528389E1,-1.493232965E0
4.889542448E0,3.099178076E0,1.419528389E1,-1.550724983E0
4.892085521E0,2.960238934E0,1.413300133E1,-1.603425980E0
4.894587344E0,2.912328959E0,1.402280807E1,-1.795065999E0
4.897089219E0,2.921911001E0,1.392698765E1,-2.001079082E0
4.899591094E0,2.897955894E0,1.374972057E1,-2.255002022E0
4.902092917E0,2.830882072E0,1.363952827E1,-2.484970093E0
4.904594792E0,2.768599033E0,1.346226120E1,-2.825130939E0
4.907096667E0,2.706315994E0,1.334727669E1,-3.093426943E0
4.909598490E0,2.624869108E0,1.321792030E1,-3.241947889E0
4.912100365E0,2.514676094E0,1.310772705E1,-3.419214964E0
4.914602188E0,2.318244934E0,1.288734055E1,-3.577317953E0
4.917104063E0,2.126605034E0,1.280589390E1,-3.754585028E0
4.919605886E0,1.911010027E0,1.274840164E1,-3.759376049E0
4.922114323E0,1.709787965E0,1.265258217E1,-3.610855103E0
4.924616198E0,1.470237970E0,1.258071709E1,-3.519825935E0
4.927118021E0,1.307343960E0,1.250406075E1,-3.385678053E0
4.929619896E0,1.225896955E0,1.243698692E1,-3.237157106E0
4.932121719E0,1.139659047E0,1.237470436E1,-3.050307989E0
4.934623594E0,9.719740152E-1,1.230283928E1,-2.844295025E0
4.937125469E0,8.042889833E-1,1.226451111E1,-2.786803007E0
4.939627292E0,6.222310066E-1,1.211119938E1,-2.753266096E0
4.942129167E0,4.785009921E-1,1.185248470E1,-2.705355883E0
4.944630990E0,3.778899908E-1,1.163689041E1,-2.714937925E0
4.947132865E0,2.389509976E-1,1.145004082E1,-2.714937925E0
4.949634688E0,-5.990000209E-4,1.125840092E1,-2.724519968E0
4.952119740E0,-1.682839990E-1,1.103801537E1,-2.657445908E0
4.954621615E0,-3.263869882E-1,1.083200169E1,-2.580790043E0
4.957123438E0,-4.222069979E-1,1.072659969E1,-2.547252893E0
4.959625313E0,-5.467730165E-1,1.075055504E1,-2.532880068E0
4.962127136E0,-7.863230109E-1,1.077930069E1,-2.293329954E0
4.964629011E0,-1.016291022E0,1.087991238E1,-1.866930962E0
4.967130886E0,-1.246258974E0,1.105717945E1,-1.440531969E0
4.969632708E0,-1.524137020E0,1.126319218E1,-1.014132977E0
4.972134583E0,-1.696612954E0,1.136380291E1,-6.691809893E-1
4.974636406E0,-1.893043995E0,1.143566799E1,-2.715280056E-1
4.977138281E0,-2.065520048E0,1.141650391E1,1.165430024E-1
4.979640156E0,-2.170922041E0,1.136859417E1,5.237780213E-1
4.982132604E0,-2.247577906E0,1.142608643E1,7.872830033E-1
4.984634479E0,-2.338607073E0,1.153627872E1,1.045997024E0
4.987136354E0,-2.338607073E0,1.162730789E1,1.333456993E0
4.989638177E0,-2.247577906E0,1.183811188E1,1.501142025E0
4.992140052E0,-2.103847980E0,1.208724403E1,1.692782044E0
4.994641875E0,-2.079893112E0,1.246573257E1,1.831720948E0
4.997143750E0,-1.816388011E0,1.267653656E1,1.894003987E0
4.999645625E0,-1.485808969E0,1.284901333E1,1.879631042E0
5.002147448E0,-1.212721944E0,1.301190662E1,1.846094012E0
5.004649323E0,-9.779629707E-1,1.306939888E1,1.836511970E0
5.007151146E0,-8.198599815E-1,1.317000961E1,1.764647007E0
5.009653021E0,-6.617569923E-1,1.316521931E1,1.573006988E0
5.012197813E0,-4.174160063E-1,1.308856297E1,1.323874950E0
5.014699636E0,-2.161940038E-1,1.300711632E1,1.060369968E0
5.017201511E0,-1.018100046E-2,1.287775898E1,6.962540150E-1
5.019703386E0,2.772789896E-1,1.266216373E1,3.129740059E-1
5.022205208E0,6.270220280E-1,1.249927044E1,-1.469620019E-1
5.024707083E0,9.240639806E-1,1.234595776E1,-5.494059920E-1
5.027208906E0,1.168405056E0,1.208724403E1,-8.895670176E-1
5.029710781E0,1.412745953E0,1.187164879E1,-1.109953046E0
5.032212656E0,1.580430984E0,1.168480015E1,-1.311174989E0
5.034714479E0,1.733742952E0,1.148836899E1,-1.315966010E0
5.037216354E0,2.131396055E0,1.128235626E1,-1.368667006E0
5.039718229E0,2.476347923E0,1.101885128E1,-1.320757031E0
5.042189115E0,2.768599033E0,1.076492786E1,-1.172235966E0
5.044690990E0,2.960238934E0,1.052058697E1,-8.847759962E-1
5.047192865E0,3.166251898E0,1.028103733E1,-5.589879751E-1
5.049694688E0,3.286026955E0,1.000315857E1,-2.427819967E-1
5.052196563E0,3.295608997E0,9.782773018E0,1.261249930E-1
5.054698386E0,3.252490044E0,9.586341858E0,5.477330089E-1
5.057200261E0,3.281235933E0,9.332419395E0,9.166399837E-1
5.059702136E0,3.262072086E0,9.044959068E0,1.218472958E0
5.062203958E0,3.276444912E0,8.882064819E0,1.419695020E0
5.064705833E0,3.281235933E0,8.700007439E0,1.630499005E0
5.067207656E0,3.218952894E0,8.541904449E0,1.807765961E0
5.069709531E0,3.094387054E0,8.412547112E0,1.941913962E0
5.072255573E0,3.113550901E0,8.340682030E0,2.090435028E0
5.074757448E0,3.075222969E0,8.335890770E0,2.095226049E0
5.077259271E0,3.032104015E0,8.273608208E0,1.994614959E0
5.079761146E0,3.036895037E0,8.192160606E0,1.817348003E0
5.082262969E0,3.036895037E0,8.110713959E0,1.668827057E0
5.084764844E0,3.075222969E0,8.091549873E0,1.515514970E0
5.087266719E0,3.017730951E0,8.144250870E0,1.419695020E0
5.089768542E0,2.869210005E0,8.235280037E0,1.352620959E0
5.092270417E0,2.778181076E0,8.402964592E0,1.271173954E0
5.094772240E0,2.701524973E0,8.489203453E0,1.237637043E0
5.097274115E0,2.639241934E0,8.546694756E0,1.256801009E0
5.099775990E0,2.658406019E0,8.623351097E0,1.213682055E0
5.102244323E0,2.553004026E0,8.704797745E0,1.108279943E0
5.104746198E0,2.457184076E0,8.704797745E0,1.089115977E0
5.107248073E0,2.385318995E0,8.695216179E0,1.031623960E0
5.109749896E0,2.260752916E0,8.719170570E0,9.070580006E-1
5.112251771E0,2.222424984E0,8.757498741E0,7.968649864E-1
5.114753594E0,2.217633963E0,8.719170570E0,7.824919820E-1
5.117255469E0,2.097858906E0,8.680843353E0,7.872830033E-1
5.119757344E0,2.059530973E0,8.527530670E0,8.064470291E-1
5.122259167E0,2.054739952E0,8.436502457E0,8.926849961E-1
5.124761042E0,2.088277102E0,8.268816948E0,9.980869889E-1
5.127262865E0,2.097858906E0,8.139459610E0,1.031623960E0
5.129764740E0,2.155350924E0,8.019684792E0,1.050788045E0
5.132272031E0,2.150559902E0,7.919074059E0,1.108279943E0
5.134773906E0,2.217633963E0,7.808880806E0,1.170562983E0
5.137275833E0,2.241589069E0,7.598076820E0,1.347830057E0
5.139777761E0,2.265543938E0,7.411228180E0,1.520305991E0
5.142279636E0,2.227216005E0,7.353735924E0,1.582589030E0
5.144781563E0,2.136187077E0,7.214797020E0,1.515514970E0
5.147283490E0,2.121814013E0,7.095022202E0,1.438858986E0
5.149785365E0,2.049948931E0,7.118977070E0,1.462813973E0
5.152287240E0,1.958920002E0,7.085440159E0,1.414903998E0
5.154789219E0,1.911010027E0,6.994410992E0,1.266383052E0
5.157291094E0,2.002038956E0,6.965664864E0,1.113070965E0
5.159793021E0,2.035576105E0,6.951292038E0,1.050788045E0
5.162336458E0,1.887055039E0,6.960874081E0,8.495659828E-1
5.164838386E0,1.877472997E0,6.951292038E0,7.441639900E-1
5.167340261E0,1.829563022E0,6.984828949E0,7.872830033E-1
5.169842188E0,1.743324995E0,6.989620209E0,7.537459731E-1
5.172344115E0,1.681041956E0,7.061484814E0,8.160290122E-1
5.174845990E0,1.594804049E0,7.104603767E0,9.166399837E-1
5.177347917E0,1.503775001E0,7.157304764E0,1.026833057E0
5.179849844E0,1.407955050E0,7.186050892E0,1.127444029E0
5.182351719E0,1.264225006E0,7.253125191E0,1.285547018E0
5.184853646E0,1.091748953E0,7.348945141E0,1.534679055E0
5.187355573E0,9.480190277E-1,7.425601006E0,1.707154989E0
5.189857448E0,8.282439709E-1,7.444765091E0,1.870049000E0
5.192366302E0,7.132599950E-1,7.497466087E0,2.076061964E0
5.194868177E0,6.653500199E-1,7.487884045E0,2.224582911E0
5.197370104E0,5.982760191E-1,7.454347134E0,2.334775925E0
5.199872031E0,5.216199756E-1,7.449555874E0,2.473715067E0
5.202373958E0,3.778899908E-1,7.425601006E0,2.646190882E0
5.204875833E0,2.581149936E-1,7.454347134E0,2.765965939E0
5.207377761E0,1.622949988E-1,7.454347134E0,2.861785889E0
5.209879688E0,9.042999893E-2,7.396854877E0,2.919277906E0
5.212381563E0,-5.990000209E-4,7.348945141E0,3.015098095E0
5.214883490E0,-5.809099972E-2,7.315408230E0,3.125291109E0
5.217385417E0,-1.682839990E-1,7.320199013E0,3.187573910E0
5.219887292E0,-2.353579998E-1,7.238751888E0,3.221111059E0
5.222395000E0,-2.880589962E-1,7.195632935E0,3.316931009E0
5.224896927E0,-3.455510139E-1,7.157304764E0,3.345676899E0
5.227398802E0,-4.030430019E-1,7.090230942E0,3.393587112E0
5.229900729E0,-4.749079943E-1,7.032739162E0,3.407959938E0
5.232402656E0,-5.371909738E-1,6.994410992E0,3.475033998E0
