"Time (s)","Acceleration x (m/s^2)","Acceleration y (m/s^2)","Acceleration z (m/s^2)"
0.000000000E0,-6.536370516E-1,2.365543604E0,9.435836792E0
2.027000000E-3,-7.374366522E-1,2.300898075E0,9.486116409E0
4.027000000E-3,-7.901107073E-1,2.243435383E0,9.526819229E0
6.027000000E-3,-8.068706393E-1,2.214704275E0,9.538790703E0
8.027000000E-3,-7.757450342E-1,2.207521439E0,9.526819229E0
1.002700000E-2,-7.254652381E-1,2.219492674E0,9.522030830E0
1.202700000E-2,-6.656084061E-1,2.229069948E0,9.522030830E0
1.402700000E-2,-6.153286099E-1,2.231464148E0,9.512454033E0
1.602700000E-2,-5.770202279E-1,2.233858347E0,9.502876282E0
1.802700000E-2,-5.530774593E-1,2.224281311E0,9.495694160E0
2.002700000E-2,-5.075862408E-1,2.114144564E0,9.486116409E0
2.202440000E-2,-5.075862408E-1,2.114144564E0,9.486116409E0
2.402203600E-2,-5.075862408E-1,2.114144564E0,9.486116409E0
2.601986900E-2,-5.004034638E-1,2.106961727E0,9.474145889E0
2.801786900E-2,-5.004034638E-1,2.106961727E0,9.474145889E0
3.001644000E-2,-5.004034638E-1,2.106961727E0,9.474145889E0
3.201644000E-2,-4.884320498E-1,2.099778891E0,9.459779739E0
3.401644000E-2,-4.573064744E-1,2.092596292E0,9.438231468E0
3.601644000E-2,-4.309694767E-1,2.087807655E0,9.431048393E0
3.801644000E-2,-4.142095447E-1,2.097384691E0,9.447808266E0
4.001644000E-2,-4.070267081E-1,2.123721838E0,9.481328011E0
4.201644000E-2,-4.166038036E-1,2.145270348E0,9.529213905E0
4.401648700E-2,-4.405465722E-1,2.166818619E0,9.586676598E0
4.601653200E-2,-4.740664065E-1,2.188367128E0,9.651321411E0
4.801657500E-2,-5.075862408E-1,2.207521439E0,9.701601982E0
5.001661600E-2,-5.363175869E-1,2.229069948E0,9.751881599E0
5.201665600E-2,-5.626545548E-1,2.250618219E0,9.783006668E0
5.401669400E-2,-5.746259689E-1,2.264983892E0,9.785401344E0
5.601673100E-2,-5.746259689E-1,2.262589693E0,9.756669998E0
5.801676600E-2,-5.722316504E-1,2.260195494E0,9.715967178E0
6.001676600E-2,-5.626545548E-1,2.231464148E0,9.476539612E0
6.201589900E-2,-5.626545548E-1,2.231464148E0,9.476539612E0
6.401503200E-2,-5.626545548E-1,2.231464148E0,9.476539612E0
6.601503200E-2,-5.458946824E-1,2.229069948E0,9.375980377E0
6.801503200E-2,-5.387118459E-1,2.219492674E0,9.280209541E0
7.001503200E-2,-5.387118459E-1,2.209915638E0,9.189227104E0
7.201503200E-2,-5.243461728E-1,2.214704275E0,9.115004539E0
7.401503200E-2,-5.195576549E-1,2.219492674E0,9.052753448E0
7.601503200E-2,-5.315290093E-1,2.221887112E0,9.014444351E0
7.801503200E-2,-5.363175869E-1,2.224281311E0,9.012050629E0
8.001503200E-2,-5.602602959E-1,2.221887112E0,9.024022102E0
8.201589800E-2,-5.961744189E-1,2.226675510E0,9.047964096E0
8.401676400E-2,-6.225114465E-1,2.224281311E0,9.093455315E0
8.601763000E-2,-6.392713785E-1,2.221887112E0,9.148524284E0
8.801849600E-2,-6.416656375E-1,2.229069948E0,9.220352173E0
9.001919600E-2,-6.320885420E-1,2.241041183E0,9.287391663E0
9.201922900E-2,-6.249057055E-1,2.243435383E0,9.342460632E0
9.401926200E-2,-6.249057055E-1,2.241041183E0,9.395133972E0
9.601929500E-2,-6.296942830E-1,2.245829821E0,9.443019867E0
9.801932800E-2,-6.009629965E-1,2.248224020E0,9.469356537E0
1.000193610E-1,-7.110996246E-1,2.126116037E0,9.510059357E0
1.020185270E-1,-7.110996246E-1,2.126116037E0,9.510059357E0
1.040177930E-1,-7.110996246E-1,2.126116037E0,9.510059357E0
1.060173590E-1,-7.230709791E-1,2.104567528E0,9.490905762E0
1.080173250E-1,-7.589851022E-1,2.066259146E0,9.471751213E0
1.100172910E-1,-8.954587579E-1,1.982459545E0,9.471751213E0
1.120172570E-1,-7.996878028E-1,1.980065227E0,9.498087883E0
1.140172230E-1,-5.578660369E-1,2.059076309E0,9.486116409E0
1.160171890E-1,-3.088614643E-1,2.159635782E0,9.392740250E0
1.180171550E-1,-1.292908341E-1,2.260195494E0,9.318517685E0
1.200171550E-1,-5.027977005E-2,2.320052385E0,9.275420189E0
1.220180550E-1,-6.943397224E-2,2.346389294E0,9.258660316E0
1.240189550E-1,-1.436564922E-1,2.353572130E0,9.246688843E0
1.260189880E-1,-2.250618339E-1,2.346389294E0,9.210775375E0
1.280190210E-1,-2.849186957E-1,2.336812258E0,9.158101082E0
1.300190540E-1,-3.256213665E-1,2.327235222E0,9.095849991E0
1.320190870E-1,-3.495641351E-1,2.315263748E0,9.035993576E0
1.340191200E-1,-3.782954216E-1,2.296109438E0,9.000079155E0
1.360191530E-1,-4.094209969E-1,2.267378330E0,8.995290756E0
1.380191530E-1,-4.357580245E-1,2.243435383E0,9.007262230E0
1.400191530E-1,-5.027977228E-1,2.176395893E0,9.201197624E0
1.420182860E-1,-5.027977228E-1,2.176395893E0,9.201197624E0
1.440175520E-1,-5.027977228E-1,2.176395893E0,9.201197624E0
1.460171520E-1,-5.123748183E-1,2.169213057E0,9.241900444E0
1.480171520E-1,-5.267404318E-1,2.154847383E0,9.325700760E0
1.500171180E-1,-5.339232683E-1,2.147664547E0,9.411893845E0
1.520170840E-1,-5.435003638E-1,2.142875910E0,9.483722687E0
1.540170500E-1,-5.674431324E-1,2.126116037E0,9.543579102E0
1.560170160E-1,-5.722316504E-1,2.109356165E0,9.591464996E0
1.580169820E-1,-5.315290093E-1,2.111750364E0,9.617801666E0
1.600169480E-1,-4.908263385E-1,2.111750364E0,9.624984741E0
1.620177810E-1,-4.620950520E-1,2.102173328E0,9.620196342E0
1.640184810E-1,-4.668835998E-1,2.075836182E0,9.622590065E0
1.660188810E-1,-5.554717779E-1,2.013585091E0,9.639349937E0
1.680189140E-1,-6.129343510E-1,1.958516836E0,9.651321411E0
1.700189470E-1,-4.980091453E-1,1.944151163E0,9.668081284E0
1.720189800E-1,-4.166038036E-1,1.872322917E0,9.658504486E0
1.740190130E-1,-3.926610649E-1,1.795706153E0,9.627379417E0
1.760190460E-1,-3.663240373E-1,1.771763325E0,9.601041794E0
1.780190790E-1,-3.351984620E-1,1.795706153E0,9.574705124E0
1.800191120E-1,-2.274561077E-1,1.965699673E0,9.457385063E0
1.820182450E-1,-2.274561077E-1,1.965699673E0,9.457385063E0
1.840174780E-1,-2.274561077E-1,1.965699673E0,9.457385063E0
1.860172440E-1,-2.226675600E-1,1.999219418E0,9.440625191E0
1.880172100E-1,-2.346389294E-1,2.059076309E0,9.411893845E0
1.900171760E-1,-2.609759569E-1,2.116539001E0,9.387951851E0
1.920171420E-1,-2.777358890E-1,2.157241583E0,9.378374100E0
1.940171080E-1,-2.849186957E-1,2.169213057E0,9.383162498E0
1.960170740E-1,-2.801301479E-1,2.164424419E0,9.387951851E0
1.980170740E-1,-2.801301479E-1,2.140481710E0,9.392740250E0
2.000171070E-1,-3.639297783E-1,2.078230619E0,9.407105446E0
2.020180070E-1,-5.027977228E-1,1.972882390E0,9.414288521E0
2.040187730E-1,-4.716721475E-1,1.927391171E0,9.402317047E0
2.060192060E-1,-3.806896806E-1,1.908236980E0,9.395133972E0
2.080192390E-1,-3.447755575E-1,1.879505754E0,9.383162498E0
2.100192720E-1,-3.399870098E-1,1.862745762E0,9.385557175E0
2.120193050E-1,-3.759011328E-1,1.845985889E0,9.423865318E0
2.140193380E-1,-4.046324492E-1,1.834014535E0,9.502876282E0
2.160193380E-1,-3.998439014E-1,1.838803053E0,9.605830193E0
2.180193380E-1,-3.998439014E-1,1.845985889E0,9.713572502E0
2.200193380E-1,-3.663240373E-1,1.905842781E0,9.991309166E0
2.220184710E-1,-3.495641351E-1,1.917814136E0,1.003201103E1
2.240177370E-1,-3.495641351E-1,1.917814136E0,1.003201103E1
2.260173370E-1,-3.304099143E-1,1.929785490E0,1.006553173E1
2.280173030E-1,-2.921015322E-1,1.936968327E0,1.011820507E1
2.300172690E-1,-2.633702159E-1,1.934574008E0,1.013496494E1
2.320172350E-1,-2.466102988E-1,1.922602654E0,1.012538815E1
2.340172010E-1,-2.442160249E-1,1.905842781E0,1.008708000E1
2.360171670E-1,-2.561874092E-1,1.886688590E0,1.003440571E1
2.380171330E-1,-2.849186957E-1,1.869928598E0,9.974549294E0
2.400170990E-1,-3.447755575E-1,1.845985889E0,9.919480324E0
2.420179320E-1,-4.166038036E-1,1.817254543E0,9.876383781E0
2.440186650E-1,-5.411061049E-1,1.764580488E0,9.847652435E0
2.460188980E-1,-5.195576549E-1,1.762186289E0,9.799766541E0
2.480189310E-1,-3.806896806E-1,1.807677507E0,9.706390381E0
2.500189640E-1,-3.663240373E-1,1.826831698E0,9.629773140E0
2.520189970E-1,-4.740664065E-1,1.807677507E0,9.615407944E0
2.540190300E-1,-4.620950520E-1,1.829225898E0,9.622590065E0
2.560190630E-1,-3.902668059E-1,1.881899953E0,9.610619545E0
2.580190960E-1,-3.615354896E-1,1.917814136E0,9.596253395E0
2.600190960E-1,-4.644893110E-1,2.001613855E0,9.639349937E0
2.620181960E-1,-4.884320498E-1,2.006402254E0,9.646533012E0
2.640174290E-1,-4.884320498E-1,2.006402254E0,9.646533012E0
2.660175290E-1,-5.123748183E-1,2.008796453E0,9.653716087E0
2.680174950E-1,-5.387118459E-1,2.001613855E0,9.675264359E0
2.700174610E-1,-5.530774593E-1,1.992036581E0,9.694418907E0
2.720174270E-1,-5.554717779E-1,1.987248063E0,9.701601982E0
2.740173930E-1,-5.554717779E-1,1.984853864E0,9.708784103E0
2.760173930E-1,-5.458946824E-1,1.980065227E0,9.718361855E0
2.780174260E-1,-5.387118459E-1,1.975276709E0,9.720755577E0
2.800174590E-1,-5.363175869E-1,1.965699673E0,9.744698524E0
2.820183590E-1,-5.387118459E-1,1.946545362E0,9.766246796E0
2.840191250E-1,-5.458946824E-1,1.924996972E0,9.768641472E0
2.860195580E-1,-5.482889414E-1,1.908236980E0,9.780612946E0
2.880195910E-1,-5.458946824E-1,1.893871427E0,9.811738014E0
2.900196240E-1,-5.315290093E-1,1.886688590E0,9.838075638E0
2.920196570E-1,-4.620950520E-1,1.869928598E0,9.890748978E0
2.940196570E-1,-3.806896806E-1,1.848380208E0,9.933846474E0
2.960196570E-1,-3.375927508E-1,1.812466025E0,9.964971542E0
2.980196570E-1,-3.447755575E-1,1.771763325E0,9.988914490E0
3.000192570E-1,-5.219519138E-1,1.589798450E0,1.009186840E1
3.020183900E-1,-4.501236677E-1,1.585009933E0,1.006074238E1
3.040175230E-1,-4.501236677E-1,1.585009933E0,1.006074238E1
3.060172890E-1,-4.501236677E-1,1.585009933E0,1.006074238E1
3.080172550E-1,-2.561874092E-1,1.616135478E0,9.979337692E0
3.100172210E-1,-1.221080124E-1,1.659232497E0,9.921875000E0
3.120171870E-1,-8.379961550E-2,1.692752242E0,9.924268723E0
3.140171530E-1,-1.101366431E-1,1.714300752E0,9.960183144E0
3.160171190E-1,-1.675992310E-1,1.721483588E0,1.000806904E1
3.180170850E-1,-2.202732861E-1,1.721483588E0,1.004158878E1
3.200170510E-1,-2.537931204E-1,1.721483588E0,1.005356026E1
3.220179170E-1,-2.609759569E-1,1.738243461E0,1.003440571E1
3.240186830E-1,-2.585816681E-1,1.762186289E0,1.000088596E1
3.260185830E-1,-2.585816681E-1,1.786128998E0,9.981731415E0
3.280186160E-1,-2.657645047E-1,1.812466025E0,9.967366219E0
3.300186490E-1,-2.992843390E-1,1.824437380E0,9.955394745E0
3.320186820E-1,-3.495641351E-1,1.824437380E0,9.945817947E0
3.340187150E-1,-4.046324492E-1,1.817254543E0,9.943423271E0
3.360187480E-1,-4.429408312E-1,1.812466025E0,9.936240196E0
3.380187480E-1,-4.644893110E-1,1.810071707E0,9.912297249E0
3.400187140E-1,-4.333637357E-1,1.838803053E0,9.790189743E0
3.420178140E-1,-4.333637357E-1,1.838803053E0,9.790189743E0
3.440170470E-1,-4.333637357E-1,1.838803053E0,9.790189743E0
3.460170130E-1,-4.285751879E-1,1.845985889E0,9.768641472E0
3.480169790E-1,-4.166038036E-1,1.865140080E0,9.732727051E0
3.500169450E-1,-4.046324492E-1,1.879505754E0,9.699207306E0
3.520169110E-1,-4.046324492E-1,1.891477108E0,9.668081284E0
3.540169110E-1,-4.022381604E-1,1.903448462E0,9.644139290E0
3.560169440E-1,-4.046324492E-1,1.929785490E0,9.624984741E0
3.580169770E-1,-4.166038036E-1,1.956122518E0,9.596253395E0
3.600174100E-1,-4.477293789E-1,1.970488191E0,9.560338974E0
3.620183100E-1,-4.860377908E-1,1.984853864E0,9.534002304E0
3.640192100E-1,-5.267404318E-1,2.004008055E0,9.512454033E0
3.660194430E-1,-6.225114465E-1,2.011190891E0,9.500482559E0
3.680194760E-1,-7.134938836E-1,1.987248063E0,9.493299484E0
3.700195090E-1,-6.225114465E-1,2.006402254E0,9.426259995E0
3.720195090E-1,-5.171633363E-1,2.044710636E0,9.325700760E0
3.740195090E-1,-5.411061049E-1,2.047105074E0,9.313729286E0
3.760195090E-1,-5.458946824E-1,2.049499273E0,9.323306084E0
3.780195090E-1,-4.620950520E-1,2.075836182E0,9.296969414E0
3.800195090E-1,-3.854782581E-1,2.126116037E0,9.308940887E0
3.820186420E-1,-3.854782581E-1,2.126116037E0,9.308940887E0
3.840178750E-1,-3.854782581E-1,2.126116037E0,9.308940887E0
3.860173410E-1,-3.926610649E-1,2.128510237E0,9.304151535E0
3.880173070E-1,-3.806896806E-1,2.123721838E0,9.294574738E0
3.900172730E-1,-3.495641351E-1,2.116539001E0,9.261054993E0
3.920172390E-1,-3.232271075E-1,2.118933201E0,9.210775375E0
3.940172050E-1,-3.136500120E-1,2.118933201E0,9.170072556E0
3.960171710E-1,-3.136500120E-1,2.111750364E0,9.160495758E0
3.980171370E-1,-3.304099143E-1,2.094990492E0,9.158101082E0
4.000171370E-1,-3.567469418E-1,2.071047783E0,9.158101082E0
4.020180370E-1,-3.878725171E-1,2.056682110E0,9.150918007E0
4.040188030E-1,-4.189980924E-1,2.044710636E0,9.148524284E0
4.060188360E-1,-4.405465722E-1,2.042316437E0,9.150918007E0
4.080188690E-1,-4.620950520E-1,2.044710636E0,9.167677879E0
4.100189020E-1,-4.812492430E-1,2.047105074E0,9.198803902E0
4.120185350E-1,-4.860377908E-1,2.051893473E0,9.251478195E0
4.140185680E-1,-4.908263385E-1,2.063864946E0,9.316123009E0
4.160185680E-1,-4.956148863E-1,2.066259146E0,9.387951851E0
4.180185340E-1,-4.908263385E-1,2.056682110E0,9.464568138E0
4.200185000E-1,-4.668835998E-1,2.047105074E0,9.677659035E0
4.220176000E-1,-4.668835998E-1,2.047105074E0,9.677659035E0
4.240168330E-1,-4.668835998E-1,2.047105074E0,9.677659035E0
4.260166660E-1,-4.644893110E-1,2.047105074E0,9.696812630E0
4.280166320E-1,-4.501236677E-1,2.035133600E0,9.730332375E0
4.300165980E-1,-4.261809289E-1,2.013585091E0,9.749486923E0
4.320165980E-1,-4.022381604E-1,1.987248063E0,9.751881599E0
4.340166310E-1,-3.830839694E-1,1.970488191E0,9.744698524E0
4.360166640E-1,-3.639297783E-1,1.953728199E0,9.730332375E0
4.380166970E-1,-3.399870098E-1,1.948939681E0,9.706390381E0
4.400167300E-1,-3.160442710E-1,1.958516836E0,9.670475960E0
4.420176300E-1,-2.921015322E-1,1.965699673E0,9.629773140E0
4.440183960E-1,-2.849186957E-1,1.972882390E0,9.581888199E0
4.460189290E-1,-2.801301479E-1,1.982459545E0,9.531607628E0
4.480189620E-1,-2.825244367E-1,2.004008055E0,9.478934288E0
4.500189620E-1,-2.944957912E-1,2.023162127E0,9.440625191E0
4.520189620E-1,-3.064671755E-1,2.037527800E0,9.399923325E0
4.540189620E-1,-3.208328187E-1,2.047105074E0,9.352037430E0
4.560189620E-1,-3.447755575E-1,2.059076309E0,9.308940887E0
4.580189620E-1,-3.663240373E-1,2.068653345E0,9.275420189E0
4.600189620E-1,-4.285751879E-1,2.094990492E0,9.198803902E0
4.620180620E-1,-4.381522834E-1,2.102173328E0,9.186832428E0
4.640172950E-1,-4.381522834E-1,2.102173328E0,9.186832428E0
4.660169950E-1,-4.453351200E-1,2.111750364E0,9.167677879E0
4.680169610E-1,-4.597007632E-1,2.118933201E0,9.131764412E0
4.700169270E-1,-4.692778587E-1,2.123721838E0,9.098244667E0
4.720172930E-1,-4.644893110E-1,2.126116037E0,9.081484795E0
4.740172590E-1,-4.429408312E-1,2.133298874E0,9.079090118E0
4.760172250E-1,-4.237866402E-1,2.152452946E0,9.086273193E0
4.780172250E-1,-4.046324492E-1,2.169213057E0,9.100638390E0
4.800172580E-1,-3.878725171E-1,2.176395893E0,9.122186661E0
4.820181580E-1,-3.759011328E-1,2.171607256E0,9.148524284E0
4.840189240E-1,-3.639297783E-1,2.162030220E0,9.174860954E0
4.860190900E-1,-3.591412306E-1,2.159635782E0,9.213169098E0
4.880191230E-1,-3.567469418E-1,2.159635782E0,9.253871918E0
4.900191560E-1,-3.639297783E-1,2.152452946E0,9.294574738E0
4.920191890E-1,-3.830839694E-1,2.138087511E0,9.332882881E0
4.940191890E-1,-3.950553536E-1,2.128510237E0,9.371191978E0
4.960191550E-1,-4.070267081E-1,2.116539001E0,9.409500122E0
4.980191210E-1,-4.189980924E-1,2.099778891E0,9.438231468E0
5.000190870E-1,-4.357580245E-1,2.044710636E0,9.512454033E0
5.020181870E-1,-4.357580245E-1,2.044710636E0,9.512454033E0
5.040174200E-1,-4.309694767E-1,2.035133600E0,9.534002304E0
5.060173860E-1,-4.309694767E-1,2.035133600E0,9.534002304E0
5.080173520E-1,-4.189980924E-1,2.018373728E0,9.581888199E0
5.100173520E-1,-4.022381604E-1,2.008796453E0,9.629773140E0
5.120164850E-1,-3.782954216E-1,2.001613855E0,9.680052757E0
5.140165180E-1,-3.447755575E-1,1.992036581E0,9.727938652E0
5.160161840E-1,-3.064671755E-1,1.984853864E0,9.771035194E0
5.180162170E-1,-2.753416002E-1,1.987248063E0,9.802161217E0
5.200162500E-1,-2.466102988E-1,1.992036581E0,9.840469360E0
5.220175160E-1,-2.250618339E-1,2.001613855E0,9.897932053E0
5.240182820E-1,-2.202732861E-1,2.006402254E0,9.912297249E0
5.260185820E-1,-2.106961906E-1,2.023162127E0,9.921875000E0
5.280185820E-1,-2.106961906E-1,2.039922237E0,9.912297249E0
5.300185820E-1,-2.202732861E-1,2.061470509E0,9.888355255E0
5.320185820E-1,-2.370332032E-1,2.075836182E0,9.852440834E0
5.340185820E-1,-2.083019018E-1,2.099778891E0,9.833286285E0
5.360185820E-1,-1.436564922E-1,2.109356165E0,9.811738014E0
5.380185820E-1,-1.412622184E-1,2.092596292E0,9.778218269E0
5.400185480E-1,-4.884320498E-1,2.015979290E0,9.818921089E0
5.420176480E-1,-4.884320498E-1,2.015979290E0,9.818921089E0
5.440168480E-1,-4.884320498E-1,2.015979290E0,9.818921089E0
5.460168140E-1,-5.004034638E-1,2.008796453E0,9.814132690E0
5.480167800E-1,-4.692778587E-1,2.008796453E0,9.759063721E0
5.500167460E-1,-3.902668059E-1,2.030344963E0,9.668081284E0
5.520167120E-1,-3.160442710E-1,2.061470509E0,9.591464996E0
5.540166780E-1,-2.561874092E-1,2.094990492E0,9.562733650E0
5.560166780E-1,-2.322446555E-1,2.121327400E0,9.567522049E0
5.580162780E-1,-2.370332032E-1,2.138087511E0,9.586676598E0
5.600163110E-1,-2.442160249E-1,2.140481710E0,9.608224869E0
5.620172110E-1,-2.346389294E-1,2.142875910E0,9.620196342E0
5.640179770E-1,-1.963305324E-1,2.159635782E0,9.622590065E0
5.660180100E-1,-1.747820675E-1,2.169213057E0,9.605830193E0
5.680180430E-1,-1.987248063E-1,2.159635782E0,9.577098846E0
5.700180760E-1,-2.513988614E-1,2.133298874E0,9.548367500E0
5.720189760E-1,-3.136500120E-1,2.109356165E0,9.543579102E0
5.740189420E-1,-3.687183261E-1,2.085413456E0,9.545973778E0
5.760192750E-1,-3.854782581E-1,2.068653345E0,9.553156853E0
5.780192410E-1,-3.687183261E-1,2.068653345E0,9.565128326E0
5.800192070E-1,-2.921015322E-1,2.090201855E0,9.562733650E0
5.820179400E-1,-2.921015322E-1,2.090201855E0,9.562733650E0
5.840171730E-1,-2.921015322E-1,2.090201855E0,9.562733650E0
5.860175060E-1,-2.992843390E-1,2.092596292E0,9.560338974E0
5.880175060E-1,-3.304099143E-1,2.092596292E0,9.555550575E0
5.900175390E-1,-3.687183261E-1,2.075836182E0,9.541185379E0
5.920175720E-1,-3.998439014E-1,2.063864946E0,9.500482559E0
5.940176050E-1,-3.926610649E-1,2.056682110E0,9.443019867E0
5.960176380E-1,-3.639297783E-1,2.044710636E0,9.373585701E0
5.980176710E-1,-3.375927508E-1,2.030344963E0,9.328094482E0
6.000177040E-1,-3.447755575E-1,2.018373728E0,9.311334610E0
6.020186040E-1,-3.663240373E-1,2.011190891E0,9.308940887E0
6.040194040E-1,-3.830839694E-1,2.004008055E0,9.308940887E0
6.060194040E-1,-3.926610649E-1,2.006402254E0,9.306546211E0
6.080194040E-1,-3.878725171E-1,2.015979290E0,9.301757812E0
6.100194040E-1,-3.878725171E-1,2.020767927E0,9.294574738E0
6.120194040E-1,-4.429408312E-1,2.025556564E0,9.287391663E0
6.140194040E-1,-4.932205975E-1,2.027950764E0,9.287391663E0
6.160194040E-1,-4.549122155E-1,2.025556564E0,9.289786339E0
6.180198040E-1,-3.830839694E-1,2.018373728E0,9.301757812E0
6.200197700E-1,-5.435003638E-1,2.027950764E0,9.524425507E0
6.220188700E-1,-5.435003638E-1,2.027950764E0,9.524425507E0
6.240181030E-1,-5.435003638E-1,2.027950764E0,9.524425507E0
6.260180690E-1,-5.770202279E-1,2.037527800E0,9.565128326E0
6.280180350E-1,-6.033572555E-1,2.083019018E0,9.605830193E0
6.300180010E-1,-5.842030644E-1,2.147664547E0,9.562733650E0
6.320179670E-1,-5.387118459E-1,2.214704275E0,9.462174416E0
6.340179670E-1,-5.004034638E-1,2.262589693E0,9.359220505E0
6.360179670E-1,-4.788549542E-1,2.260195494E0,9.287391663E0
6.380180000E-1,-4.525179267E-1,2.221887112E0,9.256266594E0
6.400180330E-1,-4.285751879E-1,2.164424419E0,9.234718323E0
6.420189330E-1,-3.998439014E-1,2.097384691E0,9.196409225E0
6.440196990E-1,-3.591412306E-1,2.027950764E0,9.150918007E0
6.460193650E-1,-3.256213665E-1,1.960911036E0,9.100638390E0
6.480193980E-1,-3.088614643E-1,1.901054144E0,9.040781975E0
6.500193980E-1,-3.663240373E-1,1.881899953E0,8.980924606E0
6.520193640E-1,-4.189980924E-1,1.860351562E0,8.923461914E0
6.540193300E-1,-3.639297783E-1,1.810071707E0,8.897125244E0
6.560192960E-1,-3.064671755E-1,1.766974807E0,8.904308319E0
6.580192620E-1,-3.447755575E-1,1.740637779E0,8.954587936E0
6.600192280E-1,-2.274561077E-1,1.755003452E0,9.040781975E0
6.620183280E-1,-2.154847383E-1,1.757397652E0,9.040781975E0
6.640175610E-1,-2.154847383E-1,1.757397652E0,9.040781975E0
6.660171610E-1,-2.059076279E-1,1.762186289E0,9.028810501E0
6.680171940E-1,-2.250618339E-1,1.735849261E0,8.992896080E0
6.700172270E-1,-2.825244367E-1,1.714300752E0,8.956981659E0
6.720172600E-1,-3.016786277E-1,1.774157643E0,8.897125244E0
6.740172930E-1,-2.657645047E-1,1.884294271E0,8.808537483E0
6.760173260E-1,-2.106961906E-1,2.008796453E0,8.719948769E0
6.780173590E-1,-1.795706153E-1,2.133298874E0,8.667274475E0
6.800173920E-1,-1.915419847E-1,2.229069948E0,8.667274475E0
6.820182920E-1,-2.322446555E-1,2.296109438E0,8.672063828E0
6.840190250E-1,-2.729473412E-1,2.332023621E0,8.650514603E0
6.860190250E-1,-2.944957912E-1,2.336812258E0,8.612206459E0
6.880190250E-1,-3.040728867E-1,2.317657948E0,8.576292038E0
6.900190250E-1,-2.921015322E-1,2.288926601E0,8.540378571E0
6.920190250E-1,-2.633702159E-1,2.260195494E0,8.516435623E0
6.940190250E-1,-2.346389294E-1,2.219492674E0,8.518829346E0
6.960190250E-1,-2.130904645E-1,2.154847383E0,8.545166969E0
6.980189910E-1,-1.963305324E-1,2.092596292E0,8.588263512E0
7.000189570E-1,-1.436564885E-2,2.030344963E0,8.834874153E0
7.020180570E-1,-1.436564885E-2,2.030344963E0,8.834874153E0
7.040172900E-1,2.633702382E-2,2.032739401E0,8.882759094E0
7.060172560E-1,5.985686928E-2,2.037527800E0,8.930644989E0
7.080172220E-1,1.101366431E-1,2.075836182E0,9.019232750E0
7.100171880E-1,1.340793967E-1,2.133298874E0,9.105426788E0
7.120171880E-1,1.675992310E-1,2.197944164E0,9.191620827E0
7.140171880E-1,1.867534369E-1,2.224281311E0,9.232323647E0
7.160172210E-1,2.130904645E-1,2.272166729E0,9.292180061E0
7.180172540E-1,2.154847383E-1,2.320052385E0,9.318517685E0
7.200172870E-1,1.915419847E-1,2.363149166E0,9.323306084E0
7.220181870E-1,1.484450400E-1,2.391880512E0,9.325700760E0
7.240189530E-1,8.858817071E-2,2.399063349E0,9.311334610E0
7.260193860E-1,3.830839694E-2,2.375120640E0,9.261054993E0
7.280190520E-1,-4.788549617E-3,2.286532402E0,9.217958450E0
7.300181180E-1,4.788549617E-3,2.286532402E0,9.217958450E0
7.320180840E-1,2.394274808E-3,2.310475111E0,9.189227104E0
7.340180500E-1,-6.464541703E-2,2.327235222E0,9.129369736E0
7.360180160E-1,-1.436564922E-1,2.324840784E0,9.064723969E0
7.380179820E-1,-2.035133541E-1,2.312869549E0,9.024022102E0
7.400179480E-1,-3.016786277E-1,2.231464148E0,8.973741531E0
7.420170480E-1,-3.016786277E-1,2.231464148E0,8.973741531E0
7.440163140E-1,-3.016786277E-1,2.231464148E0,8.973741531E0
7.460159800E-1,-3.256213665E-1,2.219492674E0,8.966559410E0
7.480160130E-1,-3.663240373E-1,2.202732801E0,8.976136208E0
7.500160460E-1,-3.998439014E-1,2.193155766E0,9.007262230E0
7.520160790E-1,-4.429408312E-1,2.166818619E0,9.040781975E0
7.540161120E-1,-4.501236677E-1,2.145270348E0,9.071907043E0
7.560161450E-1,-4.357580245E-1,2.142875910E0,9.103033066E0
7.580161780E-1,-4.453351200E-1,2.130904675E0,9.126976013E0
7.600162110E-1,-4.573064744E-1,2.111750364E0,9.162889481E0
7.620170770E-1,-4.620950520E-1,2.073441982E0,9.217958450E0
7.640178100E-1,-4.477293789E-1,2.039922237E0,9.289786339E0
7.660178100E-1,-4.022381604E-1,2.013585091E0,9.344854355E0
7.680178100E-1,-3.423812985E-1,1.984853864E0,9.390345573E0
7.700178100E-1,-2.609759569E-1,1.963305354E0,9.421471596E0
7.720178100E-1,-1.652049571E-1,1.951334000E0,9.421471596E0
7.740178100E-1,-7.182824612E-2,1.934574008E0,9.404711723E0
7.760180430E-1,4.788549617E-3,1.915419817E0,9.385557175E0
7.780180090E-1,5.985686928E-2,1.896265626E0,9.373585701E0
7.800179750E-1,2.298503816E-1,1.814860344E0,9.330489159E0
7.820170750E-1,2.298503816E-1,1.814860344E0,9.330489159E0
7.840163080E-1,2.298503816E-1,1.814860344E0,9.330489159E0
7.860165410E-1,2.585816681E-1,1.810071707E0,9.323306084E0
7.880168410E-1,3.256213665E-1,1.805283189E0,9.316123009E0
7.900177410E-1,3.998439014E-1,1.810071707E0,9.292180061E0
7.920173070E-1,4.477293789E-1,1.810071707E0,9.256266594E0
7.940173400E-1,4.788549542E-1,1.798100352E0,9.220352173E0
7.960173730E-1,5.123748183E-1,1.790917516E0,9.165284157E0
7.980174060E-1,5.482889414E-1,1.788523316E0,9.083878517E0
8.000174390E-1,5.458946824E-1,1.795706153E0,9.002472878E0
8.020183390E-1,4.980091453E-1,1.817254543E0,8.925856590E0
8.040191050E-1,4.142095447E-1,1.848380208E0,8.844450951E0
8.060194710E-1,2.921015322E-1,1.889082789E0,8.758256912E0
8.080194710E-1,1.532335877E-1,1.924996972E0,8.657697678E0
8.100194370E-1,-2.394274808E-2,1.951334000E0,8.595446587E0
8.120194030E-1,-3.878725171E-1,1.944151163E0,8.657697678E0
8.140193690E-1,-6.799740195E-1,1.946545362E0,8.700794220E0
8.160193350E-1,-7.805336118E-1,2.001613855E0,8.667274475E0
8.180193010E-1,-7.853221297E-1,2.078230619E0,8.593051910E0
8.200192670E-1,1.005595401E-1,1.929785490E0,9.222746849E0
8.220184000E-1,1.005595401E-1,1.929785490E0,9.222746849E0
8.240177000E-1,1.005595401E-1,1.929785490E0,9.222746849E0
8.260177330E-1,8.140534163E-2,1.927391171E0,9.239506721E0
8.280177660E-1,8.379961550E-2,1.963305354E0,9.129369736E0
8.300177990E-1,1.388679445E-1,1.994430900E0,9.062330246E0
8.320178320E-1,2.490045726E-1,2.025556564E0,9.126976013E0
8.340178650E-1,1.867534369E-1,2.018373728E0,9.325700760E0
8.387569920E-1,-1.699935049E-1,1.939362645E0,9.751881599E0
8.407570250E-1,-6.488484740E-1,1.817254543E0,1.025707340E1
8.427570250E-1,-9.098244309E-1,1.752609134E0,1.050607777E1
8.447578910E-1,-8.906702399E-1,1.805283189E0,1.054678059E1
8.467586240E-1,-7.302538157E-1,1.891477108E0,1.052283764E1
8.487583570E-1,-5.746259689E-1,1.975276709E0,1.057551193E1
8.507583570E-1,-4.812492430E-1,2.054287672E0,1.072635078E1
8.527583570E-1,-4.285751879E-1,2.116539001E0,1.090113354E1
8.547587900E-1,-3.902668059E-1,2.154847383E0,1.103760719E1
8.567587560E-1,-3.687183261E-1,2.174001455E0,1.109985828E1
8.587587220E-1,-3.567469418E-1,2.174001455E0,1.110464668E1
8.607586880E-1,-3.687183261E-1,2.171607256E0,1.105676079E1
8.627586540E-1,-4.836435020E-1,2.171607256E0,1.070240879E1
8.647577540E-1,-4.860377908E-1,2.174001455E0,1.061621475E1
8.667569870E-1,-4.860377908E-1,2.174001455E0,1.061621475E1
8.687566200E-1,-4.860377908E-1,2.181184292E0,1.052283764E1
8.707565860E-1,-4.836435020E-1,2.200338602E0,1.033129597E1
8.727565860E-1,-4.932205975E-1,2.219492674E0,1.016369629E1
8.747566190E-1,-5.291347504E-1,2.248224020E0,9.993702888E0
8.767566520E-1,-5.435003638E-1,2.298503876E0,9.797372818E0
8.787566850E-1,-5.267404318E-1,2.343995094E0,9.586676598E0
8.807567180E-1,-5.482889414E-1,2.379909277E0,9.416683197E0
8.827567510E-1,-6.416656375E-1,2.434977531E0,9.500482559E0
8.847576510E-1,-8.188419938E-1,2.485257149E0,9.771035194E0
8.867583840E-1,-1.041509509E0,2.511594296E0,9.766246796E0
8.887583840E-1,-1.189954638E0,2.554691315E0,9.591464996E0
8.907583500E-1,-1.154040456E0,2.604970932E0,9.505270958E0
8.927583160E-1,-1.070240855E0,2.619336605E0,9.483722687E0
8.947582820E-1,-1.079817891E0,2.621730804E0,9.392740250E0
8.967582480E-1,-1.113337755E0,2.621730804E0,9.196409225E0
8.987582140E-1,-1.189954638E0,2.607365370E0,8.863605499E0
9.007581800E-1,-1.242628574E0,2.578634024E0,8.506858826E0
9.027581800E-1,-6.943396926E-1,2.485257149E0,8.102226257E0
9.047573460E-1,-6.943396926E-1,2.485257149E0,8.102226257E0
9.067566460E-1,-4.189980924E-1,2.466103077E0,8.145322800E0
9.087562460E-1,6.703969836E-2,2.451737404E0,8.303344727E0
9.107562790E-1,1.235445857E0,2.408640385E0,8.815719604E0
9.127563120E-1,1.604164124E0,2.329629421E0,9.196409225E0
9.147563450E-1,1.261782765E0,2.245829821E0,9.354432106E0
9.167563780E-1,8.786988258E-1,2.183578730E0,9.383162498E0
9.187564110E-1,6.368771195E-1,2.154847383E0,9.306546211E0
9.207564110E-1,1.125309169E-1,2.102173328E0,9.359220505E0
9.227564110E-1,-2.633702382E-2,2.111750364E0,9.493299484E0
9.247572770E-1,2.777358890E-1,2.181184292E0,9.383162498E0
9.267580100E-1,4.740664065E-1,2.231464148E0,9.191620827E0
9.287583430E-1,7.709565163E-1,2.360754967E0,8.753468513E0
9.307583430E-1,9.170072675E-1,2.516382933E0,8.461367607E0
9.327583430E-1,9.457385540E-1,2.626519442E0,8.277008057E0
9.347583090E-1,8.858816624E-1,2.669616461E0,8.087860107E0
9.367582750E-1,7.877163887E-1,2.715107679E0,7.886741161E0
9.387583080E-1,6.703969240E-1,2.863552570E0,7.597033978E0
9.407582740E-1,6.608198285E-1,2.918621063E0,7.508445740E0
9.427582400E-1,5.339232683E-1,3.239453793E0,7.130150318E0
9.447573400E-1,5.339232683E-1,3.239453793E0,7.130150318E0
9.467565730E-1,5.339232683E-1,3.239453793E0,7.130150318E0
9.487565390E-1,5.291347504E-1,3.277762175E0,7.099024773E0
9.507565390E-1,5.363175869E-1,3.344801903E0,7.046350956E0
9.527565720E-1,5.219519138E-1,3.409447432E0,7.017619610E0
9.547566050E-1,5.291347504E-1,3.471698523E0,6.952973843E0
9.567566380E-1,6.751855016E-1,3.569863796E0,6.703969479E0
9.587566710E-1,8.499675393E-1,3.656057596E0,6.296942711E0
9.607567040E-1,7.518022656E-1,3.632114887E0,6.313702583E0
9.627567370E-1,3.328042030E-1,3.529160976E0,7.010436535E0
9.647576030E-1,-8.858817071E-2,3.466909885E0,7.738296032E0
9.667583360E-1,-2.226675600E-1,3.476486921E0,7.992089272E0
9.687587360E-1,-1.173194647E-1,3.502824068E0,7.963357925E0
9.707587020E-1,-4.788549617E-3,3.517189741E0,8.006455421E0
9.727586680E-1,3.351984918E-2,3.533949614E0,8.176448822E0
9.747586340E-1,4.309694469E-2,3.529160976E0,8.360807419E0
9.767586000E-1,3.112557158E-2,3.500429869E0,8.487704277E0
9.787585660E-1,2.154847234E-2,3.474092722E0,8.549955368E0
9.807585660E-1,-7.182824425E-3,3.450150013E0,8.578686714E0
9.827585990E-1,-2.394274771E-1,3.241847992E0,8.298556328E0
9.847577650E-1,-2.394274771E-1,3.241847992E0,8.298556328E0
9.867568980E-1,-2.394274771E-1,3.241847992E0,8.298556328E0
9.887572310E-1,-3.184385598E-1,3.222693920E0,8.243488312E0
9.907572640E-1,-5.387118459E-1,3.193962574E0,8.109408379E0
9.927572970E-1,-7.829278708E-1,3.153259993E0,7.944203854E0
9.947573300E-1,-9.768640995E-1,3.107768774E0,7.774210453E0
9.967573630E-1,-1.075029373E0,3.071854591E0,7.668862343E0
9.987572960E-1,-1.098972082E0,3.050306082E0,7.652102470E0
1.000757296E0,-1.122914910E0,3.038334846E0,7.659285069E0
1.002757296E0,-1.266571403E0,3.004814863E0,7.585062504E0
1.004758162E0,-1.652049661E0,2.911438227E0,7.288172722E0
1.006758895E0,-2.006402254E0,2.796513081E0,6.943397045E0
1.008758895E0,-2.102173328E0,2.698347807E0,6.804529190E0
1.010758895E0,-1.982459545E0,2.621730804E0,6.890722752E0
1.012758861E0,-1.745426297E0,2.571451187E0,7.132544518E0
1.014758827E0,-1.460507631E0,2.535537004E0,7.439012051E0
1.016758793E0,-1.166011810E0,2.478074312E0,7.750267506E0
1.018758759E0,-9.026415944E-1,2.403851986E0,8.047157288E0
1.020758725E0,-7.039167881E-1,2.336812258E0,8.332076073E0
1.022758691E0,-2.801301479E-1,2.116539001E0,9.057541847E0
1.024757791E0,-2.801301479E-1,2.116539001E0,9.057541847E0
1.026757024E0,-2.801301479E-1,2.116539001E0,9.057541847E0
1.028757024E0,-2.178790122E-1,2.102173328E0,9.105426788E0
1.030757057E0,-9.337671846E-2,2.085413456E0,9.167677879E0
1.032757090E0,3.591412306E-2,2.102173328E0,9.208380699E0
1.034757123E0,1.867534369E-1,2.126116037E0,9.258660316E0
1.036757156E0,4.213923812E-1,2.111750364E0,9.330489159E0
1.038757189E0,4.453351200E-1,2.118933201E0,9.411893845E0
1.040757222E0,2.609759569E-1,2.164424419E0,9.435836792E0
1.042757222E0,1.197137386E-1,2.231464148E0,9.373585701E0
1.044758088E0,8.619388938E-2,2.315263748E0,9.347249031E0
1.046758954E0,7.901106775E-2,2.382303476E0,9.390345573E0
1.048758620E0,1.316851079E-1,2.461314440E0,9.464568138E0
1.050758586E0,6.033572555E-1,2.688770533E0,9.742303848E0
1.052758552E0,1.182771802E0,2.990449190E0,1.003201103E1
1.054758518E0,1.113337755E0,3.064671755E0,9.938634872E0
1.056758484E0,6.727912426E-1,2.976083517E0,9.565128326E0
1.058758484E0,3.950553536E-1,2.928198099E0,9.220352173E0
1.060758484E0,4.022381604E-1,2.995237827E0,9.086273193E0
1.062758484E0,3.419024467E0,4.357580185E0,1.061142635E1
1.064757617E0,3.419024467E0,4.357580185E0,1.061142635E1
1.066756883E0,3.419024467E0,4.357580185E0,1.061142635E1
1.068757116E0,3.395081758E0,4.395888329E0,1.057790565E1
1.070757116E0,3.038334846E0,4.376734257E0,1.031214142E1
1.072757116E0,2.633702278E0,4.290540695E0,9.941028595E0
1.074757116E0,2.389486313E0,4.175615311E0,9.624984741E0
1.076757149E0,2.248224020E0,4.089421272E0,9.486116409E0
1.078757182E0,2.111750364E0,4.008016109E0,9.421471596E0
1.080757215E0,2.008796453E0,3.940976381E0,9.354432106E0
1.082756915E0,1.965699673E0,3.883513689E0,9.296969414E0
1.084757815E0,1.941756845E0,3.823656797E0,9.249083519E0
1.086758581E0,1.903448462E0,3.744645834E0,9.170072556E0
1.088758614E0,1.845985889E0,3.663240433E0,9.107821465E0
1.090758614E0,1.735849261E0,3.565075159E0,9.059935570E0
1.092758580E0,1.568249941E0,3.457332850E0,9.021627426E0
1.094758546E0,1.415016413E0,3.392687321E0,9.016839027E0
1.096758512E0,1.288119793E0,3.349590540E0,8.983319283E0
1.098758478E0,1.130097747E0,3.280156374E0,8.894730568E0
1.100758444E0,9.864411950E-1,3.217905283E0,8.794171333E0
1.102758410E0,7.541965842E-1,3.138894320E0,8.573898315E0
1.104757510E0,7.470137477E-1,3.153259993E0,8.549955368E0
1.106756776E0,7.470137477E-1,3.153259993E0,8.549955368E0
1.108756809E0,7.470137477E-1,3.162837029E0,8.521224022E0
1.110756842E0,7.374366522E-1,3.167625666E0,8.470944405E0
1.112756875E0,7.278595567E-1,3.177202702E0,8.432636261E0
1.114756908E0,7.039167881E-1,3.170019865E0,8.375173569E0
1.116756941E0,6.536370516E-1,3.143682718E0,8.312922478E0
1.118756974E0,6.392713785E-1,3.122134447E0,8.291373253E0
1.120757007E0,6.775797606E-1,3.095797300E0,8.310527802E0
1.122757040E0,7.470137477E-1,3.067065954E0,8.360807419E0
1.124757906E0,8.332076073E-1,3.074248791E0,8.451789856E0
1.126758639E0,9.529213905E-1,3.105374336E0,8.480521202E0
1.128758405E0,1.058269501E0,3.110162973E0,8.451789856E0
1.130758405E0,1.108549237E0,3.050306082E0,8.437424660E0
1.132758405E0,1.177983165E0,3.023969173E0,8.473338127E0
1.134758405E0,1.312062621E0,3.112557173E0,8.485309601E0
1.136758371E0,1.477267504E0,3.232270956E0,8.485309601E0
1.138758337E0,1.561067224E0,3.280156374E0,8.502069473E0
1.140758303E0,1.673598051E0,3.328042030E0,8.564320564E0
1.142758603E0,1.628106833E0,3.160442829E0,8.968953133E0
1.144757703E0,1.628106833E0,3.160442829E0,8.968953133E0
1.146756936E0,1.625712633E0,3.136499882E0,9.050358772E0
1.148756902E0,1.625712633E0,3.136499882E0,9.050358772E0
1.150756868E0,1.642472506E0,3.093403101E0,9.203592300E0
1.152756868E0,1.687963724E0,3.045517445E0,9.289786339E0
1.154756901E0,1.762186289E0,3.007209063E0,9.273026466E0
1.156756934E0,1.805283189E0,2.952140808E0,9.217958450E0
1.158756967E0,1.805283189E0,2.882706881E0,9.160495758E0
1.160757000E0,1.788523316E0,2.827638626E0,9.002472878E0
1.162757033E0,1.692752242E0,2.767781734E0,8.887548447E0
1.164757933E0,1.510787368E0,2.695953369E0,8.880365372E0
1.166758699E0,1.316851139E0,2.595393896E0,8.906702042E0
1.168758699E0,1.185166001E0,2.470891714E0,8.928250313E0
1.170758665E0,1.065452337E0,2.365543604E0,8.952193260E0
1.172758631E0,9.601042271E-1,2.276955366E0,8.945011139E0
1.174758597E0,8.451790214E-1,2.183578730E0,8.868393898E0
1.176758563E0,6.249057055E-1,2.090201855E0,8.696005821E0
1.178758529E0,3.112557232E-1,1.994430900E0,8.482915878E0
1.180758495E0,5.027977005E-2,1.896265626E0,8.308133125E0
1.182758461E0,-4.932205975E-1,1.376708031E0,8.130957603E0
1.184757594E0,-4.932205975E-1,1.376708031E0,8.130957603E0
1.186756894E0,-4.932205975E-1,1.376708031E0,8.130957603E0
1.188757927E0,-6.296942830E-1,1.331216812E0,8.181237221E0
1.190757960E0,-8.763045669E-1,1.278542757E0,8.190814018E0
1.192757993E0,-1.072635174E0,1.204320192E0,8.138139725E0
1.194758026E0,-1.134886265E0,1.158828974E0,8.209968567E0
1.196758059E0,-1.070240855E0,1.185166001E0,8.312922478E0
1.198758092E0,-9.864411950E-1,1.235445857E0,8.358413696E0
1.200758125E0,-9.744698405E-1,1.295302629E0,8.391933441E0
1.202758125E0,-1.029538155E0,1.383890867E0,8.439818382E0
1.204758991E0,-1.182771802E0,1.486844659E0,8.458972931E0
1.206759724E0,-1.400650740E0,1.589798450E0,8.439818382E0
1.208759724E0,-1.582615614E0,1.697540879E0,8.444606781E0
1.210759724E0,-1.903448462E0,1.755003452E0,8.399115562E0
1.212759724E0,-2.181184292E0,1.762186289E0,8.288979530E0
1.214759690E0,-2.128510237E0,1.750214934E0,8.317710876E0
1.216759656E0,-1.831620216E0,1.762186289E0,8.559532166E0
1.218759622E0,-1.412622094E0,1.788523316E0,8.863605499E0
1.220759588E0,-9.457385540E-1,1.826831698E0,9.098244667E0
1.222759554E0,2.633702159E-1,1.963305354E0,9.397528648E0
1.224758654E0,2.633702159E-1,1.963305354E0,9.397528648E0
1.226757887E0,2.633702159E-1,1.963305354E0,9.397528648E0
1.228757853E0,3.495641351E-1,1.975276709E0,9.366402626E0
1.230757853E0,4.668835998E-1,2.004008055E0,9.294574738E0
1.232757886E0,5.530774593E-1,2.042316437E0,9.237112045E0
1.234757919E0,6.488484740E-1,2.104567528E0,9.162889481E0
1.236757952E0,1.067846537E0,2.276955366E0,9.141341209E0
1.238757985E0,2.573845387E0,2.724684715E0,9.560338974E0
1.240758018E0,3.356773376E0,3.057488918E0,9.885960579E0
1.242758051E0,3.433390141E0,3.181991339E0,9.534002304E0
1.244758951E0,3.699154615E0,3.158048391E0,8.808537483E0
1.246759684E0,3.701548815E0,3.134105682E0,8.253065109E0
1.248758650E0,3.148471355E0,3.217905283E0,7.836461544E0
1.250758616E0,2.487651587E0,3.342407703E0,7.209161282E0
1.252758582E0,1.740637779E0,3.438178539E0,6.866780281E0
1.254758548E0,8.906702399E-1,3.442967176E0,7.075081825E0
1.256758514E0,1.604164094E-1,3.340013266E0,7.415069103E0
1.258758480E0,-3.351984620E-1,3.172414064E0,7.723930359E0
1.260758446E0,-6.632141471E-1,2.949746609E0,8.032792091E0
1.262758446E0,7.182824612E-2,2.130904675E0,8.684034348E0
1.264757612E0,7.182824612E-2,2.130904675E0,8.684034348E0
1.266756912E0,7.182824612E-2,2.130904675E0,8.684034348E0
1.268756945E0,3.998439014E-1,2.061470509E0,8.856422424E0
1.270756978E0,1.019961119E0,1.956122518E0,9.225140572E0
1.272757011E0,1.517970204E0,1.872322917E0,9.555550575E0
1.274757044E0,1.860351562E0,1.795706153E0,9.797372818E0
1.276757077E0,2.020767927E0,1.723877907E0,9.964971542E0
1.278757110E0,1.999219418E0,1.661626697E0,1.012059975E1
1.280756843E0,1.865140080E0,1.618529797E0,1.029538155E1
1.282756843E0,1.687963724E0,1.589798450E0,1.045340347E1
1.284757709E0,1.515576005E0,1.587404251E0,1.060663700E1
1.286758442E0,1.393467903E0,1.601769805E0,1.076944828E1
1.288758442E0,1.417410731E0,1.611346960E0,1.095141315E1
1.290758442E0,1.762186289E0,1.537124395E0,1.111661816E1
1.292758408E0,2.248224020E0,1.355159521E0,1.126027489E1
1.294758374E0,2.128510237E0,1.324033976E0,1.133689117E1
1.296758340E0,1.671203852E0,1.496421814E0,1.127703476E1
1.298758306E0,1.268965602E0,1.759791970E0,1.115971470E1
1.300758272E0,1.077423692E0,1.965699673E0,1.113577175E1
1.302758238E0,9.217957854E-1,2.154847383E0,1.178701496E1
1.304757338E0,9.313728809E-1,2.142875910E0,1.183729458E1
1.306756571E0,9.313728809E-1,2.142875910E0,1.183729458E1
1.308756571E0,9.577099085E-1,2.121327400E0,1.184208298E1
1.310756571E0,1.051086664E0,2.059076309E0,1.175110054E1
1.312756604E0,1.185166001E0,1.977671027E0,1.159307861E1
1.314756637E0,1.309668303E0,1.893871427E0,1.138717079E1
1.316756670E0,1.393467903E0,1.802888989E0,1.115732098E1
1.318756703E0,1.467690468E0,1.675992370E0,1.091310501E1
1.320756736E0,1.831620216E0,1.364736676E0,1.066888809E1
1.322756769E0,2.291321039E0,8.882759809E-1,1.049889469E1
1.324757635E0,2.111750364E0,6.871568561E-1,1.034326744E1
1.326758335E0,1.709512234E0,7.901107073E-1,1.010862827E1
1.328758301E0,1.419804931E0,9.840469360E-1,9.859623909E0
1.330758267E0,1.268965602E0,1.132491946E0,9.703995705E0
1.332758233E0,1.180377483E0,1.225868702E0,9.737515450E0
1.334758199E0,1.082212210E0,1.314456820E0,9.900326729E0
1.336758165E0,9.888355136E-1,1.415016413E0,1.009186840E1
1.338758131E0,9.361614585E-1,1.537124395E0,1.020679379E1
1.340758397E0,9.098244309E-1,1.692752242E0,1.029059315E1
1.342758430E0,1.395862222E0,2.114144564E0,1.099211597E1
1.344757596E0,1.395862222E0,2.114144564E0,1.099211597E1
1.346756896E0,1.513181686E0,2.147664547E0,1.105436707E1
1.348756929E0,1.613741279E0,2.169213057E0,1.106394386E1
1.350756962E0,1.690358043E0,2.181184292E0,1.100887585E1
1.352756995E0,1.786128998E0,2.152452946E0,1.068804264E1
1.354757028E0,1.786128998E0,2.061470509E0,1.014214802E1
1.356757061E0,1.678386688E0,1.939362645E0,9.562733650E0
1.358757061E0,1.520364523E0,1.824437380E0,9.047964096E0
1.360757061E0,1.362342358E0,1.745426297E0,8.672063828E0
1.362757061E0,1.271359921E0,1.714300752E0,8.494887352E0
1.364757927E0,1.302485466E0,1.707117915E0,8.396721840E0
1.366758660E0,1.419804931E0,1.719089270E0,8.394327164E0
1.368758660E0,1.541913033E0,1.735849261E0,8.502069473E0
1.370758660E0,1.616135478E0,1.750214934E0,8.638543129E0
1.372758626E0,1.678386688E0,1.766974807E0,8.782199860E0
1.374758592E0,1.745426297E0,1.762186289E0,8.956981659E0
1.376758558E0,1.800494671E0,1.738243461E0,9.162889481E0
1.378758524E0,1.843591571E0,1.721483588E0,9.409500122E0
1.380758490E0,1.817254543E0,1.671203852E0,9.703995705E0
1.382758456E0,1.855562925E0,1.302485466E0,1.047495270E1
1.384757556E0,1.855562925E0,1.302485466E0,1.047495270E1
1.386756822E0,1.855562925E0,1.302485466E0,1.047495270E1
1.388756422E0,1.872322917E0,1.249811411E0,1.057790565E1
1.390756455E0,1.946545362E0,1.106154919E0,1.072156239E1
1.392756488E0,2.142875910E0,9.433442950E-1,1.084367085E1
1.394756521E0,2.363149166E0,7.829278708E-1,1.101126957E1
1.396756554E0,2.454131603E0,6.249057055E-1,1.109985828E1
1.398756587E0,2.288926601E0,5.363175869E-1,1.100648117E1
1.400756620E0,1.774157643E0,5.315290093E-1,1.074071693E1
1.402756620E0,1.005595446E0,5.435003638E-1,1.040073013E1
1.404757453E0,4.836435020E-1,5.794144869E-1,1.011820507E1
1.406758153E0,1.268965602E0,7.422251701E-1,1.014214802E1
1.408758119E0,3.842811108E0,1.075029373E0,1.082451630E1
1.410757819E0,4.261809349E0,1.087000728E0,1.127942848E1
1.412757785E0,3.100585938E0,8.691217303E-1,1.100648117E1
1.414757751E0,1.891477108E0,6.536370516E-1,1.050607777E1
1.416757717E0,1.072635174E0,4.860377908E-1,1.029059315E1
1.418757717E0,5.243461728E-1,3.328042030E-1,1.042706680E1
1.420757750E0,2.202732861E-1,1.843591630E-1,1.074550533E1
1.422757783E0,1.395862222E0,-1.819648892E-1,1.171279240E1
1.424756949E0,1.395862222E0,-1.819648892E-1,1.171279240E1
1.426756249E0,1.395862222E0,-1.819648892E-1,1.171279240E1
1.428756082E0,1.513181686E0,-1.747820675E-1,1.175588894E1
1.430756115E0,1.594586968E0,-1.771763414E-1,1.174870682E1
1.432756148E0,1.563461423E0,-2.370332032E-1,1.174631214E1
1.434756181E0,1.640078187E0,-3.687183261E-1,1.178940868E1
1.436756181E0,1.879505754E0,-5.578660369E-1,1.184687138E1
1.438756181E0,2.073441982E0,-7.781392932E-1,1.189715195E1
1.440756181E0,1.908236980E0,-8.308133483E-1,1.175588894E1
1.442756181E0,1.534730196E0,-6.871568561E-1,1.134646797E1
1.444757047E0,1.201925993E0,-4.213923812E-1,1.091071033E1
1.446757780E0,1.046298146E0,-1.292908341E-1,1.062339687E1
1.448758180E0,1.161223292E0,1.268965602E-1,1.046776962E1
1.450758146E0,1.434170604E0,3.567469418E-1,1.044382668E1
1.452758112E0,1.589798450E0,6.153286099E-1,1.047255802E1
1.454758078E0,1.611346960E0,8.571503758E-1,1.043664360E1
1.456758044E0,1.608952641E0,1.046298146E0,1.034805584E1
1.458758010E0,1.661626697E0,1.182771802E0,1.030256462E1
1.460757976E0,1.726272106E0,1.300091267E0,1.025228500E1
1.462757942E0,1.709512234E0,1.529941559E0,1.082451630E1
1.464757075E0,1.709512234E0,1.529941559E0,1.082451630E1
1.466756341E0,1.709512234E0,1.529941559E0,1.082451630E1
1.468756374E0,1.652049661E0,1.520364523E0,1.094183540E1
1.470756674E0,1.563461423E0,1.491633177E0,1.119562912E1
1.472756707E0,1.549095750E0,1.472478986E0,1.150209618E1
1.474756740E0,1.687963724E0,1.474873304E0,1.164575291E1
1.476756773E0,2.085413456E0,1.431776285E0,1.126985168E1
1.478756806E0,2.394274712E0,1.438959122E0,1.142069054E1
1.480756806E0,2.439765930E0,1.496421814E0,1.217009926E1
1.482756772E0,2.351177931E0,1.529941559E0,1.268007946E1
1.484757605E0,2.272166729E0,1.525153041E0,1.257473087E1
1.486758305E0,2.248224020E0,1.496421814E0,1.212460804E1
1.488758471E0,2.217098475E0,1.462901950E0,1.165532970E1
1.490758437E0,2.159635782E0,1.422199249E0,1.122675419E1
1.492758403E0,2.044710636E0,1.391073704E0,1.070719719E1
1.494758369E0,1.860351562E0,1.388679385E0,1.008468533E1
1.496758369E0,1.644866824E0,1.429382086E0,9.402317047E0
1.498758402E0,1.498816013E0,1.551490068E0,8.616994858E0
1.500758435E0,1.685569525E0,1.877111435E0,7.099024773E0
1.502758468E0,2.569056988E0,2.983266354E0,3.275367975E0
1.504757634E0,2.245829821E0,2.868341208E0,3.835628271E0
1.506756934E0,2.245829821E0,2.868341208E0,3.835628271E0
1.508756967E0,1.946545362E0,2.767781734E0,4.261809349E0
1.510757000E0,1.582615614E0,2.640885115E0,4.187586784E0
1.512757033E0,1.632895470E0,2.616942406E0,2.185972929E0
1.514757033E0,1.656838179E0,2.557085514E0,4.620950520E-1
1.516757033E0,1.513181686E0,2.439765930E0,3.974496126E-1
1.518757033E0,1.381496549E0,2.300898075E0,1.256994247E0
1.520757033E0,1.300091267E0,2.140481710E0,2.212309837E0
1.522757033E0,1.254600048E0,1.965699673E0,2.796513081E0
1.524757899E0,1.242628574E0,1.776551962E0,3.052700281E0
1.526758632E0,1.288119793E0,1.558672905E0,3.162837029E0
1.528758598E0,1.383890867E0,1.331216812E0,3.289733648E0
1.530758564E0,1.465296149E0,1.154040456E0,3.646480560E0
1.532758530E0,1.467690468E0,1.034326673E0,4.314483166E0
1.534758496E0,1.484450340E0,9.385557175E-1,5.092622280E0
1.536758462E0,1.644866824E0,1.027143836E0,5.571477413E0
1.538758028E0,1.999219418E0,1.403045058E0,5.181210518E0
1.540757994E0,2.236252785E0,1.479661822E0,4.874743462E0
1.542757994E0,1.687963724E0,5.411061049E-1,6.639324188E0
1.544757127E0,1.687963724E0,5.411061049E-1,6.639324188E0
1.546756427E0,1.585009933E0,3.974496126E-1,6.917059898E0
1.548756460E0,1.489238977E0,2.585816681E-1,7.134938717E0
1.550756493E0,1.319245458E0,-2.394274808E-3,7.364789486E0
1.552756526E0,1.182771802E0,-2.609759569E-1,7.520417213E0
1.554756559E0,1.041509509E0,-5.123748183E-1,7.802941799E0
1.556756592E0,8.499675393E-1,-7.374366522E-1,8.054340363E0
1.558756592E0,6.225114465E-1,-9.217957854E-1,8.291373253E0
1.560756592E0,3.902668059E-1,-1.079817891E0,8.514040947E0
1.562756558E0,2.825244367E-1,-1.142069101E0,8.631361008E0
1.564757391E0,9.577099234E-2,-1.242628574E0,8.923461914E0
1.566758091E0,-5.027977005E-2,-1.321639657E0,9.229928970E0
1.568758057E0,-1.556278616E-1,-1.381496549E0,9.581888199E0
1.570758023E0,-2.106961906E-1,-1.426987767E0,9.969759941E0
1.572757989E0,-2.250618339E-1,-1.470084786E0,1.043185520E1
1.574757989E0,-2.226675600E-1,-1.546701550E0,1.109267521E1
1.576758022E0,-2.059076279E-1,-1.640078187E0,1.196179676E1
1.578758055E0,-6.464541703E-2,-1.625712633E0,1.250290298E1
1.580758088E0,2.466102988E-1,-1.470084786E0,1.236642933E1
1.582758121E0,1.652049661E0,-5.865973234E-1,1.111901188E1
1.584757287E0,1.652049661E0,-5.865973234E-1,1.111901188E1
1.586756587E0,1.652049661E0,-5.865973234E-1,1.111901188E1
1.588756620E0,1.867534399E0,-4.070267081E-1,1.096577835E1
1.590756653E0,2.339206457E0,-9.577099234E-3,1.062339687E1
1.592756653E0,2.825244188E0,3.950553536E-1,1.024270725E1
1.594756653E0,3.301704884E0,7.829278708E-1,9.859623909E0
1.596756653E0,3.763799906E0,1.125309110E0,9.483722687E0
1.598757053E0,4.166038036E0,1.405439258E0,9.148524284E0
1.600757653E0,4.494053841E0,1.611346960E0,8.906702042E0
1.602757653E0,4.745452881E0,1.740637779E0,8.763046265E0
1.604758519E0,4.927417755E0,1.814860344E0,8.696005821E0
1.606759219E0,5.056708336E0,1.850774407E0,8.734314919E0
1.608759185E0,5.162056446E0,1.860351562E0,8.858817101E0
1.610758751E0,5.238673210E0,1.841197371E0,9.002472878E0
1.612758717E0,5.296135902E0,1.810071707E0,9.170072556E0
1.614758683E0,5.346415520E0,1.778946161E0,9.344854355E0
1.616758649E0,5.379935265E0,1.738243461E0,9.495694160E0
1.618758615E0,5.396695614E0,1.695146561E0,9.605830193E0
1.620758581E0,5.382329941E0,1.632895470E0,9.684841156E0
1.622758581E0,5.138113976E0,1.388679385E0,9.708784103E0
1.624757747E0,5.138113976E0,1.388679385E0,9.708784103E0
1.626757047E0,5.138113976E0,1.388679385E0,9.708784103E0
1.628757313E0,5.071074009E0,1.350371003E0,9.672870636E0
1.630757346E0,4.905869007E0,1.259388566E0,9.557945251E0
1.632757379E0,4.678412914E0,1.139674783E0,9.411893845E0
1.634757412E0,4.400677204E0,1.003201127E0,9.275420189E0
1.636757412E0,4.082238674E0,8.595446348E-1,9.162889481E0
1.638757412E0,3.742251635E0,7.063110471E-1,9.083878517E0
1.640757378E0,3.399870157E0,5.578660369E-1,9.028810501E0
1.642757344E0,3.074248791E0,4.333637357E-1,8.990502357E0
1.644758177E0,2.782147408E0,3.328042030E-1,8.954587936E0
1.646758877E0,2.521171331E0,2.681587934E-1,8.901913643E0
1.648758843E0,2.300898075E0,2.394274771E-1,8.825297356E0
1.650758809E0,2.118933201E0,2.322446555E-1,8.736708641E0
1.652758809E0,1.963305354E0,2.394274771E-1,8.650514603E0
1.654758809E0,1.836408734E0,2.633702159E-1,8.549955368E0
1.656758809E0,1.733454943E0,2.968900800E-1,8.447001457E0
1.658758409E0,1.652049661E0,3.232271075E-1,8.346442223E0
1.660757809E0,1.580221415E0,3.519583941E-1,8.269824982E0
1.662757809E0,1.486844659E0,4.142095447E-1,8.286584854E0
1.664756942E0,1.486844659E0,4.142095447E-1,8.286584854E0
1.666756208E0,1.486844659E0,4.142095447E-1,8.286584854E0
1.668756208E0,1.510787368E0,4.237866402E-1,8.317710876E0
1.670756641E0,1.596981287E0,4.477293789E-1,8.389538765E0
1.672756674E0,1.716695070E0,4.812492430E-1,8.449396133E0
1.674756307E0,1.874717116E0,5.291347504E-1,8.494887352E0
1.676756340E0,2.049499273E0,5.889915824E-1,8.537983894E0
1.678756373E0,2.212309837E0,6.392713785E-1,8.576292038E0
1.680756406E0,2.370332003E0,6.799740195E-1,8.609811783E0
1.682756439E0,2.511594296E0,7.110996246E-1,8.650514603E0
1.684757305E0,2.609759569E0,7.230709791E-1,8.686429024E0
1.686758005E0,2.672010660E0,7.206767201E-1,8.712765694E0
1.688757738E0,2.710319042E0,7.039167881E-1,8.731920242E0
1.690757704E0,2.741444588E0,6.823683381E-1,8.755863190E0
1.692757670E0,2.762993097E0,6.536370516E-1,8.794171333E0
1.694757636E0,2.777358770E0,6.177229285E-1,8.865999222E0
1.696757602E0,2.779752970E0,5.818088055E-1,8.959376335E0
1.698757568E0,2.789330244E0,5.363175869E-1,9.052753448E0
1.700757568E0,2.820455790E0,5.004034638E-1,9.136552811E0
1.702757601E0,3.033546209E0,4.668835998E-1,9.306546211E0
1.704756767E0,3.091008663E0,4.692778587E-1,9.318517685E0
1.706756067E0,3.091008663E0,4.692778587E-1,9.318517685E0
1.708756100E0,3.148471355E0,4.764606953E-1,9.325700760E0
1.710756133E0,3.275367975E0,5.004034638E-1,9.330489159E0
1.712756166E0,3.409447432E0,5.387118459E-1,9.335277557E0
1.714756199E0,3.548315287E0,5.818088055E-1,9.352037430E0
1.716756232E0,3.675211906E0,6.081457734E-1,9.368797302E0
1.718756632E0,3.799714088E0,6.153286099E-1,9.385557175E0
1.720756632E0,3.921822071E0,6.009629965E-1,9.383162498E0
1.722756632E0,4.043930054E0,5.674431324E-1,9.366402626E0
1.724757498E0,4.154066563E0,5.219519138E-1,9.352037430E0
1.726758231E0,4.254626274E0,4.668835998E-1,9.344854355E0
1.728758231E0,4.338426113E0,4.046324492E-1,9.349642754E0
1.730758197E0,4.405465603E0,3.495641351E-1,9.349642754E0
1.732758163E0,4.465322495E0,2.968900800E-1,9.330489159E0
1.734758529E0,4.532361984E0,2.513988614E-1,9.289786339E0
1.736758495E0,4.587430477E0,2.226675600E-1,9.246688843E0
1.738758461E0,4.637710094E0,2.083019018E-1,9.198803902E0
1.740758427E0,4.668835640E0,2.059076279E-1,9.134158134E0
1.742758393E0,4.656864643E0,2.418217510E-1,8.933039665E0
1.744757493E0,4.630527496E0,2.490045726E-1,8.901913643E0
1.746756759E0,4.630527496E0,2.490045726E-1,8.901913643E0
1.748757059E0,4.594613552E0,2.537931204E-1,8.870788574E0
1.750757092E0,4.513207912E0,2.490045726E-1,8.810931206E0
1.752757125E0,4.400677204E0,2.394274771E-1,8.751074791E0
1.754757158E0,4.259414673E0,2.178790122E-1,8.681640625E0
1.756757191E0,4.084632874E0,2.011190802E-1,8.614601135E0
1.758757224E0,3.881119490E0,1.819648892E-1,8.530800819E0
1.760757257E0,3.651269197E0,1.484450400E-1,8.423058510E0
1.762757257E0,3.390293121E0,1.053480953E-1,8.312922478E0
1.764758090E0,3.102980137E0,5.985686928E-2,8.205180168E0
1.766758790E0,2.801301479E0,1.915419847E-2,8.114197731E0
1.768758756E0,2.492439985E0,-2.394274808E-2,8.054340363E0
1.770758722E0,2.190761566E0,-6.464541703E-2,8.008849144E0
1.772758688E0,2.047105074E0,-8.140534163E-2,7.989695072E0
1.774758688E0,1.778946161E0,-1.221080124E-1,7.953781128E0
1.776758654E0,1.527547359E0,-1.580221355E-1,7.925049782E0
1.778758754E0,1.297696948E0,-1.915419847E-1,7.891529560E0
1.780758787E0,1.096577883E0,-2.154847383E-1,7.855615616E0
1.782758820E0,6.919454336E-1,-2.490045726E-1,7.697593689E0
1.784757986E0,6.919454336E-1,-2.490045726E-1,7.697593689E0
1.786757286E0,6.608198285E-1,-2.537931204E-1,7.688016415E0
1.788757319E0,6.608198285E-1,-2.537931204E-1,7.688016415E0
1.790757352E0,6.201171875E-1,-2.609759569E-1,7.678439140E0
1.792757385E0,6.273000240E-1,-2.825244367E-1,7.685622215E0
1.794757418E0,6.751855016E-1,-3.112557232E-1,7.709564686E0
1.796757418E0,7.661679387E-1,-3.375927508E-1,7.735901833E0
1.798757418E0,8.858816624E-1,-3.902668059E-1,7.764633179E0
1.800757418E0,1.043903828E0,-4.549122155E-1,7.798152924E0
1.802757418E0,1.245022893E0,-5.171633363E-1,7.843644142E0
1.804758284E0,1.472478986E0,-5.746259689E-1,7.903501034E0
1.806759017E0,1.719089270E0,-6.296942830E-1,7.958569527E0
1.808758717E0,1.994430900E0,-6.799740195E-1,8.008849144E0
1.810758683E0,2.279349566E0,-7.110996246E-1,8.044763565E0
1.812758649E0,2.557085514E0,-7.230709791E-1,8.061523438E0
1.814758615E0,2.830032825E0,-7.326480746E-1,8.095043182E0
1.816758581E0,3.105374336E0,-7.398309112E-1,8.178842545E0
1.818758547E0,3.375927448E0,-7.494080067E-1,8.267431259E0
1.820758513E0,3.629720688E0,-7.637736797E-1,8.327287674E0
1.822758479E0,4.309694767E0,-8.236305118E-1,8.411087036E0
1.824757612E0,4.309694767E0,-8.236305118E-1,8.411087036E0
1.826756878E0,4.309694767E0,-8.236305118E-1,8.411087036E0
1.828756844E0,4.391099930E0,-8.284190893E-1,8.418270111E0
1.830756877E0,4.549122334E0,-8.356019258E-1,8.427846909E0
1.832756910E0,4.711932659E0,-8.379961848E-1,8.420664787E0
1.834756910E0,4.884320736E0,-8.451790214E-1,8.394327164E0
1.836756943E0,5.051919937E0,-8.499675393E-1,8.348835945E0
1.838756876E0,5.207547665E0,-8.667274714E-1,8.298556328E0
1.840756876E0,5.344021320E0,-8.930644989E-1,8.241093636E0
1.842756842E0,5.456552505E0,-9.337671995E-1,8.164477348E0
1.844757675E0,5.542746067E0,-9.984126091E-1,8.080677032E0
1.846758375E0,5.604997158E0,-1.079817891E0,7.989695072E0
1.848758341E0,5.648094177E0,-1.173194647E0,7.874769688E0
1.850758307E0,5.672037125E0,-1.261782765E0,7.738296032E0
1.852758273E0,5.667248249E0,-1.345582485E0,7.592245579E0
1.854758239E0,5.626545906E0,-1.419804931E0,7.448588848E0
1.856758239E0,5.545140266E0,-1.503604531E0,7.307326794E0
1.858758272E0,5.415849686E0,-1.606558442E0,7.166064739E0
1.860758305E0,5.238673210E0,-1.709512234E0,7.020013809E0
1.862758338E0,4.367157459E0,-2.142875910E0,6.665660858E0
1.864757504E0,4.367157459E0,-2.142875910E0,6.665660858E0
1.866756804E0,4.367157459E0,-2.142875910E0,6.665660858E0
1.868756837E0,4.230683804E0,-2.200338602E0,6.646506786E0
1.870756870E0,3.976890564E0,-2.308080912E0,6.634535313E0
1.872756903E0,3.754222870E0,-2.430188894E0,6.646506786E0
1.874756903E0,3.541132450E0,-2.557085514E0,6.670449734E0
1.876756903E0,3.337619066E0,-2.674404860E0,6.699181080E0
1.878756903E0,3.153259993E0,-2.784541607E0,6.718335152E0
1.880756003E0,3.000026226E0,-2.892283916E0,6.727912426E0
1.882756003E0,2.892283916E0,-2.985660791E0,6.744672298E0
1.884756869E0,2.815667152E0,-3.074248791E0,6.759037971E0
1.886757602E0,2.751021862E0,-3.162837029E0,6.782980442E0
1.888757635E0,2.717501879E0,-3.244242430E0,6.816500187E0
1.890757601E0,2.731867552E0,-3.311282158E0,6.866780281E0
1.892757567E0,2.782147408E0,-3.373533249E0,6.917059898E0
1.894757533E0,2.880312681E0,-3.438178539E0,6.943397045E0
1.896757499E0,3.023969173E0,-3.512401104E0,6.979310989E0
1.898757465E0,3.205934048E0,-3.581835032E0,7.027196407E0
1.900757431E0,3.428601503E0,-3.629720688E0,7.048745155E0
1.902757431E0,4.546727657E0,-3.651269197E0,7.106207848E0
1.904756597E0,4.546727657E0,-3.651269197E0,7.106207848E0
1.906755897E0,4.546727657E0,-3.651269197E0,7.106207848E0
1.908755930E0,4.733481407E0,-3.641691923E0,7.154093266E0
1.910755963E0,5.130930901E0,-3.627326250E0,7.278595448E0
1.912755996E0,5.547534943E0,-3.622537851E0,7.398309231E0
1.914756029E0,5.980898380E0,-3.608172178E0,7.479714394E0
1.916756062E0,6.426233768E0,-3.598595142E0,7.537177086E0
1.918756062E0,6.888328552E0,-3.605777979E0,7.611399651E0
1.920756028E0,7.367183685E0,-3.620143414E0,7.692804813E0
1.922755994E0,7.867587090E0,-3.648874760E0,7.812518597E0
1.924756827E0,8.372778893E0,-3.672817469E0,7.858009815E0
1.926757527E0,8.861210823E0,-3.680000305E0,7.757450581E0
1.928757493E0,9.347249031E0,-3.656057596E0,7.604216576E0
1.930757126E0,9.806949615E0,-3.421418667E0,6.653689861E0
1.932757092E0,1.031692982E1,-3.239453793E0,5.475706577E0
1.934757092E0,1.080536175E1,-3.323253393E0,5.739076614E0
1.936757125E0,1.118365765E1,-3.466909885E0,6.550735950E0
1.938757158E0,1.153322220E1,-3.581835032E0,7.108602047E0
1.940758091E0,1.187320900E1,-3.689577579E0,7.395915031E0
1.942758124E0,1.272317600E1,-4.264203548E0,7.357606411E0
1.944757290E0,1.284288979E1,-4.371945858E0,7.429434776E0
1.946756590E0,1.284288979E1,-4.371945858E0,7.429434776E0
1.948756356E0,1.296260357E1,-4.477293968E0,7.522811413E0
1.950756389E0,1.321639729E1,-4.680807114E0,7.889135361E0
1.952756389E0,1.344145870E1,-4.853195190E0,7.872375488E0
1.954756389E0,1.369046307E1,-5.011217117E0,7.561120033E0
1.956756389E0,1.393707371E1,-5.205153465E0,8.018425941E0
1.958756389E0,1.405918121E1,-5.391906738E0,8.116591454E0
1.960756389E0,1.415255833E1,-5.576265812E0,7.793364525E0
1.962756389E0,1.423635769E1,-5.806116581E0,8.334470749E0
1.964757222E0,1.422438622E1,-6.026389599E0,8.365595818E0
1.966757922E0,1.426030064E1,-6.261028767E0,8.272219658E0
1.968757888E0,1.431058025E1,-6.447782040E0,8.731920242E0
1.970757854E0,1.435128307E1,-6.541158676E0,8.367990494E0
1.972757820E0,1.435367775E1,-6.756643295E0,8.758256912E0
1.974757786E0,1.429382038E1,-6.988888264E0,8.973741531E0
1.976757752E0,1.426748371E1,-7.218738556E0,9.553156853E0
1.978757718E0,1.422678089E1,-7.446194649E0,9.802161217E0
1.980757718E0,1.425311756E1,-7.676044941E0,1.053959751E1
1.982757751E0,1.450691128E1,-7.944203854E0,1.078860188E1
1.984756917E0,1.450691128E1,-7.944203854E0,1.078860188E1
1.986756050E0,1.459789371E1,-7.968146324E0,1.118844604E1
1.988756083E0,1.466972160E1,-7.999272346E0,1.169842625E1
1.990756449E0,1.472239590E1,-8.028003693E0,1.214376163E1
1.992756482E0,1.481098366E1,-8.059128761E0,1.257712555E1
1.994756515E0,1.493548584E1,-8.047157288E0,1.272557068E1
1.996756515E0,1.506717110E1,-7.972935200E0,1.283570766E1
1.998756481E0,1.515097141E1,-7.867587090E0,1.281415844E1
2.000756447E0,1.517012501E1,-7.755055904E0,1.274711895E1
2.002756413E0,1.515097141E1,-7.628159523E0,1.274951363E1
2.004757246E0,1.513899994E1,-7.443800449E0,1.280697632E1
2.006757946E0,1.511984539E1,-7.187613010E0,1.283091831E1
2.008758179E0,1.506956577E1,-6.885934353E0,1.276866722E1
2.010758145E0,1.500013161E1,-6.577073097E0,1.266092491E1
2.012758145E0,1.492112064E1,-6.296942711E0,1.254121113E1
2.014758178E0,1.483732128E1,-6.052726746E0,1.241192055E1
2.016758211E0,1.476788712E1,-5.846818924E0,1.228502369E1
2.018758244E0,1.469605923E1,-5.688796997E0,1.217728138E1
2.020758277E0,1.461944199E1,-5.561900616E0,1.209827042E1
2.022758310E0,1.439677429E1,-5.205153465E0,1.190672874E1
2.024757476E0,1.439677429E1,-5.205153465E0,1.190672874E1
2.026756642E0,1.439677429E1,-5.205153465E0,1.190672874E1
2.028756975E0,1.435607147E1,-5.152479172E0,1.187081432E1
2.030756975E0,1.424354076E1,-5.047131062E0,1.170321560E1
2.032756975E0,1.408551884E1,-4.941783428E0,1.127942848E1
2.034756975E0,1.393228531E1,-4.908263206E0,1.094423008E1
2.036756975E0,1.374313736E1,-4.946571827E0,1.044861507E1
2.038756975E0,1.347737312E1,-4.970514297E0,9.177255630E0
2.040756975E0,1.305598068E1,-5.039948463E0,8.439818382E0
2.042756941E0,1.260825157E1,-5.229096413E0,8.188420296E0
2.044757774E0,1.219643593E1,-5.511620522E0,8.080677032E0
2.046758640E0,1.187320900E1,-5.885127544E0,9.088666916E0
2.048758606E0,1.150927925E1,-6.244268894E0,9.675264359E0
2.050758572E0,1.115492630E1,-6.569890022E0,9.196409225E0
2.052758538E0,1.086761379E1,-6.969734192E0,9.359220505E0
2.054758504E0,1.058030033E1,-7.436617374E0,1.010862827E1
2.056758470E0,1.026186180E1,-7.879558563E0,1.042467213E1
2.058758470E0,1.000327969E1,-8.224333763E0,1.022834206E1
2.060758470E0,9.823709488E0,-8.461367607E0,9.888355255E0
2.062758503E0,9.332882881E0,-8.698400497E0,9.055147171E0
2.064757669E0,9.332882881E0,-8.698400497E0,9.055147171E0
2.066756969E0,9.332882881E0,-8.698400497E0,9.055147171E0
2.068757002E0,9.258660316E0,-8.652909279E0,8.863605499E0
2.070757035E0,9.100638390E0,-8.523618698E0,8.432636261E0
2.072757068E0,8.909096718E0,-8.353624344E0,7.932232380E0
2.074757068E0,8.696005821E0,-8.154899597E0,7.388731956E0
2.076757034E0,8.468549728E0,-7.953781128E0,6.845231533E0
2.078757000E0,8.229122162E0,-7.771816254E0,6.323279858E0
2.080756966E0,7.970541000E0,-7.620976925E0,5.839636326E0
2.082756932E0,7.699987888E0,-7.508445740E0,5.399089813E0
2.084757765E0,7.443800449E0,-7.417463303E0,5.013611317E0
2.086758598E0,7.204372883E0,-7.352818012E0,4.680807114E0
2.088758264E0,6.996070862E0,-7.316903591E0,4.391099930E0
2.090758264E0,6.840443134E0,-7.292961121E0,4.142095566E0
2.092758297E0,6.739883423E0,-7.269018173E0,3.909850836E0
2.094757897E0,6.691998005E0,-7.254652500E0,3.689577579E0
2.096757930E0,6.701575279E0,-7.242681503E0,3.514795303E0
2.098757596E0,6.749460697E0,-7.233104229E0,3.414235830E0
2.100757629E0,6.816500187E0,-7.235498428E0,3.373533249E0
2.102757662E0,7.120573044E0,-7.127756119E0,3.608172178E0
2.104756828E0,7.120573044E0,-7.127756119E0,3.608172178E0
2.106756128E0,7.120573044E0,-7.127756119E0,3.608172178E0
2.108755728E0,7.175641537E0,-7.072687626E0,3.675211906E0
2.110755728E0,7.278595448E0,-6.941002846E0,3.814079762E0
2.112755728E0,7.371972084E0,-6.771008968E0,3.948159218E0
2.114755728E0,7.443800449E0,-6.577073097E0,4.082238674E0
2.116755728E0,7.484503269E0,-6.371165276E0,4.225894928E0
2.118755728E0,7.443800449E0,-6.138920784E0,4.438985348E0
2.120755728E0,7.338452339E0,-5.889915943E0,4.527573586E0
2.122755694E0,7.254652500E0,-5.650488377E0,4.422225475E0
2.124756527E0,7.237892628E0,-5.442186832E0,4.393494129E0
2.126757227E0,7.285778046E0,-5.260221958E0,4.513207912E0
2.128757193E0,7.376760483E0,-5.090228081E0,4.616161823E0
2.130757159E0,7.474925995E0,-4.929811954E0,4.556304932E0
2.132757592E0,7.561120033E0,-4.743058205E0,4.199557781E0
2.134757558E0,7.611399651E0,-4.652075768E0,4.517996788E0
2.136757558E0,7.632947922E0,-4.637710094E0,5.375146866E0
2.138757558E0,7.632947922E0,-4.594613552E0,5.803721905E0
2.140757591E0,7.659285069E0,-4.477293968E0,5.707951069E0
2.142757624E0,7.932232380E0,-4.139701366E0,5.540351868E0
2.144756790E0,7.948992252E0,-4.120546818E0,5.672037125E0
2.146756090E0,7.948992252E0,-4.120546818E0,5.672037125E0
2.148756123E0,7.953781128E0,-4.084632874E0,5.724710941E0
2.150756156E0,7.960963726E0,-3.943370581E0,5.241067410E0
2.152756156E0,7.946598053E0,-3.806896925E0,4.680807114E0
2.154756556E0,7.903501034E0,-3.830839634E0,5.293741703E0
2.156756522E0,7.834067345E0,-3.950553417E0,6.131737709E0
2.158756855E0,7.755055904E0,-4.051113129E0,6.385530949E0
2.160756821E0,7.728719234E0,-4.106181145E0,6.256239891E0
2.162756787E0,7.740690231E0,-4.170826912E0,6.043149471E0
2.164757620E0,7.711959362E0,-4.283357620E0,5.806116581E0
2.166758320E0,7.613793850E0,-4.429408550E0,5.518803596E0
2.168758720E0,7.458166122E0,-4.594613552E0,5.219519138E0
2.170758753E0,7.269018173E0,-4.747847080E0,4.927417755E0
2.172759719E0,7.053533554E0,-4.862771988E0,4.618556023E0
2.174759752E0,6.823683262E0,-4.953754425E0,4.261809349E0
2.176759785E0,6.603409767E0,-5.044736862E0,3.871542454E0
2.178759818E0,6.387925148E0,-5.138113976E0,3.481275558E0
2.180759851E0,6.179623127E0,-5.233884811E0,3.102980137E0
2.182759884E0,5.655277252E0,-5.492466450E0,1.879505754E0
2.184759050E0,5.655277252E0,-5.492466450E0,1.879505754E0
2.186758316E0,5.607391834E0,-5.518803596E0,1.671203852E0
2.188758316E0,5.569083214E0,-5.545140266E0,1.474873304E0
2.190758316E0,5.511620522E0,-5.595420361E0,1.144463301E0
2.192757849E0,5.339232922E0,-5.655277252E0,1.089395046E0
2.194757849E0,5.102199554E0,-5.700768471E0,1.197137356E0
2.196757849E0,5.047131062E0,-5.693585396E0,1.209108829E0
2.198757849E0,5.085439682E0,-5.616968632E0,1.094183564E0
2.200757815E0,5.276981831E0,-5.473312378E0,9.026415944E-1
2.202757781E0,5.284164429E0,-5.310501575E0,8.379961848E-1
2.204758614E0,4.901080608E0,-5.159662247E0,1.125309110E0
2.206759314E0,4.297723293E0,-4.980091572E0,1.826831698E0
2.208759280E0,3.567469358E0,-4.678412914E0,3.057488918E0
2.210759246E0,2.042316437E0,-4.197163582E0,6.694392204E0
2.212759212E0,-1.336005330E0,-3.323253393E0,1.576151085E1
2.214759212E0,-4.616161823E0,-2.197944164E0,2.414865494E1
2.216759212E0,-5.624151707E0,-1.197137356E0,2.538170815E1
2.218759245E0,-4.987274647E0,-3.447755575E-1,2.275039864E1
2.220759278E0,-3.715914488E0,3.782954216E-1,1.969051552E1
2.222759311E0,4.213923812E-1,1.766974807E0,1.150449085E1
2.224758477E0,4.213923812E-1,1.766974807E0,1.150449085E1
2.226757777E0,4.213923812E-1,1.766974807E0,1.150449085E1
2.228757410E0,1.029538155E0,1.877111435E0,1.025467873E1
2.230757410E0,2.360754967E0,2.085413456E0,7.747873306E0
2.232756443E0,3.859570980E0,2.399063349E0,5.432609558E0
2.234756409E0,5.233884811E0,2.461314440E0,3.929004908E0
2.236756375E0,6.277788639E0,2.185972929E0,3.110162973E0
2.238756341E0,7.046350956E0,1.757397652E0,2.425400496E0
2.240757341E0,7.613793850E0,1.297696948E0,1.774157643E0
2.242757307E0,7.898712635E0,8.619389534E-1,1.446141958E0
2.244758140E0,8.018425941E0,4.764606953E-1,1.496421814E0
2.246758873E0,8.159688950E0,1.149251908E-1,1.757397652E0
2.248758906E0,8.195602417E0,-2.418217510E-1,2.298503876E0
2.250759339E0,8.097437859E0,-6.105400920E-1,3.102980137E0
2.252759372E0,7.946598053E0,-1.003201127E0,3.888302326E0
2.254759405E0,7.755055904E0,-1.453324795E0,4.403071404E0
2.256759438E0,7.484503269E0,-1.953728199E0,4.620950222E0
2.258759471E0,7.168458939E0,-2.478074312E0,4.601796150E0
2.260759504E0,6.811711788E0,-2.995237827E0,4.410254002E0
2.262759537E0,5.355992794E0,-4.419831276E0,3.079037428E0
2.264758670E0,5.355992794E0,-4.419831276E0,3.079037428E0
2.266757936E0,5.355992794E0,-4.419831276E0,3.079037428E0
2.268757669E0,5.176422119E0,-4.546727657E0,2.784541607E0
2.270757669E0,4.869955063E0,-4.752635479E0,2.135693073E0
2.272757669E0,4.611373425E0,-4.908263206E0,1.450930476E0
2.274757669E0,4.393494129E0,-5.023188591E0,7.853221297E-1
2.276757669E0,4.223500729E0,-5.126142502E0,1.843591630E-1
2.278757635E0,4.067873001E0,-5.221913338E0,-3.232271075E-1
2.280757601E0,3.921822071E0,-5.265010357E0,-7.685621977E-1
2.282757567E0,3.823656797E0,-5.265010357E0,-1.106154919E0
2.284758400E0,3.792531252E0,-5.288952827E0,-8.212362528E-1
2.286759100E0,3.840416908E0,-5.315289974E0,-1.532335877E-1
2.288759466E0,3.929004908E0,-5.332049847E0,1.819648892E-1
2.290759432E0,4.115758419E0,-5.274587631E0,1.771763414E-1
2.292759432E0,4.472505569E0,-5.056708336E0,9.816526622E-2
2.294759432E0,4.793338299E0,-4.812492371E0,1.245022863E-1
2.296759465E0,4.913052082E0,-4.656864643E0,3.256213665E-1
2.298759498E0,4.982485771E0,-4.486870766E0,7.110996246E-1
2.300758498E0,5.102199554E0,-4.328848839E0,1.450930476E0
2.302758531E0,6.538764477E0,-3.261002302E0,4.209135056E0
2.304757697E0,6.538764477E0,-3.261002302E0,4.209135056E0
2.306756997E0,6.538764477E0,-3.261002302E0,4.209135056E0
2.308756997E0,6.555524349E0,-3.361561775E0,4.381523132E0
2.310756597E0,6.603409767E0,-3.517189741E0,4.460534096E0
2.312756563E0,6.847625732E0,-3.440572977E0,4.283357620E0
2.314756529E0,7.297749519E0,-3.131711483E0,3.952947617E0
2.316756495E0,7.927443981E0,-2.638490915E0,3.533949614E0
2.318756461E0,8.300951004E0,-2.499622822E0,3.253819466E0
2.320756427E0,8.430241585E0,-2.628913641E0,2.976083517E0
2.322756393E0,8.626572609E0,-2.660039425E0,2.499622822E0
2.324757259E0,8.959376335E0,-2.540325642E0,1.965699673E0
2.326758025E0,9.368797302E0,-2.329629421E0,1.606558442E0
2.328758325E0,9.653716087E0,-2.171607256E0,1.436564922E0
2.330758358E0,9.902720451E0,-2.080624819E0,1.371919513E0
2.332758391E0,1.023313046E1,-2.008796453E0,1.333611012E0
2.334758424E0,1.059945488E1,-1.956122518E0,1.283331275E0
2.336758457E0,1.097296143E1,-1.951334000E0,1.213897347E0
2.338758490E0,1.132252598E1,-1.992036581E0,1.132491946E0
2.340758523E0,1.161223316E1,-2.047105074E0,1.017566800E0
2.342758523E0,1.230657291E1,-2.152452946E0,3.711125851E-1
2.344757656E0,1.225150394E1,-2.279349566E0,5.794144869E-1
2.346756922E0,1.225150394E1,-2.279349566E0,5.794144869E-1
2.348757422E0,1.205277920E1,-2.444554567E0,8.379961848E-1
2.350757422E0,1.130337143E1,-2.772570133E0,1.012778282E0
2.352757688E0,1.039594078E1,-3.000026226E0,7.350423932E-1
2.354757954E0,9.646533012E0,-3.112557173E0,4.932205975E-1
2.356757920E0,9.162889481E0,-3.146077156E0,4.716721475E-1
2.358757886E0,8.887548447E0,-3.138894320E0,5.339232683E-1
2.360757852E0,8.746285439E0,-3.102980137E0,5.602602959E-1
2.362757818E0,8.652909279E0,-3.023969173E0,5.291347504E-1
2.364758651E0,8.485309601E0,-2.889889717E0,5.123748183E-1
2.366759351E0,8.245882034E0,-2.705530643E0,5.650488734E-1
2.368759317E0,7.996877670E0,-2.521171331E0,6.656084061E-1
2.370759283E0,7.762238979E0,-2.382303476E0,8.236305118E-1
2.372759283E0,7.561120033E0,-2.260195494E0,1.075029373E0
2.374759316E0,7.429434776E0,-2.114144564E0,1.417410731E0
2.376759349E0,7.309720993E0,-1.948939681E0,1.795706153E0
2.378759382E0,7.168458939E0,-1.750214934E0,2.181184292E0
2.380759415E0,7.031985283E0,-1.575432777E0,2.597788095E0
2.382759448E0,6.814105988E0,-9.217957854E-1,3.383110285E0
2.384758614E0,6.718335152E0,-8.978530765E-1,3.325647593E0
2.386757880E0,6.718335152E0,-8.978530765E-1,3.325647593E0
2.388757880E0,6.591438770E0,-8.810931444E-1,3.316070557E0
2.390757846E0,6.332856655E0,-8.068706393E-1,3.380716085E0
2.392757812E0,6.126949310E0,-6.919454336E-1,3.478881359E0
2.394757778E0,5.997658253E0,-6.033572555E-1,3.512401104E0
2.396757744E0,5.918647289E0,-5.698373914E-1,3.375927448E0
2.398757710E0,5.832453251E0,-6.416656375E-1,3.112557173E0
2.400757676E0,5.667248249E0,-8.763045669E-1,2.827638626E0
2.402757676E0,5.367964268E0,-1.189954638E0,2.590605259E0
2.404758542E0,4.980091572E0,-1.505998850E0,2.382303476E0
2.406759275E0,4.630527496E0,-1.788523316E0,2.171607256E0
2.408758775E0,4.472505569E0,-1.915419817E0,2.061470509E0
2.410758775E0,4.204346657E0,-2.130904675E0,1.800494671E0
2.412758508E0,4.089421272E0,-2.351177931E0,1.501210332E0
2.414758241E0,4.065478802E0,-2.523565531E0,1.230657220E0
2.416758241E0,4.120546818E0,-2.581028223E0,9.960182905E-1
2.418758241E0,4.386311531E0,-2.413429022E0,7.853221297E-1
2.420758274E0,4.819674969E0,-2.157241583E0,6.368771195E-1
2.422758307E0,5.660065651E0,-3.962524891E0,6.632141471E-1
2.424757473E0,5.660065651E0,-3.962524891E0,6.632141471E-1
2.426756773E0,5.660065651E0,-3.962524891E0,6.632141471E-1
2.428756806E0,5.743865490E0,-4.151672363E0,5.195576549E-1
2.430756839E0,5.918647289E0,-4.345608711E0,1.101366431E-1
2.432756872E0,6.289760113E0,-4.436591148E0,-2.130904645E-1
2.434756872E0,6.782980442E0,-4.529967785E0,-4.237866402E-1
2.436756838E0,7.197190285E0,-4.630527496E0,-4.237866402E-1
2.438756804E0,7.544359684E0,-4.673624516E0,-8.140534163E-2
2.440756770E0,8.104619980E0,-4.417437077E0,1.915419847E-2
2.442756736E0,8.923461914E0,-3.924216509E0,-1.460507661E-1
2.444757569E0,9.730332375E0,-3.411841631E0,-1.532335877E-1
2.446758269E0,1.030495834E1,-3.059883118E0,8.619388938E-2
2.448758235E0,1.081733322E1,-2.885101080E0,4.668835998E-1
2.450758235E0,1.125069714E1,-2.834821463E0,9.074301720E-1
2.452758268E0,1.146378803E1,-2.825244188E0,1.302485466E0
2.454758301E0,1.151646137E1,-2.784541607E0,1.580221415E0
2.456758334E0,1.151167297E1,-2.669616461E0,1.807677507E0
2.458758367E0,1.153322220E1,-2.513988495E0,2.054287672E0
2.460758400E0,1.154998207E1,-2.317657948E0,2.317657948E0
2.462758433E0,1.124112034E1,-1.987248063E0,2.592999697E0
2.464757599E0,1.124112034E1,-1.987248063E0,2.592999697E0
2.466756899E0,1.124112034E1,-1.987248063E0,2.592999697E0
2.468756899E0,1.113337803E1,-1.989642382E0,2.609759569E0
2.470756899E0,1.078141975E1,-2.001613855E0,2.494834423E0
2.472756899E0,1.036002731E1,-1.989642382E0,2.293715239E0
2.474756899E0,9.931451797E0,-1.980065227E0,2.083019018E0
2.476756899E0,9.613013268E0,-2.001613855E0,1.903448462E0
2.478756899E0,9.359220505E0,-2.004008055E0,1.778946161E0
2.480756865E0,9.162889481E0,-2.001613855E0,1.620923996E0
2.482756831E0,9.012050629E0,-2.066259146E0,1.491633177E0
2.484757664E0,8.877970695E0,-2.183578730E0,1.403045058E0
2.486758364E0,8.844450951E0,-2.353572130E0,1.288119793E0
2.488758330E0,8.851634026E0,-2.468497276E0,1.137280583E0
2.490758296E0,8.712765694E0,-2.561874151E0,9.792584181E-1
2.492758262E0,8.636149406E0,-2.712713242E0,9.002473354E-1
2.494758228E0,8.820508003E0,-2.911438227E0,9.337671995E-1
2.496758228E0,9.141341209E0,-3.165231228E0,9.481328130E-1
2.498758261E0,9.182044029E0,-3.385504484E0,7.637736797E-1
2.500758294E0,9.050358772E0,-3.529160976E0,5.027977228E-1
2.502758327E0,9.117398262E0,-4.115758419E0,-1.508393139E-1
2.504757493E0,9.117398262E0,-4.115758419E0,-1.508393139E-1
2.506756793E0,9.117398262E0,-4.115758419E0,-1.508393139E-1
2.508756826E0,9.076695442E0,-4.125335693E0,-1.987248063E-1
2.510756859E0,9.012050629E0,-4.113364220E0,-2.561874092E-1
2.512756859E0,8.933039665E0,-4.122941017E0,-2.801301479E-1
2.514756825E0,8.784594536E0,-4.063084126E0,-1.173194647E-1
2.516756791E0,8.609811783E0,-3.885908127E0,9.816526622E-2
2.518756757E0,8.559532166E0,-3.708731651E0,3.304099143E-1
2.520756723E0,8.672063828E0,-3.560286522E0,5.051919818E-1
2.522756689E0,8.786988258E0,-3.390293121E0,6.943396926E-1
2.524757522E0,8.813325882E0,-3.222693920E0,9.385557175E-1
2.526758222E0,8.753468513E0,-3.050306082E0,1.180377483E0
2.528758222E0,8.743891716E0,-2.889889717E0,1.412622094E0
2.530758255E0,8.786988258E0,-2.681587696E0,1.546701550E0
2.532758288E0,8.703188896E0,-2.494834423E0,1.647261024E0
2.534758321E0,8.504464149E0,-2.351177931E0,1.697540879E0
2.536758354E0,8.296162605E0,-2.169213057E0,1.403045058E0
2.538758387E0,8.130957603E0,-2.126116037E0,1.137280583E0
2.540758420E0,7.905895233E0,-2.394274712E0,1.984853864E0
2.542758453E0,8.332076073E0,-2.853975534E0,1.723877907E0
2.544757619E0,8.332076073E0,-2.853975534E0,1.723877907E0
2.546756752E0,8.332076073E0,-2.853975534E0,1.723877907E0
2.548756752E0,8.399115562E0,-2.944957972E0,1.601769805E0
2.550756752E0,8.420664787E0,-3.220299721E0,1.486844659E0
2.552756752E0,8.423058510E0,-3.490852594E0,1.419804931E0
2.554756752E0,8.504464149E0,-3.658451796E0,1.292908430E0
2.556756752E0,8.736708641E0,-3.830839634E0,1.134886265E0
2.558756718E0,9.031204224E0,-4.031958580E0,9.672870040E-1
2.560756684E0,9.320911407E0,-4.278569221E0,7.398309112E-1
2.562756650E0,9.656110764E0,-4.556304932E0,4.597007632E-1
2.564757483E0,1.013975334E1,-4.778972626E0,-2.154847234E-2
2.566758183E0,1.052762604E1,-5.039948463E0,-4.836435020E-1
2.568758149E0,1.068085957E1,-5.454157829E0,-3.328042030E-1
2.570758115E0,1.072874546E1,-5.825270653E0,-9.816526622E-2
2.572758081E0,1.070480251E1,-5.997658253E0,-2.609759569E-1
2.574758081E0,1.068085957E1,-6.050332546E0,-5.363175869E-1
2.576758114E0,1.075029373E1,-6.150891781E0,-6.560313106E-1
2.578758147E0,1.079339123E1,-6.205960274E0,-7.613793612E-1
2.580758180E0,1.072395706E1,-6.110189438E0,-9.050358534E-1
2.582758213E0,1.026425648E1,-5.559505939E0,-6.823683381E-1
2.584757379E0,1.021876526E1,-5.478100777E0,-5.818088055E-1
2.586756679E0,1.021876526E1,-5.478100777E0,-5.818088055E-1
2.588756712E0,1.019242764E1,-5.372752666E0,-4.716721475E-1
2.590756712E0,1.017806244E1,-5.130930901E0,-2.130904645E-1
2.592756678E0,1.013735962E1,-4.941783428E0,1.197137386E-1
2.594756644E0,1.010383987E1,-4.855589390E0,5.027977228E-1
2.596756610E0,1.013975334E1,-4.731087208E0,8.212362528E-1
2.598756576E0,1.020679379E1,-4.520390987E0,1.046298146E0
2.600756542E0,1.020200539E1,-4.343214512E0,1.197137356E0
2.602756508E0,1.017566776E1,-4.247443676E0,1.374313712E0
2.604757341E0,1.018285084E1,-4.173221111E0,1.513181686E0
2.606758207E0,1.011102295E1,-4.122941017E0,1.580221415E0
2.608758240E0,9.933846474E0,-4.113364220E0,1.640078187E0
2.610758273E0,9.763853073E0,-4.125335693E0,1.699935079E0
2.612758306E0,9.601041794E0,-4.154066563E0,1.762186289E0
2.614758339E0,9.364008904E0,-4.285751820E0,1.865140080E0
2.616758372E0,9.081484795E0,-4.520390987E0,1.968093872E0
2.618758405E0,8.940221786E0,-4.649681568E0,1.992036581E0
2.620758438E0,8.636149406E0,-4.877137661E0,1.972882390E0
2.622758471E0,6.773403645E0,-4.848406315E0,2.020767927E0
2.624757604E0,6.773403645E0,-4.848406315E0,2.020767927E0
2.626756870E0,6.581861496E0,-4.915446281E0,2.087807655E0
2.628756870E0,6.581861496E0,-4.915446281E0,2.087807655E0
2.630756870E0,6.251451492E0,-5.054314137E0,2.150058746E0
2.632756870E0,6.167652130E0,-5.188393593E0,2.185972929E0
2.634756870E0,6.201171875E0,-5.332049847E0,2.226675510E0
2.636756836E0,6.189200401E0,-5.456552505E0,2.188367128E0
2.638756802E0,6.177228928E0,-5.573871613E0,2.085413456E0
2.640756768E0,6.117372036E0,-5.612180233E0,2.015979290E0
2.642756734E0,6.052726746E0,-5.557111740E0,1.932179809E0
2.644757567E0,5.988081455E0,-5.473312378E0,1.893871427E0
2.646758267E0,5.925830364E0,-5.375146866E0,1.953728199E0
2.648758233E0,6.026389599E0,-5.298530102E0,2.044710636E0
2.650758199E0,6.280182838E0,-5.265010357E0,2.059076309E0
2.652758199E0,6.512427330E0,-5.205153465E0,2.011190891E0
2.654758232E0,6.842837334E0,-5.174027920E0,1.822043180E0
2.656758265E0,7.307326794E0,-5.231490612E0,1.776551962E0
2.658758298E0,7.728719234E0,-5.341627121E0,1.865140080E0
2.660758331E0,7.999272346E0,-5.473312378E0,1.915419817E0
2.662758364E0,8.262641907E0,-5.901887417E0,1.359948039E0
2.664757530E0,8.262641907E0,-5.901887417E0,1.359948039E0
2.666756830E0,8.262641907E0,-5.901887417E0,1.359948039E0
2.668756830E0,8.408693314E0,-6.007235527E0,1.304879785E0
2.670756796E0,8.777411461E0,-6.210748672E0,1.211503029E0
2.672756762E0,9.107821465E0,-6.392713547E0,1.151646137E0
2.674756728E0,9.275420189E0,-6.526793003E0,1.060663700E0
2.676756694E0,9.263449669E0,-6.675238132E0,8.906702399E-1
2.678756660E0,9.035993576E0,-6.830865860E0,6.871568561E-1
2.680756626E0,8.753468513E0,-6.943397045E0,4.429408312E-1
2.682756592E0,8.497281075E0,-7.034379482E0,2.346389294E-1
2.684757458E0,8.324893951E0,-7.161275864E0,1.532335877E-1
2.686758224E0,8.176448822E0,-7.338452339E0,1.699935049E-1
2.688758257E0,7.922655106E0,-7.498868465E0,3.040728867E-1
2.690758290E0,7.606611252E0,-7.587456703E0,4.142095447E-1
2.692758323E0,7.434223175E0,-7.652102470E0,4.644893110E-1
2.694758356E0,7.561120033E0,-7.728719234E0,5.794144869E-1
2.696758389E0,7.891529560E0,-7.790970325E0,7.087053657E-1
2.698758422E0,8.123774529E0,-7.810124397E0,7.637736797E-1
2.700758455E0,8.308133125E0,-7.774210453E0,7.757450342E-1
2.702758455E0,9.794978142E0,-7.498868465E0,4.357580245E-1
2.704757588E0,9.794978142E0,-7.498868465E0,4.357580245E-1
2.706756854E0,9.794978142E0,-7.498868465E0,4.357580245E-1
2.708756620E0,9.955394745E0,-7.460560322E0,3.591412306E-1
2.710756620E0,1.021397591E1,-7.412674904E0,2.825244367E-1
2.712756620E0,1.027143860E1,-7.400703430E0,3.351984620E-1
2.714756586E0,1.025707340E1,-7.285778046E0,2.178790122E-1
2.716756552E0,1.040312386E1,-6.629746914E0,-7.589851022E-1
2.718756518E0,1.084606457E1,-5.085439682E0,-2.576239586E0
2.720756484E0,1.088197899E1,-4.355185986E0,-2.743839025E0
2.722756450E0,1.028341007E1,-4.721509933E0,-1.683175206E0
2.724757283E0,9.464568138E0,-5.332049847E0,-1.019961119E0
2.726757983E0,8.727131844E0,-5.753442287E0,2.633702382E-2
2.728757949E0,8.157294273E0,-5.861184597E0,1.108549237E0
2.730757949E0,7.977723598E0,-5.779779434E0,1.714300752E0
2.732757982E0,8.047157288E0,-5.674431324E0,2.015979290E0
2.734758015E0,8.030397415E0,-5.576265812E0,2.130904675E0
2.736758048E0,7.920260906E0,-5.480494976E0,2.157241583E0
2.738758081E0,7.872375488E0,-5.411061287E0,2.212309837E0
2.740758114E0,7.812518597E0,-5.346415520E0,2.327235222E0
2.742758147E0,7.649707794E0,-5.114171028E0,2.310475111E0
2.744757313E0,7.649707794E0,-5.114171028E0,2.310475111E0
2.746756579E0,7.649707794E0,-5.114171028E0,2.310475111E0
2.748756545E0,7.637736797E0,-5.097411156E0,2.281744003E0
2.750756045E0,7.652102470E0,-5.049525738E0,2.255406857E0
2.752756011E0,7.599428177E0,-4.968120098E0,2.209915638E0
2.754755977E0,7.539571285E0,-4.901080608E0,2.126116037E0
2.756755943E0,7.391126156E0,-4.857983589E0,1.972882390E0
2.758755909E0,7.297749519E0,-4.831646442E0,1.640078187E0
2.760755875E0,7.221132755E0,-4.819674969E0,1.467690468E0
2.762755875E0,7.087053299E0,-4.807703972E0,1.355159521E0
2.764756775E0,6.996070862E0,-4.805309772E0,1.302485466E0
2.766757541E0,7.010436535E0,-4.807703972E0,1.331216812E0
2.768757807E0,7.017619610E0,-4.812492371E0,1.285725594E0
2.770757840E0,7.084659100E0,-4.831646442E0,1.134886265E0
2.772757873E0,7.146910191E0,-4.846012115E0,1.027143836E0
2.774757906E0,7.149304390E0,-4.927417755E0,9.529213905E-1
2.776757939E0,7.269018173E0,-5.092622280E0,5.961744189E-1
2.778757972E0,7.443800449E0,-5.274587631E0,9.098244458E-2
2.780757972E0,7.443800449E0,-5.425426483E0,5.746259540E-2
2.782757972E0,6.838048935E0,-5.712739468E0,1.206714511E0
2.784757105E0,6.794951916E0,-5.772596359E0,1.295302629E0
2.786756371E0,6.794951916E0,-5.772596359E0,1.295302629E0
2.788756371E0,6.761432171E0,-5.851607800E0,1.376708031E0
2.790756371E0,6.735095024E0,-6.040755272E0,1.508393168E0
2.792756337E0,6.756643295E0,-6.210748672E0,1.594586968E0
2.794756303E0,6.687209606E0,-6.337645531E0,1.640078187E0
2.796756269E0,6.428627968E0,-6.457359314E0,1.611346960E0
2.798756235E0,6.170046329E0,-6.598621368E0,1.522758722E0
2.800756201E0,6.296942711E0,-6.773403645E0,1.280937076E0
2.802756167E0,6.632141113E0,-6.984099388E0,8.786988258E-1
2.804757000E0,6.857203007E0,-7.228315830E0,5.411061049E-1
2.806757700E0,7.130150318E0,-7.539571285E0,3.735068738E-1
2.808757700E0,7.340846539E0,-7.831672668E0,3.351984620E-1
2.810758166E0,7.474925995E0,-8.092648506E0,3.543526828E-1
2.812758199E0,7.573091030E0,-8.344047546E0,4.237866402E-1
2.814758232E0,7.618582249E0,-8.552350044E0,4.908263385E-1
2.816758265E0,7.719141960E0,-8.736708641E0,5.315290093E-1
2.818758298E0,7.860404015E0,-8.945011139E0,5.746259689E-1
2.820758331E0,7.963357925E0,-9.107821465E0,6.177229285E-1
2.822758364E0,8.102226257E0,-9.462174416E0,6.009629965E-1
2.824757497E0,8.102226257E0,-9.462174416E0,6.009629965E-1
2.826756730E0,8.188420296E0,-9.500482559E0,6.153286099E-1
2.828756696E0,8.250671387E0,-9.526819229E0,6.273000240E-1
2.830756662E0,8.274613380E0,-9.548367500E0,6.344828010E-1
2.832756628E0,8.322499275E0,-9.608224869E0,6.177229285E-1
2.834756594E0,8.526012421E0,-9.687235832E0,5.770202279E-1
2.836756560E0,8.751074791E0,-9.749486923E0,5.051919818E-1
2.838756526E0,8.956981659E0,-9.809344292E0,4.333637357E-1
2.840756526E0,9.076695442E0,-9.826104164E0,4.477293789E-1
2.842756592E0,9.112609863E0,-9.780612946E0,5.315290093E-1
2.844757492E0,9.076695442E0,-9.689630508E0,6.512427330E-1
2.846758258E0,8.988107681E0,-9.572310448E0,7.925049663E-1
2.848758291E0,8.940221786E0,-9.421471596E0,9.217957854E-1
2.850758324E0,8.856422424E0,-9.205986977E0,1.039115310E0
2.852758357E0,8.770228386E0,-8.964164734E0,1.146857619E0
2.854758390E0,8.693612099E0,-8.741497040E0,1.245022893E0
2.856758423E0,8.616994858E0,-8.526012421E0,1.326428294E0
2.858758423E0,8.506858826E0,-8.322499275E0,1.374313712E0
2.860758423E0,8.298556328E0,-8.140534401E0,1.388679385E0
2.862758423E0,7.697593689E0,-7.544359684E0,8.930644989E-1
2.864757556E0,7.697593689E0,-7.544359684E0,8.930644989E-1
2.866756822E0,7.697593689E0,-7.544359684E0,8.930644989E-1
2.868756422E0,7.529994488E0,-7.477320194E0,8.020820618E-1
2.870756422E0,7.422251701E0,-7.364789486E0,6.727912426E-1
2.872756388E0,7.350423813E0,-7.228315830E0,5.602602959E-1
2.874756354E0,7.065505028E0,-7.101418972E0,4.573064744E-1
2.876756320E0,6.835654736E0,-6.988888264E0,3.998439014E-1
2.878756286E0,6.687209606E0,-6.888328552E0,3.663240373E-1
2.880756252E0,6.670449734E0,-6.821289062E0,3.591412306E-1
2.882756218E0,6.759037971E0,-6.773403645E0,3.782954216E-1
2.884757051E0,6.653689861E0,-6.701575279E0,3.687183261E-1
2.886757784E0,6.481301785E0,-6.636929989E0,3.423812985E-1
2.888757784E0,6.416656494E0,-6.608198643E0,3.711125851E-1
2.890757817E0,6.423839092E0,-6.610592842E0,4.525179267E-1
2.892757850E0,6.450176239E0,-6.603409767E0,5.339232683E-1
2.894757883E0,6.517216206E0,-6.624958515E0,6.344828010E-1
2.896757916E0,6.615381241E0,-6.660872459E0,7.182824612E-1
2.898757949E0,6.780586243E0,-6.727912426E0,8.020820618E-1
2.900757982E0,6.972128391E0,-6.809317589E0,9.098244309E-1
2.902757948E0,7.113390446E0,-7.130150318E0,1.180377483E0
2.904757048E0,7.113390446E0,-7.130150318E0,1.180377483E0
2.906756281E0,7.113390446E0,-7.130150318E0,1.180377483E0
2.908756247E0,7.101418972E0,-7.166064739E0,1.213897347E0
2.910755813E0,7.005648136E0,-7.213950157E0,1.247417212E0
2.912755779E0,6.976916790E0,-7.254652500E0,1.295302629E0
2.914755745E0,7.103813171E0,-7.278595448E0,1.400650740E0
2.916755711E0,7.067899227E0,-7.228315830E0,1.515576005E0
2.918755711E0,6.708757877E0,-7.103813171E0,1.642472506E0
2.920755711E0,6.632141113E0,-7.082264900E0,1.685569525E0
2.922755711E0,6.591438770E0,-7.142121792E0,1.620923996E0
2.924756577E0,6.500456333E0,-7.216344357E0,1.525153041E0
2.926757310E0,6.452570438E0,-7.271412373E0,1.417410731E0
2.928757710E0,6.299336910E0,-7.319298267E0,1.295302629E0
2.930757710E0,6.246663094E0,-7.376760483E0,1.163617611E0
2.932757710E0,6.220325947E0,-7.448588848E0,1.029538155E0
2.934757710E0,6.146103382E0,-7.551542759E0,9.122186899E-1
2.936757743E0,5.973715782E0,-7.628159523E0,8.116591573E-1
2.938757776E0,5.834847927E0,-7.726325035E0,7.206767201E-1
2.940757809E0,5.693585396E0,-7.807730198E0,6.177229285E-1
2.942757842E0,5.851607800E0,-7.941809654E0,4.477293789E-1
2.944757008E0,5.851607800E0,-7.941809654E0,4.477293789E-1
2.946756308E0,5.851607800E0,-7.941809654E0,4.477293789E-1
2.948756341E0,5.856396198E0,-7.960963726E0,4.549122155E-1
2.950756341E0,5.798933506E0,-7.994483471E0,4.908263385E-1
2.952756307E0,5.703162670E0,-8.008849144E0,5.506832004E-1
2.954756273E0,5.614574432E0,-8.008849144E0,6.416656375E-1
2.956756239E0,5.729499817E0,-8.032792091E0,7.589851022E-1
2.958756205E0,5.954561234E0,-8.068706512E0,8.571503758E-1
2.960756171E0,6.093429565E0,-8.107014656E0,9.170072675E-1
2.962756137E0,6.045543671E0,-8.138139725E0,9.648927450E-1
2.964757003E0,6.019207001E0,-8.138139725E0,1.022355318E0
2.966757736E0,6.114977837E0,-8.102226257E0,1.089395046E0
2.968757769E0,6.198777676E0,-8.075888634E0,1.206714511E0
2.970758202E0,6.335251331E0,-8.095043182E0,1.350371003E0
2.972758235E0,6.296942711E0,-8.068706512E0,1.431776285E0
2.974758268E0,6.237085819E0,-8.047157288E0,1.460507631E0
2.976758301E0,6.246663094E0,-8.039975166E0,1.489238977E0
2.978758334E0,6.313702583E0,-7.956175327E0,1.455719113E0
2.980758367E0,6.371165276E0,-7.855615616E0,1.391073704E0
2.982758367E0,6.589044094E0,-7.630553722E0,1.242628574E0
2.984757500E0,6.703969479E0,-7.587456703E0,1.182771802E0
2.986756633E0,6.703969479E0,-7.587456703E0,1.182771802E0
2.988756699E0,6.754249096E0,-7.544359684E0,1.115732074E0
2.990756699E0,6.624958515E0,-7.436617374E0,9.744698405E-1
2.992756699E0,6.517216206E0,-7.316903591E0,8.667274714E-1
2.994756699E0,6.574678421E0,-7.173247337E0,8.116591573E-1
2.996756665E0,6.718335152E0,-7.022408009E0,7.972934842E-1
2.998756298E0,6.794951916E0,-6.852414608E0,7.685621977E-1
3.000756264E0,6.598621368E0,-6.653689861E0,7.206767201E-1
3.002756230E0,6.299336910E0,-6.457359314E0,6.871568561E-1
3.004757063E0,5.952167034E0,-6.246663094E0,6.440598965E-1
3.006757763E0,5.559505939E0,-6.059909344E0,5.865973234E-1
3.008757729E0,5.233884811E0,-5.966532707E0,5.315290093E-1
3.010757695E0,4.929811954E0,-5.961744308E0,5.099805593E-1
3.012756961E0,4.738269806E0,-6.023995399E0,5.482889414E-1
3.014756994E0,4.783761024E0,-6.141314983E0,6.249057055E-1
3.016757027E0,4.683201313E0,-6.251451492E0,6.727912426E-1
3.018757060E0,4.601796150E0,-6.390319347E0,7.398309112E-1
3.020757093E0,4.747847080E0,-6.493273258E0,7.661679387E-1
3.022757126E0,4.898686409E0,-6.727912426E0,8.810931444E-1
3.024756292E0,4.898686409E0,-6.727912426E0,8.810931444E-1
3.026755592E0,4.889109135E0,-6.763826370E0,9.170072675E-1
3.028755592E0,4.893897533E0,-6.792557716E0,9.529213905E-1
3.030755558E0,4.929811954E0,-6.857203007E0,1.053480864E0
3.032755524E0,5.071074009E0,-6.967339516E0,1.166011810E0
3.034756090E0,5.291347504E0,-7.079870701E0,1.249811411E0
3.036756056E0,5.480494976E0,-7.194795609E0,1.300091267E0
3.038756022E0,5.681613922E0,-7.307326794E0,1.307274103E0
3.040755988E0,5.976109982E0,-7.412674904E0,1.285725594E0
3.042755988E0,6.143709183E0,-7.460560322E0,1.273754239E0
3.044756854E0,6.409473896E0,-7.534782887E0,1.237840056E0
3.046757754E0,6.586649895E0,-7.597033978E0,1.216291547E0
3.048757720E0,6.699181080E0,-7.635342598E0,1.189954638E0
3.050757753E0,6.703969479E0,-7.630553722E0,1.146857619E0
3.052757786E0,6.629746914E0,-7.628159523E0,1.103760719E0
3.054757819E0,6.435810566E0,-7.616188049E0,1.089395046E0
3.056757852E0,6.304125786E0,-7.594639778E0,1.077423692E0
3.058758218E0,6.265817165E0,-7.585062504E0,1.058269501E0
3.060758251E0,6.292154312E0,-7.580274105E0,1.005595446E0
3.062758251E0,5.880339146E0,-7.709564686E0,7.757450342E-1
3.064757384E0,5.880339146E0,-7.709564686E0,7.757450342E-1
3.066756650E0,5.880339146E0,-7.709564686E0,7.757450342E-1
3.068756650E0,5.830059052E0,-7.745479107E0,7.589851022E-1
3.070756650E0,5.691191196E0,-7.846038342E0,7.494080067E-1
3.072757383E0,5.638517380E0,-7.999272346E0,7.637736797E-1
3.074757349E0,5.638517380E0,-8.162082672E0,7.685621977E-1
3.076757315E0,5.468523502E0,-8.300951004E0,7.589851022E-1
3.078757281E0,5.269798756E0,-8.444606781E0,7.494080067E-1
3.080757247E0,5.150084972E0,-8.571503639E0,7.853221297E-1
3.082757213E0,5.197970390E0,-8.703188896E0,8.260248303E-1
3.084758046E0,5.255433083E0,-8.789382935E0,8.451790214E-1
3.086758746E0,5.332049847E0,-8.837267876E0,8.451790214E-1
3.088758712E0,5.511620522E0,-8.885153770E0,8.475732803E-1
3.090758712E0,5.803721905E0,-8.949799538E0,8.571503758E-1
3.092758745E0,6.098217964E0,-8.997684479E0,8.523618579E-1
3.094758178E0,6.282577038E0,-9.004867554E0,8.451790214E-1
3.096758211E0,6.490879059E0,-9.019232750E0,8.499675393E-1
3.098758244E0,6.715940952E0,-9.045570374E0,8.739103079E-1
3.100758277E0,6.799740314E0,-9.067118645E0,9.385557175E-1
3.102758310E0,6.296942711E0,-8.985713005E0,1.494027495E0
3.104757476E0,6.296942711E0,-8.985713005E0,1.494027495E0
3.106756742E0,6.296942711E0,-8.985713005E0,1.494027495E0
3.108756275E0,6.112583637E0,-8.937828064E0,1.556278586E0
3.110756241E0,5.822876453E0,-8.801354408E0,1.644866824E0
3.112756207E0,5.669642925E0,-8.643332481E0,1.635289669E0
3.114756173E0,5.363175392E0,-8.461367607E0,1.491633177E0
3.116756139E0,4.664047241E0,-8.135746002E0,1.144463301E0
3.118756105E0,4.110970020E0,-7.819701672E0,9.122186899E-1
3.120756071E0,4.079844475E0,-7.620976925E0,6.871568561E-1
3.122756071E0,4.292934895E0,-7.345634937E0,4.189980924E-1
3.124756971E0,4.376734257E0,-7.070293427E0,2.585816681E-1
3.126757737E0,4.316877365E0,-6.842837334E0,2.274561077E-1
3.128757770E0,4.419831276E0,-6.711152077E0,2.633702159E-1
3.130757803E0,4.520390987E0,-6.610592842E0,2.490045726E-1
3.132757836E0,4.355185986E0,-6.488484859E0,1.963305324E-1
3.134757869E0,4.170826912E0,-6.378347874E0,1.675992310E-1
3.136757902E0,4.048718929E0,-6.270605564E0,1.245022863E-1
3.138757935E0,4.010410309E0,-6.177228928E0,9.577099234E-2
3.140757935E0,3.888302326E0,-6.095823765E0,1.221080124E-1
3.142757935E0,3.335224867E0,-6.201171875E0,6.488484740E-1
3.144757068E0,3.335224867E0,-6.201171875E0,6.488484740E-1
3.146756334E0,3.335224867E0,-6.201171875E0,6.488484740E-1
3.148756167E0,3.280156374E0,-6.251451492E0,7.422251701E-1
3.150756167E0,3.189173937E0,-6.407079220E0,9.098244309E-1
3.152756133E0,3.160442829E0,-6.567495823E0,1.070240855E0
3.154756099E0,3.131711483E0,-6.720729351E0,1.197137356E0
3.156756065E0,2.952140808E0,-6.790163517E0,1.328822494E0
3.158756031E0,2.887495518E0,-6.861991405E0,1.453324795E0
3.160755997E0,2.973689318E0,-6.929031372E0,1.527547359E0
3.162755963E0,3.100585938E0,-7.027196407E0,1.568249941E0
3.164756796E0,3.122134447E0,-7.144515991E0,1.546701550E0
3.166757496E0,2.930592299E0,-7.400703430E0,1.486844659E0
3.168757929E0,2.588211060E0,-7.817307472E0,1.426987767E0
3.170757962E0,2.389486313E0,-8.197997093E0,1.381496549E0
3.172757995E0,2.403851986E0,-8.442213058E0,1.324033976E0
3.174758028E0,2.686376333E0,-8.573898315E0,1.228263021E0
3.176758061E0,3.153259993E0,-8.566715240E0,1.144463301E0
3.178758094E0,3.718308687E0,-8.439818382E0,1.122914910E0
3.180758127E0,4.115758419E0,-8.250671387E0,1.127703428E0
3.182758160E0,4.714327335E0,-7.989695072E0,1.055875182E0
3.184757293E0,4.764606953E0,-8.016032219E0,1.048692346E0
3.186756526E0,4.764606953E0,-8.016032219E0,1.048692346E0
3.188756492E0,4.814886570E0,-8.073494911E0,1.048692346E0
3.190756458E0,4.951360226E0,-8.188420296E0,1.036720991E0
3.192756424E0,5.061496735E0,-8.229122162E0,9.792584181E-1
3.194756390E0,5.097411156E0,-8.238699913E0,8.882759809E-1
3.196756356E0,5.162056446E0,-8.207573891E0,7.589851022E-1
3.198756322E0,5.296135902E0,-8.107014656E0,6.296942830E-1
3.200756322E0,5.502043724E0,-7.996877670E0,5.291347504E-1
3.202756355E0,5.578660488E0,-7.910684109E0,4.429408312E-1
3.204757255E0,5.523591995E0,-7.953781128E0,3.782954216E-1
3.206758021E0,5.396695614E0,-8.073494911E0,3.280156553E-1
3.208758221E0,5.334444046E0,-8.107014656E0,3.160442710E-1
3.210758254E0,5.480494976E0,-8.044763565E0,3.232271075E-1
3.212758287E0,5.669642925E0,-7.965752125E0,3.687183261E-1
3.214758320E0,5.753442287E0,-7.941809654E0,4.333637357E-1
3.216758353E0,5.681613922E0,-7.944203854E0,4.908263385E-1
3.218758353E0,5.576265812E0,-7.913078308E0,5.243461728E-1
3.220758353E0,5.557111740E0,-7.869981289E0,5.387118459E-1
3.222758353E0,5.444581032E0,-7.910684109E0,6.440598965E-1
3.224757486E0,5.413455486E0,-7.944203854E0,7.063110471E-1
3.226756752E0,5.413455486E0,-7.944203854E0,7.063110471E-1
3.228756352E0,5.389512539E0,-7.975329399E0,7.733507752E-1
3.230756318E0,5.334444046E0,-8.037580490E0,8.954587579E-1
3.232756284E0,5.221913338E0,-8.111803055E0,9.936240315E-1
3.234756250E0,5.090228081E0,-8.171659470E0,1.053480864E0
3.236756216E0,5.011217117E0,-8.202785492E0,1.063058019E0
3.238756182E0,4.886714935E0,-8.195602417E0,1.039115310E0
3.240756448E0,4.817280769E0,-8.130957603E0,1.017566800E0
3.242756414E0,4.822069645E0,-7.937020779E0,9.888355136E-1
3.244757247E0,4.903474808E0,-7.628159523E0,9.194015265E-1
3.246757980E0,5.049525738E0,-7.283383846E0,8.308133483E-1
3.248758013E0,5.185999393E0,-6.960156918E0,7.422251701E-1
3.250758046E0,5.212336063E0,-6.651295185E0,6.584255695E-1
3.252758079E0,5.241067410E0,-6.359193802E0,5.865973234E-1
3.254758112E0,5.288952827E0,-6.220325947E0,5.578660369E-1
3.256758145E0,5.370358467E0,-5.956955910E0,5.267404318E-1
3.258758178E0,5.370358467E0,-5.715134144E0,4.932205975E-1
3.260758211E0,5.310501575E0,-5.506832123E0,4.620950520E-1
3.262758211E0,4.829252243E0,-5.212336063E0,3.830839694E-1
3.264757311E0,4.829252243E0,-5.212336063E0,3.830839694E-1
3.266756544E0,4.829252243E0,-5.212336063E0,3.830839694E-1
3.268756510E0,4.702355862E0,-5.233884811E0,3.806896806E-1
3.270756476E0,4.438985348E0,-5.310501575E0,3.687183261E-1
3.272756442E0,4.285751820E0,-5.365570068E0,3.471698463E-1
3.274756408E0,4.096604347E0,-5.439792156E0,3.447755575E-1
3.276756374E0,3.830839634E0,-5.552323341E0,3.112557232E-1
3.278756374E0,3.651269197E0,-5.691191196E0,2.561874092E-1
3.280756407E0,3.435784340E0,-5.865973473E0,1.891477108E-1
3.282756440E0,3.105374336E0,-6.033572674E0,1.388679445E-1
3.284757340E0,2.832427025E0,-6.193988800E0,9.816526622E-2
3.286758106E0,2.662433624E0,-6.366376877E0,8.379961550E-2
3.288758539E0,2.533142805E0,-6.505244732E0,1.245022863E-1
3.290758572E0,2.377514839E0,-6.617775440E0,2.178790122E-1
3.292758605E0,2.267378330E0,-6.727912426E0,3.375927508E-1
3.294758638E0,2.286532402E0,-6.780586243E0,3.782954216E-1
3.296758638E0,2.315263748E0,-6.701575279E0,2.585816681E-1
3.298758638E0,2.142875910E0,-6.296942711E0,-1.604164094E-1
3.300758338E0,1.936968327E0,-5.942590237E0,-5.004034638E-1
3.302758338E0,1.671203852E0,-5.217124939E0,-1.197137386E-1
3.304757471E0,1.671203852E0,-5.217124939E0,-1.197137386E-1
3.306756737E0,1.671203852E0,-5.217124939E0,-1.197137386E-1
3.308756703E0,1.845985889E0,-5.145296574E0,1.053480953E-1
3.310756036E0,2.257801056E0,-5.061496735E0,4.549122155E-1
3.312756002E0,2.423006058E0,-4.886714935E0,5.027977228E-1
3.314755968E0,2.415823221E0,-4.678412914E0,2.202732861E-1
3.316755934E0,2.384697676E0,-4.522785187E0,-2.394274771E-1
3.318755900E0,2.502017260E0,-4.434196949E0,-5.339232683E-1
3.320755866E0,2.676799297E0,-4.517996788E0,-2.873129845E-1
3.322755832E0,2.803695917E0,-4.786155224E0,6.703969836E-2
3.324756698E0,2.664827824E0,-5.023188591E0,1.077423692E-1
3.326757464E0,2.442160368E0,-5.178816319E0,-3.040728867E-1
3.328757497E0,2.449343204E0,-5.320078850E0,-5.291347504E-1
3.330757530E0,2.664827824E0,-5.449369431E0,-4.213923812E-1
3.332757563E0,2.837215662E0,-5.607391834E0,-3.543526828E-1
3.334757596E0,2.968900681E0,-5.937801361E0,-2.585816681E-1
3.336757629E0,3.059883118E0,-6.263422966E0,-2.226675600E-1
3.338757662E0,3.071854591E0,-6.476513386E0,-3.423812985E-1
3.340757662E0,3.031152010E0,-6.589044094E0,-5.626545548E-1
3.342757628E0,3.344801903E0,-6.907482624E0,-4.333637357E-1
3.344756728E0,3.344801903E0,-6.907482624E0,-4.333637357E-1
3.346755961E0,3.344801903E0,-6.907482624E0,-4.333637357E-1
3.348755927E0,3.387898922E0,-6.933819771E0,-4.501236677E-1
3.350755893E0,3.385504484E0,-6.981705189E0,-4.549122155E-1
3.352755859E0,3.323253393E0,-7.022408009E0,-4.980091453E-1
3.354755825E0,3.246636629E0,-7.051139355E0,-5.602602959E-1
3.356755825E0,3.229876757E0,-7.120573044E0,-4.477293789E-1
3.358755858E0,3.155654192E0,-7.163670063E0,-5.698373914E-1
3.360755891E0,3.050306082E0,-7.180429935E0,-6.632141471E-1
3.362755924E0,2.985660791E0,-7.206767082E0,-4.644893110E-1
3.364756824E0,2.885101080E0,-7.185218811E0,-5.961744189E-1
3.366757590E0,2.796513081E0,-7.132544518E0,-6.991282701E-1
3.368757623E0,2.762993097E0,-7.072687626E0,-5.435003638E-1
3.370758289E0,2.767781734E0,-7.024802208E0,-4.812492430E-1
3.372758322E0,2.762993097E0,-6.981705189E0,-5.626545548E-1
3.374758322E0,2.707924843E0,-6.957762718E0,-5.818088055E-1
3.376758322E0,2.640885115E0,-6.962551117E0,-4.788549542E-1
3.378758322E0,2.609759569E0,-6.986494064E0,-2.825244367E-1
3.380758322E0,2.557085514E0,-7.058321953E0,-1.149251908E-1
3.382758322E0,2.245829821E0,-7.316903591E0,-2.202732861E-1
3.384757455E0,2.245829821E0,-7.316903591E0,-2.202732861E-1
3.386756688E0,2.245829821E0,-7.316903591E0,-2.202732861E-1
3.388756654E0,2.121327400E0,-7.316903591E0,-3.687183261E-1
3.390756620E0,1.958516836E0,-7.319298267E0,-7.063110471E-1
3.392756586E0,1.934574008E0,-7.367183685E0,-1.084606528E0
3.394756552E0,1.893871427E0,-7.546754360E0,-1.371919513E0
3.396756518E0,2.071047783E0,-8.312922478E0,-1.398256540E0
3.398757151E0,2.980872154E0,-1.082691097E1,-1.209108829E0
3.400757117E0,4.752635479E0,-1.552208328E1,-6.536370516E-1
3.402757117E0,6.699181080E0,-2.129228592E1,1.843591630E-1
3.404758017E0,8.231516838E0,-2.658363342E1,1.098972082E0
3.406758783E0,9.510059357E0,-3.059404373E1,2.078230619E0
3.408758816E0,1.075029373E1,-3.330436325E1,3.002420664E0
3.410758849E0,1.192827702E1,-3.490373993E1,3.569863796E0
3.412758882E0,1.294823837E1,-3.568187714E1,3.644086361E0
3.414758915E0,1.382933140E1,-3.590454483E1,3.265790939E0
3.416758948E0,1.466972160E1,-3.560525894E1,2.480468750E0
3.418758948E0,1.540955257E1,-3.467867661E1,1.261782765E0
3.420758914E0,1.545265007E1,-3.291409683E1,-2.777358890E-1
3.422758880E0,9.514847755E0,-2.408879852E1,-2.911438227E0
3.424757980E0,8.336864471E0,-2.259955978E1,-2.940169573E0
3.426757213E0,8.336864471E0,-2.259955978E1,-2.940169573E0
3.428756779E0,7.300143719E0,-2.118933296E1,-2.925803900E0
3.430756745E0,5.652883053E0,-1.864900589E1,-2.839609861E0
3.432756711E0,4.438985348E0,-1.641754150E1,-2.695953369E0
3.434756711E0,3.543526649E0,-1.437043762E1,-2.458920240E0
3.436756744E0,2.846792698E0,-1.246459484E1,-2.071047783E0
3.438756777E0,2.394274712E0,-1.072635078E1,-1.508393168E0
3.440756810E0,2.154847383E0,-9.148524284E0,-8.523618579E-1
3.442756843E0,1.939362645E0,-7.767027378E0,-1.652049571E-1
3.444757743E0,1.604164124E0,-6.622564316E0,6.033572555E-1
3.446758509E0,3.184385598E-1,-5.387118340E0,1.606558442E0
3.448758542E0,-2.911438227E0,-3.656057596E0,2.487651587E0
3.450758575E0,-6.524398804E0,-2.200338602E0,2.743839025E0
3.452758575E0,-7.829278469E0,-1.359948039E0,3.363956213E0
3.454758575E0,-6.694392204E0,-7.302538157E-1,4.508419514E0
3.456758575E0,-5.114171028E0,-3.375927508E-1,5.411061287E0
3.458757908E0,-4.101392746E0,-3.519583941E-1,5.791750908E0
3.460757908E0,-3.198751211E0,-8.236305118E-1,5.818087578E0
3.462757908E0,3.823656797E0,-4.695172787E0,4.192375183E0
3.464757008E0,3.823656797E0,-4.695172787E0,4.192375183E0
3.466756241E0,5.324867249E0,-5.499649048E0,3.761405706E0
3.468756207E0,5.324867249E0,-5.499649048E0,3.761405706E0
3.470756173E0,8.130957603E0,-7.008042336E0,2.918621063E0
3.472756139E0,1.036721039E1,-8.291373253E0,2.224281311E0
3.474756105E0,1.196658516E1,-9.203592300E0,1.491633177E0
3.476756071E0,1.303443241E1,-9.794978142E0,5.937801600E-1
3.478756037E0,1.348694992E1,-1.018524456E1,-3.543526828E-1
3.480756037E0,1.323076248E1,-1.037918091E1,-1.235445857E0
3.482756070E0,1.245980644E1,-1.044622135E1,-2.023162127E0
3.484756970E0,1.133689117E1,-1.042467213E1,-2.765387297E0
3.486757736E0,1.002004051E1,-1.030495834E1,-3.375927448E0
3.488758169E0,8.628966331E0,-1.014933109E1,-3.852388144E0
3.490758202E0,7.278595448E0,-1.001285744E1,-4.242654800E0
3.492758235E0,6.100612164E0,-9.885960579E0,-4.537150860E0
3.494758268E0,5.102199554E0,-9.794978142E0,-4.659258842E0
3.496758268E0,4.307300568E0,-9.754275322E0,-4.635315895E0
3.498758234E0,3.739857197E0,-9.759063721E0,-4.608979225E0
3.500758200E0,3.450150013E0,-9.818921089E0,-4.417437077E0
3.502758166E0,2.842004299E0,-1.016609097E1,-2.715107679E0
3.504757266E0,2.842004299E0,-1.016609097E1,-2.715107679E0
3.506756499E0,2.842004299E0,-1.016609097E1,-2.715107679E0
3.508756299E0,2.741444588E0,-1.019003391E1,-2.437371731E0
3.510756265E0,2.631308079E0,-1.018524456E1,-1.886688590E0
3.512756265E0,2.595393896E0,-1.015172482E1,-1.357553840E0
3.514755398E0,2.497228622E0,-1.009665680E1,-8.451790214E-1
3.516755431E0,2.387091875E0,-1.003201103E1,-4.764606953E-1
3.518755464E0,2.284138203E0,-9.953000069E0,-1.604164094E-1
3.520755497E0,2.126116037E0,-9.864412308E0,2.202732861E-1
3.522755530E0,1.924996972E0,-9.797372818E0,5.746259689E-1
3.524756430E0,1.709512234E0,-9.739910126E0,8.547561169E-1
3.526757196E0,1.465296149E0,-9.730332375E0,1.151646137E0
3.528757229E0,1.254600048E0,-9.737515450E0,1.376708031E0
3.530757229E0,1.144463301E0,-9.732727051E0,1.510787368E0
3.532757229E0,1.063058019E0,-9.725543976E0,1.656838179E0
3.534757229E0,9.553156495E-1,-9.713572502E0,1.834014535E0
3.536757229E0,8.379961848E-1,-9.684841156E0,1.917814136E0
3.538757229E0,7.925049663E-1,-9.627379417E0,1.889082789E0
3.540757229E0,8.427847624E-1,-9.572310448E0,1.817254543E0
3.542757195E0,1.415016413E0,-9.443019867E0,1.573038578E0
3.544756295E0,1.415016413E0,-9.443019867E0,1.573038578E0
3.546755528E0,1.415016413E0,-9.443019867E0,1.573038578E0
3.548755494E0,1.522758722E0,-9.419076920E0,1.489238977E0
3.550755460E0,1.807677507E0,-9.359220505E0,1.290514112E0
3.552755426E0,2.092596292E0,-9.306546211E0,1.168406129E0
3.554754926E0,2.286532402E0,-9.261054993E0,1.110943556E0
3.556754892E0,2.427794695E0,-9.232323647E0,1.019961119E0
3.558754892E0,2.566662550E0,-9.222746849E0,8.906702399E-1
3.560754725E0,2.729473352E0,-9.220352173E0,7.350423932E-1
3.562754758E0,2.909043789E0,-9.241900444E0,5.770202279E-1
3.564755658E0,3.055094719E0,-9.273026466E0,3.854782581E-1
3.566756424E0,3.136499882E0,-9.280209541E0,1.460507661E-1
3.568756624E0,3.203539610E0,-9.282603264E0,-1.053480953E-1
3.570757224E0,3.246636629E0,-9.287391663E0,-3.782954216E-1
3.572757257E0,3.263396502E0,-9.296969414E0,-6.368771195E-1
3.574758157E0,3.234665155E0,-9.325700760E0,-8.667274714E-1
3.576758123E0,3.198751211E0,-9.366402626E0,-1.077423692E0
3.578758089E0,3.222693920E0,-9.407105446E0,-1.206714511E0
3.580758055E0,3.275367975E0,-9.435836792E0,-1.283331275E0
3.582758021E0,3.177202702E0,-9.550762177E0,-1.199531674E0
3.584757121E0,3.177202702E0,-9.550762177E0,-1.199531674E0
3.586756354E0,3.177202702E0,-9.550762177E0,-1.199531674E0
3.588756587E0,3.179596901E0,-9.560338974E0,-1.130097747E0
3.590756587E0,3.167625666E0,-9.584281921E0,-9.840469360E-1
3.592756587E0,3.112557173E0,-9.608224869E0,-8.763045669E-1
3.594756587E0,3.074248791E0,-9.608224869E0,-7.996878028E-1
3.596756587E0,3.088614464E0,-9.562733650E0,-6.919454336E-1
3.598756587E0,3.124528646E0,-9.495694160E0,-5.674431324E-1
3.600756587E0,3.179596901E0,-9.423865318E0,-4.860377908E-1
3.602756587E0,3.203539610E0,-9.342460632E0,-4.477293789E-1
3.604757453E0,3.148471355E0,-9.265843391E0,-3.926610649E-1
3.606758186E0,3.011997700E0,-9.201197624E0,-3.112557232E-1
3.608758219E0,2.796513081E0,-9.170072556E0,-2.274561077E-1
3.610758252E0,2.540325642E0,-9.177255630E0,-1.556278616E-1
3.612758285E0,2.312869549E0,-9.237112045E0,-9.577099234E-2
3.614758785E0,2.152452946E0,-9.325700760E0,-5.027977005E-2
3.616758818E0,2.054287672E0,-9.411893845E0,-2.873129770E-2
3.618758851E0,2.008796453E0,-9.478934288E0,-9.577099234E-3
3.620759051E0,2.001613855E0,-9.517242432E0,-9.577099234E-3
3.622759051E0,2.042316437E0,-9.459779739E0,-3.351984918E-2
3.624758151E0,2.049499273E0,-9.438231468E0,-2.633702382E-2
3.626757384E0,2.049499273E0,-9.438231468E0,-2.633702382E-2
3.628757350E0,2.051893473E0,-9.414288521E0,-1.436564885E-2
3.630756750E0,2.059076309E0,-9.373585701E0,1.675992459E-2
3.632756716E0,2.071047783E0,-9.337671280E0,4.788549617E-2
3.634756682E0,2.094990492E0,-9.284997940E0,7.661679387E-2
3.636756682E0,2.133298874E0,-9.241900444E0,1.029538140E-1
3.638756682E0,2.176395893E0,-9.208380699E0,1.388679445E-1
3.640756715E0,2.245829821E0,-9.186832428E0,1.508393139E-1
3.642756748E0,2.332023621E0,-9.162889481E0,1.460507661E-1
3.644757648E0,2.430188894E0,-9.143735886E0,1.292908341E-1
3.646758414E0,2.533142805E0,-9.138946533E0,1.029538140E-1
3.648758180E0,2.619336605E0,-9.153312683E0,6.943397224E-2
3.650758213E0,2.679193497E0,-9.165284157E0,2.394274808E-2
3.652758246E0,2.724684715E0,-9.177255630E0,-2.633702382E-2
3.654758246E0,2.765387297E0,-9.191620827E0,-6.703969836E-2
3.656758246E0,2.784541607E0,-9.205986977E0,-9.337671846E-2
3.658758246E0,2.774964571E0,-9.215563774E0,-9.337671846E-2
3.660758246E0,2.762993097E0,-9.222746849E0,-8.858817071E-2
3.662758246E0,2.719896078E0,-9.227535248E0,-1.436564885E-2
3.664757379E0,2.719896078E0,-9.227535248E0,-1.436564885E-2
3.666756645E0,2.703136206E0,-9.229928970E0,4.788549617E-3
3.668756611E0,2.683982134E0,-9.227535248E0,2.633702382E-2
3.670756577E0,2.648067951E0,-9.227535248E0,6.703969836E-2
3.672756543E0,2.619336605E0,-9.227535248E0,9.816526622E-2
3.674756509E0,2.595393896E0,-9.241900444E0,1.173194647E-1
3.676756475E0,2.578634024E0,-9.244295120E0,1.197137386E-1
3.678756441E0,2.542719841E0,-9.253871918E0,1.173194647E-1
3.680756407E0,2.509200096E0,-9.270631790E0,1.149251908E-1
3.682756740E0,2.468497276E0,-9.284997940E0,9.577099234E-2
3.684757606E0,2.420611858E0,-9.287391663E0,5.506832153E-2
3.686758372E0,2.363149166E0,-9.287391663E0,7.182824425E-3
3.688758405E0,2.312869549E0,-9.299363136E0,-5.027977005E-2
3.690758438E0,2.293715239E0,-9.320911407E0,-1.029538140E-1
3.692758471E0,2.293715239E0,-9.347249031E0,-1.580221355E-1
3.694758504E0,2.298503876E0,-9.368797302E0,-2.083019018E-1
3.696758537E0,2.288926601E0,-9.395133972E0,-2.681587934E-1
3.698758570E0,2.260195494E0,-9.426259995E0,-3.280156553E-1
3.700758570E0,2.231464148E0,-9.440625191E0,-3.782954216E-1
3.702758536E0,2.226675510E0,-9.447808266E0,-4.884320498E-1
3.704757636E0,2.226675510E0,-9.447808266E0,-4.884320498E-1
3.706756869E0,2.224281311E0,-9.445414543E0,-4.956148863E-1
3.708756835E0,2.224281311E0,-9.445414543E0,-4.956148863E-1
3.710756801E0,2.209915638E0,-9.438231468E0,-4.884320498E-1
3.712756767E0,2.195549965E0,-9.426259995E0,-4.525179267E-1
3.714756767E0,2.188367128E0,-9.414288521E0,-3.950553536E-1
3.716756767E0,2.185972929E0,-9.404711723E0,-3.328042030E-1
3.718756800E0,2.181184292E0,-9.390345573E0,-2.561874092E-1
3.720756833E0,2.181184292E0,-9.373585701E0,-1.675992310E-1
3.722756866E0,2.185972929E0,-9.380768776E0,-1.173194647E-1
3.724757766E0,2.188367128E0,-9.390345573E0,-1.125309169E-1
3.726758532E0,2.190761566E0,-9.378374100E0,-9.816526622E-2
3.728758565E0,2.181184292E0,-9.373585701E0,-7.661679387E-2
3.730758598E0,2.176395893E0,-9.373585701E0,-8.379961550E-2
3.732758598E0,2.174001455E0,-9.335277557E0,-1.005595401E-1
3.734758598E0,2.188367128E0,-9.263449669E0,-1.101366431E-1
3.736758598E0,2.238646984E0,-9.182044029E0,-1.005595401E-1
3.738758598E0,2.308080912E0,-9.088666916E0,-1.197137386E-1
3.740758598E0,2.384697676E0,-9.000079155E0,-1.484450400E-1
3.742758231E0,2.525959969E0,-8.734314919E0,-3.591412306E-2
3.744757364E0,2.525959969E0,-8.734314919E0,-3.591412306E-2
3.746756597E0,2.525959969E0,-8.734314919E0,-3.591412306E-2
3.748756563E0,2.525959969E0,-8.729525566E0,-5.506832153E-2
3.750756529E0,2.573845387E0,-8.722343445E0,-1.221080124E-1
3.752756495E0,2.676799297E0,-8.676852226E0,-2.059076279E-1
3.754756461E0,2.810878515E0,-8.595446587E0,-2.442160249E-1
3.756756427E0,2.971295118E0,-8.502069473E0,-1.412622184E-1
3.758756393E0,2.913832426E0,-8.578686714E0,-4.549122229E-2
3.760756359E0,2.664827824E0,-8.765439987E0,-8.858817071E-2
3.762756359E0,2.425400496E0,-8.909096718E0,-2.130904645E-1
3.764757259E0,2.298503876E0,-8.964164734E0,-3.663240373E-1
3.766757692E0,2.276955366E0,-8.976136208E0,-5.051919818E-1
3.768757725E0,2.303292274E0,-8.968953133E0,-6.225114465E-1
3.770757758E0,2.358360767E0,-8.971347809E0,-7.182824612E-1
3.772757791E0,2.415823221E0,-8.983319283E0,-7.829278708E-1
3.774757824E0,2.461314440E0,-9.004867554E0,-8.212362528E-1
3.776757857E0,2.490045786E0,-9.033598900E0,-8.451790214E-1
3.778757857E0,2.506805658E0,-9.050358772E0,-8.619389534E-1
3.780757823E0,2.504411459E0,-9.050358772E0,-8.786988258E-1
3.782757789E0,2.449343204E0,-9.131764412E0,-7.948992252E-1
3.784756889E0,2.449343204E0,-9.131764412E0,-7.948992252E-1
3.786756122E0,2.449343204E0,-9.131764412E0,-7.948992252E-1
3.788755688E0,2.439765930E0,-9.153312683E0,-7.805336118E-1
3.790755654E0,2.439765930E0,-9.194015503E0,-7.302538157E-1
3.792755654E0,2.451737404E0,-9.246688843E0,-6.560313106E-1
3.794755654E0,2.446948767E0,-9.311334610E0,-5.937801600E-1
3.796755687E0,2.434977531E0,-9.371191978E0,-5.435003638E-1
3.798755720E0,2.394274712E0,-9.407105446E0,-4.980091453E-1
3.800755753E0,2.332023621E0,-9.419076920E0,-4.716721475E-1
3.802755786E0,2.272166729E0,-9.428654671E0,-4.764606953E-1
3.804756686E0,2.219492674E0,-9.445414543E0,-4.692778587E-1
3.806757452E0,2.190761566E0,-9.459779739E0,-4.549122155E-1
3.808757485E0,2.183578730E0,-9.443019867E0,-4.333637357E-1
3.810757518E0,2.200338602E0,-9.459779739E0,-3.471698463E-1
3.812757518E0,2.229069948E0,-9.490905762E0,-2.801301479E-1
3.814757518E0,2.267378330E0,-9.495694160E0,-2.490045726E-1
3.816757518E0,2.264983892E0,-9.507665634E0,-1.891477108E-1
3.818757518E0,2.238646984E0,-9.517242432E0,-1.436564922E-1
3.820757518E0,2.226675510E0,-9.486116409E0,-1.268965602E-1
3.822757518E0,2.248224020E0,-9.438231468E0,-7.182824425E-3
3.824756618E0,2.264983892E0,-9.423865318E0,0.000000000E0
3.826756184E0,2.264983892E0,-9.423865318E0,0.000000000E0
3.828756150E0,2.286532402E0,-9.416683197E0,1.675992459E-2
3.830756116E0,2.332023621E0,-9.419076920E0,6.225114316E-2
3.832756082E0,2.372726440E0,-9.404711723E0,7.901106775E-2
3.834756048E0,2.387091875E0,-9.373585701E0,8.379961550E-2
3.836756014E0,2.377514839E0,-9.342460632E0,8.619388938E-2
3.838755980E0,2.394274712E0,-9.280209541E0,4.788549617E-2
3.840755980E0,2.446948767E0,-9.222746849E0,-4.788549617E-3
3.842756013E0,2.497228622E0,-9.215563774E0,-1.915419847E-2
3.844756913E0,2.523565531E0,-9.241900444E0,-1.915419847E-2
3.846757679E0,2.564268351E0,-9.265843391E0,-5.506832153E-2
3.848758112E0,2.600182533E0,-9.280209541E0,-9.816526622E-2
3.850758145E0,2.638490915E0,-9.301757812E0,-1.412622184E-1
3.852758178E0,2.669616461E0,-9.323306084E0,-2.083019018E-1
3.854758211E0,2.657644987E0,-9.328094482E0,-2.657645047E-1
3.856758211E0,2.648067951E0,-9.342460632E0,-3.232271075E-1
3.858758177E0,2.650462151E0,-9.364008904E0,-3.806896806E-1
3.860758143E0,2.672010660E0,-9.395133972E0,-4.477293789E-1
3.862758109E0,2.760598898E0,-9.481328011E0,-6.320885420E-1
3.864757209E0,2.760598898E0,-9.481328011E0,-6.320885420E-1
3.866756442E0,2.755810261E0,-9.486116409E0,-6.680026650E-1
3.868756375E0,2.743839025E0,-9.490905762E0,-6.967339516E-1
3.870756341E0,2.727078915E0,-9.505270958E0,-7.446194887E-1
3.872756341E0,2.748627424E0,-9.522030830E0,-7.972934842E-1
3.874756374E0,2.786935806E0,-9.550762177E0,-8.571503758E-1
3.876756407E0,2.806090117E0,-9.577098846E0,-9.002473354E-1
3.878756440E0,2.810878515E0,-9.586676598E0,-9.217957854E-1
3.880756473E0,2.844398499E0,-9.605830193E0,-9.409499764E-1
3.882756506E0,2.882706881E0,-9.634561539E0,-9.553156495E-1
3.884757406E0,2.913832426E0,-9.680052757E0,-9.409499764E-1
3.886758172E0,2.918621063E0,-9.703995705E0,-9.194015265E-1
3.888758205E0,2.923409462E0,-9.711178780E0,-9.098244309E-1
3.890758205E0,2.947352171E0,-9.720755577E0,-9.002473354E-1
3.892758205E0,2.988054991E0,-9.744698524E0,-8.930644989E-1
3.894758205E0,3.007209063E0,-9.747093201E0,-8.786988258E-1
3.896758205E0,3.043123245E0,-9.739910126E0,-8.523618579E-1
3.898758205E0,3.091008663E0,-9.773429871E0,-8.260248303E-1
3.900758205E0,3.112557173E0,-9.828497887E0,-7.901107073E-1
3.902758171E0,3.059883118E0,-9.866806030E0,-5.889915824E-1
3.904757271E0,3.059883118E0,-9.866806030E0,-5.889915824E-1
3.906756504E0,3.059883118E0,-9.866806030E0,-5.889915824E-1
3.908756037E0,3.067065954E0,-9.885960579E0,-5.554717779E-1
3.910756003E0,3.064671755E0,-9.929058075E0,-4.812492430E-1
3.912755969E0,3.002420664E0,-9.960183144E0,-3.854782581E-1
3.914755935E0,2.918621063E0,-9.976943016E0,-2.873129845E-1
3.916755901E0,2.856369734E0,-9.979337692E0,-2.083019018E-1
3.918755901E0,2.813272953E0,-9.953000069E0,-1.388679445E-1
3.920755934E0,2.842004299E0,-9.907508850E0,-8.140534163E-2
3.922755967E0,2.856369734E0,-9.885960579E0,-4.309694469E-2
3.924756867E0,2.858764172E0,-9.862017632E0,7.182824425E-3
3.926757633E0,2.885101080E0,-9.823709488E0,2.873129770E-2
3.928757699E0,2.885101080E0,-9.778218269E0,3.591412306E-2
3.930757732E0,2.894678354E0,-9.713572502E0,2.633702382E-2
3.932757765E0,2.928198099E0,-9.658504486E0,-4.788549617E-3
3.934757765E0,2.971295118E0,-9.598648071E0,-4.788549617E-2
3.936757731E0,3.035940409E0,-9.538790703E0,-9.816526622E-2
3.938757697E0,3.107768774E0,-9.524425507E0,-1.723877788E-1
3.940757663E0,3.141288519E0,-9.545973778E0,-2.322446555E-1
3.942757629E0,3.289733648E0,-9.565128326E0,-4.237866402E-1
3.944756729E0,3.289733648E0,-9.565128326E0,-4.237866402E-1
3.946755962E0,3.289733648E0,-9.565128326E0,-4.237866402E-1
3.948755928E0,3.316070557E0,-9.584281921E0,-4.429408312E-1
3.950755928E0,3.335224867E0,-9.620196342E0,-4.788549542E-1
3.952755928E0,3.378321648E0,-9.646533012E0,-5.004034638E-1
3.954755928E0,3.464515686E0,-9.660899162E0,-5.075862408E-1
3.956755928E0,3.555498123E0,-9.711178780E0,-5.195576549E-1
3.958755928E0,3.526766777E0,-9.840469360E0,-5.626545548E-1
3.960755928E0,3.407052994E0,-1.001525116E1,-6.009629965E-1
3.962755928E0,3.299310684E0,-1.018045616E1,-6.273000240E-1
3.964756794E0,3.198751211E0,-1.028341007E1,-6.536370516E-1
3.966757527E0,3.110162973E0,-1.033847904E1,-6.823683381E-1
3.968757993E0,3.050306082E0,-1.037918091E1,-6.871568561E-1
3.970758026E0,3.019180536E0,-1.039833546E1,-6.703969240E-1
3.972758059E0,3.009603500E0,-1.040312386E1,-6.344828010E-1
3.974758092E0,3.009603500E0,-1.041749001E1,-5.674431324E-1
3.976758125E0,3.045517445E0,-1.045100975E1,-4.788549542E-1
3.978758158E0,3.093403101E0,-1.047495270E1,-3.639297783E-1
3.980758158E0,3.134105682E0,-1.051326084E1,-2.202732861E-1
3.982758124E0,3.227482557E0,-1.084367085E1,3.687183261E-1
3.984757224E0,3.227482557E0,-1.084367085E1,3.687183261E-1
3.986756324E0,3.227482557E0,-1.084367085E1,3.687183261E-1
3.988756290E0,3.210722446E0,-1.091310501E1,4.549122155E-1
3.990756256E0,3.155654192E0,-1.105436707E1,6.225114465E-1
3.992756222E0,3.117345810E0,-1.117886925E1,7.781392932E-1
3.994756188E0,3.138894320E0,-1.127942848E1,9.217957854E-1
3.996756188E0,3.215511084E0,-1.136801720E1,1.043903828E0
3.998756221E0,3.292127848E0,-1.142308521E1,1.132491946E0
4.000756254E0,3.351984739E0,-1.147097015E1,1.233051538E0
4.002756320E0,3.419024467E0,-1.151406765E1,1.364736676E0
4.004757220E0,3.478881359E0,-1.153322220E1,1.525153041E0
4.006757986E0,3.510006905E0,-1.154758739E1,1.678386688E0
4.008758019E0,3.538738251E0,-1.154998207E1,1.810071707E0
4.010757619E0,3.596200705E0,-1.154758739E1,1.956122518E0
4.012757652E0,3.663240433E0,-1.152843285E1,2.087807655E0
4.014757652E0,3.725491524E0,-1.149491310E1,2.197944164E0
4.016757652E0,3.775771379E0,-1.144223976E1,2.296109438E0
4.018757652E0,3.838022470E0,-1.137759399E1,2.379909277E0
4.020757652E0,3.936187744E0,-1.129379463E1,2.461314440E0
4.022757652E0,4.302511692E0,-1.101845264E1,2.530748367E0
4.024756785E0,4.302511692E0,-1.101845264E1,2.530748367E0
4.026756051E0,4.302511692E0,-1.101845264E1,2.530748367E0
4.028756251E0,4.340820312E0,-1.098732662E1,2.516382933E0
4.030756217E0,4.407859802E0,-1.092986488E1,2.478074312E0
4.032756183E0,4.474899769E0,-1.089873886E1,2.449343204E0
4.034756149E0,4.529967785E0,-1.089634418E1,2.439765930E0
4.036756115E0,4.563488007E0,-1.092268181E1,2.458920240E0
4.038756081E0,4.556304932E0,-1.097535610E1,2.485257149E0
4.040756047E0,4.527573586E0,-1.104957867E1,2.504411459E0
4.042756047E0,4.527573586E0,-1.114295483E1,2.530748367E0
4.044756913E0,4.556304932E0,-1.124590874E1,2.590605259E0
4.046757813E0,4.582642078E0,-1.134407425E1,2.652856588E0
4.048757846E0,4.577853203E0,-1.143984509E1,2.719896078E0
4.050757879E0,4.515602112E0,-1.153801060E1,2.786935806E0
4.052757912E0,4.412648678E0,-1.163138676E1,2.846792698E0
4.054757945E0,4.266597748E0,-1.171758080E1,2.897072554E0
4.056757978E0,4.096604347E0,-1.179419804E1,2.949746609E0
4.058757978E0,3.967313290E0,-1.186123753E1,3.038334846E0
4.060757978E0,3.914639235E0,-1.191151714E1,3.146077156E0
4.062757911E0,3.634509087E0,-1.200249958E1,3.181991339E0
4.064757011E0,3.598595142E0,-1.200968266E1,3.174808502E0
4.066756244E0,3.598595142E0,-1.200968266E1,3.174808502E0
4.068756210E0,3.581835032E0,-1.200968266E1,3.170019865E0
4.070756610E0,3.548315287E0,-1.200249958E1,3.148471355E0
4.072756576E0,3.486064196E0,-1.198334503E1,3.098191500E0
4.074756576E0,3.414235830E0,-1.196419144E1,3.007209063E0
4.076756609E0,3.354378939E0,-1.192827702E1,2.913832426E0
4.078756642E0,3.299310684E0,-1.188518047E1,2.808484316E0
4.080756675E0,3.253819466E0,-1.185884285E1,2.698347807E0
4.082756708E0,3.215511084E0,-1.182771778E1,2.595393896E0
4.084757608E0,3.141288519E0,-1.176307201E1,2.502017260E0
4.086758374E0,3.069460392E0,-1.167927265E1,2.425400496E0
4.088758174E0,3.050306082E0,-1.160265541E1,2.391880512E0
4.090758207E0,3.045517445E0,-1.153082752E1,2.360754967E0
4.092758207E0,2.978477955E0,-1.143266201E1,2.353572130E0
4.094758207E0,2.825244188E0,-1.132731438E1,2.336812258E0
4.096758207E0,2.576239586E0,-1.122914886E1,2.245829821E0
4.098758207E0,2.274561167E0,-1.113098335E1,2.090201855E0
4.100758207E0,2.142875910E0,-1.108070374E1,2.020767927E0
4.102758207E0,1.707117915E0,-1.045579815E1,1.889082789E0
4.104757340E0,1.707117915E0,-1.045579815E1,1.889082789E0
4.106756573E0,1.649655342E0,-1.034566116E1,1.884294271E0
4.108756973E0,1.649655342E0,-1.034566116E1,1.884294271E0
4.110756939E0,1.494027495E0,-1.014454269E1,1.826831698E0
4.112756905E0,1.259388566E0,-9.984126091E0,1.668809533E0
4.114756871E0,9.553156495E-1,-9.893143654E0,1.347976685E0
4.116756837E0,6.201171875E-1,-9.866806030E0,9.002473354E-1
4.118756803E0,3.304099143E-1,-9.857229233E0,4.668835998E-1
4.120756769E0,9.098244458E-2,-9.842864037E0,1.245022863E-1
4.122756769E0,-1.508393139E-1,-9.854835510E0,-1.747820675E-1
4.124757669E0,-4.429408312E-1,-9.893143654E0,-5.027977228E-1
4.126758435E0,-7.446194887E-1,-9.936240196E0,-8.284190893E-1
4.128758468E0,-9.984126091E-1,-9.996097565E0,-1.110943556E0
4.130758501E0,-1.151646137E0,-1.005834866E1,-1.319245458E0
4.132758534E0,-1.228263021E0,-1.013257122E1,-1.422199249E0
4.134758567E0,-1.280937076E0,-1.021637058E1,-1.426987767E0
4.136758567E0,-1.295302629E0,-1.028580475E1,-1.333611012E0
4.138758567E0,-1.283331275E0,-1.036721039E1,-1.185166001E0
4.140758533E0,-1.316851139E0,-1.046537495E1,-1.036720991E0
4.142758499E0,-1.927391171E0,-1.099690437E1,-6.656084061E-1
4.144757599E0,-1.927391171E0,-1.099690437E1,-6.656084061E-1
