"Time (s)","Acceleration x (m/s^2)","Acceleration y (m/s^2)","Acceleration z (m/s^2)"
1.378523420E-1,-3.253819466E0,5.207547665E0,7.747873306E0
1.398523420E-1,-3.253819466E0,5.207547665E0,7.747873306E0
1.418523420E-1,-3.253819466E0,5.207547665E0,7.747873306E0
1.438516750E-1,-3.253819466E0,5.207547665E0,7.747873306E0
1.458511750E-1,2.387091875E0,2.899466753E0,5.885127544E0
1.478507750E-1,2.243435383E0,2.944957972E0,5.755836487E0
1.498504410E-1,2.111750364E0,2.932986736E0,5.624151707E0
1.518501550E-1,2.068653345E0,2.923409462E0,5.643305779E0
1.538499050E-1,2.035133600E0,2.980872154E0,5.889915943E0
1.558496820E-1,2.102173328E0,3.196356773E0,6.505244732E0
1.578494820E-1,2.162030220E0,3.294522047E0,6.888328552E0
1.598491180E-1,2.320052385E0,3.459727049E0,7.611399651E0
1.618487840E-1,2.554691315E0,3.584229469E0,8.305739403E0
1.638484760E-1,2.691164970E0,3.651269197E0,8.657697678E0
1.658481900E-1,2.966506481E0,3.727885962E0,9.318517685E0
1.678479230E-1,3.213116884E0,3.759011507E0,9.816526413E0
1.698476730E-1,3.292127848E0,3.706337452E0,9.986519814E0
1.718474370E-1,2.777358770E0,2.820455790E0,1.024510193E1
1.738472140E-1,2.650462151E0,2.487651587E0,1.030256462E1
1.758468980E-1,2.777358770E0,2.511594296E0,1.023073673E1
1.778465980E-1,2.973689318E0,2.458920240E0,9.941028595E0
1.798463120E-1,3.074248791E0,2.264983892E0,9.476539612E0
1.818460390E-1,3.122134447E0,2.162030220E0,9.191620827E0
1.838457780E-1,3.275367975E0,2.035133600E0,8.758256912E0
1.858455280E-1,3.478881359E0,1.953728199E0,8.454184532E0
1.878452880E-1,3.572257996E0,1.946545362E0,8.296162605E0
1.898450570E-1,3.759011507E0,2.001613855E0,8.042368889E0
1.918447600E-1,3.847599506E0,2.097384691E0,7.996877670E0
1.938444740E-1,3.821262598E0,2.097384691E0,8.011243820E0
1.958441980E-1,3.682394743E0,1.980065227E0,7.934626579E0
1.978439310E-1,3.569863796E0,1.860351562E0,7.721536160E0
1.998436640E-1,3.521978140E0,1.929785490E0,7.541965485E0
2.018433970E-1,3.469304085E0,2.015979290E0,7.448588848E0
2.038431970E-1,3.308887720E0,2.253012657E0,7.122967720E0
2.058429970E-1,3.225088120E0,2.427794695E0,6.893116951E0
2.078427300E-1,3.050306082E0,2.851581335E0,6.409473896E0
2.098424630E-1,2.940169573E0,3.196356773E0,5.906675816E0
2.118421960E-1,2.918621063E0,3.318464994E0,5.664854050E0
2.138419290E-1,2.980872154E0,3.466909885E0,5.238673210E0
2.158416620E-1,3.100585938E0,3.438178539E0,4.941783428E0
2.178413950E-1,3.174808502E0,3.385504484E0,4.824463844E0
2.198411950E-1,3.328042030E0,3.275367975E0,4.625739098E0
2.218409950E-1,3.466909885E0,3.162837029E0,4.460534096E0
2.238407610E-1,3.517189741E0,3.114951611E0,4.403071404E0
2.258405270E-1,3.541132450E0,3.067065954E0,4.280963421E0
2.278402930E-1,3.493247032E0,3.102980137E0,4.161249638E0
2.298400590E-1,3.454938650E0,3.134105682E0,4.084632874E0
2.318398250E-1,3.383110285E0,3.186779737E0,3.866753817E0
2.338395910E-1,3.311282158E0,3.256213665E0,3.605777979E0
2.358394240E-1,3.292127848E0,3.301704884E0,3.454938650E0
2.378391900E-1,3.268185139E0,3.366350412E0,3.181991339E0
2.398389560E-1,3.301704884E0,3.442967176E0,2.976083517E0
2.418387220E-1,3.335224867E0,3.474092722E0,2.940169573E0
2.438384880E-1,3.419024467E0,3.533949614E0,2.921015263E0
2.458382540E-1,3.538738251E0,3.545921087E0,2.997632027E0
2.478380200E-1,3.596200705E0,3.550709486E0,3.071854591E0
2.498377860E-1,3.708731651E0,3.550709486E0,3.304099321E0
2.518376190E-1,3.787742853E0,3.529160976E0,3.641691923E0
2.538373850E-1,3.821262598E0,3.505218267E0,3.842811108E0
2.558371510E-1,3.873936653E0,3.438178539E0,4.245049000E0
2.578369170E-1,3.921822071E0,3.351984739E0,4.647287369E0
2.598366830E-1,3.962524891E0,3.296916485E0,4.831646442E0
2.618364490E-1,4.046324253E0,3.241847992E0,5.171633720E0
2.638362150E-1,4.122941017E0,3.205934048E0,5.494860649E0
2.658359810E-1,4.170826912E0,3.208328247E0,5.645699978E0
2.678358140E-1,4.261809349E0,3.203539610E0,5.911464691E0
2.698355800E-1,4.348002911E0,3.222693920E0,6.158074856E0
2.718353460E-1,4.388705730E0,3.227482557E0,6.272999763E0
2.738352460E-1,4.453351021E0,3.210722446E0,6.474119186E0
2.758350120E-1,4.498842239E0,3.201145411E0,6.622564316E0
2.778347780E-1,4.510813713E0,3.193962574E0,6.680026531E0
2.798345440E-1,4.546727657E0,3.170019865E0,6.794951916E0
2.818343100E-1,4.556304932E0,3.112557173E0,6.907482624E0
2.838341100E-1,4.570670605E0,3.093403101E0,6.943397045E0
2.858338430E-1,4.573064804E0,3.052700281E0,6.988888264E0
2.878335760E-1,4.585036278E0,3.016786337E0,7.029590607E0
2.898333090E-1,4.570670605E0,3.007209063E0,7.053533554E0
2.918330420E-1,4.498842239E0,2.961717844E0,7.070293427E0
2.938327750E-1,4.427014351E0,2.964112282E0,7.065505028E0
2.958325080E-1,4.400677204E0,2.964112282E0,7.034379482E0
2.978323080E-1,4.350397110E0,2.947352171E0,6.967339516E0
2.998321080E-1,4.309694767E0,2.947352171E0,6.861991405E0
3.018318410E-1,4.292934895E0,2.947352171E0,6.799740314E0
3.038315740E-1,4.249837875E0,2.942563772E0,6.601015568E0
3.058313070E-1,4.223500729E0,2.988054991E0,6.352011204E0
3.078310400E-1,4.235472202E0,3.019180536E0,6.227508545E0
3.098307730E-1,4.302511692E0,3.105374336E0,6.045543671E0
3.118305060E-1,4.431802750E0,3.225088120E0,5.966532707E0
3.138303060E-1,4.513207912E0,3.284945011E0,5.952167034E0
3.158300390E-1,4.659258842E0,3.414235830E0,5.966532707E0
3.178297720E-1,4.793338299E0,3.536343813E0,6.035966873E0
3.198295050E-1,4.867560863E0,3.586623669E0,6.074275017E0
3.218292380E-1,5.047131062E0,3.668029070E0,6.117372036E0
3.238289710E-1,5.193181992E0,3.715914488E0,6.088640690E0
3.258287040E-1,5.253038883E0,3.696760416E0,6.047938347E0
3.278284370E-1,5.291347504E0,3.562680960E0,5.906675816E0
3.298282370E-1,5.406272411E0,3.380716085E0,5.681613922E0
3.318279700E-1,5.466129303E0,3.335224867E0,5.571477413E0
3.338275700E-1,5.514014721E0,3.318464994E0,5.415849686E0
3.358273030E-1,5.545140266E0,3.320859194E0,5.372752666E0
3.378270360E-1,5.566689014E0,3.328042030E0,5.377541065E0
3.398267690E-1,5.655277252E0,3.299310684E0,5.435003757E0
3.418265020E-1,5.794145107E0,3.296916485E0,5.552323341E0
3.438263680E-1,5.863578796E0,3.287339211E0,5.638517380E0
3.458261680E-1,5.978504181E0,3.332830429E0,5.791750908E0
3.478259340E-1,6.064698219E0,3.344801903E0,5.899493217E0
3.498256670E-1,6.086246490E0,3.359167576E0,5.925830364E0
3.518254000E-1,6.122160912E0,3.385504484E0,5.870761871E0
3.538251330E-1,6.148497581E0,3.373533249E0,5.722316742E0
3.558248660E-1,6.162863255E0,3.385504484E0,5.626545906E0
3.578245990E-1,6.203566074E0,3.380716085E0,5.442186832E0
3.598243320E-1,6.280182838E0,3.349590540E0,5.265010357E0
3.618241320E-1,6.316096783E0,3.332830429E0,5.181210518E0
3.638238650E-1,6.414262295E0,3.308887720E0,4.999245644E0
3.658235980E-1,6.507638931E0,3.265790939E0,4.879531860E0
3.678233310E-1,6.550735950E0,3.241847992E0,4.843617916E0
3.698230640E-1,6.641718388E0,3.210722446E0,4.814886570E0
3.718227970E-1,6.773403645E0,3.158048391E0,4.824463844E0
3.738225300E-1,6.866780281E0,3.117345810E0,4.831646442E0
3.758223300E-1,7.055927753E0,3.047911882E0,4.826858044E0
3.778221300E-1,7.233104229E0,2.961717844E0,4.846012115E0
3.798218630E-1,7.326480865E0,2.918621063E0,4.865166187E0
3.818215960E-1,7.474925995E0,2.794118643E0,4.932206154E0
3.838213290E-1,7.573091030E0,2.631308079E0,5.044736862E0
3.858210620E-1,7.599428177E0,2.533142805E0,5.106987953E0
3.878207950E-1,7.541965485E0,2.284138203E0,5.207547665E0
3.898205280E-1,7.429434776E0,2.164424419E0,5.279376030E0
3.918203280E-1,7.381549358E0,1.893871427E0,5.293741703E0
3.938200610E-1,7.314509392E0,1.606558442E0,5.312895775E0
3.958197940E-1,7.242681503E0,1.474873304E0,5.312895775E0
3.978195270E-1,7.228315830E0,1.218685865E0,5.324867249E0
3.998192600E-1,7.209161282E0,1.039115310E0,5.336838722E0
4.018189930E-1,7.201978683E0,9.624984860E-1,5.348809719E0
4.038185930E-1,7.185218811E0,8.356019258E-1,5.375146866E0
4.058183260E-1,7.146910191E0,7.685621977E-1,5.473312378E0
4.078180920E-1,7.113390446E0,7.422251701E-1,5.607391834E0
4.098178250E-1,7.079870701E0,6.871568561E-1,5.681613922E0
4.118175580E-1,7.024802208E0,6.560313106E-1,5.865973473E0
4.138172910E-1,6.993676662E0,6.512427330E-1,5.952167034E0
4.158170240E-1,6.986494064E0,6.320885420E-1,6.105400562E0
4.178167570E-1,6.991282463E0,6.273000240E-1,6.184412003E0
4.198164900E-1,7.027196407E0,6.440598965E-1,6.234691620E0
4.218162230E-1,7.051139355E0,6.703969240E-1,6.215537548E0
4.238160230E-1,7.156487465E0,7.805336118E-1,6.126949310E0
4.258157560E-1,7.350423813E0,8.595446348E-1,6.086246490E0
4.278154890E-1,7.472531796E0,1.048692346E0,5.976109982E0
4.298152220E-1,7.790970325E0,1.273754239E0,5.954561234E0
4.318149550E-1,7.984906673E0,1.391073704E0,5.966532707E0
4.338146880E-1,8.401510239E0,1.620923996E0,6.038361073E0
4.358144210E-1,8.830085754E0,1.857957244E0,6.193988800E0
4.378141540E-1,9.004867554E0,1.975276709E0,6.261028767E0
4.398139540E-1,9.347249031E0,2.195549965E0,6.392713547E0
4.418136870E-1,9.660899162E0,2.372726440E0,6.510033131E0
4.438134200E-1,9.802161217E0,2.454131603E0,6.584255695E0
4.458131530E-1,1.008229160E1,2.588211060E0,6.725517750E0
4.478128860E-1,1.036002731E1,2.676799297E0,6.845231533E0
4.498126190E-1,1.047734642E1,2.705530643E0,6.881145954E0
4.518123520E-1,1.066888809E1,2.722290516E0,6.962551117E0
4.538121520E-1,1.077902508E1,2.731867552E0,7.017619610E0
4.558119520E-1,1.079578495E1,2.724684715E0,7.020013809E0
4.578116850E-1,1.076465988E1,2.717501879E0,6.993676662E0
4.598114180E-1,1.073592854E1,2.722290516E0,6.912271500E0
4.618111510E-1,1.070719719E1,2.719896078E0,6.847625732E0
4.638109170E-1,1.061382008E1,2.719896078E0,6.696786404E0
4.658106500E-1,1.047734642E1,2.739050388E0,6.545947552E0
4.678103830E-1,1.040551853E1,2.746233225E0,6.474119186E0
4.698101830E-1,1.024989033E1,2.770175934E0,6.330462456E0
4.718099830E-1,1.012299347E1,2.818061352E0,6.170046329E0
4.738097160E-1,1.006553173E1,2.839609861E0,6.103006363E0
4.758094490E-1,9.938634872E0,2.882706881E0,5.961744308E0
4.778091820E-1,9.823709488E0,2.909043789E0,5.798933506E0
4.798089150E-1,9.692024231E0,2.904255390E0,5.631334305E0
4.818086480E-1,9.613013268E0,2.904255390E0,5.533169270E0
4.838083810E-1,9.450202942E0,2.901860952E0,5.305713177E0
4.858081810E-1,9.330489159E0,2.882706881E0,5.176422119E0
4.878079140E-1,9.052753448E0,2.830032825E0,4.889109135E0
4.898076470E-1,8.777411461E0,2.760598898E0,4.556304932E0
4.918073800E-1,8.645726204E0,2.705530643E0,4.374340057E0
4.938071130E-1,8.394327164E0,2.621730804E0,3.993650436E0
4.958068460E-1,8.150111198E0,2.523565531E0,3.600989342E0
4.978065790E-1,8.023215294E0,2.482862949E0,3.402264595E0
4.998063120E-1,7.752661705E0,2.363149166E0,3.043123245E0
5.018061120E-1,7.525205612E0,2.253012657E0,2.736656189E0
5.038058450E-1,7.431828976E0,2.190761566E0,2.590605259E0
5.058055780E-1,7.249864101E0,2.049499273E0,2.320052385E0
5.078053110E-1,7.048745155E0,1.860351562E0,2.133298874E0
5.098050440E-1,6.967339516E0,1.752609134E0,2.066259146E0
5.118047770E-1,6.845231533E0,1.520364523E0,1.977671027E0
5.138045100E-1,6.742278099E0,1.245022893E0,1.987248063E0
5.158042430E-1,6.696786404E0,1.082212210E0,2.008796453E0
5.178040430E-1,6.641718388E0,7.015225291E-1,2.130904675E0
5.198037760E-1,6.632141113E0,3.471698463E-1,2.367937803E0
5.218035090E-1,6.656084061E0,2.083019018E-1,2.470891714E0
5.238032090E-1,6.782980442E0,-2.154847234E-2,2.717501879E0
5.258029420E-1,6.981705189E0,-1.723877788E-1,3.011997700E0
5.278026750E-1,7.115784645E0,-2.298503816E-1,3.167625666E0
5.298024080E-1,7.388731956E0,-3.136500120E-1,3.502824068E0
5.318021410E-1,7.769421577E0,-3.759011328E-1,3.787742853E0
5.338019410E-1,7.989695072E0,-3.663240373E-1,3.905062199E0
5.358016740E-1,8.511647224E0,-3.112557232E-1,4.048718929E0
5.378014070E-1,9.069513321E0,-2.585816681E-1,4.218712330E0
5.398011400E-1,9.708784103E0,-1.316851079E-1,4.371945858E0
5.418008730E-1,1.005116558E1,-5.027977005E-2,4.441379547E0
5.438006060E-1,1.077184200E1,1.747820675E-1,4.525179386E0
5.458003390E-1,1.112619495E1,2.992843390E-1,4.556304932E0
5.478001390E-1,1.179898643E1,5.842030644E-1,4.601796150E0
5.497999390E-1,1.240234375E1,8.930644989E-1,4.594613552E0
5.517996720E-1,1.266810799E1,1.053480864E0,4.587430477E0
5.537994050E-1,1.311104870E1,1.364736676E0,4.525179386E0
5.557991380E-1,1.342709351E1,1.683175206E0,4.477293968E0
5.577988710E-1,1.353483582E1,1.843591571E0,4.446168423E0
5.597986040E-1,1.366652107E1,2.135693073E0,4.338426113E0
5.617983370E-1,1.365454960E1,2.401457548E0,4.245049000E0
5.637981370E-1,1.360187531E1,2.521171331E0,4.182797909E0
5.657978700E-1,1.342948723E1,2.751021862E0,4.089421272E0
5.677976030E-1,1.321400261E1,2.973689318E0,4.015198708E0
5.697973360E-1,1.310626030E1,3.071854591E0,3.952947617E0
5.717970690E-1,1.285964966E1,3.313676357E0,3.809291124E0
5.737968020E-1,1.263458824E1,3.510006905E0,3.670423269E0
5.757965350E-1,1.252445126E1,3.634509087E0,3.603383541E0
5.777962680E-1,1.232333279E1,3.845205307E0,3.464515686E0
5.797960680E-1,1.214376163E1,4.010410309E0,3.328042030E0
5.817958010E-1,1.206475067E1,4.084632874E0,3.272973776E0
5.837955340E-1,1.189715195E1,4.180403709E0,3.158048391E0
5.857952670E-1,1.174391747E1,4.240260601E0,3.071854591E0
5.877950000E-1,1.166730118E1,4.261809349E0,3.055094719E0
5.897947330E-1,1.153082752E1,4.297723293E0,3.014391899E0
5.917944660E-1,1.138717079E1,4.285751820E0,2.968900681E0
5.937941990E-1,1.131294823E1,4.285751820E0,2.947352171E0
5.957939990E-1,1.117408085E1,4.249837875E0,2.954535007E0
5.977937320E-1,1.100169277E1,4.204346657E0,2.997632027E0
5.997934650E-1,1.080775642E1,4.170826912E0,3.023969173E0
6.017931980E-1,1.070240879E1,4.142095566E0,3.026363373E0
6.037929310E-1,1.047974110E1,4.087027073E0,3.026363373E0
6.057926640E-1,1.035284424E1,4.048718929E0,3.035940409E0
6.077923970E-1,1.007989693E1,3.964919090E0,3.007209063E0
6.097921300E-1,9.814132690E0,3.914639235E0,2.911438227E0
6.117919300E-1,9.680052757E0,3.905062199E0,2.849187136E0
6.137916630E-1,9.428654671E0,3.905062199E0,2.693559170E0
6.157913960E-1,9.201197624E0,3.931399345E0,2.478074312E0
6.177911290E-1,9.098244667E0,3.945764780E0,2.382303476E0
6.197908620E-1,8.913885117E0,3.988861799E0,2.185972929E0
6.217905950E-1,8.746285439E0,4.017592907E0,1.982459545E0
6.237903280E-1,8.655303001E0,4.039141655E0,1.889082789E0
6.257901280E-1,8.442213058E0,4.063084126E0,1.757397652E0
6.277899280E-1,8.183630943E0,4.084632874E0,1.656838179E0
6.297896610E-1,8.044763565E0,4.094210148E0,1.608952641E0
6.317893940E-1,7.752661705E0,4.084632874E0,1.549095750E0
6.337891270E-1,7.460560322E0,4.075055599E0,1.565855742E0
6.357888600E-1,7.321692467E0,4.051113129E0,1.580221415E0
6.377885930E-1,7.084659100E0,4.019987583E0,1.656838179E0
6.397883260E-1,6.907482624E0,3.960130453E0,1.731060743E0
6.417881260E-1,6.847625732E0,3.933793545E0,1.778946161E0
6.437878920E-1,6.794951916E0,3.885908127E0,1.905842781E0
6.457876580E-1,6.850020409E0,3.866753817E0,2.006402254E0
6.477874240E-1,6.912271500E0,3.859570980E0,2.027950764E0
6.497871900E-1,7.099024773E0,3.826051235E0,2.104567528E0
6.517869560E-1,7.381549358E0,3.840416908E0,2.130904675E0
6.537867220E-1,7.551542759E0,3.845205307E0,2.123721838E0
6.557864880E-1,7.944203854E0,3.878725290E0,2.085413456E0
6.577863210E-1,8.367990494E0,3.926610708E0,1.975276709E0
6.597860870E-1,8.842057228E0,3.993650436E0,1.834014535E0
6.617858530E-1,9.076695442E0,4.048718929E0,1.764580488E0
6.637856190E-1,9.560338974E0,4.134912491E0,1.664021015E0
6.657853850E-1,9.785401344E0,4.175615311E0,1.635289669E0
6.677851510E-1,1.023313046E1,4.261809349E0,1.659232497E0
6.697849170E-1,1.068085957E1,4.383917332E0,1.769369125E0
6.717846830E-1,1.090352726E1,4.453351021E0,1.879505754E0
6.737845160E-1,1.132491970E1,4.599401951E0,2.200338602E0
6.757842820E-1,1.170321560E1,4.743058205E0,2.578634024E0
6.777840480E-1,1.187799740E1,4.829252243E0,2.947352171E0
6.797838140E-1,1.217967606E1,4.994457245E0,4.252232075E0
6.817835800E-1,1.238558388E1,5.147690773E0,5.542746067E0
6.837833460E-1,1.245022869E1,5.238673210E0,6.062304020E0
6.857831120E-1,1.254121113E1,5.423032284E0,6.727912426E0
6.877828780E-1,1.252205753E1,5.607391834E0,6.924242973E0
6.897827110E-1,1.249332619E1,5.700768471E0,6.933819771E0
6.917824770E-1,1.239516068E1,5.885127544E0,6.823683262E0
6.937822430E-1,1.224192715E1,6.074275017E0,6.507638931E0
6.957820090E-1,1.216770458E1,6.179623127E0,6.366376877E0
6.977817750E-1,1.202644253E1,6.402290821E0,6.100612164E0
6.997815410E-1,1.190672874E1,6.567495823E0,5.801327705E0
7.017813070E-1,1.183729458E1,6.622564316E0,5.679219723E0
7.037811070E-1,1.172715759E1,6.648900986E0,5.358386993E0
7.057809070E-1,1.163378143E1,6.560312748E0,5.011217117E0
7.077806400E-1,1.157153034E1,6.495667458E0,4.853195190E0
7.097803730E-1,1.142787361E1,6.306519985E0,4.508419514E0
7.117801060E-1,1.127224541E1,6.069486618E0,4.134912491E0
7.137798390E-1,1.118844604E1,5.956955910E0,3.948159218E0
7.157795720E-1,1.096577835E1,5.700768471E0,3.510006905E0
7.177793050E-1,1.071677399E1,5.418243885E0,3.124528646E0
7.197791050E-1,1.058269501E1,5.288952827E0,2.940169573E0
7.217789050E-1,1.027622795E1,5.066285610E0,2.566662550E0
7.237786380E-1,9.998491287E0,4.893897533E0,2.255406857E0
7.257783710E-1,9.873989105E0,4.826858044E0,2.128510237E0
7.277781040E-1,9.620196342E0,4.721509933E0,1.915419817E0
7.297778370E-1,9.421471596E0,4.683201313E0,1.781340480E0
7.317775700E-1,9.354432106E0,4.616161823E0,1.747820616E0
7.337773030E-1,9.270631790E0,4.616161823E0,1.735849261E0
7.357771030E-1,9.261054993E0,4.630527496E0,1.771763325E0
7.377768360E-1,9.282603264E0,4.680807114E0,1.817254543E0
7.397765690E-1,9.366402626E0,4.752635479E0,1.908236980E0
7.417763020E-1,9.519637108E0,4.800520897E0,2.004008055E0
7.437760350E-1,9.624984741E0,4.905869007E0,2.039922237E0
7.457757680E-1,9.857229233E0,5.023188591E0,2.121327400E0
7.477755010E-1,1.013017654E1,5.085439682E0,2.154847383E0
7.497752340E-1,1.025467873E1,5.197970390E0,2.135693073E0
7.517750340E-1,1.047734642E1,5.296135902E0,2.066259146E0
7.537747670E-1,1.072395706E1,5.341627121E0,1.996825218E0
7.557745000E-1,1.082930470E1,5.391906738E0,1.807677507E0
7.577742330E-1,1.100648117E1,5.415849686E0,1.577827096E0
7.597739660E-1,1.107591534E1,5.401484013E0,1.477267504E0
7.617736990E-1,1.107112694E1,5.365570068E0,1.230657220E0
7.637734320E-1,1.104000092E1,5.300924301E0,1.031932473E0
7.657731650E-1,1.093465328E1,5.260221958E0,9.529213905E-1
7.677729650E-1,1.086761379E1,5.195576191E0,8.140534163E-1
7.697726980E-1,1.069522572E1,5.097411156E0,7.326480746E-1
7.717724310E-1,1.060424328E1,5.051919937E0,6.991282701E-1
7.737721640E-1,1.043424988E1,4.999245644E0,6.416656375E-1
7.757718970E-1,1.028580475E1,4.956148624E0,5.889915824E-1
7.777716300E-1,1.022355366E1,4.944177628E0,5.818088055E-1
7.797713630E-1,1.010623360E1,4.927417755E0,5.626545548E-1
7.817710960E-1,1.003440571E1,4.927417755E0,5.482889414E-1
7.837708960E-1,1.000088596E1,4.920234680E0,5.506832004E-1
7.857706290E-1,9.960183144E0,4.913052082E0,5.435003638E-1
7.877703620E-1,9.902720451E0,4.874743462E0,5.123748183E-1
7.897700950E-1,9.878777504E0,4.834040642E0,5.099805593E-1
7.917698280E-1,9.809344292E0,4.721509933E0,4.788549542E-1
7.937695610E-1,9.711178780E0,4.549122334E0,4.118152559E-1
7.957692940E-1,9.656110764E0,4.448562622E0,3.735068738E-1
7.977690940E-1,9.512454033E0,4.170826912E0,3.112557232E-1
7.997688940E-1,9.332882881E0,3.857176781E0,2.035133541E-1
8.017686270E-1,9.237112045E0,3.694365978E0,1.460507661E-1
8.037683600E-1,9.062330246E0,3.380716085E0,1.053480953E-1
8.057680930E-1,8.935433388E0,3.091008663E0,6.464541703E-2
8.077678260E-1,8.909096718E0,2.964112282E0,5.027977005E-2
8.097675590E-1,8.889942169E0,2.746233225E0,1.029538140E-1
8.117672920E-1,8.954587936E0,2.578634024E0,1.652049571E-1
8.137670920E-1,9.012050629E0,2.521171331E0,2.322446555E-1
8.157668250E-1,9.189227104E0,2.425400496E0,3.830839694E-1
8.177665580E-1,9.462174416E0,2.355966330E0,5.267404318E-1
8.197662910E-1,9.591464996E0,2.324840784E0,6.225114465E-1
8.217660240E-1,9.818921089E0,2.233858347E0,8.619389534E-1
8.237657570E-1,9.981731415E0,2.147664547E0,1.130097747E0
8.257654900E-1,1.005834866E1,2.099778891E0,1.292908430E0
8.277652230E-1,1.014933109E1,2.027950764E0,1.599375606E0
8.297650230E-1,1.019482231E1,1.929785490E0,1.862745762E0
8.317647560E-1,1.021158218E1,1.884294271E0,1.982459545E0
8.337644890E-1,1.024989033E1,1.790917516E0,2.174001455E0
8.357642220E-1,1.028341007E1,1.709512234E0,2.322446585E0
8.377639550E-1,1.032890129E1,1.661626697E0,2.372726440E0
8.397636880E-1,1.042706680E1,1.592192769E0,2.482862949E0
8.417634210E-1,1.053959751E1,1.541913033E0,2.573845387E0
8.437631540E-1,1.060184860E1,1.534730196E0,2.624125242E0
8.457629540E-1,1.074550533E1,1.563461423E0,2.712713242E0
8.477626870E-1,1.085564232E1,1.594586968E0,2.746233225E0
8.497624200E-1,1.090831566E1,1.608952641E0,2.770175934E0
8.517621530E-1,1.098972130E1,1.640078187E0,2.784541607E0
8.537618860E-1,1.102802944E1,1.630501151E0,2.786935806E0
8.557616190E-1,1.104957867E1,1.625712633E0,2.758204460E0
8.577613520E-1,1.107352066E1,1.577827096E0,2.703136206E0
8.597610850E-1,1.109746361E1,1.527547359E0,2.612153769E0
8.617608850E-1,1.111661816E1,1.513181686E0,2.554691315E0
8.637606180E-1,1.116210938E1,1.537124395E0,2.413429022E0
8.657603510E-1,1.120760059E1,1.599375606E0,2.241041183E0
8.677600840E-1,1.125069714E1,1.647261024E0,2.162030220E0
8.697598170E-1,1.132970810E1,1.757397652E0,2.035133600E0
8.717595500E-1,1.141590214E1,1.910631299E0,1.941756845E0
8.737592830E-1,1.145660496E1,2.001613855E0,1.913025618E0
8.757590830E-1,1.154279900E1,2.200338602E0,1.886688590E0
8.777588830E-1,1.163378143E1,2.418217659E0,1.881899953E0
8.797586160E-1,1.167687798E1,2.542719841E0,1.889082789E0
8.817583490E-1,1.175110054E1,2.782147408E0,1.913025618E0
8.837580820E-1,1.183011150E1,3.033546209E0,1.956122518E0
8.857578150E-1,1.186363125E1,3.165231228E0,1.980065227E0
8.877575480E-1,1.197376823E1,3.426207304E0,2.023162127E0
8.897572810E-1,1.200010490E1,3.622537851E0,1.956122518E0
8.917570810E-1,1.200968266E1,3.708731651E0,1.910631299E0
8.937568470E-1,1.199771118E1,3.871542454E0,1.790917516E0
8.957566130E-1,1.190194035E1,3.998438835E0,1.649655342E0
8.977563790E-1,1.186123753E1,4.041535854E0,1.570644259E0
8.997561450E-1,1.176307201E1,4.098998547E0,1.391073704E0
9.017559110E-1,1.160983849E1,4.091815472E0,1.201925993E0
9.037556770E-1,1.154040432E1,4.075055599E0,1.132491946E0
9.057554430E-1,1.138956547E1,4.029564381E0,1.005595446E0
9.077552760E-1,1.123393726E1,3.993650436E0,9.505270720E-1
9.097551420E-1,1.117647457E1,3.979284763E0,9.433442950E-1
9.117550080E-1,1.107831001E1,3.969707727E0,9.385557175E-1
9.137548740E-1,1.102802944E1,3.969707727E0,9.768640995E-1
9.157547400E-1,1.100887585E1,3.976890564E0,1.022355318E0
9.177546060E-1,1.099450970E1,3.996044636E0,1.144463301E0
9.197544720E-1,1.099211597E1,3.988861799E0,1.295302629E0
9.217543380E-1,1.099211597E1,3.984073162E0,1.364736676E0
9.237542710E-1,1.097535610E1,3.993650436E0,1.446141958E0
9.257542040E-1,1.090592194E1,3.969707727E0,1.462901950E0
9.277541370E-1,1.086043072E1,3.950553417E0,1.472478986E0
9.297540700E-1,1.076465988E1,3.893090725E0,1.486844659E0
9.317540030E-1,1.064494610E1,3.811685562E0,1.431776285E0
9.337539360E-1,1.058030033E1,3.773377180E0,1.407833576E0
9.357538690E-1,1.048692322E1,3.653663397E0,1.383890867E0
9.377538020E-1,1.041030693E1,3.526766777E0,1.393467903E0
9.397538020E-1,1.038157558E1,3.464515686E0,1.410227895E0
9.417537680E-1,1.036960411E1,3.304099321E0,1.465296149E0
9.437537340E-1,1.033608437E1,3.160442829E0,1.534730196E0
9.457537000E-1,1.032650757E1,3.088614464E0,1.608952641E0
9.477536660E-1,1.030974770E1,2.947352171E0,1.788523316E0
9.497536320E-1,1.026425648E1,2.834821463E0,1.944151163E0
9.517535980E-1,1.024031353E1,2.772570133E0,1.999219418E0
9.537535980E-1,1.016130257E1,2.612153769E0,2.061470509E0
9.557535980E-1,1.007510853E1,2.432583094E0,2.056682110E0
9.577535640E-1,1.003201103E1,2.327235222E0,2.035133600E0
9.597535300E-1,9.902720451E0,2.092596292E0,1.927391171E0
9.617534960E-1,9.742303848E0,1.857957244E0,1.747820616E0
9.637534620E-1,9.644139290E0,1.745426297E0,1.659232497E0
9.657534280E-1,9.466962814E0,1.568249941E0,1.465296149E0
9.677533940E-1,9.330489159E0,1.491633177E0,1.247417212E0
9.697533270E-1,9.249083519E0,1.484450340E0,1.149251938E0
9.717532600E-1,9.115004539E0,1.515576005E0,1.015172482E0
9.737531930E-1,8.966559410E0,1.618529797E0,9.553156495E-1
9.757531260E-1,8.887548447E0,1.692752242E0,9.553156495E-1
9.777530590E-1,8.760651588E0,1.886688590E0,1.036720991E0
9.797529920E-1,8.669669151E0,2.133298874E0,1.139674783E0
9.817529250E-1,8.633754730E0,2.267378330E0,1.213897347E0
9.837528580E-1,8.619389534E0,2.585816860E0,1.309668303E0
9.857527910E-1,8.590658188E0,2.918621063E0,1.410227895E0
9.877526570E-1,8.561926842E0,3.074248791E0,1.450930476E0
9.897525230E-1,8.523618698E0,3.426207304E0,1.484450340E0
9.917523890E-1,8.461367607E0,3.744645834E0,1.522758722E0
9.937522550E-1,8.427846909E0,3.888302326E0,1.515576005E0
9.957521210E-1,8.353624344E0,4.170826912E0,1.520364523E0
9.977519870E-1,8.300951004E0,4.453351021E0,1.522758722E0
9.997518530E-1,8.279402733E0,4.671230316E0,1.529941559E0
1.001751753E0,8.324893951E0,5.267404556E0,1.505998850E0
1.003751586E0,8.473338127E0,5.877944469E0,1.369525194E0
1.005751419E0,8.590658188E0,6.208354473E0,1.280937076E0
1.007751252E0,8.782199860E0,6.787769318E0,1.048692346E0
1.009751085E0,8.863605499E0,7.199584484E0,7.972934842E-1
1.011750918E0,8.897125244E0,7.403097630E0,6.440598965E-1
1.013750751E0,8.952193260E0,7.879558563E0,2.777358890E-1
1.015750584E0,8.916279793E0,8.202785492E0,-5.506832153E-2
1.017750450E0,8.868393898E0,8.332076073E0,-2.274561077E-1
1.019750250E0,8.798959732E0,8.693612099E0,-4.908263385E-1
1.021750050E0,8.648120880E0,8.856422424E0,-6.392713785E-1
1.023749850E0,8.564320564E0,8.863605499E0,-6.656084061E-1
1.025749650E0,8.423058510E0,8.834874153E0,-6.608198285E-1
1.027749450E0,8.217150688E0,8.509252548E0,-5.889915824E-1
1.029749250E0,8.142929077E0,8.358413696E0,-5.315290093E-1
1.031749050E0,8.092648506E0,8.188420296E0,-2.944957912E-1
1.033748850E0,8.004060745E0,7.925049782E0,1.292908341E-1
1.035748583E0,7.905895233E0,7.738296032E0,3.375927508E-1
1.037748316E0,7.690410614E0,7.331269264E0,5.985686779E-1
1.039748049E0,7.501263142E0,6.895511627E0,7.374366522E-1
1.041747782E0,7.393520832E0,6.624958515E0,8.044763207E-1
1.043747515E0,7.211555958E0,6.103006363E0,9.433442950E-1
1.045747248E0,7.031985283E0,5.652883053E0,1.027143836E0
1.047747048E0,6.907482624E0,5.396695614E0,1.024749637E0
1.049746848E0,6.763826370E0,5.011217117E0,9.026415944E-1
1.051746581E0,6.696786404E0,4.743058205E0,7.805336118E-1
1.053746314E0,6.711152077E0,4.759818554E0,7.422251701E-1
1.055746047E0,6.737489223E0,4.786155224E0,7.685621977E-1
1.057745780E0,6.682421207E0,4.886714935E0,7.182824612E-1
1.059745513E0,6.656084061E0,4.975303173E0,7.230709791E-1
1.061745246E0,6.529187202E0,5.044736862E0,6.440598965E-1
1.063745046E0,6.476513386E0,5.339232922E0,5.123748183E-1
1.065744779E0,6.419050694E0,5.355992794E0,4.668835998E-1
1.067744512E0,6.344828129E0,5.521197796E0,3.854782581E-1
1.069744245E0,6.261028767E0,5.674431324E0,2.370332032E-1
1.071743978E0,6.217931747E0,5.686402798E0,1.675992310E-1
1.073743711E0,6.191594601E0,6.050332546E0,1.245022863E-1
1.075743444E0,6.062304020E0,6.062304020E0,8.379961550E-2
1.077743177E0,6.009629726E0,6.129343510E0,4.549122229E-2
1.079742977E0,5.894704342E0,6.356799603E0,6.464541703E-2
1.081742710E0,5.815693378E0,6.433416367E0,0.000000000E0
1.083742443E0,5.777385235E0,6.160469055E0,-1.508393139E-1
1.085742176E0,5.753442287E0,6.057515144E0,-3.040728867E-1
1.087741909E0,5.765413761E0,6.122160912E0,-3.447755575E-1
1.089741642E0,5.774991035E0,5.992869854E0,-4.980091453E-1
1.091741375E0,5.858790398E0,6.064698219E0,-5.123748183E-1
1.093741108E0,5.959350109E0,6.395108223E0,-1.173194647E-1
1.095740908E0,5.990475655E0,6.840443134E0,8.379961550E-2
1.097740641E0,6.086246490E0,6.495667458E0,1.556278616E-1
1.099740374E0,6.419050694E0,5.676825523E0,-6.249057055E-1
1.101740107E0,6.648900986E0,5.904281616E0,-7.589851022E-1
1.103739840E0,7.118178844E0,6.699181080E0,-7.182824612E-1
1.105739573E0,7.666468143E0,6.873962879E0,-6.249057055E-1
1.107739306E0,7.989695072E0,6.397502422E0,-7.877163887E-1
1.109739039E0,8.767834663E0,6.016812801E0,-1.443747759E0
1.111738839E0,9.577098846E0,6.215537548E0,-1.726272106E0
1.113738572E0,9.926663399E0,7.041562080E0,-1.690358043E0
1.115738305E0,1.058030033E1,6.581861496E0,-1.735849261E0
1.117738038E0,1.128421688E1,6.023995399E0,-1.960911036E0
1.119737771E0,1.157631874E1,6.289760113E0,-1.948939681E0
1.121737504E0,1.197855663E1,6.028783798E0,-1.915419817E0
1.123737237E0,1.211263657E1,6.126949310E0,-1.692752242E0
1.125737037E0,1.226826382E1,6.361588001E0,-1.254600048E0
1.127736837E0,1.214615631E1,6.366376877E0,-9.265843630E-1
1.129736570E0,1.203841400E1,6.308914185E0,-7.470137477E-1
1.131736303E0,1.178222656E1,5.966532707E0,-3.495641351E-1
1.133736036E0,1.143984509E1,5.760625362E0,-4.309694469E-2
1.135735769E0,1.127942848E1,5.626545906E0,3.591412306E-2
1.137735502E0,1.102324104E1,5.221913338E0,1.675992310E-1
1.139735235E0,1.080775642E1,4.881926537E0,2.825244367E-1
1.141735035E0,1.071916866E1,4.793338299E0,3.328042030E-1
1.143734835E0,1.052044392E1,4.644893169E0,3.854782581E-1
1.145734568E0,1.023552513E1,4.903474808E0,8.188419938E-1
1.147734301E0,9.955394745E0,5.406272411E0,1.690358043E0
1.149734034E0,9.445414543E0,5.595420361E0,3.287339211E0
1.151733767E0,8.940221786E0,5.164450645E0,3.680000305E0
1.153733500E0,8.837267876E0,4.046324253E0,2.683982134E0
1.155733233E0,9.217958450E0,1.489238977E0,1.675992459E-2
1.157733033E0,9.742303848E0,1.192348838E0,-1.486844659E0
1.159732766E0,9.962577820E0,1.278542757E0,-1.951334000E0
1.161732499E0,1.029538155E1,1.704723716E0,-2.255406857E0
1.163732232E0,1.034326744E1,2.231464148E0,-2.118933201E0
1.165731965E0,1.029538155E1,2.276955366E0,-2.075836182E0
1.167731698E0,1.013735962E1,2.245829821E0,-2.078230619E0
1.169731431E0,1.010144520E1,2.506805658E0,-2.181184292E0
1.171731164E0,1.012778282E1,2.686376333E0,-2.241041183E0
1.173730964E0,1.019721603E1,3.033546209E0,-2.142875910E0
1.175730697E0,1.028101635E1,3.419024467E0,-2.056682110E0
1.177730430E0,1.030974770E1,3.586623669E0,-2.066259146E0
1.179730163E0,1.041030693E1,3.802108288E0,-2.044710636E0
1.181729896E0,1.057551193E1,3.940976381E0,-1.901054144E0
1.183729629E0,1.066888809E1,4.022381783E0,-1.829225898E0
1.185729362E0,1.088437366E1,4.257020473E0,-1.836408734E0
1.187729095E0,1.104478931E1,4.419831276E0,-1.910631299E0
1.189728895E0,1.109746361E1,4.446168423E0,-1.946545362E0
1.191728628E0,1.111182976E1,4.431802750E0,-1.941756845E0
1.193728361E0,1.102563572E1,4.386311531E0,-1.944151163E0
1.195728094E0,1.097056675E1,4.379128456E0,-1.963305354E0
1.197727827E0,1.084845924E1,4.369551659E0,-1.941756845E0
1.199727560E0,1.073832226E1,4.348002911E0,-1.759791970E0
1.201727293E0,1.068085957E1,4.355185986E0,-1.608952641E0
1.203727026E0,1.053241444E1,4.355185986E0,-1.192348838E0
1.205726826E0,1.036721039E1,4.415042877E0,-8.906702399E-1
1.207726559E0,1.028819847E1,4.482082367E0,-7.565908432E-1
1.209726292E0,1.009426212E1,4.527573586E0,-4.573064744E-1
1.211726025E0,9.857229233E0,4.427014351E0,-2.274561077E-1
1.213725758E0,9.739910126E0,4.383917332E0,-1.723877788E-1
1.215725491E0,9.421471596E0,4.424619675E0,-2.633702159E-1
1.217725224E0,8.947404861E0,4.589824677E0,-5.411061049E-1
1.219725024E0,8.719948769E0,4.716721535E0,-7.063110471E-1
1.221724824E0,8.243488312E0,5.066285610E0,-1.017566800E0
1.223724557E0,7.707170486E0,5.379935265E0,-1.283331275E0
1.225724290E0,7.474925995E0,5.542746067E0,-1.484450340E0
1.227724023E0,7.020013809E0,5.937801361E0,-1.932179809E0
1.229723756E0,6.589044094E0,6.371165276E0,-2.504411459E0
1.231723489E0,6.411868095E0,6.658478260E0,-2.877918243E0
1.233723222E0,6.035966873E0,7.278595448E0,-3.754222870E0
1.235723022E0,5.588237286E0,7.965752125E0,-4.362368584E0
1.237722755E0,5.336838722E0,8.298556328E0,-4.484476566E0
1.239722488E0,4.869955063E0,8.782199860E0,-4.599401951E0
1.241722221E0,3.821262598E0,8.095043182E0,-3.407052994E0
1.243721954E0,3.442967176E0,7.889135361E0,-2.487651587E0
1.245721687E0,3.014391899E0,8.298556328E0,-2.276955366E0
1.247721420E0,2.901860952E0,9.045570374E0,-2.516382933E0
1.249721153E0,2.959323645E0,9.440625191E0,-2.741444588E0
1.251720953E0,3.167625666E0,1.030735302E1,-3.131711483E0
1.253720686E0,3.557892323E0,1.117647457E1,-3.299310684E0
1.255720419E0,3.749434233E0,1.158350182E1,-3.356773376E0
1.257720152E0,4.142095566E0,1.223713875E1,-3.414235830E0
1.259719885E0,4.580247879E0,1.266810799E1,-3.416630268E0
1.261719618E0,4.786155224E0,1.271838760E1,-3.340013266E0
1.263719351E0,5.138113976E0,1.257952023E1,-3.122134447E0
1.265719084E0,5.446975231E0,1.215573311E1,-2.801301479E0
1.267718884E0,5.569083214E0,1.180856323E1,-2.621730804E0
1.269718617E0,5.707951069E0,1.088916206E1,-2.130904675E0
1.271718350E0,5.844424725E0,9.883566856E0,-1.616135478E0
1.273718083E0,5.899493217E0,9.402317047E0,-1.364736676E0
1.275717816E0,6.023995399E0,8.523618698E0,-1.108549237E0
1.277717549E0,6.335251331E0,7.790970325E0,-1.012778282E0
1.279717282E0,6.960156918E0,7.393520832E0,-9.601042271E-1
1.281717015E0,7.324086666E0,7.237892628E0,-9.648927450E-1
1.283716815E0,7.999272346E0,6.926637173E0,-1.127703428E0
1.285716548E0,8.310527802E0,6.732700825E0,-1.204320192E0
1.287716281E0,8.868393898E0,6.313702583E0,-1.134886265E0
1.289716014E0,9.052753448E0,5.353598595E0,-4.620950520E-1
1.291715747E0,9.150918007E0,4.846012115E0,1.101366431E-1
1.293715480E0,9.775823593E0,4.501236439E0,2.777358890E-1
1.295715213E0,1.046298122E1,4.321666241E0,2.466102988E-1
1.297715013E0,1.085085297E1,4.319271564E0,2.202732861E-1
1.299714813E0,1.169842625E1,4.544333458E0,1.675992310E-1
1.301714546E0,1.249093151E1,4.898686409E0,2.202732861E-1
1.303714279E0,1.285486126E1,5.087833881E0,3.088614643E-1
1.305714012E0,1.353483582E1,5.415849686E0,4.525179267E-1
1.307713745E0,1.405918121E1,5.533169270E0,6.823683381E-1
1.309713478E0,1.425551224E1,5.552323341E0,8.332076073E-1
1.311713211E0,1.449733353E1,5.497254848E0,1.125309110E0
1.313713011E0,1.458831596E1,5.351204395E0,1.283331275E0
1.315712744E0,1.454521942E1,5.195576191E0,1.333611012E0
1.317712477E0,1.433691788E1,4.735875607E0,1.434170604E0
1.319712210E0,1.396101665E1,4.223500729E0,1.424593568E0
1.321711943E0,1.369285774E1,3.974496126E0,1.364736676E0
1.323711676E0,1.303922081E1,3.438178539E0,1.240234375E0
1.325711409E0,1.236164093E1,3.011997700E0,9.313728809E-1
1.327711142E0,1.197855663E1,2.837215662E0,7.230709791E-1
1.329710942E0,1.118605232E1,2.554691315E0,2.873129845E-1
1.331710675E0,1.036960411E1,2.592999697E0,-2.825244367E-1
1.333710408E0,9.936240196E0,2.779752970E0,-6.416656375E-1
1.335710141E0,9.004867554E0,3.205934048E0,-1.316851139E0
1.337709874E0,8.142929077E0,3.730280161E0,-1.728666425E0
1.339709607E0,7.702382088E0,4.022381783E0,-1.795706153E0
1.341709340E0,6.838048935E0,4.649681568E0,-1.709512234E0
1.343709073E0,6.007235527E0,5.334444046E0,-1.491633177E0
1.345708873E0,5.648094177E0,5.660065651E0,-1.376708031E0
1.347708606E0,5.111776829E0,6.246663094E0,-9.481328130E-1
1.349708339E0,4.728692532E0,6.735095024E0,-5.411061049E-1
1.351708072E0,4.611373425E0,6.921848297E0,-3.304099143E-1
1.353707805E0,4.513207912E0,7.290566921E0,1.197137404E-2
1.355707538E0,4.628133297E0,7.632947922E0,1.508393139E-1
1.357707271E0,4.747847080E0,7.802941799E0,1.101366431E-1
1.359707004E0,5.087833881E0,8.071100235E0,-2.011190802E-1
1.361706804E0,5.470917702E0,8.310527802E0,-7.278595567E-1
1.363706570E0,5.712739468E0,8.442213058E0,-1.082212210E0
1.365706336E0,6.225114346E0,8.609811783E0,-1.929785490E0
1.367706102E0,6.538764477E0,8.549955368E0,-2.683982134E0
1.369705868E0,6.608198643E0,8.478127480E0,-3.016786337E0
1.371705634E0,6.694392204E0,8.379961967E0,-3.426207304E0
1.373705400E0,6.708757877E0,8.365595818E0,-3.703943014E0
1.375705233E0,6.708757877E0,8.348835945E0,-3.914639235E0
1.377705066E0,6.725517750E0,8.315316200E0,-4.276175022E0
1.379704832E0,6.668055534E0,8.277008057E0,-4.654470444E0
1.381704598E0,6.665660858E0,8.207573891E0,-4.963331699E0
1.383704364E0,6.680026531E0,8.063917160E0,-5.530774593E0
1.385704130E0,6.629746914E0,7.994483471E0,-5.722316742E0
1.387703896E0,6.608198643E0,7.968146324E0,-5.729499817E0
1.389703662E0,6.615381241E0,7.869981289E0,-5.593026161E0
1.391703495E0,6.861991405E0,7.529994488E0,-5.918647289E0
1.393703328E0,7.130150318E0,7.336058140E0,-6.263422966E0
1.395703094E0,7.750267506E0,7.103813171E0,-6.493273258E0
1.397702860E0,8.447001457E0,6.864386082E0,-6.399896622E0
1.399702626E0,8.858817101E0,6.658478260E0,-6.486090660E0
1.401702392E0,9.711178780E0,6.241874218E0,-6.565101624E0
1.403702158E0,1.057790565E1,5.801327705E0,-6.646506786E0
1.405701924E0,1.098972130E1,5.614574432E0,-6.646506786E0
1.407701757E0,1.163617516E1,5.327261448E0,-6.383136749E0
1.409701523E0,1.203841400E1,5.253038883E0,-5.839636326E0
1.411701289E0,1.210305882E1,5.379935265E0,-5.365570068E0
1.413701055E0,1.193067169E1,5.997658253E0,-4.089421272E0
1.415700821E0,1.160744381E1,6.689603806E0,-3.325647593E0
1.417700587E0,1.137519932E1,6.991282463E0,-3.093403101E0
1.419700353E0,1.087958431E1,7.599428177E0,-2.856369734E0
1.421700119E0,1.036002731E1,8.332076073E0,-3.296916485E0
1.423699919E0,1.007989693E1,8.751074791E0,-3.696760416E0
1.425699652E0,9.538790703E0,9.531607628E0,-4.850800991E0
1.427699385E0,9.007262230E0,9.878777504E0,-6.122160912E0
1.429699118E0,8.748680115E0,1.051804924E1,-6.766220570E0
1.431698851E0,8.348835945E0,1.090831566E1,-8.233911514E0
1.433698584E0,8.080677032E0,1.106633854E1,-9.553156853E0
1.435698317E0,7.951386452E0,1.124830341E1,-9.955394745E0
1.437698050E0,7.747873306E0,1.131294823E1,-1.028819847E1
1.439697850E0,7.659285069E0,1.125788021E1,-1.024031353E1
1.441697583E0,7.597033978E0,1.120520592E1,-1.005356026E1
1.443697316E0,7.381549358E0,1.120999432E1,-9.409500122E0
1.445697049E0,7.178035736E0,1.123872566E1,-8.777411461E0
1.447696782E0,7.115784645E0,1.118844604E1,-8.549955368E0
1.449696515E0,6.943397045E0,1.102084732E1,-8.114197731E0
1.451696248E0,6.785374641E0,1.092028713E1,-7.937020779E0
1.453695981E0,6.680026531E0,1.074311066E1,-7.664073467E0
1.455695781E0,6.390319347E0,1.052283764E1,-7.544359684E0
1.457695514E0,6.153286457E0,1.036002731E1,-7.515628815E0
1.459695247E0,6.028783798E0,9.862017632E0,-7.374366283E0
1.461694980E0,5.877944469E0,9.505270958E0,-7.127756119E0
1.463694713E0,5.842030525E0,9.320911407E0,-7.094236374E0
1.465694446E0,5.873156071E0,8.964164734E0,-7.156487465E0
1.467694179E0,6.040755272E0,8.626572609E0,-7.324086666E0
1.469693979E0,6.148497581E0,8.461367607E0,-7.439012051E0
1.471693779E0,6.304125786E0,8.083071709E0,-7.498868465E0
1.473693512E0,6.308914185E0,7.640130997E0,-7.400703430E0
1.475693245E0,6.289760113E0,7.422251701E0,-7.348029613E0
1.477692978E0,6.208354473E0,7.046350956E0,-7.225921154E0
1.479692711E0,6.043149471E0,6.703969479E0,-7.149304390E0
1.481692444E0,5.949772835E0,6.507638931E0,-7.132544518E0
1.483692177E0,5.695979595E0,6.150891781E0,-6.929031372E0
1.485691977E0,5.430215359E0,5.854001999E0,-6.778192043E0
1.487691710E0,5.291347504E0,5.707951069E0,-6.699181080E0
1.489691443E0,5.020794392E0,5.384724140E0,-6.526793003E0
1.491691176E0,4.628133297E0,5.004034519E0,-6.251451492E0
1.493690909E0,4.472505569E0,4.889109135E0,-6.119766235E0
1.495690642E0,4.194769382E0,4.620950222E0,-5.906675816E0
1.497690375E0,3.952947617E0,4.410254002E0,-5.614574432E0
1.499690108E0,3.694365978E0,4.450956821E0,-5.243461609E0
1.501689908E0,3.584229469E0,4.537150860E0,-5.023188591E0
1.503689641E0,3.399870157E0,4.692778587E0,-4.632921696E0
1.505689374E0,3.328042030E0,4.721509933E0,-4.448562622E0
1.507689107E0,3.196356773E0,4.599401951E0,-4.039141655E0
1.509688840E0,3.131711483E0,4.359974384E0,-3.553103924E0
1.511688573E0,3.134105682E0,4.223500729E0,-3.272973776E0
1.513688306E0,3.177202702E0,4.008016109E0,-2.865947008E0
1.515688072E0,3.256213665E0,3.845205307E0,-2.674404860E0
1.517687872E0,3.313676357E0,3.790137053E0,-2.633702278E0
1.519687605E0,3.318464994E0,3.684788942E0,-2.449343204E0
1.521687338E0,3.275367975E0,3.675211906E0,-2.190761566E0
1.523687071E0,3.304099321E0,3.720703125E0,-2.166818619E0
1.525686804E0,3.407052994E0,3.761405706E0,-2.185972929E0
1.527686537E0,3.433390141E0,3.806896925E0,-2.133298874E0
1.529686270E0,3.380716085E0,3.759011507E0,-2.056682110E0
1.531686003E0,3.227482557E0,3.622537851E0,-2.051893473E0
1.533685803E0,2.966506481E0,3.641691923E0,-2.044710636E0
1.535685536E0,2.784541607E0,3.596200705E0,-2.039922237E0
1.537685269E0,2.320052385E0,3.505218267E0,-1.948939681E0
1.539685002E0,1.817254543E0,3.296916485E0,-1.901054144E0
1.541684735E0,1.563461423E0,3.160442829E0,-1.879505754E0
1.543684468E0,9.170072675E-1,2.427794695E0,-1.848380208E0
1.545684201E0,4.118152559E-1,1.855562925E0,-1.644866824E0
1.547684001E0,2.873129845E-1,1.922602654E0,-1.532335877E0
1.549683801E0,6.464541703E-2,2.205127001E0,-1.213897347E0
1.551683534E0,3.830839694E-2,2.643279314E0,-1.041509509E0
1.553683267E0,9.816526622E-2,2.830032825E0,-9.960182905E-1
1.555683000E0,3.184385598E-1,3.181991339E0,-9.265843630E-1
1.557682733E0,5.602602959E-1,3.557892323E0,-8.212362528E-1
1.559682466E0,6.871568561E-1,3.893090725E0,-7.709565163E-1
1.561682199E0,7.350423932E-1,4.041535854E0,-7.302538157E-1
1.563681999E0,8.092648983E-1,4.197163582E0,-6.273000240E-1
1.565681732E0,8.667274714E-1,4.249837875E0,-5.818088055E-1
1.567681465E0,9.984126091E-1,4.321666241E0,-5.458946824E-1
1.569681198E0,1.137280583E0,4.446168423E0,-5.506832004E-1
1.571680931E0,1.197137356E0,4.489265442E0,-5.818088055E-1
1.573680664E0,1.264177084E0,4.563488007E0,-5.865973234E-1
1.575680364E0,1.259388566E0,4.709538460E0,-6.656084061E-1
1.577680097E0,1.300091267E0,4.762212753E0,-7.925049663E-1
1.579679897E0,1.407833576E0,4.848406315E0,-1.185166001E0
1.581679630E0,1.458113313E0,4.946571827E0,-1.575432777E0
1.583679363E0,1.446141958E0,5.039948463E0,-1.687963724E0
1.585679096E0,1.515576005E0,5.229096413E0,-1.972882390E0
1.587678829E0,1.831620216E0,5.719922543E0,-2.743839025E0
1.589678562E0,2.094990492E0,6.057515144E0,-3.488458395E0
1.591678295E0,2.332023621E0,6.474119186E0,-5.008822918E0
1.593678028E0,1.891477108E0,6.486090660E0,-4.520390987E0
1.595677828E0,1.455719113E0,6.466936111E0,-3.340013266E0
1.597677561E0,5.674431324E-1,6.428627968E0,-1.130097747E0
1.599677294E0,1.915419847E-2,6.478907585E0,-6.464541703E-2
1.601677027E0,-6.703969836E-2,6.584255695E0,1.221080124E-1
1.603676760E0,-1.460507661E-1,6.885934353E0,1.795706153E-1
1.605676493E0,-2.154847383E-1,7.199584484E0,1.173194647E-1
1.607676226E0,-2.729473412E-1,7.364789486E0,1.125309169E-1
1.609675959E0,-3.519583941E-1,7.685622215E0,1.675992459E-2
1.611675759E0,-4.309694767E-1,8.018425941E0,-9.098244458E-2
1.613675492E0,-5.075862408E-1,8.169265747E0,-1.484450400E-1
1.615675225E0,-6.464542150E-1,8.413481712E0,-2.370332032E-1
1.617674958E0,-7.996878028E-1,8.712765694E0,-2.992843390E-1
1.619674691E0,-9.265843630E-1,8.928250313E0,-3.902668059E-1
1.621674424E0,-9.792584181E-1,8.995290756E0,-4.381522834E-1
1.623674157E0,-1.113337755E0,9.143735886E0,-3.351984620E-1
1.625673957E0,-1.170800328E0,9.201197624E0,-2.250618339E-1
1.627673757E0,-1.259388566E0,9.292180061E0,1.197137404E-2
1.629673490E0,-1.312062621E0,9.514847755E0,2.226675600E-1
1.631673223E0,-1.290514112E0,9.680052757E0,3.112557232E-1
1.633672956E0,-1.240234375E0,1.004158878E1,5.387118459E-1
1.635672689E0,-1.177983165E0,1.039354706E1,7.589851022E-1
1.637672422E0,-1.158828974E0,1.055396366E1,8.810931444E-1
1.639672155E0,-1.158828974E0,1.084845924E1,1.125309110E0
1.641671955E0,-1.175588965E0,1.102802944E1,1.635289669E0
1.643671755E0,-1.180377483E0,1.113577175E1,2.085413456E0
1.645671488E0,-1.168406129E0,1.134407425E1,3.079037428E0
1.647671221E0,-1.240234375E0,1.157871342E1,4.865166187E0
1.649670954E0,-1.247417212E0,1.169363785E1,5.846818924E0
1.651670687E0,-1.106154919E0,1.179180336E1,6.914665699E0
1.653670420E0,-9.672870040E-1,1.176786041E1,7.757450581E0
1.655670153E0,-8.810931444E-1,1.171758080E1,8.164477348E0
1.657669953E0,-6.895511150E-1,1.162420464E1,9.189227104E0
1.659669686E0,-4.836435020E-1,1.138238239E1,1.146139336E1
1.661669419E0,-2.968900800E-1,1.125069714E1,1.385087967E1
1.663669152E0,4.453351200E-1,1.112380123E1,2.012627411E1
1.665668885E0,1.673598051E0,1.102563572E1,2.583422470E1
1.667668618E0,2.466103077E0,1.096817303E1,2.855651474E1
1.669668351E0,4.266597748E0,1.061621475E1,3.301226044E1
1.671668084E0,5.597814560E0,9.821314812E0,3.221257401E1
1.673667884E0,5.813299179E0,9.244295120E0,2.975844193E1
1.675667617E0,5.308107376E0,8.075888634E0,2.408879852E1
1.677667350E0,4.359974384E0,7.247469902E0,1.920926666E1
1.679667083E0,3.421418667E0,6.861991405E0,1.548856354E1
1.681666816E0,2.988054991E0,6.816500187E0,1.400650787E1
1.683666549E0,2.296109438E0,6.938608170E0,1.151885605E1
1.685666282E0,2.013585091E0,7.051139355E0,1.045340347E1
1.687666015E0,1.494027495E0,7.407886028E0,8.607418060E0
1.689665815E0,1.122914910E0,7.800547123E0,6.931425571E0
1.691665548E0,1.027143836E0,7.980117798E0,6.153286457E0
1.693665281E0,9.361614585E-1,8.344047546E0,4.877137661E0
1.695665014E0,9.002473354E-1,8.614601135E0,3.914639235E0
1.697664747E0,8.978530765E-1,8.707977295E0,3.550709486E0
1.699664480E0,9.050358534E-1,8.815719604E0,2.973689318E0
1.701664213E0,9.265843630E-1,8.870788574E0,2.535537004E0
1.703663946E0,9.361614585E-1,8.865999222E0,2.365543604E0
1.705663746E0,9.529213905E-1,8.887548447E0,2.056682110E0
1.707663479E0,1.015172482E0,8.901913643E0,1.836408734E0
1.709663212E0,1.072635174E0,8.906702042E0,1.766974807E0
1.711662945E0,1.199531674E0,8.945011139E0,1.661626697E0
1.713662678E0,1.359948039E0,8.992896080E0,1.565855742E0
1.715662411E0,1.434170604E0,9.012050629E0,1.515576005E0
1.717662144E0,1.582615614E0,9.038387299E0,1.431776285E0
1.719661944E0,1.709512234E0,9.095849991E0,1.355159521E0
1.721661744E0,1.769369125E0,9.095849991E0,1.321639657E0
1.723661477E0,1.869928598E0,9.134158134E0,1.245022893E0
1.725661210E0,1.951334000E0,9.167677879E0,1.106154919E0
1.727660943E0,1.994430900E0,9.172467232E0,8.403904438E-1
1.729660676E0,2.145270348E0,9.091061592E0,-1.319245458E0
1.731660409E0,2.324840784E0,9.074301720E0,-6.332856655E0
1.733660142E0,2.413429022E0,9.057541847E0,-9.845257759E0
1.735659942E0,2.889889717E0,8.976136208E0,-1.450691128E1
1.737659675E0,3.553103924E0,9.079090118E0,-1.164814663E1
1.739659408E0,3.660846233E0,9.134158134E0,-8.892336845E0
1.741659141E0,3.335224867E0,9.155706406E0,-4.486870766E0
1.743658874E0,2.865947008E0,9.213169098E0,-2.145270348E0
1.745658607E0,2.652856588E0,9.265843391E0,-1.482056141E0
1.747658340E0,2.229069948E0,9.466962814E0,-5.913859010E-1
1.749658073E0,1.824437380E0,9.830892563E0,1.101366431E-1
1.751657873E0,1.647261024E0,1.000327969E1,4.094209969E-1
1.753657606E0,1.340793848E0,1.027622795E1,8.571503758E-1
1.755657339E0,1.125309110E0,1.040073013E1,1.127703428E0
1.757657072E0,1.067846537E0,1.041270161E1,1.218685865E0
1.759656805E0,1.084606528E0,1.033847904E1,1.479661822E0
1.761656538E0,1.144463301E0,1.008708000E1,1.834014535E0
1.763656271E0,1.187560320E0,9.943423271E0,2.001613855E0
1.765656004E0,1.225868702E0,9.677659035E0,2.224281311E0
1.767655804E0,1.278542757E0,9.560338974E0,2.245829821E0
1.769655570E0,1.316851139E0,9.373585701E0,2.195549965E0
1.771655336E0,1.415016413E0,9.296969414E0,2.068653345E0
1.773655102E0,1.565855742E0,9.294574738E0,1.977671027E0
1.775654868E0,1.654443860E0,9.371191978E0,1.960911036E0
1.777654634E0,1.860351562E0,9.478934288E0,1.996825218E0
1.779654400E0,2.066259146E0,9.529213905E0,2.212309837E0
1.781654133E0,2.154847383E0,9.613013268E0,2.425400496E0
1.783653966E0,2.312869549E0,9.684841156E0,3.155654192E0
1.785653732E0,2.430188894E0,9.692024231E0,4.017592907E0
1.787653498E0,2.458920240E0,9.689630508E0,4.415042877E0
1.789653264E0,2.466103077E0,9.675264359E0,5.035160065E0
1.791653030E0,2.387091875E0,9.644139290E0,5.257827282E0
1.793652796E0,2.346389294E0,9.562733650E0,5.545140266E0
1.795652562E0,2.257801056E0,9.478934288E0,5.719922543E0
1.797652395E0,2.193155766E0,9.443019867E0,5.791750908E0
1.799652228E0,2.154847383E0,9.354432106E0,5.880339146E0
1.801651994E0,2.090201855E0,9.282603264E0,5.923435688E0
1.803651760E0,2.039922237E0,9.251478195E0,5.940196037E0
1.805651526E0,2.006402254E0,9.213169098E0,5.844424725E0
1.807651292E0,1.913025618E0,9.184437752E0,5.662459850E0
1.809651058E0,1.877111435E0,9.179649353E0,5.593026161E0
1.811650824E0,1.826831698E0,9.213169098E0,5.332049847E0
1.813650657E0,1.805283189E0,9.215563774E0,4.977697372E0
1.815650423E0,1.802888989E0,9.205986977E0,4.805309772E0
1.817650189E0,1.740637779E0,9.122186661E0,4.731087208E0
1.819649955E0,1.702329397E0,9.055147171E0,4.704750061E0
1.821649721E0,1.678386688E0,9.014444351E0,4.573064804E0
1.823649487E0,1.628106833E0,8.937828064E0,4.235472202E0
1.825649253E0,1.589798450E0,8.918673515E0,4.067873001E0
1.827649019E0,1.570644259E0,8.933039665E0,4.031958580E0
1.829648819E0,1.558672905E0,8.930644989E0,3.933793545E0
1.831648552E0,1.664021015E0,8.909096718E0,3.706337452E0
1.833648285E0,1.769369125E0,8.882759094E0,3.548315287E0
1.835648018E0,1.951334000E0,8.798959732E0,3.351984739E0
1.837647751E0,1.958516836E0,8.719948769E0,3.184385538E0
1.839647484E0,1.922602654E0,8.691217422E0,3.095797300E0
1.841647250E0,1.788523316E0,8.657697678E0,2.909043789E0
1.843646983E0,1.695146561E0,8.631361008E0,2.648067951E0
1.845646783E0,1.637683988E0,8.636149406E0,2.454131603E0
1.847646516E0,1.529941559E0,8.624177933E0,2.025556564E0
1.849646249E0,1.417410731E0,8.609811783E0,1.580221415E0
1.851645982E0,1.374313712E0,8.576292038E0,1.362342358E0
1.853645715E0,1.245022893E0,8.504464149E0,9.577099085E-1
1.855645448E0,1.142069101E0,8.470944405E0,5.506832004E-1
1.857645181E0,1.115732074E0,8.487704277E0,3.160442710E-1
1.859644914E0,1.055875182E0,8.535589218E0,-2.753416002E-1
1.861644714E0,1.024749637E0,8.581081390E0,-8.284190893E-1
1.863644447E0,1.003201127E0,8.583475113E0,-1.108549237E0
1.865644180E0,8.571503758E-1,8.511647224E0,-1.709512234E0
1.867643913E0,6.512427330E-1,8.341653824E0,-2.250618219E0
1.869643646E0,5.051919818E-1,8.226728439E0,-2.442160368E0
1.871643379E0,2.083019018E-1,8.032792091E0,-2.705530643E0
1.873643112E0,-1.412622184E-1,7.764633179E0,-2.753416061E0
1.875642912E0,-3.304099143E-1,7.625765324E0,-2.638490915E0
1.877642712E0,-5.602602959E-1,7.561120033E0,-2.078230619E0
1.879642445E0,-4.070267081E-1,7.714353561E0,-1.046298146E0
1.881642178E0,-8.619388938E-2,7.817307472E0,-3.136500120E-1
1.883641911E0,8.427847624E-1,8.078283310E0,1.403045058E0
1.885641644E0,1.769369125E0,8.533195496E0,3.119740009E0
1.887641377E0,2.118933201E0,8.772623062E0,3.873936653E0
1.889641110E0,2.542719841E0,9.287391663E0,5.083045483E0
1.891640910E0,2.588211060E0,9.814132690E0,5.786962032E0
1.893640710E0,2.547508478E0,1.009186840E1,5.959350109E0
1.895640443E0,2.525959969E0,1.060424328E1,6.007235527E0
1.897640176E0,2.810878515E0,1.091071033E1,6.148497581E0
1.899639909E0,3.153259993E0,1.093465328E1,6.545947552E0
1.901639642E0,3.368744612E0,1.089873886E1,6.395108223E0
1.903639375E0,3.174808502E0,1.077423668E1,5.973715782E0
1.905639108E0,3.062277555E0,1.071198559E1,5.887521744E0
1.907638908E0,2.885101080E0,1.056114578E1,5.956955910E0
1.909638641E0,2.707924843E0,1.039354706E1,5.827664852E0
1.911638374E0,2.640885115E0,1.029298782E1,5.719922543E0
1.913638107E0,2.753416061E0,1.010862827E1,5.542746067E0
1.915637840E0,3.110162973E0,9.929058075E0,5.341627121E0
1.917637573E0,3.148471355E0,9.794978142E0,5.296135902E0
1.919637306E0,2.851581335E0,9.507665634E0,5.308107376E0
1.921637039E0,2.399063349E0,9.220352173E0,5.667248249E0
1.923636839E0,2.217098475E0,9.117398262E0,5.933012962E0
1.925636572E0,1.896265626E0,8.976136208E0,6.052726746E0
1.927636305E0,1.649655342E0,8.794171333E0,5.786962032E0
1.929636038E0,1.577827096E0,8.717555046E0,5.521197796E0
1.931635771E0,1.525153041E0,8.559532166E0,4.922628880E0
1.933635504E0,1.474873304E0,8.406298637E0,4.175615311E0
1.935635237E0,1.426987767E0,8.329682350E0,3.818868399E0
1.937634970E0,1.254600048E0,8.241093636E0,3.189173937E0
1.939634770E0,1.122914910E0,8.241093636E0,2.621730804E0
1.941634503E0,1.096577883E0,8.281796455E0,2.375120640E0
1.943634236E0,1.098972082E0,8.367990494E0,1.826831698E0
1.945633969E0,1.134886265E0,8.521224022E0,1.230657220E0
1.947633702E0,1.151646137E0,8.619389534E0,9.792584181E-1
1.949633435E0,1.211503029E0,8.779806137E0,4.956148863E-1
1.951633168E0,1.278542757E0,8.933039665E0,4.788549617E-2
1.953632901E0,1.312062621E0,8.973741531E0,-2.011190802E-1
1.955632734E0,1.376708031E0,8.973741531E0,-7.805336118E-1
1.957632467E0,1.453324795E0,8.916279793E0,-1.556278586E0
1.959632200E0,1.479661822E0,8.861210823E0,-1.977671027E0
1.961631933E0,1.596981287E0,8.743891716E0,-2.868341208E0
1.963631666E0,1.699935079E0,8.557138443E0,-3.706337452E0
1.965631399E0,1.766974807E0,8.475732803E0,-4.087027073E0
1.967631132E0,1.920208454E0,8.327287674E0,-4.664047241E0
1.969630932E0,2.185972929E0,8.238699913E0,-4.321666241E0
1.971630732E0,2.425400496E0,8.178842545E0,-3.545921087E0
1.973630465E0,2.961717844E0,8.087860107E0,-1.302485466E0
1.975630198E0,3.368744612E0,7.975329399E0,1.197137356E0
1.977629931E0,3.505218267E0,7.925049782E0,2.367937803E0
1.979629664E0,3.675211906E0,7.850827217E0,4.395888329E0
1.981629397E0,3.680000305E0,7.850827217E0,5.640911579E0
1.983629130E0,3.665634632E0,7.898712635E0,5.901887417E0
1.985628930E0,3.565075159E0,8.004060745E0,5.755836487E0
1.987628696E0,3.423812866E0,8.011243820E0,5.063891411E0
1.989628462E0,3.347196102E0,7.977723598E0,4.671230316E0
1.991628228E0,3.282550812E0,7.893924236E0,3.984073162E0
1.993627994E0,3.225088120E0,7.893924236E0,3.579440832E0
1.995627760E0,3.210722446E0,7.889135361E0,3.498035431E0
1.997627526E0,3.186779737E0,7.925049782E0,3.565075159E0
1.999627292E0,3.205934048E0,8.162082672E0,3.804502726E0
2.001627125E0,3.193962574E0,8.365595818E0,3.950553417E0
2.003626925E0,3.153259993E0,8.947404861E0,4.192375183E0
2.005626725E0,3.033546209E0,9.727938652E0,4.278569221E0
2.007626525E0,2.944957972E0,1.016609097E1,4.237866402E0
2.009626325E0,2.648067951E0,1.105436707E1,4.163643837E0
2.011626125E0,1.893871427E0,1.167687798E1,4.575459003E0
2.013625925E0,1.479661822E0,1.189954567E1,4.965725899E0
2.015625691E0,8.739103079E-1,1.222277260E1,5.616968632E0
2.017625557E0,6.033572555E-1,1.239755535E1,5.830059052E0
2.019625423E0,5.865973234E-1,1.241910362E1,5.741470814E0
2.021625289E0,5.674431324E-1,1.242149734E1,5.391906738E0
2.023625155E0,5.219519138E-1,1.226826382E1,4.752635479E0
2.025625021E0,5.219519138E-1,1.213897324E1,4.393494129E0
2.027624887E0,5.985686779E-1,1.177743816E1,3.754222870E0
2.029624753E0,7.829278708E-1,1.131773663E1,3.232270956E0
2.031624619E0,8.691217303E-1,1.108788681E1,3.038334846E0
2.033624552E0,1.005595446E0,1.062818623E1,2.707924843E0
2.035624418E0,1.010383964E0,1.023313046E1,2.516382933E0
2.037624284E0,9.936240315E-1,1.007989693E1,2.468497276E0
2.039624150E0,9.792584181E-1,9.818921089E0,2.384697676E0
2.041624016E0,1.022355318E0,9.636956215E0,2.267378330E0
2.043623882E0,1.053480864E0,9.562733650E0,2.212309837E0
2.045623748E0,1.127703428E0,9.445414543E0,2.154847383E0
2.047623648E0,1.197137356E0,9.296969414E0,2.169213057E0
2.049623548E0,1.230657220E0,9.220352173E0,2.123721838E0
2.051623381E0,1.302485466E0,9.064723969E0,2.059076309E0
2.053623214E0,1.388679385E0,8.894730568E0,2.004008055E0
2.055623047E0,1.407833576E0,8.801354408E0,1.963305354E0
2.057622880E0,1.494027495E0,8.631361008E0,1.814860344E0
2.059622713E0,1.623318315E0,8.468549728E0,1.640078187E0
2.061622546E0,1.642472506E0,8.377567291E0,1.570644259E0
2.063622412E0,1.687963724E0,8.231516838E0,1.386285067E0
2.065622278E0,1.778946161E0,8.157294273E0,1.211503029E0
2.067622078E0,1.838803053E0,8.150111198E0,1.130097747E0
2.069621878E0,1.927391171E0,8.154899597E0,1.067846537E0
2.071621678E0,2.047105074E0,8.221940041E0,1.017566800E0
2.073621478E0,2.097384691E0,8.248276711E0,1.000806928E0
2.075621278E0,2.207521439E0,8.274613380E0,9.194015265E-1
2.077621078E0,2.298503876E0,8.260248184E0,7.613793612E-1
2.079620878E0,2.341600657E0,8.255459785E0,7.039167881E-1
2.081620611E0,2.432583094E0,8.267431259E0,5.435003638E-1
2.083620344E0,2.458920240E0,8.298556328E0,6.320885420E-1
2.085620077E0,2.401457548E0,8.322499275E0,8.834874034E-1
2.087619810E0,2.272166729E0,8.389538765E0,1.637683988E0
2.089619543E0,2.255406857E0,8.458972931E0,2.389486313E0
2.091619276E0,2.296109438E0,8.456578255E0,2.722290516E0
2.093619009E0,2.439765930E0,8.367990494E0,3.196356773E0
2.095618809E0,2.731867552E0,8.051946640E0,3.253819466E0
2.097618542E0,2.832427025E0,7.879558563E0,3.261002302E0
2.099618275E0,2.904255390E0,7.582668304E0,3.366350412E0
2.101618008E0,2.909043789E0,7.336058140E0,3.447755814E0
2.103617741E0,2.980872154E0,7.228315830E0,3.488458395E0
2.105617474E0,3.208328247E0,7.012830734E0,3.557892323E0
2.107617207E0,3.416630268E0,6.785374641E0,3.524372578E0
2.109616940E0,3.531555414E0,6.627352715E0,3.488458395E0
2.111616740E0,3.775771379E0,6.213143349E0,3.457332850E0
2.113616473E0,3.615355015E0,6.086246490E0,3.612960577E0
2.115616206E0,3.366350412E0,5.492466450E0,3.641691923E0
2.117615939E0,3.234665155E0,5.506832123E0,3.445361376E0
2.119615672E0,3.124528646E0,5.600208759E0,3.328042030E0
2.121615405E0,2.942563772E0,5.669642925E0,3.330436230E0
2.123615138E0,2.403851986E0,5.880339146E0,3.452544212E0
2.125614871E0,1.867534399E0,5.995264053E0,3.761405706E0
2.127614671E0,1.709512234E0,6.438204765E0,3.869148016E0
2.129614404E0,1.501210332E0,7.180429935E0,3.881119490E0
2.131614137E0,1.077423692E0,7.328875065E0,3.833234072E0
2.133613870E0,8.930644989E-1,7.206767082E0,3.873936653E0
2.135613603E0,5.530774593E-1,6.759037971E0,3.945764780E0
2.137613336E0,2.011190802E-1,6.308914185E0,3.991255999E0
2.139613069E0,2.466102988E-1,5.616968632E0,4.108575344E0
2.141612869E0,5.051919818E-1,5.461340904E0,3.849993944E0
2.143612669E0,3.447755575E-1,5.197970390E0,3.620143414E0
2.145612402E0,1.053480953E-1,4.273780346E0,2.983266354E0
2.147612135E0,-5.411061049E-1,2.973689318E0,2.152452946E0
2.149611868E0,-9.601042271E-1,2.375120640E0,1.623318315E0
2.151611601E0,-1.029538155E0,1.556278586E0,5.291347504E-1
2.153611334E0,-1.130097747E0,4.142095447E-1,-4.094209969E-1
2.155611067E0,-1.225868702E0,-2.513988614E-1,-7.134938836E-1
2.157610867E0,-1.314456820E0,-1.326428294E0,-1.170800328E0
2.159610600E0,-1.029538155E0,-1.573038578E0,-1.494027495E0
2.161610333E0,-8.236305118E-1,-1.410227895E0,-1.599375606E0
2.163610066E0,-5.339232683E-1,-8.260248303E-1,-1.800494671E0
2.165609799E0,-4.118152559E-1,-9.816526622E-2,-1.781340480E0
2.167609532E0,-3.950553536E-1,4.597007632E-1,-1.623318315E0
2.169609265E0,-2.178790122E-1,2.111750364E0,-8.739103079E-1
2.171608998E0,1.675992459E-2,4.386311531E0,1.029538140E-1
2.173608798E0,1.460507661E-1,5.818087578E0,4.908263385E-1
2.175608531E0,4.692778587E-1,8.820508003E0,1.221080184E0
2.177608264E0,9.241901040E-1,1.180856323E1,1.879505754E0
2.179607997E0,1.151646137E0,1.375271416E1,2.724684715E0
2.181607730E0,1.336005330E0,1.443029404E1,3.009603500E0
2.183607463E0,1.956122518E0,1.544786072E1,3.220299721E0
2.185607196E0,2.394274712E0,1.593629265E1,3.165231228E0
2.187606929E0,3.335224867E0,1.666894150E1,3.076643229E0
2.189606729E0,4.307300568E0,1.743989754E1,2.801301479E0
2.191606462E0,4.680807114E0,1.771284485E1,2.794118643E0
2.193606195E0,5.135719299E0,1.779903984E1,2.880312681E0
2.195605928E0,5.427821159E0,1.709991074E1,3.172414064E0
2.197605661E0,5.394300938E0,1.644148445E1,3.354378939E0
2.199605394E0,5.147690773E0,1.524195385E1,3.488458395E0
2.201605127E0,4.946571827E0,1.436325455E1,3.040729046E0
2.203604860E0,5.004034519E0,1.402566147E1,2.784541607E0
2.205604660E0,5.255433083E0,1.326907063E1,2.695953369E0
2.207604393E0,5.571477413E0,1.239516068E1,2.911438227E0
2.209604126E0,5.684008598E0,1.200728798E1,2.952140808E0
2.211603859E0,5.808510780E0,1.154279900E1,3.023969173E0
2.213603592E0,5.475706577E0,1.088197899E1,3.301704884E0
2.215603325E0,5.150084972E0,1.055635738E1,3.390293121E0
2.217603058E0,4.587430477E0,9.706390381E0,3.555498123E0
2.219602858E0,4.170826912E0,8.090254784E0,3.557892323E0
2.221602658E0,3.730280161E0,6.581861496E0,3.720703125E0
2.223602391E0,-7.661679387E-2,-4.453351021E0,5.468523502E0
2.225602124E0,-4.553910732E0,-2.319573402E1,4.376734257E0
2.227601857E0,-4.522785187E0,-2.808005524E1,2.600182533E0
2.229601590E0,-1.968093872E0,-2.687094688E1,2.413429022E0
2.231601323E0,-1.357553840E0,-1.823958588E1,4.608979225E0
2.233601056E0,-2.183578730E0,-1.307752895E1,5.365570068E0
2.235600856E0,-4.204346657E0,-2.231464148E0,5.796539307E0
2.237600589E0,-4.628133297E0,8.118986130E0,5.384724140E0
2.239600322E0,-4.223500729E0,1.300570107E1,5.372752666E0
2.241600055E0,-2.923409462E0,2.137608528E1,5.763019562E0
2.243599788E0,-3.830839694E-1,2.690207100E1,6.172440529E0
2.245599521E0,6.584255695E-1,2.805850601E1,6.785374641E0
2.247599254E0,3.957736254E0,2.408161545E1,7.297749519E0
2.249598987E0,4.494053841E0,1.578545380E1,7.850827217E0
2.251598787E0,3.040729046E0,1.085564232E1,8.257853508E0
2.253598520E0,-2.858764172E0,2.490045786E0,9.263449669E0
2.255598253E0,-8.329682350E0,-2.176395893E0,8.808537483E0
2.257597986E0,-9.397528648E0,-3.045517445E0,7.996877670E0
2.259597719E0,-8.425453186E0,-2.013585091E0,6.598621368E0
2.261597452E0,-3.608172178E0,-2.394274808E-2,4.774183750E0
2.263597185E0,-1.426987767E0,9.696813226E-1,4.113364220E0
2.265596918E0,-8.140534163E-2,2.937775135E0,3.634509087E0
2.267596718E0,-1.558672905E0,4.309694767E0,4.831646442E0
2.269596451E0,-2.389486313E0,4.726298332E0,5.332049847E0
2.271596184E0,-3.047911882E0,5.394300938E0,4.702355862E0
2.273595917E0,-3.110162973E0,5.904281616E0,3.069460392E0
2.275595650E0,-2.865947008E0,6.155680656E0,2.408640385E0
2.277595383E0,-2.130904675E0,6.826077461E0,1.927391171E0
2.279595116E0,-1.175588965E0,7.180429935E0,6.560313106E-1
2.281594849E0,-7.733507752E-1,6.897905827E0,-4.046324492E-1
2.283594649E0,-3.902668059E-1,6.828471661E0,-1.865140080E0
2.285594382E0,-4.118152559E-1,7.151699066E0,-2.092596292E0
2.287594115E0,-5.243461728E-1,7.319298267E0,-2.171607256E0
2.289593848E0,-5.363175869E-1,7.764633179E0,-1.853168726E0
2.291593581E0,5.602602959E-1,9.024022102E0,-1.604164094E-1
2.293593314E0,1.513181686E0,9.524425507E0,3.639297783E-1
2.295593047E0,5.595420361E0,1.203362560E1,2.382303476E0
2.297592847E0,7.448588848E0,1.418368435E1,4.606584549E0
2.299592680E0,7.673650742E0,1.505998898E1,5.487678051E0
2.301592413E0,7.156487465E0,1.650373650E1,6.680026531E0
2.303592146E0,5.734288216E0,1.684372330E1,6.952973843E0
2.305591879E0,5.099805355E0,1.664499855E1,7.113390446E0
2.307591612E0,4.391099930E0,1.600093842E1,7.869981289E0
2.309591345E0,3.241847992E0,1.478704166E1,7.786181450E0
2.311591078E0,2.545114040E0,1.400650787E1,7.247469902E0
2.313590878E0,1.539518714E0,1.246220016E1,5.786962032E0
2.315590678E0,9.720755816E-1,1.089395046E1,3.292127848E0
2.317590411E0,9.696813226E-1,1.012778282E1,1.822043180E0
2.319590144E0,1.350371003E0,9.074301720E0,-8.092648983E-1
2.321589877E0,1.860351562E0,9.313729286E0,-1.786128998E0
2.323589610E0,1.970488191E0,9.921875000E0,-1.503604531E0
2.325589343E0,1.707117915E0,1.112858963E1,-1.891477108E-1
2.327589076E0,1.051086664E0,1.162180996E1,9.026415944E-1
2.329588876E0,8.667274714E-1,1.151406765E1,1.326428294E0
2.331588609E0,9.026415944E-1,1.107831001E1,2.592999697E0
2.333588342E0,1.048692346E0,1.080536175E1,3.675211906E0
2.335588075E0,1.084606528E0,1.071437931E1,3.981678963E0
2.337587808E0,1.091789365E0,1.044143200E1,4.489265442E0
2.339587541E0,1.101366401E0,1.004398251E1,4.594613552E0
2.341587274E0,1.079817891E0,9.924268723E0,4.331243038E0
2.343587007E0,9.194015265E-1,9.737515450E0,3.701548815E0
2.345586807E0,7.422251701E-1,9.435836792E0,3.457332850E0
2.347586540E0,6.560313106E-1,9.344854355E0,3.311282158E0
2.349586273E0,5.913859010E-1,9.071907043E0,3.067065954E0
2.351586006E0,5.913859010E-1,8.731920242E0,2.897072554E0
2.353585739E0,5.650488734E-1,8.528407097E0,2.734261751E0
2.355585472E0,5.267404318E-1,7.972935200E0,2.391880512E0
2.357585205E0,5.770202279E-1,7.259441376E0,2.348783493E0
2.359584905E0,7.829278708E-1,6.775797844E0,2.585816860E0
2.361584705E0,8.332076073E-1,5.959350109E0,2.597788095E0
2.363584438E0,9.313728809E-1,5.341627121E0,2.415823221E0
2.365584171E0,9.265843630E-1,5.090228081E0,2.188367128E0
2.367583904E0,2.061470509E0,6.217931747E0,-5.818088055E-1
2.369583670E0,4.144489765E0,7.383943558E0,-4.297723293E0
2.371583403E0,5.446975231E0,8.111803055E0,-6.711152077E0
2.373583136E0,9.368797302E0,1.085564232E1,-1.287640953E1
2.375582869E0,1.260346222E1,1.188996887E1,-1.515815353E1
2.377582669E0,1.380538845E1,1.222756100E1,-1.672640419E1
2.379582402E0,1.606079483E1,1.336963081E1,-2.025317001E1
2.381582135E0,1.685090637E1,1.309428883E1,-1.889082909E1
2.383581868E0,1.638402176E1,1.225389862E1,-1.722680664E1
2.385581601E0,1.451409435E1,1.018285084E1,-1.342230415E1
2.387581334E0,1.165772438E1,8.128562927E0,-8.796566010E0
2.389581067E0,9.866806030E0,7.067899227E0,-6.687209606E0
2.391580867E0,5.839636326E0,5.126142502E0,-2.863552570E0
2.393580667E0,1.862745762E0,3.462121487E0,5.842030644E-1
2.395580433E0,2.561874092E-1,2.894678354E0,1.783734679E0
2.397580199E0,-1.975276709E0,2.406246185E0,2.774964571E0
2.399579965E0,-4.312088966E0,2.262589693E0,2.930592299E0
2.401579731E0,-5.782173634E0,2.236252785E0,2.940169573E0
2.403579497E0,-9.208380699E0,2.248224020E0,3.016786337E0
2.405579263E0,-1.249571991E1,2.264983892E0,3.091008663E0
2.407579096E0,-1.387003422E1,2.245829821E0,3.124528646E0
2.409578862E0,-1.596263027E1,2.190761566E0,3.196356773E0
2.411578628E0,-1.651091957E1,2.281744003E0,3.057488918E0
2.413578394E0,-1.629064560E1,2.358360767E0,2.861158371E0
2.415578160E0,-1.483492661E1,2.679193497E0,2.561874151E0
2.417577926E0,-1.262979984E1,3.016786337E0,2.372726440E0
2.419577692E0,-1.137998772E1,3.126922846E0,2.264983892E0
2.421577458E0,-8.870788574E0,3.296916485E0,1.953728199E0
2.423577291E0,-6.684815407E0,3.713520288E0,1.671203852E0
2.425577057E0,-5.652883053E0,4.094210148E0,1.630501151E0
2.427576823E0,-3.689577579E0,4.925023079E0,1.498816013E0
2.429576556E0,-2.116539001E0,5.774991035E0,1.580221415E0
2.431576322E0,-1.501210332E0,6.129343510E0,1.664021015E0
2.433576088E0,-4.573064744E-1,7.245075703E0,1.848380208E0
2.435575854E0,3.519583941E-1,9.296969414E0,1.623318315E0
2.437575620E0,7.446194887E-1,1.064733982E1,1.256994247E0
2.439575453E0,1.585009933E0,1.456197929E1,-5.506832153E-2
2.441575219E0,2.296109438E0,2.043274117E1,-1.307274103E0
2.443574985E0,2.643279314E0,2.373684120E1,-1.913025618E0
2.445574751E0,3.256213665E0,3.130753708E1,-3.102980137E0
2.447574517E0,4.070267200E0,3.962764359E1,-4.161249638E0
2.449574283E0,4.599401951E0,4.391818237E1,-4.541939259E0
2.451574049E0,5.741470814E0,5.173309708E1,-4.886714935E0
2.453573815E0,6.771008968E0,5.485283661E1,-5.174027920E0
2.455573615E0,7.146910191E0,5.901887512E1,-5.360781193E0
2.457573348E0,7.309720993E0,5.865733719E1,-5.774991035E0
2.459573081E0,6.330462456E0,5.240588760E1,-5.621757030E0
2.461572814E0,5.547534943E0,4.782803345E1,-5.351204395E0
2.463572547E0,3.852388144E0,3.801390076E1,-4.819674969E0
2.465572280E0,2.420611858E0,3.336421967E1,-4.264203548E0
2.467572013E0,1.913025618E0,2.515425110E1,-4.041535854E0
2.469571813E0,1.285725594E0,1.870168114E1,-3.773377180E0
2.471571613E0,9.122186899E-1,1.607516098E1,-3.756617069E0
2.473571346E0,8.020820618E-1,1.179180336E1,-3.845205307E0
2.475571079E0,7.302538157E-1,8.537983894E0,-4.106181145E0
2.477570812E0,7.182824612E-1,7.166064739E0,-4.225894928E0
2.479570545E0,7.398309112E-1,4.889109135E0,-4.522785187E0
2.481570278E0,8.068706393E-1,3.143682718E0,-4.960937500E0
2.483570011E0,6.201171875E-1,2.444554567E0,-5.219519138E0
2.485569811E0,5.482889414E-1,-1.173194647E-1,-2.290363312E1
2.487569544E0,1.192348838E0,-1.309668303E0,-2.959084320E1
2.489569277E0,1.647261024E0,-1.541913033E0,-2.982787514E1
2.491569010E0,1.774157643E0,-1.426987767E0,-2.357163620E1
2.493568743E0,1.766974807E0,-8.475732803E-1,-1.556039238E1
2.495568476E0,1.642472506E0,-5.291347504E-1,-1.197855663E1
2.497568209E0,1.355159521E0,-1.197137386E-1,-6.098217964E0
2.499567942E0,1.252205729E0,2.513988614E-1,-1.699935079E0
2.501567742E0,1.254600048E0,5.075862408E-1,-1.268965602E-1
2.503567475E0,1.407833576E0,1.218685865E0,1.592192769E0
2.505567208E0,1.644866824E0,2.114144564E0,2.102173328E0
2.507566941E0,1.711906433E0,2.485257149E0,2.157241583E0
2.509566674E0,1.711906433E0,2.858764172E0,2.013585091E0
2.511566407E0,1.671203852E0,3.196356773E0,1.752609134E0
2.513566140E0,1.666415215E0,3.447755814E0,1.613741279E0
2.515565873E0,1.644866824E0,4.077449799E0,1.266571403E0
2.517565639E0,1.599375606E0,4.774183750E0,8.978530765E-1
2.519565372E0,1.537124395E0,5.348809719E0,5.889915824E-1
2.521565105E0,1.501210332E0,5.583448887E0,4.501236677E-1
2.523564838E0,1.355159521E0,5.961744308E0,1.939362586E-1
2.525564571E0,1.249811411E0,6.076669693E0,7.661679387E-2
2.527564304E0,9.840469360E-1,5.933012962E0,-1.628106833E-1
2.529564037E0,7.709565163E-1,5.525986195E0,-4.046324492E-1
2.531563770E0,6.751855016E-1,5.274587631E0,-4.884320498E-1
2.533563570E0,5.075862408E-1,4.750241280E0,-6.320885420E-1
2.535563303E0,4.094209969E-1,4.101392746E0,-6.823683381E-1
2.537563036E0,3.663240373E-1,3.759011507E0,-6.919454336E-1
2.539562769E0,2.921015322E-1,3.143682718E0,-7.589851022E-1
2.541562502E0,2.513988614E-1,2.765387297E0,-7.996878028E-1
2.543562235E0,2.370332032E-1,2.674404860E0,-8.188419938E-1
2.545561968E0,1.939362586E-1,2.681587696E0,-8.763045669E-1
2.547561768E0,1.484450400E-1,2.712713242E0,-9.313728809E-1
2.549561568E0,1.245022863E-1,2.695953369E0,-9.505270720E-1
2.551561301E0,6.703969836E-2,2.547508478E0,-1.003201127E0
2.553561034E0,1.436564885E-2,2.250618219E0,-1.127703428E0
2.555560767E0,-1.915419847E-2,2.083019018E0,-1.218685865E0
2.557560500E0,-5.267404765E-2,1.802888989E0,-1.649655342E0
2.559560233E0,2.394274808E-2,1.501210332E0,-2.806090117E0
2.561559966E0,1.340793967E-1,1.278542757E0,-3.905062199E0
2.563559766E0,9.241901040E-1,8.379961848E-1,-9.174860954E0
2.565559566E0,1.733454943E0,7.182824612E-1,-1.554602623E1
2.567559299E0,1.786128998E0,8.475732803E-1,-1.727469254E1
2.569559032E0,1.180377483E0,1.462901950E0,-1.782298088E1
2.571558765E0,5.195576549E-1,2.607365370E0,-1.594587040E1
2.573558498E0,4.213923812E-1,3.325647593E0,-1.474394417E1
2.575558231E0,7.398309112E-1,5.078257084E0,-1.238558388E1
2.577557997E0,1.110943556E0,7.283383846E0,-9.512454033E0
2.579557797E0,1.367130876E0,9.699207306E0,-7.381549358E0
2.581557530E0,1.405439258E0,1.086761379E1,-6.624958515E0
2.583557263E0,1.149251938E0,1.282612991E1,-5.379935265E0
2.585556996E0,9.074301720E-1,1.369525146E1,-4.838829517E0
2.587556729E0,3.088614643E-1,1.529702187E1,-3.885908127E0
2.589556462E0,-2.801301479E-1,1.709033394E1,-2.940169573E0
2.591556195E0,-5.291347504E-1,1.806240845E1,-2.504411459E0
2.593555928E0,-9.170072675E-1,1.987008667E1,-1.781340480E0
2.595555728E0,-1.280937076E0,2.146946144E1,-1.077423692E0
2.597555461E0,-1.496421814E0,2.205605888E1,-7.374366522E-1
2.599555194E0,-1.922602654E0,2.281265068E1,-1.388679445E-1
2.601554927E0,-2.253012657E0,2.304728889E1,3.687183261E-1
2.603554660E0,-2.379909277E0,2.300179863E1,6.177229285E-1
2.605554393E0,-2.499622822E0,2.270251465E1,1.065452337E0
2.607554126E0,-2.504411459E0,2.204648209E1,1.393467903E0
2.609553859E0,-2.466103077E0,2.158678246E1,1.505998850E0
2.611553659E0,-2.334417820E0,2.051175308E1,1.709512234E0
2.613553392E0,-2.190761566E0,1.936010551E1,1.867534399E0
2.615553125E0,-2.114144564E0,1.879026794E1,2.128510237E0
2.617552858E0,-1.917814136E0,1.771045113E1,3.840416908E0
2.619552591E0,-1.922602654E0,1.677189445E1,7.905895233E0
2.621552324E0,-2.015979290E0,1.637444496E1,1.129379463E1
2.623552057E0,-2.181184292E0,1.573038578E1,1.922363281E1
2.625551790E0,-2.499622822E0,1.507914257E1,2.372965813E1
2.627551590E0,-2.640885115E0,1.471281910E1,2.437132263E1
2.629551323E0,-2.655250788E0,1.382454300E1,2.318376350E1
2.631551056E0,-2.365543604E0,1.292669010E1,2.006641769E1
2.633550789E0,-2.171607256E0,1.252923965E1,1.829704857E1
2.635550522E0,-1.819648862E0,1.186363125E1,1.489957237E1
2.637550255E0,-1.589798450E0,1.130097675E1,1.194024849E1
2.639549988E0,-1.494027495E0,1.077184200E1,9.634561539E0
2.641549788E0,-1.453324795E0,1.053002071E1,8.710371971E0
2.643549588E0,-1.336005330E0,1.009186840E1,7.192401409E0
2.645549321E0,-1.307274103E0,9.900326729E0,6.569890022E0
2.647549054E0,-1.321639657E0,9.553156853E0,5.525986195E0
2.649548787E0,-1.345582485E0,9.277814865E0,4.549122334E0
2.651548520E0,-1.343188167E0,9.150918007E0,4.079844475E0
2.653548253E0,-1.331216812E0,8.923461914E0,3.191568375E0
2.655547986E0,-1.343188167E0,8.758256912E0,2.336812258E0
2.657547786E0,-1.333611012E0,8.688823700E0,1.996825218E0
2.659547519E0,-1.324033976E0,8.547560692E0,1.556278586E0
2.661547252E0,-1.307274103E0,8.449396133E0,9.337671995E-1
2.663546985E0,-1.285725594E0,8.420664787E0,5.435003638E-1
2.665546718E0,-1.259388566E0,8.372778893E0,-3.759011328E-1
2.667546451E0,-1.206714511E0,8.353624344E0,-1.455719113E0
2.669546184E0,-1.189954638E0,8.363202095E0,-1.963305354E0
2.671545917E0,-1.173194647E0,8.415876389E0,-2.822849989E0
2.673545717E0,-1.187560320E0,8.530800819E0,-3.526766777E0
2.675545450E0,-1.192348838E0,8.602629662E0,-3.849993944E0
2.677545183E0,-1.235445857E0,8.770228386E0,-4.429408550E0
2.679544916E0,-1.245022893E0,8.918673515E0,-4.980091572E0
2.681544649E0,-1.233051538E0,8.990502357E0,-5.248250484E0
2.683544382E0,-1.223474383E0,9.119792938E0,-5.760625362E0
2.685544115E0,-1.209108829E0,9.205986977E0,-6.153286457E0
2.687543848E0,-1.201925993E0,9.237112045E0,-6.306519985E0
2.689543648E0,-1.180377483E0,9.268238068E0,-6.514821529E0
2.691543381E0,-1.161223292E0,9.304151535E0,-6.591438770E0
2.693543114E0,-1.149251938E0,9.313729286E0,-6.562707424E0
2.695542847E0,-1.168406129E0,9.249083519E0,-6.330462456E0
2.697542580E0,-1.156434774E0,9.165284157E0,-5.863578796E0
2.699542313E0,-1.041509509E0,9.105426788E0,-5.183605194E0
2.701542046E0,-9.433442950E-1,9.105426788E0,-4.774183750E0
2.703541779E0,-7.422251701E-1,9.134158134E0,-3.976890564E0
2.705541579E0,-6.584255695E-1,9.150918007E0,-3.596200705E0
2.707541312E0,-5.291347504E-1,9.172467232E0,-2.853975534E0
2.709541045E0,-4.429408312E-1,9.198803902E0,-2.253012657E0
2.711540778E0,-4.237866402E-1,9.208380699E0,-1.987248063E0
2.713540511E0,-3.902668059E-1,9.246688843E0,-1.532335877E0
2.715540244E0,-3.926610649E-1,9.253871918E0,-1.122914910E0
2.717539977E0,-4.166038036E-1,9.249083519E0,-9.553156495E-1
2.719539777E0,-4.716721475E-1,9.225140572E0,-6.584255695E-1
2.721539577E0,-5.027977228E-1,9.201197624E0,-4.118152559E-1
2.723539310E0,-5.291347504E-1,9.201197624E0,-3.184385598E-1
2.725539043E0,-5.746259689E-1,9.196409225E0,-1.604164094E-1
2.727538776E0,-5.937801600E-1,9.196409225E0,-3.830839694E-2
2.729538509E0,-6.057515144E-1,9.196409225E0,3.112557158E-2
2.731538242E0,-6.273000240E-1,9.196409225E0,1.532335877E-1
2.733537975E0,-6.009629965E-1,9.191620827E0,2.274561077E-1
2.735537775E0,-5.794144869E-1,9.186832428E0,2.346389294E-1
2.737537508E0,-5.458946824E-1,9.198803902E0,2.873129845E-1
2.739537241E0,-4.692778587E-1,9.213169098E0,3.016786277E-1
2.741536974E0,-4.333637357E-1,9.222746849E0,2.944957912E-1
2.743536707E0,-3.687183261E-1,9.280209541E0,2.561874092E-1
2.745536440E0,-2.729473412E-1,9.299363136E0,1.915419847E-1
2.747536173E0,-2.083019018E-1,9.313729286E0,1.652049571E-1
2.749535906E0,-8.379961550E-2,9.364008904E0,7.661679387E-2
2.751535706E0,2.873129770E-2,9.409500122E0,-1.197137404E-2
2.753535439E0,8.379961550E-2,9.435836792E0,-6.464541703E-2
2.755535172E0,2.011190802E-1,9.474145889E0,-1.891477108E-1
2.757534905E0,3.304099143E-1,9.510059357E0,-3.064671755E-1
2.759534638E0,4.309694767E-1,9.536396980E0,-3.782954216E-1
2.761534371E0,4.860377908E-1,9.589070320E0,-5.075862408E-1
2.763534104E0,5.842030644E-1,9.636956215E0,-6.129343510E-1
2.765533837E0,6.249057055E-1,9.663292885E0,-6.727912426E-1
2.767533637E0,7.134938836E-1,9.694418907E0,-7.326480746E-1
2.769533370E0,8.116591573E-1,9.739910126E0,-8.044763207E-1
2.771533103E0,8.427847624E-1,9.754275322E0,-8.260248303E-1
2.773532836E0,9.098244309E-1,9.768641472E0,-8.427847624E-1
2.775532569E0,9.337671995E-1,9.783006668E0,-8.403904438E-1
2.777532302E0,9.529213905E-1,9.797372818E0,-8.260248303E-1
2.779532035E0,1.000806928E0,9.804554939E0,-7.853221297E-1
2.781531768E0,1.039115310E0,9.809344292E0,-7.302538157E-1
2.783531568E0,1.058269501E0,9.804554939E0,-6.823683381E-1
2.785531268E0,1.096577883E0,9.814132690E0,-6.057515144E-1
2.787531001E0,1.118126392E0,9.830892563E0,-5.051919818E-1
2.789530734E0,1.134886265E0,9.835680962E0,-4.549122155E-1
2.791530467E0,1.163617611E0,9.814132690E0,-3.495641351E-1
2.793530200E0,1.187560320E0,9.818921089E0,-2.585816681E-1
2.795529933E0,1.201925993E0,9.823709488E0,-1.915419847E-1
2.797529733E0,1.228263021E0,9.847652435E0,-5.746259540E-2
2.799529533E0,1.235445857E0,9.850046158E0,8.379961550E-2
2.801529299E0,1.252205729E0,9.862017632E0,1.580221355E-1
2.803529065E0,1.278542757E0,9.890748978E0,3.375927508E-1
2.805528831E0,1.273754239E0,9.914691925E0,5.291347504E-1
2.807528597E0,1.271359921E0,9.931451797E0,6.177229285E-1
2.809528363E0,1.254600048E0,9.960183144E0,7.661679387E-1
2.811528129E0,1.175588965E0,9.967366219E0,8.619389534E-1
2.813527962E0,1.108549237E0,9.945817947E0,8.715160489E-1
2.815527795E0,9.002473354E-1,9.912297249E0,8.260248303E-1
2.817527561E0,6.536370516E-1,9.888355255E0,7.422251701E-1
2.819527327E0,5.435003638E-1,9.830892563E0,6.919454336E-1
2.821527093E0,3.735068738E-1,9.799766541E0,5.554717779E-1
2.823526859E0,2.418217510E-1,9.775823593E0,5.027977228E-1
2.825526625E0,1.843591630E-1,9.723150253E0,4.022381604E-1
2.827526391E0,1.005595401E-1,9.675264359E0,2.633702159E-1
2.829526224E0,6.464541703E-2,9.672870636E0,1.963305324E-1
2.831525990E0,5.267404765E-2,9.656110764E0,4.070267081E-2
2.833525756E0,2.633702382E-2,9.634561539E0,-5.985686928E-2
2.835525522E0,9.577099234E-3,9.627379417E0,-1.268965602E-1
2.837525288E0,7.182824425E-3,9.603436470E0,-2.202732861E-1
2.839525054E0,2.394274808E-3,9.598648071E0,-2.633702159E-1
2.841524820E0,1.197137404E-2,9.603436470E0,-2.944957912E-1
2.843524586E0,4.549122229E-2,9.615407944E0,-3.519583941E-1
2.845524452E0,8.619388938E-2,9.632167816E0,-3.830839694E-1
2.847524218E0,9.098244458E-2,9.629773140E0,-4.070267081E-1
2.849523984E0,1.149251908E-1,9.632167816E0,-4.429408312E-1
2.851523750E0,1.316851079E-1,9.613013268E0,-4.716721475E-1
2.853523516E0,1.245022863E-1,9.615407944E0,-4.980091453E-1
2.855523282E0,1.149251908E-1,9.620196342E0,-5.578660369E-1
2.857523048E0,9.337671846E-2,9.627379417E0,-5.746259689E-1
2.859522814E0,8.619388938E-2,9.632167816E0,-5.865973234E-1
2.861522614E0,8.379961550E-2,9.648927689E0,-6.344828010E-1
2.863522347E0,7.422251999E-2,9.670475960E0,-6.775797606E-1
2.865522080E0,7.182824612E-2,9.675264359E0,-6.967339516E-1
2.867521813E0,7.422251999E-2,9.692024231E0,-7.350423932E-1
2.869521546E0,4.549122229E-2,9.725543976E0,-7.709565163E-1
2.871521279E0,3.112557158E-2,9.732727051E0,-7.757450342E-1
2.873521012E0,1.675992459E-2,9.735121727E0,-7.996878028E-1
2.875520745E0,4.788549617E-3,9.759063721E0,-8.116591573E-1
2.877520545E0,2.394274808E-3,9.771035194E0,-8.164477348E-1
2.879520278E0,-1.436564885E-2,9.787795067E0,-8.451790214E-1
2.881520011E0,-3.830839694E-2,9.799766541E0,-8.810931444E-1
2.883519744E0,-4.309694469E-2,9.792584419E0,-8.906702399E-1
2.885519477E0,-6.464541703E-2,9.792584419E0,-9.194015265E-1
2.887519210E0,-6.943397224E-2,9.794978142E0,-9.553156495E-1
2.889518943E0,-7.901106775E-2,9.785401344E0,-9.720755816E-1
2.891518743E0,-1.077423692E-1,9.771035194E0,-9.744698405E-1
2.893518543E0,-1.388679445E-1,9.775823593E0,-9.792584181E-1
2.895518276E0,-1.532335877E-1,9.768641472E0,-9.768640995E-1
2.897518009E0,-1.867534369E-1,9.759063721E0,-9.912297726E-1
2.899517742E0,-1.843591630E-1,9.730332375E0,-9.792584181E-1
2.901517475E0,-1.795706153E-1,9.720755577E0,-9.936240315E-1
2.903517208E0,-1.867534369E-1,9.672870636E0,-1.015172482E0
2.905516941E0,-2.106961906E-1,9.593858719E0,-1.015172482E0
2.907516741E0,-2.226675600E-1,9.557945251E0,-1.027143836E0
2.909516474E0,-2.633702159E-1,9.493299484E0,-1.007989645E0
2.911516207E0,-2.753416002E-1,9.457385063E0,-1.000806928E0
2.913515940E0,-2.681587934E-1,9.464568138E0,-9.984126091E-1
2.915515673E0,-2.418217510E-1,9.548367500E0,-9.864411950E-1
2.917515406E0,-1.915419847E-1,9.639349937E0,-9.672870040E-1
2.919515139E0,-1.556278616E-1,9.684841156E0,-9.601042271E-1
2.921514872E0,-1.125309169E-1,9.761458397E0,-9.648927450E-1
2.923514672E0,-8.140534163E-2,9.814132690E0,-9.624984860E-1
2.925514405E0,-7.901106775E-2,9.842864037E0,-9.624984860E-1
2.927514138E0,-7.901106775E-2,9.893143654E0,-9.888355136E-1
2.929513871E0,-7.901106775E-2,9.897932053E0,-9.960182905E-1
2.931513604E0,-8.379961550E-2,9.897932053E0,-1.015172482E0
2.933513337E0,-1.005595401E-1,9.912297249E0,-1.012778282E0
2.935513070E0,-1.268965602E-1,9.888355255E0,-1.041509509E0
2.937512803E0,-1.268965602E-1,9.866806030E0,-1.053480864E0
2.939512603E0,-1.268965602E-1,9.833286285E0,-1.067846537E0
2.941512336E0,-1.197137386E-1,9.799766541E0,-1.079817891E0
2.943512069E0,-1.268965602E-1,9.794978142E0,-1.089395046E0
2.945511802E0,-8.619388938E-2,9.790189743E0,-1.106154919E0
2.947511535E0,-5.985686928E-2,9.794978142E0,-1.127703428E0
2.949511268E0,-4.070267081E-2,9.787795067E0,-1.130097747E0
2.951511001E0,7.182824425E-3,9.775823593E0,-1.144463301E0
2.953510734E0,6.464541703E-2,9.739910126E0,-1.137280583E0
2.955510534E0,8.858817071E-2,9.727938652E0,-1.127703428E0
2.957510267E0,1.388679445E-1,9.706390381E0,-1.127703428E0
2.959510000E0,1.819648892E-1,9.646533012E0,-1.137280583E0
2.961509733E0,2.059076279E-1,9.617801666E0,-1.139674783E0
2.963509466E0,2.394274771E-1,9.572310448E0,-1.132491946E0
2.965509199E0,2.849186957E-1,9.512454033E0,-1.134886265E0
2.967508932E0,2.992843390E-1,9.490905762E0,-1.130097747E0
2.969508732E0,3.232271075E-1,9.445414543E0,-1.115732074E0
2.971508532E0,3.447755575E-1,9.407105446E0,-1.106154919E0
2.973508265E0,3.543526828E-1,9.404711723E0,-1.094183564E0
2.975507998E0,3.998439014E-1,9.411893845E0,-1.108549237E0
2.977507731E0,4.357580245E-1,9.380768776E0,-1.118126392E0
2.979507464E0,4.405465722E-1,9.375980377E0,-1.122914910E0
2.981507197E0,4.716721475E-1,9.340065956E0,-1.108549237E0
2.983506930E0,5.099805593E-1,9.306546211E0,-1.122914910E0
2.985506730E0,5.147690773E-1,9.299363136E0,-1.115732074E0
2.987506496E0,5.602602959E-1,9.268238068E0,-1.137280583E0
2.989506229E0,5.937801600E-1,9.244295120E0,-1.137280583E0
2.991505962E0,6.081457734E-1,9.225140572E0,-1.127703428E0
2.993505695E0,6.440598965E-1,9.201197624E0,-1.127703428E0
2.995505428E0,6.895511150E-1,9.210775375E0,-1.146857619E0
2.997505161E0,6.967339516E-1,9.213169098E0,-1.146857619E0
2.999504894E0,7.302538157E-1,9.234718323E0,-1.149251938E0
3.001504694E0,7.565908432E-1,9.237112045E0,-1.168406129E0
3.003504427E0,7.661679387E-1,9.244295120E0,-1.166011810E0
3.005504160E0,8.140534163E-1,9.284997940E0,-1.163617611E0
3.007503893E0,8.451790214E-1,9.335277557E0,-1.192348838E0
3.009503626E0,8.547561169E-1,9.368797302E0,-1.211503029E0
3.011503359E0,8.571503758E-1,9.440625191E0,-1.223474383E0
3.013503092E0,8.547561169E-1,9.505270958E0,-1.249811411E0
3.015502825E0,8.571503758E-1,9.541185379E0,-1.245022893E0
3.017502625E0,8.834874034E-1,9.613013268E0,-1.252205729E0
3.019502358E0,8.739103079E-1,9.675264359E0,-1.254600048E0
3.021502091E0,8.763045669E-1,9.708784103E0,-1.254600048E0
3.023501824E0,8.547561169E-1,9.749486923E0,-1.247417212E0
3.025501557E0,8.691217303E-1,9.780612946E0,-1.254600048E0
3.027501290E0,8.667274714E-1,9.797372818E0,-1.249811411E0
3.029501023E0,8.571503758E-1,9.809344292E0,-1.211503029E0
3.031500756E0,8.427847624E-1,9.818921089E0,-1.206714511E0
3.033500556E0,8.451790214E-1,9.828497887E0,-1.189954638E0
3.035500322E0,8.595446348E-1,9.852440834E0,-1.180377483E0
3.037500088E0,8.499675393E-1,9.857229233E0,-1.180377483E0
3.039499854E0,8.379961848E-1,9.842864037E0,-1.170800328E0
3.041499620E0,8.236305118E-1,9.835680962E0,-1.161223292E0
3.043499386E0,8.236305118E-1,9.842864037E0,-1.170800328E0
3.045499152E0,8.188419938E-1,9.842864037E0,-1.182771802E0
3.047498952E0,7.948992252E-1,9.838075638E0,-1.204320192E0
3.049498785E0,7.901107073E-1,9.835680962E0,-1.211503029E0
3.051498651E0,7.972934842E-1,9.833286285E0,-1.206714511E0
3.053498517E0,7.805336118E-1,9.847652435E0,-1.225868702E0
3.055498383E0,7.757450342E-1,9.840469360E0,-1.240234375E0
3.057498249E0,7.733507752E-1,9.852440834E0,-1.249811411E0
3.059498115E0,7.613793612E-1,9.857229233E0,-1.292908430E0
3.061497981E0,7.302538157E-1,9.857229233E0,-1.304879785E0
3.063497914E0,7.134938836E-1,9.866806030E0,-1.331216812E0
3.065497847E0,6.727912426E-1,9.852440834E0,-1.367130876E0
3.067497780E0,6.153286099E-1,9.847652435E0,-1.386285067E0
3.069497713E0,5.842030644E-1,9.838075638E0,-1.393467903E0
3.071497646E0,5.219519138E-1,9.845257759E0,-1.431776285E0
3.073497579E0,4.908263385E-1,9.847652435E0,-1.450930476E0
3.075497512E0,4.812492430E-1,9.845257759E0,-1.458113313E0
3.077497445E0,4.429408312E-1,9.845257759E0,-1.455719113E0
3.079497445E0,4.118152559E-1,9.852440834E0,-1.458113313E0
3.081497411E0,4.094209969E-1,9.845257759E0,-1.462901950E0
3.083497377E0,3.830839694E-1,9.838075638E0,-1.465296149E0
3.085497343E0,3.591412306E-1,9.823709488E0,-1.465296149E0
3.087497309E0,3.543526828E-1,9.826104164E0,-1.462901950E0
3.089497275E0,3.328042030E-1,9.816526413E0,-1.455719113E0
3.091497241E0,3.016786277E-1,9.783006668E0,-1.441353440E0
3.093497207E0,2.801301479E-1,9.759063721E0,-1.431776285E0
3.095497207E0,2.633702159E-1,9.718361855E0,-1.424593568E0
3.097497173E0,2.681587934E-1,9.703995705E0,-1.410227895E0
3.099497139E0,2.681587934E-1,9.701601982E0,-1.388679385E0
3.101497105E0,2.609759569E-1,9.694418907E0,-1.369525194E0
3.103497071E0,2.681587934E-1,9.684841156E0,-1.357553840E0
3.105497037E0,2.777358890E-1,9.680052757E0,-1.338399649E0
3.107497003E0,2.729473412E-1,9.701601982E0,-1.324033976E0
3.109496969E0,2.490045726E-1,9.706390381E0,-1.314456820E0
3.111496902E0,2.370332032E-1,9.706390381E0,-1.312062621E0
3.113496835E0,1.939362586E-1,9.701601982E0,-1.331216812E0
3.115496768E0,1.460507661E-1,9.677659035E0,-1.314456820E0
3.117496701E0,1.197137386E-1,9.658504486E0,-1.340793848E0
3.119496634E0,7.661679387E-2,9.622590065E0,-1.355159521E0
3.121496567E0,5.027977005E-2,9.620196342E0,-1.352765322E0
3.123496500E0,4.788549617E-2,9.622590065E0,-1.359948039E0
3.125496433E0,8.140534163E-2,9.651321411E0,-1.376708031E0
3.127496366E0,9.337671846E-2,9.703995705E0,-1.403045058E0
3.129496232E0,1.029538140E-1,9.727938652E0,-1.415016413E0
3.131496098E0,1.221080124E-1,9.759063721E0,-1.417410731E0
3.133495964E0,1.436564922E-1,9.778218269E0,-1.453324795E0
3.135495830E0,1.628106833E-1,9.790189743E0,-1.479661822E0
3.137495696E0,1.819648892E-1,9.797372818E0,-1.494027495E0
3.139495562E0,1.723877788E-1,9.785401344E0,-1.522758722E0
3.141135932E0,1.747820675E-1,9.780612946E0,-1.549095750E0
3.143135832E0,1.795706153E-1,9.778218269E0,-1.568249941E0
3.145135665E0,2.035133541E-1,9.771035194E0,-1.580221415E0
3.147135498E0,2.250618339E-1,9.768641472E0,-1.582615614E0
3.149135331E0,2.370332032E-1,9.761458397E0,-1.601769805E0
3.151135164E0,2.729473412E-1,9.766246796E0,-1.616135478E0
3.153134997E0,2.921015322E-1,9.759063721E0,-1.623318315E0
3.155134830E0,3.016786277E-1,9.751881599E0,-1.623318315E0
3.157134696E0,3.160442710E-1,9.751881599E0,-1.630501151E0
3.159134496E0,3.256213665E-1,9.749486923E0,-1.630501151E0
3.161134296E0,3.471698463E-1,9.766246796E0,-1.611346960E0
3.163134096E0,3.663240373E-1,9.766246796E0,-1.611346960E0
3.165133896E0,3.711125851E-1,9.766246796E0,-1.618529797E0
3.167133696E0,3.950553536E-1,9.759063721E0,-1.620923996E0
3.169133496E0,3.974496126E-1,9.749486923E0,-1.611346960E0
3.171133296E0,4.046324492E-1,9.732727051E0,-1.592192769E0
3.173133096E0,4.046324492E-1,9.730332375E0,-1.594586968E0
3.175132829E0,4.118152559E-1,9.720755577E0,-1.606558442E0
3.177132562E0,4.166038036E-1,9.718361855E0,-1.596981287E0
3.179132295E0,4.405465722E-1,9.708784103E0,-1.613741279E0
3.181132028E0,4.764606953E-1,9.694418907E0,-1.611346960E0
3.183131761E0,4.716721475E-1,9.670475960E0,-1.604164124E0
3.185131494E0,4.788549542E-1,9.670475960E0,-1.611346960E0
3.187131227E0,4.932205975E-1,9.665687561E0,-1.620923996E0
3.189131027E0,5.004034638E-1,9.648927689E0,-1.649655342E0
3.191130760E0,4.980091453E-1,9.617801666E0,-1.675992370E0
3.193130493E0,4.956148863E-1,9.610619545E0,-1.683175206E0
3.195130226E0,4.980091453E-1,9.591464996E0,-1.668809533E0
3.197129959E0,5.027977228E-1,9.605830193E0,-1.664021015E0
3.199129692E0,5.051919818E-1,9.620196342E0,-1.666415215E0
3.201129425E0,5.004034638E-1,9.656110764E0,-1.666415215E0
3.203129158E0,4.908263385E-1,9.706390381E0,-1.673598051E0
3.205128958E0,4.932205975E-1,9.725543976E0,-1.678386688E0
3.207128691E0,4.740664065E-1,9.749486923E0,-1.673598051E0
3.209128424E0,4.453351200E-1,9.756669998E0,-1.678386688E0
3.211128157E0,4.381522834E-1,9.756669998E0,-1.659232497E0
3.213127890E0,3.950553536E-1,9.766246796E0,-1.632895470E0
3.215127623E0,3.854782581E-1,9.759063721E0,-1.616135478E0
3.217127356E0,3.711125851E-1,9.742303848E0,-1.601769805E0
3.219127156E0,3.567469418E-1,9.703995705E0,-1.575432777E0
3.221126956E0,3.591412306E-1,9.675264359E0,-1.575432777E0
3.223126689E0,3.423812985E-1,9.663292885E0,-1.568249941E0
3.225126422E0,3.208328187E-1,9.613013268E0,-1.570644259E0
3.227126155E0,3.112557232E-1,9.562733650E0,-1.570644259E0
3.229125888E0,3.064671755E-1,9.555550575E0,-1.575432777E0
3.231125621E0,2.921015322E-1,9.536396980E0,-1.599375606E0
3.233125354E0,2.873129845E-1,9.524425507E0,-1.652049661E0
3.235125154E0,2.968900800E-1,9.517242432E0,-1.664021015E0
3.237124954E0,3.256213665E-1,9.507665634E0,-1.702329397E0
3.239124687E0,3.208328187E-1,9.524425507E0,-1.731060743E0
3.241124420E0,3.136500120E-1,9.514847755E0,-1.757397652E0
3.243124153E0,3.064671755E-1,9.512454033E0,-1.812466025E0
3.245123886E0,2.681587934E-1,9.490905762E0,-1.845985889E0
3.247123619E0,2.537931204E-1,9.488511086E0,-1.857957244E0
3.249123352E0,2.298503816E-1,9.478934288E0,-1.901054144E0
3.251123152E0,2.011190802E-1,9.469356537E0,-1.934574008E0
3.253122885E0,1.891477108E-1,9.469356537E0,-1.946545362E0
3.255122618E0,1.532335877E-1,9.471751213E0,-1.987248063E0
3.257122351E0,1.604164094E-1,9.471751213E0,-2.015979290E0
3.259122084E0,1.364736706E-1,9.474145889E0,-2.025556564E0
3.261121817E0,1.340793967E-1,9.488511086E0,-2.025556564E0
3.263121550E0,1.149251908E-1,9.493299484E0,-2.025556564E0
3.265121283E0,1.197137386E-1,9.502876282E0,-2.008796453E0
3.267121083E0,9.098244458E-2,9.522030830E0,-1.982459545E0
3.269120816E0,1.125309169E-1,9.548367500E0,-1.963305354E0
3.271120549E0,1.101366431E-1,9.560338974E0,-1.944151163E0
3.273120282E0,1.029538140E-1,9.574705124E0,-1.924996972E0
3.275120015E0,7.901106775E-2,9.603436470E0,-1.910631299E0
3.277119748E0,5.985686928E-2,9.613013268E0,-1.896265626E0
3.279119481E0,2.633702382E-2,9.641744614E0,-1.860351562E0
3.281119214E0,7.182824425E-3,9.656110764E0,-1.831620216E0
3.283119014E0,-9.577099234E-3,9.665687561E0,-1.805283189E0
3.285118747E0,-3.591412306E-2,9.687235832E0,-1.747820616E0
3.287118480E0,-6.225114316E-2,9.689630508E0,-1.731060743E0
3.289118213E0,-8.379961550E-2,9.684841156E0,-1.709512234E0
3.291117946E0,-1.005595401E-1,9.660899162E0,-1.661626697E0
3.293117679E0,-9.098244458E-2,9.641744614E0,-1.628106833E0
3.295117412E0,-1.005595401E-1,9.627379417E0,-1.608952641E0
3.297117145E0,-9.337671846E-2,9.596253395E0,-1.599375606E0
3.299116945E0,-6.225114316E-2,9.562733650E0,-1.611346960E0
3.301116678E0,-4.549122229E-2,9.541185379E0,-1.613741279E0
3.303116411E0,-1.675992459E-2,9.524425507E0,-1.630501151E0
3.305116144E0,7.182824425E-3,9.502876282E0,-1.671203852E0
3.307115877E0,2.394274808E-2,9.490905762E0,-1.690358043E0
3.309115610E0,7.661679387E-2,9.490905762E0,-1.738243461E0
3.311115343E0,1.149251908E-1,9.488511086E0,-1.776551962E0
3.313115143E0,1.245022863E-1,9.490905762E0,-1.800494671E0
3.315114943E0,1.580221355E-1,9.531607628E0,-1.855562925E0
3.317114676E0,1.819648892E-1,9.567522049E0,-1.877111435E0
3.319114409E0,2.106961906E-1,9.593858719E0,-1.881899953E0
3.321114142E0,2.490045726E-1,9.658504486E0,-1.905842781E0
3.323113875E0,2.897072434E-1,9.694418907E0,-1.924996972E0
3.325113608E0,3.160442710E-1,9.715967178E0,-1.934574008E0
3.327113341E0,3.639297783E-1,9.763853073E0,-1.924996972E0
3.329113141E0,4.189980924E-1,9.799766541E0,-1.908236980E0
3.331112874E0,4.309694767E-1,9.809344292E0,-1.893871427E0
3.333112607E0,4.453351200E-1,9.830892563E0,-1.869928598E0
3.335112340E0,4.477293789E-1,9.830892563E0,-1.841197371E0
3.337112073E0,4.573064744E-1,9.838075638E0,-1.829225898E0
3.339111806E0,4.620950520E-1,9.828497887E0,-1.805283189E0
3.341111539E0,4.453351200E-1,9.804554939E0,-1.783734679E0
3.343111272E0,4.429408312E-1,9.797372818E0,-1.769369125E0
3.345111072E0,4.333637357E-1,9.768641472E0,-1.752609134E0
3.347110805E0,4.213923812E-1,9.749486923E0,-1.731060743E0
3.349110538E0,4.261809289E-1,9.744698524E0,-1.726272106E0
3.351110271E0,4.333637357E-1,9.737515450E0,-1.707117915E0
3.353110004E0,4.477293789E-1,9.744698524E0,-1.697540879E0
3.355109737E0,4.620950520E-1,9.744698524E0,-1.704723716E0
3.357109470E0,4.788549542E-1,9.742303848E0,-1.711906433E0
3.359109203E0,5.075862408E-1,9.735121727E0,-1.719089270E0
3.361109003E0,4.908263385E-1,9.727938652E0,-1.709512234E0
3.363108736E0,4.644893110E-1,9.713572502E0,-1.716695070E0
3.365108469E0,4.620950520E-1,9.694418907E0,-1.733454943E0
3.367108202E0,4.692778587E-1,9.670475960E0,-1.747820616E0
3.369107935E0,4.573064744E-1,9.636956215E0,-1.728666425E0
3.371107668E0,4.357580245E-1,9.608224869E0,-1.714300752E0
3.373107401E0,4.189980924E-1,9.586676598E0,-1.716695070E0
3.375107134E0,3.830839694E-1,9.567522049E0,-1.723877907E0
3.377106934E0,3.591412306E-1,9.543579102E0,-1.735849261E0
3.379106667E0,3.591412306E-1,9.534002304E0,-1.728666425E0
3.381106400E0,3.495641351E-1,9.517242432E0,-1.711906433E0
3.383106133E0,3.423812985E-1,9.519637108E0,-1.695146561E0
3.385105866E0,3.495641351E-1,9.519637108E0,-1.685569525E0
3.387105599E0,3.471698463E-1,9.514847755E0,-1.656838179E0
3.389105332E0,3.519583941E-1,9.529213905E0,-1.654443860E0
3.391105132E0,3.471698463E-1,9.524425507E0,-1.649655342E0
3.393104932E0,3.351984620E-1,9.522030830E0,-1.623318315E0
3.395104665E0,3.280156553E-1,9.510059357E0,-1.616135478E0
3.397104398E0,3.399870098E-1,9.507665634E0,-1.620923996E0
3.399104131E0,3.423812985E-1,9.495694160E0,-1.608952641E0
3.401103864E0,3.399870098E-1,9.474145889E0,-1.594586968E0
3.403103597E0,3.471698463E-1,9.469356537E0,-1.594586968E0
3.405103330E0,3.615354896E-1,9.440625191E0,-1.601769805E0
3.407103130E0,3.615354896E-1,9.438231468E0,-1.604164124E0
3.409102863E0,3.519583941E-1,9.416683197E0,-1.592192769E0
3.411102596E0,3.495641351E-1,9.423865318E0,-1.601769805E0
3.413102329E0,3.375927508E-1,9.447808266E0,-1.601769805E0
3.415102062E0,3.447755575E-1,9.450202942E0,-1.611346960E0
3.417101795E0,3.663240373E-1,9.466962814E0,-1.630501151E0
3.419101528E0,3.639297783E-1,9.510059357E0,-1.632895470E0
3.421101261E0,3.615354896E-1,9.538790703E0,-1.630501151E0
3.423101061E0,3.399870098E-1,9.591464996E0,-1.644866824E0
3.425100794E0,3.543526828E-1,9.639349937E0,-1.642472506E0
3.427100527E0,3.639297783E-1,9.668081284E0,-1.644866824E0
3.429100260E0,3.830839694E-1,9.739910126E0,-1.642472506E0
3.431099993E0,3.543526828E-1,9.790189743E0,-1.632895470E0
3.433099726E0,3.399870098E-1,9.814132690E0,-1.630501151E0
3.435099459E0,3.088614643E-1,9.857229233E0,-1.620923996E0
3.437099192E0,2.729473412E-1,9.871595383E0,-1.623318315E0
3.439098992E0,2.585816681E-1,9.873989105E0,-1.613741279E0
3.441098725E0,2.346389294E-1,9.878777504E0,-1.608952641E0
3.443098458E0,2.226675600E-1,9.864412308E0,-1.594586968E0
3.445098191E0,2.154847383E-1,9.847652435E0,-1.568249941E0
3.447097924E0,1.939362586E-1,9.823709488E0,-1.529941559E0
3.449097657E0,1.675992310E-1,9.794978142E0,-1.508393168E0
3.451097390E0,1.723877788E-1,9.785401344E0,-1.508393168E0
3.453097123E0,1.819648892E-1,9.759063721E0,-1.472478986E0
3.455096923E0,1.795706153E-1,9.749486923E0,-1.479661822E0
3.457096656E0,1.843591630E-1,9.739910126E0,-1.474873304E0
3.459096389E0,1.747820675E-1,9.725543976E0,-1.477267504E0
3.461096122E0,1.867534369E-1,9.735121727E0,-1.510787368E0
3.463095855E0,1.963305324E-1,9.732727051E0,-1.517970204E0
3.465095588E0,2.083019018E-1,9.735121727E0,-1.551490068E0
3.467095321E0,2.083019018E-1,9.747093201E0,-1.553884387E0
3.469095121E0,2.083019018E-1,9.754275322E0,-1.570644259E0
3.471094921E0,1.963305324E-1,9.761458397E0,-1.616135478E0
3.473094654E0,1.819648892E-1,9.792584419E0,-1.620923996E0
3.475094387E0,1.699935049E-1,9.799766541E0,-1.611346960E0
3.477094120E0,1.388679445E-1,9.814132690E0,-1.601769805E0
3.479093853E0,1.436564922E-1,9.864412308E0,-1.575432777E0
3.481093586E0,1.364736706E-1,9.883566856E0,-1.580221415E0
3.483093319E0,1.316851079E-1,9.921875000E0,-1.546701550E0
3.485093119E0,1.268965602E-1,9.943423271E0,-1.520364523E0
3.487092919E0,1.173194647E-1,9.950606346E0,-1.494027495E0
3.489092652E0,1.101366431E-1,9.969759941E0,-1.477267504E0
3.491092385E0,1.029538140E-1,9.972154617E0,-1.470084786E0
3.493092118E0,9.337671846E-2,9.950606346E0,-1.470084786E0
3.495091851E0,8.379961550E-2,9.924268723E0,-1.482056141E0
3.497091584E0,8.379961550E-2,9.924268723E0,-1.486844659E0
3.499091317E0,9.577099234E-2,9.881172180E0,-1.484450340E0
3.501091117E0,1.221080124E-1,9.830892563E0,-1.486844659E0
3.503090850E0,1.436564922E-1,9.811738014E0,-1.491633177E0
3.505090583E0,1.628106833E-1,9.780612946E0,-1.479661822E0
3.507090316E0,1.580221355E-1,9.744698524E0,-1.503604531E0
3.509090049E0,1.699935049E-1,9.744698524E0,-1.529941559E0
3.511089782E0,1.747820675E-1,9.718361855E0,-1.544307232E0
3.513089515E0,1.771763414E-1,9.682447433E0,-1.553884387E0
3.515089248E0,2.011190802E-1,9.675264359E0,-1.556278586E0
3.517089048E0,2.202732861E-1,9.663292885E0,-1.577827096E0
3.519088814E0,2.466102988E-1,9.665687561E0,-1.577827096E0
3.521088580E0,2.849186957E-1,9.663292885E0,-1.585009933E0
3.523088346E0,2.944957912E-1,9.672870636E0,-1.592192769E0
3.525088146E0,2.944957912E-1,9.689630508E0,-1.580221415E0
3.527087912E0,2.873129845E-1,9.682447433E0,-1.570644259E0
3.529087678E0,2.849186957E-1,9.660899162E0,-1.577827096E0
3.531087444E0,2.729473412E-1,9.613013268E0,-1.577827096E0
3.533087277E0,2.753416002E-1,9.601041794E0,-1.570644259E0
3.535087043E0,2.513988614E-1,9.584281921E0,-1.565855742E0
3.537086809E0,2.298503816E-1,9.567522049E0,-1.580221415E0
3.539086575E0,2.154847383E-1,9.548367500E0,-1.599375606E0
3.541086341E0,1.987248063E-1,9.524425507E0,-1.618529797E0
3.543086107E0,1.867534369E-1,9.512454033E0,-1.647261024E0
3.545085873E0,1.915419847E-1,9.512454033E0,-1.644866824E0
3.547085639E0,1.867534369E-1,9.507665634E0,-1.664021015E0
3.549085472E0,1.843591630E-1,9.502876282E0,-1.656838179E0
3.551085238E0,1.867534369E-1,9.500482559E0,-1.656838179E0
3.553085004E0,1.771763414E-1,9.498087883E0,-1.680780888E0
3.555084770E0,1.747820675E-1,9.510059357E0,-1.678386688E0
3.557084536E0,1.699935049E-1,9.502876282E0,-1.680780888E0
3.559084302E0,1.699935049E-1,9.512454033E0,-1.695146561E0
3.561084068E0,1.484450400E-1,9.519637108E0,-1.695146561E0
3.563083901E0,1.388679445E-1,9.522030830E0,-1.683175206E0
3.565083734E0,1.125309169E-1,9.510059357E0,-1.649655342E0
3.567083500E0,9.577099234E-2,9.519637108E0,-1.644866824E0
3.569083266E0,8.858817071E-2,9.534002304E0,-1.659232497E0
3.571083032E0,6.703969836E-2,9.541185379E0,-1.659232497E0
3.573082798E0,7.661679387E-2,9.565128326E0,-1.616135478E0
3.575082564E0,7.661679387E-2,9.577098846E0,-1.608952641E0
3.577082330E0,6.464541703E-2,9.584281921E0,-1.589798450E0
3.579082130E0,5.746259540E-2,9.610619545E0,-1.582615614E0
3.581081863E0,5.985686928E-2,9.622590065E0,-1.582615614E0
3.583081596E0,5.746259540E-2,9.629773140E0,-1.565855742E0
3.585081296E0,6.225114316E-2,9.668081284E0,-1.549095750E0
3.587081029E0,6.225114316E-2,9.687235832E0,-1.534730196E0
3.589080762E0,7.422251999E-2,9.706390381E0,-1.517970204E0
3.591080495E0,7.182824612E-2,9.754275322E0,-1.520364523E0
3.593080228E0,7.422251999E-2,9.761458397E0,-1.498816013E0
3.595080028E0,8.619388938E-2,9.773429871E0,-1.484450340E0
3.597079761E0,8.140534163E-2,9.775823593E0,-1.467690468E0
3.599079494E0,9.337671846E-2,9.778218269E0,-1.429382086E0
3.601079227E0,9.337671846E-2,9.778218269E0,-1.436564922E0
3.603078960E0,7.901106775E-2,9.775823593E0,-1.436564922E0
3.605078693E0,8.619388938E-2,9.787795067E0,-1.429382086E0
3.607078426E0,9.577099234E-2,9.778218269E0,-1.410227895E0
3.609078159E0,1.077423692E-1,9.768641472E0,-1.419804931E0
3.611077959E0,1.125309169E-1,9.768641472E0,-1.434170604E0
3.613077692E0,1.268965602E-1,9.802161217E0,-1.462901950E0
3.615077425E0,1.268965602E-1,9.804554939E0,-1.474873304E0
3.617077158E0,1.364736706E-1,9.804554939E0,-1.496421814E0
3.619076891E0,1.604164094E-1,9.811738014E0,-1.491633177E0
3.621076624E0,1.795706153E-1,9.852440834E0,-1.515576005E0
3.623076357E0,1.867534369E-1,9.873989105E0,-1.527547359E0
3.625076090E0,2.106961906E-1,9.876383781E0,-1.527547359E0
3.627075890E0,2.202732861E-1,9.869200706E0,-1.546701550E0
3.629075623E0,2.250618339E-1,9.871595383E0,-1.537124395E0
3.631075356E0,2.322446555E-1,9.873989105E0,-1.520364523E0
3.633075122E0,2.322446555E-1,9.862017632E0,-1.503604531E0
3.635074855E0,2.274561077E-1,9.852440834E0,-1.494027495E0
3.637074588E0,2.490045726E-1,9.814132690E0,-1.489238977E0
3.639074321E0,2.657645047E-1,9.775823593E0,-1.458113313E0
3.641074121E0,2.801301479E-1,9.744698524E0,-1.441353440E0
3.643073921E0,3.088614643E-1,9.703995705E0,-1.436564922E0
3.645073654E0,3.232271075E-1,9.653716087E0,-1.448536277E0
3.647073387E0,3.160442710E-1,9.632167816E0,-1.455719113E0
3.649073120E0,3.471698463E-1,9.579493523E0,-1.489238977E0
3.651072853E0,3.902668059E-1,9.522030830E0,-1.501210332E0
3.653072586E0,3.950553536E-1,9.490905762E0,-1.510787368E0
3.655072319E0,3.998439014E-1,9.462174416E0,-1.544307232E0
3.657072119E0,4.142095447E-1,9.421471596E0,-1.558672905E0
3.659071852E0,4.285751879E-1,9.368797302E0,-1.565855742E0
3.661071585E0,4.381522834E-1,9.349642754E0,-1.601769805E0
3.663071318E0,4.357580245E-1,9.318517685E0,-1.640078187E0
3.665071051E0,4.261809289E-1,9.301757812E0,-1.637683988E0
3.667070784E0,4.357580245E-1,9.261054993E0,-1.659232497E0
3.669070517E0,4.453351200E-1,9.253871918E0,-1.678386688E0
3.671070250E0,4.453351200E-1,9.265843391E0,-1.690358043E0
3.673070050E0,4.525179267E-1,9.287391663E0,-1.702329397E0
3.675069783E0,4.549122155E-1,9.296969414E0,-1.687963724E0
3.677069516E0,4.597007632E-1,9.313729286E0,-1.678386688E0
3.679069249E0,4.501236677E-1,9.340065956E0,-1.687963724E0
3.681068982E0,4.549122155E-1,9.383162498E0,-1.695146561E0
3.683068715E0,4.477293789E-1,9.404711723E0,-1.695146561E0
3.685068448E0,4.237866402E-1,9.433443069E0,-1.678386688E0
3.687068181E0,3.735068738E-1,9.483722687E0,-1.671203852E0
3.689067981E0,3.519583941E-1,9.505270958E0,-1.668809533E0
3.691067714E0,3.208328187E-1,9.531607628E0,-1.625712633E0
3.693067414E0,2.825244367E-1,9.569916725E0,-1.589798450E0
3.695067147E0,2.561874092E-1,9.586676598E0,-1.577827096E0
3.697066880E0,2.178790122E-1,9.627379417E0,-1.525153041E0
3.699066613E0,1.843591630E-1,9.646533012E0,-1.474873304E0
3.701066346E0,1.771763414E-1,9.651321411E0,-1.446141958E0
3.703066079E0,1.604164094E-1,9.680052757E0,-1.405439258E0
3.705065879E0,1.675992310E-1,9.701601982E0,-1.364736676E0
3.707065612E0,1.652049571E-1,9.720755577E0,-1.352765322E0
3.709065345E0,1.723877788E-1,9.735121727E0,-1.328822494E0
3.711065078E0,1.652049571E-1,9.754275322E0,-1.314456820E0
3.713064811E0,1.675992310E-1,9.754275322E0,-1.307274103E0
3.715064544E0,1.723877788E-1,9.759063721E0,-1.326428294E0
3.717064277E0,1.652049571E-1,9.766246796E0,-1.347976685E0
3.719064077E0,1.628106833E-1,9.759063721E0,-1.367130876E0
3.721063877E0,1.604164094E-1,9.761458397E0,-1.371919513E0
3.723063610E0,1.460507661E-1,9.749486923E0,-1.403045058E0
3.725063343E0,1.316851079E-1,9.747093201E0,-1.415016413E0
3.727063076E0,1.125309169E-1,9.715967178E0,-1.431776285E0
3.729062809E0,1.125309169E-1,9.696812630E0,-1.441353440E0
3.731062542E0,1.005595401E-1,9.684841156E0,-1.438959122E0
3.733062275E0,9.098244458E-2,9.668081284E0,-1.446141958E0
3.735062075E0,9.337671846E-2,9.646533012E0,-1.453324795E0
3.737061875E0,9.337671846E-2,9.641744614E0,-1.448536277E0
3.739061608E0,1.101366431E-1,9.634561539E0,-1.448536277E0
3.741061341E0,9.098244458E-2,9.624984741E0,-1.422199249E0
3.743061074E0,8.140534163E-2,9.636956215E0,-1.415016413E0
3.745060807E0,8.379961550E-2,9.658504486E0,-1.407833576E0
3.747060540E0,8.140534163E-2,9.672870636E0,-1.398256540E0
3.749060273E0,6.703969836E-2,9.675264359E0,-1.388679385E0
3.751060073E0,3.830839694E-2,9.694418907E0,-1.362342358E0
3.753059806E0,1.197137404E-2,9.701601982E0,-1.362342358E0
3.755059539E0,4.788549617E-3,9.706390381E0,-1.343188167E0
3.757059272E0,-3.351984918E-2,9.718361855E0,-1.324033976E0
3.759059005E0,-6.464541703E-2,9.730332375E0,-1.312062621E0
3.761058738E0,-7.661679387E-2,9.725543976E0,-1.307274103E0
3.763058471E0,-1.053480953E-1,9.720755577E0,-1.297696948E0
3.765058204E0,-1.340793967E-1,9.727938652E0,-1.261782765E0
3.767058004E0,-1.412622184E-1,9.723150253E0,-1.249811411E0
3.769057737E0,-1.532335877E-1,9.715967178E0,-1.221080184E0
3.771057470E0,-1.604164094E-1,9.687235832E0,-1.211503029E0
3.773057203E0,-1.628106833E-1,9.677659035E0,-1.213897347E0
3.775056936E0,-1.532335877E-1,9.648927689E0,-1.228263021E0
3.777056669E0,-1.388679445E-1,9.622590065E0,-1.245022893E0
3.779056402E0,-1.292908341E-1,9.610619545E0,-1.249811411E0
3.781056135E0,-1.245022863E-1,9.591464996E0,-1.252205729E0
3.783055935E0,-1.101366431E-1,9.579493523E0,-1.280937076E0
3.785055668E0,-1.029538140E-1,9.569916725E0,-1.300091267E0
3.787055401E0,-9.816526622E-2,9.545973778E0,-1.285725594E0
3.789055134E0,-6.464541703E-2,9.543579102E0,-1.307274103E0
3.791054867E0,-4.788549617E-2,9.548367500E0,-1.314456820E0
3.793054600E0,-3.351984918E-2,9.517242432E0,-1.340793848E0
3.795054333E0,0.000000000E0,9.507665634E0,-1.352765322E0
3.797054066E0,1.197137404E-2,9.514847755E0,-1.359948039E0
3.799053866E0,3.112557158E-2,9.538790703E0,-1.357553840E0
3.801053599E0,5.746259540E-2,9.548367500E0,-1.369525194E0
3.803053332E0,6.943397224E-2,9.565128326E0,-1.386285067E0
3.805053065E0,8.858817071E-2,9.603436470E0,-1.388679385E0
3.807052798E0,1.125309169E-1,9.605830193E0,-1.403045058E0
3.809052531E0,1.292908341E-1,9.601041794E0,-1.412622094E0
3.811052264E0,1.364736706E-1,9.608224869E0,-1.426987767E0
3.813052064E0,1.747820675E-1,9.622590065E0,-1.438959122E0
3.815051864E0,1.963305324E-1,9.629773140E0,-1.431776285E0
3.817051597E0,2.083019018E-1,9.632167816E0,-1.438959122E0
3.819051330E0,2.154847383E-1,9.624984741E0,-1.429382086E0
3.821051063E0,2.154847383E-1,9.627379417E0,-1.431776285E0
3.823050796E0,2.226675600E-1,9.651321411E0,-1.465296149E0
3.825050529E0,2.202732861E-1,9.656110764E0,-1.479661822E0
3.827050262E0,2.083019018E-1,9.663292885E0,-1.491633177E0
3.829050062E0,1.795706153E-1,9.687235832E0,-1.515576005E0
3.831049795E0,1.843591630E-1,9.689630508E0,-1.508393168E0
3.833049528E0,1.747820675E-1,9.692024231E0,-1.508393168E0
3.835049261E0,1.436564922E-1,9.703995705E0,-1.527547359E0
3.837048994E0,1.340793967E-1,9.708784103E0,-1.532335877E0
3.839048727E0,1.316851079E-1,9.706390381E0,-1.539518714E0
3.841048460E0,1.149251908E-1,9.711178780E0,-1.522758722E0
3.843048193E0,1.029538140E-1,9.713572502E0,-1.529941559E0
3.845047993E0,1.005595401E-1,9.672870636E0,-1.529941559E0
3.847047726E0,1.053480953E-1,9.658504486E0,-1.529941559E0
3.849047459E0,7.901106775E-2,9.646533012E0,-1.529941559E0
3.851047192E0,8.140534163E-2,9.620196342E0,-1.522758722E0
3.853046925E0,7.901106775E-2,9.557945251E0,-1.522758722E0
3.855046658E0,8.858817071E-2,9.545973778E0,-1.520364523E0
3.857046391E0,7.901106775E-2,9.531607628E0,-1.501210332E0
3.859046124E0,7.182824612E-2,9.519637108E0,-1.534730196E0
3.861045924E0,8.619388938E-2,9.507665634E0,-1.539518714E0
3.863045657E0,9.337671846E-2,9.517242432E0,-1.539518714E0
3.865045390E0,7.901106775E-2,9.514847755E0,-1.563461423E0
3.867045123E0,6.703969836E-2,9.512454033E0,-1.568249941E0
3.869044856E0,6.703969836E-2,9.536396980E0,-1.575432777E0
3.871044589E0,7.901106775E-2,9.534002304E0,-1.577827096E0
3.873044322E0,8.619388938E-2,9.534002304E0,-1.577827096E0
3.875044055E0,8.858817071E-2,9.534002304E0,-1.585009933E0
3.877043855E0,8.619388938E-2,9.550762177E0,-1.599375606E0
3.879043588E0,8.619388938E-2,9.555550575E0,-1.606558442E0
3.881043321E0,9.816526622E-2,9.572310448E0,-1.585009933E0
3.883043054E0,8.379961550E-2,9.574705124E0,-1.546701550E0
3.885042787E0,8.379961550E-2,9.569916725E0,-1.534730196E0
3.887042520E0,7.901106775E-2,9.569916725E0,-1.532335877E0
3.889042253E0,8.619388938E-2,9.538790703E0,-1.505998850E0
3.891042053E0,6.943397224E-2,9.531607628E0,-1.498816013E0
3.893041853E0,4.788549617E-2,9.534002304E0,-1.474873304E0
3.895041586E0,4.549122229E-2,9.524425507E0,-1.465296149E0
3.897041319E0,4.549122229E-2,9.514847755E0,-1.446141958E0
3.899041052E0,2.873129770E-2,9.512454033E0,-1.415016413E0
3.901040785E0,3.830839694E-2,9.507665634E0,-1.417410731E0
3.903040518E0,2.154847234E-2,9.502876282E0,-1.412622094E0
3.905040251E0,1.197137404E-2,9.483722687E0,-1.400650740E0
3.907040051E0,1.436564885E-2,9.469356537E0,-1.386285067E0
3.909039784E0,1.915419847E-2,9.464568138E0,-1.391073704E0
3.911039517E0,-2.394274808E-3,9.450202942E0,-1.386285067E0
3.913039250E0,1.197137404E-2,9.447808266E0,-1.388679385E0
3.915038983E0,2.154847234E-2,9.435836792E0,-1.398256540E0
3.917038716E0,2.154847234E-2,9.423865318E0,-1.400650740E0
3.919038449E0,4.309694469E-2,9.414288521E0,-1.407833576E0
3.921038182E0,5.506832153E-2,9.419076920E0,-1.417410731E0
3.923037982E0,7.182824612E-2,9.399923325E0,-1.436564922E0
3.925037748E0,8.379961550E-2,9.383162498E0,-1.462901950E0
3.927037514E0,8.379961550E-2,9.375980377E0,-1.477267504E0
3.929037280E0,9.098244458E-2,9.361614227E0,-1.465296149E0
3.931037046E0,1.221080124E-1,9.356825829E0,-1.474873304E0
3.933036812E0,1.436564922E-1,9.354432106E0,-1.482056141E0
3.935036578E0,1.604164094E-1,9.316123009E0,-1.482056141E0
3.937036344E0,1.675992310E-1,9.284997940E0,-1.477267504E0
3.939036177E0,1.747820675E-1,9.282603264E0,-1.482056141E0
3.941035943E0,1.795706153E-1,9.251478195E0,-1.465296149E0
3.943035709E0,1.771763414E-1,9.234718323E0,-1.458113313E0
3.945035475E0,1.747820675E-1,9.237112045E0,-1.455719113E0
3.947035241E0,1.699935049E-1,9.225140572E0,-1.455719113E0
3.949035007E0,1.604164094E-1,9.234718323E0,-1.424593568E0
3.951034773E0,1.628106833E-1,9.241900444E0,-1.407833576E0
3.953034539E0,1.580221355E-1,9.239506721E0,-1.388679385E0
3.955034372E0,1.412622184E-1,9.275420189E0,-1.395862222E0
3.957034138E0,1.508393139E-1,9.284997940E0,-1.405439258E0
3.959033904E0,1.388679445E-1,9.299363136E0,-1.403045058E0
3.961033670E0,1.340793967E-1,9.340065956E0,-1.405439258E0
3.963033436E0,1.316851079E-1,9.356825829E0,-1.419804931E0
3.965033202E0,1.364736706E-1,9.364008904E0,-1.436564922E0
3.967032968E0,1.316851079E-1,9.380768776E0,-1.446141958E0
3.969032801E0,1.436564922E-1,9.395133972E0,-1.455719113E0
3.971032634E0,1.508393139E-1,9.443019867E0,-1.448536277E0
3.973032400E0,1.699935049E-1,9.488511086E0,-1.477267504E0
3.975032166E0,1.747820675E-1,9.507665634E0,-1.489238977E0
3.977031932E0,1.652049571E-1,9.553156853E0,-1.489238977E0
3.979031698E0,1.628106833E-1,9.605830193E0,-1.486844659E0
3.981031464E0,1.652049571E-1,9.627379417E0,-1.486844659E0
3.983031230E0,1.891477108E-1,9.682447433E0,-1.470084786E0
3.985031030E0,1.699935049E-1,9.732727051E0,-1.446141958E0
3.987030830E0,1.604164094E-1,9.744698524E0,-1.429382086E0
3.989030563E0,1.484450400E-1,9.797372818E0,-1.398256540E0
3.991030296E0,1.580221355E-1,9.802161217E0,-1.328822494E0
3.993030029E0,1.556278616E-1,9.799766541E0,-1.307274103E0
3.995029762E0,1.580221355E-1,9.818921089E0,-1.290514112E0
3.997029495E0,1.699935049E-1,9.811738014E0,-1.252205729E0
3.999029228E0,1.747820675E-1,9.802161217E0,-1.233051538E0
4.001029028E0,1.891477108E-1,9.792584419E0,-1.204320192E0
4.003028761E0,2.059076279E-1,9.761458397E0,-1.187560320E0
4.005028494E0,2.274561077E-1,9.742303848E0,-1.168406129E0
4.007028227E0,2.633702159E-1,9.723150253E0,-1.156434774E0
4.009027960E0,2.992843390E-1,9.706390381E0,-1.146857619E0
4.011027693E0,3.016786277E-1,9.696812630E0,-1.142069101E0
4.013027426E0,3.375927508E-1,9.672870636E0,-1.127703428E0
4.015027159E0,3.878725171E-1,9.651321411E0,-1.110943556E0
4.017026959E0,4.046324492E-1,9.651321411E0,-1.103760719E0
4.019026692E0,4.573064744E-1,9.636956215E0,-1.077423692E0
4.021026425E0,4.908263385E-1,9.622590065E0,-1.065452337E0
4.023026158E0,5.004034638E-1,9.636956215E0,-1.072635174E0
4.025025891E0,5.171633363E-1,9.641744614E0,-1.055875182E0
4.027025624E0,5.650488734E-1,9.660899162E0,-1.065452337E0
4.029025357E0,5.722316504E-1,9.668081284E0,-1.084606528E0
4.031025090E0,6.105400920E-1,9.689630508E0,-1.091789365E0
4.033024890E0,6.392713785E-1,9.730332375E0,-1.094183564E0
4.035024623E0,6.560313106E-1,9.754275322E0,-1.103760719E0
4.037024356E0,6.727912426E-1,9.787795067E0,-1.127703428E0
4.039024089E0,6.847625971E-1,9.833286285E0,-1.110943556E0
4.041023822E0,6.871568561E-1,9.862017632E0,-1.110943556E0
4.043023555E0,6.871568561E-1,9.895537376E0,-1.149251938E0
4.045023288E0,6.967339516E-1,9.938634872E0,-1.158828974E0
4.047023021E0,7.015225291E-1,9.967366219E0,-1.158828974E0
4.049022821E0,6.751855016E-1,1.002722263E1,-1.163617611E0
4.051022554E0,6.751855016E-1,1.007032013E1,-1.154040456E0
4.053022287E0,6.751855016E-1,1.008708000E1,-1.163617611E0
4.055022020E0,6.775797606E-1,1.010144520E1,-1.163617611E0
4.057021753E0,6.751855016E-1,1.009905148E1,-1.177983165E0
4.059021486E0,6.656084061E-1,1.009426212E1,-1.175588965E0
4.061021219E0,6.656084061E-1,1.006792545E1,-1.180377483E0
4.063021019E0,6.656084061E-1,1.003201103E1,-1.225868702E0
4.065020819E0,6.680026650E-1,1.000806904E1,-1.221080184E0
4.067020552E0,6.680026650E-1,9.962577820E0,-1.223474383E0
4.069020285E0,6.632141471E-1,9.900326729E0,-1.213897347E0
4.071020018E0,6.656084061E-1,9.862017632E0,-1.204320192E0
4.073019751E0,6.727912426E-1,9.794978142E0,-1.185166001E0
4.075019484E0,6.464542150E-1,9.759063721E0,-1.175588965E0
4.077019217E0,6.440598965E-1,9.744698524E0,-1.173194647E0
4.079019017E0,6.225114465E-1,9.713572502E0,-1.166011810E0
4.081018750E0,6.081457734E-1,9.699207306E0,-1.163617611E0
4.083018483E0,6.081457734E-1,9.692024231E0,-1.158828974E0
4.085018216E0,5.842030644E-1,9.684841156E0,-1.182771802E0
4.087017949E0,5.482889414E-1,9.680052757E0,-1.209108829E0
4.089017682E0,5.315290093E-1,9.677659035E0,-1.218685865E0
4.091017415E0,5.075862408E-1,9.682447433E0,-1.228263021E0
4.093017148E0,4.788549542E-1,9.692024231E0,-1.228263021E0
4.095016948E0,4.549122155E-1,9.692024231E0,-1.228263021E0
4.097016681E0,4.118152559E-1,9.692024231E0,-1.230657220E0
4.099016414E0,3.926610649E-1,9.708784103E0,-1.245022893E0
4.101016147E0,3.806896806E-1,9.713572502E0,-1.249811411E0
4.103015880E0,3.615354896E-1,9.723150253E0,-1.252205729E0
4.105015613E0,3.208328187E-1,9.723150253E0,-1.271359921E0
4.107015346E0,3.016786277E-1,9.735121727E0,-1.278542757E0
4.109015079E0,2.705530524E-1,9.723150253E0,-1.273754239E0
4.111014879E0,2.609759569E-1,9.718361855E0,-1.276148438E0
4.113014612E0,2.490045726E-1,9.720755577E0,-1.283331275E0
4.115014345E0,2.274561077E-1,9.718361855E0,-1.283331275E0
4.117014078E0,1.915419847E-1,9.713572502E0,-1.273754239E0
4.119013811E0,1.723877788E-1,9.706390381E0,-1.259388566E0
4.121013544E0,1.412622184E-1,9.694418907E0,-1.240234375E0
4.123013277E0,1.221080124E-1,9.663292885E0,-1.242628574E0
4.125013010E0,1.268965602E-1,9.648927689E0,-1.247417212E0
4.127012810E0,1.053480953E-1,9.648927689E0,-1.223474383E0
4.129012576E0,1.245022863E-1,9.648927689E0,-1.218685865E0
4.131012342E0,1.245022863E-1,9.653716087E0,-1.223474383E0
4.133012108E0,1.125309169E-1,9.675264359E0,-1.209108829E0
4.135011874E0,1.245022863E-1,9.675264359E0,-1.218685865E0
4.137011640E0,1.292908341E-1,9.680052757E0,-1.213897347E0
4.139011406E0,1.532335877E-1,9.689630508E0,-1.204320192E0
4.141011239E0,1.652049571E-1,9.711178780E0,-1.213897347E0
4.143011072E0,1.867534369E-1,9.732727051E0,-1.213897347E0
4.145010872E0,2.466102988E-1,9.761458397E0,-1.245022893E0
4.147010672E0,2.705530524E-1,9.787795067E0,-1.266571403E0
4.149010472E0,2.801301479E-1,9.785401344E0,-1.285725594E0
4.151010272E0,3.136500120E-1,9.799766541E0,-1.312062621E0
4.153010072E0,3.423812985E-1,9.818921089E0,-1.328822494E0
4.155009872E0,3.615354896E-1,9.823709488E0,-1.340793848E0
4.157009738E0,3.974496126E-1,9.835680962E0,-1.352765322E0
4.159009604E0,4.237866402E-1,9.838075638E0,-1.338399649E0
4.161009470E0,4.333637357E-1,9.840469360E0,-1.336005330E0
4.163009336E0,4.740664065E-1,9.835680962E0,-1.324033976E0
4.165009202E0,4.932205975E-1,9.814132690E0,-1.338399649E0
4.167009068E0,5.004034638E-1,9.799766541E0,-1.331216812E0
4.169008934E0,5.075862408E-1,9.761458397E0,-1.355159521E0
4.171008800E0,5.435003638E-1,9.737515450E0,-1.367130876E0
4.173008733E0,5.578660369E-1,9.718361855E0,-1.367130876E0
4.175008599E0,5.794144869E-1,9.682447433E0,-1.359948039E0
4.177008465E0,6.033572555E-1,9.670475960E0,-1.369525194E0
4.179008331E0,6.153286099E-1,9.632167816E0,-1.393467903E0
4.181008197E0,6.201171875E-1,9.598648071E0,-1.393467903E0
4.183008063E0,6.440598965E-1,9.584281921E0,-1.426987767E0
4.185007929E0,6.512427330E-1,9.555550575E0,-1.441353440E0
4.187007795E0,6.512427330E-1,9.536396980E0,-1.474873304E0
4.189007695E0,6.680026650E-1,9.519637108E0,-1.498816013E0
4.191007528E0,6.823683381E-1,9.495694160E0,-1.510787368E0
4.193007361E0,6.799740195E-1,9.495694160E0,-1.537124395E0
4.195007194E0,6.584255695E-1,9.483722687E0,-1.541913033E0
4.197007027E0,6.368771195E-1,9.445414543E0,-1.549095750E0
4.199006860E0,6.009629965E-1,9.383162498E0,-1.556278586E0
4.201006693E0,5.818088055E-1,9.356825829E0,-1.549095750E0
4.203006526E0,5.794144869E-1,9.316123009E0,-1.558672905E0
4.205006392E0,5.674431324E-1,9.273026466E0,-1.565855742E0
4.207006192E0,5.722316504E-1,9.256266594E0,-1.575432777E0
4.209005992E0,5.722316504E-1,9.213169098E0,-1.587404251E0
4.211005792E0,5.794144869E-1,9.196409225E0,-1.608952641E0
4.213005592E0,5.674431324E-1,9.194015503E0,-1.613741279E0
4.215005392E0,5.698373914E-1,9.198803902E0,-1.647261024E0
4.217005192E0,5.602602959E-1,9.196409225E0,-1.680780888E0
4.219004992E0,5.458946824E-1,9.191620827E0,-1.699935079E0
4.221004792E0,5.291347504E-1,9.189227104E0,-1.721483588E0
4.223004525E0,5.219519138E-1,9.222746849E0,-1.740637779E0
4.225004258E0,5.219519138E-1,9.239506721E0,-1.740637779E0
4.227003991E0,4.956148863E-1,9.268238068E0,-1.743032098E0
4.229003724E0,4.764606953E-1,9.292180061E0,-1.752609134E0
4.231003457E0,4.668835998E-1,9.316123009E0,-1.747820616E0
4.233003190E0,4.261809289E-1,9.366402626E0,-1.738243461E0
4.235002990E0,3.830839694E-1,9.411893845E0,-1.716695070E0
4.237002790E0,3.735068738E-1,9.433443069E0,-1.709512234E0
4.239002523E0,3.519583941E-1,9.466962814E0,-1.714300752E0
4.241002256E0,3.016786277E-1,9.507665634E0,-1.695146561E0
4.243001989E0,2.849186957E-1,9.524425507E0,-1.692752242E0
4.245001722E0,2.585816681E-1,9.557945251E0,-1.659232497E0
4.247001455E0,2.513988614E-1,9.591464996E0,-1.628106833E0
4.249001188E0,2.490045726E-1,9.608224869E0,-1.613741279E0
4.251000988E0,2.346389294E-1,9.663292885E0,-1.577827096E0
4.253000721E0,2.370332032E-1,9.680052757E0,-1.561067224E0
4.255000454E0,2.250618339E-1,9.692024231E0,-1.551490068E0
4.257000187E0,2.250618339E-1,9.718361855E0,-1.522758722E0
4.258999920E0,2.370332032E-1,9.742303848E0,-1.501210332E0
4.260999653E0,2.633702159E-1,9.739910126E0,-1.496421814E0
4.262999386E0,2.633702159E-1,9.735121727E0,-1.498816013E0
4.264999119E0,2.657645047E-1,9.744698524E0,-1.505998850E0
4.266998919E0,2.849186957E-1,9.742303848E0,-1.505998850E0
4.268998652E0,3.112557232E-1,9.747093201E0,-1.494027495E0
4.270998385E0,3.184385598E-1,9.730332375E0,-1.513181686E0
4.272998118E0,3.160442710E-1,9.727938652E0,-1.513181686E0
4.274997851E0,3.088614643E-1,9.711178780E0,-1.508393168E0
4.276997584E0,3.232271075E-1,9.703995705E0,-1.482056141E0
4.278997317E0,3.328042030E-1,9.696812630E0,-1.477267504E0
4.280997050E0,3.567469418E-1,9.660899162E0,-1.479661822E0
4.282996850E0,3.519583941E-1,9.644139290E0,-1.474873304E0
4.284996583E0,3.543526828E-1,9.632167816E0,-1.467690468E0
4.286996316E0,3.687183261E-1,9.591464996E0,-1.438959122E0
4.288996049E0,3.759011328E-1,9.562733650E0,-1.438959122E0
4.290995782E0,3.830839694E-1,9.550762177E0,-1.438959122E0
4.292995515E0,4.094209969E-1,9.517242432E0,-1.429382086E0
4.294995248E0,4.309694767E-1,9.490905762E0,-1.434170604E0
4.296994981E0,4.261809289E-1,9.471751213E0,-1.426987767E0
4.298994781E0,4.309694767E-1,9.433443069E0,-1.422199249E0
4.300994514E0,4.501236677E-1,9.404711723E0,-1.431776285E0
4.302994247E0,4.477293789E-1,9.390345573E0,-1.434170604E0
