"Time (s)","Gyroscope x (rad/s)","Gyroscope y (rad/s)","Gyroscope z (rad/s)"
5.448105700E-2,-2.692571878E-1,5.255640745E-1,-3.814731240E-1
6.443125000E-2,-2.252748758E-1,4.504275918E-1,-4.089620709E-1
7.443490400E-2,-2.002294213E-1,3.850650191E-1,-4.071294665E-1
8.448467300E-2,-1.751839370E-1,3.300871253E-1,-3.686449528E-1
9.448182700E-2,-1.690752953E-1,2.885482907E-1,-3.234409094E-1
1.044350190E-1,-1.666318327E-1,2.647245526E-1,-3.130562305E-1
1.144365190E-1,-1.507493258E-1,4.094996154E-1,-3.784188032E-1
1.244343650E-1,-1.232603937E-1,5.286183953E-1,-5.024244785E-1
1.344425570E-1,-9.760405123E-2,5.939809680E-1,-6.496430039E-1
1.444446730E-1,-8.599761128E-2,5.811527967E-1,-8.005266786E-1
1.544355960E-1,-8.355414867E-2,4.999077022E-1,-9.367496371E-1
1.644325570E-1,-4.140444845E-2,1.920316070E-1,-1.071750760E0
1.744440570E-1,-1.159300059E-1,7.841067016E-2,-1.142000318E0
1.844325570E-1,-1.647992283E-1,1.671327651E-2,-1.201865077E0
1.944838270E-1,-2.552073002E-1,9.184969962E-2,-1.239127874E0
2.044339420E-1,-4.409102798E-1,1.694295853E-1,-1.298992634E0
2.144309420E-1,-6.638761163E-1,2.720549405E-1,-1.314875126E0
2.244440960E-1,-9.027244449E-1,3.826215565E-1,-1.368631363E0
2.344315190E-1,-1.156233549E0,4.999077022E-1,-1.416889668E0
2.444303650E-1,-1.481213927E0,7.772405148E-1,-1.396120310E0
2.544408650E-1,-1.739609838E0,1.066179752E0,-1.422387481E0
2.644524420E-1,-1.960743189E0,1.444916248E0,-1.459039330E0
2.744507110E-1,-2.108572483E0,1.754014015E0,-1.509130359E0
2.844268650E-1,-2.157441616E0,2.010577440E0,-1.564719081E0
2.944794420E-1,-2.195315361E0,2.148632765E0,-1.641688108E0
3.044377500E-1,-2.274116993E0,2.272638559E0,-1.751643777E0
3.144443650E-1,-2.379185677E0,2.419857025E0,-1.852436543E0
3.244381340E-1,-2.531902075E0,2.544473648E0,-1.982550859E0
3.345307110E-1,-2.693781376E0,2.543862581E0,-2.108999968E0
3.444785190E-1,-2.817786932E0,2.494382620E0,-2.170697451E0
3.544379030E-1,-2.878873587E0,2.468726158E0,-2.163977861E0
3.644300570E-1,-2.877651930E0,2.632438183E0,-2.193910360E0
3.744378650E-1,-2.889258385E0,3.109524012E0,-2.346626520E0
3.844344420E-1,-2.988829374E0,3.334322214E0,-2.537827492E0
3.944372500E-1,-3.090843916E0,3.414956570E0,-2.738191128E0
4.044345190E-1,-3.115889311E0,3.220090628E0,-2.820047140E0
4.144330960E-1,-2.963783741E0,2.950088024E0,-2.709480524E0
4.244480960E-1,-2.743872404E0,2.642822981E0,-2.455971479E0
4.344310570E-1,-2.414615870E0,2.234764814E0,-2.204905748E0
4.444332110E-1,-1.914317369E0,1.546319842E0,-1.889699340E0
4.544530960E-1,-1.230759144E0,5.518312454E-1,-1.435215592E0
4.644311730E-1,-6.070656776E-1,-1.512746662E-1,-9.862297177E-1
4.744453260E-1,-4.848926067E-1,-2.850541472E-1,-1.049148798E0
4.844531340E-1,-3.645521402E-1,-3.809600174E-1,-1.251956105E0
4.944470190E-1,-3.083525896E-1,-3.931773007E-1,-1.448654652E0
5.044537110E-1,-2.411573976E-1,-4.487660527E-1,-1.708272457E0
5.144685570E-1,-5.777441263E-1,-6.460754871E-1,-2.145651817E0
5.244669030E-1,-1.190441966E0,-6.698992252E-1,-2.448030233E0
5.344519420E-1,-1.911262989E0,-5.636087060E-1,-2.739413023E0
5.444439030E-1,-2.478146076E0,-2.801672220E-1,-2.899459600E0
5.544652490E-1,-2.597875595E0,-3.742404878E-1,-2.838373184E0
5.644510570E-1,-2.363303185E0,-5.043547750E-1,-2.539049149E0
5.744404420E-1,-1.811081171E0,-6.772296429E-1,-1.925740480E0
5.844435190E-1,-1.210600615E0,-7.725245953E-1,-1.223856211E0
5.944373650E-1,-8.599638939E-1,-6.546276212E-1,-7.565444112E-1
6.044388260E-1,-6.589891911E-1,-6.442428827E-1,-6.184888482E-1
6.144405570E-1,-5.740789175E-1,-6.564602256E-1,-6.239866614E-1
6.244560570E-1,-6.382197738E-1,-8.207829595E-1,-7.773138285E-1
6.344512110E-1,-7.958230376E-1,-9.796079397E-1,-9.575190544E-1
6.444383260E-1,-1.038947463E0,-1.227619171E0,-1.109013557E0
6.544598260E-1,-1.214265823E0,-1.302755594E0,-1.137113452E0
6.644458260E-1,-1.327275872E0,-1.381557226E0,-1.102294087E0
6.744393260E-1,-1.344380021E0,-1.555653811E0,-1.002112150E0
6.844354030E-1,-1.264967561E0,-1.624681592E0,-8.371786475E-1
6.944385570E-1,-1.124468565E0,-1.567260265E0,-6.099367738E-1
7.044711340E-1,-9.082221985E-1,-1.358955264E0,-3.093910217E-1
7.144485570E-1,-6.003461480E-1,-1.252664685E0,-7.787310332E-2
7.244592110E-1,-2.411573976E-1,-1.206238866E0,-9.040832520E-4
7.344459030E-1,3.495370597E-2,-1.167754412E0,-2.125812694E-3
7.444529800E-1,7.649254054E-2,-1.013816357E0,-2.961474843E-2
7.544519800E-1,-1.043235660E-1,-8.213938475E-1,-1.499552131E-1
7.644318260E-1,-2.973569632E-1,-6.601253748E-1,-1.438465416E-1
7.744375570E-1,-4.751187563E-1,-5.764368773E-1,-7.726223767E-2
7.844955950E-1,-5.093272328E-1,-8.482719064E-1,-2.472782694E-2
7.944695950E-1,-4.598471522E-1,-8.873672485E-1,8.869759738E-3
8.044410570E-1,-3.602761030E-1,-1.129880786E0,-1.560638547E-1
8.144389030E-1,-1.684644222E-1,-1.771900177E0,-3.955230117E-1
8.244628260E-1,-1.354777068E-1,-2.097491503E0,-4.981483817E-1
8.344439420E-1,-2.515420914E-1,-2.035794020E0,-4.639399648E-1
8.444351340E-1,-2.991895676E-1,-1.752352476E0,-3.026714921E-1
8.544380950E-1,-1.617449075E-1,-1.528775811E0,-3.877772763E-2
8.644446340E-1,5.633398890E-2,-1.468910933E0,1.548665613E-1
8.744972110E-1,1.394116580E-1,-1.487236977E0,1.731925160E-1
8.844417880E-1,6.671869755E-2,-1.492123842E0,8.644964546E-2
8.944363650E-1,-1.086118817E-2,-1.512282372E0,-1.133032888E-1
9.044847490E-1,-1.299799085E-1,-1.316194654E0,-1.823310554E-1
9.160211340E-1,-1.250929832E-1,-4.530421197E-1,-8.214916289E-2
9.244857880E-1,6.183177605E-2,2.818287909E-1,5.407378823E-2
9.344441720E-1,5.059307814E-1,3.636847138E-1,1.835772246E-1
9.444346720E-1,7.765441537E-1,2.176879495E-1,2.342790514E-1
9.544406720E-1,6.323799491E-1,2.861048281E-1,1.237124205E-1
9.644934030E-1,2.603629827E-1,4.791382849E-1,-1.861917414E-2
9.744447880E-1,-5.056743324E-2,5.835962296E-1,-1.725572199E-1
9.844410180E-1,-9.577146173E-2,4.821926057E-1,-2.855672836E-1
9.944516720E-1,-5.240002275E-2,7.717427611E-1,-1.090272292E-1
1.004446480E0,1.809504926E-1,1.097944736E0,2.727635503E-1
1.014439211E0,6.757513881E-1,9.653869867E-1,5.775852799E-1
1.024466595E0,1.180936813E0,6.055873632E-1,7.437406182E-1
1.034440095E0,1.426504731E0,2.445660084E-1,7.333559394E-1
1.044449903E0,1.398404837E0,8.696278930E-2,4.731273055E-1
1.054442095E0,1.353200912E0,-1.195096672E-1,3.540086150E-1
1.064440826E0,1.188267231E0,1.205603778E-1,4.034886956E-1
1.074457403E0,9.097127318E-1,7.980099320E-1,5.653679967E-1
1.084455057E0,7.777658701E-1,1.312358499E0,7.693969607E-1
1.094608172E0,8.437393308E-1,1.419259906E0,8.194879293E-1
1.104535403E0,9.842383265E-1,1.362449408E0,6.789889336E-1
1.114568057E0,1.220643044E0,1.347788692E0,3.747780323E-1
1.124509211E0,1.642750978E0,1.393603563E0,9.011483938E-2
1.134438249E0,2.232846737E0,1.382607937E0,-7.726223767E-2
1.144500057E0,2.882196665E0,1.049075603E0,4.613254219E-2
1.154451326E0,3.122877359E0,7.283713222E-1,4.230363965E-1
1.164465826E0,2.873033524E0,6.239133477E-1,6.350066066E-1
1.174462672E0,2.346467733E0,5.970352888E-1,5.256617665E-1
1.184689287E0,1.256684184E0,4.247712493E-1,1.603643447E-1
1.194457787E0,6.604797244E-1,4.180517197E-1,-9.456196800E-3
1.204462287E0,3.354994059E-1,7.546384931E-1,-6.382320076E-2
1.214455364E0,4.118575454E-1,1.133985877E0,-5.466022342E-2
1.224451864E0,8.797803521E-1,1.220117807E0,1.253495365E-2
1.234441672E0,1.665352941E0,5.860397220E-1,2.122878879E-1
1.244466826E0,2.004383326E0,6.924769282E-2,4.804577231E-1
1.254457903E0,1.708113551E0,2.073032409E-1,5.268834829E-1
1.264459480E0,1.287227392E0,4.333233535E-1,4.615209103E-1
1.274471057E0,9.695775509E-1,3.813998103E-1,3.943257332E-1
1.284452941E0,7.233988643E-1,2.128010243E-1,2.446637601E-1
1.294439287E0,5.059307814E-1,2.409008294E-1,1.444818527E-1
1.304496557E0,4.057489038E-1,4.559253752E-1,1.597534716E-1
1.314444864E0,4.210205674E-1,5.347270370E-1,3.161349893E-1
1.324445249E0,7.948700786E-1,3.172589540E-1,4.040995836E-1
1.334442749E0,9.793514013E-1,1.610241085E-2,4.865663648E-1
1.344429903E0,8.785586357E-1,-2.360382862E-2,5.421550870E-1
1.354468557E0,6.293256283E-1,1.309450865E-1,5.726983547E-1
1.364447133E0,4.100249410E-1,2.470094711E-1,5.488746166E-1
1.374455480E0,3.037344217E-1,2.085249573E-1,4.541905522E-1
1.384443210E0,2.829650044E-1,6.008471176E-2,2.935329676E-1
1.394452326E0,3.147299886E-1,-5.475795642E-2,1.432601213E-1
1.404485403E0,3.544362187E-1,-3.445275128E-3,6.140417606E-2
1.414470480E0,4.314052463E-1,1.144517213E-1,4.918687046E-2
1.424467518E0,5.645738840E-1,2.354030460E-1,9.255829453E-2
1.434455941E0,7.661594152E-1,1.645426750E-1,1.267667562E-1
1.444464518E0,7.997570038E-1,3.565010056E-2,2.055683732E-1
1.454448595E0,5.975605845E-1,5.703038350E-2,3.460673690E-1
1.464451287E0,4.619485140E-1,8.268672228E-2,3.839409947E-1
1.474457556E0,4.130792618E-1,5.275432393E-2,3.478999734E-1
1.484483980E0,4.081923962E-1,-3.704286367E-2,2.629896998E-1
1.494452441E0,4.564507008E-1,-5.536882207E-2,1.713599116E-1
1.504447979E0,4.558398724E-1,-4.131891951E-2,1.237124205E-1
1.514444479E0,4.069706202E-1,-6.086660922E-2,7.484320551E-2
1.524463979E0,3.929207325E-1,-1.444084942E-2,4.307821393E-2
1.534955941E0,3.898664117E-1,5.397605523E-2,2.841744944E-2
1.544442749E0,4.179661870E-1,1.559905559E-1,1.558927819E-2
1.554487095E0,4.643919468E-1,1.633209437E-1,1.864360645E-2
1.564450749E0,4.906591773E-1,1.182635501E-2,1.059973389E-1
1.574451172E0,4.167444706E-1,-2.722259760E-1,1.719707847E-1
1.584459095E0,1.168096513E-1,-4.982461333E-1,2.263377756E-1
1.594507402E0,-1.574688554E-1,-6.460754871E-1,2.519941330E-1
1.604459326E0,-3.572217822E-1,-4.958026707E-1,2.409985512E-1
1.614487326E0,-3.810455203E-1,-3.070453107E-1,1.683055907E-1
1.624457018E0,-2.552195638E-2,-2.398501188E-1,1.328754127E-1
1.634461595E0,2.231002003E-1,-2.123611867E-1,4.796513915E-2
1.644485287E0,3.758165240E-1,-1.769310087E-1,-5.180139095E-3
1.654458479E0,3.941424489E-1,-1.537181288E-1,3.208263963E-2
1.664442402E0,3.153408468E-1,-2.325197458E-1,2.597398683E-2
1.674442018E0,2.090502977E-1,-3.626340628E-1,4.735427350E-2
1.684456249E0,1.204748377E-1,-4.744223952E-1,6.934542209E-2
1.694455902E0,6.610783190E-2,-5.819346309E-1,6.751282513E-2
1.704456941E0,6.732956320E-2,-7.358726859E-1,7.239975035E-2
1.714447133E0,9.054244310E-2,-9.246300459E-1,9.316916764E-2
1.724447518E0,3.251024336E-2,-1.162256598E0,1.689164490E-1
1.734468479E0,-3.651753068E-2,-1.355290055E0,2.196182758E-1
1.744452749E0,-9.210626781E-2,-1.581310153E0,2.703200579E-1
1.754448210E0,-1.544145197E-1,-1.971653104E0,2.984198928E-1
1.764445364E0,-1.098213643E-1,-2.451182365E0,1.548665613E-1
1.774455902E0,-6.034126878E-2,-2.865349054E0,1.176037788E-1
1.784452825E0,8.075632155E-3,-3.271574497E0,7.911926508E-2
1.794437825E0,5.755572021E-2,-3.735221148E0,1.131322235E-2
1.804488133E0,5.694485456E-2,-3.822574854E0,7.973013073E-2
1.814437864E0,-4.752539098E-3,-3.154899120E0,2.813156843E-1
1.824452825E0,-6.706079841E-2,-2.090771914E0,3.454565406E-1
1.834450787E0,-1.586905718E-1,-9.759427309E-1,2.880351543E-1
1.844442248E0,-2.539855838E-1,-2.490130961E-1,1.615860760E-1
1.854441710E0,-2.558181286E-1,9.795835614E-2,2.169793099E-2
1.864432095E0,-2.387139350E-1,3.679607809E-1,-1.251052134E-2
1.874506133E0,-2.625376582E-1,2.995438874E-1,-9.456196800E-3
1.884491825E0,-3.920410872E-1,2.573941648E-1,3.696956486E-2
1.894482864E0,-6.015678644E-1,2.592267692E-1,1.340971440E-1
1.904453248E0,-8.037642837E-1,2.573941648E-1,1.255450249E-1
1.914547133E0,-9.754174352E-1,1.584340185E-1,3.880216181E-2
1.924465595E0,-1.192885518E0,-1.561615914E-1,-4.183205217E-2
1.934465095E0,-1.401190519E0,-4.469334483E-1,-1.279640496E-1
1.947575210E0,-1.437842488E0,-4.793093204E-1,-3.014497757E-1
1.964491364E0,-1.247252464E0,-5.489479303E-1,-2.647978663E-1
1.974431748E0,-1.140961885E0,-6.796730757E-1,-2.289523184E-2
1.984437287E0,-1.130577207E0,-8.403306603E-1,3.387370110E-1
1.994436479E0,-1.266189337E0,-1.197686791E0,8.555289507E-1
2.004436056E0,-1.468996525E0,-1.537938714E0,1.048562407E0
2.014434787E0,-1.622934580E0,-1.723641753E0,1.084603548E0
2.024431325E0,-1.701125383E0,-1.776787043E0,9.813671708E-1
2.034433441E0,-1.663862586E0,-1.828099728E0,7.602339983E-1
2.044464133E0,-1.614382505E0,-1.564816833E0,6.777672172E-1
2.054432787E0,-1.684632063E0,-1.341240168E0,6.460021734E-1
2.064437364E0,-1.791533470E0,-1.437756896E0,5.959112644E-1
2.074437825E0,-1.948525906E0,-1.655835748E0,5.910243392E-1
2.084433441E0,-2.252125740E0,-1.843982220E0,6.924279332E-1
2.094424094E0,-2.644301414E0,-2.358941793E0,9.123394489E-1
2.104424133E0,-2.639414310E0,-2.817701578E0,9.777020812E-1
2.114427787E0,-2.667514086E0,-3.205600977E0,1.146300912E0
2.124469979E0,-2.640025139E0,-3.927643776E0,1.324673533E0
2.134535171E0,-2.446991920E0,-4.387013912E0,1.438294530E0
2.144425864E0,-1.902710915E0,-4.556223869E0,1.399199128E0
2.154426171E0,-1.320556283E0,-4.231854439E0,1.475557208E0
2.164467671E0,-1.018177986E0,-3.785923004E0,1.606893301E0
2.174424094E0,-9.882455468E-1,-3.481712103E0,1.602617264E0
2.184434056E0,-8.734028935E-1,-3.250194073E0,1.528702497E0
2.194466787E0,-9.748064876E-1,-3.176279545E0,1.361325502E0
2.204433210E0,-1.633319378E0,-3.057771683E0,1.113314152E0
2.214435864E0,-2.470815659E0,-3.346100092E0,8.543072343E-1
2.224425864E0,-3.089622021E0,-3.750492811E0,5.647571087E-1
2.234431671E0,-3.401774168E0,-3.806692362E0,3.552303314E-1
2.244429210E0,-3.413380623E0,-3.666193485E0,2.281703800E-1
2.254543940E0,-3.150708675E0,-3.235533476E0,1.224907041E-1
2.265145210E0,-2.654685974E0,-2.582518339E0,7.850839943E-2
2.274441287E0,-2.230134726E0,-2.132921696E0,-8.845331147E-3
2.284451671E0,-1.817800641E0,-1.574590683E0,-3.816686198E-2
2.295084056E0,-1.592391372E0,-1.206849813E0,-2.228436619E-2
2.304443594E0,-1.267410994E0,-1.207460642E0,2.263377756E-1
2.314446864E0,-8.373618722E-1,-1.549545169E0,4.163168669E-1
2.324439787E0,-1.004739046E0,-1.448752403E0,2.495506555E-1
2.334470902E0,-1.664473414E0,-1.266714573E0,2.794830799E-1
2.344444594E0,-1.944860697E0,-1.477463126E0,3.527868986E-1
2.354456325E0,-1.987010241E0,-1.679048657E0,5.097792745E-1
2.364455825E0,-8.178141713E-1,-1.380335569E0,4.548013806E-1
2.374445017E0,1.463767409E0,-1.632622838E0,1.713599116E-1
2.384436825E0,2.462532043E0,-2.558083773E0,8.767137676E-2
2.394497902E0,1.849834323E0,-2.988132954E0,6.777672172E-1
2.404443133E0,8.999388814E-1,-2.481725693E0,1.079716563E0
2.414443440E0,5.999917910E-2,-1.765791535E0,1.016186595E0
2.424448710E0,-2.796419263E-1,-1.085287571E0,6.270653605E-1
2.434464710E0,-2.038946003E-1,-6.607362628E-1,3.130806684E-1
2.444445440E0,-4.629137367E-2,-5.947628021E-1,2.312247008E-1
2.454448556E0,-8.294329047E-2,-6.369125247E-1,2.330573052E-1
2.464470133E0,-2.625376582E-1,-4.200553894E-1,3.448456526E-1
2.474445556E0,-4.396885633E-1,-1.097358316E-1,5.354356170E-1
2.484440671E0,-5.068837404E-1,1.645426750E-1,6.899845004E-1
2.494446940E0,-5.074946284E-1,3.893410563E-1,8.341487050E-1
2.504483440E0,-4.500733018E-1,4.553145170E-1,9.404392242E-1
2.514464863E0,-3.364523649E-1,3.716259599E-1,9.111177325E-1
2.524449286E0,-2.533746958E-1,1.486601681E-1,7.932206988E-1
2.534444902E0,-7.194770873E-2,-1.164553463E-1,7.492384315E-1
2.544442440E0,9.908229113E-3,-7.797083259E-2,9.184480906E-1
2.554450517E0,1.356117427E-3,-1.079032272E-1,9.355522990E-1
2.564436094E0,-6.278473139E-2,-7.125131786E-2,7.614557147E-1
2.574431402E0,-1.031018347E-1,-5.781228095E-2,5.134444237E-1
2.584465402E0,-6.950424612E-2,-2.960497439E-1,3.100263476E-1
2.594451094E0,-5.484348536E-2,-6.601253748E-1,2.617679834E-1
2.604653517E0,-5.484348536E-2,-1.010151267E0,2.715418339E-1
2.614445363E0,-4.079358280E-2,-1.155537128E0,2.257269174E-1
2.624480402E0,2.456899360E-2,-1.079178929E0,1.218798310E-1
2.634813056E0,1.784947887E-2,-9.447885752E-1,1.053864658E-1
2.644437248E0,-1.031018347E-1,-6.692883968E-1,1.347080022E-1
2.654435786E0,-1.733513474E-1,-2.563434839E-1,1.285993457E-1
2.664604440E0,-4.140444845E-2,2.867157161E-1,1.719707847E-1
2.674743748E0,2.945591509E-2,5.738223791E-1,1.420383900E-1
2.684442632E0,6.061004475E-2,9.152960777E-1,1.249341518E-1
2.694438056E0,1.479515061E-2,1.100388288E0,9.561263025E-2
2.704440709E0,-8.660848439E-2,1.080840588E0,9.988868237E-2
2.714448825E0,-1.806817204E-1,8.138924241E-1,1.493687630E-1
2.724446632E0,-2.277183384E-1,4.363777041E-1,1.915184706E-1
2.734455671E0,-1.788491309E-1,1.932533383E-1,2.568810582E-1
2.744448363E0,-7.927809656E-2,9.382896125E-3,2.092335671E-1
2.754435556E0,-5.973041058E-2,-7.613824308E-2,1.450927109E-1
2.764433594E0,7.452517748E-4,-8.896641433E-2,1.292102188E-1
2.774434479E0,9.970542043E-2,-1.696006209E-1,8.522791415E-2
2.784436132E0,2.817432582E-1,-2.013656050E-1,1.224907041E-1
2.794550440E0,6.238278151E-1,-3.015475273E-1,1.224907041E-1
2.804488786E0,8.241916299E-1,-3.522493541E-1,1.029430032E-1
2.814433402E0,9.744644761E-1,-5.190155506E-1,6.812369078E-2
2.824523017E0,1.094804883E0,-6.705101132E-1,3.391523659E-2
2.834545940E0,1.171773911E0,-6.949447393E-1,5.896071345E-2
2.844439748E0,1.188878059E0,-7.083837390E-1,1.634186655E-1
2.854454055E0,1.154058814E0,-6.576819420E-1,2.800939083E-1
2.864466671E0,1.061207294E0,-6.876143217E-1,4.810685515E-1
2.874454132E0,8.150286078E-1,-8.519370556E-1,9.434935451E-1
2.884448286E0,4.759984016E-1,-7.908505797E-1,1.193337560E0
2.894815671E0,2.457022071E-1,-6.136996150E-1,1.073607922E0
2.904429402E0,1.265834868E-1,-5.489479303E-1,9.068416357E-1
2.914446248E0,4.411668330E-2,-5.715499520E-1,7.357993722E-1
2.924436209E0,-1.269378513E-2,-5.733825564E-1,6.307305694E-1
2.934436902E0,-8.599761128E-2,-3.565253913E-1,4.224255085E-1
2.944432940E0,-1.073779017E-1,-4.646485448E-1,3.411804438E-1
2.954460902E0,-4.934570193E-2,-5.825455189E-1,2.684875131E-1
2.964449940E0,2.884505317E-2,-4.945809543E-1,1.976271272E-1
2.974441325E0,1.125335917E-1,-3.589688540E-1,1.206580997E-1
2.984445632E0,1.962221265E-1,-3.589688540E-1,2.794830799E-1
2.994446248E0,2.750237584E-1,-3.669101000E-1,4.218146801E-1
3.004446094E0,3.348885179E-1,-3.229278028E-1,3.900496960E-1
3.014452748E0,3.556579351E-1,-3.681318462E-1,3.503434062E-1
3.024444555E0,3.446623683E-1,-4.218879938E-1,3.185784221E-1
3.034471517E0,3.098430634E-1,-3.956207633E-1,2.507724166E-1
3.044578786E0,2.469239384E-1,-3.290364742E-1,1.829663515E-1
3.054442401E0,1.424659789E-1,-1.598267853E-1,1.793011576E-1
3.064445825E0,-2.309076488E-3,5.580865219E-2,2.171748132E-1
3.074443632E0,-1.501384676E-1,2.940460742E-1,2.752069831E-1
3.084436055E0,-1.702970117E-1,3.404718339E-1,3.705019951E-1
3.094498209E0,-1.434189528E-1,4.204951823E-1,4.835120440E-1
3.104498363E0,-6.950424612E-2,4.730295837E-1,5.647571087E-1
3.114461978E0,1.504072249E-1,6.055873632E-1,6.386718154E-1
3.124458478E0,4.283509254E-1,7.094345093E-1,5.604810715E-1
3.134447978E0,5.877867937E-1,5.573290586E-1,4.199820757E-1
3.144593671E0,7.191227674E-1,3.533000052E-1,3.802758455E-1
3.154445171E0,6.794165373E-1,-4.667006433E-3,3.509542942E-1
3.164458824E0,5.163155198E-1,-3.131539524E-1,3.259088397E-1
3.174446709E0,3.574905396E-1,-3.540819287E-1,2.336681634E-1
3.184447863E0,1.943895370E-1,-1.641028374E-1,1.285993457E-1
3.194443978E0,7.160561532E-2,7.046942413E-2,1.742187515E-2
3.204443824E0,2.823418751E-2,3.259577230E-2,-1.495398395E-2
3.214435363E0,3.251024336E-2,-2.910161577E-2,-3.958407789E-3
3.224443363E0,2.456899360E-2,-9.140986949E-2,2.353052795E-2
3.234449940E0,1.174082607E-2,-1.433334202E-1,3.452610224E-2
3.244461401E0,-3.530807793E-3,-1.732658148E-1,3.330437094E-2
3.254440094E0,1.356117427E-3,-1.793744564E-1,5.712811649E-2
3.264448324E0,4.472754896E-2,-1.421116889E-1,1.285993457E-1
3.274438709E0,-5.974270403E-3,-1.109575629E-1,1.163820475E-1
3.284559747E0,-3.468493372E-2,-4.437324777E-2,1.212689728E-1
3.294455747E0,-4.629137367E-2,-3.826459497E-2,1.139385849E-1
3.304448171E0,1.968207210E-2,3.320663795E-2,7.911926508E-2
3.314460824E0,1.540601626E-2,-9.140986949E-2,9.622348845E-2
3.324453401E0,7.404907793E-2,-1.030163094E-1,7.117801905E-2
3.334450055E0,9.726195782E-2,-1.262291968E-1,1.078299284E-1
3.344448401E0,1.033706069E-1,-5.475795642E-2,1.915184706E-1
3.354438209E0,9.298589826E-2,-1.109575629E-1,2.599353790E-1
3.364540747E0,4.839273915E-2,-7.552736998E-2,2.684875131E-1
3.374458478E0,1.356117427E-3,-1.810604148E-2,2.684875131E-1
3.384449709E0,-2.309076488E-3,-2.054950222E-2,2.959764004E-1
3.394450055E0,1.088683978E-1,1.248364300E-1,2.397768348E-1
3.404458747E0,3.556457162E-2,8.268672228E-2,3.008633256E-1
3.414448863E0,1.662774757E-2,1.724839211E-1,3.735563159E-1
3.424443670E0,7.404907793E-2,1.462167203E-1,4.401406050E-1
3.434446247E0,1.565158963E-1,1.895881444E-1,4.835120440E-1
3.444453670E0,1.241400316E-1,1.938641965E-1,4.810685515E-1
3.454453863E0,9.298589826E-2,2.494529337E-1,4.810685515E-1
3.464449247E0,5.999917910E-2,1.975293905E-1,4.334211349E-1
3.474450055E0,-4.751310498E-2,2.770885453E-2,3.246870637E-1
3.484465824E0,5.327966064E-2,-2.893302143E-1,3.588955402E-1
3.494458593E0,8.260118961E-2,-3.247604072E-1,4.829011559E-1
3.504459170E0,-5.789781362E-2,6.924769282E-2,5.977438688E-1
3.514448440E0,2.011090517E-1,2.054706365E-1,5.219965577E-1
3.524441055E0,3.061778545E-1,-2.543642372E-2,3.283522725E-1
3.534463016E0,3.037344217E-1,-1.793744564E-1,2.324464470E-1
3.544449478E0,3.458840847E-1,-1.317269802E-1,2.116770297E-1
3.554443286E0,3.055670261E-1,-5.842314661E-2,1.353188604E-1
3.564470824E0,2.169915438E-1,-1.323378384E-1,2.291966230E-2
3.574461978E0,1.259726286E-1,-2.270219475E-1,-5.771455169E-2
3.584438978E0,1.265834868E-1,-2.258002162E-1,-7.176445425E-2
3.594459363E0,2.328740507E-1,-2.337414622E-1,-1.189965755E-2
3.604536747E0,3.104539514E-1,-2.905519307E-1,6.812369078E-2
3.614451286E0,2.872410417E-1,-3.736296296E-1,1.108842641E-1
3.624446170E0,2.041633725E-1,-4.634268284E-1,1.310428083E-1
3.634448516E0,1.516289711E-1,-3.846251965E-1,2.165639400E-1
3.644456209E0,1.479637772E-1,-2.410718501E-1,3.161349893E-1
3.654449824E0,1.717875153E-1,-1.506637931E-1,3.252979517E-1
3.664453401E0,1.766744405E-1,-1.140118837E-1,2.862026095E-1
3.674439516E0,1.583484858E-1,-8.957727253E-2,2.617679834E-1
3.684461324E0,1.540724337E-1,-9.996198118E-2,1.823554933E-1
3.694443939E0,1.540724337E-1,-1.152336150E-1,6.873455644E-2
3.704441247E0,1.595702171E-1,-4.437324777E-2,-1.800831035E-2
3.714446324E0,1.442985833E-1,5.214345828E-2,-5.954714864E-2
3.724457093E0,1.540601626E-2,3.198490664E-2,-1.010859832E-1
3.734446247E0,4.900360480E-2,-7.110465318E-3,-8.337089419E-2
3.744440170E0,1.369681954E-1,-1.970895529E-1,-4.977330193E-2
3.754440362E0,1.583484858E-1,-2.111394554E-1,-6.137974188E-2
3.764443478E0,1.833939552E-1,-1.537181288E-1,-5.893628299E-2
3.774445209E0,1.155879200E-1,-3.704286367E-2,-4.732984304E-2
3.784444824E0,1.693440676E-1,7.474547625E-2,-6.565579772E-2
3.794434401E0,2.066068351E-1,3.809356317E-2,-9.803165495E-2
3.804436209E0,1.143661886E-1,-2.238209732E-2,-9.803165495E-2
3.814437862E0,-1.513724774E-2,-3.909505904E-4,-3.205820918E-2
3.824420709E0,-4.445877671E-2,2.098933235E-2,2.902831510E-2
3.834435093E0,-2.552195638E-2,2.648712322E-2,3.819129616E-2
3.844433209E0,-2.307849377E-2,5.580865219E-2,4.124561697E-2
3.854430209E0,-1.698210835E-3,8.390845358E-2,5.224119127E-2
3.864428670E0,6.427523494E-2,9.368230402E-2,1.497841254E-2
3.874426209E0,1.540724337E-1,3.503923491E-2,-1.181902066E-1
3.884433362E0,2.866301835E-1,-3.516384661E-1,-9.558819234E-2
3.895487324E0,3.947533369E-1,-5.220698714E-1,-8.845331147E-3
3.904440362E0,4.845505357E-1,-5.342871547E-1,1.023321450E-1
3.914431785E0,5.016547441E-1,-3.992859721E-1,2.196182758E-1
3.924439593E0,4.472877383E-1,-6.086660922E-2,3.417913318E-1
3.934435362E0,6.763622165E-1,5.286183953E-1,4.358645678E-1
3.944435401E0,9.488081336E-1,8.774224520E-1,3.729454279E-1
3.954430132E0,1.204760551E0,1.225615621E0,4.218146801E-1
3.964433824E0,3.709295988E-1,2.653354108E-1,7.480167150E-1
3.974439632E0,1.980547309E-1,-1.402790844E-1,1.480444193E0
3.984442862E0,8.199033141E-2,-3.742404878E-1,1.644766927E0
3.994452016E0,9.054244310E-2,-2.648956180E-1,1.732731581E0
4.004426785E0,1.259726286E-1,-3.445275128E-3,1.859791517E0
4.014443285E0,1.962221265E-1,1.541579664E-1,1.997236252E0
4.024501132E0,3.025126755E-1,7.474547625E-2,1.970358133E0
4.034438093E0,4.094141126E-1,1.248364300E-1,1.922710657E0
4.044503093E0,4.161336422E-1,2.158553451E-1,1.812144041E0
4.054509439E0,1.876700222E-1,3.313088715E-1,1.674699306E0
4.064461055E0,9.726195782E-2,3.985040486E-1,1.503657103E0
4.074456401E0,-6.644992530E-2,3.832324147E-1,1.312456250E0
4.084455670E0,-1.440298110E-1,2.213531286E-1,1.029014707E0
4.094480401E0,-2.014511377E-1,4.175874963E-2,7.052561045E-1
4.104456362E0,-2.020620257E-1,-4.987103492E-2,4.059321880E-1
4.114464631E0,-1.605231762E-1,-2.238209732E-2,1.450927109E-1
4.124445324E0,-6.400646269E-2,7.291288674E-2,-7.604050636E-2
4.134452093E0,8.686497808E-3,1.156734526E-1,-2.464719117E-1
4.144460516E0,2.273640037E-2,5.641951784E-2,-3.753644824E-1
4.154442362E0,4.717101157E-2,9.429316223E-2,-3.063367009E-1
4.164441593E0,4.472754896E-2,1.854587346E-2,-6.993184984E-2
4.174434478E0,7.160561532E-2,-4.667006433E-3,-3.083647974E-2
4.184471285E0,5.755572021E-2,5.336518958E-2,-5.180139095E-3
4.194451593E0,1.723861322E-2,6.863681972E-2,-6.401870400E-3
4.204452093E0,1.296255365E-2,6.924769282E-2,-3.347544000E-3
4.214467324E0,1.540601626E-2,9.429316223E-2,3.371972591E-3
4.224826324E0,2.273640037E-2,1.162843108E-1,-5.791004747E-3
4.234462747E0,8.075632155E-3,1.193386465E-1,-1.514948905E-3
4.244446247E0,-1.208291948E-2,1.046778709E-1,-3.958407789E-3
4.254440593E0,-3.040887415E-2,9.856922925E-2,-7.012734190E-3
4.264443478E0,-3.468493372E-2,9.734749794E-2,-9.456196800E-3
4.274445016E0,-3.407406807E-2,8.574105799E-2,-1.067792624E-2
4.284452785E0,-2.674368769E-2,5.519778654E-2,-1.312138699E-2
4.294462285E0,-2.613282204E-2,4.114788398E-2,-7.012734190E-3
4.304452901E0,-4.262617975E-2,2.648712322E-2,7.648032159E-3
4.314724131E0,-5.362175405E-2,3.076317534E-2,1.009149104E-2
4.324443285E0,-4.384791106E-2,4.725654051E-2,1.375668496E-2
4.334460054E0,-3.346320242E-2,8.024325967E-2,1.070235670E-2
4.344460362E0,-1.880243421E-2,1.113974005E-1,7.037166506E-3
4.354440901E0,-1.758071035E-2,1.346102804E-1,-2.736678347E-3
4.364496862E0,-1.880243421E-2,1.419406533E-1,-1.514948905E-3
4.374438670E0,-1.635897905E-2,1.364428699E-1,-7.623599842E-3
4.384427939E0,-1.696984470E-2,1.291124821E-1,-2.736678347E-3
4.394440324E0,-2.063503116E-2,1.107865274E-1,-4.569273442E-3
4.404431900E0,-3.101973981E-2,1.028452814E-1,-7.623599842E-3
4.414435516E0,-3.040887415E-2,1.058996022E-1,-2.106263489E-2
4.424431054E0,-3.285233676E-2,9.856922925E-2,-3.205820918E-2
4.434424631E0,-3.590666503E-2,1.040670127E-1,-4.122118652E-2
4.444429324E0,-3.712839633E-2,1.083430648E-1,-4.549724609E-2
4.454429900E0,-3.773926198E-2,1.175060421E-1,-4.794070870E-2
4.464448977E0,-3.529579937E-2,1.175060421E-1,-4.366464913E-2
4.474447554E0,-3.224147111E-2,1.217821091E-1,-3.694513068E-2
4.484460939E0,-3.712839633E-2,1.126191318E-1,-2.717128769E-2
4.494458554E0,-3.957185894E-2,9.795835614E-2,-2.289523184E-2
4.504440362E0,-3.896099329E-2,9.246057272E-2,-2.167350054E-2
4.514437823E0,-3.712839633E-2,9.795835614E-2,-2.228436619E-2
4.524453439E0,-3.896099329E-2,1.101756692E-1,-1.617571339E-2
4.534510670E0,-4.506964236E-2,1.291124821E-1,-1.006706059E-2
4.544473323E0,-5.606521666E-2,1.639318019E-1,-9.456196800E-3
4.554438170E0,-7.133685052E-2,1.889772862E-1,5.204569548E-3
4.564441823E0,-7.439117134E-2,1.932533383E-1,7.648032159E-3
4.574442477E0,-7.378031313E-2,2.085249573E-1,4.593703896E-3
4.584494170E0,-7.744550705E-2,2.292943746E-1,2.761110663E-3
4.594452170E0,-8.538675308E-2,2.470094711E-1,3.371972591E-3
4.604446823E0,-8.844107389E-2,2.683897614E-1,7.037166506E-3
4.614442823E0,-9.393885732E-2,2.787744701E-1,1.131322235E-2
4.624472362E0,-8.905194700E-2,2.861048281E-1,7.648032159E-3
4.634621708E0,-8.538675308E-2,3.068742454E-1,-2.932175994E-4
4.644446323E0,-8.966280520E-2,3.252002299E-1,5.204569548E-3
4.654483400E0,-1.012692451E-1,3.197024167E-1,1.620014384E-2
4.664451477E0,-1.055452973E-1,3.245893419E-1,2.414139360E-2
4.674466362E0,-1.006583869E-1,3.343631923E-1,2.414139360E-2
4.684453593E0,-8.049982786E-2,3.685716391E-1,5.204569548E-3
4.694456323E0,-8.294329047E-2,3.600195348E-1,-3.347544000E-3
4.704452939E0,-9.271712601E-2,3.600195348E-1,-1.434311830E-2
4.714448246E0,-9.821492434E-2,3.752911687E-1,-7.623599842E-3
4.724473054E0,-1.018801183E-1,3.783454895E-1,-2.932175994E-4
4.734452362E0,-9.882578254E-2,3.997257650E-1,3.176480532E-4
4.744497900E0,-9.393885732E-2,4.308798909E-1,1.539379358E-3
4.754449362E0,-9.943665564E-2,4.479841292E-1,-2.125812694E-3
4.764461746E0,-1.085996330E-1,4.577579796E-1,-4.569273442E-3
4.774442977E0,-1.202060729E-1,4.650883377E-1,-1.006706059E-2
4.784443631E0,-1.318125129E-1,4.663101137E-1,-7.623599842E-3
4.794440285E0,-1.470841318E-1,4.815817177E-1,-8.234465495E-3
4.804442554E0,-1.635774970E-1,5.017402768E-1,-8.234465495E-3
4.814434516E0,-1.727404743E-1,5.390030742E-1,-9.456196800E-3
4.824473592E0,-1.721296161E-1,5.903157592E-1,-1.373225264E-2
4.834458900E0,-1.794600040E-1,6.092525721E-1,-1.556484774E-2
4.844455323E0,-1.874012500E-1,6.171938181E-1,-1.189965755E-2
4.854441746E0,-1.928990334E-1,6.251350641E-1,-1.189965755E-2
4.864460362E0,-2.020620257E-1,6.196373105E-1,-1.617571339E-2
4.874449708E0,-2.063380629E-1,6.068091393E-1,-1.678657904E-2
4.884435092E0,-2.014511377E-1,5.945917964E-1,-5.180139095E-3
4.894457746E0,-2.032837421E-1,5.811527967E-1,-1.514948905E-3
4.904440208E0,-2.130575925E-1,6.153612137E-1,1.620014384E-2
4.914447746E0,-2.179445177E-1,6.391849518E-1,4.002388567E-2
4.924448054E0,-1.935098916E-1,6.385741234E-1,4.979773611E-2
4.934437515E0,-1.574688554E-1,5.548855662E-1,5.163032562E-2
4.944442823E0,-7.744550705E-2,5.487769246E-1,2.963917702E-2
4.954436823E0,-8.538675308E-2,5.823745131E-1,3.025004268E-2
4.964443669E0,-1.751839370E-1,6.220807433E-1,2.597398683E-2
4.974451323E0,-2.045054585E-1,6.795020700E-1,2.475225925E-2
4.984448246E0,-1.654101014E-1,7.027149796E-1,2.047619969E-2
4.994466169E0,-1.171517372E-1,7.155431509E-1,-1.678657904E-2
5.004497708E0,-1.147082746E-1,7.033258080E-1,-2.594955638E-2
5.014460554E0,-1.342559755E-1,6.758369207E-1,-4.305378348E-2
5.024453323E0,-1.623557657E-1,6.544566154E-1,-5.588195473E-2
5.034442362E0,-1.647992283E-1,6.776694655E-1,-7.665137202E-2
5.044437246E0,-1.531927884E-1,7.754079103E-1,-8.398175240E-2
5.054441438E0,-1.647992283E-1,8.456574082E-1,-6.748839468E-2
5.064522554E0,-1.745730788E-1,8.658159971E-1,-7.237531245E-2
5.074511477E0,-1.507493258E-1,8.682594299E-1,-7.237531245E-2
5.084787208E0,-8.294329047E-2,8.041185737E-1,-5.221676081E-2
5.094450631E0,-2.674368769E-2,7.705209851E-1,-2.900388464E-2
5.104439554E0,2.151466906E-2,7.399777174E-1,-1.373225264E-2
5.114443708E0,4.228408635E-2,6.623978615E-1,1.314581931E-2
5.124453554E0,3.067764640E-2,5.811527967E-1,3.208263963E-2
5.134438708E0,2.577848732E-3,5.261749029E-1,3.025004268E-2
5.144433169E0,-3.040887415E-2,5.109032989E-1,3.391523659E-2
5.154465708E0,-5.362175405E-2,5.182336569E-1,4.368907958E-2
5.164583515E0,-7.744550705E-2,5.414465666E-1,6.018244475E-2
5.174443361E0,-1.177626103E-1,5.628268123E-1,7.606493682E-2
5.184444708E0,-1.647992283E-1,5.756549835E-1,9.378002584E-2
5.194451054E0,-1.965642124E-1,5.732115507E-1,1.004995555E-1
5.204518785E0,-2.191662341E-1,5.316727161E-1,1.023321450E-1
5.214449631E0,-2.478768975E-1,4.828034341E-1,9.011483938E-2
5.224433400E0,-2.747550011E-1,3.972823024E-1,8.339532465E-2
5.234445669E0,-2.979678512E-1,3.673499227E-1,1.023321450E-1
5.244443861E0,-2.826962471E-1,3.923954070E-1,1.212689728E-1
5.254449592E0,-2.698680758E-1,3.905628026E-1,1.340971440E-1
5.264439900E0,-2.680354714E-1,3.954497278E-1,1.530339569E-1
5.274449592E0,-2.588724494E-1,4.082778990E-1,1.585317403E-1
5.284542284E0,-2.344378680E-1,4.186626077E-1,1.512013674E-1
5.294487477E0,-1.935098916E-1,4.180517197E-1,1.432601213E-1
5.304447784E0,-1.586905718E-1,4.113322198E-1,1.206580997E-1
5.314435361E0,-1.379211545E-1,3.991149068E-1,8.095186204E-2
5.324449323E0,-1.428080797E-1,3.954497278E-1,5.346292257E-2
5.334445861E0,-1.702970117E-1,4.040018320E-1,3.025004268E-2
5.344440400E0,-1.892338544E-1,4.174408615E-1,1.192408800E-2
5.354578169E0,-1.965642124E-1,4.339342415E-1,2.150245011E-3
5.364643438E0,-2.032837421E-1,4.211060703E-1,1.497841254E-2
5.374467438E0,-2.045054585E-1,4.046126902E-1,2.902831510E-2
5.384439592E0,-2.087815255E-1,3.813998103E-1,4.124561697E-2
5.394526169E0,-2.222205549E-1,3.594086766E-1,4.246734828E-2
5.404479861E0,-2.503203750E-1,3.416935802E-1,4.735427350E-2
5.414448015E0,-2.845287919E-1,3.386392593E-1,5.896071345E-2
5.424449554E0,-3.169046640E-1,3.264219463E-1,8.400619030E-2
5.434526438E0,-3.431718946E-1,3.019873500E-1,1.231015623E-1
5.444446400E0,-3.584434986E-1,2.793853283E-1,1.670838594E-1
5.454458131E0,-3.578326702E-1,2.512855232E-1,2.086226940E-1
5.464441361E0,-3.560000658E-1,2.219640166E-1,2.428311557E-1
5.474443861E0,-3.553891778E-1,1.901990175E-1,2.727635503E-1
5.484439400E0,-4.073127508E-1,6.191730872E-2,3.668367863E-1
5.494446015E0,-3.590543866E-1,8.818452060E-2,4.028778672E-1
5.504439054E0,-3.297328353E-1,7.474547625E-2,3.729454279E-1
5.514440938E0,-3.291220069E-1,4.786740616E-2,3.613390326E-1
5.524469284E0,-3.498914242E-1,3.503923491E-2,3.680585027E-1
5.534433900E0,-3.651630282E-1,2.663377672E-3,3.643933535E-1
5.544428400E0,-3.840998411E-1,-5.475795642E-2,3.986017704E-1
5.554442938E0,-3.217915893E-1,-3.948632628E-2,3.741672039E-1
5.564433015E0,-2.417682558E-1,-5.659054965E-2,3.057502508E-1
5.574495361E0,-2.148901671E-1,-1.195096672E-1,2.849808335E-1
5.584430361E0,-2.216096967E-1,-1.763201356E-1,2.721526623E-1
5.594432784E0,-2.411573976E-1,-2.655064762E-1,2.807047963E-1
5.604481092E0,-2.356596142E-1,-2.777237892E-1,3.020851016E-1
5.614544361E0,-2.002294213E-1,-2.710042596E-1,3.081937432E-1
5.624452630E0,-1.238712668E-1,-2.539000213E-1,2.587136626E-1
5.634534092E0,-1.165408790E-1,-3.143756986E-1,2.342790514E-1
5.645024900E0,-1.336451024E-1,-4.127250016E-1,2.361116260E-1
5.655192169E0,-1.678535640E-1,-5.037438869E-1,2.813156843E-1
5.665186515E0,-1.470841318E-1,-4.994678795E-1,3.051394224E-1
5.674448284E0,-8.783021569E-2,-4.903048873E-1,2.770395875E-1
5.684442092E0,-6.339560449E-2,-5.520022511E-1,2.464963347E-1
5.694627861E0,-9.516058862E-2,-6.790622473E-1,2.483289391E-1
5.704443053E0,-1.531927884E-1,-7.658050656E-1,3.430130482E-1
5.714441784E0,-1.299799085E-1,-6.949447393E-1,3.857735991E-1
5.724452938E0,-1.287581772E-1,-6.014823318E-1,3.955474496E-1
5.734439053E0,-1.910664290E-1,-5.807129145E-1,4.340319633E-1
5.744443938E0,-2.594833374E-1,-5.831563473E-1,4.786251187E-1
5.754452784E0,-2.436008602E-1,-5.397849679E-1,4.535796642E-1
5.764449861E0,-1.195951998E-1,-2.966606021E-1,1.964053959E-1
5.774561053E0,-6.034126878E-2,5.580865219E-2,-3.958407789E-3
5.784454438E0,5.755572021E-2,5.005185604E-1,-1.212445349E-1
5.794448284E0,1.852265596E-1,7.943447828E-1,-2.299785465E-1
5.804451823E0,2.762454748E-1,8.755898476E-1,-4.187359214E-1
5.814454399E0,4.277400374E-1,8.083946705E-1,-6.160454154E-1
5.824457361E0,6.488732696E-1,6.514022946E-1,-7.614313364E-1
5.834447092E0,8.724499941E-1,4.773056805E-1,-9.324735999E-1
5.844456707E0,1.074646354E0,3.135937750E-1,-1.090076804E0
5.854465823E0,1.260960221E0,2.121901661E-1,-1.229964852E0
5.864442938E0,1.413065672E0,1.425515264E-1,-1.359468341E0
5.874438592E0,1.571279764E0,1.456058472E-1,-1.452930689E0
5.884436476E0,1.727050424E0,1.498818994E-1,-1.532343149E0
5.894433515E0,1.871214628E0,9.307143092E-2,-1.672842264E0
5.904434169E0,1.970785618E0,1.975293905E-1,-1.752254725E0
5.914438976E0,1.887707949E0,5.664920211E-1,-1.758974195E0
5.924455515E0,1.714222193E0,9.238482118E-1,-1.672231317E0
5.934445476E0,1.543790817E0,9.006353021E-1,-1.556167006E0
5.944453553E0,1.410622239E0,5.579398870E-1,-1.418722272E0
5.954438861E0,1.328766227E0,6.985855103E-2,-1.281277537E0
5.964440438E0,1.300666451E0,-3.546928167E-1,-1.162158847E0
5.974441015E0,1.362974644E0,-6.796730757E-1,-1.094352841E0
5.984442861E0,1.472930431E0,-8.849238157E-1,-1.077859521E0
5.994437284E0,1.528519154E0,-9.331821799E-1,-1.066253066E0
6.004443053E0,1.534627795E0,-8.317785263E-1,-1.018605590E0
6.014440438E0,1.513858438E0,-6.698992252E-1,-9.636276960E-1
6.024440092E0,1.419174314E0,-4.896940291E-1,-1.014940381E0
6.034440053E0,1.263403654E0,-4.334944189E-1,-1.179263115E0
6.044439092E0,1.115574241E0,-2.771129012E-1,-1.237295270E0
6.054445207E0,9.628580213E-1,-2.642847300E-1,-1.229964852E0
6.064451553E0,8.095308542E-1,-2.117503136E-1,-1.277001500E0
6.074453822E0,6.720861793E-1,-8.332196623E-3,-1.396120310E0
6.084660015E0,5.523565412E-1,3.355849385E-1,-1.496913075E0
6.094453245E0,4.393464923E-1,6.929411292E-1,-1.502410769E0
6.104475476E0,3.422189355E-1,9.751608372E-1,-1.449876428E0
6.114457553E0,2.915171087E-1,1.248828530E0,-1.340531468E0
6.124444976E0,2.640281916E-1,1.513333201E0,-1.172543526E0
6.134452707E0,2.023307830E-1,1.703312278E0,-1.006999135E0
6.144454668E0,8.809898049E-2,1.784557343E0,-8.243504763E-1
6.154450361E0,-3.896099329E-2,1.801050663E0,-6.252083778E-1
6.164446745E0,-2.173336297E-1,1.747905374E0,-3.484864235E-1
6.174453053E0,-3.303437233E-1,1.513944030E0,-1.823310554E-1
6.184532668E0,-4.677883983E-1,1.320299745E0,-3.083647974E-2
6.194438822E0,-6.260024905E-1,1.096112132E0,1.163820475E-1
6.204457784E0,-7.921578288E-1,9.152960777E-1,2.636005878E-1
6.214438207E0,-9.650326371E-1,7.772405148E-1,4.199820757E-1
6.224458976E0,-1.147070646E0,7.393668890E-1,5.592593551E-1
6.234443515E0,-1.339493155E0,7.448646426E-1,6.997583508E-1
6.244439207E0,-1.530083060E0,7.711318731E-1,8.390356302E-1
6.254449361E0,-1.712731838E0,8.157250285E-1,9.746477008E-1
6.264436322E0,-1.853841662E0,9.091874361E-1,1.089490414E0
6.274441784E0,-1.892937064E0,1.022197485E0,1.176233292E0
6.284456438E0,-1.693794966E0,1.198737502E0,1.151798725E0
6.294434438E0,-1.115305543E0,1.487676859E0,9.838107228E-1
6.304460784E0,4.790527225E-1,1.705755711E0,5.775852799E-1
6.314428707E0,1.765534878E0,1.488898516E0,-7.542964071E-2
6.324441976E0,2.540112019E0,1.217063546E0,-9.220888615E-1
6.334575899E0,2.850431681E0,2.179176092E0,-1.652072787E0
6.344446553E0,2.550496817E0,2.248203993E0,-2.005763769E0
6.354450130E0,1.846169114E0,1.010591030E0,-2.323413610E0
6.364433053E0,1.352589965E0,-1.121792942E-1,-2.104113102E0
6.374448976E0,1.171162963E0,-9.142453671E-1,-1.364966154E0
6.384499591E0,9.457538128E-1,-1.338185787E0,-7.467705607E-1
6.394438284E0,5.767911673E-1,-1.127437353E0,-3.564276695E-1
6.404447438E0,4.179661870E-1,-2.392392606E-1,-1.658377051E-1
6.414444668E0,4.387356043E-1,1.474384367E-1,-2.012678832E-1
6.424710014E0,1.516289711E-1,-3.337767348E-2,-6.184888482E-1
6.436828168E0,-6.993063092E-1,-8.513262272E-1,-7.602096200E-1
6.454450476E0,-1.911873817E0,-1.081622362E0,-1.841636598E-1
6.464443899E0,-1.342547417E0,-2.685607970E-1,4.089865088E-1
6.474461668E0,-5.227662325E-1,4.681426585E-1,9.098959565E-1
6.484451514E0,2.285979837E-1,6.795020700E-1,1.403475165E0
6.494446130E0,6.452081203E-1,4.394320250E-1,1.922099710E0
6.504447899E0,3.257255554E-1,-3.027692437E-1,2.148119926E0
6.514454745E0,-4.121996760E-1,-1.159813166E0,1.954475641E0
6.524446899E0,-8.856201768E-1,-1.542214751E0,1.615445375E0
6.534455591E0,-9.772500396E-1,-1.260605931E0,1.379651427E0
6.544436937E0,-1.038947463E0,-5.874324441E-1,1.173789859E0
6.554459514E0,-1.261302352E0,-5.353622511E-2,9.239459038E-1
6.564430822E0,-1.478159547E0,-2.116036788E-2,6.820432544E-1
6.574437784E0,-1.464720488E0,-3.449189663E-1,4.389188886E-1
6.586349322E0,-1.450670600E0,-3.772948086E-1,3.478999734E-1
6.594459207E0,-1.487322569E0,-3.388102949E-1,2.636005878E-1
6.604464130E0,-1.525807023E0,-2.667281926E-1,2.917003632E-1
6.614435091E0,-1.536191702E0,-1.812070608E-1,4.267016053E-1
6.624453168E0,-1.574065447E0,1.915673912E-2,5.995764136E-1
6.634445360E0,-1.643704057E0,1.217821091E-1,7.840577364E-1
6.644437014E0,-1.730446935E0,1.401080638E-1,9.190589786E-1
6.654438937E0,-1.771374822E0,1.578231603E-1,9.508239627E-1
6.664432207E0,-1.765266180E0,3.748269752E-2,9.306653738E-1
6.674442014E0,-1.695016742E0,-1.292835176E-1,8.872939944E-1
6.684455668E0,-1.540467858E0,-2.703934014E-1,7.901663780E-1
6.694434360E0,-1.399357915E0,-4.915266037E-1,7.125865221E-1
6.704452360E0,-1.200215816E0,-5.990388989E-1,7.235820889E-1
6.714476476E0,-1.046888709E0,-7.413704991E-1,7.834468484E-1
6.724510476E0,-8.990592360E-1,-8.250589967E-1,8.353704214E-1
6.734448476E0,-7.750536203E-1,-8.409414887E-1,8.677462935E-1
6.744450860E0,-7.225191593E-1,-8.623217940E-1,8.708006144E-1
6.754481437E0,-7.591711283E-1,-8.476610184E-1,8.591941595E-1
6.764437822E0,-8.990592360E-1,-6.375233531E-1,8.970677853E-1
6.774442630E0,-8.074294329E-1,-9.673905969E-1,8.640810847E-1
6.786385630E0,-8.117055297E-1,-7.120489478E-1,9.868649840E-1
6.794566130E0,-8.501900434E-1,-5.648304224E-1,1.033901691E0
6.804442822E0,-9.363220334E-1,-5.190155506E-1,1.058947206E0
6.814443668E0,-1.011458516E0,-6.271386743E-1,1.047951579E0
6.824447130E0,-1.087816715E0,-4.573181570E-1,1.060168862E0
6.834448245E0,-1.026119232E0,-4.432682693E-1,1.021684408E0
6.844454860E0,-7.640579939E-1,-6.723427176E-1,1.066888452E0
6.854472553E0,-5.997352600E-1,-7.896288037E-1,9.544891715E-1
6.864460206E0,-5.331509709E-1,-7.596964240E-1,8.842396140E-1
6.874434553E0,-4.457972050E-1,-8.617109060E-1,7.675643563E-1
6.884440745E0,-3.285111189E-1,-9.282952547E-1,6.521108747E-1
6.894442206E0,-1.434189528E-1,-8.940867782E-1,5.989655852E-1
6.904443668E0,-7.805636525E-2,-5.953736901E-1,5.305486917E-1
6.914502245E0,-2.558181286E-1,-3.162083030E-1,5.946894884E-1
6.924455937E0,-4.329690933E-1,-4.620584100E-2,6.484456658E-1
6.934547783E0,-4.360234141E-1,4.298048094E-2,4.798468351E-1
6.944624091E0,-2.619268298E-1,-1.781527251E-1,1.676947325E-1
6.954468899E0,7.452517748E-4,-5.984280109E-1,-6.687752903E-2
6.964467245E0,1.113118604E-1,-9.441777468E-1,-1.151358858E-1
6.974432129E0,2.481456697E-1,-1.639342427E0,-4.614964724E-1
6.984436745E0,1.045923382E-1,-1.243501663E0,-9.159802198E-1
6.994436783E0,2.463130802E-1,-6.644014716E-1,-1.216525912E0
7.005401591E0,6.513167620E-1,-2.471805066E-1,-1.416278839E0
7.014832091E0,9.365908504E-1,4.687535465E-1,-1.616642594E0
7.024436476E0,1.265236259E0,4.883012474E-1,-1.855490923E0
7.034452822E0,1.517523646E0,2.952678204E-1,-2.141375780E0
7.044438822E0,1.843114734E0,2.213531286E-1,-2.279431343E0
7.054446822E0,2.309815884E0,6.558249891E-2,-2.262327194E0
7.064435437E0,2.714208603E0,4.114788398E-2,-2.150538921E0
7.074444822E0,2.959776402E0,-5.170363188E-2,-2.005763769E0
7.084455399E0,2.948169947E0,-1.280617863E-1,-1.805400014E0
7.094441322E0,2.544388056E0,-1.127901524E-1,-1.450487256E0
7.104444745E0,2.182144880E0,-4.121141434E-1,-1.163991451E0
7.114459475E0,1.880988479E0,-1.285040498E0,-9.953927398E-1
7.124455591E0,1.891373158E0,-1.910566568E0,-1.054035664E0
7.134438399E0,1.975061655E0,-2.267312050E0,-1.134669900E0
7.144446014E0,2.022709131E0,-2.242877483E0,-1.174376130E0
7.154444283E0,2.047754765E0,-1.877579808E0,-1.127339602E0
7.164443168E0,1.978116035E0,-1.173863053E0,-8.426764011E-1
7.174465706E0,1.940242410E0,-5.061873794E-1,-3.808622360E-1
7.184526899E0,1.753928423E0,1.394971907E-1,-5.323568583E-1
7.194447091E0,1.728272080E0,-9.935112298E-2,-1.303879619E0
7.204568245E0,1.720330834E0,2.199150622E-4,-1.680783510E0
7.215642437E0,1.545623422E0,7.717427611E-1,-1.703996301E0
7.224459129E0,1.457658768E0,1.006314993E0,-1.672842264E0
7.234445437E0,1.281729579E0,1.284258723E0,-1.597705841E0
7.244436052E0,1.056320429E0,1.547541618E0,-1.493858695E0
7.254449168E0,9.225409031E-1,1.774783492E0,-1.403450608E0
7.264517398E0,8.083091378E-1,1.979423404E0,-1.295938373E0
7.274441975E0,7.075163722E-1,2.123587370E0,-1.192091227E0
7.284452629E0,6.439863443E-1,2.151076317E0,-1.066863894E0
7.294438821E0,5.645738840E-1,2.053948879E0,-9.416365623E-1
7.304445783E0,4.411790967E-1,1.842589498E0,-7.968615294E-1
7.314490014E0,2.823541164E-1,1.551817656E0,-6.264300942E-1
7.324443321E0,7.649254054E-2,1.244552493E0,-4.529443383E-1
7.334443091E0,-1.623557657E-1,1.001428127E0,-2.751825750E-1
7.344444514E0,-4.121996760E-1,8.291640878E-1,-1.175793409E-1
7.354440168E0,-6.486045122E-1,6.904976368E-1,2.963917702E-2
7.365523437E0,-9.809151292E-1,5.561072826E-1,2.049575001E-1
7.374438206E0,-1.098201394E0,5.249531865E-1,2.513832450E-1
7.384438475E0,-1.484879017E0,4.968533218E-1,3.973800540E-1
7.394430898E0,-1.742664218E0,5.041837692E-1,5.110009909E-1
7.404435975E0,-1.989453793E0,5.054054856E-1,6.514999866E-1
7.414441052E0,-2.233799934E0,4.870795310E-1,8.365921378E-1
7.424432860E0,-2.449435234E0,4.259929955E-1,1.038177729E0
7.434441629E0,-2.571608305E0,3.471913636E-1,1.157907367E0
7.444439437E0,-2.557558537E0,2.549507022E-1,1.151187778E0
7.454517514E0,-2.252125740E0,1.236146986E-1,1.059558034E0
7.464443860E0,-1.183111668E0,3.526891470E-1,8.708006144E-1
7.474430283E0,8.498479724E-1,1.746683717E0,2.177856714E-1
7.484434668E0,2.783236504E0,3.352037430E0,-9.013194442E-1
7.494434514E0,3.340956450E0,3.504753828E0,-2.159701824E0
7.504434475E0,2.694050074E0,2.339222908E0,-2.908622503E0
7.514444398E0,1.370916009E0,1.975293905E-1,-2.867694616E0
7.524429821E0,8.535131216E-1,-7.566421032E-1,-2.090673923E0
7.534429360E0,4.698897600E-1,-1.303366542E0,-1.316096902E0
7.544429860E0,8.075632155E-3,-1.245334268E0,-7.980832458E-1
7.554431591E0,-5.985135436E-1,-7.670268416E-1,-2.666304708E-1
7.564434860E0,-1.195939779E0,-4.945809543E-1,2.782613635E-1
7.574439437E0,-1.610106468E0,-5.868215561E-1,8.860722184E-1
7.584445706E0,-1.941195488E0,-7.505334616E-1,1.431574941E0
7.594445475E0,-1.972349644E0,-8.696521521E-1,1.735175014E0
7.604443514E0,-1.824520111E0,-1.308253407E0,1.356438518E0
7.614441706E0,-1.510535359E0,-1.054744363E0,2.477180809E-1
7.624443821E0,-3.224147111E-2,3.355849385E-1,-1.368631363E0
7.634448514E0,1.156502247E0,1.504927725E-1,-2.079678535E0
7.644495475E0,1.265236259E0,-6.986098886E-1,-1.198810816E0
7.654463475E0,6.891903877E-1,-3.107105196E-1,-8.337089419E-2
7.664525744E0,2.933496833E-1,1.004018188E-1,9.960280061E-1
7.674439898E0,6.243038923E-3,-7.963483334E-1,1.839632988E0
7.684441975E0,-3.040764928E-1,-2.189732075E0,2.385135651E0
7.694445552E0,-5.728572011E-1,-3.345489025E0,2.811519623E0
7.704468821E0,-9.027244449E-1,-3.775538206E0,3.207971096E0
7.714447898E0,-1.283293486E0,-3.314335108E0,3.369239569E0
7.724438398E0,-1.689518929E0,-2.244099140E0,3.059530735E0
7.734438513E0,-1.954634428E0,-1.164089203E0,2.220201969E0
7.744432821E0,-1.854452491E0,-6.711209416E-1,1.063834071E0
7.754438783E0,-1.601554275E0,-7.151032686E-1,1.615860760E-1
7.764468475E0,-1.621712923E0,-8.433849812E-1,-2.073765397E-1
7.774529706E0,-1.845900416E0,-9.716666937E-1,-2.312002778E-1
7.784445360E0,-1.910652161E0,-8.378871679E-1,-7.176445425E-2
7.794440167E0,-1.834904909E0,-5.807129145E-1,1.499796361E-1
7.804447937E0,-1.779927015E0,-2.007547468E-1,4.370862842E-1
7.814535821E0,-1.696238399E0,1.358319968E-1,7.193060517E-1
7.824461744E0,-1.610106468E0,1.089539379E-1,9.416610003E-1
7.834506398E0,-1.497096419E0,-3.223169446E-1,1.069331884E0
7.844437860E0,-1.355375648E0,-7.700811625E-1,1.138970494E0
7.854443283E0,-1.231369972E0,-9.802187681E-1,1.228767753E0
7.864462821E0,-1.101255655E0,-9.637254477E-1,1.304515004E0
7.874442398E0,-9.717522264E-1,-9.124127626E-1,1.283745527E0
7.884445821E0,-8.538551927E-1,-9.686123729E-1,1.198224425E0
7.894450167E0,-7.848274112E-1,-1.112776518E0,1.087046981E0
7.904461552E0,-7.579493523E-1,-1.244723439E0,9.874758124E-1
7.914456552E0,-7.139670849E-1,-1.349181414E0,8.646919727E-1
7.924448667E0,-7.426777482E-1,-1.339407563E0,7.742838860E-1
7.934462629E0,-7.927687168E-1,-1.261827707E0,7.241929770E-1
7.944444244E0,-8.807333112E-1,-1.109722257E0,7.877229452E-1
7.954463129E0,-9.949651361E-1,-8.788151741E-1,9.074525237E-1
7.964459436E0,-1.094536185E0,-5.917084813E-1,1.000914931E0
7.974447475E0,-1.227093935E0,-3.357559741E-1,1.065055847E0
7.984624206E0,-1.382253766E0,-1.622702330E-1,1.099264264E0
7.995042821E0,-1.452503204E0,-1.243965924E-1,1.125531435E0
8.004442590E0,-1.339493155E0,-2.178589702E-1,1.048562407E0
8.014509667E0,-1.102477431E0,-3.699644208E-1,8.995112777E-1
8.024463975E0,-8.428596258E-1,-5.355088711E-1,8.390356302E-1
8.034448513E0,-5.398705006E-1,-7.731354833E-1,9.037873149E-1
8.044489706E0,-3.193481565E-1,-9.386799335E-1,8.317052126E-1
8.054446706E0,-4.115887880E-1,-8.946976662E-1,5.244399905E-1
8.064466782E0,-4.170866013E-1,-7.138815522E-1,4.199820757E-1
8.074434744E0,-2.784201503E-1,-4.298292398E-1,4.401406050E-1
8.084436475E0,-2.313835472E-1,-1.543289870E-1,4.633535147E-1
8.094438706E0,-2.839179635E-1,-2.665815502E-2,3.796649575E-1
8.104449359E0,-3.120177388E-1,-8.835554123E-2,2.092335671E-1
8.114438359E0,-1.996185631E-1,-3.699644208E-1,4.002388567E-2
8.124443936E0,-6.585136056E-3,-8.623217940E-1,-8.703608066E-2
8.134442475E0,1.662897319E-1,-1.338185787E0,-1.713354886E-1
8.144625513E0,3.361102939E-1,-1.591694951E0,-3.387125731E-1
8.154466475E0,5.590760708E-1,-1.632622838E0,-6.368148327E-1
8.164531090E0,8.266350627E-1,-1.575812340E0,-9.685146213E-1
8.174518744E0,1.026387930E0,-1.429204702E0,-1.295327544E0
8.184450898E0,1.220032215E0,-1.165310979E0,-1.625805616E0
8.194771398E0,1.466821790E0,-7.267097235E-1,-1.866486549E0
8.204456129E0,1.754539371E0,-6.204191446E-1,-2.098615408E0
8.214456936E0,2.029428720E0,-8.281133175E-1,-2.227507830E0
8.226485282E0,2.332417965E0,-1.143319845E0,-2.139543295E0
8.235207052E0,2.560881376E0,-1.058409572E0,-1.860377789E0
8.245723436E0,2.633574486E0,-5.397849679E-1,-1.575714588E0
8.254455205E0,2.515066624E0,-3.887546062E-2,-1.239127874E0
8.264461975E0,2.264611721E0,-4.803843796E-2,-9.446908832E-1
8.274447628E0,1.981781244E0,-4.420465231E-1,-7.162272930E-1
8.284434744E0,1.759426236E0,-1.024201155E0,-6.239866614E-1
8.294485667E0,1.667796493E0,-1.983870387E0,-8.023592830E-1
8.304436782E0,1.680013776E0,-2.195840836E0,-9.055955410E-1
8.314441821E0,1.769200087E0,-2.227605820E0,-1.093742013E0
8.324457782E0,2.068524122E0,-1.590473175E0,-1.306933880E0
8.334445821E0,2.152212620E0,-1.166532636E0,-1.393065929E0
8.344836128E0,1.992776752E0,-6.008714437E-1,-1.490193486E0
8.354432859E0,1.745987177E0,-2.612304091E-1,-1.694833398E0
8.364464205E0,1.545623422E0,-1.689897478E-1,-1.751643777E0
8.374444975E0,1.350146532E0,-1.769310087E-1,-1.679561734E0
8.384434898E0,1.215145350E0,-1.628811061E-1,-1.617253423E0
8.394777398E0,1.090528846E0,-7.002958655E-2,-1.577547193E0
8.404458898E0,1.006840348E0,9.490403533E-2,-1.564719081E0
8.414450013E0,9.714101553E-1,3.392501175E-1,-1.493858695E0
8.425539975E0,9.707992673E-1,8.285531998E-1,-1.257453799E0
8.434450475E0,9.433103204E-1,9.641653299E-1,-1.184149981E0
8.444502128E0,8.315219879E-1,1.162696481E0,-1.069307327E0
8.454436628E0,5.786237717E-1,1.173081160E0,-8.817718029E-1
8.464438821E0,4.191879630E-1,1.150479198E0,-6.832405925E-1
8.474442744E0,2.658607662E-1,1.110772967E0,-4.614964724E-1
8.484444821E0,1.033706069E-1,1.055795074E0,-2.550240159E-1
8.494431667E0,-8.844107389E-2,9.653869867E-1,-4.977330193E-2
8.504429859E0,-2.900266051E-1,8.627616763E-1,1.475361735E-1
8.514439398E0,-4.690101147E-1,7.711318731E-1,3.204110265E-1
8.524430090E0,-6.186720729E-1,7.314256430E-1,4.902315736E-1
8.534430628E0,-7.567276359E-1,7.338690758E-1,6.582195163E-1
8.544443244E0,-8.990592360E-1,7.601363063E-1,8.194879293E-1
8.554429898E0,-1.052997351E0,8.285531998E-1,9.886975884E-1
8.564521590E0,-1.246030807E0,9.024679065E-1,1.167070270E0
8.574498513E0,-1.514811516E0,9.592783451E-1,1.329560518E0
8.584447090E0,-1.775650978E0,1.064347148E0,1.454177022E0
8.594663936E0,-1.818411469E0,1.446138024E0,1.490828872E0
8.604535013E0,-1.551463366E0,1.797996402E0,1.529924273E0
8.614462705E0,-6.101199985E-1,1.769896507E0,1.605060697E0
8.624435974E0,9.414777160E-1,1.193239808E0,1.085214376E0
8.634439936E0,2.513844728E0,1.236146986E-1,-4.077403545E-1
8.644522167E0,3.160751104E0,2.214606285E0,-1.466980577E0
8.654464628E0,2.813168764E0,3.896929264E0,-2.510338545E0
8.664448667E0,2.015378952E0,2.613501310E0,-3.238489866E0
8.674430474E0,1.119850278E0,3.972823024E-1,-3.168240309E0
8.684432167E0,8.303002715E-1,-1.287484050E0,-2.133434534E0
8.694438974E0,8.412958384E-1,-2.405367613E0,-1.080302954E0
8.704427474E0,2.713585496E-1,-3.044332504E0,-5.268590450E-1
8.714451128E0,-8.123163581E-1,-1.871471167E0,4.004343748E-1
8.724432859E0,-3.975389004E-1,-1.708223522E-1,1.557413220E0
8.734433782E0,7.350053191E-1,-6.515733004E-1,1.436461926E0
8.744439320E0,7.508878112E-1,1.859229505E-1,6.618846655E-1
8.754432820E0,5.028764606E-1,1.075953603E0,-4.999809861E-1
8.764431859E0,1.155879200E-1,7.369233966E-1,-7.589878440E-1
8.774427705E0,-1.024909765E-1,5.628268123E-1,-4.114055037E-1
8.784431551E0,1.058140695E-1,8.273314834E-1,1.353188604E-1
8.794442936E0,8.137945831E-2,3.423044384E-1,8.280400634E-1
8.804430820E0,-5.368161798E-1,-8.537696600E-1,1.435850978E0
8.814428474E0,-1.178224683E0,-1.836040974E0,1.903773785E0
8.824454167E0,-1.507481098E0,-2.203782082E0,2.203097820E0
8.834442397E0,-1.583228350E0,-2.152469397E0,2.244636536E0
8.844456167E0,-1.643704057E0,-1.904457927E0,1.997236252E0
8.854461090E0,-1.748772860E0,-1.876358151E0,1.520150423E0
8.864437436E0,-1.946082354E0,-1.886132002E0,8.744658232E-1
8.874432282E0,-2.044431686E0,-1.671718240E0,6.343957782E-1
8.884461282E0,-2.060925007E0,-1.487847805E0,4.951184988E-1
8.894517974E0,-2.035879612E0,-1.426150441E0,3.680585027E-1
8.904453013E0,-1.974182129E0,-1.382779002E0,2.355007678E-1
8.914454628E0,-1.938751936E0,-1.313751221E0,1.817446202E-1
8.924446013E0,-1.949747562E0,-1.093839765E0,2.587136626E-1
8.934451320E0,-2.007779837E0,-6.607362628E-1,4.279233217E-1
8.944451859E0,-2.025494814E0,-2.777237892E-1,5.898026228E-1
8.954445628E0,-1.919204235E0,-2.758911848E-1,7.474058270E-1
8.964440974E0,-1.723116517E0,-6.088126898E-1,8.781309724E-1
8.974496782E0,-1.535580873E0,-9.453994632E-1,9.905301929E-1
8.984436820E0,-1.377366781E0,-1.147595882E0,1.102318645E0
8.994438897E0,-1.178224683E0,-1.255719066E0,1.185396314E0
9.004441320E0,-1.054829955E0,-1.366896510E0,1.170124650E0
9.014442782E0,-9.021135569E-1,-1.484182596E0,1.135305285E0
9.024450397E0,-7.518407106E-1,-1.558097363E0,1.098042488E0
9.034435936E0,-6.357763410E-1,-1.514725924E0,1.069942713E0
9.044453628E0,-5.985135436E-1,-1.332077146E0,1.046118975E0
9.054441243E0,-6.278350949E-1,-1.106057048E0,1.019240975E0
9.064442705E0,-6.870890260E-1,-9.069149494E-1,1.019851804E0
9.074543859E0,-7.567276359E-1,-6.876143217E-1,1.036956072E0
9.084453243E0,-8.764572144E-1,-4.793093204E-1,1.039399505E0
9.094454859E0,-1.019399762E0,-3.693535626E-1,1.015575767E0
9.104434436E0,-1.093314409E0,-3.693535626E-1,9.496022463E-1
9.114450013E0,-1.095147014E0,-4.512095153E-1,9.013438821E-1
9.124446012E0,-1.065214634E0,-5.617761016E-1,8.323161006E-1
9.134449205E0,-9.858021140E-1,-7.615290284E-1,6.783780456E-1
9.144440051E0,-8.330857754E-1,-9.521189928E-1,6.753237247E-1
9.154444551E0,-4.952772856E-1,-1.142098069E0,7.700078487E-1
9.164445705E0,-2.301618010E-1,-1.150650144E0,7.748947740E-1
9.175988012E0,-2.045054585E-1,-9.918252230E-1,6.117937565E-1
9.184441359E0,-2.032837421E-1,-7.334292531E-1,4.285342097E-1
9.194443128E0,-1.354777068E-1,-3.565253913E-1,3.424021602E-1
9.204505436E0,-9.516058862E-2,-6.575353444E-2,3.711128235E-1
9.214460782E0,-1.629666388E-1,1.095647961E-1,3.381261230E-1
9.225022666E0,-2.545964122E-1,1.706513166E-1,7.484320551E-2
9.234558051E0,-2.234423012E-1,6.802596152E-2,-2.171503752E-1
9.244449820E0,-9.882578254E-2,-1.897591650E-1,-4.651616812E-1
9.254438166E0,5.816658214E-2,-5.153503418E-1,-6.930144429E-1
9.264445512E0,2.157698125E-1,-6.466863751E-1,-1.216525912E0
9.274445051E0,4.106358290E-1,-5.636087060E-1,-1.580601573E0
9.284442282E0,7.930374742E-1,-5.135177374E-1,-1.847549677E0
9.294463859E0,1.202928066E0,-4.750332534E-1,-2.058908939E0
9.304477859E0,1.545623422E0,-4.603724778E-1,-2.261716366E0
9.314684512E0,1.940853238E0,-5.587217808E-1,-2.378391504E0
9.324444166E0,2.465586424E0,-7.694702744E-1,-2.315472364E0
9.334435820E0,2.915183306E0,-1.003431678E0,-2.076013327E0
9.344459435E0,3.087447405E0,-1.259384155E0,-1.806621671E0
9.354439782E0,2.904798508E0,-1.396828890E0,-1.584266782E0
9.364446858E0,2.571266174E0,-1.564816833E0,-1.416278839E0
9.374452743E0,2.298209429E0,-1.980205178E0,-1.220801950E0
9.384453205E0,2.066080570E0,-2.468897581E0,-1.050370574E0
9.394459128E0,1.876712322E0,-2.938652992E0,-1.074194312E0
9.404543551E0,1.905423045E0,-3.172614336E0,-1.080302954E0
9.414447589E0,2.032483101E0,-2.861683846E0,-1.081524611E0
9.424495974E0,2.182144880E0,-2.513490677E0,-1.069918275E0
9.434446243E0,2.208412170E0,-1.993033409E0,-1.045483589E0
9.444439589E0,2.048976421E0,-1.339407563E0,-1.057090044E0
9.454438281E0,1.758815408E0,-8.843129277E-1,-1.348472714E0
9.464442628E0,1.620759845E0,-8.012352586E-1,-1.583045006E0
9.474446243E0,1.567003727E0,-6.234734654E-1,-1.566551685E0
9.484440551E0,1.539514780E0,-3.461406827E-1,-1.485306621E0
9.494452358E0,1.433835030E0,-1.702114791E-1,-1.381459475E0
9.504565666E0,1.290892601E0,-3.704286367E-2,-1.265395045E0
9.514479320E0,1.177271724E0,1.504927725E-1,-1.163380623E0
9.524518128E0,1.070981145E0,4.174408615E-1,-1.040596724E0
9.534458051E0,9.750753045E-1,8.939157724E-1,-8.133548498E-1
9.544441820E0,9.414777160E-1,1.145592213E0,-6.575842500E-1
9.554504935E0,9.017714858E-1,1.299530268E0,-5.115874410E-1
9.564447281E0,8.559566140E-1,1.358784199E0,-3.264952302E-1
9.574457666E0,7.551638484E-1,1.270208836E0,-1.456791461E-1
9.584480474E0,6.061127186E-1,1.080840588E0,2.902831510E-2
9.594460589E0,4.014728665E-1,8.358836174E-1,2.116770297E-1
9.604438204E0,1.491855085E-1,5.713789463E-1,3.729454279E-1
9.614457935E0,-1.134865433E-1,3.221458793E-1,5.146661401E-1
9.624448897E0,-3.688282371E-1,1.529362351E-1,6.435587406E-1
9.634436935E0,-5.887396932E-1,7.230201364E-2,7.614557147E-1
9.644457897E0,-7.878817916E-1,3.076317534E-2,8.714115024E-1
9.654446474E0,-1.005349874E0,-1.077565923E-2,9.685390592E-1
9.664550397E0,-1.422570825E0,-7.674910128E-2,1.080327392E0
9.674439089E0,-1.776261806E0,-8.591207862E-2,1.145690084E0
9.684445897E0,-2.161106825E0,-3.215594217E-2,1.213496089E0
9.694463512E0,-2.560612679E0,9.368230402E-2,1.275804281E0
9.704450320E0,-2.933851480E0,2.427334338E-1,1.297795415E0
9.714444435E0,-3.126273870E0,4.669209421E-1,1.315510511E0
9.724442204E0,-3.063965797E0,6.947737336E-1,1.430353284E0
9.734492704E0,-2.362692356E0,6.324654818E-1,1.503657103E0
9.744718089E0,-1.690752953E-1,2.121901661E-1,1.222048163E0
9.754446743E0,1.829064846E0,3.105394542E-1,-6.343713403E-1
9.764442858E0,3.841254950E0,2.308068752E0,-1.921464324E0
9.774443704E0,4.134470463E0,4.064306736E0,-2.796223402E0
9.784435243E0,2.882196665E0,2.957418442E0,-3.410142899E0
9.794455127E0,1.035550952E0,4.321016371E-1,-3.409532070E0
9.804444589E0,-2.148901671E-1,-2.827475309E0,-1.599538326E0
9.814440358E0,-1.733513474E-1,-3.851896524E0,-1.780550033E-1
9.824447974E0,-4.708427191E-1,-3.777981758E0,6.466130614E-1
9.834518089E0,-1.935098916E-1,-1.559319019E0,1.286189079E0
9.844438512E0,1.491256356E0,1.121768475E0,1.652097344E0
9.854443858E0,2.889526844E0,9.049113393E-1,7.131973505E-1
9.864452166E0,1.651914001E0,-3.235386610E-1,-8.500067592E-1
9.874447320E0,-4.201531410E-2,-6.882252097E-1,-1.439491749E0
9.884549589E0,-8.086512089E-1,-7.596964240E-1,-1.115122199E0
9.894539166E0,-1.145848870E0,-5.477262139E-1,-5.036461949E-1
9.904449204E0,-7.542842031E-1,4.595905840E-1,2.293921262E-1
9.914457050E0,-8.538675308E-2,1.057627678E0,1.297795415E0
9.924470204E0,-1.611340344E-1,3.992616013E-2,2.132237434E0
9.934444473E0,-6.205046773E-1,-1.505562901E0,2.726609230E0
9.944481397E0,-1.096979618E0,-3.060214996E0,2.776700258E0
9.954522012E0,-1.191052914E0,-3.073043346E0,2.536630154E0
9.964443820E0,-1.440285921E0,-2.356498241E0,1.963638544E0
9.974466358E0,-1.720062137E0,-1.909344792E0,1.139581323E0
9.984515550E0,-1.793976903E0,-1.885521054E0,4.865663648E-1
9.994449166E0,-1.829407096E0,-1.901403546E0,1.426492482E-1
1.000442797E1,-1.925923824E0,-2.092604399E0,2.658485249E-2
1.001444128E1,-2.001060247E0,-2.311905146E0,2.536312491E-2
1.002445755E1,-2.053594589E0,-2.248986006E0,4.918687046E-2
1.003444647E1,-2.109183311E0,-1.960046649E0,8.583877981E-2
1.004444401E1,-2.128731012E0,-1.567871094E0,2.025140375E-1
1.005443532E1,-2.123233318E0,-1.145152450E0,3.851627707E-1
1.006446259E1,-2.016331911E0,-8.317785263E-1,5.818613172E-1
1.007444663E1,-1.754270673E0,-6.662340760E-1,7.614557147E-1
1.008445959E1,-1.633930206E0,-8.482719064E-1,8.127683997E-1
1.009444520E1,-1.501983285E0,-1.352235675E0,8.262074590E-1
1.010444667E1,-1.323610663E0,-1.728528738E0,8.555289507E-1
1.011445009E1,-1.110418677E0,-1.737080812E0,9.184480906E-1
1.012444094E1,-9.247155786E-1,-1.569092870E0,9.514347911E-1
1.013444217E1,-7.811622620E-1,-1.520223618E0,9.752585292E-1
1.014455567E1,-6.339437366E-1,-1.668663859E0,9.990822673E-1
1.015444547E1,-5.087163448E-1,-1.870249391E0,1.038788557E0
1.016443201E1,-4.366342425E-1,-2.024187565E0,1.077273130E0
1.017445417E1,-4.225843549E-1,-1.968598723E0,1.060779810E0
1.018446151E1,-4.696210027E-1,-1.807330370E0,1.002747536E0
1.019444282E1,-5.465899706E-1,-1.680270314E0,9.288328290E-1
1.020443874E1,-6.088982224E-1,-1.525110602E0,8.390356302E-1
1.021444159E1,-7.817730904E-1,-1.205628037E0,7.810034156E-1
1.022446390E1,-9.662544131E-1,-9.759427309E-1,6.967040300E-1
1.023444551E1,-1.100033998E0,-8.409414887E-1,6.557760239E-1
1.024443517E1,-1.134853244E0,-8.806477785E-1,6.673824787E-1
1.025445047E1,-1.089649200E0,-1.070016026E0,6.991474628E-1
1.026445694E1,-1.020621538E0,-1.243501663E0,6.912062168E-1
1.027443597E1,-9.381546378E-1,-1.272212386E0,6.514999866E-1
1.028444690E1,-7.829948664E-1,-1.254497290E0,6.582195163E-1
1.029444517E1,-5.600290298E-1,-1.262438536E0,7.125865221E-1
1.030445516E1,-2.619268298E-1,-1.316194654E0,8.310943842E-1
1.031446451E1,-1.330465078E-2,-1.317416430E0,8.659136891E-1
1.032444301E1,-4.445877671E-2,-1.167754412E0,6.679933667E-1
1.033444082E1,-2.271074802E-1,-8.775933981E-1,4.010452628E-1
1.034444705E1,-2.631485462E-1,-4.499877691E-1,1.609752029E-1
1.035444097E1,-2.564290166E-1,-2.484022379E-1,1.328754127E-1
1.036444070E1,-2.906374931E-1,-1.219531298E-1,3.025004268E-2
1.037444994E1,-2.973569632E-1,-5.292535946E-2,-1.212445349E-1
1.038444567E1,-1.189843416E-1,-1.121792942E-1,-2.672413290E-1
1.039444170E1,1.907243431E-1,-3.039909899E-1,-4.040751457E-1
1.040444063E1,4.350704551E-1,-5.416175723E-1,-6.276518106E-1
1.041443874E1,4.191879630E-1,-6.674557924E-1,-1.083357215E0
1.042447009E1,4.595050216E-1,-8.348328471E-1,-1.545782208E0
1.043447117E1,7.594398856E-1,-1.161034942E0,-1.861599565E0
1.044459547E1,1.095415711E0,-1.382779002E0,-2.036917925E0
1.045456063E1,1.337929249E0,-1.337574959E0,-2.163977861E0
1.046445394E1,1.691009283E0,-1.289316654E0,-2.268435717E0
1.047444955E1,2.745973587E0,-1.454250216E0,-2.135267258E0
1.048445428E1,3.196181297E0,-1.936833739E0,-1.838386655E0
1.049451609E1,3.205344200E0,-2.192175627E0,-1.532954097E0
1.050450897E1,2.938396215E0,-2.227605820E0,-1.292883992E0
1.051445966E1,2.603641987E0,-2.278918505E0,-1.099239707E0
1.052445324E1,2.365404606E0,-2.509825468E0,-8.744413853E-1
1.053444916E1,2.225516319E0,-2.741954327E0,-7.143946886E-1
1.054445982E1,2.135108471E0,-2.936209440E0,-6.557516456E-1
1.055446294E1,2.108841181E0,-3.087703943E0,-7.046208382E-1
1.056444859E1,2.124723673E0,-3.180555582E0,-8.573371768E-1
1.057445413E1,2.147325754E0,-2.982635260E0,-1.024714231E0
1.058444947E1,2.231625080E0,-2.413308859E0,-1.149941564E0
1.059445051E1,2.250561953E0,-1.778008819E0,-1.202476025E0
1.060448105E1,2.080741405E0,-1.327801108E0,-1.255010366E0
1.061446178E1,1.854721189E0,-1.001599073E0,-1.273947239E0
1.062527590E1,1.775308728E0,-7.138815522E-1,-1.247069120E0
1.063444474E1,1.691009283E0,-4.389922023E-1,-1.182317376E0
1.064445074E1,1.554786444E0,-2.728368640E-1,-1.094963670E0
1.065445397E1,1.447884917E0,-1.024054438E-1,-1.001501322E0
1.066443947E1,1.395961404E0,2.073032409E-1,-9.245323539E-1
1.067446901E1,1.353200912E0,5.603833795E-1,-8.322917223E-1
1.068445490E1,1.297001243E0,8.053403497E-1,-7.180598974E-1
1.069446593E1,1.212701797E0,9.440067410E-1,-5.909999013E-1
1.070444755E1,1.093583107E0,9.568349123E-1,-4.566095471E-1
1.071444482E1,9.518624544E-1,9.055222273E-1,-3.142779469E-1
1.072445309E1,8.339654803E-1,8.823093772E-1,-1.511769295E-1
1.073449359E1,6.983533502E-1,8.615399599E-1,1.803274080E-2
1.074451636E1,4.143010378E-1,7.308147550E-1,2.397768348E-1
1.075445424E1,1.882808805E-1,5.945917964E-1,3.564521074E-1
1.076450270E1,-5.606521666E-2,4.534819126E-1,4.541905522E-1
1.077449493E1,-3.254567981E-1,2.922134995E-1,5.452094078E-1
1.078445747E1,-6.180612445E-1,1.376646012E-1,6.301196814E-1
1.079446578E1,-9.271590710E-1,4.970000312E-2,7.028126717E-1
1.080446182E1,-1.228926539E0,4.603480920E-2,7.791708112E-1
1.081445366E1,-1.535580873E0,1.046778709E-1,8.799635768E-1
1.082446693E1,-1.867280722E0,1.700404584E-1,1.000304103E0
1.083444932E1,-2.227080345E0,1.865338236E-1,1.126142383E0
1.084446124E1,-2.591156006E0,1.614883393E-1,1.249537110E0
1.085446090E1,-2.929575443E0,1.798143089E-1,1.350329876E0
1.086446013E1,-3.183084488E0,2.714440823E-1,1.438905358E0
1.087446843E1,-3.253944874E0,4.748621881E-1,1.615445375E0
1.088444670E1,-1.991897106E0,9.856922925E-2,1.803591847E0
1.089445543E1,1.827830970E-1,-6.729535460E-1,1.005190969E0
1.090444228E1,2.318978786E0,-1.140118837E-1,-3.820840120E-1
1.091444309E1,4.119809628E0,2.868843079E0,-1.663068414E0
1.092446378E1,3.882793903E0,3.740547657E0,-3.001474142E0
1.093444255E1,2.295155048E0,2.443680763E0,-3.723516941E0
1.094443782E1,5.975605845E-1,4.559253752E-1,-3.411364794E0
1.095445605E1,-7.133685052E-2,-1.689433336E0,-2.060130835E0
1.096443709E1,-1.024909765E-1,-3.501259804E0,-7.180598974E-1
1.097445159E1,-4.225843549E-1,-4.195813179E0,8.217359334E-2
1.098443532E1,-7.891035080E-1,-2.953924417E0,9.434935451E-1
1.099446840E1,-2.826962471E-1,-6.894469261E-1,1.768161654E0
1.100445582E1,9.665232301E-1,-3.467515409E-1,1.603228092E0
1.101443990E1,1.064872503E0,7.638015151E-1,-6.032172441E-1
1.102444305E1,7.527203560E-1,1.116270781E0,-1.019216418E0
1.103448270E1,3.397754431E-1,4.736404717E-1,-7.644856572E-1
1.104446447E1,-1.208291948E-2,2.799961865E-1,-2.770151794E-1
1.105444563E1,2.395935655E-1,2.708331943E-1,5.305486917E-1
1.106454213E1,1.632353961E-1,-5.520022511E-1,1.332614779E0
1.107448163E1,-4.946664572E-1,-1.939888120E0,1.856126308E0
1.108469540E1,-1.236256957E0,-2.865959883E0,2.327714205E0
1.109445066E1,-1.592391372E0,-2.907498837E0,2.583666801E0
1.110445220E1,-1.558182955E0,-2.259370804E0,2.410791874E0
1.111443828E1,-1.582006693E0,-1.565427661E0,1.813976645E0
1.112444240E1,-1.790922523E0,-1.498843431E0,9.129503369E-1
1.113443259E1,-1.950969219E0,-1.594138384E0,2.251160592E-1
1.114449278E1,-2.055427313E0,-1.526332259E0,-3.938859329E-2
1.115444993E1,-2.008390665E0,-1.668053031E0,3.330437094E-2
1.116443482E1,-1.995562315E0,-1.762126327E0,1.658621281E-1
1.117444105E1,-1.982734203E0,-1.767624140E0,2.678766251E-1
1.118444028E1,-1.986399412E0,-1.492734671E0,3.411804438E-1
1.119444170E1,-1.978458166E0,-9.515081048E-1,4.609100223E-1
1.120444520E1,-1.935086727E0,-2.850541472E-1,5.898026228E-1
1.121443528E1,-1.794587731E0,1.333885491E-1,7.241929770E-1
1.122444116E1,-1.665084362E0,1.431623846E-1,8.506420255E-1
1.123727843E1,-1.497707248E0,-6.955555677E-1,1.037566900E0
1.125038891E1,-1.200215816E0,-1.344294429E0,1.118811965E0
1.126444532E1,-1.111640453E0,-1.304588199E0,1.132861853E0
1.127444551E1,-9.497610927E-1,-1.095672369E0,1.178676724E0
1.128443693E1,-8.043751121E-1,-9.258517623E-1,1.214106917E0
1.129443013E1,-7.396234274E-1,-1.022979379E0,1.211663485E0
1.130443478E1,-6.895324588E-1,-1.112776518E0,1.229378581E0
1.131443205E1,-6.718173623E-1,-1.073070288E0,1.261143565E0
1.132443943E1,-6.748716831E-1,-9.136344790E-1,1.247093678E0
1.133445766E1,-7.414560318E-1,-6.882252097E-1,1.244039297E0
1.134443620E1,-8.917288780E-1,-5.165720582E-1,1.259310961E0
1.135444517E1,-1.051164746E0,-4.200553894E-1,1.240374088E0
1.136444132E1,-1.172116041E0,-3.528602123E-1,1.148744345E0
1.137443736E1,-1.211211443E0,-3.620231748E-1,1.047951579E0
1.138443451E1,-1.162342191E0,-4.835853577E-1,9.508239627E-1
1.139442759E1,-1.054829955E0,-6.607362628E-1,8.457551599E-1
1.140442990E1,-8.422487974E-1,-8.055112958E-1,7.547361851E-1
1.141443028E1,-5.539203882E-1,-9.643362761E-1,6.973148584E-1
1.142442597E1,-2.912483215E-1,-1.040694475E0,5.317704082E-1
1.143443105E1,-2.668137550E-1,-1.065739870E0,2.733744383E-1
1.144442824E1,-1.684644222E-1,-9.753318429E-1,7.850839943E-2
1.145443405E1,-1.696984470E-2,-7.047185302E-1,-3.347544000E-3
1.146443797E1,8.626638353E-2,-3.247604072E-1,-3.144734353E-2
1.147442840E1,8.321206272E-2,-1.341704428E-1,-7.909483463E-2
1.148444109E1,1.155879200E-1,-5.170363188E-2,-3.374908566E-1
1.149442628E1,2.542543411E-1,-9.202073514E-2,-6.484212279E-1
1.150443316E1,5.077633858E-1,-2.233567536E-1,-8.860478401E-1
1.151442936E1,7.472226024E-1,-3.803491294E-1,-1.202476025E0
1.152450655E1,8.755043149E-1,-3.968425095E-1,-1.595262289E0
1.153445397E1,1.022111893E0,-4.481551945E-1,-1.994157314E0
1.154444586E1,1.410622239E0,-7.548094988E-1,-2.269657612E0
1.155444363E1,2.316535234E0,-1.153704524E0,-2.492012501E0
1.156444628E1,2.825996876E0,-1.164089203E0,-2.471243143E0
1.157452901E1,3.154031515E0,-1.200130224E0,-2.207960129E0
1.158446574E1,3.303693533E0,-1.315583825E0,-1.848160505E0
1.159443420E1,3.154642582E0,-1.332077146E0,-1.531732321E0
1.160446124E1,2.885250807E0,-1.506784678E0,-1.223856211E0
1.161443713E1,2.572487831E0,-1.988757253E0,-9.453017712E-1
1.162444097E1,2.172981977E0,-2.526318789E0,-8.176309466E-1
1.163445566E1,1.798521638E0,-2.929489851E0,-8.280156255E-1
1.164445720E1,1.667796493E0,-3.070599794E0,-8.329025507E-1
1.165444001E1,1.782639146E0,-2.952702761E0,-9.153693914E-1
1.166443686E1,2.066691399E0,-2.715076208E0,-1.032655478E0
1.167445432E1,2.270720482E0,-2.225162268E0,-1.068085670E0
1.168447916E1,2.210855722E0,-1.355900884E0,-1.150552392E0
1.169445836E1,1.823567152E0,-7.511442900E-1,-1.346029282E0
1.170445847E1,1.609153390E0,-6.582927704E-1,-1.374740005E0
1.171444159E1,1.461934924E0,-3.919555843E-1,-1.358857512E0
1.172445363E1,1.304331660E0,-8.957727253E-2,-1.354581475E0
1.173444882E1,1.140008926E0,1.187277734E-1,-1.377183437E0
1.174444359E1,1.021501064E0,3.117611706E-1,-1.415667892E0
1.175445766E1,9.445320964E-1,5.261749029E-1,-1.464537144E0
1.176454813E1,8.235807419E-1,7.564710975E-1,-1.371074796E0
1.177444966E1,7.472226024E-1,9.281242490E-1,-1.275779843E0
1.178444651E1,6.995751262E-1,1.193850636E0,-1.200643420E0
1.179451259E1,6.775839329E-1,1.406431675E0,-1.079081178E0
1.180446774E1,6.128322482E-1,1.463853121E0,-9.465234876E-1
1.181445678E1,4.967678189E-1,1.414983869E0,-8.035810590E-1
1.182446474E1,3.043452799E-1,1.259213209E0,-4.920397401E-1
1.183445213E1,1.467420459E-1,1.077175379E0,-2.690739036E-1
1.184446251E1,-5.056743324E-2,8.725355268E-1,-5.893628299E-2
1.185449070E1,-2.808636427E-1,6.849998832E-1,1.285993457E-1
1.186445570E1,-5.276531577E-1,5.164010525E-1,2.843700051E-1
1.187444751E1,-7.500081062E-1,4.168300033E-1,4.279233217E-1
1.188447566E1,-9.198286533E-1,3.936171234E-1,5.684223175E-1
1.189447809E1,-1.074377656E0,4.308798909E-1,6.985366344E-1
1.190475543E1,-1.272297978E0,5.005185604E-1,8.506420255E-1
1.191444705E1,-1.528250456E0,5.054054856E-1,1.002747536E0
1.192445782E1,-1.866669893E0,5.054054856E-1,1.141413927E0
1.193446436E1,-2.279003859E0,4.815817177E-1,1.280080438E0
1.194443378E1,-2.682785749E0,4.430972040E-1,1.412638187E0
1.195445216E1,-2.938738346E0,4.455406666E-1,1.606893301E0
1.196443524E1,-2.840999842E0,8.688703179E-1,1.847574234E0
1.197444959E1,-1.927756429E0,1.078397036E0,1.957529902E0
1.198444913E1,1.265834868E-1,1.000817180E0,1.556191444E0
1.199449170E1,2.157099485E0,7.143214345E-1,-2.165395170E-1
1.200458101E1,4.034899235E0,3.021559238E0,-1.500578165E0
1.201443505E1,3.989695311E0,4.813227177E0,-2.603189945E0
1.202443820E1,2.639072180E0,3.080813169E0,-3.412586451E0
1.203445820E1,1.066705108E0,1.963076591E-1,-3.212222576E0
1.204482093E1,4.307943583E-1,-2.263036013E0,-1.844495296E0
1.205445124E1,3.043452799E-1,-3.518363953E0,-4.199576378E-1
1.206443932E1,-2.490986437E-1,-3.694293261E0,3.020851016E-1
1.207444005E1,-1.152568340E0,-2.022354841E0,1.039399505E0
1.208448040E1,-1.057884216E0,6.497162580E-2,1.793817997E0
1.209444951E1,7.576072812E-1,-5.208481550E-1,1.404085994E0
1.210445170E1,7.478334308E-1,-6.086660922E-2,-1.053620428E-1
1.211445447E1,3.745948076E-1,4.693644345E-1,-1.122452617E0
1.212444713E1,1.485746503E-1,1.549154893E-2,-1.245236516E0
1.213444555E1,-3.272894025E-1,-7.186218351E-2,-9.721798301E-1
1.214444097E1,-2.240531594E-1,3.368066549E-1,-4.114055037E-1
1.215443786E1,1.650680006E-1,5.347270370E-1,5.916351676E-1
1.216444005E1,1.601688191E-2,-9.324246645E-2,1.546417594E0
1.217444324E1,-5.374270082E-1,-1.372394323E0,2.080924749E0
1.218444974E1,-1.233202577E0,-2.485390902E0,2.402239799E0
1.219444013E1,-1.642482281E0,-3.004626274E0,2.493258715E0
1.220444616E1,-1.666916966E0,-2.866570711E0,2.387578964E0
1.221445036E1,-1.718229651E0,-2.307629108E0,1.995403528E0
1.222444966E1,-2.005336285E0,-1.956992269E0,9.153937697E-1
1.223445566E1,-2.101242065E0,-1.556264758E0,3.662259579E-1
1.224445555E1,-2.046875000E0,-1.327801108E0,3.635869920E-2
1.225444282E1,-2.016331911E0,-1.236782193E0,-8.398175240E-2
1.226445266E1,-2.009001493E0,-1.296036124E0,-2.167350054E-2
1.227444570E1,-1.946693182E0,-1.404159307E0,1.841880828E-1
1.228444636E1,-1.870945930E0,-1.328411937E0,3.778323531E-1
1.229446132E1,-1.801307321E0,-9.728884101E-1,5.329921246E-1
1.230550293E1,-1.704790592E0,-4.933592081E-1,6.563869119E-1
1.231443936E1,-1.539856911E0,-3.210952282E-1,7.480167150E-1
1.232445932E1,-1.425014257E0,-5.623869300E-1,8.451442719E-1
1.233444490E1,-1.304673791E0,-1.172641277E0,9.502130747E-1
1.234444201E1,-1.177613854E0,-1.586807966E0,1.038177729E0
1.235444693E1,-1.037114859E0,-1.621627331E0,1.100486040E0
1.236442909E1,-8.019316792E-1,-1.490291238E0,1.125531435E0
1.237444763E1,-6.748716831E-1,-1.467078328E0,1.123088002E0
1.238445905E1,-6.070656776E-1,-1.540382266E0,1.113314152E0
1.239445016E1,-6.064547896E-1,-1.560540795E0,1.087657809E0
1.240446982E1,-6.143960357E-1,-1.500675917E0,1.028403878E0
1.241444366E1,-6.143960357E-1,-1.352846622E0,9.972496629E-1
1.242444347E1,-6.162286401E-1,-1.131102443E0,9.966388345E-1
1.243444670E1,-6.913650632E-1,-8.843129277E-1,1.007023573E0
1.244443490E1,-8.721811771E-1,-6.332473159E-1,1.011299729E0
1.245444136E1,-1.079875469E0,-3.662992418E-1,9.966388345E-1
1.246444220E1,-1.093925357E0,-2.581760883E-1,8.952352405E-1
1.247443928E1,-1.020010591E0,-3.992859721E-1,8.091031909E-1
1.248448809E1,-9.344894290E-1,-6.448537707E-1,7.412971854E-1
1.249446047E1,-8.538551927E-1,-8.452175856E-1,6.582195163E-1
1.250443966E1,-7.212974429E-1,-8.684304357E-1,7.040343881E-1
1.251444443E1,-4.488515258E-1,-8.220046759E-1,8.530855179E-1
1.252449816E1,-2.124467343E-1,-7.725245953E-1,9.050090909E-1
1.253445612E1,-1.953424960E-1,-7.328183651E-1,7.339667678E-1
1.254443962E1,-2.588724494E-1,-6.082018614E-1,5.048923492E-1
1.255489724E1,-1.867903918E-1,-4.396030605E-1,3.588955402E-1
1.256445032E1,-8.660848439E-2,-2.606195509E-1,2.807047963E-1
1.257445597E1,-7.072597742E-2,-7.919256389E-2,2.562701702E-1
1.258444370E1,-1.189843416E-1,1.761491150E-1,1.805228889E-1
1.259443590E1,-1.073779017E-1,3.594086766E-1,1.192408800E-2
1.260446270E1,1.540601626E-2,3.025982082E-1,-1.640051007E-1
1.261443666E1,2.169915438E-1,4.786740616E-2,-3.228300810E-1
1.262443905E1,4.662245512E-1,-1.989221573E-1,-5.702304840E-1
1.263445359E1,6.366559863E-1,-1.757092774E-1,-1.225688815E0
1.264446036E1,7.747115493E-1,-1.769310087E-1,-1.638633728E0
1.265448470E1,1.107632995E0,-3.717970252E-1,-1.855490923E0
1.266466616E1,1.552342892E0,-5.104634166E-1,-1.972777009E0
1.267444659E1,2.010491848E0,-4.750332534E-1,-2.108999968E0
1.268445040E1,2.470473289E0,-4.603724778E-1,-2.197575569E0
1.269444116E1,2.889526844E0,-5.825455189E-1,-2.074791431E0
1.270443863E1,3.154031515E0,-7.096054554E-1,-1.793182611E0
1.271445332E1,3.078284264E0,-6.308038831E-1,-1.542117000E0
1.272444120E1,2.760634422E0,-5.538348556E-1,-1.352137923E0
1.273444324E1,2.464975595E0,-8.849238157E-1,-1.126728654E0
1.274446293E1,2.197416544E0,-1.491513014E0,-9.031520486E-1
1.275456801E1,1.904812217E0,-2.102378368E0,-8.347351551E-1
1.276445832E1,1.629922867E0,-2.803040743E0,-9.361388087E-1
1.277447801E1,1.664742112E0,-2.892227173E0,-1.096185446E0
1.278446559E1,1.849834323E0,-2.619170427E0,-1.194534779E0
1.279444916E1,2.015989780E0,-1.939888120E0,-1.195145607E0
1.280477824E1,1.990333319E0,-1.075513721E0,-1.220191121E0
1.281458228E1,1.844947338E0,-4.408248067E-1,-1.432161331E0
1.282580643E1,1.728883028E0,-2.679499388E-1,-1.568384290E0
1.283453366E1,1.640307546E0,-9.079900384E-2,-1.551280022E0
1.284443624E1,1.563338518E0,2.396790832E-1,-1.509130359E0
1.285444647E1,1.430169821E0,4.375994205E-1,-1.486528277E0
1.286444593E1,1.280507922E0,6.428501606E-1,-1.437048197E0
1.287443470E1,1.204149723E0,8.578747511E-1,-1.402839780E0
1.288444505E1,1.143063188E0,1.135207534E0,-1.331368566E0
1.289443770E1,1.066705108E0,1.447359681E0,-1.236684442E0
1.290443951E1,9.714101553E-1,2.010577440E0,-1.046094418E0
1.291445086E1,8.858889937E-1,2.179786921E0,-1.005166531E0
1.292443559E1,8.083091378E-1,2.216439009E0,-9.055955410E-1
1.293448059E1,7.460008860E-1,2.199945450E0,-7.516574860E-1
1.294445559E1,6.763622165E-1,2.060057402E0,-5.836695433E-1
1.295446493E1,5.596869588E-1,1.831593990E0,-3.973556161E-1
1.296447082E1,3.770382404E-1,1.573808789E0,-2.018787414E-1
1.297452647E1,1.339138746E-1,1.367947221E0,-9.040832520E-4
1.298444036E1,-1.788491309E-1,1.190796256E0,1.762468368E-1
1.299447570E1,-5.209336281E-1,1.030749559E0,3.436239362E-1
1.300443889E1,-8.685159683E-1,8.994135857E-1,4.932858944E-1
1.301446739E1,-1.196550727E0,7.894578576E-1,6.466130614E-1
1.302450424E1,-1.491598606E0,7.198191881E-1,8.084923625E-1
1.303445443E1,-1.920426011E0,6.966063380E-1,1.054060221E0
1.304443801E1,-2.235021591E0,6.935520172E-1,1.193337560E0
1.305444932E1,-2.552060604E0,7.375342846E-1,1.296573758E0
1.306444616E1,-2.813510895E0,8.609290719E-1,1.343610406E0
1.307443693E1,-2.828782558E0,1.029527903E0,1.435850978E0
1.308444082E1,-2.346809864E0,1.196294069E0,1.674699306E0
1.309443736E1,-6.785368919E-1,3.807889521E-1,1.810922265E0
1.310443536E1,9.995099306E-1,-6.106452942E-1,5.873591304E-1
1.311444224E1,2.766132116E0,4.400428832E-1,-9.740124345E-1
1.312443970E1,3.952432394E0,4.361797810E0,-2.022868156E0
1.313444066E1,3.588356733E0,4.791847229E0,-2.993532896E0
1.314448889E1,1.962844372E0,3.074093819E0,-3.569578886E0
1.315446455E1,5.651847124E-1,1.301973820E0,-3.250096321E0
1.316445282E1,2.786889374E-1,-5.752151012E-1,-1.821893334E0
1.317444070E1,1.363573372E-1,-2.997295856E0,-4.633290768E-1
1.318445432E1,-8.746246099E-1,-3.076097488E0,1.237124205E-1
1.319443978E1,-1.782370448E0,-1.323525071E0,7.816143036E-1
1.320444601E1,-1.700514555E0,-1.164553463E-1,1.372931957E0
1.321445939E1,-6.638761163E-1,-4.756441116E-1,1.616667151E0
1.322447547E1,7.452517748E-4,-8.476610184E-1,1.123088002E0
1.323445562E1,-1.159300059E-1,-2.148046494E-1,-9.986425191E-2
1.324444270E1,-1.837360561E-1,4.565362334E-1,-8.903238773E-1
1.325444293E1,1.943895370E-1,2.060815096E-1,-1.038153172E0
1.326444805E1,1.693440676E-1,-6.758612394E-2,-8.255721927E-1
1.327443720E1,3.861889616E-2,1.944750696E-1,-2.764043212E-1
1.328443497E1,-7.500204444E-2,5.964244008E-1,4.969511032E-1
1.329444151E1,-3.865433335E-1,4.559253752E-1,1.338723421E0
1.330446997E1,-1.087205768E0,-9.582276344E-1,2.201875925E0
1.331444809E1,-1.481824756E0,-1.828710556E0,2.480430603E0
1.332442778E1,-1.675469041E0,-2.350389719E0,2.592829704E0
1.333444162E1,-1.674858212E0,-2.280750990E0,2.408959389E0
1.334444286E1,-1.700514555E0,-1.590473175E0,1.999679565E0
1.335444482E1,-1.773207426E0,-9.851056933E-1,1.353384256E0
1.336444374E1,-1.841013551E0,-6.680666208E-1,7.083104253E-1
1.337448416E1,-1.857506871E0,-5.715499520E-1,2.324464470E-1
1.338447478E1,-1.905765176E0,-5.568891764E-1,-5.832541734E-2
1.339446486E1,-1.991286278E0,-5.623869300E-1,-1.536203921E-1
1.340444362E1,-2.010833979E0,-6.674557924E-1,-1.291857809E-1
1.341454832E1,-1.952801943E0,-7.432030439E-1,-7.623599842E-3
1.342454066E1,-1.914317369E0,-4.829744995E-1,2.025140375E-1
1.343446262E1,-1.883774042E0,-7.552736998E-2,4.364754558E-1
1.344446374E1,-1.806194186E0,2.598376274E-1,7.394645810E-1
1.345443597E1,-1.607663035E0,-4.667006433E-3,8.750766516E-1
1.346446113E1,-1.368203759E0,-5.526131392E-1,9.673172832E-1
1.347445263E1,-1.200215816E0,-8.788151741E-1,1.086436152E0
1.348444993E1,-1.111640453E0,-8.446066976E-1,1.214106917E0
1.349443859E1,-1.102477431E0,-6.417994499E-1,1.314899683E0
1.350444543E1,-9.381546378E-1,-7.761898041E-1,1.171957254E0
1.351444789E1,-8.575204015E-1,-8.427740932E-1,1.190283179E0
1.352448597E1,-6.589891911E-1,-1.131102443E0,1.049784184E0
1.353446462E1,-5.691919923E-1,-1.195854187E0,1.040621161E0
1.354444724E1,-5.698028803E-1,-1.074292064E0,1.038177729E0
1.355443936E1,-6.278350949E-1,-9.289060831E-1,9.996932149E-1
1.356444555E1,-6.980845928E-1,-8.085656762E-1,9.624304175E-1
1.357444343E1,-8.721811771E-1,-6.063692570E-1,9.043982029E-1
1.358455259E1,-1.017567158E0,-5.013004541E-1,8.628593683E-1
1.359445651E1,-1.129966378E0,-4.292183518E-1,8.335378170E-1
1.360450739E1,-1.175170422E0,-3.736296296E-1,8.249857426E-1
1.361445555E1,-1.166007400E0,-3.491950035E-1,7.761164904E-1
1.362444955E1,-1.107364297E0,-4.072272182E-1,7.168625593E-1
1.363444609E1,-9.833586812E-1,-5.831563473E-1,7.144191265E-1
1.364445066E1,-7.683340907E-1,-7.749680877E-1,7.321342230E-1
1.365443866E1,-5.496442914E-1,-8.665978312E-1,6.863192916E-1
1.366447578E1,-3.926519752E-1,-8.446066976E-1,5.714766383E-1
1.367445597E1,-2.723115087E-1,-7.389270067E-1,4.523579478E-1
1.368445663E1,-1.446406841E-1,-4.780875742E-1,3.931040168E-1
1.369446870E1,-4.018272460E-2,-1.378356367E-1,3.906605244E-1
1.370448659E1,-7.072597742E-2,1.187277734E-1,3.350718021E-1
1.371445889E1,-1.776273996E-1,2.494529337E-1,5.651725084E-2
1.372444320E1,-5.545435101E-2,7.291288674E-2,-2.214264423E-1
1.373448566E1,1.418551207E-1,-2.160263807E-1,-3.924686909E-1
1.374447678E1,3.275581598E-1,-5.061873794E-1,-5.598458052E-1
1.375443978E1,5.346415043E-1,-6.534059048E-1,-8.854369521E-1
1.376445236E1,6.763622165E-1,-5.794911981E-1,-1.267227650E0
1.377444724E1,7.600507736E-1,-5.196263790E-1,-1.634357691E0
1.378446239E1,1.077089787E0,-5.379523635E-1,-1.848160505E0
1.379447066E1,1.709946156E0,-5.581108928E-1,-1.963003159E0
1.380445259E1,2.293322563E0,-5.013004541E-1,-2.085787058E0
1.381445536E1,2.598755121E0,-3.546928167E-1,-2.144430161E0
1.382450313E1,2.763688803E0,-1.439442784E-1,-1.995379090E0
1.383444778E1,2.920681000E0,2.343279496E-2,-1.688113809E0
1.384444797E1,2.763077736E0,1.443841159E-1,-1.329535961E0
1.385445051E1,2.433210611E0,-2.881084979E-1,-1.165213227E0
1.386447647E1,2.133886576E0,-9.796079397E-1,-9.947818518E-1
1.387445128E1,1.930468559E0,-1.625903368E0,-8.927673697E-1
1.388445805E1,1.851666927E0,-2.102378368E0,-8.787174821E-1
1.389445747E1,1.879766703E0,-2.270366192E0,-9.446908832E-1
1.390450362E1,1.881599307E0,-2.144528151E0,-1.082135558E0
1.391444662E1,1.885264516E0,-1.897127509E0,-1.207362890E0
1.392444205E1,1.953070521E0,-1.527554035E0,-1.226299763E0
1.393445097E1,1.996441960E0,-1.095672369E0,-1.196367264E0
1.394495639E1,1.816847563E0,-5.074090958E-1,-1.357024908E0
1.395460343E1,1.617094636E0,-8.591207862E-2,-1.696055055E0
1.396444820E1,1.569447160E0,2.366247624E-1,-1.810897708E0
1.397444097E1,1.535849571E0,6.642304659E-1,-1.795015216E0
1.398443751E1,1.388020158E0,1.172470331E0,-1.701552868E0
1.399444070E1,1.295168638E0,1.443694472E0,-1.638633728E0
1.400443739E1,1.251186371E0,1.700868726E0,-1.565940738E0
1.401443520E1,1.235914707E0,1.939106226E0,-1.468813181E0
1.402453316E1,1.222475648E0,2.171845675E0,-1.374129057E0
1.403446174E1,1.157113075E0,2.375263929E0,-1.306933880E0
1.404446043E1,1.044103026E0,2.494993448E0,-1.229964852E0
1.405446143E1,9.066584110E-1,2.477889299E0,-1.111457109E0
1.406446247E1,7.484443188E-1,2.320286036E0,-9.501886964E-1
1.407449547E1,5.657956004E-1,2.067998648E0,-7.705942988E-1
1.408447474E1,3.483275771E-1,1.777226925E0,-5.683979392E-1
1.409447551E1,7.771427184E-2,1.490120292E0,-3.655906320E-1
1.410445805E1,-2.466551811E-1,1.259824038E0,-1.902723014E-1
1.411448816E1,-7.799405456E-1,1.033193111E0,2.658485249E-2
1.412443897E1,-1.128744602E0,9.464501739E-1,1.505904943E-1
1.413445197E1,-1.475105286E0,8.951375484E-1,2.764287591E-1
1.414446136E1,-1.819022417E0,8.609290719E-1,4.297559261E-1
1.415444155E1,-2.156830788E0,8.083946705E-1,6.197350025E-1
1.416443766E1,-2.495250225E0,7.534167767E-1,8.231531382E-1
1.417443582E1,-2.855660677E0,6.953845620E-1,1.070553660E0
1.418443774E1,-3.127495766E0,7.558602691E-1,1.319786668E0
1.419449632E1,-3.083513498E0,9.293459654E-1,1.535422087E0
1.420444312E1,-2.440272331E0,8.578747511E-1,1.642934322E0
1.421446732E1,-9.039461613E-1,4.950207770E-1,1.413249016E0
1.422444116E1,1.295779467E0,7.723535895E-1,3.729454279E-1
1.423446728E1,3.568198204E0,2.604338408E0,-5.818369389E-1
1.424446797E1,3.528491974E0,4.292159081E0,-2.068072081E0
1.425445766E1,2.136330128E0,2.749113321E0,-2.994754553E0
1.426461320E1,9.310930371E-1,1.312358499E0,-3.043623924E0
1.427444443E1,5.224241614E-1,-1.317269802E-1,-2.061963320E0
1.428445259E1,4.454551339E-1,-1.542214751E0,-1.069307327E0
1.429444162E1,1.216965690E-1,-2.396815300E0,-7.369967103E-1
1.430443939E1,-6.504370570E-1,-2.065115690E0,-1.591181755E-1
1.431443832E1,-1.621712923E0,-7.236554027E-1,4.877880812E-1
1.432443812E1,-1.873389363E0,4.687535465E-1,1.161572576E0
1.433444624E1,-1.120192528E0,-1.372247636E-1,1.636825681E0
1.434444959E1,-4.060909748E-1,-1.195243359E0,1.507322311E0
1.435444493E1,-3.095743060E-1,-7.401487231E-1,5.201639533E-1
1.436446039E1,-9.210626781E-2,3.197024167E-1,-8.842152357E-1
1.437450212E1,1.186422408E-1,1.895881444E-1,-1.354581475E0
1.438444628E1,2.579072490E-2,2.549507022E-1,-8.689436316E-1
1.439446486E1,4.472754896E-2,7.839600444E-1,-2.269242257E-1
1.440444436E1,-6.339560449E-2,9.635543823E-1,6.032416224E-1
1.441445066E1,-5.166575909E-1,1.058996022E-1,1.366212368E0
1.442444443E1,-1.241143823E0,-1.301533937E0,1.878117442E0
1.443448620E1,-1.880719781E0,-2.647881031E0,2.199432611E0
1.444445501E1,-2.216695547E0,-3.290511370E0,2.381470442E0
1.445452866E1,-2.245406389E0,-3.097477913E0,2.369253159E0
1.446445247E1,-2.201424122E0,-2.335118055E0,2.009453535E0
1.447444489E1,-2.244184494E0,-1.629568577E0,1.379040599E0
1.448452451E1,-2.291221142E0,-1.115219951E0,8.194879293E-1
1.449444201E1,-2.217306614E0,-7.676376700E-1,4.383080006E-1
1.450444205E1,-2.089024782E0,-6.570710540E-1,2.403876930E-1
1.451447282E1,-1.902100086E0,-7.615290284E-1,2.098444253E-1
1.452444839E1,-1.833683133E0,-7.328183651E-1,2.843700051E-1
1.453446120E1,-1.811691999E0,-5.477262139E-1,3.814975619E-1
1.454445124E1,-1.773818374E0,-2.844432890E-1,4.725164771E-1
1.455443670E1,-1.740831614E0,-6.086660922E-2,5.391007662E-1
1.456445136E1,-1.675469041E0,8.307807148E-4,6.179023981E-1
1.457445209E1,-1.467774868E0,-3.217060864E-1,7.455732226E-1
1.458509178E1,-1.221596122E0,-8.708739281E-1,8.726332188E-1
1.459445405E1,-1.037725687E0,-1.178139091E0,9.746477008E-1
1.460451947E1,-9.686978459E-1,-1.248388648E0,1.093766451E0
1.461456451E1,-8.569095135E-1,-1.345516205E0,1.089490414E0
1.462445009E1,-7.121344805E-1,-1.418820024E0,1.036956072E0
1.463451012E1,-5.801875591E-1,-1.427983046E0,9.874758124E-1
1.464446082E1,-4.922229648E-1,-1.373615980E0,9.538782835E-1
1.465445651E1,-5.062729120E-1,-1.261216760E0,9.532673955E-1
1.466445424E1,-6.168394685E-1,-1.070016026E0,9.740368724E-1
1.467445124E1,-7.903252244E-1,-7.572529912E-1,9.575434923E-1
1.468444705E1,-9.827477336E-1,-4.475443065E-1,8.836287856E-1
1.469444397E1,-1.118970752E0,-2.728368640E-1,8.207096457E-1
1.470450343E1,-1.197772384E0,-2.502348423E-1,8.060488701E-1
1.471448936E1,-1.226483107E0,-3.192626238E-1,8.170444369E-1
1.472445670E1,-1.166618228E0,-3.638557792E-1,8.103249669E-1
1.473446243E1,-1.071323276E0,-2.795563638E-1,7.913881540E-1
1.474445247E1,-9.717522264E-1,-2.233567536E-1,8.567507267E-1
1.475443247E1,-7.701666951E-1,-3.265930116E-1,9.954170585E-1
1.476444712E1,-5.203227997E-1,-4.768658578E-1,1.113314152E0
1.477445812E1,-3.767694831E-1,-6.094235778E-1,1.056503654E0
1.478444401E1,-3.364523649E-1,-6.527950168E-1,6.649390459E-1
1.479443432E1,-1.299799085E-1,-5.868215561E-1,4.273124337E-1
1.480444078E1,-2.185676247E-2,-4.023402929E-1,2.807047963E-1
1.481445693E1,-2.368935943E-2,-1.360030323E-1,1.762468368E-1
1.482445993E1,-1.379211545E-1,5.580865219E-2,-5.954714864E-2
1.483444112E1,-2.142793089E-1,2.160019800E-2,-3.833057284E-1
1.484445305E1,-1.110430956E-1,-1.983112842E-1,-6.417017579E-1
1.485457451E1,2.004981786E-1,-4.469334483E-1,-7.919746041E-1
1.486445174E1,5.047090650E-1,-4.542638361E-1,-1.080913782E0
1.487444832E1,6.366559863E-1,-3.015475273E-1,-1.554945230E0
1.488450751E1,8.443501592E-1,-4.163901806E-1,-1.958727121E0
1.489451609E1,1.289670825E0,-7.401487231E-1,-2.196353674E0
1.490450128E1,1.843725681E0,-9.539515972E-1,-2.322191954E0
1.491449701E1,2.318367958E0,-9.203540087E-1,-2.383278608E0
1.492445155E1,2.728869438E0,-8.647652268E-1,-2.295924664E0
1.493444320E1,2.939617872E0,-7.902396917E-1,-2.043637514E0
1.494443924E1,3.019641161E0,-5.318437219E-1,-1.756530762E0
1.495444774E1,2.827218771E0,-3.119322360E-1,-1.471867561E0
1.496446243E1,2.495518923E0,-5.416175723E-1,-1.159715414E0
1.497446328E1,2.210855722E0,-1.203184605E0,-9.202563167E-1
1.498444120E1,2.038591623E0,-2.005861521E0,-8.793283105E-1
1.499445220E1,1.995220184E0,-2.668039560E0,-9.489669800E-1
1.500444728E1,2.080130577E0,-2.799986362E0,-1.044261932E0
1.501443839E1,2.174203634E0,-2.540368795E0,-1.149941564E0
1.502445820E1,2.220629454E0,-2.224551439E0,-1.230575800E0
1.503443697E1,2.248118401E0,-1.870249391E0,-1.231186628E0
1.504443824E1,2.249340057E0,-1.475630522E0,-1.160937190E0
1.505443901E1,1.901757836E0,-5.507805347E-1,-1.394898534E0
1.506445305E1,1.755761027E0,-2.746694386E-1,-1.672842264E0
1.507444797E1,1.754539371E0,2.831972018E-2,-1.700942039E0
1.508443835E1,1.728883028E0,3.801780939E-1,-1.608090520E0
1.509445262E1,1.667185545E0,5.890940428E-1,-1.492026091E0
1.510443474E1,1.551732063E0,8.639833927E-1,-1.404061556E0
1.511485351E1,1.549288630E0,1.208511353E0,-1.336866379E0
1.512444347E1,1.577388406E0,1.507835388E0,-1.259897351E0
1.513442916E1,1.485147715E0,1.987975478E0,-1.181706548E0
1.514442732E1,1.346481323E0,2.401530981E0,-1.101072311E0
1.515443374E1,1.210869312E0,2.507821560E0,-1.046705365E0
1.516442859E1,1.078311443E0,2.487052202E0,-9.141476154E-1
1.517444005E1,9.115453362E-1,2.388702869E0,-6.752993464E-1
1.518442197E1,7.111815214E-1,2.151687145E0,-4.786006808E-1
1.519442201E1,3.513818979E-1,1.675823331E0,-2.153177857E-1
1.520442551E1,5.327966064E-2,1.389327526E0,-4.610811174E-2
1.521442466E1,-2.894157171E-1,1.143148780E0,9.805609286E-2
1.522447020E1,-6.510479450E-1,9.629435539E-1,2.183965296E-1
1.523443689E1,-1.009625912E0,8.694812059E-1,3.173567057E-1
1.524446109E1,-1.363927722E0,8.560421467E-1,4.108191133E-1
1.525445858E1,-1.713342667E0,8.908614516E-1,5.122227073E-1
1.526443959E1,-2.081083536E0,9.134634733E-1,6.234002113E-1
1.527444132E1,-2.501969814E0,8.975809813E-1,7.235820889E-1
1.528450551E1,-2.930797100E0,8.688703179E-1,7.797816992E-1
1.529445182E1,-3.260664225E0,8.138924241E-1,8.292617798E-1
1.530444170E1,-3.330913782E0,7.210409045E-1,9.642629623E-1
1.531444224E1,-2.968059778E0,5.982570052E-1,1.185396314E0
1.532447035E1,-7.616145611E-1,-5.507805347E-1,1.380873203E0
1.533445697E1,1.184602022E0,-8.348328471E-1,3.802758455E-1
1.534444962E1,3.414870977E0,1.394825339E0,-6.459777951E-1
1.535444885E1,4.424631119E0,4.347747803E0,-1.984383464E0
1.536445020E1,3.770394564E0,4.210303307E0,-3.052786827E0
1.537447409E1,2.225516319E0,2.987961769E0,-3.399147511E0
1.538446751E1,8.248024583E-1,1.462020516E0,-2.849368572E0
1.539446170E1,3.587122560E-1,-3.534710705E-1,-1.550058246E0
1.540446162E1,2.041633725E-1,-1.789615273E0,-6.478103995E-1
1.541445062E1,-2.692571878E-1,-2.523875475E0,-3.607037067E-1
1.542444501E1,-1.016956329E0,-2.018078804E0,1.066081971E-1
1.543445958E1,-1.484879017E0,-7.847418785E-1,6.032416224E-1
1.544444347E1,-1.439675093E0,9.551489353E-2,1.013743162E0
1.545444328E1,-8.385835886E-1,-3.595797122E-1,1.143246531E0
1.546447847E1,-2.136684507E-1,-1.873914599E0,4.517470598E-1
1.547445555E1,-4.683992267E-1,-1.156758785E0,-5.549588799E-1
1.548445332E1,-3.944845796E-1,-2.331306040E-1,-1.055868268E0
1.549444651E1,-1.299799085E-1,-4.681670666E-2,-9.801210761E-1
1.550444397E1,-2.362704724E-1,1.278907508E-1,-5.848912597E-1
1.551444839E1,-2.979800850E-2,7.546384931E-1,-2.106263489E-2
1.552444374E1,1.730092466E-1,1.405820847E0,6.875410080E-1
1.553443312E1,-1.006583869E-1,8.719246387E-1,1.448068380E0
1.554445682E1,-8.080403209E-1,-5.691064596E-1,1.956919074E0
1.555444359E1,-1.572843671E0,-2.068780661E0,2.211649895E0
1.556443189E1,-2.153165579E0,-3.065712929E0,2.405905008E0
1.557443847E1,-2.407896519E0,-3.269130945E0,2.427285194E0
1.558442932E1,-2.396900892E0,-2.522653580E0,2.121241808E0
1.559442655E1,-2.297940731E0,-1.491513014E0,1.029014707E0
1.560443435E1,-2.136672258E0,-1.087120175E0,2.678766251E-1
1.561442735E1,-1.963186502E0,-1.008318663E0,-6.932099164E-2
1.562445020E1,-1.896602273E0,-9.906035066E-1,-5.160589516E-2
1.563443170E1,-1.928367257E0,-9.728884101E-1,1.102733910E-1
1.564443278E1,-1.950969219E0,-8.519370556E-1,2.165639400E-1
1.565444578E1,-1.911873817E0,-5.678847432E-1,3.002524972E-1
1.566451235E1,-1.846511245E0,-2.539000213E-1,4.425840974E-1
1.567445047E1,-1.757935882E0,2.404366061E-2,5.922460556E-1
1.568445324E1,-1.666916966E0,2.042489052E-1,7.168625593E-1
1.569445920E1,-1.640038848E0,1.315559447E-1,8.091031909E-1
1.570444282E1,-1.615604281E0,-1.219531298E-1,8.897374272E-1
1.571444993E1,-1.519087553E0,-4.878614247E-1,1.007634521E0
1.572444705E1,-1.332773566E0,-8.568239808E-1,1.128585815E0
1.573444428E1,-1.135464191E0,-1.078568101E0,1.233654618E0
1.574444943E1,-1.070101619E0,-1.059631228E0,1.267252207E0
1.575447135E1,-1.037725687E0,-1.028477192E0,1.278247833E0
1.576445159E1,-9.015027285E-1,-1.137822032E0,1.156074762E0
1.577446555E1,-7.597819567E-1,-1.300312161E0,1.068721056E0
1.578445670E1,-6.663196087E-1,-1.422485232E0,1.057725430E0
1.579444289E1,-6.504370570E-1,-1.403548360E0,1.050395012E0
1.580444682E1,-7.280169725E-1,-1.232506156E0,1.032069087E0
1.581450001E1,-9.002809525E-1,-9.472320676E-1,1.018630028E0
1.582445374E1,-1.123857737E0,-6.961664557E-1,1.011910558E0
1.583455235E1,-1.285737038E0,-6.143105030E-1,1.022295237E0
1.584446270E1,-1.358429909E0,-6.955555677E-1,1.016797423E0
1.585444547E1,-1.331551909E0,-8.268916011E-1,9.734259248E-1
1.586446455E1,-1.089038372E0,-1.040083647E0,8.665245771E-1
1.587446051E1,-8.617964387E-1,-1.176917434E0,8.335378170E-1
1.588443993E1,-6.211155653E-1,-1.316194654E0,7.840577364E-1
1.589443743E1,-4.818382859E-1,-1.382779002E0,6.191241145E-1
1.590444709E1,-4.580145478E-1,-1.310696840E0,4.193711877E-1
1.591445028E1,-3.816564083E-1,-1.136600256E0,3.106371760E-1
1.592445670E1,-2.747550011E-1,-7.731354833E-1,3.613390326E-1
1.593443959E1,-2.906374931E-1,-3.626340628E-1,4.957293272E-1
1.594455455E1,-3.505022526E-1,-3.826459497E-2,4.993945360E-1
1.595445262E1,-2.545964122E-1,3.931529447E-2,3.210219145E-1
1.596443989E1,-8.294329047E-2,-1.653245687E-1,5.468465388E-2
1.597443705E1,3.617543355E-2,-5.794911981E-1,-2.446393222E-1
1.598444316E1,5.266879499E-2,-8.384980559E-1,-5.757282972E-1
1.599443555E1,-9.210626781E-2,-7.517551780E-1,-1.053424835E0
1.600445362E1,2.334726602E-2,-7.932940125E-1,-1.550669193E0
1.601443835E1,4.961569905E-1,-8.195612431E-1,-1.677729130E0
1.602445962E1,9.665232301E-1,-7.187684774E-1,-1.808454275E0
1.603447558E1,1.357476950E0,-6.369125247E-1,-1.917799234E0
1.604444912E1,1.705670118E0,-7.603073120E-1,-2.016759396E0
1.605445482E1,2.061193705E0,-1.052911758E0,-2.091895819E0
1.606446385E1,2.389839172E0,-1.351624846E0,-2.072348118E0
1.607445785E1,2.593868256E0,-1.513504148E0,-1.903138399E0
1.608446351E1,2.692217588E0,-1.304588199E0,-1.583655834E0
1.609444208E1,2.738643169E0,-6.808947921E-1,-1.203697681E0
1.610445805E1,2.670226336E0,-1.915917695E-1,-8.707762361E-1
1.611450697E1,2.472916842E0,-2.728368640E-1,-6.685798168E-1
1.612444120E1,2.247507572E0,-8.818694949E-1,-6.844623089E-1
1.613444674E1,2.124723673E0,-2.037626505E0,-8.145766258E-1
1.614445728E1,2.168705940E0,-2.426747799E0,-8.536719680E-1
1.615445043E1,2.248118401E0,-2.435910702E0,-8.689436316E-1
1.616444639E1,2.306150675E0,-2.172627926E0,-9.080389738E-1
1.617444316E1,2.336694002E0,-1.695541978E0,-9.697363973E-1
1.618443593E1,2.313481092E0,-1.193410754E0,-1.011275172E0
1.619451143E1,2.088682652E0,-8.110091090E-1,-1.103515863E0
1.620445512E1,1.844336510E0,-6.167539358E-1,-1.346640229E0
1.621445024E1,1.745987177E0,-6.191974282E-1,-1.496302128E0
1.622447697E1,1.618927240E0,-5.788803101E-1,-1.481030583E0
1.623459732E1,1.434445977E0,-5.825455189E-1,-1.402228951E0
1.624445251E1,1.274399281E0,-5.471153259E-1,-1.362522721E0
1.625444193E1,1.227362633E0,-3.644666374E-1,-1.393065929E0
1.626445008E1,1.213923573E0,-2.543642372E-2,-1.417500496E0
1.627445093E1,1.122904658E0,6.379632354E-1,-1.270282030E0
1.628480508E1,1.020890236E0,9.947085381E-1,-1.116343975E0
1.629444851E1,9.182648659E-1,1.213398337E0,-9.404148459E-1
1.630445524E1,7.979243994E-1,1.326408386E0,-7.369967103E-1
1.631445289E1,6.690318584E-1,1.339236498E0,-5.244156122E-1
1.632445408E1,5.053199530E-1,1.203013659E0,-3.307713270E-1
1.633444382E1,2.970148921E-1,9.831020832E-1,-1.609507799E-1
1.634444320E1,3.678629920E-2,7.528058887E-1,5.815435201E-3
1.635444478E1,-2.484877557E-1,5.646594167E-1,1.701381803E-1
1.636450074E1,-5.233771205E-1,4.149973989E-1,3.185784221E-1
1.637450074E1,-7.707775235E-1,3.032090664E-1,4.444167018E-1
1.638443962E1,-1.009015083E0,2.427334338E-1,5.482637286E-1
1.639445412E1,-1.266189337E0,2.744984031E-1,6.252327561E-1
1.640444393E1,-1.727392554E0,4.198843241E-1,7.186951637E-1
1.641450458E1,-2.052983761E0,5.719897747E-1,7.541253567E-1
1.642444970E1,-2.308325529E0,7.857926488E-1,7.657318115E-1
1.643452320E1,-2.472648144E0,1.065568924E0,7.822251320E-1
1.644443516E1,-2.445770025E0,1.399101377E0,7.974967957E-1
1.645448024E1,-2.013888359E0,1.492563725E0,7.083104253E-1
1.646444282E1,-6.003461480E-1,7.112670541E-1,4.761816859E-1
1.647444062E1,1.081976652E0,-2.758911848E-1,-1.407922208E-1
1.648444382E1,3.282924175E0,3.661281765E-1,-3.564276695E-1
1.649444066E1,4.331169128E0,1.950712681E0,-1.039374948E0
1.650445382E1,3.663493156E0,2.493771791E0,-2.079678535E0
1.651444362E1,2.340970039E0,1.962930083E0,-2.509727716E0
1.652445035E1,1.205982327E0,1.101609945E0,-2.260494471E0
1.653443678E1,7.124032974E-1,9.993758053E-3,-1.183539152E0
1.654445493E1,4.143010378E-1,-1.024811983E0,-5.042570233E-1
1.655446124E1,7.954686880E-2,-7.651942372E-1,-1.128879189E-2
1.656445343E1,-3.895976543E-1,2.282192931E-2,3.973800540E-1
1.657444928E1,-7.726101279E-1,5.780984759E-1,7.058669925E-1
1.658445074E1,-1.038336635E0,3.954497278E-1,8.097140789E-1
1.659446797E1,-1.299786925E0,-2.447370440E-1,6.502782702E-1
1.660446689E1,-1.559404612E0,-1.165310979E0,3.179675937E-1
1.661444820E1,-1.837959170E0,-2.087717533E0,-1.670594364E-1
1.662445143E1,-2.010833979E0,-2.082830667E0,-7.351641059E-1
1.663446358E1,-1.360262513E0,-1.718144059E0,-1.259897351E0
1.664445228E1,-2.796419263E-1,-1.476241350E0,-1.545782208E0
1.665445174E1,2.823541164E-1,-8.049004674E-1,-1.319151282E0
1.666445093E1,4.601159096E-1,3.068742454E-1,-5.879455805E-1
1.667446397E1,5.065416694E-1,1.801661491E0,8.207096457E-1
1.668447589E1,1.223074347E-1,1.447970510E0,1.727233768E0
1.669444332E1,-6.870890260E-1,-1.592159122E-1,2.242804050E0
1.670448474E1,-1.520309210E0,-2.496997356E0,2.584888458E0
1.671449870E1,-2.156219959E0,-4.473756790E0,2.994168282E0
1.672443855E1,-2.439050674E0,-5.162202358E0,3.151160717E0
1.673443793E1,-2.542897701E0,-4.284999847E0,2.907425404E0
1.674449297E1,-2.740818024E0,-2.442630291E0,2.176830530E0
1.675447585E1,-2.679120541E0,-6.607362628E-1,1.085825205E0
1.676465424E1,-2.344977379E0,1.156734526E-1,1.365405917E-1
1.677444282E1,-2.110404968E0,-3.826459497E-2,-2.550240159E-1
1.678445870E1,-2.175156832E0,-3.626340628E-1,-1.395704895E-1
1.679445612E1,-2.269840956E0,-4.402139485E-1,2.306138426E-1
1.680444151E1,-1.953412771E0,-4.707571864E-1,3.839409947E-1
1.681444301E1,-1.706623197E0,-2.300762832E-1,5.018380284E-1
1.682444766E1,-1.550241709E0,2.677788734E-1,7.901663780E-1
1.683445878E1,-1.341325760E0,8.163359165E-1,1.084603548E0
1.684453182E1,-1.123857737E0,9.776042700E-1,1.223880768E0
1.685446097E1,-9.864129424E-1,5.603833795E-1,1.174400687E0
1.686445354E1,-9.186069369E-1,-3.357559741E-1,9.697608352E-1
1.687446004E1,-8.966158032E-1,-1.277710199E0,8.958460689E-1
1.688443132E1,-8.874527812E-1,-1.808552027E0,1.000914931E0
1.689444001E1,-7.756644487E-1,-1.961268425E0,1.121255398E0
1.690444520E1,-6.412740946E-1,-1.862919092E0,1.114535928E0
1.691443789E1,-5.893505812E-1,-1.694320202E0,1.011910558E0
1.692443935E1,-6.003461480E-1,-1.595970988E0,8.989003897E-1
1.693453793E1,-6.730390787E-1,-1.577644944E0,8.249857426E-1
1.694450547E1,-8.477465510E-1,-1.535495281E0,7.773382068E-1
1.695448020E1,-9.448741078E-1,-1.322914243E0,7.748947740E-1
1.696450554E1,-1.064603806E0,-9.918252230E-1,7.602339983E-1
1.697451620E1,-1.246641636E0,-7.468682528E-1,7.559579611E-1
1.698444254E1,-1.435398936E0,-6.075909734E-1,7.810034156E-1
1.699450020E1,-1.519087553E0,-5.294002295E-1,8.127683997E-1
1.700446247E1,-1.456779242E0,-5.422284007E-1,8.408682346E-1
1.701445685E1,-1.262524128E0,-6.515733004E-1,8.402573466E-1
1.702444051E1,-1.018788934E0,-8.757608533E-1,8.310943842E-1
1.703446305E1,-7.261843681E-1,-1.177528262E0,8.146010041E-1
1.704468404E1,-4.164757133E-1,-1.398661494E0,7.706187367E-1
1.705454193E1,-2.717006207E-1,-1.382168174E0,6.887627840E-1
1.706444008E1,-2.753658295E-1,-1.302144766E0,6.521108747E-1
1.707445124E1,-3.187372684E-1,-1.225786567E0,6.704367995E-1
1.708446466E1,-3.712716699E-1,-1.143930674E0,6.637172699E-1
1.709443566E1,-5.093272328E-1,-9.356256127E-1,6.075176597E-1
1.710449520E1,-6.272242069E-1,-6.986098886E-1,3.900496960E-1
1.711456366E1,-5.710245967E-1,-7.645833492E-1,6.445849687E-2
1.712444712E1,-4.018149376E-1,-1.201352000E0,-1.988244206E-1
1.713444451E1,-3.303437233E-1,-1.666220427E0,-2.739608288E-1
1.714443816E1,-3.211807609E-1,-1.900792718E0,-1.878288537E-1
1.715447212E1,-1.409754902E-1,-1.949661970E0,-2.134851813E-1
1.716466039E1,1.907243431E-1,-1.962490082E0,-5.341894627E-1
1.717445616E1,4.485094547E-1,-1.846425653E0,-1.005777359E0
1.718444885E1,6.403211951E-1,-1.588029742E0,-1.344196677E0
1.719444185E1,8.846672773E-1,-1.303366542E0,-1.553723454E0
1.720445231E1,1.162610888E0,-1.107889652E0,-1.752254725E0
1.721491331E1,1.516912699E0,-7.480899692E-1,-2.030809402E0
1.722453851E1,1.724606872E0,-6.796730757E-1,-2.165199518E0
1.723454012E1,1.989111543E0,-8.281133175E-1,-2.219566584E0
1.724447451E1,2.257892370E0,-1.033364058E0,-2.166421413E0
1.725443974E1,2.409997702E0,-1.168976188E0,-2.010039806E0
1.726451770E1,2.435043097E0,-1.256329894E0,-1.802956462E0
1.727444828E1,2.383730412E0,-1.258773327E0,-1.614199162E0
1.728444793E1,2.209633827E0,-1.333298922E0,-1.429717898E0
1.729444431E1,1.933522820E0,-1.624681592E0,-1.261119008E0
1.730445051E1,1.722774386E0,-2.026631117E0,-1.145665526E0
1.731444162E1,1.635420561E0,-2.286859751E0,-1.101072311E0
1.732444970E1,1.603655577E0,-2.354665756E0,-1.061366081E0
1.733444993E1,1.647027016E0,-2.291746616E0,-9.654603004E-1
1.734444855E1,1.917029500E0,-2.185456038E0,-8.707762361E-1
1.735450947E1,2.169316769E0,-1.889186263E0,-8.451198936E-1
1.736445124E1,2.193140507E0,-1.647283673E0,-8.365677595E-1
1.737449578E1,1.890762329E0,-1.155537128E0,-1.103515863E0
1.738446012E1,1.709335327E0,-9.392908216E-1,-1.488360882E0
1.739445216E1,1.652524829E0,-8.195612431E-1,-1.620918632E0
1.740445128E1,1.605488181E0,-7.627507448E-1,-1.615420938E0
1.741444458E1,1.493088961E0,-7.401487231E-1,-1.593429685E0
1.742444770E1,1.328766227E0,-6.436320543E-1,-1.560443044E0
1.743443978E1,1.271344900E0,-4.163901806E-1,-1.468813181E0
1.744443870E1,1.246910334E0,-2.054950222E-2,-1.341753244E0
1.745444366E1,1.195597649E0,4.577579796E-1,-1.232408404E0
1.746463954E1,1.125959039E0,8.798658848E-1,-1.114511371E0
1.747446508E1,1.070370197E0,1.251882792E0,-8.371786475E-1
1.748447570E1,1.012338042E0,1.535324335E0,-6.429234743E-1
1.749446828E1,9.262061119E-1,1.533491731E0,-4.224011302E-1
1.750445666E1,7.844853997E-1,1.455300927E0,-1.835527867E-1
1.751445247E1,6.061127186E-1,1.348399520E0,3.025004268E-2
1.752444831E1,4.185770750E-1,1.266543627E0,2.171748132E-1
1.753445370E1,2.212676108E-1,1.195072412E0,3.741672039E-1
1.754444431E1,3.251024336E-2,1.114438176E0,5.067248940E-1
1.755445466E1,-1.715187430E-1,1.074120998E0,5.812504888E-1
1.756445397E1,-3.853215575E-1,1.047242999E0,5.946894884E-1
1.757444647E1,-6.046221852E-1,1.083894849E0,5.568158627E-1
1.758443381E1,-8.336966634E-1,1.187741995E0,4.853446484E-1
1.759447904E1,-1.069490671E0,1.328240991E0,3.833301663E-1
1.760443639E1,-1.309560776E0,1.479735613E0,2.917003632E-1
1.761445454E1,-1.575898051E0,1.683764577E0,1.689164490E-1
1.762443197E1,-1.589947939E0,1.680710196E0,7.606493682E-2
1.763443035E1,-1.368203759E0,1.416816473E0,-3.938859329E-2
1.764444666E1,-8.233119249E-1,7.912904024E-1,-1.750006825E-1
1.765446554E1,-3.468493372E-2,3.992616013E-2,-3.203865886E-1
1.766449151E1,7.600507736E-1,-4.070805386E-2,-3.979665041E-1
1.767444981E1,1.326322794E0,4.467624128E-1,-5.372437835E-1
1.768445535E1,1.510804057E0,8.566530347E-1,-8.805500269E-1
1.769445016E1,1.369083405E0,8.682594299E-1,-1.224467158E0
1.770446401E1,1.058153033E0,4.736404717E-1,-1.410170197E0
1.771444997E1,6.788057089E-1,2.221106365E-2,-1.405894160E0
1.772451178E1,2.628064454E-1,-2.948279977E-1,-1.150552392E0
1.773445155E1,-1.195951998E-1,-3.986751139E-1,-6.960687637E-1
1.774451658E1,-1.886229664E-1,-1.250074655E-1,-4.610811174E-2
1.775466347E1,1.046546578E0,1.559905559E-1,-9.619905800E-2
1.776444274E1,1.568225384E0,-1.020535946E0,-7.638747692E-1
1.777445435E1,5.865650177E-1,-2.306407452E0,-1.242182255E0
1.778446431E1,-4.910012484E-1,-2.407810926E0,-1.143222094E0
1.779445820E1,-1.283293486E0,-1.755406737E0,-3.997991085E-1
1.780444524E1,-1.799474716E0,-1.114609122E0,4.230363965E-1
1.781454924E1,-1.476937771E0,-5.842314661E-2,1.313067079E0
1.782444928E1,-2.429899722E-1,1.218285203E0,2.028390408E0
1.783445747E1,5.022656322E-1,9.501153827E-1,2.389411688E0
1.784444020E1,1.308595538E-1,-9.588385224E-1,2.266627789E0
1.785447051E1,-1.029784441E0,-3.302117586E0,1.836578608E0
1.786448208E1,-2.200813055E0,-4.222080708E0,1.583680391E0
1.787456808E1,-2.687061787E0,-3.760266542E0,1.528091669E0
1.788445066E1,-2.301605940E0,-2.630165815E0,1.259310961E0
1.789444570E1,-1.812913656E0,-2.123147726E0,9.074525237E-1
1.790450981E1,-1.466553092E0,-1.884299397E0,6.258436441E-1
1.791448351E1,-1.406077504E0,-1.767013192E0,4.908424020E-1
1.792444570E1,-1.520309210E0,-1.825045466E0,5.537615418E-1
1.793445897E1,-1.660808206E0,-2.084052324E0,7.162516713E-1
1.794444401E1,-1.792755127E0,-2.196451664E0,8.934026361E-1
1.795444474E1,-1.897823930E0,-1.924616456E0,1.038788557E0
1.796444551E1,-1.928367257E0,-1.410878778E0,1.164626837E0
1.797444331E1,-1.827574492E0,-8.574348688E-1,1.239152431E0
1.798445178E1,-1.652256131E0,-3.650775254E-1,1.225713372E0
1.799444289E1,-1.507481098E0,5.106836557E-3,1.114535928E0
1.800444131E1,-1.398136258E0,2.653354108E-1,9.294436574E-1
1.801451158E1,-1.299786925E0,2.812179029E-1,7.174734473E-1
1.802446443E1,-1.278406620E0,-9.507506341E-2,6.795997620E-1
1.803445478E1,-1.218541861E0,-5.562782884E-1,7.681752443E-1
1.804444551E1,-1.103699207E0,-9.014171958E-1,8.200988173E-1
1.805445024E1,-9.589239955E-1,-1.025422812E0,8.414790630E-1
1.806446808E1,-8.227010965E-1,-1.041916251E0,8.830178976E-1
1.807453824E1,-7.341256142E-1,-1.044359684E0,9.813671708E-1
1.808453247E1,-6.712065339E-1,-1.037640095E0,1.104762077E0
1.809473158E1,-5.643050671E-1,-1.065129042E0,1.108427286E0
1.810465835E1,-4.696210027E-1,-1.089563608E0,1.047340751E0
1.811446004E1,-4.653449059E-1,-1.059020400E0,9.948062301E-1
1.812446224E1,-5.740789175E-1,-9.069149494E-1,9.496022463E-1
1.813546497E1,-8.422487974E-1,-6.124778986E-1,9.367740750E-1
1.814445639E1,-9.216612577E-1,-4.982461333E-1,9.453261495E-1
1.815443951E1,-1.128744602E0,-2.245784849E-1,9.862541556E-1
1.816444608E1,-1.258248091E0,-1.445551515E-1,1.009467125E0
1.817443593E1,-1.326664925E0,-1.579941809E-1,1.037566900E0
1.818447789E1,-1.261302352E0,-2.832215726E-1,1.038177729E0
1.819450339E1,-1.090870976E0,-4.591507614E-1,9.795345664E-1
1.820446501E1,-9.063895941E-1,-6.747861505E-1,8.695788980E-1
1.821446762E1,-7.872709036E-1,-8.843129277E-1,7.559579611E-1
1.822445016E1,-6.925867796E-1,-9.631145597E-1,6.362283826E-1
1.823445020E1,-5.539203882E-1,-8.348328471E-1,5.397116542E-1
1.824446408E1,-4.091453552E-1,-6.613471508E-1,5.617027879E-1
1.825450097E1,-3.224024773E-1,-6.277495623E-1,6.741020083E-1
1.826444439E1,-3.364523649E-1,-6.698992252E-1,6.728802919E-1
1.827443704E1,-3.682173491E-1,-7.914614081E-1,5.714766383E-1
1.828445058E1,-3.761585951E-1,-9.295169711E-1,3.869953752E-1
1.829443416E1,-4.060909748E-1,-1.119496107E0,3.452610224E-2
1.830443978E1,-4.531276226E-1,-1.210515022E0,-1.572855860E-1
1.831444978E1,-4.512950182E-1,-1.246556044E0,-2.727391124E-1
1.832444728E1,-3.706608415E-1,-1.288094878E0,-3.582602739E-1
1.833449881E1,-1.525819302E-1,-1.382168174E0,-4.914288521E-1
1.834444066E1,2.273762524E-1,-1.388276815E0,-7.412727475E-1
1.835444220E1,5.743477345E-1,-1.277099252E0,-1.084578991E0
1.836444762E1,7.117924094E-1,-9.747210145E-1,-1.363133550E0
1.837444381E1,7.166793346E-1,-6.796730757E-1,-1.565940738E0
1.838446831E1,7.429465652E-1,-5.458936095E-1,-1.740037441E0
1.839445854E1,8.834455609E-1,-5.177938342E-1,-1.862821341E0
1.840445001E1,1.185212970E0,-5.721607804E-1,-1.947120667E0
1.841448312E1,1.607931614E0,-6.601253748E-1,-1.977663994E0
1.842451078E1,2.188253641E0,-9.356256127E-1,-1.879314661E0
1.843446493E1,2.468029976E0,-1.167754412E0,-1.735761285E0
1.844445574E1,2.649456978E0,-1.175084829E0,-1.525012851E0
1.845444174E1,2.692217588E0,-9.234083295E-1,-1.266616821E0
1.846445739E1,2.569433451E0,-7.804658413E-1,-1.032044649E0
1.847445604E1,2.309205055E0,-9.337930083E-1,-8.506176472E-1
1.848445251E1,2.027596235E0,-1.288094878E0,-7.088969350E-1
1.849444274E1,1.783860803E0,-1.618572950E0,-6.520864367E-1
1.850446031E1,1.647637963E0,-1.778619647E0,-6.624711752E-1
1.851445120E1,1.648859620E0,-1.905679584E0,-7.205033302E-1
1.852445262E1,1.775919557E0,-2.033961296E0,-7.492139935E-1
1.853443974E1,1.937798858E0,-1.978372574E0,-7.626530528E-1
1.854443885E1,2.063026428E0,-1.931335926E0,-7.388293147E-1
1.855447670E1,1.857164741E0,-1.858643055E0,-8.610023856E-1
1.856444447E1,1.446663260E0,-1.632012010E0,-1.132837296E0
1.857444258E1,1.190099835E0,-1.728528738E0,-1.358246565E0
1.858445420E1,1.149171829E0,-1.697985411E0,-1.481030583E0
1.859444104E1,1.157724023E0,-1.425539494E0,-1.535397530E0
1.860443916E1,1.081365824E0,-9.869382977E-1,-1.546393156E0
1.861443531E1,9.689666629E-1,-5.226807594E-1,-1.517682433E0
1.862443131E1,8.895542026E-1,-4.864930362E-2,-1.440713406E0
1.863444612E1,8.584000468E-1,4.693644345E-1,-1.325870752E0
1.864443651E1,8.370198011E-1,9.305676818E-1,-1.190869570E0
1.865443643E1,7.820419073E-1,1.278150082E0,-1.056479216E0
1.866442758E1,7.197336555E-1,1.502337575E0,-9.178128242E-1
1.867442574E1,6.617014408E-1,1.632451892E0,-7.437162399E-1
1.868442739E1,5.572434664E-1,1.633673549E0,-5.586240888E-1
1.869443278E1,3.312233686E-1,1.515165687E0,-2.690739036E-1
1.870447216E1,1.687331945E-1,1.377721071E0,-7.726223767E-2
1.871446274E1,2.577848732E-3,1.221339583E0,9.988868237E-2
1.872445843E1,-1.702970117E-1,1.065568924E0,2.428311557E-1
1.873445643E1,-3.456153274E-1,9.238482118E-1,3.558412194E-1
1.874446543E1,-5.191010833E-1,8.218336701E-1,4.511361718E-1
1.875444547E1,-7.164105177E-1,7.821274400E-1,5.244399905E-1
1.876445066E1,-9.503719211E-1,8.187793493E-1,5.928569436E-1
1.877444128E1,-1.218541861E0,9.116308689E-1,6.441696286E-1
1.878443474E1,-1.489155173E0,1.003260612E0,6.753237247E-1
1.879444235E1,-1.742664218E0,1.188352823E0,6.612738371E-1
1.880443485E1,-1.919815183E0,1.317245364E0,6.453913450E-1
1.881443181E1,-1.867891550E0,1.422925115E0,6.704367995E-1
1.882442774E1,-1.401190519E0,1.276928306E0,6.472239494E-1
1.883443012E1,4.894374609E-1,4.925772846E-1,3.344609141E-1
1.884443266E1,2.045311213E0,7.350908518E-1,1.436754689E-2
1.885449662E1,3.475346804E0,1.726525068E0,-6.013846397E-1
1.886446381E1,3.760010004E0,2.156574249E0,-1.586710215E0
1.887443831E1,3.135094881E0,1.463242173E0,-2.174973488E0
1.888446254E1,2.149769068E0,3.044307828E-1,-2.219566584E0
1.889444166E1,1.216367006E0,-8.158960342E-1,-1.678950906E0
1.890451224E1,2.548651993E-1,-1.533662677E0,-8.335134387E-1
1.891449251E1,-3.022438884E-1,-1.226397514E0,-2.717128769E-2
1.892448328E1,-1.037127078E-1,-4.744223952E-1,4.315885305E-1
1.893447212E1,6.219952106E-1,-3.284255862E-1,3.008633256E-1
1.894446031E1,1.210258365E0,-8.452175856E-1,-5.409089923E-1
1.895447066E1,-3.370632529E-1,-1.714478850E0,-1.450487256E0
1.896445524E1,-1.322388887E0,-1.391331077E0,-1.179263115E0
1.897444570E1,-1.881941438E0,-1.236782193E0,-4.773789644E-1
1.898444539E1,-1.856285095E0,-9.594493508E-1,3.222436309E-1
1.899446597E1,-3.370632529E-1,4.913555682E-1,1.372931957E0
1.900445289E1,7.942591906E-1,1.381997108E0,2.276401520E0
1.901445420E1,7.527203560E-1,2.268509120E-1,2.548847437E0
1.902444370E1,-5.349835753E-1,-2.344891787E0,2.154228449E0
1.903445304E1,-2.090246439E0,-4.149998188E0,1.879339218E0
1.904445324E1,-2.897199631E0,-4.365023136E0,1.886669517E0
1.905444154E1,-2.867877960E0,-3.756601334E0,1.825583100E0
1.906445258E1,-2.399344444E0,-2.869625092E0,1.474946380E0
1.907444350E1,-1.885606647E0,-2.096880674E0,1.032069087E0
1.908445985E1,-1.460444450E0,-1.699818015E0,7.614557147E-1
1.909445358E1,-1.268632770E0,-1.520223618E0,6.545543075E-1
1.910445574E1,-1.410964370E0,-1.317416430E0,7.199168801E-1
1.911444978E1,-1.618047714E0,-1.060853004E0,7.883337736E-1
1.912448808E1,-1.784813881E0,-8.989737034E-1,8.445333838E-1
1.913443816E1,-1.848343849E0,-6.191974282E-1,8.188770413E-1
1.914444366E1,-1.854452491E0,-1.628811061E-1,7.553470731E-1
1.915444781E1,-1.880108833E0,3.484130800E-1,7.235820889E-1
1.916446735E1,-1.856285095E0,7.192083001E-1,7.449623942E-1
1.917445651E1,-1.713342667E0,8.804767728E-1,7.785599828E-1
1.918445004E1,-1.480602980E0,7.308147550E-1,8.249857426E-1
1.919445554E1,-1.322388887E0,3.294762671E-1,8.451442719E-1
1.920445831E1,-1.253972054E0,-1.121792942E-1,8.219313622E-1
1.921444524E1,-1.198994160E0,-4.512095153E-1,7.620666027E-1
1.922446597E1,-1.067047238E0,-5.703281760E-1,7.272472978E-1
1.923444708E1,-8.294206262E-1,-6.882252097E-1,7.675643563E-1
1.924446374E1,-7.414560318E-1,-8.391088843E-1,8.097140789E-1
1.925446416E1,-6.431066990E-1,-1.162867546E0,8.207096457E-1
1.926445412E1,-5.081054568E-1,-1.379113793E0,8.347595334E-1
1.927445839E1,-3.767694831E-1,-1.415154815E0,8.347595334E-1
1.928445058E1,-3.614978194E-1,-1.345516205E0,8.139901161E-1
1.929444062E1,-5.001642108E-1,-1.197686791E0,7.993294001E-1
1.930443654E1,-7.390125394E-1,-1.015648961E0,8.078814745E-1
1.931443735E1,-9.589239955E-1,-8.525479436E-1,8.372030258E-1
1.932443616E1,-1.111029506E0,-7.731354833E-1,8.506420255E-1
1.933444074E1,-1.243587255E0,-7.401487231E-1,8.524746299E-1
1.934443500E1,-1.395081878E0,-6.870034933E-1,8.805744648E-1
1.935448724E1,-1.495874643E0,-6.204191446E-1,9.074525237E-1
1.936449747E1,-1.411575198E0,-5.972062945E-1,8.891265392E-1
1.937444889E1,-1.274130583E0,-7.157141566E-1,9.105068445E-1
1.938443347E1,-1.139740229E0,-8.922541738E-1,9.868649840E-1
1.939445058E1,-8.850093484E-1,-1.096894026E0,1.066888452E0
1.940443039E1,-5.539203882E-1,-1.276488423E0,1.068110108E0
1.941442916E1,-3.651630282E-1,-1.333298922E0,9.618195295E-1
1.942444466E1,-3.407284021E-1,-1.272212386E0,7.828360200E-1
1.943443397E1,-3.340089321E-1,-1.105446100E0,6.343957782E-1
1.944448900E1,-3.181263804E-1,-7.951266170E-1,5.403224826E-1
1.945442900E1,-4.018149376E-1,-4.182227850E-1,4.609100223E-1
1.946442720E1,-6.253916025E-1,-1.818179190E-1,2.745961547E-1
1.947444554E1,-8.165924549E-1,-1.641028374E-1,-9.375560284E-2
1.948443193E1,-7.151888013E-1,-4.292183518E-1,-4.071294665E-1
1.949444185E1,-4.195300341E-1,-8.537696600E-1,-4.627181888E-1
1.950442727E1,-1.031018347E-1,-1.223953962E0,-2.941194177E-1
1.951442900E1,2.884505317E-2,-1.418209195E0,-4.248445630E-1
1.952445635E1,2.896845043E-1,-1.591694951E0,-7.247794271E-1
1.953465274E1,6.415429115E-1,-1.588640571E0,-1.050981402E0
1.954444881E1,9.133779407E-1,-1.340018392E0,-1.372907400E0
1.955457685E1,1.058763862E0,-1.009540319E0,-1.619086027E0
1.956445439E1,1.174217343E0,-8.030678630E-1,-1.829834580E0
1.957453381E1,1.333653212E0,-6.130887866E-1,-2.022868156E0
1.958445770E1,1.464378357E0,-4.689246118E-1,-2.076013327E0
1.959444797E1,1.631144524E0,-6.045366526E-1,-2.116941214E0
1.960443850E1,1.954903126E0,-1.129880786E0,-2.124882460E0
1.961446004E1,2.286602974E0,-1.679659486E0,-2.010650635E0
1.962444662E1,2.455812693E0,-1.832986712E0,-1.758974195E0
1.963445335E1,2.565157413E0,-1.425539494E0,-1.298992634E0
1.964447112E1,2.457034349E0,-1.288094878E0,-1.052814007E0
1.965453212E1,2.188864470E0,-1.484793425E0,-8.567262888E-1
1.966468612E1,1.906644821E0,-1.806719422E0,-7.101186514E-1
1.967444024E1,1.728883028E0,-2.057174444E0,-6.465886831E-1
1.968450320E1,1.620149016E0,-2.217221022E0,-5.916107893E-1
1.969446601E1,1.588384032E0,-2.330231190E0,-5.873347521E-1
1.970444862E1,1.728883028E0,-2.343059301E0,-6.349822283E-1
1.971443920E1,2.025763512E0,-2.211723328E0,-6.801862717E-1
1.972445600E1,2.217575073E0,-1.856199503E0,-7.119512558E-1
1.973444854E1,2.000107288E0,-1.426761270E0,-9.330844879E-1
1.974444008E1,1.694674492E0,-1.465245843E0,-1.207973719E0
1.975445281E1,1.488202095E0,-1.643618464E0,-1.302657843E0
1.976447677E1,1.369083405E0,-1.681492090E0,-1.336866379E0
1.977445600E1,1.207814932E0,-1.432259083E0,-1.412002802E0
1.978445031E1,1.031274915E0,-1.217234492E0,-1.418111444E0
1.979444693E1,9.372016788E-1,-8.629326820E-1,-1.374740005E0
1.980443677E1,9.561384916E-1,-4.170010686E-1,-1.286164522E0
1.981444847E1,1.027609706E0,6.924769282E-2,-1.152384996E0
1.982443601E1,1.083809257E0,5.212879777E-1,-9.892840385E-1
1.983444700E1,1.045935631E0,8.456574082E-1,-8.652784228E-1
1.984445908E1,9.433103204E-1,9.922651052E-1,-7.327206731E-1
1.985445935E1,8.076982498E-1,1.022808313E0,-5.396872163E-1
1.986445731E1,6.635340452E-1,9.769934416E-1,-3.057258129E-1
1.987444747E1,5.224241614E-1,8.700920343E-1,-6.993184984E-2
1.988444354E1,3.697078824E-1,7.381451726E-1,1.298210770E-1
1.989447174E1,1.937786639E-1,6.361306310E-1,2.941438556E-1
1.990451358E1,-1.293690503E-1,5.554964542E-1,4.786251187E-1
1.991477039E1,-3.902084827E-1,5.524421334E-1,5.714766383E-1
1.992444712E1,-6.657087207E-1,5.402247906E-1,6.545543075E-1
1.993445439E1,-9.509827495E-1,5.420573950E-1,7.309124470E-1
1.994446339E1,-1.230759144E0,5.958135724E-1,8.109357953E-1
1.995446197E1,-1.502594113E0,6.801129580E-1,8.732440472E-1
1.996445035E1,-1.765877128E0,7.741861939E-1,9.056199193E-1
1.997447724E1,-2.005336285E0,8.810876012E-1,9.331088662E-1
1.998446493E1,-2.189817667E0,9.629435539E-1,1.018019199E0
1.999445577E1,-2.227080345E0,1.017310619E0,1.152409554E0
2.000445027E1,-1.924702048E0,8.548204303E-1,1.231822014E0
2.001445024E1,-7.756644487E-1,3.734585643E-1,1.082159996E0
2.002445135E1,9.683558345E-1,3.673499227E-1,3.509542942E-1
2.003445816E1,3.136316538E0,1.606184721E0,-1.477365375E0
2.004444777E1,3.569419861E0,2.812032461E0,-2.733915091E0
2.005445674E1,2.716652155E0,1.793109417E0,-3.365549803E0
2.006446658E1,1.623203278E0,4.333233535E-1,-3.127312422E0
2.007445439E1,6.867469549E-1,-1.425539494E0,-2.152982235E0
2.008444612E1,-2.668137550E-1,-2.902611732E0,-1.030822873E0
2.009446589E1,-5.844636559E-1,-2.280750990E0,7.973013073E-2
2.010446631E1,1.223074347E-1,-8.201720715E-1,6.166806817E-1
2.011445689E1,1.081365824E0,-6.729535460E-1,2.025140375E-1
2.012446135E1,5.682390928E-1,-9.618928432E-1,-7.681508660E-1
2.013444327E1,-6.925867796E-1,-5.855998397E-1,-1.165213227E0
2.014448266E1,-1.317502022E0,6.239133477E-1,-7.095077634E-1
2.015443693E1,-6.712065339E-1,1.183465958E0,1.029430032E-1
2.016443262E1,5.737368464E-1,1.380775332E0,1.004580140E0
2.017446204E1,9.249843955E-1,6.245242357E-1,2.102304935E0
2.018443597E1,3.556579351E-1,-9.496755004E-1,2.313664436E0
2.019445266E1,-9.277698994E-1,-3.058993340E0,2.203097820E0
2.020443600E1,-2.160495996E0,-4.187871933E0,2.210428238E0
2.021449801E1,-2.568553925E0,-4.009499550E0,2.180495739E0
2.022445431E1,-2.411561728E0,-3.005848169E0,1.862234950E0
2.023455943E1,-2.090857506E0,-1.955770612E0,1.203722239E0
