"Time (s)","Acceleration x (m/s^2)","Acceleration y (m/s^2)","Acceleration z (m/s^2)"
0.000000000E0,1.226482391E-1,4.437296867E0,7.112524509E0
2.474948000E-3,7.713413239E-2,4.389387608E0,7.284998894E0
4.949843000E-3,1.082753539E-1,4.351059914E0,7.443100452E0
7.424843000E-3,1.513939500E-1,4.300755024E0,7.546106339E0
9.899843000E-3,1.849306822E-1,4.240867615E0,7.737744331E0
1.237479100E-2,2.376312017E-1,4.178585529E0,7.958128452E0
1.484979100E-2,2.903317213E-1,4.085161686E0,8.161744118E0
1.732479100E-2,3.957327604E-1,4.001319885E0,8.401291847E0
1.979973900E-2,4.364558458E-1,4.020483971E0,8.719890594E0
2.227473900E-2,4.891563654E-1,3.948619366E0,8.976206779E0
2.474973900E-2,5.107157230E-1,3.970178604E0,9.261268616E0
2.722468700E-2,5.083203316E-1,4.003715515E0,9.620591164E0
2.969968700E-2,5.729981661E-1,4.058811665E0,9.948770523E0
3.217468700E-2,6.712127924E-1,4.025274754E0,1.026497364E1
3.544572900E-2,7.191224098E-1,4.025274754E0,1.059315491E1
3.792072900E-2,8.317098618E-1,3.991737843E0,1.098361778E1
4.039567700E-2,1.030534506E0,3.924664497E0,1.130461216E1
4.287062500E-2,1.217381954E0,3.804890633E0,1.159925556E1
4.534567700E-2,1.440161467E0,3.721048832E0,1.183640766E1
4.782062500E-2,1.703664064E0,3.598879337E0,1.193222713E1
5.029562500E-2,1.912070751E0,3.414427757E0,1.208074665E1
5.277057300E-2,2.187550783E0,3.275490046E0,1.203283787E1
5.524557300E-2,2.412725687E0,3.074269772E0,1.209751511E1
5.772052000E-2,2.601968527E0,2.865862846E0,1.198971844E1
6.019552000E-2,2.664251089E0,2.686202288E0,1.185078049E1
6.267052000E-2,2.779233932E0,2.532891512E0,1.167351532E1
6.584083300E-2,2.762465477E0,2.401140213E0,1.149625015E1
6.831583300E-2,2.728928804E0,2.286157370E0,1.115609169E1
7.079083300E-2,2.616341352E0,2.252620697E0,1.093570805E1
7.326578100E-2,2.458239794E0,2.298134804E0,1.067220592E1
7.574078100E-2,2.278578758E0,2.367603540E0,1.035839748E1
7.821578100E-2,2.017471790E0,2.444258928E0,1.014519978E1
8.069072900E-2,1.758759975E0,2.544868946E0,9.785879135E0
8.316572900E-2,1.449743271E0,2.731716156E0,9.594240189E0
8.564067700E-2,1.186240673E0,2.880235910E0,9.397810936E0
8.811567700E-2,9.011788368E-1,3.021569252E0,9.201381683E0
9.059062500E-2,6.185122728E-1,3.153320551E0,9.009743690E0
9.306562500E-2,4.148966074E-1,3.323399544E0,8.887574196E0
9.620640600E-2,2.424221635E-1,3.452755213E0,8.715099335E0
9.868140600E-2,7.473868132E-2,3.548574448E0,8.523461342E0
1.011563540E-1,-1.025267541E-1,3.620438576E0,8.451597214E0
1.036313540E-1,-2.510464191E-1,3.692303181E0,8.398897171E0
1.061063540E-1,-3.732157946E-1,3.728235483E0,8.365360260E0
1.085813020E-1,-4.139389396E-1,3.766562939E0,8.420455933E0
1.110563020E-1,-4.642440081E-1,3.704280376E0,8.566579819E0
1.135312500E-1,-4.043570161E-1,3.689907789E0,8.643235207E0
1.160062500E-1,-3.181198239E-1,3.689907789E0,8.815710068E0
1.184812500E-1,-2.246961594E-1,3.651579857E0,8.947461128E0
1.209561980E-1,-1.264815331E-1,3.663557529E0,9.033698082E0
1.234312500E-1,-4.263979197E-2,3.538992405E0,9.208567619E0
1.266232810E-1,5.078393221E-2,3.543783426E0,9.170240402E0
1.290983330E-1,1.657668352E-1,3.550969839E0,9.246895790E0
1.315732810E-1,3.094955087E-1,3.536597013E0,9.493629456E0
1.340482810E-1,5.059248209E-1,3.546179056E0,9.649335861E0
1.365232290E-1,6.209077835E-1,3.613252401E0,9.800251961E0
1.389982290E-1,7.790094614E-1,3.689907789E0,9.896070480E0
1.414731770E-1,9.514837265E-1,3.689907789E0,9.867324829E0
1.439481770E-1,1.131144643E0,3.613252401E0,9.934397697E0
1.464231770E-1,1.253314137E0,3.512642145E0,9.920024872E0
1.488981770E-1,1.411415696E0,3.344958782E0,9.860138893E0
1.513731250E-1,1.550353527E0,3.210811853E0,9.881697655E0
1.538481250E-1,1.670127392E0,3.103015423E0,9.934397697E0
1.570288020E-1,1.806669474E0,2.997614384E0,9.912838936E0
1.595038020E-1,1.904884338E0,2.923354387E0,9.826601982E0
1.619788020E-1,2.000703335E0,2.880235910E0,9.891280174E0
1.644537500E-1,2.058194876E0,2.873049498E0,9.833787918E0
1.669287500E-1,2.098917961E0,2.774834871E0,9.874510765E0
1.694037500E-1,2.103708982E0,2.758066416E0,9.946375847E0
1.718786980E-1,2.110895395E0,2.762857437E0,9.979911804E0
1.743536450E-1,2.146827459E0,2.753275633E0,1.005177689E1
1.768286980E-1,2.120477200E0,2.712552547E0,1.021945953E1
1.793036450E-1,2.158805132E0,2.667038441E0,1.028413773E1
1.817786450E-1,2.154014111E0,2.683806658E0,1.038714409E1
1.842535930E-1,2.165991545E0,2.676620245E0,1.051170921E1
1.873777080E-1,2.055799246E0,2.671829224E0,1.057399082E1
1.898527080E-1,2.007889748E0,2.736507177E0,1.060034084E1
1.923276560E-1,1.897697687E0,2.772439480E0,1.067460060E1
1.948026560E-1,1.797087669E0,2.808371782E0,1.069376469E1
1.972776560E-1,1.710850477E0,2.853885651E0,1.071532345E1
1.997526040E-1,1.624613285E0,2.937727451E0,1.068657875E1
2.022276040E-1,1.516816854E0,2.997614384E0,1.065543652E1
2.047025520E-1,1.365901470E0,3.045523882E0,1.061231899E1
2.071776040E-1,1.298828125E0,3.067083120E0,1.055243206E1
2.096525520E-1,1.193427205E0,3.117388248E0,1.049014854E1
2.121275520E-1,1.150308490E0,3.112597466E0,1.047338104E1
2.146025000E-1,1.078444123E0,3.162902355E0,1.039193439E1
2.177964060E-1,1.047302961E0,3.213207483E0,1.029372025E1
2.202714060E-1,1.016161799E0,3.213207483E0,1.010687256E1
2.227464060E-1,9.251335859E-1,3.206020832E0,1.014040947E1
2.252213540E-1,8.963878155E-1,3.150924921E0,1.010926819E1
2.276963540E-1,8.868058920E-1,3.186857224E0,9.975120544E0
2.301713540E-1,9.323199987E-1,3.162902355E0,9.920024872E0
2.326463020E-1,9.993934631E-1,3.201230049E0,9.867324829E0
2.351212500E-1,1.047302961E0,3.186857224E0,9.790669441E0
2.375963020E-1,1.095212579E0,3.170089006E0,9.709222794E0
2.400712500E-1,1.145517588E0,3.182066202E0,9.596635818E0
2.425461980E-1,1.219777346E0,3.172484159E0,9.522376060E0
2.450211980E-1,1.277268887E0,3.150924921E0,9.484047890E0
2.481786450E-1,1.387460947E0,3.143738508E0,9.409789085E0
2.506536450E-1,1.432975054E0,3.136552095E0,9.325946808E0
2.531285930E-1,1.468907118E0,3.141343117E0,9.232522964E0
2.556035930E-1,1.528794050E0,3.105411053E0,9.222940445E0
2.580785930E-1,1.598263025E0,3.105411053E0,9.127121925E0
2.605535410E-1,1.612635851E0,3.119783640E0,9.048070908E0
2.630285410E-1,1.631799698E0,3.167693377E0,9.050466537E0
2.655034890E-1,1.713246107E0,3.146133900E0,8.925901413E0
2.679784890E-1,1.734805346E0,3.213207483E0,8.935483932E0
2.704534890E-1,1.734805346E0,3.167693377E0,8.947461128E0
2.729284370E-1,1.763550997E0,3.177275181E0,8.885178566E0
2.754034370E-1,1.720432520E0,3.215602875E0,8.947461128E0
2.785610930E-1,1.758759975E0,3.182066202E0,8.959438324E0
2.810360930E-1,1.773133039E0,3.179670811E0,8.913925171E0
2.835110410E-1,1.753968954E0,3.244348764E0,8.985788345E0
2.859860410E-1,1.758759975E0,3.229975700E0,9.021720886E0
2.884610410E-1,1.768342018E0,3.227580309E0,9.067234993E0
2.909359890E-1,1.749177933E0,3.196439266E0,9.119935989E0
2.934109890E-1,1.751573563E0,3.239557743E0,9.163053513E0
2.958859370E-1,1.722827673E0,3.251535177E0,9.198986053E0
2.983609370E-1,1.749177933E0,3.227580309E0,9.256477356E0
3.008359370E-1,1.739596367E0,3.261116982E0,9.323551178E0
3.033108850E-1,1.720432520E0,3.265908003E0,9.345110893E0
3.057858850E-1,1.694082022E0,3.237162113E0,9.388228416E0
3.089420310E-1,1.672522783E0,3.241953135E0,9.397810936E0
3.114170310E-1,1.643777132E0,3.244348764E0,9.455303192E0
3.138919790E-1,1.615031242E0,3.232371092E0,9.460093498E0
3.163669790E-1,1.600658417E0,3.229975700E0,9.515190125E0
3.188419790E-1,1.670127392E0,3.213207483E0,9.433742523E0
3.213169270E-1,1.612635851E0,3.184461594E0,9.486443520E0
3.237919270E-1,1.650963545E0,3.134156704E0,9.498420715E0
3.262668750E-1,1.615031242E0,3.119783640E0,9.460093498E0
3.287418750E-1,1.660545588E0,3.055105925E0,9.412183762E0
3.312168750E-1,1.701268435E0,3.009591579E0,9.325946808E0
3.336918230E-1,1.730014324E0,2.992823362E0,9.297201157E0
3.361668750E-1,1.730014324E0,2.983241558E0,9.321155548E0
3.393291660E-1,1.741991758E0,2.925750017E0,9.163053513E0
3.418041660E-1,1.696477413E0,2.920958996E0,9.124727249E0
3.442791140E-1,1.739596367E0,2.928145409E0,9.045676231E0
3.467541140E-1,1.785110235E0,2.916168213E0,9.000162125E0
3.492291140E-1,1.763550997E0,2.894608736E0,8.933087349E0
3.517040620E-1,1.763550997E0,2.925750017E0,8.887574196E0
3.541790620E-1,1.751573563E0,2.959286690E0,8.806127548E0
3.566540100E-1,1.696477413E0,2.990427971E0,8.727076530E0
3.591290100E-1,1.739596367E0,2.992823362E0,8.705517769E0
3.616040100E-1,1.682104826E0,3.000010014E0,8.664794922E0
3.640789580E-1,1.627008677E0,3.033546448E0,8.628862381E0
3.665539580E-1,1.622217894E0,3.052710533E0,8.583347321E0
3.697117180E-1,1.610240221E0,3.069478750E0,8.525856972E0
3.721867180E-1,1.595867634E0,3.100620031E0,8.537834167E0
3.746616660E-1,1.535980463E0,3.138947725E0,8.437223434E0
3.771366660E-1,1.564726353E0,3.150924921E0,8.477947235E0
3.796116660E-1,1.615031242E0,3.203625441E0,8.398897171E0
3.820866140E-1,1.586285591E0,3.184461594E0,8.365360260E0
3.845616140E-1,1.538376093E0,3.191648245E0,8.386919022E0
3.870365620E-1,1.569517374E0,3.229975700E0,8.303077698E0
3.895115620E-1,1.545562506E0,3.232371092E0,8.322240829E0
3.919865620E-1,1.552748919E0,3.196439266E0,8.310263634E0
3.944615100E-1,1.466511726E0,3.210811853E0,8.365360260E0
3.969365100E-1,1.466511726E0,3.285071611E0,8.422850609E0
4.000918230E-1,1.442556858E0,3.263512373E0,8.355777740E0
4.025668230E-1,1.430579424E0,3.246744156E0,8.377337456E0
4.050417700E-1,1.466511726E0,3.232371092E0,8.394105911E0
4.075167700E-1,1.394647241E0,3.170089006E0,8.410873413E0
4.099917700E-1,1.329969406E0,3.191648245E0,8.453992844E0
4.124667700E-1,1.339551330E0,3.162902355E0,8.470760345E0
4.149417180E-1,1.303619146E0,3.160506964E0,8.537834167E0
4.174166660E-1,1.274873376E0,3.126970291E0,8.597721100E0
4.198916660E-1,1.322782993E0,3.119783640E0,8.583347321E0
4.223666660E-1,1.322782993E0,3.076665163E0,8.607302666E0
4.248416140E-1,1.363506198E0,3.038337469E0,8.695936203E0
4.273166140E-1,1.406624794E0,3.031151295E0,8.614489555E0
4.304738540E-1,1.471302748E0,3.026360273E0,8.741449356E0
4.329488540E-1,1.600658417E0,3.076665163E0,8.731867790E0
4.354238020E-1,1.627008677E0,3.074269772E0,8.741449356E0
4.378988020E-1,1.684500217E0,3.047919512E0,8.789360046E0
4.403738020E-1,1.751573563E0,3.074269772E0,8.791754723E0
4.428488020E-1,1.821042538E0,3.158111334E0,8.844455719E0
4.453237500E-1,1.868952036E0,3.244348764E0,8.856432915E0
4.477986980E-1,1.900093317E0,3.253930807E0,8.820500374E0
4.502736980E-1,1.962375879E0,3.261116982E0,8.815710068E0
4.527486980E-1,2.046217442E0,3.347354174E0,8.801337242E0
4.552236450E-1,2.072567701E0,3.340167761E0,8.813313484E0
4.576986450E-1,2.125268221E0,3.356936216E0,8.827686310E0
4.608618230E-1,2.197132587E0,3.383286476E0,8.834874153E0
4.633368230E-1,2.204319000E0,3.376099825E0,8.794150352E0
4.658118230E-1,2.228273869E0,3.404845715E0,8.858828545E0
4.682867700E-1,2.259414911E0,3.445569038E0,8.861224174E0
4.707617700E-1,2.297742844E0,3.431195974E0,8.856432915E0
4.732367180E-1,2.221087456E0,3.476710081E0,8.945065498E0
4.757117180E-1,2.182759762E0,3.457546234E0,8.940275192E0
4.781866660E-1,2.154014111E0,3.464732647E0,9.009743690E0
4.806616660E-1,2.007889748E0,3.534201384E0,9.045676231E0
4.831366660E-1,1.890511274E0,3.594088554E0,9.067234993E0
4.856116140E-1,1.861765623E0,3.524619579E0,9.074421883E0
4.880866140E-1,1.871347427E0,3.371309042E0,9.136703491E0
4.912451040E-1,1.890511274E0,3.282676458E0,9.124727249E0
4.937201040E-1,1.883325100E0,3.131761074E0,9.127121925E0
4.961950520E-1,1.890511274E0,2.973659754E0,9.134308815E0
4.986700520E-1,1.914466381E0,2.793998718E0,9.155867577E0
5.011450520E-1,1.959980249E0,2.578405619E0,9.086399078E0
5.036200000E-1,2.003098726E0,2.496959448E0,9.095980644E0
5.060950000E-1,2.027053595E0,2.355626345E0,9.105563164E0
5.085699480E-1,2.031844616E0,2.278970957E0,9.093585014E0
5.110449480E-1,1.983935118E0,2.350835323E0,9.052862167E0
5.135199480E-1,1.945607185E0,2.367603540E0,9.093585014E0
5.159948950E-1,2.091731548E0,2.187942743E0,9.079213142E0
5.184698950E-1,2.137245893E0,2.034632206E0,9.057652473E0
5.216105730E-1,2.206714630E0,2.072959661E0,9.026512146E0
5.240855730E-1,2.319302082E0,2.044214010E0,8.973811150E0
5.265605730E-1,2.441471577E0,2.056191444E0,9.007348061E0
5.290355200E-1,2.518126726E0,2.068168640E0,9.052862167E0
5.315105200E-1,2.654669046E0,2.116078377E0,9.084002495E0
5.339855200E-1,2.841516256E0,2.204710960E0,9.129517555E0
5.364604680E-1,2.975662947E0,2.269388914E0,9.160658836E0
5.389354680E-1,3.152928591E0,2.334066868E0,9.153471947E0
5.414104680E-1,3.320611954E0,2.463422775E0,9.182217598E0
5.438854160E-1,3.555368900E0,2.587987661E0,9.198986053E0
5.463604160E-1,3.569741726E0,2.458631754E0,9.215754509E0
5.488354160E-1,3.869176388E0,1.121954679E0,8.777381897E0
5.520113540E-1,4.190170765E0,-2.080800056E0,7.467055321E0
5.544863540E-1,4.281198978E0,-2.847353220E0,5.838129997E0
5.569613020E-1,4.223707676E0,-3.000663757E0,4.875147343E0
5.594363020E-1,3.945832253E0,-2.785070896E0,4.973362446E0
5.619113020E-1,3.485899925E0,-2.418562651E0,5.287169933E0
5.643862500E-1,2.867866516E0,-2.006540298E0,5.490785122E0
5.668612500E-1,2.336070299E0,-1.584936142E0,5.567440987E0
5.693361980E-1,2.316906452E0,-1.101049185E0,6.056118488E0
5.718111980E-1,2.463030815E0,-3.249142766E-1,7.220320702E0
5.742861980E-1,2.635505199E0,4.368479252E-1,8.372546196E0
5.767611450E-1,2.839120865E0,9.183391333E-1,8.758217812E0
5.792361450E-1,3.370917082E0,1.241728663E0,8.992975235E0
5.823691660E-1,3.941040993E0,1.440553427E0,9.153471947E0
5.848441660E-1,4.458464622E0,1.464508176E0,9.112749100E0
5.873191140E-1,4.760294437E0,1.359107137E0,9.014534950E0
5.897941140E-1,4.959119320E0,1.177050829E0,9.024116516E0
5.922691140E-1,4.834554672E0,9.494802952E-1,9.167844772E0
5.947441140E-1,4.575842857E0,5.662037730E-1,9.479256630E0
5.972190620E-1,4.283594608E0,2.164638638E-1,9.828996658E0
5.996940100E-1,3.929063320E0,-8.057540655E-2,1.036558342E1
6.021690100E-1,3.569741726E0,-3.536599874E-1,1.091175365E1
6.046440100E-1,3.385290146E0,-5.788349509E-1,1.127347088E1
6.071189580E-1,3.409244776E0,-6.435129046E-1,1.158967400E1
6.095939580E-1,3.236770391E0,-1.692081690E-1,1.171184254E1
6.127755730E-1,3.526623249E0,-7.578450441E-2,1.166393375E1
6.152505730E-1,3.881154060E0,-2.171177268E-1,1.171663380E1
6.177255200E-1,4.096746922E0,-3.776147962E-1,1.184599018E1
6.202005200E-1,4.319526672E0,-4.494791031E-1,1.204481506E1
6.226755200E-1,4.468046188E0,-5.381118655E-1,1.215021610E1
6.251504680E-1,4.654893398E0,-5.141571164E-1,1.206397915E1
6.276254680E-1,4.846531868E0,-5.141571164E-1,1.191306400E1
6.301004160E-1,5.064520359E0,-5.644621253E-1,1.171423912E1
6.325754160E-1,5.325627327E0,-6.123717427E-1,1.138845348E1
6.350504160E-1,5.567571163E0,-6.794450879E-1,1.104589939E1
6.375254160E-1,5.807118416E0,-7.537048459E-1,1.076802444E1
6.400004160E-1,6.080203533E0,-7.920326591E-1,1.049014854E1
6.431491140E-1,6.394011021E0,-8.303602338E-1,1.028892899E1
6.456241140E-1,6.703027725E0,-8.878517747E-1,1.008291817E1
6.480990620E-1,6.803637981E0,-9.357612729E-1,9.910444260E0
6.505740620E-1,6.374846935E0,-9.477385879E-1,9.675686836E0
6.530490620E-1,5.682554245E0,-8.303602338E-1,9.517584801E0
6.555240100E-1,5.177107811E0,-6.315354705E-1,9.388228416E0
6.579990100E-1,4.856113911E0,-4.997841716E-1,9.225337029E0
6.604739580E-1,4.535119534E0,-3.321006894E-1,8.935483932E0
6.629489580E-1,4.259639740E0,-2.530499101E-1,8.580952644E0
6.654239580E-1,3.943436623E0,-2.027449012E-1,8.247981071E0
6.678989060E-1,3.648792744E0,-1.332759857E-1,7.977292061E0
6.703739060E-1,3.255934000E0,-7.099354267E-2,7.723371506E0
6.735447910E-1,2.812770605E0,-6.141161919E-2,7.488614559E0
6.760197910E-1,2.446262360E0,-7.338899374E-2,7.347281456E0
6.784947390E-1,2.127663851E0,-1.500443220E-1,7.158038616E0
6.809697390E-1,1.974353075E0,-2.650272846E-1,7.016705513E0
6.834447390E-1,1.940816641E0,-4.398972392E-1,6.846626282E0
6.859196870E-1,1.983935118E0,-7.057953477E-1,6.537609577E0
6.883946870E-1,2.295347214E0,-9.764843583E-1,6.192660809E0
6.908696350E-1,2.633109808E0,-1.328619719E0,5.795011520E0
6.933446350E-1,2.982849598E0,-1.656800270E0,5.402153015E0
6.958196350E-1,3.380499125E0,-2.030495167E0,4.899102211E0
6.982946350E-1,3.718261719E0,-2.533545494E0,4.525407791E0
7.007695830E-1,4.041651249E0,-2.943172216E0,4.228368282E0
7.039281250E-1,4.305153370E0,-3.458200216E0,3.916956186E0
7.064031250E-1,4.480023384E0,-3.958855152E0,3.708549738E0
7.088780730E-1,4.530328751E0,-4.402018547E0,3.689385891E0
7.113530730E-1,4.415345669E0,-4.797272682E0,3.742086411E0
7.138280730E-1,4.199752331E0,-5.226063728E0,3.780414104E0
7.163030200E-1,3.964995384E0,-5.434470177E0,3.962470531E0
7.187780200E-1,3.449967861E0,-5.532684326E0,4.216390610E0
7.212529680E-1,2.788815737E0,-5.314695835E0,4.453543186E0
7.237279680E-1,2.290556192E0,-4.677498341E0,4.858379364E0
7.262029680E-1,1.962375879E0,-4.016346455E0,5.284774303E0
7.286779160E-1,1.732409716E0,-3.383940220E0,5.732728958E0
7.311529160E-1,1.753968954E0,-2.837771416E0,6.089655399E0
7.343110930E-1,1.890511274E0,-2.447308302E0,6.319621086E0
7.367860930E-1,2.060590267E0,-2.214946747E0,6.480118275E0
7.392610410E-1,2.321697474E0,-2.078404665E0,6.573541641E0
7.417360410E-1,2.628318787E0,-2.040076971E0,6.683733940E0
7.442110410E-1,2.819957018E0,-2.090382099E0,6.753202915E0
7.466859890E-1,3.047527552E0,-2.138291597E0,6.698106766E0
7.491609890E-1,3.272702456E0,-2.205364943E0,6.575937271E0
7.516359370E-1,3.337380171E0,-2.341907263E0,6.532818794E0
7.541109370E-1,3.325402975E0,-2.392212391E0,6.439394951E0
7.565859370E-1,3.308634758E0,-2.488031387E0,6.393880844E0
7.590608850E-1,3.251143217E0,-2.624573708E0,6.379508018E0
7.615358850E-1,3.078668833E0,-2.674878836E0,6.235779285E0
7.646907290E-1,2.870262146E0,-2.662901402E0,6.151937962E0
7.671657290E-1,2.709764957E0,-2.758720636E0,6.092050552E0
7.696406770E-1,2.573222876E0,-2.888076305E0,5.902807713E0
7.721156770E-1,2.486985445E0,-2.914426565E0,5.742311001E0
7.745906770E-1,2.482194424E0,-2.737161398E0,5.651282787E0
7.770656250E-1,2.527708769E0,-2.892867327E0,5.569836140E0
7.795406250E-1,2.630714178E0,-3.460595846E0,5.363825321E0
7.820155730E-1,2.891821384E0,-3.697748184E0,5.263215065E0
7.844905730E-1,3.267911434E0,-4.018742085E0,5.090740681E0
7.869655730E-1,3.576928139E0,-4.373272896E0,5.033249378E0
7.894405200E-1,3.708679676E0,-4.528978825E0,4.930243492E0
7.919155200E-1,3.562555313E0,-4.600843430E0,4.863170147E0
7.950774480E-1,3.349357843E0,-4.620007038E0,4.796096802E0
7.975524480E-1,3.033154488E0,-4.677498341E0,4.700277805E0
8.000273950E-1,2.726533175E0,-4.591261387E0,4.637995243E0
8.025023950E-1,2.491776466E0,-4.519397259E0,4.652367592E0
8.049773950E-1,2.312115431E0,-4.476278782E0,4.724232197E0
8.074523430E-1,2.199527979E0,-4.356504440E0,4.827237606E0
8.099273430E-1,2.170782328E0,-4.272663116E0,5.050017357E0
8.124022910E-1,2.314511061E0,-4.052278996E0,5.363825321E0
8.148773430E-1,2.563640833E0,-3.886991024E0,5.888434887E0
8.173522910E-1,2.752883434E0,-3.958855152E0,6.008208752E0
8.198272390E-1,2.963685751E0,-4.210380554E0,5.241655827E0
8.223022390E-1,3.133764744E0,-4.378064156E0,4.688300133E0
8.254617700E-1,3.191256285E0,-4.596052647E0,4.580503941E0
8.279367700E-1,3.390080929E0,-4.711035728E0,4.506243706E0
8.304117180E-1,3.694306374E0,-4.732594490E0,4.391260624E0
8.328867180E-1,4.024882317E0,-4.672708035E0,4.237950325E0
8.353617180E-1,4.274012566E0,-4.538560867E0,4.161294937E0
8.378366660E-1,4.444091320E0,-4.478673935E0,4.288255215E0
8.403116660E-1,4.633334160E0,-4.445137501E0,4.441565990E0
8.427866140E-1,4.894441605E0,-4.318177223E0,4.597271919E0
8.452616140E-1,5.054938316E0,-4.318177223E0,4.733814240E0
8.477366140E-1,5.256158352E0,-4.306199551E0,4.906288624E0
8.502115620E-1,5.438215256E0,-4.222358227E0,5.162604809E0
8.526865620E-1,5.706508636E0,-4.145702362E0,5.342265606E0
8.558437500E-1,6.061039448E0,-3.999578476E0,5.591395855E0
8.583187500E-1,6.362869740E0,-3.958855152E0,5.859689236E0
8.607936980E-1,6.631163597E0,-4.057070255E0,6.065700054E0
8.632686980E-1,7.026417732E0,-4.001974106E0,6.341180325E0
8.657436980E-1,7.385738850E0,-4.013950825E0,6.561564445E0
8.682186450E-1,7.563004971E0,-4.088211060E0,6.791530132E0
8.706936450E-1,7.836088657E0,-4.119351864E0,7.069405556E0
8.731686450E-1,7.939095020E0,-4.339736462E0,7.196366310E0
8.756436450E-1,8.193014145E0,-4.373272896E0,7.287394047E0
8.781185930E-1,8.473285675E0,-4.677498341E0,6.928072929E0
8.805935410E-1,8.743974686E0,-4.821227551E0,6.611869335E0
8.830685410E-1,8.938009262E0,-4.608029842E0,7.031078339E0
8.862276040E-1,9.230258942E0,-4.466696739E0,7.392795086E0
8.887026040E-1,9.462619781E0,-4.440346718E0,7.512569427E0
8.911775520E-1,9.503341675E0,-4.536165714E0,7.217925072E0
8.936525520E-1,9.400335312E0,-4.797272682E0,6.654988289E0
8.961275520E-1,9.278167725E0,-4.581679344E0,7.064614773E0
8.986025000E-1,9.318889618E0,-4.320572376E0,7.471846104E0
9.010775000E-1,9.515319824E0,-4.155284405E0,7.605992794E0
9.035524480E-1,9.857873917E0,-3.939691544E0,7.644320965E0
9.060274480E-1,1.024354553E1,-3.601929188E0,7.594015598E0
9.085024480E-1,1.066035843E1,-3.367172003E0,7.479032993E0
9.109773950E-1,1.104123878E1,-3.173138380E0,7.263439655E0
9.134523950E-1,1.141732979E1,-2.849748611E0,7.160433769E0
9.166106250E-1,1.165448189E1,-2.509590864E0,6.956818104E0
9.190856250E-1,1.185570145E1,-2.282020330E0,6.616660118E0
9.215605730E-1,1.189882088E1,-1.929884911E0,6.254943371E0
9.240355730E-1,1.182935143E1,-1.901139259E0,5.706378937E0
9.265105730E-1,1.166645813E1,-2.011331320E0,4.944616318E0
9.289855200E-1,1.146763420E1,-2.179014921E0,4.216390610E0
9.314605200E-1,1.123048210E1,-2.507195234E0,3.651058197E0
9.339355200E-1,1.092146492E1,-2.995872736E0,3.397137642E0
9.364104680E-1,1.049027824E1,-3.599533558E0,3.382764578E0
9.388854680E-1,9.960878372E0,-4.239126205E0,3.550447941E0
9.413604160E-1,9.390754700E0,-4.854763985E0,3.931329250E0
9.438354160E-1,8.878122330E0,-5.503939152E0,4.324187279E0
9.469936980E-1,8.454122543E0,-6.033339500E0,4.621226788E0
9.494686980E-1,8.219366074E0,-6.454944134E0,4.882333755E0
9.519436450E-1,8.169061661E0,-6.735215187E0,5.203328133E0
9.544186450E-1,8.221761703E0,-6.850197792E0,5.553067684E0
9.568936450E-1,8.353511810E0,-6.761565208E0,5.862084866E0
9.593686450E-1,8.703252792E0,-6.632208824E0,6.228592873E0
9.618435930E-1,9.127252579E0,-6.426198006E0,6.401067257E0
9.643185410E-1,9.539274216E0,-6.356729031E0,6.537609577E0
9.667935410E-1,9.867454529E0,-6.265701294E0,6.748411655E0
9.692685410E-1,1.000639343E1,-6.270492077E0,6.949631691E0
9.717434890E-1,1.005430222E1,-6.342356682E0,7.014309883E0
9.742184890E-1,1.009023476E1,-6.385475159E0,7.014309883E0
9.773722910E-1,1.022917175E1,-6.442966461E0,7.011914253E0
9.798472910E-1,1.069389534E1,-6.208209515E0,6.872976780E0
9.823222390E-1,1.078731918E1,-6.109994888E0,6.978377819E0
9.847972390E-1,1.048069763E1,-6.177068710E0,7.153247833E0
9.872722390E-1,1.018605232E1,-6.133949757E0,7.213134766E0
9.897472390E-1,9.829126358E0,-6.162695408E0,7.181993484E0
9.922221870E-1,9.282957077E0,-6.349542618E0,7.191575050E0
9.946971350E-1,8.803861618E0,-6.629813671E0,7.282603264E0
9.971721350E-1,8.365489960E0,-6.910084724E0,7.306558132E0
9.996471350E-1,8.044496536E0,-7.168796539E0,7.340094566E0
1.002122083E0,7.725897312E0,-7.370016575E0,7.244275570E0
1.004597083E0,7.574982166E0,-7.604773998E0,7.059823990E0
1.007756093E0,7.728292942E0,-7.731733799E0,6.734038830E0
1.010231093E0,8.200202942E0,-7.599982738E0,6.293270588E0
1.012706041E0,8.796676636E0,-7.427507877E0,6.118400574E0
1.015181041E0,9.096111298E0,-7.243055820E0,6.204638481E0
1.017656041E0,9.282957077E0,-7.058604717E0,6.242965698E0
1.020130989E0,9.441059113E0,-6.835824966E0,6.381903172E0
1.022605989E0,9.757263184E0,-6.589090347E0,6.463349819E0
1.025080937E0,1.021719551E1,-6.368706703E0,6.537609577E0
1.027555937E0,1.134546471E1,-6.277678490E0,6.638219833E0
1.030030937E0,1.634243202E1,-6.196231842E0,7.090965271E0
1.032505885E0,1.835463524E1,-5.664435863E0,7.893450260E0
1.034980885E0,1.853429604E1,-4.842786789E0,8.355777740E0
1.038143854E0,1.864688301E1,-4.085815430E0,8.782173157E0
1.040618854E0,1.842410469E1,-3.446222782E0,8.940275192E0
1.043093802E0,1.783002472E1,-2.964731455E0,9.050466537E0
1.045568802E0,1.724073601E1,-2.626969099E0,9.057652473E0
1.048043802E0,1.618912315E1,-2.583850622E0,9.052862167E0
1.050518802E0,1.492191315E1,-2.919217587E0,8.736659050E0
1.052993750E0,1.333131790E1,-3.554019451E0,7.395190716E0
1.055468750E0,1.088313866E1,-4.162471294E0,5.373407364E0
1.057943698E0,9.479387283E0,-4.085815430E0,2.901273489E0
1.060418698E0,9.764448166E0,-3.067737341E0,-9.003509283E-1
1.062893645E0,1.363314629E1,-3.422268152E0,-2.045389652E0
1.065368645E0,1.697244453E1,-3.815126419E0,-3.113772869E0
1.068523020E0,1.785158539E1,-4.272663116E0,-4.151015282E0
1.070998020E0,1.686225319E1,-4.660730362E0,-4.563037872E0
1.073472968E0,1.523811722E1,-5.123057365E0,-4.261207581E0
1.075947968E0,1.322831154E1,-5.652458668E0,-3.547354698E0
1.078422968E0,1.095979309E1,-6.107599735E0,-2.550835609E0
1.080897916E0,9.021850586E0,-6.402243614E0,-1.604621649E0
1.083372916E0,7.819321156E0,-6.404638767E0,-9.602379203E-1
1.085847864E0,7.261174202E0,-6.342356682E0,-5.434246659E-1
1.088322864E0,7.146191120E0,-6.359124660E0,-2.871084809E-1
1.090797864E0,7.124631882E0,-6.605859280E0,-1.888938546E-1
1.093272812E0,6.971321583E0,-6.996322155E0,4.107209668E-2
1.095747812E0,6.748541832E0,-7.214310646E0,4.195576906E-1
1.098905208E0,6.532948494E0,-7.573632717E0,8.243935704E-1
1.101380208E0,6.343706131E0,-7.892231464E0,1.298698306E0
1.103855156E0,5.993966103E0,-8.177292824E0,1.705929637E0
1.106330156E0,5.804723263E0,-8.388094902E0,2.072438002E0
1.108805156E0,5.699322224E0,-8.450376511E0,2.441341639E0
1.111280104E0,5.560384750E0,-8.368930817E0,2.815036297E0
1.113755104E0,5.363955021E0,-8.246761322E0,3.097702742E0
1.116230052E0,5.280113697E0,-8.146151543E0,3.351623535E0
1.118705052E0,5.282508850E0,-7.959304333E0,3.574403048E0
1.121180052E0,5.244181633E0,-7.827553272E0,3.703758717E0
1.123655000E0,5.296882153E0,-7.702988148E0,3.686990499E0
1.126130000E0,5.277718067E0,-7.662265301E0,3.615126133E0
1.129291875E0,5.225017548E0,-7.544886112E0,3.421092272E0
1.131766875E0,5.131594181E0,-7.429903507E0,3.231849432E0
1.134241823E0,5.133989334E0,-7.252637863E0,3.016256571E0
1.136716823E0,5.100452423E0,-7.070581913E0,2.874923229E0
1.139191823E0,5.023797035E0,-6.790310860E0,2.688075781E0
1.141666770E0,4.906418800E0,-6.452548504E0,2.508414984E0
1.144141770E0,4.719571590E0,-6.105204105E0,2.501228571E0
1.146616718E0,4.563865662E0,-5.789000988E0,2.537160873E0
1.149091718E0,4.453673363E0,-5.417701721E0,2.513206005E0
1.151566718E0,4.345877171E0,-5.115871429E0,2.513206005E0
1.154041666E0,4.144656658E0,-4.883510113E0,2.450923443E0
1.156516666E0,3.964995384E0,-4.718222141E0,2.395827532E0
1.159674375E0,3.785335064E0,-4.459509850E0,2.544347286E0
1.162149375E0,3.744611740E0,-4.255894661E0,2.568301916E0
1.164624375E0,3.605674267E0,-4.212776184E0,2.549138069E0
1.167099323E0,2.527708769E0,-5.927938461E0,1.986200690E0
1.169574323E0,2.633109808E0,-6.308819771E0,2.208980322E0
1.172049270E0,3.864385605E0,-4.418787003E0,3.035420179E0
1.174524270E0,4.377017975E0,-3.479759693E0,3.466606379E0
1.176999218E0,5.380723476E0,-2.440121889E0,4.259509563E0
1.179474218E0,6.283819199E0,-1.467557669E0,4.623622417E0
1.181949218E0,6.314960003E0,-1.412461519E0,4.372097015E0
1.184424166E0,5.953243256E0,-1.874788761E0,3.914560795E0
1.186899166E0,5.349582672E0,-2.753929615E0,3.205499172E0
1.190060833E0,4.832159042E0,-3.333635330E0,2.968346834E0
1.192535833E0,4.525537491E0,-3.939691544E0,2.850968599E0
1.195010781E0,4.482419014E0,-4.761340618E0,3.042606831E0
1.197485781E0,4.611774921E0,-5.566221714E0,3.818741798E0
1.199960781E0,4.642916203E0,-6.275282860E0,4.185249805E0
1.202435729E0,4.520747185E0,-6.890921116E0,4.099012375E0
1.204910729E0,4.475232601E0,-7.417925835E0,3.854674101E0
1.207385677E0,4.432114124E0,-7.712569714E0,3.643871784E0
1.209860677E0,4.369831562E0,-7.901813030E0,3.469001770E0
1.212335677E0,4.247662067E0,-8.325812340E0,3.356414318E0
1.214810677E0,4.017696381E0,-9.149856567E0,3.231849432E0
1.217285625E0,4.209334373E0,-8.986964226E0,3.514516115E0
1.220440260E0,4.139865398E0,-9.061223984E0,3.631894588E0
1.222915260E0,4.216521263E0,-9.293585777E0,3.780414104E0
1.225390208E0,4.420136452E0,-9.355867386E0,4.089430332E0
1.227865208E0,4.326713085E0,-9.621765137E0,4.422402382E0
1.230340208E0,4.218916416E0,-9.856522560E0,3.806764364E0
1.232815156E0,4.036859989E0,-1.007690620E1,3.267781734E0
1.235290156E0,3.936250210E0,-1.012242031E1,2.652143717E0
1.237765104E0,3.919481754E0,-1.010565281E1,2.060460567E0
1.240240104E0,3.974577427E0,-1.008169746E1,2.046087742E0
1.242715104E0,4.072792530E0,-1.014637566E1,1.837681055E0
1.245190052E0,4.362645149E0,-9.880477905E0,1.916731715E0
1.247665052E0,4.599797726E0,-9.365449905E0,2.017341852E0
1.250796927E0,4.966306210E0,-9.111528397E0,2.139511347E0
1.253271927E0,5.234599590E0,-8.905517578E0,2.271262407E0
1.255746927E0,5.287300110E0,-8.651597977E0,2.328753948E0
1.258221875E0,5.102848053E0,-8.474331856E0,2.335940599E0
1.260696875E0,5.064520359E0,-8.634828568E0,2.405409575E0
1.263171875E0,5.119616508E0,-8.836048126E0,2.288031101E0
1.265646823E0,4.868091106E0,-8.967800140E0,2.333544970E0
1.268121823E0,4.559074402E0,-8.924681664E0,2.249703169E0
1.270596823E0,4.353063583E0,-8.876772881E0,2.237725973E0
1.273071770E0,4.293176651E0,-9.003732681E0,2.127533913E0
1.275546770E0,4.254848480E0,-9.130692482E0,1.943081975E0
1.278021770E0,4.115911007E0,-9.099551201E0,1.897567987E0
1.281174583E0,4.211730003E0,-9.049246788E0,1.835285544E0
1.283649583E0,4.374622345E0,-9.214534760E0,1.749048233E0
1.286124531E0,4.276408195E0,-9.288794518E0,1.844867349E0
1.288599531E0,4.230894089E0,-9.324726105E0,1.876008630E0
1.291074531E0,4.441696167E0,-9.432523727E0,1.784980536E0
1.293549531E0,4.575842857E0,-9.734354019E0,1.950268507E0
1.296024479E0,4.365040302E0,-9.811008453E0,2.153884172E0
1.298499479E0,4.223707676E0,-9.892454147E0,2.058064938E0
1.300974427E0,4.209334373E0,-1.009367561E1,1.986200690E0
1.303449427E0,4.168611526E0,-1.025656796E1,2.110765457E0
1.305924427E0,3.897922516E0,-1.009127998E1,2.211375713E0
1.308399427E0,3.854803562E0,-1.006492996E1,2.072438002E0
1.311594635E0,3.842826366E0,-1.006253338E1,2.077228785E0
1.314069635E0,3.840431213E0,-1.014158440E1,2.082019806E0
1.316544583E0,3.866781235E0,-1.019907665E1,2.019737482E0
1.319019583E0,3.706284046E0,-9.736748695E0,2.113161087E0
1.321494531E0,3.751798153E0,-9.537924767E0,1.998178005E0
1.323969531E0,3.737425327E0,-9.387008667E0,1.816121697E0
1.326444531E0,3.610465050E0,-9.327122688E0,1.746652722E0
1.328919479E0,3.469131947E0,-9.317540169E0,1.708325148E0
1.331394479E0,3.327798605E0,-9.262444496E0,1.634065270E0
1.333869479E0,3.227188349E0,-9.166625023E0,1.624483347E0
1.336344427E0,3.136160374E0,-9.046851158E0,1.523873329E0
1.338819427E0,3.193651676E0,-8.955822945E0,1.444822550E0
1.341950260E0,2.748092890E0,-9.343890190E0,1.689161301E0
1.344425260E0,2.692996740E0,-9.183393478E0,1.990991592E0
1.346900260E0,2.585200071E0,-8.773766518E0,1.979014277E0
1.349375208E0,2.647482634E0,-8.366535187E0,2.237725973E0
1.351850208E0,2.990036011E0,-7.942535877E0,2.386245489E0
1.354325208E0,3.126578331E0,-7.846717358E0,2.553929090E0
1.356800156E0,3.179278851E0,-7.815575123E0,2.573092937E0
1.359275156E0,3.037945509E0,-7.901813030E0,2.673702955E0
1.361750156E0,2.908589840E0,-8.026377678E0,2.803058863E0
1.364225104E0,2.807979584E0,-8.218015671E0,3.030629158E0
1.366700104E0,2.755279064E0,-8.412049294E0,3.104888916E0
1.369175104E0,2.738510847E0,-8.550986290E0,3.167171478E0
1.372360052E0,2.779233932E0,-8.701902390E0,3.210290194E0
1.374835052E0,2.961290359E0,-8.694715500E0,3.282154560E0
1.377310000E0,3.231979370E0,-9.089969635E0,3.557634592E0
1.379785000E0,3.751798153E0,-9.971505165E0,3.775623083E0
1.382260000E0,3.057109594E0,-9.387008667E0,3.864255667E0
1.384734948E0,2.228273869E0,-7.966491222E0,3.215080976E0
1.387209948E0,2.688205719E0,-7.614355564E0,2.735985518E0
1.389684895E0,3.615255833E0,-8.146151543E0,2.661725521E0
1.392159895E0,3.814080715E0,-8.661179543E0,2.891691446E0
1.394634895E0,3.730238914E0,-8.929472923E0,2.616211414E0
1.397109843E0,3.646397114E0,-9.070805550E0,2.491646528E0
1.399584895E0,3.885944843E0,-9.487619400E0,2.692866802E0
1.402719531E0,3.802103043E0,-9.331912994E0,2.932414770E0
1.405194531E0,4.127888680E0,-9.382218361E0,2.817431688E0
1.407669479E0,4.487209797E0,-9.988274574E0,3.179148912E0
1.410144479E0,3.993741512E0,-9.957132339E0,3.241431475E0
1.412619479E0,3.713470459E0,-9.506782532E0,3.059375048E0
1.415094479E0,3.725448132E0,-9.274421692E0,2.896482468E0
1.417569427E0,3.411640167E0,-8.397676468E0,2.623398066E0
1.420044375E0,3.672747612E0,-8.052727699E0,2.407804728E0
1.422519375E0,3.747006893E0,-8.263529778E0,2.757544756E0
1.424994375E0,3.529018879E0,-8.198851585E0,2.728799105E0
1.427469323E0,3.433199406E0,-7.794016361E0,2.264076233E0
1.429944375E0,3.442781448E0,-7.750897884E0,2.350313425E0
1.433124895E0,2.848702669E0,-7.473021984E0,2.501228571E0
1.435599895E0,2.882239580E0,-7.626332760E0,2.206584692E0
1.438074843E0,2.786420345E0,-7.777247906E0,1.892776966E0
1.440549843E0,2.237855673E0,-6.680119038E0,1.799353361E0
1.443024843E0,2.261810541E0,-5.999803066E0,1.693952322E0
1.445499791E0,2.031844616E0,-5.685995102E0,1.487941146E0
1.447974791E0,2.247437716E0,-6.239350319E0,1.250788808E0
1.450449739E0,2.120477200E0,-6.828638554E0,1.444822550E0
1.452924739E0,1.765946627E0,-6.014175415E0,1.375353694E0
1.455399739E0,1.674918175E0,-5.424888134E0,9.513539672E-1
1.457874739E0,1.981539488E0,-5.398538113E0,5.800547600E-1
1.460349687E0,2.029448986E0,-5.650063038E0,6.926422715E-1
1.463510000E0,1.159890413E0,-4.528978825E0,2.190826461E-2
1.465985000E0,5.921620131E-1,-1.321433306E0,-2.009457588E0
1.468459948E0,-9.840628505E-1,5.429025173E0,-5.171489239E0
1.470934948E0,-1.115814209E0,8.528774261E0,-7.035171509E0
1.473409948E0,2.884634972E0,4.089952946E0,-4.086337566E0
1.475884895E0,6.135299683E0,-6.818405986E-1,9.616809338E-2
1.478359895E0,6.985693932E0,-3.843872070E0,1.674788475E0
1.480834843E0,6.655117989E0,-5.789000988E0,2.153884172E0
1.483309843E0,5.546011448E0,-6.550763130E0,2.187420845E0
1.485784843E0,4.187775135E0,-6.653768539E0,2.333544970E0
1.488259791E0,2.839120865E0,-6.723237514E0,2.558720112E0
1.490734791E0,2.036635637E0,-6.644186497E0,2.800663233E0
1.493890937E0,1.397042751E0,-6.768751621E0,2.841386557E0
1.496365937E0,9.035742283E-1,-7.164005756E0,2.597047806E0
1.498840885E0,6.472580433E-1,-7.791620731E0,2.510810614E0
1.501315885E0,6.089303493E-1,-8.512660027E0,2.508414984E0
1.503790885E0,7.933822870E-1,-9.231302261E0,2.441341639E0
1.506265833E0,1.224568367E0,-9.981087685E0,1.998178005E0
1.508740833E0,1.562330723E0,-1.057756138E1,1.650833607E0
1.511215781E0,1.921652555E0,-1.072368622E1,1.571782947E0
1.513690781E0,2.470217228E0,-1.042185593E1,1.382539988E0
1.516165781E0,2.621132374E0,-1.016074848E1,1.346607924E0
1.518640729E0,2.666646481E0,-1.005295277E1,1.363376260E0
1.521115729E0,2.793606758E0,-1.016553974E1,1.428054094E0
1.524230364E0,3.011595249E0,-1.056797981E1,1.389726520E0
1.526751145E0,3.294261694E0,-1.110696220E1,1.178924441E0
1.529271823E0,3.701493263E0,-1.092251015E1,9.896816015E-1
1.531792552E0,4.103933334E0,-1.030208111E1,2.806199193E-1
1.534313281E0,4.472836971E0,-9.940364838E0,-4.020914435E-1
1.536833958E0,4.801017761E0,-9.854127884E0,-8.979554772E-1
1.539354687E0,4.877673149E0,-9.449291229E0,-1.381842136E0
1.541875416E0,5.071707249E0,-8.579732895E0,-1.710022688E0
1.544396093E0,5.469356537E0,-7.913790226E0,-1.618994474E0
1.546916823E0,5.596316338E0,-7.729338169E0,-1.523175359E0
1.549437552E0,5.694530964E0,-7.791620731E0,-1.393819451E0
1.551958229E0,5.670576572E0,-8.146151543E0,-1.769909620E0
1.554657604E0,5.469356537E0,-8.543800354E0,-2.409502506E0
1.557178333E0,4.882463932E0,-8.318625450E0,-2.378361225E0
1.559699062E0,4.022487164E0,-6.946017265E0,-2.148395300E0
1.562219739E0,3.205629110E0,-4.725408554E0,-1.642949224E0
1.564740468E0,2.508544683E0,3.919845819E-2,1.899963379E0
1.567261198E0,4.111120224E0,2.719738960E0,4.829633236E0
1.569781875E0,4.595006466E0,1.121954679E0,1.919872314E-1
1.572302604E0,4.053628445E0,1.452530861E0,5.369361639E-1
1.574823281E0,4.159029484E0,5.374580026E-1,2.105974436E0
1.577344010E0,4.659684658E0,-2.698833466E0,-8.404639959E-1
1.579864739E0,4.456068993E0,-5.436865330E0,-2.668214083E0
1.582385468E0,3.976973057E0,-7.128073215E0,-1.705231786E0
1.585038073E0,2.975662947E0,-7.604773998E0,-1.681276917E0
1.587558750E0,1.916861534E0,-7.195146561E0,-1.367469192E0
1.590079479E0,7.406816483E-1,-7.255033493E0,-3.757411540E-1
1.592600156E0,-3.899841905E-1,-7.662265301E0,-1.098430529E-1
1.595120885E0,-7.660742998E-1,-8.105427742E0,-2.272215039E-1
1.597641614E0,-1.513463616E0,-8.067100525E0,-1.151876211E0
1.600162291E0,-1.482322335E0,-7.089745522E0,-1.882497072E0
1.602683020E0,-8.283567429E-1,-5.865655899E0,-3.540168285E0
1.605203750E0,3.880643845E-2,-4.706244469E0,-4.972664833E0
1.607724427E0,1.059280276E0,-4.284640789E0,-3.911467552E0
1.610245156E0,2.429494143E0,-3.599533558E0,-2.220259666E0
1.612765885E0,3.277493477E0,-3.800753593E0,-1.300395846E0
1.615414739E0,3.723052502E0,-5.456028938E0,-1.199785709E0
1.617935468E0,4.135074615E0,-6.831034184E0,3.668571413E-1
1.620456198E0,3.953018665E0,-9.906827927E0,2.520392179E0
1.622976875E0,3.193651676E0,-1.553620338E1,3.988820791E0
1.625497604E0,3.289470673E0,-1.829339790E1,4.506243706E0
1.628018333E0,2.434284925E0,-1.952227974E1,4.089430332E0
1.630539010E0,1.346737742E0,-2.063138580E1,2.458110094E0
1.633059687E0,3.885463476E-1,-2.068648148E1,1.796957850E0
1.635580416E0,-1.480408311E-1,-2.024810982E1,1.626878858E0
1.638101145E0,-2.558373809E-1,-1.987920570E1,2.240121365E0
1.640621875E0,-1.887639761E-1,-1.957976913E1,2.467691660E0
1.643142604E0,4.580152035E-1,-1.901683426E1,2.288031101E0
1.645806458E0,1.373088002E0,-1.930189514E1,1.919127226E0
1.648327187E0,2.815165997E0,-1.958935165E1,1.911940813E0
1.650847916E0,4.163820744E0,-1.908630180E1,1.734675407E0
1.653368593E0,5.131594181E0,-1.891861725E1,1.063941360E0
1.655889323E0,5.816700459E0,-1.912702560E1,4.483034313E-1
1.658410052E0,6.695841312E0,-1.839161301E1,-5.953800678E-2
1.660930729E0,6.779683113E0,-1.847784996E1,-5.865432024E-1
1.663451458E0,7.282733440E0,-1.746935272E1,-1.046475053E0
1.665972187E0,6.961739540E0,-1.726094818E1,-1.154271722E0
1.668492864E0,6.619185925E0,-1.750768089E1,-9.937745929E-1
1.671013593E0,6.609603882E0,-1.665249634E1,-1.187808394E0
1.673534323E0,6.729378223E0,-1.538289165E1,-1.535152674E0
1.676189739E0,6.262259483E0,-1.421389866E1,-1.597435236E0
1.678710468E0,5.653808117E0,-1.304011345E1,-1.678881526E0
1.681231198E0,5.337605000E0,-1.206036377E1,-1.549525619E0
1.683751875E0,5.263345242E0,-1.138723373E1,-1.288418531E0
1.686272604E0,5.066915989E0,-1.092969799E1,-1.233322501E0
1.688793333E0,4.678848743E0,-1.075961876E1,-1.429751754E0
1.691314010E0,4.187775135E0,-1.062547112E1,-1.595039725E0
1.693834739E0,3.653583527E0,-1.051288319E1,-1.717209101E0
1.696355468E0,3.107414484E0,-1.027094078E1,-1.836983085E0
1.698876145E0,2.673832893E0,-1.009367561E1,-1.793864489E0
1.701396875E0,2.508544683E0,-9.997856140E0,-1.681276917E0
1.703917604E0,2.419912100E0,-9.739144325E0,-1.283627510E0
1.706573854E0,2.072567701E0,-9.149856567E0,-6.416392922E-1
1.709094583E0,1.907279730E0,-8.826467514E0,-2.583627105E-1
1.711615312E0,1.849788189E0,-8.584523201E0,-1.984757781E-1
1.714135989E0,2.139641047E0,-8.737834930E0,1.297047883E-1
1.716656718E0,2.292951822E0,-8.780952454E0,5.249587893E-1
1.719177448E0,2.228273869E0,-8.749811172E0,8.124161959E-1
1.721698177E0,2.062985897E0,-8.574941635E0,1.016031861E0
1.724218854E0,1.964771271E0,-8.421631813E0,1.238811374E0
1.726739583E0,1.710850477E0,-8.172501564E0,1.028009295E0
1.729260260E0,1.811460495E0,-7.897021770E0,1.566991925E0
1.731780989E0,1.706059456E0,-7.405949116E0,1.617297053E0
1.734301718E0,1.864161015E0,-6.955598831E0,1.586155772E0
1.736957135E0,2.079754353E0,-6.816660881E0,1.543037176E0
1.739477864E0,2.439075947E0,-6.924457550E0,1.334630489E0
1.741998593E0,2.740906239E0,-7.099327564E0,9.297946692E-1
1.744519270E0,2.968476772E0,-7.252637863E0,5.177723169E-1
1.747040000E0,3.277493477E0,-7.573632717E0,3.500888050E-1
1.749560677E0,3.533809662E0,-7.798806667E0,1.584505290E-1
1.752081406E0,3.564950943E0,-7.964094639E0,-7.630635798E-2
1.754602135E0,3.622442722E0,-8.198851585E0,-1.218204424E-1
1.757122864E0,3.644001484E0,-8.328207970E0,-2.463853359E-1
1.759643541E0,3.632023811E0,-8.241971016E0,-2.655491531E-1
1.762164270E0,3.718261719E0,-8.162919998E0,-2.296169847E-1
1.764685000E0,3.953018665E0,-7.362830162E0,1.201228872E-1
1.767340468E0,4.281198978E0,-6.361520290E0,6.375463009E-1
1.769861198E0,4.271616936E0,-6.823847771E0,-9.817972183E-1
1.772381927E0,3.888340473E0,-7.250242710E0,-1.647740245E0
1.774902604E0,3.701493263E0,-7.520931721E0,-5.673794150E-1
1.777423333E0,3.660769939E0,-8.332998276E0,-6.488257051E-1
1.779944062E0,3.672747612E0,-8.642015457E0,-8.428594470E-1
1.782464739E0,3.852408409E0,-8.740229607E0,-6.536166668E-1
1.784985468E0,3.907504559E0,-8.845630646E0,-7.446448803E-1
1.787506198E0,3.773357391E0,-8.905517578E0,-7.398538589E-1
1.790026875E0,3.689515591E0,-8.867190361E0,-6.200799942E-1
1.792547604E0,3.620047092E0,-8.828862190E0,-5.146788955E-1
1.795068333E0,3.435595036E0,-8.788139343E0,-4.835377038E-1
1.797721875E0,3.332589626E0,-8.790534973E0,-3.014813364E-1
1.800242604E0,3.220001936E0,-8.812094688E0,-2.871084809E-1
1.802763333E0,3.018781662E0,-8.792930603E0,-3.062722981E-1
1.805284010E0,2.879843950E0,-8.910308838E0,-2.990858555E-1
1.807804739E0,2.798397779E0,-9.003732681E0,-2.487808168E-1
1.810325416E0,2.817561626E0,-8.989359856E0,-1.505661905E-1
1.812846145E0,2.855889320E0,-9.046851158E0,-1.960802823E-1
1.815366875E0,2.860680342E0,-9.097156525E0,-1.745209694E-1
1.817887604E0,2.863075733E0,-9.192975998E0,-2.104531676E-1
1.820408281E0,2.896612167E0,-9.343890190E0,-2.918994427E-1
1.822929010E0,2.920567036E0,-9.300771713E0,-1.769164652E-1
1.825449739E0,2.872657537E0,-9.355867386E0,-2.607582211E-1
1.828106510E0,2.836725235E0,-9.334308624E0,-2.775265574E-1
1.830627239E0,2.824748039E0,-9.312749863E0,-1.218204424E-1
1.833147968E0,2.848702669E0,-9.272027016E0,-1.625435799E-1
1.835668645E0,2.793606758E0,-9.192975998E0,-9.307470173E-2
1.838189375E0,2.788815737E0,-9.121110916E0,4.586304724E-2
1.840710104E0,2.846307278E0,-8.996545792E0,3.489572555E-4
1.843230781E0,2.784024715E0,-8.903122902E0,-1.433797628E-1
1.845751510E0,2.875052929E0,-8.673156738E0,-1.601481140E-1
1.848272239E0,3.030759096E0,-8.229992867E0,-2.799220383E-1
1.850792916E0,2.774442911E0,-8.618060112E0,-2.966903746E-1
1.853313645E0,2.601968527E0,-8.917495728E0,-3.302270770E-1
1.855834375E0,2.599573135E0,-9.003732681E0,-2.775265574E-1
1.858490156E0,2.702578545E0,-9.030082703E0,-2.200350761E-1
1.861010885E0,2.757674456E0,-8.898331642E0,-2.439898551E-1
1.863531614E0,2.776838541E0,-8.517450333E0,-3.062722981E-1
1.866052343E0,2.664251089E0,-8.495890617E0,-3.733457029E-1
1.868573020E0,2.582804680E0,-8.634828568E0,-3.661592603E-1
1.871093750E0,2.661855459E0,-8.562964439E0,-3.302270770E-1
1.873614479E0,2.721742630E0,-8.582128525E0,-3.949050009E-1
1.876135156E0,2.714555979E0,-8.670760155E0,-4.476055503E-1
1.878655885E0,2.760070086E0,-8.670760155E0,-4.547919631E-1
1.881176562E0,2.839120865E0,-8.632433891E0,-4.428145587E-1
1.883697291E0,2.645087004E0,-8.972591400E0,-4.044869244E-1
1.886218020E0,2.498963118E0,-9.216930389E0,-3.182497025E-1
1.888873645E0,2.570827246E0,-9.255257607E0,-3.613683283E-1
1.891394375E0,2.659460068E0,-9.147461891E0,-3.230406642E-1
1.893915104E0,2.640295982E0,-9.063619614E0,-2.942949235E-1
1.896435781E0,2.652273417E0,-8.963009834E0,-3.757411540E-1
1.898956510E0,2.578013897E0,-8.931868553E0,-3.805321455E-1
1.901477239E0,2.506149292E0,-9.046851158E0,-2.799220383E-1
1.903997916E0,2.661855459E0,-8.821676254E0,-4.068823755E-1
1.906518645E0,2.707369566E0,-8.644410133E0,-4.308371842E-1
1.909039375E0,2.431889534E0,-8.986964226E0,-2.990858555E-1
1.911560052E0,2.252228498E0,-9.070805550E0,-3.278315961E-1
1.914080781E0,2.247437716E0,-8.929472923E0,-3.517863750E-1
1.916601510E0,2.237855673E0,-8.974987030E0,-3.445999324E-1
1.919257239E0,2.211505413E0,-9.056432724E0,-2.799220383E-1
1.921777968E0,2.422307491E0,-9.250466347E0,-2.942949235E-1
1.924298645E0,2.673832893E0,-9.240884781E0,-2.391988933E-1
1.926819375E0,2.719347000E0,-9.327122688E0,-1.409842819E-1
1.929340104E0,2.810374975E0,-9.401381493E0,-1.912893355E-1
1.931860833E0,2.786420345E0,-9.190579414E0,-1.002611369E-1
1.934381510E0,2.716951609E0,-9.006127357E0,-6.193348393E-2
1.936902239E0,2.616341352E0,-8.979777336E0,-7.630635798E-2
1.939422968E0,2.566036224E0,-8.979777336E0,5.139914341E-3
1.941943645E0,2.489381075E0,-9.010918617E0,-1.881487109E-2
1.944464375E0,2.539685965E0,-8.974987030E0,-6.911992282E-2
1.946985104E0,2.585200071E0,-9.001337051E0,-1.146340147E-1
1.949640052E0,2.518126726E0,-9.032478333E0,-1.841028929E-1
1.952160781E0,2.520522356E0,-8.982173920E0,-2.487808168E-1
1.954681510E0,2.498963118E0,-8.907913208E0,-2.799220383E-1
1.957202187E0,2.482194424E0,-8.766580582E0,-1.529616714E-1
1.959722916E0,2.510940313E0,-8.694715500E0,-1.673345417E-1
1.962243645E0,2.477403641E0,-8.716275215E0,-2.918994427E-1
1.964764323E0,2.415121317E0,-8.675551414E0,-3.182497025E-1
1.967285052E0,2.288160801E0,-8.589314461E0,-4.092778862E-1
1.969805781E0,2.266601562E0,-8.550986290E0,-3.493909240E-1
1.972326458E0,2.261810541E0,-8.407258987E0,-2.847130001E-1
1.974847187E0,2.309720039E0,-8.119800568E0,-3.014813364E-1
1.977367916E0,2.645087004E0,-6.831034184E0,-4.523964822E-1
1.980023854E0,2.218692064E0,-6.809474468E0,-4.523964822E-1
1.982544583E0,1.610240221E0,-7.049022675E0,-2.487808168E-1
1.985065260E0,1.607845068E0,-6.447757721E0,-2.391988933E-1
1.987586041E0,1.710850477E0,-5.376978397E0,-4.428145587E-1
1.990106718E0,1.236545801E0,-4.723012924E0,-1.769164652E-1
1.992627448E0,9.850205183E-1,-4.440346718E0,2.207329720E-1
1.995148125E0,1.119167328E0,-4.217566967E0,2.327103615E-1
1.997668854E0,1.291641831E0,-4.102583885E0,1.752188802E-1
2.000189583E0,1.691686869E0,-4.215171337E0,2.015691549E-1
2.002710260E0,2.022262812E0,-4.646357536E0,1.824053228E-1
2.005230989E0,2.302533865E0,-5.029633999E0,2.854109108E-1
2.007751718E0,2.606759548E0,-5.398538113E0,3.932074308E-1
2.010407187E0,2.728928804E0,-5.578198433E0,3.884164691E-1
2.012927916E0,2.899007797E0,-5.755464077E0,1.416821778E-1
2.015448645E0,2.944522142E0,-5.949498177E0,7.221331447E-2
2.017969323E0,2.700182915E0,-6.052503586E0,5.784044415E-2
2.020490052E0,2.695392370E0,-5.913565636E0,-1.290068924E-1
2.023010781E0,2.575618267E0,-5.676413536E0,-2.439898551E-1
2.025531510E0,2.321697474E0,-5.288346291E0,-4.284417033E-1
2.028052187E0,2.113290787E0,-5.048798084E0,-6.081025600E-1
2.030572916E0,1.938421011E0,-4.699058056E0,-6.895488501E-1
2.033093593E0,1.804274082E0,-4.596052647E0,-8.069272637E-1
2.035614323E0,1.686895847E0,-4.152889252E0,-8.260911107E-1
2.038135052E0,1.555144310E0,-3.817522049E0,-9.051418900E-1
2.040789687E0,1.389856458E0,-3.434245586E0,-1.111153126E0
2.043310416E0,1.294037223E0,-3.223443270E0,-1.245299816E0
2.045831145E0,1.164681435E0,-2.706020117E0,-1.156667113E0
2.048351823E0,1.152704000E0,-2.476053953E0,-1.003356576E0
2.050872552E0,1.020952702E0,-2.418562651E0,-6.751759648E-1
2.053393281E0,9.419019222E-1,-2.083195448E0,-4.404191077E-1
2.055913958E0,9.299244881E-1,-2.040076971E0,-2.176395953E-1
2.058434687E0,1.083235145E0,-2.293997526E0,-1.481707245E-1
2.060955416E0,1.265291572E0,-2.780279875E0,-1.841028929E-1
2.063476093E0,1.387460947E0,-3.151579142E0,-6.672444195E-2
2.065996823E0,1.368296981E0,-3.496527672E0,6.981783360E-2
2.068517552E0,1.655754566E0,-4.509815216E0,1.848007888E-1
2.071168802E0,1.878534079E0,-5.585384846E0,6.023592502E-2
2.073689531E0,2.012680769E0,-6.311214924E0,-4.995609447E-2
2.076210260E0,1.986330509E0,-6.900503159E0,-2.511762679E-1
2.078730937E0,2.098917961E0,-7.935349941E0,-2.799220383E-1
2.081251666E0,2.084545135E0,-9.212139130E0,1.009590551E-1
2.083772395E0,2.247437716E0,-1.024698544E1,7.535392419E-3
2.086293073E0,2.479799032E0,-1.150221634E1,-1.314023584E-1
2.088813802E0,2.774442911E0,-1.232626152E1,-1.625435799E-1
2.091334531E0,2.858284712E0,-1.267839622E1,2.744435798E-3
2.093855208E0,2.779233932E0,-1.261850929E1,4.411169887E-1
2.096375937E0,2.846307278E0,-1.263048649E1,6.207779050E-1
2.098896666E0,2.752883434E0,-1.185435200E1,8.004387617E-1
2.101537500E0,2.458239794E0,-1.084825039E1,8.052297831E-1
2.104058177E0,2.089335918E0,-9.535528183E0,4.075803161E-1
2.106578958E0,1.622217894E0,-8.261134148E0,-1.881487109E-2
2.109099635E0,1.643777132E0,-7.952118397E0,-1.841028929E-1
2.111620364E0,1.936025620E0,-8.670760155E0,-7.391087711E-2
2.114141093E0,2.084545135E0,-9.420545578E0,-4.037417844E-2
2.116661770E0,1.955189228E0,-9.590624809E0,9.616809338E-2
2.119182500E0,1.844997168E0,-9.044455528E0,-1.601481140E-1
2.121703229E0,1.806669474E0,-8.527032852E0,-2.080576718E-1
2.124223906E0,1.706059456E0,-7.882648945E0,-3.445999324E-1
2.126744635E0,1.631799698E0,-7.336480141E0,-4.332326651E-1
2.129265364E0,1.648567915E0,-7.437089920E0,-5.027015209E-1
2.131939635E0,1.399438262E0,-7.667055607E0,-3.757411540E-1
2.134460364E0,1.339551330E0,-8.297066689E0,-1.912893355E-1
2.136981093E0,1.255709529E0,-8.848026276E0,-4.037417844E-2
2.139501770E0,1.217381954E0,-9.130692482E0,1.392867118E-1
2.142022500E0,1.143122077E0,-9.010918617E0,1.464731395E-1
2.144543229E0,8.005686998E-1,-8.974987030E0,2.087555826E-1
2.147063906E0,7.766139507E-1,-9.341494560E0,-1.721255034E-1
2.149584635E0,9.969979525E-1,-9.736748695E0,-6.911992282E-2
2.152105364E0,1.044907451E0,-9.609788895E0,5.139914341E-3
2.154626041E0,9.682521820E-1,-9.097156525E0,-2.360582724E-2
2.157146770E0,1.008975267E0,-8.785743713E0,-5.714252591E-2
2.159667500E0,8.963878155E-1,-8.548591614E0,-2.200350761E-1
2.162268125E0,8.005686998E-1,-8.486310005E0,-1.074475795E-1
2.164788854E0,7.957776785E-1,-8.637224197E0,-1.641939208E-2
2.167309583E0,8.341053724E-1,-8.483913422E0,-1.218204424E-1
2.169830260E0,6.640263796E-1,-8.227597237E0,-3.318774328E-2
2.172350989E0,6.712127924E-1,-7.942535877E0,-1.481707245E-1
2.174871718E0,1.250918627E0,-8.251552582E0,-4.883286655E-1
2.177392395E0,1.387460947E0,-8.814489365E0,-1.058452487E0
2.179913125E0,1.389856458E0,-9.662489891E0,-1.336328030E0
2.182433854E0,2.233064890E0,-1.125308704E1,-1.465683818E0
2.184954531E0,3.296657324E0,-1.327487087E1,-1.448915482E0
2.187475260E0,3.823662758E0,-1.348327732E1,-1.192599297E0
2.189995989E0,3.833244324E0,-1.057995796E1,-1.089593768E0
2.192707343E0,4.032069206E0,-7.513745785E0,1.033545360E-1
2.195228073E0,5.445401669E0,-1.726813316E1,-8.069272637E-1
2.197748802E0,4.671661854E0,-2.134284210E1,-1.832192063E0
2.200269479E0,3.682329655E0,-2.273701096E1,-2.198700190E0
2.202790208E0,3.979368687E0,-2.429646683E1,-4.643738866E-1
2.205310937E0,4.621356964E0,-2.415274048E1,1.039986610E0
2.207831614E0,5.196271420E0,-2.285918045E1,1.418472290E0
2.210352343E0,5.443006039E0,-2.128295517E1,1.310675740E0
2.212873073E0,5.747231960E0,-1.985524940E1,1.281929970E0
2.215393802E0,6.120926380E0,-1.894017792E1,1.466381788E0
2.217914479E0,5.744836330E0,-1.821674347E1,1.480754614E0
2.220435156E0,5.232203960E0,-1.715794182E1,1.265161633E0
2.223090104E0,4.824972630E0,-1.644169426E1,9.513539672E-1
2.225610833E0,4.137470245E0,-1.579970551E1,5.081904531E-1
2.228131562E0,3.608069420E0,-1.478881359E1,-4.037417844E-2
2.230652291E0,3.179278851E0,-1.375157070E1,-5.793568492E-1
2.233172968E0,2.726533175E0,-1.289638519E1,-9.770061970E-1
2.235693698E0,2.223482847E0,-1.226637459E1,-9.985655546E-1
2.238214375E0,1.722827673E0,-1.169864559E1,-1.113548517E0
2.240735104E0,1.217381954E0,-1.114289474E1,-1.487243176E0
2.243255833E0,5.945575237E-1,-1.058474827E1,-1.717209101E0
2.245776510E0,9.150701761E-2,-1.045778751E1,-1.717209101E0
2.248297239E0,-4.786168933E-1,-1.044102001E1,-1.755536675E0
2.250817968E0,-1.182887554E0,-1.066379929E1,-1.635762811E0
2.253470052E0,-1.582932472E0,-1.072847652E1,-1.357887387E0
2.255990781E0,-1.376921415E0,-1.040987873E1,-1.099175572E0
2.258511510E0,-9.625035524E-1,-1.019428539E1,-6.775714159E-1
2.261032187E0,-4.594530463E-1,-1.041946030E1,-2.871084809E-1
2.263552916E0,-9.103119373E-3,-1.116205883E1,-1.577526331E-1
2.266073645E0,4.532243013E-1,-1.173218250E1,-2.224305570E-1
2.268594323E0,7.382861376E-1,-1.200766277E1,-2.391988933E-1
2.271115052E0,1.157494903E0,-1.186153889E1,-2.990858555E-1
2.273635781E0,1.416206598E0,-1.143035221E1,-4.140688181E-1
2.276156458E0,1.420997620E0,-1.108300781E1,-5.338427424E-1
2.278677187E0,1.253314137E0,-1.104468060E1,-6.655940413E-1
2.281197916E0,1.191031694E0,-1.120757294E1,-6.775714159E-1
2.283854635E0,1.152704000E0,-1.128183270E1,-5.865432024E-1
2.286375364E0,1.294037223E0,-1.126027393E1,-4.044869244E-1
2.288896093E0,1.485675573E0,-1.122434139E1,-8.828374743E-2
2.291416770E0,1.555144310E0,-1.080034161E1,9.377261996E-2
2.293937500E0,1.579099178E0,-1.009607029E1,1.536595672E-1
2.296458229E0,1.586285591E0,-9.485223770E0,3.548797667E-1
2.298978906E0,1.612635851E0,-9.099551201E0,4.267441332E-1
2.301499635E0,1.627008677E0,-8.735438347E0,4.554898739E-1
2.304020364E0,1.524003267E0,-8.344975471E0,4.914220572E-1
2.306541041E0,1.329969406E0,-8.057518959E0,4.075803161E-1
2.309061770E0,1.119167328E0,-7.794016361E0,2.806199193E-1
2.311582500E0,1.018557191E0,-7.439485550E0,1.943827122E-1
2.314240052E0,8.341053724E-1,-6.943621635E0,1.273093075E-1
2.316760781E0,6.280941963E-1,-6.433384418E0,-1.433797628E-1
2.319281510E0,3.334503174E-1,-5.611735344E0,-6.871533394E-1
2.321802187E0,2.591904998E-1,-4.837996006E0,-5.577975512E-1
2.324322916E0,4.148966074E-1,-5.252413750E0,-2.895039320E-1
2.326843645E0,5.418570042E-1,-5.815351009E0,1.129364446E-1
2.329364323E0,5.706027746E-1,-6.601068020E0,4.147667289E-1
2.331885052E0,4.939473867E-1,-7.441881180E0,4.626763165E-1
2.334405729E0,3.190774918E-1,-8.100637436E0,4.890265465E-1
2.336926458E0,3.142865300E-1,-8.479122162E0,3.405069113E-1
2.339447187E0,3.909418583E-1,-8.680342674E0,3.388565779E-2
2.341967916E0,4.675971270E-1,-8.706693649E0,-2.559672594E-1
2.344623437E0,4.556198120E-1,-8.651597977E0,-3.829275966E-1
2.347144114E0,4.580152035E-1,-8.653992653E0,-5.290517807E-1
2.349664843E0,5.274841785E-1,-8.721065521E0,-6.224753857E-1
2.352185520E0,5.801846981E-1,-8.905517578E0,-6.536166668E-1
2.354706250E0,6.017439365E-1,-9.015709877E0,-6.464302540E-1
2.357226979E0,6.065349579E-1,-9.094760895E0,-5.314472318E-1
2.359747656E0,5.658117533E-1,-9.248071671E0,-4.643738866E-1
2.362268385E0,6.233032942E-1,-9.346285820E0,-3.901140392E-1
2.364789114E0,8.077549934E-1,-9.310353279E0,-3.374135196E-1
2.367309791E0,9.442974329E-1,-9.269630432E0,-2.918994427E-1
2.369830520E0,8.987833261E-1,-9.363054276E0,-3.541818857E-1
2.372351250E0,8.556646109E-1,-9.355867386E0,-3.278315961E-1
2.375006198E0,8.197325468E-1,-9.415754318E0,-2.990858555E-1
2.377526927E0,8.748285770E-1,-9.511573792E0,-3.685547709E-1
2.380047656E0,8.580601215E-1,-9.463665009E0,-3.254361451E-1
2.382568385E0,7.909867764E-1,-9.394195557E0,-3.350180387E-1
2.385089062E0,7.909867764E-1,-9.363054276E0,-3.158542216E-1
2.387609791E0,8.125460148E-1,-9.372636795E0,-2.463853359E-1
2.390130520E0,8.125460148E-1,-9.370240211E0,-1.146340147E-1
2.392651198E0,8.317098618E-1,-9.298377037E0,-1.793119460E-1
2.395171875E0,7.742184401E-1,-9.336703300E0,-1.218204424E-1
2.397692656E0,7.838002443E-1,-9.365449905E0,-4.516513273E-2
2.400213333E0,7.933822870E-1,-9.363054276E0,-2.839678526E-2
2.402734062E0,7.814047337E-1,-9.351076126E0,-4.756061360E-2
2.405390156E0,7.406816483E-1,-9.346285820E0,-3.079226241E-2
2.407910885E0,7.430771589E-1,-9.389404297E0,-2.046521287E-3
2.410431614E0,7.694274187E-1,-9.389404297E0,5.139914341E-3
2.412952291E0,8.149415255E-1,-9.363054276E0,-1.881487109E-2
2.415473020E0,8.005686998E-1,-9.339099884E0,-2.600130811E-2
2.417993750E0,7.694274187E-1,-9.288794518E0,-1.402391400E-2
2.420514427E0,8.005686998E-1,-9.329517365E0,-1.402391400E-2
2.423035156E0,8.269189596E-1,-9.272027016E0,-5.474704504E-2
2.425555885E0,8.053596020E-1,-9.272027016E0,3.628113493E-2
2.428076562E0,7.718229294E-1,-9.281607628E0,5.784044415E-2
2.430597291E0,8.269189596E-1,-9.236093521E0,-2.046521287E-3
2.433118020E0,7.838002443E-1,-9.212139130E0,1.711730659E-2
2.435774791E0,8.101505041E-1,-9.224116325E0,1.711730659E-2
2.438295520E0,8.005686998E-1,-9.195370674E0,-1.881487109E-2
2.440816250E0,8.269189596E-1,-9.176206589E0,-5.235156789E-2
2.443336927E0,8.053596020E-1,-9.195370674E0,-4.441999830E-3
2.445857656E0,7.981731892E-1,-9.224116325E0,-3.318774328E-2
2.448378385E0,8.317098618E-1,-9.212139130E0,-7.151539624E-2
2.450899062E0,8.436872959E-1,-9.219326019E0,-9.232956916E-3
2.453419791E0,8.556646109E-1,-9.281607628E0,-3.079226241E-2
2.455940520E0,8.892014027E-1,-9.310353279E0,-7.630635798E-2
2.458461198E0,8.245234489E-1,-9.312749863E0,-5.235156789E-2
2.460981927E0,8.317098618E-1,-9.353472710E0,-5.235156789E-2
2.463502656E0,7.861957550E-1,-9.355867386E0,-9.307470173E-2
2.466157083E0,7.885912657E-1,-9.339099884E0,-1.074475795E-1
2.468677760E0,7.670319080E-1,-9.377428055E0,-9.067922831E-2
2.471198541E0,7.933822870E-1,-9.377428055E0,-1.745209694E-1
2.473719218E0,7.766139507E-1,-9.389404297E0,-1.314023584E-1
2.476239948E0,7.406816483E-1,-9.377428055E0,-6.911992282E-2
2.478760677E0,7.358907461E-1,-9.410964012E0,-1.290068924E-1
2.481281354E0,7.310997248E-1,-9.398986816E0,-1.721255034E-1
2.483802083E0,7.550544739E-1,-9.406172752E0,-1.553571522E-1
2.486322812E0,7.263088226E-1,-9.432523727E0,-1.601481140E-1
2.488843489E0,7.287043333E-1,-9.442104340E0,-1.170294881E-1
2.491364218E0,7.167268991E-1,-9.468455315E0,-1.050520912E-1
2.493884948E0,7.502636909E-1,-9.480432510E0,-1.026566178E-1
2.496528437E0,7.191224098E-1,-9.466059685E0,-1.122385338E-1
2.499049166E0,6.855856180E-1,-9.473246574E0,-9.547019005E-2
2.501569895E0,7.358907461E-1,-9.461268425E0,-5.235156789E-2
2.504090573E0,7.334952354E-1,-9.451686859E0,-6.193348393E-2
2.506611302E0,7.454726696E-1,-9.499596596E0,-3.797869757E-2
2.509131979E0,7.598454952E-1,-9.466059685E0,-1.881487109E-2
2.511652708E0,6.879811287E-1,-9.430127144E0,-5.474704504E-2
2.514173437E0,6.975630522E-1,-9.418150902E0,-3.318774328E-2
2.516694166E0,7.526590824E-1,-9.387008667E0,-1.162843592E-2
2.519214843E0,7.478681803E-1,-9.327122688E0,1.472182851E-2
2.521735573E0,7.694274187E-1,-9.348681450E0,9.930871427E-3
2.524256302E0,7.598454952E-1,-9.303167343E0,3.149018064E-2
2.526917448E0,8.149415255E-1,-9.286398888E0,3.489572555E-4
2.529447239E0,8.149415255E-1,-9.252862930E0,3.867661580E-2
2.531976979E0,7.766139507E-1,-9.276816368E0,3.149018064E-2
2.534506770E0,7.478681803E-1,-9.257653236E0,6.742236018E-2
2.537036562E0,7.790094614E-1,-9.233698845E0,1.464731395E-1
2.539566302E0,7.287043333E-1,-9.209743500E0,9.377261996E-2
2.542096093E0,7.957776785E-1,-9.188184738E0,3.388565779E-2
2.544625885E0,7.861957550E-1,-9.202557564E0,7.221331447E-2
2.547155625E0,8.077549934E-1,-9.180997849E0,1.584505290E-1
2.549685416E0,8.269189596E-1,-9.195370674E0,7.535392419E-3
2.552215208E0,8.221279383E-1,-9.231302261E0,8.898166567E-2
2.554744948E0,8.245234489E-1,-9.207348824E0,7.460878789E-2
2.557301302E0,7.885912657E-1,-9.238489151E0,1.488686204E-1
2.559831093E0,8.532691002E-1,-9.224116325E0,8.898166567E-2
2.562360833E0,8.628511429E-1,-9.238489151E0,8.419070393E-2
2.564890625E0,8.963878155E-1,-9.238489151E0,6.981783360E-2
2.567420416E0,8.892014027E-1,-9.281607628E0,8.898166567E-2
2.569950208E0,8.748285770E-1,-9.327122688E0,7.700426877E-2
2.572479948E0,8.844103813E-1,-9.307958603E0,1.129364446E-1
2.575009739E0,8.580601215E-1,-9.315144539E0,1.297047883E-1
2.577539479E0,8.532691002E-1,-9.327122688E0,1.273093075E-1
2.580069270E0,9.011788368E-1,-9.358263969E0,1.249138489E-1
2.582599062E0,9.203425646E-1,-9.367845535E0,1.177274063E-1
2.585128802E0,8.604556322E-1,-9.319935799E0,9.137713909E-2
2.587689010E0,9.083651304E-1,-9.291189194E0,8.419070393E-2
2.590218802E0,8.556646109E-1,-9.274421692E0,1.273093075E-1
2.592748541E0,8.197325468E-1,-9.252862930E0,1.081454903E-1
2.595278333E0,7.981731892E-1,-9.272027016E0,1.273093075E-1
2.597808125E0,7.861957550E-1,-9.231302261E0,1.057500169E-1
2.600337864E0,7.909867764E-1,-9.243280411E0,9.137713909E-2
2.602867656E0,7.718229294E-1,-9.233698845E0,1.368912309E-1
2.605397448E0,7.382861376E-1,-9.238489151E0,1.776143759E-1
2.607927187E0,6.640263796E-1,-9.226511955E0,1.584505290E-1
2.610456979E0,6.783993244E-1,-9.267235756E0,7.700426877E-2
2.612986770E0,6.616308689E-1,-9.255257607E0,1.249138489E-1
2.615516510E0,6.448625326E-1,-9.250466347E0,1.464731395E-1
2.618072604E0,6.520490646E-1,-9.276816368E0,1.608460099E-1
2.620602395E0,6.472580433E-1,-9.288794518E0,1.105409712E-1
2.623132135E0,6.472580433E-1,-9.276816368E0,1.081454903E-1
2.625661927E0,6.161167622E-1,-9.274421692E0,1.081454903E-1
2.628191718E0,6.089303493E-1,-9.315144539E0,1.273093075E-1
2.630721458E0,6.448625326E-1,-9.284003258E0,1.991736591E-1
2.633251250E0,6.376761198E-1,-9.288794518E0,1.177274063E-1
2.635781041E0,6.209077835E-1,-9.279212952E0,1.416821778E-1
2.638310781E0,6.209077835E-1,-9.272027016E0,1.129364446E-1
2.640840573E0,6.448625326E-1,-9.288794518E0,1.584505290E-1
2.643370364E0,6.640263796E-1,-9.317540169E0,1.416821778E-1
2.645900104E0,6.568398476E-1,-9.336703300E0,8.419070393E-2
2.648455364E0,6.807948351E-1,-9.358263969E0,1.416821778E-1
2.650985156E0,6.783993244E-1,-9.387008667E0,1.824053228E-1
2.653514895E0,6.616308689E-1,-9.396590233E0,2.039646208E-1
2.656044687E0,7.191224098E-1,-9.415754318E0,2.422922701E-1
2.658574479E0,7.502636909E-1,-9.432523727E0,2.470832467E-1
2.661104218E0,7.263088226E-1,-9.422941208E0,2.327103615E-1
2.663634010E0,7.454726696E-1,-9.446895599E0,1.991736591E-1
2.666163802E0,8.101505041E-1,-9.480432510E0,3.045746982E-1
2.668693541E0,8.484783173E-1,-9.509178162E0,2.758289874E-1
2.671223333E0,8.053596020E-1,-9.490015030E0,3.045746982E-1
2.673753125E0,8.173370361E-1,-9.418150902E0,3.117611408E-1
2.676282864E0,8.221279383E-1,-9.444500923E0,2.614561319E-1
2.678838437E0,8.508737087E-1,-9.446895599E0,2.686425447E-1
2.681368229E0,8.221279383E-1,-9.387008667E0,2.902018428E-1
2.683898020E0,8.508737087E-1,-9.372636795E0,3.069702089E-1
2.686427812E0,8.580601215E-1,-9.327122688E0,3.189475834E-1
2.688957552E0,8.700375557E-1,-9.310353279E0,3.093656898E-1
2.691487291E0,8.412917852E-1,-9.262444496E0,3.476933241E-1
2.694017083E0,8.748285770E-1,-9.221720695E0,3.452978730E-1
2.696546875E0,8.341053724E-1,-9.216930389E0,3.668571413E-1
2.699076614E0,8.029642105E-1,-9.228907585E0,3.932074308E-1
2.701606458E0,7.981731892E-1,-9.142670631E0,4.171622097E-1
2.704136198E0,7.742184401E-1,-9.121110916E0,4.195576906E-1
2.706665937E0,7.957776785E-1,-9.149856567E0,4.387215376E-1
2.709221770E0,8.149415255E-1,-9.137879372E0,4.459079504E-1
2.711751562E0,8.532691002E-1,-9.128297806E0,4.363260567E-1
2.714281302E0,8.245234489E-1,-9.121110916E0,4.914220572E-1
2.716811093E0,8.149415255E-1,-9.140275002E0,4.674672782E-1
2.719340885E0,8.365007639E-1,-9.197766304E0,5.201678276E-1
2.721870625E0,8.676420450E-1,-9.200161934E0,5.105859041E-1
2.724400416E0,8.700375557E-1,-9.231302261E0,5.033994317E-1
2.726930208E0,8.796193600E-1,-9.293585777E0,4.554898739E-1
2.729459948E0,8.748285770E-1,-9.341494560E0,4.698627293E-1
2.731989739E0,9.251335859E-1,-9.398986816E0,4.578853250E-1
2.734519531E0,9.179471731E-1,-9.468455315E0,4.650717676E-1
2.737049270E0,8.412917852E-1,-9.499596596E0,4.578853250E-1
2.739605573E0,8.221279383E-1,-9.509178162E0,4.267441332E-1
2.742135312E0,8.460828066E-1,-9.564274788E0,4.243486524E-1
2.744665104E0,7.981731892E-1,-9.542716026E0,3.979983628E-1
2.747194948E0,7.766139507E-1,-9.533133507E0,3.309249878E-1
2.749724687E0,7.095404863E-1,-9.540319443E0,3.237385452E-1
2.752254479E0,6.999585629E-1,-9.518760681E0,3.692526519E-1
2.754784218E0,6.256988049E-1,-9.501991272E0,2.902018428E-1
2.757314010E0,6.376761198E-1,-9.513969421E0,2.446877658E-1
2.759843750E0,6.328850985E-1,-9.454082489E0,2.422922701E-1
2.762373541E0,5.993484259E-1,-9.420545578E0,1.919872314E-1
2.764903333E0,6.113258600E-1,-9.398986816E0,2.159420252E-1
2.767433073E0,5.945575237E-1,-9.360658646E0,1.608460099E-1
2.769985781E0,5.825802088E-1,-9.331912994E0,1.680324525E-1
2.772515573E0,5.682072639E-1,-9.319935799E0,1.776143759E-1
2.775045312E0,5.226931572E-1,-9.310353279E0,1.153319255E-1
2.777575104E0,5.442523956E-1,-9.317540169E0,1.392867118E-1
2.780104895E0,5.753936768E-1,-9.248071671E0,1.009590551E-1
2.782634635E0,5.849754810E-1,-9.250466347E0,7.221331447E-2
2.785164427E0,5.873709917E-1,-9.291189194E0,6.502687931E-2
2.787694218E0,6.472580433E-1,-9.305562973E0,9.930871427E-3
2.790223958E0,6.855856180E-1,-9.298377037E0,1.711730659E-2
2.792753750E0,6.472580433E-1,-9.346285820E0,5.065400898E-2
2.795283541E0,6.807948351E-1,-9.346285820E0,-6.837478373E-3
2.797813281E0,7.742184401E-1,-9.351076126E0,-9.232956916E-3
2.800367760E0,8.053596020E-1,-9.389404297E0,9.930871427E-3
2.802897500E0,8.005686998E-1,-9.401381493E0,-3.079226241E-2
2.805427343E0,8.293143511E-1,-9.403777122E0,3.489572555E-4
2.807957083E0,8.892014027E-1,-9.391799927E0,-6.911992282E-2
2.810486875E0,9.083651304E-1,-9.434918404E0,5.139914341E-3
2.813016614E0,9.203425646E-1,-9.432523727E0,-4.276965559E-2
2.815546406E0,9.347153902E-1,-9.451686859E0,-6.432896107E-2
2.818076198E0,1.025743604E0,-9.466059685E0,-9.232956916E-3
2.820605937E0,1.078444123E0,-9.494805336E0,-6.837478373E-3
2.823135729E0,1.128749132E0,-9.513969421E0,-6.193348393E-2
2.825665520E0,1.198217988E0,-9.516365051E0,3.489572555E-4
2.828195260E0,1.231754780E0,-9.537924767E0,-1.881487109E-2
2.830756562E0,1.224568367E0,-9.535528183E0,-1.881487109E-2
2.833286354E0,1.258105040E0,-9.523551941E0,-7.870183140E-2
2.835816093E0,1.274873376E0,-9.540319443E0,-2.121035010E-2
2.838345885E0,1.286850810E0,-9.566669464E0,-4.516513273E-2
2.840875677E0,1.327573895E0,-9.552297592E0,-1.074475795E-1
2.843405416E0,1.313201070E0,-9.547506332E0,-1.074475795E-1
2.845935208E0,1.274873376E0,-9.540319443E0,-1.146340147E-1
2.848465000E0,1.320387483E0,-9.516365051E0,-1.936848015E-1
2.850994739E0,1.277268887E0,-9.518760681E0,-1.793119460E-1
2.853524531E0,1.253314137E0,-9.528342247E0,-2.631537020E-1
2.856054323E0,1.238941312E0,-9.549901962E0,-3.086677790E-1
2.858584062E0,1.169472456E0,-9.518760681E0,-2.751310766E-1
2.861117968E0,1.159890413E0,-9.487619400E0,-3.014813364E-1
2.863647760E0,1.131144643E0,-9.442104340E0,-3.398090005E-1
2.866177500E0,1.126353741E0,-9.434918404E0,-4.020914435E-1
2.868707291E0,1.167076945E0,-9.406172752E0,-4.739557803E-1
2.871237083E0,1.169472456E0,-9.336703300E0,-5.721704364E-1
2.873766823E0,1.157494903E0,-9.331912994E0,-5.769613385E-1
2.876296614E0,1.210195541E0,-9.305562973E0,-5.673794150E-1
2.878826406E0,1.236545801E0,-9.262444496E0,-6.799669266E-1
2.881356145E0,1.286850810E0,-9.260048866E0,-7.566222548E-1
2.883885937E0,1.279664397E0,-9.264839172E0,-7.733905911E-1
2.886415729E0,1.363506198E0,-9.190579414E0,-8.165091872E-1
2.888945468E0,1.380274415E0,-9.202557564E0,-8.859781027E-1
2.891510677E0,1.428184032E0,-9.216930389E0,-9.578424096E-1
2.894040468E0,1.495257378E0,-9.192975998E0,-9.961701035E-1
2.896570208E0,1.543167114E0,-9.166625023E0,-1.103966594E0
2.899100000E0,1.593472004E0,-9.195370674E0,-1.108757615E0
2.901629791E0,1.612635851E0,-9.178602219E0,-1.161458135E0
2.904159531E0,1.713246107E0,-9.204952240E0,-1.235718012E0
2.906689323E0,1.775528431E0,-9.243280411E0,-1.377051234E0
2.909219114E0,1.849788189E0,-9.240884781E0,-1.329141617E0
2.911748854E0,1.888115883E0,-9.245676041E0,-1.408192396E0
2.914278645E0,1.931234598E0,-9.274421692E0,-1.496825099E0
2.916808437E0,2.036635637E0,-9.291189194E0,-1.573480368E0
2.919338229E0,2.012680769E0,-9.339099884E0,-1.693254352E0
2.921893906E0,2.060590267E0,-9.449291229E0,-1.674090505E0
2.924423698E0,2.170782328E0,-9.542716026E0,-1.712418079E0
2.926953437E0,2.187550783E0,-9.657698631E0,-1.676486015E0
2.929483229E0,2.300138235E0,-9.722375870E0,-1.817819238E0
2.932013020E0,2.434284925E0,-9.789449692E0,-1.992689133E0
2.934542760E0,2.448657751E0,-9.925992012E0,-1.995084643E0
2.937072552E0,2.561245203E0,-1.000983334E1,-2.019039392E0
2.939602343E0,2.611550570E0,-1.005295277E1,-2.057367086E0
2.942132083E0,2.673832893E0,-1.003378868E1,-2.126836061E0
2.944661875E0,2.760070086E0,-1.006013870E1,-2.162768126E0
2.947191666E0,2.779233932E0,-1.001701927E1,-2.222655058E0
2.949721406E0,2.875052929E0,-9.914014816E0,-2.253796339E0
2.952244323E0,2.944522142E0,-9.839754105E0,-2.260982752E0
2.954774114E0,2.982849598E0,-9.712794304E0,-2.270564795E0
2.957303854E0,3.011595249E0,-9.616974831E0,-2.253796339E0
2.959833645E0,3.018781662E0,-9.525946617E0,-2.304101467E0
2.962363437E0,3.064295769E0,-9.430127144E0,-2.284937382E0
2.964893177E0,3.028363705E0,-9.307958603E0,-2.251400709E0
2.967422968E0,3.018781662E0,-9.204952240E0,-2.225050449E0
2.969952760E0,2.994827032E0,-9.130692482E0,-2.177140951E0
2.972482500E0,2.973267794E0,-9.123506546E0,-2.208282232E0
2.975012291E0,2.903798819E0,-9.097156525E0,-2.225050449E0
2.977542083E0,2.896612167E0,-9.037269592E0,-2.181931973E0
2.980071875E0,2.889425993E0,-8.972591400E0,-2.105276823E0
2.982660364E0,2.872657537E0,-8.919890404E0,-2.102881193E0
2.985190156E0,2.899007797E0,-8.951031685E0,-2.083717346E0
2.987719895E0,2.934940100E0,-8.931868553E0,-2.083717346E0
2.990249687E0,2.910985231E0,-8.946240425E0,-2.042994261E0
2.992779479E0,2.858284712E0,-8.907913208E0,-2.016644001E0
2.995309218E0,2.824748039E0,-8.886353493E0,-2.002271175E0
2.997839010E0,2.848702669E0,-8.862400055E0,-1.975920796E0
3.000368802E0,2.805584192E0,-8.836048126E0,-1.963943362E0
3.002898541E0,2.760070086E0,-8.778557777E0,-1.997480154E0
3.005428333E0,2.712160587E0,-8.795325279E0,-1.990293741E0
3.007958125E0,2.678623676E0,-8.795325279E0,-1.987898231E0
3.010487864E0,2.683414698E0,-8.771371841E0,-2.002271175E0
3.013050468E0,2.589991093E0,-8.778557777E0,-2.021434784E0
3.015580208E0,2.573222876E0,-8.756999016E0,-2.059762716E0
3.018110000E0,2.544476986E0,-8.701902390E0,-2.076530933E0
3.020639791E0,2.482194424E0,-8.685133934E0,-2.062157869E0
3.023169583E0,2.400748253E0,-8.704298019E0,-2.054971695E0
3.025699323E0,2.395957232E0,-8.649201393E0,-2.062157869E0
3.028229114E0,2.348047733E0,-8.630037308E0,-2.011852980E0
3.030758906E0,2.252228498E0,-8.670760155E0,-2.117254019E0
3.033288645E0,2.211505413E0,-8.653992653E0,-2.122045040E0
3.035818489E0,2.168386698E0,-8.653992653E0,-2.165163517E0
3.038348229E0,2.204319000E0,-8.622851372E0,-2.136417866E0
3.040877968E0,2.158805132E0,-8.646806717E0,-2.117254019E0
3.043427239E0,2.089335918E0,-8.778557777E0,-2.294519424E0
3.045957031E0,1.995912552E0,-8.852817535E0,-2.320869684E0
3.048486770E0,1.969562292E0,-8.934263229E0,-2.282541990E0
3.051016562E0,1.895302296E0,-9.027688026E0,-2.292124033E0
3.053546354E0,1.727618694E0,-9.161834717E0,-2.272960186E0
3.056076093E0,1.547958136E0,-9.322331429E0,-2.371174812E0
3.058605885E0,1.509630203E0,-9.463665009E0,-2.347219944E0
3.061135677E0,1.555144310E0,-9.626556396E0,-2.361592770E0
3.063665416E0,1.586285591E0,-9.832567215E0,-2.352010965E0
3.066195208E0,1.516816854E0,-1.005774212E1,-2.440643787E0
3.068725000E0,1.373088002E0,-1.031166363E1,-2.440643787E0
3.071254739E0,1.303619146E0,-1.065421772E1,-2.455016375E0
3.073810000E0,1.322782993E0,-1.089136982E1,-2.524485588E0
3.076339791E0,1.317991972E0,-1.108300781E1,-2.519694567E0
3.078869531E0,1.382669926E0,-1.130818272E1,-2.500530481E0
3.081399323E0,1.358715177E0,-1.148784351E1,-2.541253805E0
3.083929114E0,1.229359269E0,-1.159324455E1,-2.546044827E0
3.086458854E0,1.123958230E0,-1.169145966E1,-2.536462784E0
3.088988645E0,1.030534506E0,-1.176811504E1,-2.488553286E0
3.091518437E0,1.011370778E0,-1.203880405E1,-2.411897898E0
3.094048229E0,9.993934631E-1,-1.265444183E1,-2.208282232E0
3.096578020E0,9.275289774E-1,-1.253945827E1,-2.347219944E0
3.099107760E0,6.736083031E-1,-1.157168579E1,-2.876620770E0
3.101637500E0,4.580152035E-1,-1.108300781E1,-3.147309780E0
3.104199843E0,3.813598752E-1,-1.083627319E1,-3.250315428E0
3.106729635E0,3.190774918E-1,-1.048174286E1,-3.386857748E0
3.109259375E0,9.629797935E-2,-9.921200752E0,-3.652755737E0
3.111789166E0,-6.419909000E-2,-9.770285606E0,-3.798879862E0
3.114318958E0,-1.097131968E-1,-9.973901749E0,-3.772529840E0
3.116848698E0,-1.288770139E-1,-9.935573578E0,-3.786902428E0
3.119378489E0,-2.175097167E-1,-9.930782318E0,-3.803670883E0
3.121908281E0,-1.552272737E-1,-9.933178902E0,-3.782111406E0
3.124438020E0,-1.001312733E-1,-9.868500710E0,-3.731806517E0
3.126967812E0,-1.312724948E-1,-9.758308411E0,-3.523400068E0
3.129497604E0,-2.007413805E-1,-9.631347656E0,-3.238337994E0
3.132027343E0,-9.054934978E-2,-9.542716026E0,-3.065863371E0
3.134583906E0,1.245623827E-2,-9.295980453E0,-2.857456923E0
3.137113698E0,8.192509413E-2,-9.051641464E0,-2.598745108E0
3.139643437E0,1.945126057E-1,-8.821676254E0,-2.383152246E0
3.142173229E0,3.406367898E-1,-8.606082916E0,-2.246609926E0
3.144703020E0,5.825802088E-1,-8.486310005E0,-2.057367086E0
3.147232760E0,8.388962746E-1,-8.265925407E0,-1.856146812E0
3.149762552E0,1.047302961E0,-8.115009308E0,-1.748350382E0
3.152292343E0,1.303619146E0,-7.892231464E0,-1.731581926E0
3.154822083E0,1.502443790E0,-7.832344532E0,-1.635762811E0
3.157351875E0,1.753968954E0,-7.875463009E0,-1.618994474E0
3.159881666E0,2.007889748E0,-7.849112988E0,-1.575875878E0
3.162411406E0,2.307324648E0,-7.923371792E0,-1.674090505E0
3.164967708E0,2.525313377E0,-7.995235920E0,-1.769909620E0
3.167497500E0,2.719347000E0,-8.105427742E0,-1.868124247E0
3.170027239E0,2.877448559E0,-8.153337479E0,-2.009457588E0
3.172557031E0,3.061900377E0,-8.304252625E0,-2.138813257E0
3.175086823E0,3.160115004E0,-8.479122162E0,-2.304101467E0
3.177616562E0,3.325402975E0,-8.634828568E0,-2.368779182E0
3.180146354E0,3.390080929E0,-8.642015457E0,-2.567604065E0
3.182676145E0,3.392476559E0,-8.742625237E0,-2.768824339E0
3.185205885E0,3.416431189E0,-8.876772881E0,-2.898180008E0
3.187735677E0,3.387685537E0,-8.903122902E0,-3.017953873E0
3.190265468E0,3.231979370E0,-8.927077293E0,-3.128145933E0
3.192795208E0,3.205629110E0,-8.984568596E0,-3.267083645E0
3.195350729E0,3.021177292E0,-8.989359856E0,-3.291038513E0
3.197880520E0,2.934940100E0,-8.989359856E0,-3.374880314E0
3.200410260E0,2.714555979E0,-8.963009834E0,-3.449140072E0
3.202940052E0,2.568431854E0,-8.888749123E0,-3.489863157E0
3.205469843E0,2.486985445E0,-8.855212212E0,-3.497049809E0
3.207999583E0,2.484590054E0,-8.833653450E0,-3.602450609E0
3.210529375E0,2.288160801E0,-8.586919785E0,-3.568913937E0
3.213059166E0,2.187550783E0,-8.541405678E0,-3.614428043E0
3.215588906E0,2.211505413E0,-8.469540596E0,-3.657546759E0
3.218118698E0,2.170782328E0,-8.385698318E0,-3.686292410E0
3.220648489E0,2.240251303E0,-8.388094902E0,-3.727015495E0
3.223178229E0,2.225878239E0,-8.275506973E0,-3.801275492E0
3.225727083E0,2.029448986E0,-8.040750504E0,-3.691083431E0
3.228256875E0,2.019867182E0,-8.000026703E0,-3.837207556E0
3.230786614E0,2.089335918E0,-7.971282482E0,-3.911467552E0
3.233316406E0,2.158805132E0,-7.940140247E0,-3.882721663E0
3.235846198E0,2.218692064E0,-7.861090183E0,-3.786902428E0
3.238375937E0,2.139641047E0,-7.619146824E0,-3.782111406E0
3.240905729E0,2.079754353E0,-7.552073002E0,-3.762947798E0
3.243435520E0,2.161200523E0,-7.566445827E0,-3.815648317E0
3.245965260E0,2.268996954E0,-7.494581699E0,-3.820439339E0
3.248495052E0,2.316906452E0,-7.465835094E0,-3.736597538E0
3.251024843E0,2.273787975E0,-7.317316055E0,-3.722224712E0
3.253554583E0,2.233064890E0,-7.286175251E0,-3.727015495E0
3.256110312E0,2.245042324E0,-7.255033493E0,-3.645569324E0
3.258640104E0,2.218692064E0,-7.240660667E0,-3.662337780E0
3.261169843E0,2.268996954E0,-7.171192169E0,-3.700665236E0
3.263699635E0,2.201923609E0,-7.075372696E0,-3.676710367E0
3.266229427E0,2.163595915E0,-6.977158070E0,-3.676710367E0
3.268759218E0,2.103708982E0,-6.900503159E0,-3.679105997E0
3.271288958E0,2.094126940E0,-6.845407009E0,-3.698269844E0
3.273818750E0,2.149223089E0,-6.864570618E0,-3.674314976E0
3.276348489E0,2.091731548E0,-6.823847771E0,-3.719829321E0
3.278878281E0,2.058194876E0,-6.804683685E0,-3.801275492E0
3.281408073E0,1.998307943E0,-6.835824966E0,-3.798879862E0
3.283937812E0,1.950398207E0,-6.938830376E0,-3.712642670E0
3.286501250E0,1.921652555E0,-6.950808048E0,-3.729410887E0
3.289031041E0,1.938421011E0,-6.898107529E0,-3.806066513E0
3.291560781E0,1.864161015E0,-6.922061920E0,-3.758156776E0
3.294090573E0,1.804274082E0,-6.946017265E0,-3.770134211E0
3.296620364E0,1.833019733E0,-7.001112938E0,-3.789298058E0
3.299150104E0,1.751573563E0,-6.977158070E0,-3.772529840E0
3.301679895E0,1.763550997E0,-6.946017265E0,-3.738992929E0
3.304209687E0,1.722827673E0,-7.003508568E0,-3.758156776E0
3.306739427E0,1.674918175E0,-6.950808048E0,-3.784507036E0
3.309269218E0,1.648567915E0,-6.931643963E0,-3.758156776E0
3.311799010E0,1.638986111E0,-6.957994461E0,-3.813252687E0
3.314328750E0,1.622217894E0,-7.008299351E0,-3.777320623E0
3.316883489E0,1.617426872E0,-6.950808048E0,-3.772529840E0
3.319413281E0,1.557539701E0,-6.957994461E0,-3.767738819E0
3.321943020E0,1.552748919E0,-7.049022675E0,-3.810857296E0
3.324472812E0,1.603054047E0,-7.080163479E0,-3.784507036E0
3.327002604E0,1.586285591E0,-7.022672176E0,-3.767738819E0
3.329532395E0,1.509630203E0,-6.996322155E0,-3.885117292E0
3.332062135E0,1.571912766E0,-7.108909607E0,-3.887512684E0
3.334591927E0,1.550353527E0,-7.020276546E0,-3.877930641E0
3.337121666E0,1.428184032E0,-6.972367287E0,-3.837207556E0
3.339651458E0,1.444952488E0,-7.020276546E0,-3.923444748E0
3.342181250E0,1.488070965E0,-7.008299351E0,-3.971354485E0
3.344710989E0,1.516816854E0,-7.001112938E0,-4.012077808E0
3.347266041E0,1.562330723E0,-7.008299351E0,-4.040823460E0
3.349795833E0,1.567121744E0,-7.017880917E0,-4.105501652E0
3.352325573E0,1.555144310E0,-7.132863998E0,-4.052801132E0
3.354855364E0,1.658149958E0,-7.219101429E0,-4.112688065E0
3.357385156E0,1.514421225E0,-7.022672176E0,-4.251625538E0
3.359914895E0,1.380274415E0,-7.022672176E0,-4.301930904E0
3.362444687E0,1.423393011E0,-7.039440632E0,-4.354631424E0
3.364974479E0,1.535980463E0,-7.101723194E0,-4.416913509E0
3.367504218E0,1.564726353E0,-7.108909607E0,-4.428891182E0
3.370034010E0,1.571912766E0,-7.106513977E0,-4.503150940E0
3.372563802E0,1.600658417E0,-7.089745522E0,-4.539083004E0
3.375093541E0,1.593472004E0,-7.084954739E0,-4.584597111E0
3.377649791E0,1.591076612E0,-7.166400909E0,-4.634902000E0
3.380179583E0,1.684500217E0,-7.130468369E0,-4.725930214E0
3.382709323E0,1.718037128E0,-7.166400909E0,-4.742698669E0
3.385239166E0,1.765946627E0,-7.106513977E0,-4.903195858E0
3.387768906E0,1.811460495E0,-7.132863998E0,-4.881636620E0
3.390298645E0,1.895302296E0,-7.130468369E0,-4.919964314E0
3.392828437E0,2.022262812E0,-7.106513977E0,-4.955896378E0
3.395358229E0,2.094126940E0,-7.068186760E0,-4.929546356E0
3.397887968E0,2.168386698E0,-7.089745522E0,-5.006201267E0
3.400417760E0,2.292951822E0,-7.116096020E0,-5.034947395E0
3.402947552E0,2.280974388E0,-7.070581913E0,-4.963082790E0
3.405477291E0,2.340861320E0,-7.068186760E0,-4.996619225E0
3.408033385E0,2.372002602E0,-7.051417828E0,-4.931941509E0
3.410563177E0,2.453448772E0,-7.092141151E0,-4.951105118E0
3.413092916E0,2.494172096E0,-7.053813457E0,-4.999014854E0
3.415622708E0,2.561245203E0,-7.034649372E0,-4.970269203E0
3.418152500E0,2.601968527E0,-7.015486240E0,-4.977455616E0
3.420682239E0,2.661855459E0,-7.027462959E0,-4.915173054E0
3.423212031E0,2.695392370E0,-7.080163479E0,-4.898404598E0
3.425741823E0,2.637900829E0,-7.089745522E0,-4.919964314E0
3.428271562E0,2.688205719E0,-7.080163479E0,-4.939127922E0
3.430801354E0,2.755279064E0,-7.092141151E0,-4.970269203E0
3.433331145E0,2.731324196E0,-7.099327564E0,-4.963082790E0
3.435860885E0,2.755279064E0,-7.173587322E0,-4.999014854E0
3.438417239E0,2.762465477E0,-7.173587322E0,-5.051715374E0
3.440947031E0,2.796002388E0,-7.168796539E0,-5.113997936E0
3.443476770E0,2.807979584E0,-7.183169365E0,-5.073274612E0
3.446006614E0,2.903798819E0,-7.156818867E0,-5.046924591E0
3.448536354E0,2.963685751E0,-7.221497059E0,-5.001410007E0
3.451066093E0,2.961290359E0,-7.173587322E0,-5.013387680E0
3.453595885E0,3.047527552E0,-7.195146561E0,-4.991828918E0
3.456125677E0,3.102623463E0,-7.262219906E0,-4.970269203E0
3.458655416E0,3.133764744E0,-7.259824753E0,-4.958291531E0
3.461185208E0,3.164906025E0,-7.283779621E0,-4.979851246E0
3.463715000E0,3.198442459E0,-7.348457336E0,-4.903195858E0
3.466244739E0,3.282284260E0,-7.358038902E0,-4.934337139E0
3.468800000E0,3.311029911E0,-7.429903507E0,-4.884031773E0
3.471329791E0,3.342171192E0,-7.484999180E0,-4.898404598E0
3.473859531E0,3.349357843E0,-7.492186069E0,-4.886427402E0
3.476389323E0,3.370917082E0,-7.547281742E0,-4.864868164E0
3.478919114E0,3.337380171E0,-7.580818653E0,-4.824145317E0
3.481448854E0,3.313425541E0,-7.566445827E0,-4.781026363E0
3.483978645E0,3.311029911E0,-7.556864262E0,-4.819354057E0
3.486508437E0,3.315820932E0,-7.549677372E0,-4.781026363E0
3.489038177E0,3.287075281E0,-7.552073002E0,-4.749885082E0
3.491567968E0,3.231979370E0,-7.516141415E0,-4.670834064E0
3.494097760E0,3.152928591E0,-7.473021984E0,-4.706766605E0
3.496627500E0,3.097832441E0,-7.437089920E0,-4.685207367E0
3.499183385E0,3.009199858E0,-7.358038902E0,-4.656461716E0
3.501713177E0,2.870262146E0,-7.240660667E0,-4.642088890E0
3.504242916E0,2.776838541E0,-7.144841671E0,-4.666043282E0
3.506772760E0,2.750488281E0,-7.070581913E0,-4.575015068E0
3.509302500E0,2.633109808E0,-6.972367287E0,-4.584597111E0
3.511832239E0,2.448657751E0,-6.893316746E0,-4.591783524E0
3.514362031E0,2.333675146E0,-6.802288055E0,-4.558246613E0
3.516891823E0,2.221087456E0,-6.735215187E0,-4.601365566E0
3.519421562E0,2.142036438E0,-6.637000084E0,-4.596574783E0
3.521951354E0,2.067776680E0,-6.536389828E0,-4.646879673E0
3.524481145E0,1.967166662E0,-6.466920853E0,-4.675625324E0
3.527010885E0,1.897697687E0,-6.402243614E0,-4.589388371E0
3.529560000E0,1.816251516E0,-6.378288746E0,-4.577410698E0
3.532091458E0,1.691686869E0,-6.378288746E0,-4.455241203E0
3.534622968E0,1.579099178E0,-6.402243614E0,-4.342653751E0
3.537154479E0,1.543167114E0,-6.387870789E0,-4.294744015E0
3.539685937E0,1.519212246E0,-6.440570831E0,-4.222879887E0
3.542217448E0,1.423393011E0,-6.579508781E0,-4.100710392E0
3.544748958E0,1.337155819E0,-6.751983166E0,-3.853976011E0
3.547280468E0,1.217381954E0,-7.034649372E0,-3.573704958E0
3.549811927E0,1.100003481E0,-7.319711685E0,-3.123354912E0
3.552343489E0,9.083651304E-1,-7.714965343E0,-2.414293528E0
3.554874948E0,7.430771589E-1,-8.112614632E0,-1.817819238E0
3.557406406E0,6.185122728E-1,-8.493495941E0,-1.326746106E0
3.559944427E0,4.939473867E-1,-8.917495728E0,-9.841926694E-1
3.562475937E0,4.580152035E-1,-9.466059685E0,-9.003509283E-1
3.565007395E0,4.723881483E-1,-9.952342033E0,-1.056057096E0
3.567538906E0,5.610207319E-1,-1.051767445E1,-1.441729069E0
3.570070364E0,7.071449757E-1,-1.120757294E1,-2.023830414E0
3.572601875E0,7.574499846E-1,-1.185195637E1,-2.502925873E0
3.575133385E0,9.586702585E-1,-1.257299519E1,-3.120959520E0
3.577664895E0,1.088026047E0,-1.330601120E1,-3.544959307E0
3.580196354E0,1.181449771E0,-1.400788784E1,-3.928235769E0
3.582727864E0,1.241336703E0,-1.460436153E1,-4.117478848E0
3.585259375E0,1.337155819E0,-1.513136673E1,-4.311512947E0
3.587790833E0,1.416206598E0,-1.545475674E1,-4.467218876E0
3.590321458E0,1.593472004E0,-1.565357971E1,-4.536687851E0
3.592852916E0,1.840206385E0,-1.566555786E1,-4.718743801E0
3.595384479E0,1.983935118E0,-1.549787521E1,-4.685207367E0
3.597915937E0,2.175573349E0,-1.511459827E1,-4.759467125E0
3.600447448E0,2.278578758E0,-1.463789749E1,-4.745094299E0
3.602978906E0,2.355234385E0,-1.401507378E1,-4.701975822E0
3.605510416E0,2.364815950E0,-1.330122089E1,-4.522314548E0
3.608041927E0,2.381584644E0,-1.252508545E1,-4.270789146E0
3.610573437E0,2.369606972E0,-1.163875866E1,-4.019264221E0
3.613104895E0,2.331279516E0,-1.081231880E1,-3.655151129E0
3.615636406E0,2.264205933E0,-1.009846687E1,-3.358111858E0
3.618167864E0,2.118081808E0,-9.375031471E0,-3.075445414E0
3.620676093E0,1.933629990E0,-8.764184952E0,-2.807151794E0
3.623207552E0,1.684500217E0,-8.203642845E0,-2.500530481E0
3.625739062E0,1.437765837E0,-7.724547863E0,-2.141208649E0
3.628270573E0,1.222172856E0,-7.293361664E0,-1.762723207E0
3.630802083E0,9.922069311E-1,-6.886129856E0,-1.350700855E0
3.633333593E0,7.095404863E-1,-6.603463650E0,-1.046475053E0
3.635865052E0,5.298795700E-1,-6.378288746E0,-8.117182255E-1
3.638396562E0,4.268740416E-1,-6.179463863E0,-6.847578287E-1
3.640928073E0,2.352356911E-1,-6.035735130E0,-5.218653679E-1
3.643459583E0,6.994771957E-2,-5.956684589E0,-3.589728177E-1
3.645991041E0,1.006072760E-2,-5.903983593E0,-2.751310766E-1
3.648522552E0,-6.180357933E-2,-5.856073856E0,-1.505661905E-1
3.651100520E0,-9.294486046E-2,-5.872842789E0,2.669922262E-2
3.653631979E0,-1.432498693E-1,-5.927938461E0,2.183374912E-1
3.656163489E0,-6.180357933E-2,-6.011780739E0,4.363260567E-1
3.658695000E0,-7.617646456E-2,-6.169881821E0,6.447327137E-1
3.661226458E0,1.724714041E-2,-6.258514404E0,8.196026683E-1
3.663757968E0,9.390246868E-2,-6.445362091E0,9.585403800E-1
3.666289479E0,2.088854909E-1,-6.668141365E0,1.145387769E0
3.668820989E0,4.053147435E-1,-6.905293465E0,1.157365203E0
3.671352448E0,6.041394472E-1,-7.173587322E0,1.126223922E0
3.673883958E0,8.173370361E-1,-7.544886112E0,1.102269173E0
3.676415468E0,1.159890413E0,-7.880254269E0,1.030404806E0
3.678946927E0,1.547958136E0,-8.261134148E0,8.794896007E-1
3.681462187E0,1.902488708E0,-8.658783913E0,8.076252341E-1
3.683993698E0,2.273787975E0,-8.991755486E0,6.543145776E-1
3.686525208E0,2.601968527E0,-9.353472710E0,5.345407128E-1
3.689056718E0,2.968476772E0,-9.731957436E0,3.740435839E-1
3.691588177E0,3.284679890E0,-1.005534744E1,3.021792471E-1
3.694119687E0,3.593696594E0,-1.035717773E1,1.464731395E-1
3.696651198E0,3.842826366E0,-1.063265800E1,-9.232956916E-3
3.699182708E0,4.000927925E0,-1.091292858E1,-9.307470173E-2
3.701714166E0,4.192565918E0,-1.109258938E1,-2.823175192E-1
3.704245677E0,4.271616936E0,-1.128183270E1,-3.493909240E-1
3.706777187E0,4.355458736E0,-1.137046528E1,-4.068823755E-1
3.709308645E0,4.415345669E0,-1.149503040E1,-4.404191077E-1
3.711866666E0,4.429718494E0,-1.155491734E1,-4.763512909E-1
3.714398125E0,4.439300537E0,-1.158126736E1,-5.793568492E-1
3.716929635E0,4.295571804E0,-1.161959457E1,-6.009160876E-1
3.719461145E0,4.266826153E0,-1.160761738E1,-5.865432024E-1
3.721992604E0,4.173402309E0,-1.148544884E1,-5.913342237E-1
3.724524114E0,4.027277946E0,-1.137525654E1,-5.410291553E-1
3.727055625E0,3.780543804E0,-1.114529037E1,-4.428145587E-1
3.729587083E0,3.648792744E0,-1.111175346E1,-3.901140392E-1
3.732118593E0,3.552973747E0,-1.098000240E1,-4.332326651E-1
3.734650104E0,3.373312473E0,-1.081710911E1,-3.685547709E-1
3.737181562E0,3.066691160E0,-1.054162979E1,-3.901140392E-1
3.739713073E0,2.798397779E0,-1.035957336E1,-4.787467420E-1
3.742250729E0,2.683414698E0,-1.033561897E1,-5.122833848E-1
3.744782187E0,2.484590054E0,-1.016553974E1,-5.554020405E-1
3.747313698E0,2.175573349E0,-9.933178902E0,-6.224753857E-1
3.749845208E0,1.830624580E0,-9.719980240E0,-5.386336446E-1
3.752376666E0,1.629404306E0,-9.688839912E0,-4.787467420E-1
3.754908177E0,1.387460947E0,-9.501991272E0,-4.811422229E-1
3.757439687E0,1.066466808E0,-9.276816368E0,-4.356281459E-1
3.759971198E0,7.718229294E-1,-9.147461891E0,-3.469954431E-1
3.762502656E0,6.448625326E-1,-9.003732681E0,-2.918994427E-1
3.765034166E0,4.005237222E-1,-8.742625237E0,-1.793119460E-1
3.767565677E0,2.400266528E-1,-8.622851372E0,-2.176395953E-1
3.770097135E0,1.202527881E-1,-8.491100311E0,-1.769164652E-1
3.772632500E0,-3.784883022E-2,-8.265925407E0,-1.457752436E-1
3.775163958E0,-1.121086478E-1,-8.155733109E0,-1.361933202E-1
3.777695468E0,-2.007413805E-1,-8.038354874E0,-1.337978542E-1
3.780226927E0,-2.773966789E-1,-7.940140247E0,-2.703401446E-1
3.782758437E0,-3.684248626E-1,-7.880254269E0,-2.895039320E-1
3.785289948E0,-4.618485272E-1,-7.918581486E0,-3.182497025E-1
3.787821458E0,-4.858033061E-1,-7.882648945E0,-3.230406642E-1
3.790352968E0,-4.426847100E-1,-7.844321728E0,-3.422044814E-1
3.792884427E0,-4.211254120E-1,-7.834739208E0,-3.493909240E-1
3.795415885E0,-3.971706033E-1,-7.837134838E0,-3.086677790E-1
3.797947395E0,-3.013514578E-1,-7.882648945E0,-2.871084809E-1
3.800478906E0,-1.743910909E-1,-8.043145180E0,-2.751310766E-1
3.803016093E0,-4.024428129E-2,-8.184478760E0,-2.583627105E-1
3.805547552E0,-1.149851084E-2,-8.249156952E0,-2.942949235E-1
3.808079062E0,9.869349003E-2,-8.421631813E0,-3.493909240E-1
3.810610573E0,2.591904998E-1,-8.546196938E0,-3.445999324E-1
3.813142031E0,4.005237222E-1,-8.689924240E0,-3.326225579E-1
3.815673541E0,5.394614935E-1,-8.826467514E0,-2.847130001E-1
3.818205052E0,6.760038137E-1,-8.960613251E0,-2.535717785E-1
3.820736562E0,8.868058920E-1,-9.008523941E0,-3.230406642E-1
3.823268020E0,1.052093863E0,-9.061223984E0,-2.200350761E-1
3.825799531E0,1.226963758E0,-9.145065308E0,-1.888938546E-1
3.828331041E0,1.480884552E0,-9.248071671E0,-1.242159232E-1
3.830862500E0,1.610240221E0,-9.252862930E0,-6.672444195E-2
3.833399583E0,1.835415363E0,-9.288794518E0,1.951278374E-2
3.835931041E0,1.995912552E0,-9.351076126E0,1.416821778E-1
3.838462552E0,2.142036438E0,-9.281607628E0,1.057500169E-1
3.840994062E0,2.264205933E0,-9.358263969E0,9.377261996E-2
3.843525520E0,2.388771057E0,-9.406172752E0,2.231284529E-1
3.846057031E0,2.472612858E0,-9.363054276E0,2.279194146E-1
3.848588541E0,2.570827246E0,-9.358263969E0,2.542696893E-1
3.851120052E0,2.640295982E0,-9.353472710E0,2.255239338E-1
3.853651510E0,2.673832893E0,-9.319935799E0,3.381114304E-1
3.856183020E0,2.762465477E0,-9.322331429E0,4.339305460E-1
3.858714531E0,2.872657537E0,-9.298377037E0,3.716481328E-1
3.861245989E0,2.899007797E0,-9.228907585E0,3.932074308E-1
3.863783177E0,2.884634972E0,-9.274421692E0,3.764390945E-1
3.866314635E0,2.918171883E0,-9.257653236E0,3.357159197E-1
3.868846145E0,2.910985231E0,-9.221720695E0,3.572752476E-1
3.871377656E0,2.968476772E0,-9.243280411E0,3.452978730E-1
3.873909114E0,3.023572683E0,-9.173811913E0,2.303148806E-1
3.876440625E0,2.903798819E0,-9.147461891E0,2.446877658E-1
3.878972135E0,2.939731121E0,-9.216930389E0,1.656369567E-1
3.881503593E0,2.925358057E0,-9.133088112E0,8.179523051E-2
3.884035104E0,2.867866516E0,-9.130692482E0,1.201228872E-1
3.886566614E0,2.920567036E0,-9.135483742E0,-1.402391400E-2
3.889098125E0,2.817561626E0,-9.075596809E0,-8.588826656E-2
3.891629583E0,2.738510847E0,-9.147461891E0,-9.307470173E-2
3.894154791E0,2.815165997E0,-9.104342461E0,-1.960802823E-1
3.896686302E0,2.743301868E0,-9.063619614E0,-2.104531676E-1
3.899217812E0,2.582804680E0,-9.099551201E0,-2.128486335E-1
3.901749270E0,2.613945723E0,-9.154647827E0,-3.062722981E-1
3.904280781E0,2.599573135E0,-9.044455528E0,-3.757411540E-1
3.906812291E0,2.479799032E0,-8.924681664E0,-3.877185583E-1
3.909343750E0,2.271392584E0,-8.919890404E0,-3.877185583E-1
3.911875260E0,2.177968740E0,-8.891144753E0,-3.685547709E-1
3.914406770E0,2.074963331E0,-8.843235970E0,-3.613683283E-1
3.916938281E0,2.043822050E0,-8.845630646E0,-4.140688181E-1
3.919469739E0,1.969562292E0,-8.776161194E0,-4.619784057E-1
3.922001250E0,1.852183819E0,-8.670760155E0,-4.835377038E-1
3.924549531E0,1.679709196E0,-8.601292610E0,-5.122833848E-1
3.927080989E0,1.545562506E0,-8.579732895E0,-5.410291553E-1
3.929612500E0,1.497653008E0,-8.653992653E0,-5.554020405E-1
3.932143958E0,1.442556858E0,-8.656388283E0,-6.272664070E-1
3.934675468E0,1.409020185E0,-8.694715500E0,-6.799669266E-1
3.937206979E0,1.353924155E0,-8.699506760E0,-6.895488501E-1
3.939738489E0,1.279664397E0,-8.733043671E0,-6.608030796E-1
3.942270000E0,1.200613499E0,-8.764184952E0,-6.871533394E-1
3.944801458E0,1.076048613E0,-8.776161194E0,-7.446448803E-1
3.947332968E0,9.323199987E-1,-8.723461151E0,-6.871533394E-1
3.949864479E0,9.227380753E-1,-8.804907799E0,-8.069272637E-1
3.952395937E0,1.016161799E0,-8.883958817E0,-7.781815529E-1
3.954932343E0,9.850205183E-1,-8.943845749E0,-7.805770636E-1
3.957463802E0,9.538792372E-1,-8.967800140E0,-8.835825920E-1
3.959995312E0,9.155516624E-1,-8.958218575E0,-8.979554772E-1
3.962526823E0,9.323199987E-1,-8.977382660E0,-9.219102263E-1
3.965058281E0,9.107606411E-1,-8.984568596E0,-9.650288224E-1
3.967589791E0,8.772240877E-1,-8.963009834E0,-1.003356576E0
3.970121250E0,8.963878155E-1,-8.994150162E0,-1.027311325E0
3.972652760E0,9.323199987E-1,-8.998941422E0,-9.913790822E-1
3.975184270E0,9.946024418E-1,-9.030082703E0,-1.000961065E0
3.977715781E0,1.047302961E0,-9.066014290E0,-1.056057096E0
3.980247291E0,1.044907451E0,-9.049246788E0,-1.022520304E0
3.982778750E0,1.078444123E0,-8.982173920E0,-1.039288759E0
3.985316666E0,1.111980915E0,-8.991755486E0,-1.017729402E0
3.987848125E0,1.159890413E0,-8.991755486E0,-9.961701035E-1
3.990379635E0,1.174263239E0,-8.963009834E0,-1.005751967E0
3.992911145E0,1.150308490E0,-8.893540382E0,-9.889836907E-1
3.995442604E0,1.167076945E0,-8.958218575E0,-9.434695244E-1
3.997974114E0,1.363506198E0,-9.044455528E0,-1.034497738E0
4.000505625E0,1.461720705E0,-8.998941422E0,-1.017729402E0
4.003037135E0,1.480884552E0,-8.977382660E0,-9.554469585E-1
4.005568593E0,1.519212246E0,-9.008523941E0,-9.674243331E-1
4.008100104E0,1.533585072E0,-8.898331642E0,-9.027464390E-1
4.010631614E0,1.519212246E0,-8.963009834E0,-7.925544381E-1
4.013163073E0,1.650963545E0,-9.068410873E0,-8.644188046E-1
4.015700520E0,1.768342018E0,-8.998941422E0,-8.787916899E-1
4.018232031E0,1.813856125E0,-9.008523941E0,-8.045318127E-1
4.020763541E0,1.878534079E0,-9.008523941E0,-7.781815529E-1
4.023295000E0,1.794692278E0,-8.948637009E0,-6.775714159E-1
4.025826510E0,1.739596367E0,-9.056432724E0,-5.985206366E-1
4.028357968E0,1.967166662E0,-9.113924980E0,-6.392437816E-1
4.030889479E0,2.067776680E0,-9.061223984E0,-6.703850031E-1
4.033420989E0,2.086940527E0,-9.020500183E0,-5.937296748E-1
4.035952500E0,2.024658203E0,-8.919890404E0,-4.763512909E-1
4.038484010E0,2.120477200E0,-9.044455528E0,-4.763512909E-1
4.041015468E0,2.213901043E0,-9.018105507E0,-4.955151081E-1
4.043546979E0,2.242646694E0,-8.994150162E0,-4.859331846E-1
4.046076770E0,2.180364370E0,-8.953427315E0,-4.284417033E-1
4.048608229E0,2.101313591E0,-8.855212212E0,-3.374135196E-1
4.051139739E0,2.127663851E0,-8.857608795E0,-3.302270770E-1
4.053671250E0,2.237855673E0,-8.850421906E0,-4.643738866E-1
4.056202708E0,2.292951822E0,-8.766580582E0,-4.284417033E-1
4.058734218E0,2.139641047E0,-8.625247002E0,-3.230406642E-1
4.061265729E0,2.122872829E0,-8.670760155E0,-3.398090005E-1
4.063797239E0,2.194736958E0,-8.608478546E0,-4.667693377E-1
4.066328698E0,2.223482847E0,-8.565359116E0,-4.332326651E-1
4.068860208E0,2.130059242E0,-8.524636269E0,-4.691648483E-1
4.071391718E0,2.034240007E0,-8.550986290E0,-5.242608190E-1
4.073923177E0,1.940816641E0,-8.586919785E0,-5.050969720E-1
4.076465781E0,1.919256926E0,-8.570150375E0,-6.176844835E-1
4.078997239E0,1.924047947E0,-8.618060112E0,-6.751759648E-1
4.081528750E0,1.878534079E0,-8.642015457E0,-6.991307139E-1
4.084060260E0,1.873743057E0,-8.742625237E0,-7.781815529E-1
4.086591718E0,1.844997168E0,-8.780952454E0,-8.284866214E-1
4.089123229E0,1.880929470E0,-8.785743713E0,-9.123283625E-1
4.091654739E0,1.801878691E0,-8.860003471E0,-8.883735538E-1
4.094186250E0,1.811460495E0,-8.963009834E0,-9.722152948E-1
4.096717708E0,1.890511274E0,-9.056432724E0,-1.058452487E0
4.099249218E0,1.921652555E0,-9.166625023E0,-1.075220823E0
4.101780729E0,1.907279730E0,-9.178602219E0,-1.072825313E0
4.104312187E0,1.959980249E0,-9.286398888E0,-1.099175572E0
4.106848593E0,2.048613071E0,-9.372636795E0,-1.180621982E0
4.109380052E0,2.125268221E0,-9.403777122E0,-1.242904305E0
4.111911562E0,2.165991545E0,-9.415754318E0,-1.149480700E0
4.114443073E0,2.257019520E0,-9.406172752E0,-1.125525951E0
4.116974531E0,2.362420559E0,-9.418150902E0,-1.115944028E0
4.119506041E0,2.115686178E0,-9.415754318E0,-1.226135969E0
4.122037552E0,1.948002815E0,-9.329517365E0,-1.348305464E0
4.124569062E0,2.149223089E0,-9.274421692E0,-1.288418531E0
4.127100520E0,2.199527979E0,-9.209743500E0,-1.151876211E0
4.129632031E0,2.230669260E0,-9.204952240E0,-1.080011845E0
4.132163541E0,2.352838755E0,-9.240884781E0,-1.108757615E0
4.134695000E0,2.424703121E0,-9.190579414E0,-1.046475053E0
4.137233229E0,2.496567488E0,-9.070805550E0,-9.817972183E-1
4.139764687E0,2.561245203E0,-9.037269592E0,-8.859781027E-1
4.142296198E0,2.657064438E0,-9.068410873E0,-8.236956000E-1
4.144827656E0,2.707369566E0,-9.006127357E0,-7.925544381E-1
4.147359166E0,2.834330082E0,-8.958218575E0,-8.572323322E-1
4.149890677E0,2.822352648E0,-8.905517578E0,-7.158991098E-1
4.152422187E0,2.788815737E0,-8.891144753E0,-7.063171864E-1
4.154953698E0,2.791211367E0,-8.910308838E0,-7.350628972E-1
4.157485156E0,2.834330082E0,-8.943845749E0,-7.278764844E-1
4.160016666E0,2.815165997E0,-8.989359856E0,-7.158991098E-1
4.162548177E0,2.776838541E0,-9.037269592E0,-6.727804542E-1
4.165079635E0,2.793606758E0,-9.130692482E0,-7.111081481E-1
4.167616354E0,2.781629324E0,-9.243280411E0,-7.757860422E-1
4.170147812E0,2.822352648E0,-9.322331429E0,-8.332775235E-1
4.172679323E0,2.772047520E0,-9.427732468E0,-8.835825920E-1
4.175210833E0,2.800793171E0,-9.528342247E0,-9.794017076E-1
4.177742291E0,2.831934452E0,-9.583438873E0,-9.650288224E-1
4.180273802E0,2.843911886E0,-9.681653023E0,-1.005751967E0
4.182805260E0,2.958894730E0,-9.705607414E0,-1.111153126E0
4.185336823E0,2.987640619E0,-9.755912781E0,-1.171039939E0
4.187868281E0,3.011595249E0,-9.763099670E0,-1.147085190E0
4.190399791E0,3.167301416E0,-9.794240952E0,-1.211763144E0
4.192931302E0,3.303843737E0,-9.863709450E0,-1.250090837E0
4.195462760E0,3.390080929E0,-9.914014816E0,-1.305186868E0
4.197998750E0,3.615255833E0,-1.004097462E1,-1.333932638E0
4.200530208E0,3.826057911E0,-1.019668102E1,-1.343514442E0
4.203061718E0,3.986555099E0,-1.035478210E1,-1.415378809E0
4.205593177E0,4.149447441E0,-1.057037544E1,-1.432147264E0
4.208124687E0,4.393786430E0,-1.080752754E1,-1.484847784E0
4.210656198E0,4.539910316E0,-1.096323395E1,-1.477661252E0
4.213187708E0,4.597402096E0,-1.121236324E1,-1.377051234E0
4.215719166E0,4.626148224E0,-1.145670223E1,-1.379446626E0
4.218250677E0,4.676453114E0,-1.171780968E1,-1.381842136E0
4.220782187E0,4.690825462E0,-1.185914230E1,-1.355491877E0
4.223313698E0,4.695616722E0,-1.201245403E1,-1.290813923E0
4.225845156E0,4.712385178E0,-1.212743664E1,-1.269254565E0
4.228382343E0,4.698011875E0,-1.220409203E1,-1.336328030E0
4.230913802E0,4.645311356E0,-1.231907463E1,-1.262068272E0
4.233445260E0,4.580633640E0,-1.235261154E1,-1.283627510E0
4.235976823E0,4.501583099E0,-1.236219311E1,-1.317164183E0
4.238508281E0,4.379413605E0,-1.237177563E1,-1.278836608E0
4.241039791E0,4.290781021E0,-1.235500622E1,-1.259672761E0
4.243571302E0,4.204543591E0,-1.238854313E1,-1.281231999E0
4.246102812E0,4.072792530E0,-1.243405724E1,-1.374655724E0
4.248634270E0,3.962600708E0,-1.250831795E1,-1.412983298E0
4.251165781E0,3.835639954E0,-1.250831795E1,-1.427356243E0
4.253697291E0,3.720656872E0,-1.259934521E1,-1.465683818E0
4.256228750E0,3.605674267E0,-1.266162872E1,-1.520779848E0
4.258766666E0,3.473922729E0,-1.272630692E1,-1.504011512E0
4.261298125E0,3.423617363E0,-1.283649826E1,-1.618994474E0
4.263829583E0,3.361335278E0,-1.295627117E1,-1.762723207E0
4.266361145E0,3.306239367E0,-1.309281445E1,-1.772305131E0
4.268892604E0,3.236770391E0,-1.317426014E1,-1.913638353E0
4.271424114E0,3.236770391E0,-1.321019268E1,-1.939988613E0
4.273955625E0,3.174487829E0,-1.330122089E1,-1.889683604E0
4.276487135E0,3.188860893E0,-1.333954811E1,-2.047785044E0
4.279018593E0,3.210420132E0,-1.339224911E1,-2.150790691E0
4.281550104E0,3.270307064E0,-1.344734573E1,-2.249005318E0
4.284081562E0,3.253538609E0,-1.345692635E1,-2.225050449E0
4.286613073E0,3.231979370E0,-1.348088169E1,-2.239423513E0
4.289150520E0,3.172092199E0,-1.340183067E1,-2.234632492E0
4.291681979E0,3.124182701E0,-1.333715343E1,-2.301706076E0
4.294213489E0,2.956499338E0,-1.332278061E1,-2.239423513E0
4.296745000E0,2.908589840E0,-1.329882526E1,-2.215468645E0
4.299276458E0,2.757674456E0,-1.325570679E1,-2.122045040E0
4.301807968E0,2.613945723E0,-1.311676979E1,-2.045389652E0
4.304339479E0,2.463030815E0,-1.295866776E1,-1.810632706E0
4.306870989E0,2.307324648E0,-1.277661133E1,-1.669299603E0
4.309402448E0,2.180364370E0,-1.254664516E1,-1.686067820E0
4.311933958E0,2.043822050E0,-1.240531158E1,-1.690858841E0
4.314465468E0,1.895302296E0,-1.230709743E1,-1.860937834E0
4.316996927E0,1.686895847E0,-1.220648766E1,-1.904056430E0
4.319533020E0,1.466511726E0,-1.215139198E1,-1.939988613E0
4.322064479E0,1.164681435E0,-1.201724434E1,-1.975920796E0
4.324595989E0,8.676420450E-1,-1.188070297E1,-1.973525405E0
4.327127500E0,5.346704721E-1,-1.170822716E1,-2.071739912E0
4.329658958E0,2.879362702E-1,-1.157647705E1,-2.174745560E0
4.332190468E0,1.485168934E-2,-1.144951534E1,-2.316078663E0
4.334721927E0,-1.672046483E-1,-1.130339146E1,-2.423875332E0
4.337253489E0,-4.929897487E-1,-1.112133598E1,-2.466994047E0
4.339784948E0,-7.493059635E-1,-1.099916649E1,-2.548440218E0
4.342316458E0,-8.930346966E-1,-1.089136982E1,-2.622699976E0
4.344847968E0,-1.072695494E0,-1.086262321E1,-2.742474079E0
4.347379427E0,-1.142164469E0,-1.085783291E1,-3.015558481E0
4.349915312E0,-1.206842422E0,-1.090574265E1,-3.240733385E0
4.352446770E0,-1.307452440E0,-1.103988934E1,-3.382066727E0
4.354978281E0,-1.443994761E0,-1.119559574E1,-3.542563677E0
4.357509791E0,-1.630842090E0,-1.142077065E1,-3.602450609E0
4.360041250E0,-1.839248776E0,-1.130099678E1,-3.571309566E0
4.362572760E0,-2.181802273E0,-1.111415005E1,-3.542563677E0
4.365104270E0,-2.660897732E0,-1.117403603E1,-3.207196712E0
4.367635781E0,-3.128016233E0,-1.131776428E1,-2.888598204E0
4.370167239E0,-3.575970411E0,-1.155012703E1,-2.529276133E0
4.372698750E0,-4.038297653E0,-1.176332378E1,-2.143604279E0
4.375230260E0,-4.294614315E0,-1.197652149E1,-1.659717560E0
4.377761718E0,-4.469483852E0,-1.206275845E1,-1.171039939E0
4.380278698E0,-4.548534870E0,-1.221127892E1,-5.793568492E-1
4.382810208E0,-4.488647938E0,-1.227835178E1,1.249138489E-1
4.385341666E0,-4.443133831E0,-1.226637459E1,7.908568978E-1
4.387873229E0,-4.409597397E0,-1.212264538E1,1.301093817E0
4.390404687E0,-3.662207603E0,-1.202203560E1,1.998178005E0
4.392936198E0,-2.835767746E0,-1.201963997E1,2.623398066E0
4.395467708E0,-2.220129728E0,-1.181841946E1,2.910855293E0
4.397999218E0,-1.587723374E0,-1.147586632E1,2.982719660E0
4.400530677E0,-8.954300880E-1,-1.118840885E1,2.889296055E0
4.403062187E0,-1.600182354E-1,-1.082190037E1,2.707239866E0
4.405593698E0,5.322750807E-1,-1.052725697E1,2.477273703E0
4.408125156E0,1.296432614E0,-1.031885052E1,2.182630062E0
4.410682708E0,2.084545135E0,-1.007690620E1,1.873613119E0
4.413214166E0,2.630714178E0,-9.691234589E0,1.552618980E0
4.415745677E0,2.944522142E0,-9.286398888E0,1.085500717E0
4.418277187E0,3.229583740E0,-8.905517578E0,6.207779050E-1
4.420808645E0,3.481109142E0,-8.778557777E0,2.710380256E-1
4.423340156E0,3.564950943E0,-8.819280624E0,-1.673345417E-1
4.425871666E0,3.648792744E0,-8.833653450E0,-7.590177059E-1
4.428403177E0,3.797312260E0,-8.998941422E0,-1.305186868E0
4.430934635E0,3.826057911E0,-9.142670631E0,-1.630971909E0
4.433466145E0,3.787730694E0,-9.315144539E0,-2.035807610E0
4.435997604E0,3.732634544E0,-9.537924767E0,-2.280146360E0
4.438529114E0,3.639210701E0,-9.755912781E0,-2.510112524E0
4.441044218E0,3.411640167E0,-9.899641991E0,-2.747264862E0
4.443575729E0,3.198442459E0,-1.014637566E1,-2.922134638E0
4.446107239E0,3.013990879E0,-1.040987873E1,-2.946089506E0
4.448638750E0,2.884634972E0,-1.063505363E1,-3.029931307E0
4.451170208E0,2.724137783E0,-1.067577648E1,-3.029931307E0
4.453701718E0,2.522917747E0,-1.070691776E1,-3.092213631E0
4.456233229E0,2.247437716E0,-1.065421772E1,-3.001185417E0
4.458764739E0,1.959980249E0,-1.058235264E1,-2.828711271E0
4.461296198E0,1.782714844E0,-1.052725697E1,-2.740078449E0
4.463827708E0,1.689291239E0,-1.044581032E1,-2.603536129E0
4.466359218E0,1.636590719E0,-1.031645489E1,-2.383152246E0
4.468890677E0,1.595867634E0,-1.013200283E1,-2.229841471E0
4.471454531E0,1.550353527E0,-9.978693008E0,-2.081321955E0
4.473985989E0,1.617426872E0,-9.856522560E0,-1.980711699E0
4.476517500E0,1.734805346E0,-9.645720482E0,-1.858542323E0
4.479049010E0,1.835415363E0,-9.458873749E0,-1.662113070E0
4.481580468E0,1.976748466E0,-9.379822731E0,-1.530361891E0
4.484111979E0,1.969562292E0,-9.099551201E0,-1.391423941E0
4.486643489E0,2.022262812E0,-8.907913208E0,-1.259672761E0
4.489175000E0,2.089335918E0,-8.706693649E0,-1.197390199E0
4.491706458E0,2.247437716E0,-8.598896980E0,-1.125525951E0
4.494237968E0,2.266601562E0,-8.325812340E0,-1.048870564E0
4.496769427E0,2.388771057E0,-8.107823372E0,-1.058452487E0
4.499300937E0,2.443866968E0,-7.940140247E0,-1.034497738E0
4.501834635E0,2.443866968E0,-7.664660931E0,-1.015333891E0
4.504366093E0,2.381584644E0,-7.401157856E0,-1.010542989E0
4.506897604E0,2.278578758E0,-7.156818867E0,-9.817972183E-1
4.509429114E0,2.266601562E0,-6.864570618E0,-9.794017076E-1
4.511960573E0,2.324093103E0,-6.694491386E0,-9.770061970E-1
4.514492083E0,2.182759762E0,-6.351938248E0,-1.008147478E0
4.517023593E0,2.046217442E0,-5.971056938E0,-9.698197842E-1
4.519555104E0,2.036635637E0,-5.791396141E0,-9.913790822E-1
4.522086562E0,1.926443577E0,-5.580594063E0,-1.072825313E0
4.524618073E0,1.799483299E0,-5.417701721E0,-1.058452487E0
4.527149583E0,1.701268435E0,-5.173363209E0,-1.115944028E0
4.529681041E0,1.634195328E0,-5.113476276E0,-1.166249156E0
4.532221041E0,1.648567915E0,-5.051193714E0,-1.286023021E0
4.534752916E0,1.495257378E0,-4.883510113E0,-1.331537127E0
4.537284791E0,1.397042751E0,-4.849973202E0,-1.468079329E0
4.539816666E0,1.291641831E0,-4.763736248E0,-1.496825099E0
4.542348541E0,1.198217988E0,-4.631984711E0,-1.592644215E0
4.544880416E0,1.150308490E0,-4.651148319E0,-1.719604611E0
4.547412291E0,1.090421557E0,-4.596052647E0,-1.753141403E0
4.549944166E0,1.090421557E0,-4.655939579E0,-1.738768458E0
4.552476041E0,9.850205183E-1,-4.615216732E0,-1.841773987E0
4.555007916E0,7.478681803E-1,-4.445137501E0,-1.848960519E0
4.557539843E0,6.352806091E-1,-4.433159828E0,-1.906451941E0
4.560071666E0,5.969530344E-1,-4.485860348E0,-1.911242843E0
4.562603854E0,6.352806091E-1,-4.521792412E0,-1.872915268E0
4.565135729E0,6.472580433E-1,-4.528978825E0,-1.841773987E0
4.567667604E0,5.394614935E-1,-4.512210369E0,-1.832192063E0
4.570199479E0,4.699926376E-1,-4.548142910E0,-1.755536675E0
4.572731354E0,4.675971270E-1,-4.643961906E0,-1.724395633E0
4.575263229E0,4.244785309E-1,-4.732594490E0,-1.657322049E0
4.577795104E0,2.951227427E-1,-4.622402668E0,-1.551921129E0
4.580326979E0,2.208628654E-1,-4.711035728E0,-1.530361891E0
4.582858854E0,1.873261333E-1,-4.869137287E0,-1.427356243E0
4.585390729E0,7.713413239E-2,-4.826018333E0,-1.401005983E0
4.587922656E0,-7.857197523E-2,-4.746967793E0,-1.269254565E0
4.590454479E0,-1.264815331E-1,-4.775713444E0,-1.185412884E0
4.592987656E0,-2.223006487E-1,-4.816436768E0,-1.123130441E0
4.595519531E0,-2.797921598E-1,-4.826018333E0,-1.063243508E0
4.598051406E0,-3.061424196E-1,-4.909860134E0,-9.578424096E-1
4.600583281E0,-3.205152750E-1,-4.866741657E0,-8.452548981E-1
4.603115156E0,-3.540520072E-1,-4.933815002E0,-8.213001490E-1
4.605647031E0,-4.738259315E-1,-4.952979088E0,-7.302719951E-1
4.608178906E0,-4.450801611E-1,-5.079938889E0,-7.518312931E-1
4.610710781E0,-3.636339009E-1,-5.132639408E0,-6.608030796E-1
4.613242656E0,-6.654642224E-1,-4.897882938E0,-6.512211561E-1
4.615774531E0,-8.810572624E-1,-4.957769394E0,-5.841478109E-1
4.618306406E0,-8.307522535E-1,-4.909860134E0,-5.577975512E-1
4.620838281E0,-7.828426361E-1,-4.871532440E0,-6.296618581E-1
4.623371718E0,-8.259612322E-1,-4.711035728E0,-5.937296748E-1
4.625903593E0,-8.523114920E-1,-4.620007038E0,-5.841478109E-1
4.628435468E0,-8.379386663E-1,-4.576888561E0,-6.943398118E-1
4.630967343E0,-7.205601931E-1,-4.600843430E0,-6.727804542E-1
4.633499218E0,-5.912043452E-1,-4.576888561E0,-8.045318127E-1
4.636031093E0,-5.912043452E-1,-4.433159828E0,-9.171192646E-1
4.638562968E0,-4.738259315E-1,-4.399622917E0,-9.482605457E-1
4.641094843E0,-5.001761913E-1,-4.212776184E0,-1.149480700E0
4.643626718E0,-6.127636433E-1,-4.124143124E0,-1.276441097E0
4.646158593E0,-5.528767109E-1,-4.093001842E0,-1.429751754E0
4.648690520E0,-4.211254120E-1,-4.004369736E0,-1.630971909E0
4.651222395E0,-4.259163439E-1,-3.970832348E0,-1.801050901E0
4.653753750E0,-3.372836411E-1,-3.896572590E0,-2.141208649E0
4.656285625E0,-3.205152750E-1,-3.781589985E0,-2.246609926E0
4.658817500E0,-3.109333813E-1,-3.736075401E0,-2.459807396E0
4.661349375E0,-2.462554574E-1,-3.762425900E0,-2.694564342E0
4.663881250E0,-1.360634267E-1,-3.779194355E0,-2.991603613E0
4.666413125E0,-1.868498325E-2,-3.851058483E0,-3.276665688E0
4.668945000E0,4.120194912E-2,-3.906154633E0,-3.532981634E0
4.671476823E0,1.609759331E-1,-3.944482327E0,-3.839602947E0
4.674008750E0,2.496085763E-1,-4.052278996E0,-4.100710392E0
4.676540573E0,2.879362702E-1,-4.176843643E0,-4.352235794E0
4.679072500E0,3.957327604E-1,-4.327759266E0,-4.622924805E0
4.681604375E0,5.394614935E-1,-4.497838020E0,-4.896009445E0
4.684137031E0,6.472580433E-1,-4.689476013E0,-5.157116890E0
4.686668906E0,8.604556322E-1,-4.938606262E0,-5.387082100E0
4.689200781E0,1.049698353E0,-5.204504013E0,-5.588302612E0
4.691732656E0,1.193427205E0,-5.530289173E0,-5.801500320E0
4.694264531E0,1.411415696E0,-5.851283073E0,-6.060211658E0
4.696796406E0,1.646172523E0,-6.244141579E0,-6.225499630E0
4.699328281E0,1.888115883E0,-6.579508781E0,-6.414742947E0
4.701860156E0,2.151618481E0,-7.020276546E0,-6.582426071E0
4.704391979E0,2.451053381E0,-7.401157856E0,-6.783646107E0
4.706923906E0,2.767256498E0,-7.798806667E0,-6.977680206E0
4.709455781E0,3.093041420E0,-8.210829735E0,-7.238787174E0
4.711987656E0,3.476318359E0,-8.646806717E0,-7.456775665E0
4.714521927E0,3.890736103E0,-9.070805550E0,-7.653205395E0
4.717053750E0,4.180589199E0,-9.499596596E0,-7.871193886E0
4.719585677E0,4.499187469E0,-9.925992012E0,-8.089181900E0
4.722117552E0,4.822577000E0,-1.039550591E1,-8.204165459E0
4.724649427E0,5.102848053E0,-1.081710911E1,-8.333520889E0
4.727181302E0,5.323232174E0,-1.127464676E1,-8.422154427E0
4.729713177E0,5.574757576E0,-1.174655533E1,-8.508391380E0
4.732245000E0,5.941265583E0,-1.218732357E1,-8.632956505E0
4.734776875E0,6.164044857E0,-1.260892773E1,-8.644932747E0
4.737308802E0,6.365264893E0,-1.303532219E1,-8.544322968E0
4.739840677E0,6.549716949E0,-1.348088169E1,-8.446107864E0
4.742372500E0,6.674282074E0,-1.391925430E1,-8.292798042E0
4.744892500E0,6.647931576E0,-1.436720848E1,-8.031690598E0
4.747424375E0,6.542530537E0,-1.479120827E1,-7.842447758E0
4.749956250E0,6.657513618E0,-1.514094830E1,-7.758606434E0
4.752488125E0,6.695841312E0,-1.542601013E1,-7.653205395E0
4.755020000E0,6.635954380E0,-1.568951225E1,-7.590922832E0
4.757551875E0,6.542530537E0,-1.585000992E1,-7.648414135E0
4.760083750E0,6.456293583E0,-1.587396431E1,-7.768188000E0
4.762615573E0,6.326937675E0,-1.583803177E1,-7.928685188E0
4.765147448E0,6.197581291E0,-1.573502731E1,-8.038877487E0
4.767679323E0,6.061039448E0,-1.550506210E1,-8.405385017E0
4.770211198E0,5.852632999E0,-1.522239494E1,-8.654515266E0
4.772743073E0,5.565175533E0,-1.487744522E1,-8.879690170E0
4.775283020E0,5.244181633E0,-1.445344639E1,-9.217452049E0
4.777814895E0,4.860904694E0,-1.396716404E1,-9.500119209E0
4.780346770E0,4.377017975E0,-1.332996655E1,-9.689362526E0
4.782878645E0,3.945832253E0,-1.259215927E1,-9.969633102E0
4.785410520E0,3.579323769E0,-1.192621613E1,-1.005347443E1
4.787942395E0,3.222397566E0,-1.113810349E1,-1.013012981E1
4.790474270E0,2.810374975E0,-1.019428539E1,-1.003191566E1
4.793006145E0,2.422307491E0,-9.224116325E0,-9.792366982E0
4.795538020E0,2.106104612E0,-8.253947258E0,-9.524074554E0
4.798069895E0,1.933629990E0,-7.310129642E0,-9.234221458E0
4.800601770E0,1.531189442E0,-6.258514404E0,-8.800639153E0
4.803133645E0,1.344342232E0,-5.415306091E0,-8.333520889E0
4.805665625E0,1.234150290E0,-4.528978825E0,-7.861611843E0
4.808197500E0,8.532691002E-1,-3.692956924E0,-7.219623566E0
4.810729375E0,6.280941963E-1,-3.091691971E0,-6.671058655E0
4.813261250E0,5.059248209E-1,-2.533545494E0,-6.242268085E0
4.815793125E0,3.933372498E-1,-2.150269032E0,-5.741613388E0
4.818325000E0,2.999136448E-1,-2.006540298E0,-5.118788719E0
4.820856875E0,1.681623459E-1,-1.925094128E0,-4.139038086E0
4.823388750E0,-6.899005175E-2,-1.975399017E0,-2.773615122E0
4.825920625E0,-2.031368315E-1,-2.044867754E0,-1.235718012E0
4.828452500E0,-4.139389396E-1,-2.155059814E0,2.470832467E-1
4.830984375E0,-5.720405579E-1,-2.277229309E0,1.279534578E0
4.833516250E0,-9.457352161E-1,-2.430540085E0,1.856844783E0
4.836048593E0,-1.544604778E0,-2.684460640E0,2.062855959E0
4.838580468E0,-2.234502554E0,-3.149183512E0,1.895172477E0
4.841112343E0,-3.087292910E0,-3.867826939E0,1.693952322E0
4.843644218E0,-3.856241465E0,-4.734990120E0,1.382539988E0
4.846176093E0,-4.383246899E0,-5.717136383E0,1.135805726E0
4.848707968E0,-4.785687447E0,-6.850197792E0,1.219647527E0
4.851239843E0,-4.953371048E0,-8.059913635E0,1.257975101E0
4.853771718E0,-4.821619511E0,-9.319935799E0,1.327444077E0
4.856303593E0,-4.670704365E0,-1.076201344E1,1.205274701E0
4.858835468E0,-4.378456116E0,-1.237896156E1,7.381563187E-1
4.861367395E0,-3.853846312E0,-1.415401173E1,-1.625435799E-1
4.863899218E0,-3.135202408E0,-1.610153580E1,-1.460893035E0
4.866432187E0,-2.021305084E0,-1.831974792E1,-3.202405691E0
4.868964062E0,-6.894189715E-1,-2.067210770E1,-5.013387680E0
4.871495937E0,8.748285770E-1,-2.297895432E1,-6.776460171E0
4.874027812E0,2.362420559E0,-2.527382278E1,-8.407781601E0
4.876559687E0,3.830849171E0,-2.748245430E1,-9.639057159E0
4.879091562E0,5.232203960E0,-2.925271225E1,-1.012533951E1
4.881623437E0,6.650327206E0,-3.046482277E1,-9.744458199E0
4.884155312E0,8.111568451E0,-3.048398781E1,-8.532345772E0
4.886687187E0,9.685398102E0,-2.911137962E1,-6.405160904E0
4.889219062E0,1.057651520E1,-2.641646576E1,-3.602450609E0
4.891750937E0,1.035373688E1,-2.283522606E1,-9.937745929E-1
4.894282864E0,9.726121902E0,-1.894257355E1,1.028009295E0
4.896815260E0,8.760744095E0,-1.514334393E1,2.201793671E0
4.899347135E0,7.558213711E0,-1.194538021E1,2.740776539E0
4.901879010E0,6.077807903E0,-9.391799927E0,2.874923229E0
4.904410885E0,4.539910316E0,-7.360434532E0,2.503623962E0
4.906942760E0,3.064295769E0,-5.865655899E0,1.935895681E0
4.909474635E0,1.631799698E0,-4.737385750E0,1.463986397E0
4.912006510E0,4.053147435E-1,-3.855849743E0,9.968680143E-1
4.914538385E0,-5.217354894E-1,-3.187510967E0,5.896366835E-1
4.917070260E0,-1.376921415E0,-2.646132946E0,4.387215376E-1
4.919602135E0,-1.918299437E0,-2.176619291E0,3.716481328E-1
4.922134010E0,-2.248875618E0,-1.795737982E0,4.866310954E-1
4.924665885E0,-2.426140785E0,-1.426834345E0,7.022241950E-1
4.927181562E0,-2.466864109E0,-1.165727139E0,9.848906398E-1
4.929713437E0,-2.430931807E0,-1.005230188E0,1.384935498E0
4.932245312E0,-2.368649483E0,-8.758743405E-1,1.854449391E0
4.934777187E0,-2.323135376E0,-8.591060042E-1,2.417386770E0
4.937309062E0,-2.272830248E0,-8.351512551E-1,3.054584026E0
4.939840937E0,-2.138683319E0,-8.423376679E-1,3.567216635E0
4.942372812E0,-2.126706123E0,-8.662924170E-1,4.094221592E0
4.944904687E0,-2.157847404E0,-1.045953274E0,4.503848076E0
4.947436562E0,-2.006932259E0,-1.280710220E0,4.767350674E0
4.949968437E0,-1.889553666E0,-1.640032053E0,4.923057079E0
4.952500312E0,-1.772175193E0,-2.133500576E0,4.942220688E0
4.955032187E0,-1.499090672E0,-2.725183725E0,4.784119129E0
4.957582083E0,-1.230797052E0,-3.398313284E0,4.455938816E0
4.960113958E0,-8.642889261E-1,-4.097793102E0,4.046311855E0
4.962645833E0,-4.546620846E-1,-4.701453686E0,3.581589222E0
4.965177708E0,9.869349003E-2,-5.520707130E0,3.006674528E0
4.967709583E0,7.526590824E-1,-6.514831066E0,2.443737030E0
4.970241458E0,1.306014657E0,-7.362830162E0,1.940686464E0
4.972773333E0,1.868952036E0,-8.330602646E0,1.430449605E0
4.975305208E0,2.412725687E0,-9.300771713E0,9.393765926E-1
4.977837083E0,2.920567036E0,-1.023979950E1,4.459079504E-1
4.980368958E0,3.387685537E0,-1.125548267E1,-3.079226241E-2
4.982900833E0,3.895526886E0,-1.227116585E1,-4.739557803E-1
4.985432708E0,4.422532082E0,-1.331319904E1,-9.219102263E-1
4.987931770E0,5.088475227E0,-1.424983025E1,-1.211763144E0
4.990463645E0,5.649016857E0,-1.501638317E1,-1.458497524E0
4.992995520E0,6.087389469E0,-1.581407738E1,-1.537548184E0
4.995527395E0,6.413175106E0,-1.641773796E1,-1.535152674E0
4.998059270E0,6.683864117E0,-1.676747704E1,-1.468079329E0
5.000591145E0,6.671886444E0,-1.685371590E1,-1.290813923E0
5.003123020E0,6.324542046E0,-1.667644882E1,-1.197390199E0
5.005654895E0,5.804723263E0,-1.621651840E1,-1.044079661E0
5.008186770E0,5.229808331E0,-1.539007854E1,-8.620232940E-1
5.010718645E0,4.551887989E0,-1.442470074E1,-8.069272637E-1
5.013250520E0,3.953018665E0,-1.349285984E1,-8.596277833E-1
5.015782448E0,3.483504295E0,-1.258257771E1,-7.877634764E-1
5.018348437E0,3.057109594E0,-1.179686069E1,-8.308820128E-1
5.020880312E0,2.748092890E0,-1.106863499E1,-7.063171864E-1
5.023412187E0,2.350443363E0,-1.041946030E1,-6.224753857E-1
5.025944062E0,1.938421011E0,-9.748726845E0,-4.811422229E-1
5.028475937E0,1.440161467E0,-9.233698845E0,-4.595829248E-1
5.031007812E0,1.179054260E0,-8.936659813E0,-3.661592603E-1
5.033539687E0,9.514837265E-1,-8.603687286E0,-2.535717785E-1
5.036071562E0,5.298795700E-1,-8.131778717E0,-1.841028929E-1
5.038603437E0,9.869349003E-2,-7.918581486E0,-1.074475795E-1
5.041135312E0,2.874255180E-3,-7.844321728E0,-1.457752436E-1
5.043667187E0,-2.726057172E-1,-7.559259892E0,-1.793119460E-1
5.046199062E0,-5.289219022E-1,-7.429903507E0,-1.769164652E-1
5.048731770E0,-5.935998559E-1,-7.358038902E0,-1.936848015E-1
5.051263645E0,-7.325376272E-1,-7.185564518E0,-7.630635798E-2
5.053795520E0,-7.133737803E-1,-7.039440632E0,-3.079226241E-2
5.056327395E0,-6.966054440E-1,-7.025067329E0,9.930871427E-3
5.058859270E0,-6.031817794E-1,-7.015486240E0,4.107209668E-2
5.061391145E0,-5.241309404E-1,-7.015486240E0,1.057500169E-1
5.063923020E0,-4.235208631E-1,-6.989135742E0,2.039646208E-1
5.066454895E0,-2.079278231E-1,-6.984344482E0,2.542696893E-1
5.068986770E0,-1.240860522E-1,-7.056209087E0,3.117611408E-1
5.071518645E0,-4.312098026E-3,-7.106513977E0,3.596707582E-1
5.074050520E0,7.473868132E-2,-7.180774212E0,4.626763165E-1
5.076582395E0,1.753487587E-1,-6.905293465E0,3.572752476E-1
5.079114791E0,3.430323005E-1,-6.850197792E0,3.764390945E-1
5.081646614E0,4.436423779E-1,-6.871757030E0,4.003938735E-1
5.084178541E0,5.131112337E-1,-6.969971657E0,4.411169887E-1
5.086710416E0,7.239133120E-1,-7.065791130E0,4.722582102E-1
5.089242291E0,9.179471731E-1,-7.192750931E0,4.003938735E-1
5.091774166E0,1.131144643E0,-7.341270924E0,3.548797667E-1
5.094306041E0,1.385065436E0,-7.482604504E0,3.309249878E-1
5.096837916E0,1.658149958E0,-7.626332760E0,2.207329720E-1
5.099369791E0,1.830624580E0,-7.784434795E0,1.249138489E-1
5.101901666E0,2.062985897E0,-7.894626141E0,2.190826461E-2
5.104433541E0,2.237855673E0,-8.047936440E0,-7.151539624E-2
5.106965416E0,2.427098513E0,-8.208433151E0,-1.697300225E-1
5.109498854E0,2.652273417E0,-8.364139557E0,-3.278315961E-1
5.112030729E0,2.769652128E0,-8.500681877E0,-4.476055503E-1
5.114562604E0,2.853493690E0,-8.680342674E0,-5.027015209E-1
5.117094479E0,2.944522142E0,-8.816885948E0,-5.625884533E-1
5.119626354E0,2.968476772E0,-9.039664268E0,-6.727804542E-1
5.122158229E0,3.006804228E0,-9.200161934E0,-7.182946205E-1
5.124690104E0,2.946917534E0,-9.243280411E0,-7.254810333E-1
5.127221979E0,2.796002388E0,-9.358263969E0,-7.638086677E-1
5.129753854E0,2.726533175E0,-9.427732468E0,-7.829724550E-1
5.132285729E0,2.716951609E0,-9.391799927E0,-8.117182255E-1
5.134817604E0,2.592386484E0,-9.415754318E0,-7.901589274E-1
5.137349479E0,2.398352861E0,-9.437314987E0,-6.823624372E-1
5.139858385E0,2.374397993E0,-9.485223770E0,-6.536166668E-1
5.142390312E0,2.314511061E0,-9.406172752E0,-7.278764844E-1
5.144922135E0,2.221087456E0,-9.245676041E0,-6.655940413E-1
5.147454010E0,2.137245893E0,-9.089969635E0,-6.991307139E-1
5.149985885E0,2.003098726E0,-8.924681664E0,-6.440347433E-1
5.152517760E0,1.912070751E0,-8.848026276E0,-5.889387131E-1
5.155049687E0,1.916861534E0,-8.756999016E0,-6.655940413E-1
5.157581510E0,1.991121531E0,-8.582128525E0,-7.039217353E-1
5.160113385E0,2.048613071E0,-8.380908966E0,-7.015262246E-1
5.162645260E0,1.981539488E0,-8.213224411E0,-6.392437816E-1
5.165177187E0,1.967166662E0,-7.973677158E0,-6.416392922E-1
5.167709010E0,1.936025620E0,-7.770061970E0,-5.841478109E-1
5.170264687E0,1.861765623E0,-7.638309956E0,-4.140688181E-1
5.172796562E0,1.995912552E0,-7.607168674E0,-3.901140392E-1
5.175328437E0,2.223482847E0,-7.465835094E0,-5.003060699E-1
5.177860312E0,2.264205933E0,-7.374807358E0,-5.074924827E-1
5.180392187E0,2.374397993E0,-7.274197578E0,-5.027015209E-1
5.182924062E0,2.379189014E0,-7.219101429E0,-4.547919631E-1
5.185455937E0,2.436680555E0,-7.187960148E0,-3.422044814E-1
5.187987812E0,2.460635185E0,-7.247847080E0,-3.158542216E-1
5.190519687E0,2.570827246E0,-7.372412205E0,-3.949050009E-1
5.193051562E0,2.659460068E0,-7.408344269E0,-3.445999324E-1
5.195583437E0,2.685810328E0,-7.449067593E0,-3.901140392E-1
5.198115312E0,2.719347000E0,-7.561655521E0,-3.781366646E-1
5.200633541E0,2.738510847E0,-7.702988148E0,-4.140688181E-1
