"Time (s)","Gyroscope x (rad/s)","Gyroscope y (rad/s)","Gyroscope z (rad/s)"
4.883130200E-2,-1.789228767E-1,1.715227723E0,-3.744182289E-1
5.133958300E-2,-2.012938708E-1,1.732272744E0,-3.776142299E-1
5.384791700E-2,-2.300558686E-1,1.750381708E0,-3.818752170E-1
5.635619800E-2,-2.588178515E-1,1.759968758E0,-3.957232237E-1
5.886447900E-2,-2.779928446E-1,1.746120691E0,-4.170282185E-1
6.137276000E-2,-2.865148485E-1,1.737598658E0,-4.404642284E-1
6.388104200E-2,-2.918408513E-1,1.706705689E0,-4.564432204E-1
6.638932300E-2,-2.865148485E-1,1.640659690E0,-4.596392214E-1
6.911270800E-2,-2.726658583E-1,1.561830640E0,-4.553782344E-1
7.162098900E-2,-2.513608634E-1,1.459565639E0,-4.393992424E-1
7.412932300E-2,-2.204688638E-1,1.321081758E0,-4.042452276E-1
7.663760400E-2,-1.906408668E-1,1.150640726E0,-3.648312390E-1
7.914588500E-2,-1.448348761E-1,9.791337848E-1,-3.360692263E-1
8.165416700E-2,-8.944187313E-2,8.182787299E-1,-2.977192402E-1
8.416244800E-2,-3.298286721E-2,6.531637311E-1,-2.497832328E-1
8.667072900E-2,1.601812989E-2,4.837877154E-1,-2.135642320E-1
8.917901000E-2,7.247713208E-2,3.580867350E-1,-1.762802303E-1
9.168729200E-2,1.225441322E-1,2.632787228E-1,-1.400612295E-1
9.419557300E-2,1.608941257E-1,1.865797341E-1,-1.081032306E-1
9.670390600E-2,1.864601225E-1,1.492957324E-1,-8.040622622E-2
9.938171900E-2,2.056341320E-1,1.482307315E-1,-4.844823107E-2
1.018900000E-1,2.184181362E-1,1.482307315E-1,-1.329523139E-2
1.043982810E-1,2.237441242E-1,1.460997313E-1,2.079176717E-2
1.069065620E-1,2.205481231E-1,1.407737285E-1,5.168476701E-2
1.094148440E-1,2.194831222E-1,1.322517246E-1,7.938177139E-2
1.119231250E-1,2.194831222E-1,1.194687262E-1,1.028177738E-1
1.144314580E-1,2.173521221E-1,9.603273124E-2,1.219917685E-1
1.169397390E-1,2.088301331E-1,6.940172613E-2,1.411667764E-1
1.194480210E-1,1.981781274E-1,4.809673131E-2,1.592757702E-1
1.219563020E-1,1.800681353E-1,2.892173082E-2,1.741897762E-1
1.244645830E-1,1.630241275E-1,1.613873243E-2,1.837767661E-1
1.269728640E-1,1.438491344E-1,3.355731722E-3,1.880377680E-1
1.296723960E-1,1.193481311E-1,-6.231268402E-3,1.837767661E-1
1.321806770E-1,9.484712780E-2,7.616731338E-3,1.741897762E-1
1.346889580E-1,6.289012730E-2,3.531273082E-2,1.656677723E-1
1.371972390E-1,4.051913321E-2,5.768373236E-2,1.677977741E-1
1.397055210E-1,1.921413094E-2,7.792373002E-2,1.699287742E-1
1.422138020E-1,-6.350868847E-3,8.218473196E-2,1.741897762E-1
1.447221350E-1,-2.872186899E-2,8.644572645E-2,1.827117652E-1
1.472304170E-1,-4.150486737E-2,9.177172929E-2,1.912337691E-1
1.497386460E-1,-5.109186843E-2,9.070672840E-2,1.976257712E-1
1.522469790E-1,-7.026687264E-2,7.153172791E-2,2.029517740E-1
1.547552600E-1,-9.370286763E-2,6.620572507E-2,2.040167749E-1
1.572635420E-1,-1.064858735E-1,6.300973147E-2,2.050817758E-1
1.599643230E-1,-1.203338727E-1,4.809673131E-2,2.018867731E-1
1.624726040E-1,-1.309868693E-1,3.318273276E-2,1.976257712E-1
1.649808850E-1,-1.458998770E-1,1.826873049E-2,1.891037673E-1
1.674891670E-1,-1.576178670E-1,2.289731521E-3,1.795157790E-1
1.699974480E-1,-1.682708710E-1,-1.688326895E-2,1.709937751E-1
1.725057290E-1,-1.842498779E-1,-4.138426855E-2,1.624717712E-1
1.750140620E-1,-2.066198736E-1,-7.227727026E-2,1.571457684E-1
1.775223440E-1,-2.343168706E-1,-1.053002700E-1,1.550147682E-1
1.800306250E-1,-2.598828673E-1,-1.404542774E-1,1.528847665E-1
1.825389060E-1,-2.939718664E-1,-1.851942688E-1,1.624717712E-1
1.850471350E-1,-3.259288669E-1,-2.395232767E-1,1.731247753E-1
1.875554690E-1,-3.589518666E-1,-2.863942683E-1,1.816467643E-1
1.902661980E-1,-3.973018527E-1,-3.492442667E-1,1.954947710E-1
1.927745310E-1,-4.399118423E-1,-4.184862673E-1,2.146697789E-1
1.952828120E-1,-4.782618582E-1,-4.919892848E-1,2.391707748E-1
1.977910940E-1,-5.144798756E-1,-5.654922128E-1,2.604757845E-1
2.002993750E-1,-5.517638922E-1,-6.421912313E-1,2.817807794E-1
2.028076560E-1,-5.794608593E-1,-7.188902497E-1,3.062817752E-1
2.053159890E-1,-6.039618850E-1,-7.785442472E-1,3.265217841E-1
2.078242710E-1,-6.242018938E-1,-8.179592490E-1,3.425007761E-1
2.103325520E-1,-6.369848847E-1,-8.595042229E-1,3.563487828E-1
2.128408330E-1,-6.508339047E-1,-9.053102136E-1,3.712627590E-1
2.153490620E-1,-6.636168957E-1,-9.436602592E-1,3.819157779E-1
2.178573960E-1,-6.774649024E-1,-9.873352647E-1,3.904377818E-1
2.205457810E-1,-6.913138628E-1,-1.036337256E0,3.978947699E-1
2.230540620E-1,-7.062268853E-1,-1.084274292E0,3.968287706E-1
2.255623440E-1,-7.232708931E-1,-1.125819325E0,4.010897577E-1
2.280706250E-1,-7.317928672E-1,-1.158842325E0,4.117427766E-1
2.305789060E-1,-7.339239120E-1,-1.187604308E0,4.234607816E-1
2.330871870E-1,-7.360538840E-1,-1.207844257E0,4.362437725E-1
2.355954690E-1,-7.381848693E-1,-1.211040258E0,4.479617774E-1
2.381038020E-1,-7.381848693E-1,-1.192930341E0,4.458307624E-1
2.406120830E-1,-7.349888682E-1,-1.163103342E0,4.394397736E-1
2.431203640E-1,-7.285978794E-1,-1.140733242E0,4.213297665E-1
2.456286460E-1,-7.115528584E-1,-1.131145358E0,4.010897577E-1
2.481369270E-1,-6.987698674E-1,-1.133276343E0,3.712627590E-1
2.508374480E-1,-6.795958877E-1,-1.131145358E0,3.446317613E-1
2.533457290E-1,-6.593558788E-1,-1.134341359E0,3.233257830E-1
2.558540100E-1,-6.423118711E-1,-1.151385307E0,3.062817752E-1
2.583622920E-1,-6.295278668E-1,-1.160973310E0,2.945637703E-1
2.608705730E-1,-6.135498881E-1,-1.165234327E0,2.817807794E-1
2.633788540E-1,-5.986359119E-1,-1.167364359E0,2.679327726E-1
2.658871870E-1,-5.826568604E-1,-1.162038326E0,2.519537807E-1
2.683954170E-1,-5.549598932E-1,-1.152451277E0,2.317137718E-1
2.709037500E-1,-5.261979103E-1,-1.135406256E0,2.040167749E-1
2.734120310E-1,-4.921098650E-1,-1.123689294E0,1.720587760E-1
2.759203120E-1,-4.633478522E-1,-1.116232276E0,1.347747743E-1
2.784285940E-1,-4.345858693E-1,-1.104514360E0,9.536077082E-2
2.811642190E-1,-4.068888426E-1,-1.092796326E0,6.020676717E-2
2.836725000E-1,-3.770618439E-1,-1.075752258E0,2.292276733E-2
2.861808330E-1,-3.504298627E-1,-1.050186276E0,-7.969231345E-3
2.886891140E-1,-3.227338493E-1,-1.012901306E0,-3.140423074E-2
2.911973960E-1,-2.950368524E-1,-9.692262411E-1,-5.484023318E-2
2.937056770E-1,-2.694708705E-1,-9.180932641E-1,-6.868822873E-2
2.962139580E-1,-2.481648773E-1,-8.616352677E-1,-7.827623188E-2
2.987222390E-1,-2.364468724E-1,-8.041112423E-1,-8.466722816E-2
3.012305210E-1,-2.236638665E-1,-7.465862632E-1,-8.573322743E-2
3.037388020E-1,-2.194028646E-1,-6.922582388E-1,-8.040622622E-2
3.062470830E-1,-2.215338647E-1,-6.368652582E-1,-7.614523172E-2
3.087554170E-1,-2.268598676E-1,-5.825362206E-1,-6.442722678E-2
3.114532290E-1,-2.311208695E-1,-5.132952332E-1,-6.016623229E-2
3.139615100E-1,-2.428388745E-1,-4.302042723E-1,-5.484023318E-2
3.164698440E-1,-2.534918487E-1,-3.300702572E-1,-4.099223390E-2
3.189781250E-1,-2.598828673E-1,-2.182182670E-1,-2.075223252E-2
3.214864060E-1,-2.684048414E-1,-9.038627148E-2,-2.643231302E-3
3.239946870E-1,-2.747968435E-1,4.916173220E-2,1.866176724E-2
3.265029690E-1,-2.769268453E-1,1.961677223E-1,3.783676773E-2
3.290112500E-1,-2.673398554E-1,3.506297171E-1,4.742376879E-2
3.315195310E-1,-2.470998764E-1,5.008317828E-1,4.529276863E-2
3.340278120E-1,-2.162078768E-1,6.371847391E-1,4.422776774E-2
3.365360940E-1,-1.810538769E-1,7.532987595E-1,3.677076846E-2
3.390444270E-1,-1.384438723E-1,8.449107409E-1,3.037976846E-2
3.417417190E-1,-9.583286941E-2,9.130877852E-1,2.824876830E-2
3.442500000E-1,-5.854886770E-2,9.599587321E-1,2.718376741E-2
3.467583330E-1,-1.274286862E-2,9.929817319E-1,2.398776822E-2
3.492666140E-1,3.519313410E-2,1.019613743E0,2.292276733E-2
3.517748960E-1,8.739113063E-2,1.034526706E0,1.546576899E-2
3.542831770E-1,1.395881325E-1,1.046244740E0,6.943768822E-3
3.567914580E-1,1.949821264E-1,1.057962656E0,-3.708231263E-3
3.592997390E-1,2.461141348E-1,1.066484690E0,-1.223023143E-2
3.618080210E-1,2.993771434E-1,1.075006723E0,-2.714323252E-2
3.643163020E-1,3.526401520E-1,1.081398726E0,-3.886123374E-2
3.668245830E-1,3.973811567E-1,1.101638675E0,-4.525323212E-2
3.693329170E-1,4.431871474E-1,1.114421725E0,-4.205723107E-2
3.720350000E-1,4.836671352E-1,1.131465673E0,-3.779623285E-2
3.745432810E-1,5.230821371E-1,1.135726690E0,-3.353523090E-2
3.770516140E-1,5.539740920E-1,1.134661674E0,-2.820823155E-2
3.795598960E-1,5.848671198E-1,1.128269672E0,-2.820823155E-2
3.820681770E-1,6.104331017E-1,1.116551757E0,-2.501323260E-2
3.845764580E-1,6.328040957E-1,1.093116641E0,-2.927423269E-2
3.870847390E-1,6.594350934E-1,1.071810722E0,-3.673123196E-2
3.895930210E-1,6.818060875E-1,1.040918708E0,-4.951423034E-2
3.921013020E-1,6.956540942E-1,1.011091709E0,-6.442722678E-2
3.946095830E-1,7.148290873E-1,9.716767669E-1,-8.253722638E-2
3.971178640E-1,7.371991277E-1,9.322617650E-1,-9.638522565E-2
3.996261980E-1,7.510480881E-1,8.864557743E-1,-1.081032306E-1
4.023244790E-1,7.542431355E-1,8.268017769E-1,-1.272782236E-1
4.048327600E-1,7.521131039E-1,7.628857493E-1,-1.528442353E-1
4.073410940E-1,7.457211018E-1,6.947087646E-1,-1.848022342E-1
4.098493750E-1,7.340031266E-1,6.233367324E-1,-2.124982327E-1
4.123576560E-1,7.180241346E-1,5.466377735E-1,-2.380652279E-1
4.148658850E-1,6.988500953E-1,4.614167213E-1,-2.593702376E-1
4.173742190E-1,6.743491292E-1,3.698047400E-1,-2.742842138E-1
4.198825000E-1,6.434561014E-1,2.781927288E-1,-2.849362195E-1
4.223907810E-1,6.125640869E-1,1.780577302E-1,-2.902622223E-1
4.248990620E-1,5.720841289E-1,6.727072597E-2,-3.041112423E-1
4.274073440E-1,5.188211203E-1,-6.482026726E-2,-3.190242350E-1
4.299156770E-1,4.581011534E-1,-2.033042759E-1,-3.286122382E-1
4.325695830E-1,3.952511549E-1,-3.556362689E-1,-3.435252309E-1
4.350778640E-1,3.238781393E-1,-5.143602490E-1,-3.648312390E-1
4.375861980E-1,2.482451349E-1,-6.794752479E-1,-3.893322349E-1
4.400944790E-1,1.736771315E-1,-8.413952589E-1,-4.170282185E-1
4.426027600E-1,9.804312885E-2,-9.990532398E-1,-4.457902312E-1
4.451110420E-1,2.667113021E-2,-1.151385307E0,-4.788132310E-1
4.476193230E-1,-3.617886826E-2,-1.286673307E0,-5.086412430E-1
4.501276040E-1,-8.731087297E-2,-1.377220273E0,-5.214242339E-1
4.526358850E-1,-1.118118688E-1,-1.386808276E0,-5.139672160E-1
4.551441670E-1,-1.182038710E-1,-1.330349326E0,-4.873362184E-1
4.576524480E-1,-1.203338727E-1,-1.240867257E0,-4.564432204E-1
4.601607810E-1,-1.363128722E-1,-1.139667273E0,-4.266162217E-1
4.629061980E-1,-1.661398709E-1,-1.038468242E0,-4.042452276E-1
4.654144790E-1,-2.044898719E-1,-9.298112392E-1,-3.840052187E-1
4.679228120E-1,-2.140768766E-1,-7.742832303E-1,-2.998502254E-1
4.704310940E-1,-1.714668721E-1,-5.495132208E-1,-1.528442353E-1
4.729393750E-1,-1.576178670E-1,-3.108952641E-1,-2.394723147E-2
4.754476560E-1,-1.757278740E-1,-6.588526815E-2,9.109976888E-2
4.779559370E-1,-2.066198736E-1,1.833847314E-1,2.050817758E-1
4.804642190E-1,-2.407088727E-1,4.315897226E-1,3.211957812E-1
4.829725000E-1,-2.705358565E-1,6.829907298E-1,4.362437725E-1
4.854807810E-1,-2.950368524E-1,9.493057728E-1,5.534217954E-1
4.879890620E-1,-3.003628552E-1,1.239056706E0,6.642097831E-1
4.904973960E-1,-2.758618593E-1,1.547982693E0,7.686047554E-1
4.931992190E-1,-2.279248685E-1,1.853711724E0,8.644777536E-1
4.957075000E-1,-1.757278740E-1,2.131744623E0,9.475687742E-1
4.982158330E-1,-1.331168711E-1,2.363971710E0,1.015744805E0
5.007241140E-1,-7.133187354E-2,2.523760796E0,1.073268771E0
5.032323960E-1,2.170131076E-3,2.623894691E0,1.113748789E0
5.057406250E-1,9.165212512E-2,2.660113811E0,1.141445756E0
5.082489580E-1,2.088301331E-1,2.623894691E0,1.156359792E0
5.107572390E-1,3.643581569E-1,2.505650759E0,1.158489823E0
5.132655210E-1,5.305390954E-1,2.349057674E0,1.147837758E0
5.157738020E-1,6.722180843E-1,2.216965675E0,1.116944790E0
5.182820830E-1,7.883321047E-1,2.102982759E0,1.066877723E0
5.207904170E-1,8.874011040E-1,2.001782656E0,9.987007380E-1
5.234910420E-1,9.672951102E-1,1.906974673E0,9.092187881E-1
5.260025520E-1,1.031211138E0,1.819623709E0,8.080197573E-1
5.285140620E-1,1.073821187E0,1.734402657E0,6.961667538E-1
5.310256250E-1,1.097257137E0,1.640659690E0,5.694007874E-1
5.335371350E-1,1.106844187E0,1.546916723E0,4.341127574E-1
5.360486460E-1,1.103649139E0,1.446782708E0,2.988247573E-1
5.385601560E-1,1.080213189E0,1.333864689E0,1.560807675E-1
5.410716670E-1,1.043994188E0,1.220947742E0,6.943768822E-3
5.435831770E-1,9.960570931E-1,1.097377658E0,-1.400612295E-1
5.460946870E-1,9.321421385E-1,9.663507342E-1,-2.881322205E-1
5.486062500E-1,8.660961390E-1,8.278667331E-1,-4.266162217E-1
5.511177600E-1,7.904621363E-1,6.765997410E-1,-5.555122495E-1
5.537481250E-1,7.095021009E-1,5.104187727E-1,-6.726912260E-1
5.562596350E-1,6.285431385E-1,3.335857391E-1,-7.792172432E-1
5.587711460E-1,5.443871021E-1,1.514267325E-1,-8.708292246E-1
5.612826560E-1,4.644931555E-1,-4.138426855E-2,-9.475282431E-1
5.637941670E-1,3.899241388E-1,-2.320662737E-1,-1.005052209E0
5.663056770E-1,3.217481375E-1,-4.227472842E-1,-1.046597242E0
5.688172390E-1,2.663541436E-1,-6.091682315E-1,-1.068968177E0
5.713287500E-1,2.184181362E-1,-7.881322503E-1,-1.074294209E0
5.738402600E-1,1.790031344E-1,-9.500512481E-1,-1.064706206E0
5.763517710E-1,1.417191327E-1,-1.103449345E0,-1.042336226E0
5.788632810E-1,1.140221283E-1,-1.236606359E0,-1.013574243E0
5.813747920E-1,9.484712780E-2,-1.353785276E0,-9.752252102E-1
5.840352080E-1,8.206412941E-2,-1.456050277E0,-9.283532500E-1
5.865467190E-1,7.460712641E-2,-1.532748342E0,-8.793511987E-1
5.890582290E-1,7.141213119E-2,-1.591338277E0,-8.250232339E-1
5.915697920E-1,7.034613192E-2,-1.625426292E0,-7.706952095E-1
5.940812500E-1,7.780312747E-2,-1.636079311E0,-7.174322009E-1
5.965927600E-1,8.632513136E-2,-1.622230291E0,-6.673642397E-1
5.991043230E-1,9.165212512E-2,-1.592403293E0,-6.172972322E-1
6.016158330E-1,1.001741290E-1,-1.543401361E0,-5.725562572E-1
6.041273440E-1,1.150871292E-1,-1.479485273E0,-5.267502069E-1
6.066388540E-1,1.246751323E-1,-1.398526311E0,-4.841402173E-1
6.091503640E-1,1.321311295E-1,-1.306913257E0,-4.425952137E-1
6.116618750E-1,1.353271306E-1,-1.205714345E0,-4.053112268E-1
6.143607290E-1,1.374581307E-1,-1.092796326E0,-3.733532429E-1
6.168722390E-1,1.385231316E-1,-9.756172299E-1,-3.403302431E-1
6.193837500E-1,1.363931298E-1,-8.552432656E-1,-3.105022311E-1
6.218953120E-1,1.300011277E-1,-7.306082249E-1,-2.817402184E-1
6.244068230E-1,1.193481311E-1,-6.006462574E-1,-2.572392225E-1
6.269183330E-1,1.076311320E-1,-4.749452770E-1,-2.327382267E-1
6.294298440E-1,9.378212690E-2,-3.545712829E-1,-2.082372308E-1
6.319413540E-1,7.247713208E-2,-2.363272756E-1,-1.858672351E-1
6.344528640E-1,5.223713070E-2,-1.244752705E-1,-1.677582264E-1
6.369643750E-1,3.306213394E-2,-2.753626928E-2,-1.517792344E-1
6.394759370E-1,6.431131158E-3,4.809673131E-2,-1.315392256E-1
6.419874480E-1,-2.232986875E-2,1.077507287E-1,-1.070382297E-1
6.446172920E-1,-4.896186665E-2,1.524917334E-1,-8.999422938E-2
6.471288020E-1,-7.559286803E-2,1.865797341E-1,-7.188422978E-2
6.496403120E-1,-1.032898724E-1,2.068197280E-1,-5.803623050E-2
6.521518230E-1,-1.331168711E-1,2.206687331E-1,-5.164423212E-2
6.546633330E-1,-1.586838663E-1,2.281247228E-1,-5.164423212E-2
6.571748440E-1,-1.831838638E-1,2.259947360E-1,-5.164423212E-2
6.596864060E-1,-2.066198736E-1,2.227987349E-1,-5.803623050E-2
6.621979170E-1,-2.289908677E-1,2.132117301E-1,-6.868822873E-2
6.647094270E-1,-2.481648773E-1,1.940367222E-1,-8.466722816E-2
6.672209370E-1,-2.662748694E-1,1.695357263E-1,-1.027772278E-1
6.697325000E-1,-2.801228464E-1,1.460997313E-1,-1.240822300E-1
6.722439580E-1,-2.918408513E-1,1.173377261E-1,-1.432572305E-1
6.749089060E-1,-3.024938703E-1,7.792373002E-2,-1.666922271E-1
6.774204170E-1,-3.067548573E-1,3.424773365E-2,-1.869322211E-1
6.799319270E-1,-3.088848591E-1,-1.368826814E-2,-2.039762288E-1
6.824434370E-1,-3.046238422E-1,-6.375526637E-2,-2.284772247E-1
6.849550000E-1,-2.982328534E-1,-1.116922721E-1,-2.476522326E-1
6.874664580E-1,-2.886448503E-1,-1.585632712E-1,-2.657612264E-1
6.899780210E-1,-2.779928446E-1,-2.075652778E-1,-2.838712335E-1
6.924895310E-1,-2.641438544E-1,-2.523062527E-1,-3.009152412E-1
6.950010420E-1,-2.492308766E-1,-2.927862704E-1,-3.136982322E-1
6.975125520E-1,-2.332518697E-1,-3.311352730E-1,-3.264812231E-1
7.000241140E-1,-2.162078768E-1,-3.694842756E-1,-3.413952291E-1
7.025355730E-1,-1.980978698E-1,-4.003772736E-1,-3.499172330E-1
7.052341140E-1,-1.863798648E-1,-4.291392565E-1,-3.648312390E-1
7.077456250E-1,-1.714668721E-1,-4.525752664E-1,-3.733532429E-1
7.102571350E-1,-1.586838663E-1,-4.738802612E-1,-3.850712180E-1
7.127686980E-1,-1.490958780E-1,-4.877282679E-1,-3.914622366E-1
7.152802080E-1,-1.405738741E-1,-4.994462729E-1,-3.978542387E-1
7.177917190E-1,-1.363128722E-1,-5.079682469E-1,-4.031802416E-1
7.203032290E-1,-1.341828704E-1,-5.122292638E-1,-4.074412286E-1
7.228147390E-1,-1.320518702E-1,-5.122292638E-1,-4.127672315E-1
7.253262500E-1,-1.320518702E-1,-5.069032311E-1,-4.138332307E-1
7.278378120E-1,-1.341828704E-1,-5.058382154E-1,-4.117022157E-1
7.303493230E-1,-1.341828704E-1,-4.983812571E-1,-4.095722139E-1
7.328608330E-1,-1.405738741E-1,-4.866632819E-1,-4.074412286E-1
7.354900520E-1,-1.480308771E-1,-4.781412780E-1,-4.021152258E-1
7.380015620E-1,-1.522918642E-1,-4.642932713E-1,-3.967882395E-1
7.405130730E-1,-1.576178670E-1,-4.451182783E-1,-3.935932219E-1
7.430245830E-1,-1.661398709E-1,-4.323352575E-1,-3.872012198E-1
7.455360940E-1,-1.735968739E-1,-4.088992774E-1,-3.786792159E-1
7.480476040E-1,-1.810538769E-1,-3.801372647E-1,-3.701572418E-1
7.505591670E-1,-1.810538769E-1,-3.460492790E-1,-3.669612408E-1
7.530706770E-1,-1.831838638E-1,-3.076992631E-1,-3.648312390E-1
7.555821870E-1,-1.853148639E-1,-2.757422626E-1,-3.595042229E-1
7.580936980E-1,-1.863798648E-1,-2.469802648E-1,-3.563092351E-1
7.606052080E-1,-1.906408668E-1,-2.203482687E-1,-3.499172330E-1
7.631167190E-1,-1.949018687E-1,-1.937172711E-1,-3.413952291E-1
7.657815620E-1,-1.970328689E-1,-1.766722649E-1,-3.286122382E-1
7.682930730E-1,-2.055548728E-1,-1.649552733E-1,-3.168942332E-1
7.708045830E-1,-2.130118757E-1,-1.553672701E-1,-3.009152412E-1
7.733160940E-1,-2.194028646E-1,-1.574982703E-1,-2.806752324E-1
7.758276040E-1,-2.311208695E-1,-1.628242731E-1,-2.593702376E-1
7.783391140E-1,-2.470998764E-1,-1.649552733E-1,-2.380652279E-1
7.808506770E-1,-2.609478533E-1,-1.692162752E-1,-2.210212350E-1
7.833621870E-1,-2.769268453E-1,-1.692162752E-1,-1.975852251E-1
7.858736980E-1,-2.950368524E-1,-1.702812761E-1,-1.784102321E-1
7.883852080E-1,-3.131458461E-1,-1.702812761E-1,-1.603012234E-1
7.908967190E-1,-3.291248679E-1,-1.681502759E-1,-1.389962286E-1
7.934082810E-1,-3.504298627E-1,-1.628242731E-1,-1.219512299E-1
7.961040620E-1,-3.738658428E-1,-1.564322710E-1,-1.070382297E-1
7.986155730E-1,-3.973018527E-1,-1.436492652E-1,-9.745022655E-2
8.011270830E-1,-4.207368493E-1,-1.319312751E-1,-9.318923205E-2
8.036386460E-1,-4.441728592E-1,-1.138222739E-1,-9.105923027E-2
8.061501560E-1,-4.718698561E-1,-1.063652709E-1,-9.105923027E-2
8.086616670E-1,-4.974358678E-1,-1.010392681E-1,-9.851622581E-2
8.111731770E-1,-5.198068619E-1,-1.042352691E-1,-9.851622581E-2
8.136846870E-1,-5.453729033E-1,-1.106262729E-1,-9.425523132E-2
8.161962500E-1,-5.698738694E-1,-1.212792695E-1,-9.638522565E-2
8.187077080E-1,-5.911788940E-1,-1.329972744E-1,-9.425523132E-2
8.212192710E-1,-6.124838591E-1,-1.457802653E-1,-8.999422938E-2
8.237307810E-1,-6.369848847E-1,-1.543022692E-1,-8.253722638E-2
8.263639060E-1,-6.604208946E-1,-1.649552733E-1,-7.614523172E-2
8.288754170E-1,-6.827908754E-1,-1.798682660E-1,-7.294923067E-2
8.313869270E-1,-6.987698674E-1,-1.937172711E-1,-6.442722678E-2
8.338984370E-1,-7.200759053E-1,-2.043692768E-1,-5.377523229E-2
8.364099480E-1,-7.413808703E-1,-2.150222659E-1,-3.992623091E-2
8.389214580E-1,-7.573598623E-1,-2.246092707E-1,-2.394723147E-2
8.414330210E-1,-7.765339017E-1,-2.373922765E-1,-6.903231144E-3
8.439445310E-1,-7.925128937E-1,-2.416532785E-1,1.333576906E-2
8.464560420E-1,-8.063619137E-1,-2.459142655E-1,3.144476935E-2
8.489675520E-1,-8.202098608E-1,-2.480452657E-1,5.274976790E-2
8.514790620E-1,-8.383188844E-1,-2.512412667E-1,7.512076944E-2
8.539905730E-1,-8.532328606E-1,-2.512412667E-1,9.855577350E-2
8.566560420E-1,-8.617548943E-1,-2.523062527E-1,1.209267750E-1
8.591675520E-1,-8.756029010E-1,-2.523062527E-1,1.475577652E-1
8.616790620E-1,-8.926478624E-1,-2.491102666E-1,1.741897762E-1
8.641905730E-1,-9.064958692E-1,-2.459142655E-1,1.986907721E-1
8.667020830E-1,-9.235398769E-1,-2.427182645E-1,2.221267670E-1
8.692135940E-1,-9.437798858E-1,-2.416532785E-1,2.466277778E-1
8.717251560E-1,-9.586938620E-1,-2.427182645E-1,2.732587755E-1
8.742366670E-1,-9.746729136E-1,-2.395232767E-1,2.988247573E-1
8.767481770E-1,-9.959778786E-1,-2.373922765E-1,3.254567683E-1
8.792596870E-1,-1.015152812E0,-2.384572774E-1,3.542187810E-1
8.817711980E-1,-1.035391808E0,-2.373922765E-1,3.819157779E-1
8.842827080E-1,-1.053501844E0,-2.395232767E-1,4.096117616E-1
8.869450000E-1,-1.069480777E0,-2.384572774E-1,4.319827855E-1
8.894565100E-1,-1.083328843E0,-2.341962755E-1,4.554187655E-1
8.919680210E-1,-1.100372791E0,-2.363272756E-1,4.756587744E-1
8.944795830E-1,-1.116351843E0,-2.384572774E-1,4.895067811E-1
8.969910420E-1,-1.128069878E0,-2.384572774E-1,5.044207573E-1
8.995025520E-1,-1.139787793E0,-2.384572774E-1,5.246597528E-1
9.020141140E-1,-1.152570844E0,-2.352622747E-1,5.363777876E-1
9.045256250E-1,-1.166418791E0,-2.331312746E-1,5.459657907E-1
9.070371350E-1,-1.173875809E0,-2.256742716E-1,5.502267480E-1
9.095486460E-1,-1.181332827E0,-2.139562666E-1,5.598137975E-1
9.120601560E-1,-1.191985846E0,-2.022392750E-1,5.683357716E-1
9.145716670E-1,-1.199442863E0,-1.873252690E-1,5.736617446E-1
9.172699480E-1,-1.207964778E0,-1.617592722E-1,5.779227614E-1
9.197815100E-1,-1.213290811E0,-1.425842643E-1,5.757927895E-1
9.222929690E-1,-1.219681859E0,-1.159532741E-1,5.757927895E-1
9.248045310E-1,-1.222877860E0,-9.145227075E-2,5.683357716E-1
9.273160420E-1,-1.221812844E0,-6.801626831E-2,5.598137975E-1
9.298275520E-1,-1.222877860E0,-4.458026588E-2,5.417047739E-1
9.323390620E-1,-1.222877860E0,-1.688326895E-2,5.235947967E-1
9.348505730E-1,-1.219681859E0,8.681731299E-3,5.022897720E-1
9.373620830E-1,-1.216486812E0,3.211773187E-2,4.735277593E-1
9.398735940E-1,-1.209029794E0,5.342273414E-2,4.458307624E-1
9.423851560E-1,-1.197311878E0,6.940172613E-2,4.160037637E-1
9.448966670E-1,-1.189854860E0,7.685872912E-2,3.840457797E-1
9.475278120E-1,-1.174941778E0,7.259672880E-2,3.552837670E-1
9.500393230E-1,-1.160027862E0,6.514073163E-2,3.233257830E-1
9.525508330E-1,-1.141917825E0,4.703073204E-2,2.934987843E-1
9.550623440E-1,-1.119547844E0,2.252973244E-2,2.594107687E-1
9.575738540E-1,-1.100372791E0,-9.427268058E-3,2.317137718E-1
9.600853640E-1,-1.072676778E0,-4.351526871E-2,2.050817758E-1
9.625969270E-1,-1.047109842E0,-8.506026864E-2,1.752547771E-1
9.651084370E-1,-1.020478845E0,-1.361922771E-1,1.518187672E-1
9.676199480E-1,-9.927818775E-1,-1.873252690E-1,1.230567694E-1
9.701314580E-1,-9.640198946E-1,-2.416532785E-1,9.642577171E-2
9.726429690E-1,-9.299318790E-1,-2.927862704E-1,7.085977495E-2
9.751544790E-1,-8.926478624E-1,-3.407222629E-1,4.529276863E-2
9.778172920E-1,-8.521679044E-1,-3.907902837E-1,1.759676822E-2
9.803288020E-1,-8.138178587E-1,-4.365962744E-1,-1.649123244E-2
9.828403120E-1,-7.712078691E-1,-4.802712798E-1,-5.270923302E-2
9.853518230E-1,-7.254018784E-1,-5.271432400E-1,-9.318923205E-2
9.878633850E-1,-6.785298586E-1,-5.825362206E-1,-1.326042265E-1
9.903748440E-1,-6.295278668E-1,-6.432562470E-1,-1.698882282E-1
9.928864060E-1,-5.805258751E-1,-7.071722150E-1,-1.986502260E-1
9.953979170E-1,-5.304588675E-1,-7.678922415E-1,-2.135642320E-1
9.979094270E-1,-4.793268442E-1,-8.264812231E-1,-2.210212350E-1
1.000420937E0,-4.303248525E-1,-8.776132464E-1,-2.199552357E-1
1.002932448E0,-3.866488636E-1,-9.148982167E-1,-2.135642320E-1
1.005443958E0,-3.429728448E-1,-9.436602592E-1,-1.997152269E-1
1.008123333E0,-3.024938703E-1,-9.585732222E-1,-1.858672351E-1
1.010634844E0,-2.630788684E-1,-9.596382380E-1,-1.709532291E-1
1.013146354E0,-2.236638665E-1,-9.479212165E-1,-1.528442353E-1
1.015657917E0,-1.863798648E-1,-9.255502224E-1,-1.251472384E-1
1.018169427E0,-1.554878652E-1,-8.893312216E-1,-9.425523132E-2
1.020680937E0,-1.224648729E-1,-8.477862477E-1,-6.655822694E-2
1.023192448E0,-9.050687402E-2,-7.998492122E-1,-3.566523269E-2
1.025703958E0,-6.174486876E-2,-7.465862632E-1,-5.132312654E-4
1.028215469E0,-3.830886632E-2,-6.911932230E-1,3.570576757E-2
1.030726979E0,-1.274286862E-2,-6.326042414E-1,6.872877479E-2
1.033238542E0,1.282213163E-2,-5.729492307E-1,1.028177738E-1
1.035750052E0,3.519313410E-2,-5.143602490E-1,1.369057745E-1
1.038431823E0,5.330213159E-2,-4.568362832E-1,1.709937751E-1
1.040945885E0,7.247713208E-2,-4.046382606E-1,1.997557729E-1
1.043459948E0,8.739113063E-2,-3.545712829E-1,2.317137718E-1
1.045974010E0,1.055001318E-1,-3.066342771E-1,2.615407705E-1
1.048488073E0,1.214791313E-1,-2.682852745E-1,2.807157636E-1
1.051002135E0,1.353271306E-1,-2.310012728E-1,2.998907864E-1
1.053516198E0,1.513061225E-1,-2.001082748E-1,3.201307654E-1
1.056030260E0,1.683501303E-1,-1.734772772E-1,3.350437582E-1
1.058544323E0,1.843291223E-1,-1.489762664E-1,3.478267789E-1
1.061058385E0,2.003081292E-1,-1.276702732E-1,3.552837670E-1
1.063572396E0,2.205481231E-1,-1.074302718E-1,3.648707569E-1
1.066086458E0,2.439841330E-1,-9.038627148E-2,3.755237758E-1
1.068698542E0,2.674201429E-1,-6.588526815E-2,3.883067667E-1
1.071212604E0,2.908551395E-1,-3.925426677E-2,3.915027678E-1
1.073726667E0,3.206831515E-1,-5.166268442E-3,3.957637846E-1
1.076240729E0,3.537061512E-1,3.318273276E-2,4.021557570E-1
1.078754792E0,3.824681342E-1,7.685872912E-2,4.064167738E-1
1.081268854E0,4.165561497E-1,1.247947216E-1,4.138727784E-1
1.083782917E0,4.538401365E-1,1.684707254E-1,4.202647805E-1
1.086296979E0,4.911241531E-1,2.121467292E-1,4.234607816E-1
1.088811042E0,5.337350965E-1,2.504957318E-1,4.234607816E-1
1.091325104E0,5.774101019E-1,2.845837176E-1,4.298517704E-1
1.093839114E0,6.200211048E-1,3.112157285E-1,4.341127574E-1
1.096353229E0,6.647611260E-1,3.357167244E-1,4.351787865E-1
1.099015208E0,7.105681300E-1,3.506297171E-1,4.405047596E-1
1.101529271E0,7.521131039E-1,3.612827361E-1,4.437007606E-1
1.104043333E0,7.989841104E-1,3.698047400E-1,4.437007606E-1
1.106557396E0,8.415951133E-1,3.740657270E-1,4.426347613E-1
1.109071458E0,8.842051029E-1,3.719357252E-1,4.437007606E-1
1.111585521E0,9.225541353E-1,3.698047400E-1,4.415697753E-1
1.114099583E0,9.641001225E-1,3.708697259E-1,4.426347613E-1
1.116613646E0,1.002449155E0,3.730007410E-1,4.468957782E-1
1.119127708E0,1.042929173E0,3.783267140E-1,4.468957782E-1
1.121641771E0,1.078082204E0,3.857837319E-1,4.426347613E-1
1.124155781E0,1.108975172E0,3.996317387E-1,4.405047596E-1
1.126669844E0,1.140933156E0,4.156107306E-1,4.394397736E-1
1.129304479E0,1.168629169E0,4.347857237E-1,4.394397736E-1
1.131818542E0,1.191000223E0,4.560907185E-1,4.405047596E-1
1.134332604E0,1.217631221E0,4.763307273E-1,4.426347613E-1
1.136846667E0,1.241067171E0,4.976357520E-1,4.447657764E-1
1.139360729E0,1.258111119E0,5.157457590E-1,4.490267634E-1
1.141874792E0,1.274090171E0,5.349197388E-1,4.511577785E-1
1.144388854E0,1.290069222E0,5.551597476E-1,4.575487673E-1
1.146902917E0,1.303917170E0,5.764647722E-1,4.639407694E-1
1.149416979E0,1.313505173E0,5.977707505E-1,4.703317583E-1
1.151931042E0,1.317766190E0,6.180107594E-1,4.788537621E-1
1.154445052E0,1.324157119E0,6.371847391E-1,4.841807783E-1
1.156959114E0,1.326288223E0,6.627517343E-1,4.916367829E-1
1.159599583E0,1.327353120E0,6.861867309E-1,5.001587868E-1
1.162113646E0,1.325223207E0,7.064267397E-1,5.129427910E-1
1.164627708E0,1.318831205E0,7.298627496E-1,5.193337798E-1
1.167141771E0,1.315635204E0,7.501027584E-1,5.310517550E-1
1.169655833E0,1.307113171E0,7.692777514E-1,5.448997617E-1
1.172169896E0,1.296461225E0,7.884517312E-1,5.555527806E-1
1.174683958E0,1.282612205E0,8.012347817E-1,5.662057996E-1
1.177198021E0,1.268764138E0,8.118877411E-1,5.779227614E-1
1.179712083E0,1.250654221E0,8.140177727E-1,5.843147635E-1
1.182226146E0,1.232545137E0,8.086917400E-1,5.917717814E-1
1.184740156E0,1.211240172E0,7.969737649E-1,5.981627703E-1
1.187254219E0,1.189935207E0,7.852557302E-1,6.024237871E-1
1.189854427E0,1.164368153E0,7.703427672E-1,6.002937555E-1
1.192368489E0,1.135606170E0,7.554287314E-1,6.002937555E-1
1.194882552E0,1.106844187E0,7.394497395E-1,5.992287993E-1
1.197396614E0,1.075952172E0,7.234707475E-1,5.917717814E-1
1.199910677E0,1.046125174E0,7.106877565E-1,5.875107646E-1
1.202424739E0,1.013102174E0,6.915137768E-1,5.811187625E-1
1.204938802E0,9.768831134E-1,6.734037399E-1,5.736617446E-1
1.207452812E0,9.417291284E-1,6.520987749E-1,5.619447827E-1
1.209966875E0,9.065760970E-1,6.286627650E-1,5.480957627E-1
1.212480937E0,8.682261109E-1,6.084227562E-1,5.342477560E-1
1.214995000E0,8.309420943E-1,5.860527754E-1,5.182687640E-1
1.217509062E0,7.936581373E-1,5.690087676E-1,5.012247562E-1
1.220179948E0,7.574391365E-1,5.508987308E-1,4.863107800E-1
1.222694010E0,7.201551199E-1,5.370507836E-1,4.713967741E-1
1.225208073E0,6.871321201E-1,5.263977647E-1,4.532877803E-1
1.227722135E0,6.530441046E-1,5.168107748E-1,4.362437725E-1
1.230236198E0,6.168251038E-1,5.200067759E-1,4.181337655E-1
1.232750260E0,5.848671198E-1,5.242677331E-1,4.032207727E-1
1.235264323E0,5.539740920E-1,5.317247510E-1,3.851107657E-1
1.237778385E0,5.230821371E-1,5.402467847E-1,3.659367859E-1
1.240292448E0,4.975161552E-1,5.508987308E-1,3.478267789E-1
1.242806510E0,4.708841443E-1,5.562257767E-1,3.307827711E-1
1.245320521E0,4.442531466E-1,5.615517497E-1,3.137387633E-1
1.247834583E0,4.240131378E-1,5.679427385E-1,3.009557724E-1
1.250437812E0,3.995121419E-1,5.668777823E-1,2.849767804E-1
1.252951875E0,3.739461303E-1,5.636817813E-1,2.743237615E-1
1.255465937E0,3.515751362E-1,5.551597476E-1,2.562147677E-1
1.257980000E0,3.260091543E-1,5.445077419E-1,2.413007766E-1
1.260494062E0,3.025731444E-1,5.327897668E-1,2.285177708E-1
1.263008125E0,2.802031338E-1,5.253327489E-1,2.199957669E-1
1.265522187E0,2.567671537E-1,5.104187727E-1,2.061477751E-1
1.268036250E0,2.333311290E-1,4.944397211E-1,1.944297701E-1
1.270550260E0,2.109611332E-1,4.795267284E-1,1.859077662E-1
1.273064323E0,1.885901242E-1,4.582217336E-1,1.763197780E-1
1.275578385E0,1.694161296E-1,4.283937216E-1,1.656677723E-1
1.278092448E0,1.438491344E-1,3.921747208E-1,1.592757702E-1
1.280726875E0,1.193481311E-1,3.453037143E-1,1.486237645E-1
1.283240937E0,9.591312706E-2,2.909757197E-1,1.401017755E-1
1.285755000E0,7.247713208E-2,2.281247228E-1,1.337097734E-1
1.288269062E0,5.010613427E-2,1.631447226E-1,1.241227686E-1
1.290783125E0,2.241013013E-2,8.751072735E-2,1.134697720E-1
1.293297187E0,-1.167786866E-2,1.613873243E-2,9.962177277E-2
1.295811250E0,-4.043986648E-2,-5.203726888E-2,8.364277333E-2
1.298325312E0,-7.346287370E-2,-1.116922721E-1,6.233776733E-2
1.300839323E0,-1.043548733E-1,-1.564322710E-1,3.890176862E-2
1.303353385E0,-1.331168711E-1,-1.937172711E-1,1.546576899E-2
1.305867448E0,-1.618788689E-1,-2.203482687E-1,-1.542523131E-2
1.308381510E0,-1.895758659E-1,-2.405882776E-1,-4.844823107E-2
1.311018489E0,-2.151418775E-1,-2.523062527E-1,-8.253722638E-2
1.313532552E0,-2.353818715E-1,-2.629582584E-1,-1.198212281E-1
1.316046614E0,-2.577528656E-1,-2.704152763E-1,-1.613662243E-1
1.318560677E0,-2.769268453E-1,-2.714812756E-1,-1.997152269E-1
1.321074739E0,-2.929058671E-1,-2.704152763E-1,-2.412602305E-1
1.323588802E0,-3.046238422E-1,-2.725462615E-1,-2.785452306E-1
1.326102864E0,-3.195378482E-1,-2.736112773E-1,-3.211552203E-1
1.328616875E0,-3.312558532E-1,-2.746762633E-1,-3.605702221E-1
1.331130937E0,-3.472348452E-1,-2.789372802E-1,-3.978542387E-1
1.333645000E0,-3.664088547E-1,-2.917202711E-1,-4.287462234E-1
1.336159062E0,-3.866488636E-1,-3.130262792E-1,-4.564432204E-1
1.338673125E0,-4.090198576E-1,-3.343312740E-1,-4.798792303E-1
1.341308750E0,-4.388468564E-1,-3.567012846E-1,-5.033142567E-1
1.343822812E0,-4.697388709E-1,-3.726802766E-1,-5.267502069E-1
1.346336875E0,-4.985008538E-1,-3.886592686E-1,-5.469902158E-1
1.348850937E0,-5.325899124E-1,-3.971812725E-1,-5.672302246E-1
1.351365000E0,-5.645478964E-1,-4.057032764E-1,-5.949272513E-1
1.353879062E0,-6.018319130E-1,-4.003772736E-1,-6.236892343E-1
1.356393125E0,-6.465728879E-1,-3.843982816E-1,-6.535162330E-1
1.358907135E0,-6.891828775E-1,-3.513752818E-1,-6.897352338E-1
1.361421198E0,-7.349888682E-1,-3.023732603E-1,-7.312802076E-1
1.363935260E0,-7.893168926E-1,-2.501752675E-1,-7.781522274E-1
1.366449323E0,-8.404498696E-1,-1.915862709E-1,-8.324802518E-1
1.368963385E0,-8.969088793E-1,-1.340622753E-1,-8.889392018E-1
1.371598437E0,-9.576289058E-1,-8.612526953E-2,-9.453972578E-1
1.374112500E0,-1.019413829E0,-4.564526677E-2,-1.007182240E0
1.376626562E0,-1.082263827E0,-2.221027017E-2,-1.062576175E0
1.379140625E0,-1.144048810E0,-2.327526733E-2,-1.114774227E0
1.381654687E0,-1.189854860E0,-6.695127487E-2,-1.166971207E0
1.384168750E0,-1.215420842E0,-1.702812761E-1,-1.219169259E0
1.386682812E0,-1.217551827E0,-3.215482831E-1,-1.266041279E0
1.389196823E0,-1.195180774E0,-5.132952332E-1,-1.308651209E0
1.391710885E0,-1.148309827E0,-7.380642295E-1,-1.336348176E0
1.394224948E0,-1.068415880E0,-9.777482152E-1,-1.344870210E0
1.396739010E0,-9.650849104E-1,-1.207844257E0,-1.327826262E0
1.399253073E0,-8.436458707E-1,-1.404917359E0,-1.290542245E0
1.401904010E0,-7.062268853E-1,-1.549793243E0,-1.226626277E0
1.404418073E0,-5.549598932E-1,-1.632883310E0,-1.135014176E0
1.406932135E0,-4.004978538E-1,-1.632883310E0,-1.007182240E0
1.409446198E0,-2.492308766E-1,-1.552988291E0,-8.378062248E-1
1.411960260E0,-1.043548733E-1,-1.379351258E0,-6.481902003E-1
1.414474323E0,3.732313216E-2,-1.109840274E0,-4.745522141E-1
1.416988385E0,1.672851294E-1,-7.519132495E-1,-3.083722293E-1
1.419502448E0,2.823331356E-1,-3.290052712E-1,-1.485832334E-1
1.422016510E0,3.750111461E-1,1.365127265E-1,5.527687026E-4
1.424530573E0,4.485141337E-1,6.212057471E-1,1.326447725E-1
1.427044583E0,5.071030855E-1,1.106964707E0,2.562147677E-1
1.429558646E0,5.518441200E-1,1.571417689E0,3.733937740E-1
1.432205729E0,5.869981050E-1,1.994326711E0,4.809847772E-1
1.434719792E0,6.104331017E-1,2.366101742E0,5.832497478E-1
1.437233854E0,6.232160926E-1,2.677157640E0,6.855147481E-1
1.439747917E0,6.232160926E-1,2.922167778E0,7.824527621E-1
1.442261979E0,6.061720848E-1,3.109653711E0,8.836527467E-1
1.444776042E0,5.635620952E-1,3.218309641E0,9.710037708E-1
1.447290104E0,4.879281521E-1,3.230027676E0,1.048767805E0
1.449804167E0,3.771411479E-1,3.143741608E0,1.127597809E0
1.452318229E0,2.429191321E-1,2.980756760E0,1.193643808E0
1.454832292E0,9.271712601E-2,2.745334625E0,1.245840788E0
1.457346354E0,-7.772386819E-2,2.436408758E0,1.277798772E0
1.459860417E0,-2.620138526E-1,2.051850796E0,1.293777823E0
1.462508437E0,-4.463038445E-1,1.627876759E0,1.295908809E0
1.465022500E0,-6.305938959E-1,1.173010707E0,1.280994773E0
1.467536562E0,-8.074268699E-1,7.021657825E-1,1.260754824E0
1.470050625E0,-9.810639024E-1,2.515607178E-1,1.238384724E0
1.472564687E0,-1.138722777E0,-1.553672701E-1,1.216013789E0
1.475078750E0,-1.272944808E0,-5.090332627E-1,1.197904825E0
1.477592812E0,-1.372014880E0,-7.977192402E-1,1.180860758E0
1.480106875E0,-1.425277829E0,-1.006510258E0,1.171272755E0
1.482620937E0,-1.433799863E0,-1.133276343E0,1.168077826E0
1.485135000E0,-1.393319845E0,-1.200387359E0,1.165946722E0
1.487649010E0,-1.294250846E0,-1.237671256E0,1.167011738E0
1.490163073E0,-1.139787793E0,-1.254715323E0,1.172338724E0
1.492795625E0,-9.288659096E-1,-1.268564343E0,1.177664757E0
1.495309687E0,-6.795958877E-1,-1.283478260E0,1.175533772E0
1.497823750E0,-3.973018527E-1,-1.300522327E0,1.162750721E0
1.500337812E0,-9.263686836E-2,-1.315435290E0,1.132923722E0
1.502851875E0,2.173521221E-1,-1.332479358E0,1.081790805E0
1.505365937E0,5.220171213E-1,-1.355915308E0,1.002961755E0
1.507880000E0,8.096371293E-1,-1.383612275E0,9.070887566E-1
1.510394062E0,1.077017188E0,-1.418766260E0,7.931057811E-1
1.512908125E0,1.313505173E0,-1.461376309E0,6.588827968E-1
1.515422187E0,1.518035173E0,-1.517835259E0,5.140077472E-1
1.517936198E0,1.679954171E0,-1.586011291E0,3.574147820E-1
1.520450260E0,1.807785153E0,-1.661645293E0,1.933647692E-1
1.523090000E0,1.902594209E0,-1.743670344E0,3.144476935E-2
1.525604062E0,1.960118175E0,-1.835282326E0,-1.240822300E-1
1.528118125E0,1.980358124E0,-1.933286309E0,-2.710882425E-1
1.530632187E0,1.970770121E0,-2.041943312E0,-4.085062146E-1
1.533146250E0,1.933486223E0,-2.158056259E0,-5.299462080E-1
1.535660312E0,1.872766137E0,-2.270974398E0,-6.364722252E-1
1.538174375E0,1.788611174E0,-2.379630327E0,-7.216932178E-1
1.540688437E0,1.685281157E0,-2.475503206E0,-7.930652499E-1
1.543202500E0,1.576624155E0,-2.554333210E0,-8.441982269E-1
1.545716562E0,1.459445119E0,-2.615053415E0,-8.782862425E-1
1.548230573E0,1.335875154E0,-2.651271343E0,-8.942652345E-1
1.550744635E0,1.214436173E0,-2.664054394E0,-8.942652345E-1
1.553378646E0,1.096192122E0,-2.645945311E0,-8.772212267E-1
1.555894739E0,9.811441302E-1,-2.604400396E0,-8.473932147E-1
1.558410833E0,8.692911267E-1,-2.543680191E0,-8.058482409E-1
1.560926927E0,7.617000937E-1,-2.464851379E0,-7.589772344E-1
1.563443021E0,6.594350934E-1,-2.361521244E0,-7.046492100E-1
1.565959114E0,5.646271110E-1,-2.247538328E0,-6.481902003E-1
1.568475208E0,4.740801454E-1,-2.127163410E0,-5.821442008E-1
1.570991354E0,3.867291510E-1,-1.999332309E0,-5.160982013E-1
1.573507448E0,3.068341315E-1,-1.875762343E0,-4.500512183E-1
1.576023542E0,2.269401252E-1,-1.755388260E0,-3.818752170E-1
1.578539635E0,1.513061225E-1,-1.642470360E0,-3.211552203E-1
1.581055729E0,7.993412763E-2,-1.544466257E0,-2.636312246E-1
1.583669323E0,1.921413094E-2,-1.464572310E0,-2.167602330E-1
1.586185417E0,-3.404786810E-2,-1.397460341E0,-1.677582264E-1
1.588701510E0,-7.985386997E-2,-1.354850292E0,-1.262122393E-1
1.591217604E0,-1.128768697E-1,-1.319696307E0,-8.892823011E-2
1.593733698E0,-1.373778731E-1,-1.297326326E0,-5.697123334E-2
1.596249792E0,-1.501608640E-1,-1.284543276E0,-2.501323260E-2
1.598765885E0,-1.554878652E-1,-1.278151274E0,-2.643231302E-3
1.601282031E0,-1.576178670E-1,-1.271760345E0,2.185776830E-2
1.603798125E0,-1.448348761E-1,-1.265368342E0,5.061976612E-2
1.606314219E0,-1.277908683E-1,-1.263238311E0,7.085977495E-2
1.608830312E0,-1.054208726E-1,-1.262172341E0,9.962177277E-2
1.611346406E0,-8.198487014E-2,-1.264303327E0,1.315797716E-1
1.613962604E0,-5.215786770E-2,-1.260042310E0,1.592757702E-1
1.616478698E0,-1.913386956E-2,-1.254715323E0,1.944297701E-1
1.618994792E0,1.495313179E-2,-1.237671256E0,2.231917679E-1
1.621510885E0,5.223713070E-2,-1.212105274E0,2.519537807E-1
1.624026979E0,8.739113063E-2,-1.182278275E0,2.775197625E-1
1.626543073E0,1.225441322E-1,-1.138602257E0,3.020207584E-1
1.629059167E0,1.566321254E-1,-1.094926357E0,3.254567683E-1
1.631575260E0,1.917861253E-1,-1.051251292E0,3.499577641E-1
1.634091406E0,2.280051261E-1,-1.008640289E0,3.723277748E-1
1.636607500E0,2.620931566E-1,-9.713562131E-1,3.946987689E-1
1.639123594E0,2.983121574E-1,-9.383332133E-1,4.138727784E-1
1.641639687E0,3.313351572E-1,-9.127672315E-1,4.309177697E-1
1.644215364E0,3.632931411E-1,-8.914622664E-1,4.394397736E-1
1.646731458E0,3.952511549E-1,-8.658962250E-1,4.426347613E-1
1.649247552E0,4.272091389E-1,-8.424602151E-1,4.394397736E-1
1.651763646E0,4.527751505E-1,-8.158282638E-1,4.298517704E-1
1.654279792E0,4.762101471E-1,-7.828052640E-1,4.128077626E-1
1.656795885E0,4.985811412E-1,-7.476522326E-1,3.936327696E-1
1.659311979E0,5.188211203E-1,-7.135632634E-1,3.670017719E-1
1.661828073E0,5.358651280E-1,-6.890622377E-1,3.425007761E-1
1.664344167E0,5.497131348E-1,-6.805402637E-1,3.169347644E-1
1.666860260E0,5.571700931E-1,-6.922582388E-1,2.903027833E-1
1.669376354E0,5.656921268E-1,-7.156942487E-1,2.700627744E-1
1.671892448E0,5.752801299E-1,-7.071722150E-1,2.455617785E-1
1.674543385E0,5.901930928E-1,-7.061072588E-1,2.285177708E-1
1.677059479E0,6.040421128E-1,-7.061072588E-1,2.146697789E-1
1.679575573E0,6.189551353E-1,-7.093022466E-1,1.976257712E-1
1.682091667E0,6.370651126E-1,-7.156942487E-1,1.901687682E-1
1.684607760E0,6.551741362E-1,-7.210202217E-1,1.859077662E-1
1.687123854E0,6.754140854E-1,-7.359342575E-1,1.827117652E-1
1.689639948E0,6.924580932E-1,-7.540432215E-1,1.805807650E-1
1.692156094E0,7.084370852E-1,-7.700222135E-1,1.827117652E-1
1.694672187E0,7.212201357E-1,-7.849362493E-1,1.848427653E-1
1.697188281E0,7.340031266E-1,-7.987842560E-1,1.837767661E-1
1.699704375E0,7.435911298E-1,-7.977192402E-1,1.859077662E-1
1.702220469E0,7.531781197E-1,-7.934582233E-1,1.901687682E-1
1.704834167E0,7.585040927E-1,-7.764142156E-1,1.997557729E-1
1.707350260E0,7.648960948E-1,-7.465862632E-1,2.136047781E-1
1.709866354E0,7.734181285E-1,-7.061072588E-1,2.274527699E-1
1.712382448E0,7.776790857E-1,-6.581702232E-1,2.455617785E-1
1.714898542E0,7.830051184E-1,-5.963852406E-1,2.658017576E-1
1.717414635E0,7.851361036E-1,-5.314042568E-1,2.828457654E-1
1.719930729E0,7.862011194E-1,-4.589662850E-1,3.009557724E-1
1.722446875E0,7.808750868E-1,-3.918552697E-1,3.201307654E-1
1.724962969E0,7.755491138E-1,-3.183522820E-1,3.393047750E-1
1.727479062E0,7.659611106E-1,-2.416532785E-1,3.574147820E-1
1.729995156E0,7.542431355E-1,-1.724112779E-1,3.755237758E-1
1.732511250E0,7.435911298E-1,-1.042352691E-1,3.915027678E-1
1.735092292E0,7.254810929E-1,-3.499326855E-2,4.106777608E-1
1.737608385E0,7.084370852E-1,2.892173082E-2,4.287867844E-1
1.740124479E0,6.913931370E-1,9.709773213E-2,4.437007606E-1
1.742640573E0,6.796751022E-1,1.556877345E-1,4.586137831E-1
1.745156719E0,6.658270955E-1,2.100157291E-1,4.756587744E-1
1.747672812E0,6.541091204E-1,2.590177357E-1,4.916367829E-1
1.750188906E0,6.466521025E-1,3.058887422E-1,5.044207573E-1
1.752705000E0,6.402611136E-1,3.484997153E-1,5.161377788E-1
1.755221094E0,6.381301284E-1,3.836527169E-1,5.257257819E-1
1.757737187E0,6.391950846E-1,4.124147296E-1,5.353127718E-1
1.760253281E0,6.391950846E-1,4.379817247E-1,5.427697897E-1
1.762769375E0,6.466521025E-1,4.624827206E-1,5.470307469E-1
1.765382239E0,6.541091204E-1,4.816567302E-1,5.523567796E-1
1.767898333E0,6.647611260E-1,5.008317828E-1,5.576837659E-1
1.770414427E0,6.807401180E-1,5.114847422E-1,5.608787537E-1
1.772930521E0,6.988500953E-1,5.221367478E-1,5.662057996E-1
1.775446667E0,7.158941031E-1,5.317247510E-1,5.662057996E-1
1.777962760E0,7.329381108E-1,5.381157398E-1,5.662057996E-1
1.780478854E0,7.521131039E-1,5.445077419E-1,5.662057996E-1
1.782994948E0,7.702221274E-1,5.477027297E-1,5.651397705E-1
1.785511042E0,7.883321047E-1,5.519637465E-1,5.651397705E-1
1.788027135E0,8.075060844E-1,5.519637465E-1,5.651397705E-1
1.790543229E0,8.213551044E-1,5.445077419E-1,5.640747547E-1
1.793059323E0,8.298771381E-1,5.359857678E-1,5.672707558E-1
1.795673646E0,8.415951133E-1,5.189407468E-1,5.694007874E-1
1.798189739E0,8.490511179E-1,4.997667372E-1,5.672707558E-1
1.800705833E0,8.586391211E-1,4.859177172E-1,5.640747547E-1
1.803221927E0,8.650301099E-1,4.752657413E-1,5.587487817E-1
1.805738073E0,8.650301099E-1,4.592867196E-1,5.555527806E-1
1.808254114E0,8.660961390E-1,4.401117265E-1,5.512917638E-1
1.810770260E0,8.650301099E-1,4.134807289E-1,5.448997617E-1
1.813286354E0,8.650301099E-1,3.772617280E-1,5.395737886E-1
1.815802448E0,8.586391211E-1,3.335857391E-1,5.267907977E-1
1.818318542E0,8.479861021E-1,2.856487334E-1,5.172037482E-1
1.820834635E0,8.373340964E-1,2.334517241E-1,5.065507889E-1
1.823350729E0,8.245500922E-1,1.876457334E-1,4.948327839E-1
1.825964844E0,8.117671013E-1,1.407737285E-1,4.809847772E-1
1.828480937E0,7.957881093E-1,9.496773034E-2,4.639407694E-1
1.830997031E0,7.755491138E-1,5.129173398E-2,4.479617774E-1
1.833513125E0,7.574391365E-1,6.550731137E-3,4.287867844E-1
1.836029271E0,7.403951287E-1,-3.073226660E-2,4.053507745E-1
1.838545364E0,7.180241346E-1,-5.736326799E-2,3.776547611E-1
1.841061458E0,6.956540942E-1,-8.079927415E-2,3.542187810E-1
1.843577552E0,6.679571271E-1,-9.677827358E-2,3.233257830E-1
1.846093646E0,6.413261294E-1,-1.021042690E-1,2.956297696E-1
1.848609739E0,6.114981174E-1,-1.063652709E-1,2.626067698E-1
1.851125833E0,5.731490850E-1,-1.063652709E-1,2.295827717E-1
1.853641927E0,5.369300842E-1,-9.997427464E-2,1.944297701E-1
1.856253698E0,5.028421283E-1,-7.973427325E-2,1.582107693E-1
1.858769792E0,4.655581415E-1,-5.523326620E-2,1.219917685E-1
1.861285885E0,4.272091389E-1,-3.179726750E-2,8.470777422E-2
1.863801979E0,3.877941370E-1,-1.971268561E-3,4.635876790E-2
1.866318125E0,3.483791351E-1,2.359573171E-2,1.013976894E-2
1.868834219E0,3.089651465E-1,4.703073204E-2,-2.288223244E-2
1.871350312E0,2.684851289E-1,7.366272807E-2,-5.910123140E-2
1.873866406E0,2.301351279E-1,9.496773034E-2,-9.318923205E-2
1.876382500E0,2.003081292E-1,1.130767316E-1,-1.283432245E-1
1.878898594E0,1.672851294E-1,1.258597225E-1,-1.666922271E-1
1.881414687E0,1.385231316E-1,1.322517246E-1,-2.018462270E-1
1.883930781E0,1.129571274E-1,1.354477257E-1,-2.348692268E-1
1.886547083E0,9.484712780E-2,1.354477257E-1,-2.678922415E-1
1.889063177E0,7.886812836E-2,1.333167255E-1,-2.934582233E-1
1.891579271E0,6.502012908E-2,1.247947216E-1,-3.211552203E-1
1.894095364E0,5.543313175E-2,1.130767316E-1,-3.477862179E-1
1.896611510E0,4.904113337E-2,9.816373140E-2,-3.648312390E-1
1.899127604E0,5.010613427E-2,8.218473196E-2,-3.808102310E-1
1.901643646E0,4.904113337E-2,6.727072597E-2,-3.967882395E-1
1.904159792E0,4.797613248E-2,5.661873147E-2,-4.074412286E-1
1.906675885E0,4.691113159E-2,5.022673309E-2,-4.159632325E-1
1.909191979E0,4.797613248E-2,4.170473292E-2,-4.212892354E-1
1.911708073E0,5.223713070E-2,3.318273276E-2,-4.223552346E-1
1.914224167E0,4.904113337E-2,2.785673365E-2,-4.170282185E-1
1.916841250E0,4.904113337E-2,2.146473154E-2,-4.042452276E-1
1.919357344E0,4.478013143E-2,2.039973065E-2,-3.903972208E-1
1.921873437E0,4.478013143E-2,2.679073066E-2,-3.765492141E-1
1.924389531E0,3.945413232E-2,4.916173220E-2,-3.627002239E-1
1.926905677E0,2.560513094E-2,8.431472629E-2,-3.531132340E-1
1.929421771E0,1.282213163E-2,1.322517246E-1,-3.424602151E-1
1.931937812E0,-7.416869048E-3,1.929717362E-1,-3.328732252E-1
1.934453958E0,-3.298286721E-2,2.611487210E-1,-3.275472224E-1
1.936970052E0,-6.280986965E-2,3.314557374E-1,-3.179592192E-1
1.939486146E0,-1.011588722E-1,3.921747208E-1,-3.041112423E-1
1.942002239E0,-1.427048743E-1,4.390467405E-1,-2.870672345E-1
1.944518333E0,-1.895758659E-1,4.678087234E-1,-2.678922415E-1
1.947165312E0,-2.385778725E-1,4.773957431E-1,-2.391302288E-1
1.949681406E0,-2.950368524E-1,4.688737392E-1,-2.061072290E-1
1.952197500E0,-3.536258638E-1,4.454377294E-1,-1.720192283E-1
1.954713594E0,-4.186068475E-1,4.145457149E-1,-1.272782236E-1
1.957229687E0,-4.899788499E-1,3.868487179E-1,-8.999422938E-2
1.959745781E0,-5.645478964E-1,3.687397242E-1,-5.590523034E-2
1.962261875E0,-6.401808858E-1,3.666087389E-1,-1.862123236E-2
1.964778021E0,-7.222058773E-1,3.751307428E-1,1.440076809E-2
1.967294114E0,-8.074268699E-1,3.985667229E-1,3.464076668E-2
1.969810208E0,-8.979738951E-1,4.390467405E-1,4.955476895E-2
1.972326302E0,-9.927818775E-1,4.869837165E-1,5.701076612E-2
1.974842396E0,-1.087589860E0,5.434417725E-1,5.594576895E-2
1.977453125E0,-1.180267811E0,6.062927842E-1,4.103176668E-2
1.979969219E0,-1.271879792E0,6.755347848E-1,2.185776830E-2
1.982485312E0,-1.361361861E0,7.575597763E-1,-5.838231184E-3
1.985001406E0,-1.450843811E0,8.555637598E-1,-4.312223196E-2
1.987517500E0,-1.537129879E0,9.546327591E-1,-8.679822832E-2
1.990033594E0,-1.613828778E0,1.033461690E0,-1.539092213E-1
1.992549687E0,-1.686265826E0,1.111225724E0,-2.295432240E-1
1.995065833E0,-1.755507827E0,1.191119671E0,-3.190242350E-1
1.997581927E0,-1.819423795E0,1.260361671E0,-4.223552346E-1
2.000098021E0,-1.873751879E0,1.326408744E0,-5.299462080E-1
2.002614114E0,-1.919557810E0,1.387127757E0,-6.428642273E-1
2.005130208E0,-1.962168813E0,1.423346758E0,-7.611072063E-1
2.007710000E0,-1.995191813E0,1.441456676E0,-8.740252256E-1
2.010226094E0,-2.022888899E0,1.433999658E0,-9.794862270E-1
2.012742187E0,-2.035671949E0,1.399910688E0,-1.078555226E0
2.015258281E0,-2.044193983E0,1.341321707E0,-1.169102192E0
2.017774427E0,-2.047389030E0,1.258231640E0,-1.246866226E0
2.020290521E0,-2.038866997E0,1.145313740E0,-1.307586193E0
2.022806614E0,-2.020757914E0,1.005764723E0,-1.350196242E0
2.025322708E0,-1.995191813E0,8.470417857E-1,-1.377893209E0
2.027838802E0,-1.967494845E0,6.755347848E-1,-1.389611244E0
2.030354896E0,-1.942993879E0,4.933747351E-1,-1.387480259E0
2.032870989E0,-1.920623779E0,3.218677342E-1,-1.373632193E0
2.035387083E0,-1.899317861E0,1.535567343E-1,-1.348066211E0
2.038036614E0,-1.881208777E0,-5.166268442E-3,-1.321434259E0
2.040552708E0,-1.864164829E0,-1.532372683E-1,-1.287346244E0
2.043068802E0,-1.853511810E0,-2.863942683E-1,-1.251127243E0
2.045584896E0,-1.849250793E0,-4.099642634E-1,-1.217039227E0
2.048100989E0,-1.849250793E0,-5.239472389E-1,-1.184016228E0
2.050617083E0,-1.855642796E0,-6.304732561E-1,-1.149927258E0
2.053133177E0,-1.868425846E0,-7.274122238E-1,-1.123296261E0
2.055649323E0,-1.889730811E0,-8.105022311E-1,-1.096664190E0
2.058165417E0,-1.916362882E0,-8.733522296E-1,-1.071098208E0
2.060681510E0,-1.946189880E0,-9.159632325E-1,-1.043401241E0
2.063197604E0,-1.986669779E0,-9.351372123E-1,-1.013574243E0
2.065713698E0,-2.028214931E0,-9.266152382E-1,-9.816161990E-1
2.068278698E0,-2.069759846E0,-8.957232237E-1,-9.475282431E-1
2.070796354E0,-2.115566015E0,-8.435252309E-1,-9.059832096E-1
2.073314062E0,-2.164567947E0,-7.742832303E-1,-8.537852168E-1
2.075831719E0,-2.217830896E0,-6.922582388E-1,-7.920002341E-1
2.078349427E0,-2.276419878E0,-5.910592675E-1,-7.248892188E-1
2.080867083E0,-2.337139845E0,-4.717492759E-1,-6.460592151E-1
2.083384792E0,-2.404252052E0,-3.300702572E-1,-5.608382225E-1
2.085902448E0,-2.475623846E0,-1.724112779E-1,-4.670962393E-1
2.088420104E0,-2.548061848E0,-9.052683599E-4,-3.658962250E-1
2.090937812E0,-2.620498896E0,1.706007272E-1,-2.593702376E-1
2.093455469E0,-2.696132898E0,3.367817402E-1,-1.496482342E-1
2.095973177E0,-2.763243914E0,4.923097193E-1,-4.205723107E-2
2.098616719E0,-2.821833849E0,6.403807402E-1,6.659877300E-2
2.101134375E0,-2.879358053E0,7.682117820E-1,1.709937751E-1
2.103652083E0,-2.921967983E0,8.832597733E-1,2.753897607E-1
2.106169739E0,-2.952859879E0,9.801987410E-1,3.808497787E-1
2.108687448E0,-2.975230932E0,1.061158657E0,4.809847772E-1
2.111205104E0,-2.994405985E0,1.131465673E0,5.821847916E-1
2.113722812E0,-2.999732018E0,1.181532741E0,6.791227460E-1
2.116240469E0,-2.997601032E0,1.218816757E0,7.664737701E-1
2.118758177E0,-2.993340015E0,1.239056706E0,8.516947627E-1
2.121275833E0,-2.975230932E0,1.249709725E0,9.251977801E-1
2.123793542E0,-2.951794863E0,1.248644710E0,9.923097491E-1
2.126311198E0,-2.920902967E0,1.239056706E0,1.042376757E0
2.128897760E0,-2.881487846E0,1.224143744E0,1.080725789E0
2.131415417E0,-2.838877916E0,1.199642658E0,1.104161739E0
2.133933125E0,-2.782418966E0,1.174075723E0,1.113748789E0
2.136450781E0,-2.722764015E0,1.150640726E0,1.107357740E0
2.138968489E0,-2.659914017E0,1.125073671E0,1.087117791E0
2.141486146E0,-2.594933033E0,1.094181657E0,1.050898790E0
2.144003854E0,-2.523561001E0,1.054766655E0,1.000831723E0
2.146521510E0,-2.452188015E0,1.010025740E0,9.347857833E-1
2.149039219E0,-2.375489950E0,9.599587321E-1,8.463687897E-1
2.151556875E0,-2.291333914E0,9.066957831E-1,7.366467714E-1
2.154074583E0,-2.202916861E0,8.523677588E-1,6.024237871E-1
2.156592239E0,-2.116631031E0,7.884517312E-1,4.458307624E-1
2.159165573E0,-2.029279947E0,7.138837576E-1,2.881727815E-1
2.161683229E0,-1.947254777E0,6.244017482E-1,1.326447725E-1
2.164200937E0,-1.860968828E0,5.200067759E-1,-1.116423123E-2
2.166718594E0,-1.775747776E0,4.038927257E-1,-1.475182325E-1
2.169236302E0,-1.692657828E0,2.920407355E-1,-2.636312246E-1
2.171754010E0,-1.608501792E0,1.716667265E-1,-3.776142299E-1
2.174271667E0,-1.512628794E0,4.276973382E-2,-4.905312359E-1
2.176789323E0,-1.405037880E0,-8.506026864E-2,-5.885352492E-1
2.179307031E0,-1.288923860E0,-2.182182670E-1,-6.769522429E-1
2.181824687E0,-1.163223863E0,-3.407222629E-1,-7.632382512E-1
2.184342396E0,-1.037522793E0,-4.515092671E-1,-8.420672417E-1
2.186860052E0,-9.139528871E-1,-5.537742376E-1,-9.113092422E-1
2.189489114E0,-7.946438789E-1,-6.251472235E-1,-9.688332081E-1
2.192006771E0,-6.827908754E-1,-6.741492152E-1,-1.016770244E0
2.194524479E0,-5.815919042E-1,-6.943892241E-1,-1.050858259E0
2.197042135E0,-4.835878611E-1,-6.858672500E-1,-1.073229194E0
2.199559844E0,-3.973018527E-1,-6.571052670E-1,-1.083881259E0
2.202077500E0,-3.131458461E-1,-6.091682315E-1,-1.079620242E0
2.204595208E0,-2.364468724E-1,-5.505792499E-1,-1.068968177E0
2.207112864E0,-1.661398709E-1,-4.760102630E-1,-1.049793243E0
2.209630573E0,-9.157186747E-2,-3.907902837E-1,-1.021031260E0
2.212148229E0,-2.446086891E-2,-2.938512564E-1,-9.869422317E-1
2.214665937E0,3.625813127E-2,-1.894552708E-1,-9.485931993E-1
2.217183594E0,9.271712601E-2,-8.506026864E-2,-9.113092422E-1
2.219746875E0,1.438491344E-1,1.613873243E-2,-8.655032516E-1
2.222264531E0,1.843291223E-1,1.162727252E-1,-8.175662160E-1
2.224782239E0,2.141571343E-1,2.142767310E-1,-7.643032074E-1
2.227299896E0,2.397231311E-1,3.112157285E-1,-7.089102268E-1
2.229817604E0,2.567671537E-1,4.028277397E-1,-6.492552161E-1
2.232335260E0,2.716811299E-1,4.955057204E-1,-5.896012187E-1
2.234852969E0,2.802031338E-1,5.903137326E-1,-5.288812518E-1
2.237370625E0,2.802031338E-1,6.808607578E-1,-4.639002383E-1
2.239888281E0,2.780721486E-1,7.660817504E-1,-3.946582377E-1
2.242405989E0,2.695501447E-1,8.417147398E-1,-3.254162371E-1
2.244923646E0,2.599631548E-1,9.141527414E-1,-2.540442348E-1
2.247441354E0,2.439841330E-1,9.812637568E-1,-1.784102321E-1
2.250037031E0,2.280051261E-1,1.035592675E0,-1.027772278E-1
2.252554687E0,2.109611332E-1,1.081398726E0,-3.247023001E-2
2.255072396E0,1.939171255E-1,1.118682742E0,4.103176668E-2
2.257590052E0,1.726111323E-1,1.150640726E0,1.060127690E-1
2.260107760E0,1.513061225E-1,1.167684674E0,1.731247753E-1
2.262625417E0,1.353271306E-1,1.175141692E0,2.413007766E-1
2.265143125E0,1.150871292E-1,1.167684674E0,2.988247573E-1
2.267660781E0,9.591312706E-2,1.145313740E0,3.563487828E-1
2.270178437E0,8.206412941E-2,1.105899692E0,4.160037637E-1
2.272696146E0,6.715112925E-2,1.056897640E0,4.724627733E-1
2.275213802E0,5.223713070E-2,9.961777329E-1,5.246597528E-1
2.277731510E0,4.265013337E-2,9.237397313E-1,5.757927895E-1
2.280328073E0,3.306213394E-2,8.331927657E-1,6.205337644E-1
2.282845729E0,2.667113021E-2,7.405157685E-1,6.620787978E-1
2.285363437E0,2.560513094E-2,6.414457560E-1,6.993627548E-1
2.287881094E0,2.880113013E-2,5.370507836E-1,7.313207984E-1
2.290398802E0,3.199713305E-2,4.358507395E-1,7.558217645E-1
2.292916458E0,4.051913321E-2,3.410427272E-1,7.771267891E-1
2.295434167E0,5.756313354E-2,2.504957318E-1,7.899097800E-1
2.297951823E0,7.247713208E-2,1.684707254E-1,7.994977832E-1
2.300469479E0,9.271712601E-2,9.177172929E-2,7.994977832E-1
2.302987187E0,1.204141304E-1,2.146473154E-2,7.963017821E-1
2.305504896E0,1.523711234E-1,-4.884126782E-2,7.877797484E-1
2.308022552E0,1.875251234E-1,-1.116922721E-1,7.760617733E-1
2.310619479E0,2.312011272E-1,-1.649552733E-1,7.664737701E-1
2.313137135E0,2.812681496E-1,-2.065002769E-1,7.579517961E-1
2.315654844E0,3.313351572E-1,-2.405882776E-1,7.409077883E-1
2.318172500E0,3.899241388E-1,-2.608282566E-1,7.313207984E-1
2.320690208E0,4.506441355E-1,-2.725462615E-1,7.217337489E-1
2.323207864E0,5.156251192E-1,-2.661542594E-1,7.142767906E-1
2.325725573E0,5.869981050E-1,-2.427182645E-1,7.089497447E-1
2.328243229E0,6.573051214E-1,-2.054342777E-1,7.078847885E-1
2.330760885E0,7.297421098E-1,-1.479102671E-1,6.993627548E-1
2.333278594E0,8.043110967E-1,-7.334227115E-2,6.929717660E-1
2.335796250E0,8.788791299E-1,1.507273223E-2,6.855147481E-1
2.338313958E0,9.523820877E-1,1.194687262E-1,6.780577898E-1
2.340944739E0,1.026950121E0,2.398427278E-1,6.706007719E-1
2.343462396E0,1.100453138E0,3.698047400E-1,6.610137820E-1
2.345980104E0,1.175021172E0,5.114847422E-1,6.450347900E-1
2.348497760E0,1.244263172E0,6.552947760E-1,6.269247532E-1
2.351015469E0,1.310309172E0,8.076267838E-1,6.002937555E-1
2.353533125E0,1.377420187E0,9.663507342E-1,5.736617446E-1
2.356050833E0,1.442401171E0,1.135726690E0,5.491607785E-1
2.358568489E0,1.504186153E0,1.308298707E0,5.203987956E-1
2.361086198E0,1.563841224E0,1.486197710E0,4.937677681E-1
2.363603854E0,1.616039157E0,1.661964655E0,4.724627733E-1
2.366121562E0,1.674628139E0,1.833471656E0,4.554187655E-1
2.368639219E0,1.731087208E0,1.998587608E0,4.447657764E-1
2.371200364E0,1.780089140E0,2.161571741E0,4.351787865E-1
2.373718021E0,1.824830174E0,2.317099810E0,4.277217686E-1
2.376235729E0,1.869571209E0,2.456648588E0,4.202647805E-1
2.378753385E0,1.906855226E0,2.572762728E0,4.213297665E-1
2.381271094E0,1.942008138E0,2.664374590E0,4.255907834E-1
2.383788750E0,1.971836209E0,2.727224588E0,4.394397736E-1
2.386306458E0,1.993141174E0,2.767704725E0,4.586137831E-1
2.388824114E0,2.006989002E0,2.779422760E0,4.841807783E-1
2.391341771E0,2.010185003E0,2.759182692E0,5.086817741E-1
2.393859479E0,2.012315035E0,2.705919743E0,5.363777876E-1
2.396377135E0,2.006989002E0,2.624959707E0,5.651397705E-1
2.398894844E0,1.998467207E0,2.522694588E0,5.885757804E-1
2.401489896E0,1.986749172E0,2.401255608E0,6.141417623E-1
2.404007552E0,1.969705224E0,2.270228624E0,6.269247532E-1
2.406525260E0,1.943073153E0,2.129614592E0,6.365127563E-1
2.409042917E0,1.912181139E0,1.982608676E0,6.397087574E-1
2.411560625E0,1.878093123E0,1.832406640E0,6.279907823E-1
2.414078281E0,1.831221223E0,1.687531710E0,6.066847444E-1
2.416595989E0,1.774762154E0,1.538394690E0,5.662057996E-1
2.419113646E0,1.709782124E0,1.392454743E0,5.044207573E-1
2.421631302E0,1.633083224E0,1.243317723E0,4.266567826E-1
2.424149010E0,1.540405154E0,1.097377658E0,3.350437582E-1
2.426666667E0,1.428553224E0,9.471757412E-1,2.306487709E-1
2.429184375E0,1.300722122E0,7.980397344E-1,1.219917685E-1
2.431779896E0,1.160107136E0,6.478377581E-1,6.943768822E-3
2.434297604E0,1.003514171E0,5.029627681E-1,-1.102342308E-1
2.436815260E0,8.362681270E-1,3.591517210E-1,-2.295432240E-1
2.439332917E0,6.615661383E-1,2.142767310E-1,-3.350032270E-1
2.441850625E0,4.815371335E-1,6.833572686E-2,-4.234202206E-1
2.444368281E0,2.993771434E-1,-7.866827399E-2,-4.937272370E-1
2.446885989E0,1.108261272E-1,-2.278052717E-1,-5.469902158E-1
2.449403646E0,-7.346287370E-2,-3.684192598E-1,-5.736222267E-1
2.451921354E0,-2.534918487E-1,-5.047722459E-1,-5.768172145E-1
2.454439010E0,-4.260638654E-1,-6.368652582E-1,-5.640342236E-1
2.456956719E0,-5.922439098E-1,-7.689572573E-1,-5.310112238E-1
2.459474375E0,-7.349888682E-1,-8.978532553E-1,-4.830752313E-1
2.462105781E0,-8.660159111E-1,-1.023554325E0,-4.223552346E-1
2.464623437E0,-9.778679013E-1,-1.149255276E0,-3.563092351E-1
2.467141146E0,-1.071610808E0,-1.273890257E0,-2.902622223E-1
2.469658802E0,-1.141917825E0,-1.397460341E0,-2.210212350E-1
2.472176510E0,-1.202637792E0,-1.510378242E0,-1.432572305E-1
2.474694167E0,-1.245248795E0,-1.609447360E0,-7.508023083E-2
2.477211875E0,-1.275075793E0,-1.685081244E0,-1.755623147E-2
2.479729531E0,-1.293184876E0,-1.738344312E0,3.783676773E-2
2.482247239E0,-1.301706791E0,-1.766040325E0,8.470777422E-2
2.484764896E0,-1.302772880E0,-1.771367311E0,1.262527704E-1
2.487282604E0,-1.294250846E0,-1.745800257E0,1.603417695E-1
2.489800312E0,-1.280401826E0,-1.687211275E0,1.827117652E-1
2.492399583E0,-1.263357878E0,-1.608382344E0,1.997557729E-1
2.494917239E0,-1.250574827E0,-1.503986359E0,2.061477751E-1
2.497434948E0,-1.236726880E0,-1.374025345E0,1.986907721E-1
2.499952604E0,-1.223943830E0,-1.204648256E0,1.859077662E-1
2.502470312E0,-1.219681859E0,-1.004379272E0,1.571457684E-1
2.504987969E0,-1.219681859E0,-7.678922415E-1,1.166657731E-1
2.507505677E0,-1.225008845E0,-5.111642480E-1,6.553277373E-2
2.510023333E0,-1.231399775E0,-2.459142655E-1,3.747768700E-3
2.512541042E0,-1.243117809E0,8.681731299E-3,-7.081922889E-2
2.515058698E0,-1.255900860E0,2.377127260E-1,-1.411262304E-1
2.517576406E0,-1.271879792E0,4.358507395E-1,-2.146292329E-1
2.520094062E0,-1.288923860E0,5.935097337E-1,-2.860012352E-1
2.522655469E0,-1.308098793E0,7.096227407E-1,-3.424602151E-1
2.525173125E0,-1.331534863E0,8.118877411E-1,-3.882662356E-1
2.527690833E0,-1.354969859E0,9.088267684E-1,-4.159632325E-1
2.530208489E0,-1.374144793E0,9.983077645E-1,-4.351382256E-1
2.532726198E0,-1.394384861E0,1.070745707E0,-4.404642284E-1
2.535243854E0,-1.413559794E0,1.132530689E0,-4.393992424E-1
2.537761562E0,-1.428472877E0,1.187924743E0,-4.319422245E-1
2.540279219E0,-1.442321777E0,1.233730674E0,-4.223552346E-1
2.542796875E0,-1.448712826E0,1.265688658E0,-4.063762426E-1
2.545314583E0,-1.447647810E0,1.285928726E0,-3.946582377E-1
2.547832239E0,-1.436995864E0,1.290189743E0,-3.808102310E-1
2.550349948E0,-1.414624810E0,1.271014690E0,-3.712222278E-1
2.552979896E0,-1.379470825E0,1.231599689E0,-3.573742211E-1
2.555497552E0,-1.337925792E0,1.175141692E0,-3.371342421E-1
2.558015260E0,-1.287858844E0,1.106964707E0,-3.083722293E-1
2.560532917E0,-1.230334878E0,1.032396674E0,-2.774792314E-1
2.563050625E0,-1.163223863E0,9.620897770E-1,-2.401952296E-1
2.565568281E0,-1.091850877E0,9.013697505E-1,-2.007812262E-1
2.568085989E0,-1.013021827E0,8.481067419E-1,-1.549742222E-1
2.570603646E0,-9.309968948E-1,8.044307828E-1,-1.049072295E-1
2.573121354E0,-8.404498696E-1,7.650157809E-1,-4.738323390E-2
2.575639010E0,-7.445768714E-1,7.319927812E-1,2.079176717E-2
2.578156719E0,-6.369848847E-1,6.936437488E-1,9.003376961E-2
2.580674375E0,-5.166108608E-1,6.510337591E-1,1.646027714E-1
2.583272083E0,-3.919748664E-1,6.126837730E-1,2.317137718E-1
2.585791146E0,-2.609478533E-1,5.796607733E-1,2.977597713E-1
2.588310156E0,-1.245948747E-1,5.519637465E-1,3.563487828E-1
2.590829219E0,1.388813183E-2,5.274637341E-1,4.106777608E-1
2.593348281E0,1.459801346E-1,5.157457590E-1,4.554187655E-1
2.595867292E0,2.759421468E-1,5.104187727E-1,4.852457643E-1
2.598386354E0,4.037731290E-1,5.136147738E-1,5.097467899E-1
2.600905364E0,5.284081101E-1,5.253327489E-1,5.246597528E-1
2.603424427E0,6.434561014E-1,5.466377735E-1,5.321167707E-1
2.605943437E0,7.467871308E-1,5.785957575E-1,5.310517550E-1
2.608462500E0,8.437250853E-1,6.094887853E-1,5.257257819E-1
2.610981562E0,9.289461374E-1,6.457067728E-1,5.161377788E-1
2.613564635E0,1.002449155E0,6.819257736E-1,5.033547878E-1
2.616083698E0,1.066365123E0,7.074917555E-1,4.809847772E-1
2.618602708E0,1.128150225E0,7.415807843E-1,4.596797824E-1
2.621121771E0,1.184608221E0,7.650157809E-1,4.373087585E-1
2.623640833E0,1.242132187E0,7.777997851E-1,4.117427766E-1
2.626159844E0,1.298591137E0,7.820607424E-1,3.744587600E-1
2.628678906E0,1.349724174E0,7.703427672E-1,3.222607672E-1
2.631197917E0,1.408313155E0,7.351887822E-1,2.594107687E-1
2.633716979E0,1.466902137E0,6.627517343E-1,1.922987700E-1
2.636235989E0,1.522296190E0,5.455727577E-1,1.156007722E-1
2.638755052E0,1.579820156E0,3.889797330E-1,4.209776968E-2
2.641274114E0,1.637344122E0,1.919067353E-1,-3.673123196E-2
2.643853437E0,1.688476205E0,-3.925426677E-2,-1.112992316E-1
2.646372500E0,1.731087208E0,-2.938512564E-1,-1.901282221E-1
2.648891510E0,1.764110208E0,-5.729492307E-1,-2.646962404E-1
2.651410573E0,1.788611174E0,-8.563082218E-1,-3.477862179E-1
2.653929635E0,1.805655122E0,-1.132211328E0,-4.319422245E-1
2.656448646E0,1.809916139E0,-1.392134309E0,-5.214242339E-1
2.658967708E0,1.797133207E0,-1.617969275E0,-6.151672006E-1
2.661486719E0,1.780089140E0,-1.806520343E0,-7.089102268E-1
2.664005781E0,1.748131156E0,-1.955657244E0,-7.983912230E-1
2.666524792E0,1.700194120E0,-2.058987379E0,-8.729602098E-1
2.669043854E0,1.646931171E0,-2.138881207E0,-9.251572490E-1
2.671562917E0,1.584081173E0,-2.191079378E0,-9.560502172E-1
2.674143698E0,1.510578156E0,-2.223037243E0,-9.709642529E-1
2.676662760E0,1.428553224E0,-2.246473312E0,-9.762902260E-1
2.679181771E0,1.340136170E0,-2.265647411E0,-9.730942249E-1
2.681700833E0,1.244263172E0,-2.279496193E0,-9.592462182E-1
2.684219896E0,1.152651191E0,-2.292279243E0,-9.315492511E-1
2.686738906E0,1.059973121E0,-2.295475245E0,-8.942652345E-1
2.689257969E0,9.651651382E-1,-2.289083242E0,-8.378062248E-1
2.691776979E0,8.756831288E-1,-2.273104191E0,-7.611072063E-1
2.694296042E0,7.883321047E-1,-2.249668360E0,-6.641692519E-1
2.696815052E0,7.020460963E-1,-2.215580225E0,-5.448602438E-1
2.699334114E0,6.221511364E-1,-2.164448261E0,-4.074412286E-1
2.701853125E0,5.486481190E-1,-2.106923342E0,-2.551092207E-1
2.704435885E0,4.921891391E-1,-2.044073343E0,-1.006462276E-1
2.706954948E0,4.570361376E-1,-1.978027344E0,5.488076806E-2
2.709473958E0,4.559711516E-1,-1.925829291E0,2.008207738E-1
2.711993021E0,4.794061482E-1,-1.884284258E0,3.190647662E-1
2.714512083E0,5.177561045E-1,-1.852326274E0,4.170687795E-1
2.717031094E0,5.699531436E-1,-1.828891277E0,4.948327839E-1
2.719550156E0,6.274771094E-1,-1.823564291E0,5.470307469E-1
2.722069167E0,6.956540942E-1,-1.824630260E0,5.800537467E-1
2.724588229E0,7.702221274E-1,-1.839543343E0,5.949677825E-1
2.727107239E0,8.437250853E-1,-1.867240310E0,5.917717814E-1
2.729626302E0,9.087061286E-1,-1.905589342E0,5.747277737E-1
2.732145364E0,9.619691372E-1,-1.950330257E0,5.459657907E-1
2.734696458E0,1.004579186E0,-1.997202277E0,5.086817741E-1
2.737215521E0,1.033341169E0,-2.054726362E0,4.682017863E-1
2.739734583E0,1.050386190E0,-2.113315344E0,4.341127574E-1
2.742253594E0,1.047190189E0,-2.172970295E0,3.968287706E-1
2.744772656E0,1.032276154E0,-2.230494261E0,3.616757691E-1
2.747291667E0,1.000318170E0,-2.291213274E0,3.350437582E-1
2.749810729E0,9.587731361E-1,-2.354064226E0,3.094777763E-1
2.752329792E0,9.150981307E-1,-2.408392191E0,2.828457654E-1
2.754848802E0,8.629001379E-1,-2.448872328E0,2.583447695E-1
2.757367864E0,8.085721135E-1,-2.489352226E0,2.327787727E-1
2.759886875E0,7.542431355E-1,-2.522375345E0,2.061477751E-1
2.762405937E0,7.041761279E-1,-2.543680191E0,1.805807650E-1
2.764986406E0,6.636961102E-1,-2.552202225E0,1.539497674E-1
2.767505469E0,6.338691115E-1,-2.542615414E0,1.262527704E-1
2.770024531E0,6.136291027E-1,-2.520244360E0,9.962177277E-2
2.772543542E0,6.072371006E-1,-2.477634192E0,7.405477017E-2
2.775062604E0,6.157600880E-1,-2.416914225E0,4.955476895E-2
2.777581614E0,6.381301284E-1,-2.337020397E0,2.931476757E-2
2.780100677E0,6.732841134E-1,-2.237950325E0,8.008768782E-3
2.782619739E0,7.169591188E-1,-2.133555412E0,-4.773231223E-3
2.785138750E0,7.723531127E-1,-2.024898291E0,-1.009923127E-2
2.787657812E0,8.341380954E-1,-1.903459311E0,-7.969231345E-3
2.790176823E0,8.980531096E-1,-1.777758360E0,-1.578231342E-3
2.792695885E0,9.704911113E-1,-1.641405344E0,1.440076809E-2
2.795274948E0,1.050386190E0,-1.508247256E0,3.144476935E-2
2.797794010E0,1.130280137E0,-1.382547259E0,5.168476701E-2
2.800313073E0,1.204848170E0,-1.270694256E0,7.831677049E-2
2.802832083E0,1.276221156E0,-1.171625257E0,1.145347729E-1
2.805351146E0,1.346528172E0,-1.092796326E0,1.582107693E-1
2.807870156E0,1.406182170E0,-1.042729259E0,2.018867731E-1
2.810389219E0,1.463706136E0,-1.022489309E0,2.487577796E-1
2.812908281E0,1.513774157E0,-9.766832590E-1,2.977597713E-1
2.815427292E0,1.559580207E0,-9.298112392E-1,3.478267789E-1
2.817946354E0,1.601125121E0,-8.914622664E-1,4.032207727E-1
2.820465364E0,1.640540123E0,-8.552432656E-1,4.564837813E-1
2.822984427E0,1.682085156E0,-8.254162669E-1,5.076157451E-1
2.825565260E0,1.714043140E0,-7.945232391E-1,5.640747547E-1
2.828084323E0,1.742805123E0,-7.646962404E-1,6.184027791E-1
2.830603385E0,1.773697138E0,-7.338032126E-1,6.674047709E-1
2.833122396E0,1.803524137E0,-7.050412297E-1,7.174727917E-1
2.835641458E0,1.824830174E0,-6.688222289E-1,7.654087543E-1
2.838160469E0,1.847200155E0,-6.283432245E-1,8.058887720E-1
2.840679531E0,1.868505120E0,-5.889282227E-1,8.442377448E-1
2.843198594E0,1.885549188E0,-5.356652141E-1,8.793917894E-1
2.845717604E0,1.905789137E0,-4.834672809E-1,9.124147892E-1
2.848236614E0,1.928160191E0,-4.312702715E-1,9.411767721E-1
2.850755677E0,1.950530171E0,-3.748112619E-1,9.614167809E-1
2.853274739E0,1.975031137E0,-3.130262792E-1,9.827217460E-1
2.855856302E0,2.000597954E0,-2.576322854E-1,1.005092740E0
2.858375364E0,2.024033070E0,-2.001082748E-1,1.018940806E0
2.860894427E0,2.048534155E0,-1.436492652E-1,1.028527737E0
2.863413437E0,2.075165987E0,-8.825626969E-2,1.034919739E0
2.865932500E0,2.107124090E0,-3.499326855E-2,1.035984755E0
2.868451510E0,2.134819984E0,1.507273223E-2,1.031723738E0
2.870970573E0,2.164648056E0,6.620572507E-2,1.020005822E0
2.873489635E0,2.195539951E0,1.130767316E-1,1.005092740E0
2.876008646E0,2.220041037E0,1.567527354E-1,9.859177470E-1
2.878527708E0,2.244542122E0,2.025587261E-1,9.603517652E-1
2.881046719E0,2.262650967E0,2.504957318E-1,9.326547980E-1
2.883565781E0,2.276499987E0,2.856487334E-1,9.017627835E-1
2.886144219E0,2.285022020E0,3.080197275E-1,8.666087985E-1
2.888663281E0,2.287152052E0,3.122807145E-1,8.261287808E-1
2.891182344E0,2.288218021E0,3.037587404E-1,7.824527621E-1
2.893701354E0,2.287152052E0,2.803227305E-1,7.377117872E-1
2.896220417E0,2.281826019E0,2.377127260E-1,6.982977986E-1
2.898739427E0,2.272238970E0,1.759277284E-1,6.652747989E-1
2.901258489E0,2.253064156E0,9.390272945E-2,6.279907823E-1
2.903777552E0,2.225367069E0,-7.296268363E-3,5.896407962E-1
2.906296562E0,2.193410158E0,-1.276702732E-1,5.534217954E-1
2.908815625E0,2.153995037E0,-2.608282566E-1,5.150727630E-1
2.911334635E0,2.101797104E0,-4.025072753E-1,4.767237604E-1
2.913853698E0,2.042143106E0,-5.441872478E-1,4.341127574E-1
2.916437708E0,1.973966122E0,-6.826712489E-1,3.872417808E-1
2.918956771E0,1.901528120E0,-8.115672469E-1,3.297177851E-1
2.921475833E0,1.817373157E0,-9.308762550E-1,2.679327726E-1
2.923994844E0,1.721499205E0,-1.046990275E0,1.912337691E-1
2.926513906E0,1.621365190E0,-1.162038326E0,1.049477682E-1
2.929032917E0,1.514839172E0,-1.271760345E0,1.546576899E-2
2.931551979E0,1.401921153E0,-1.375090241E0,-7.827623188E-2
2.934071042E0,1.287939191E0,-1.463506341E0,-1.837362349E-1
2.936590052E0,1.171825171E0,-1.535944343E0,-2.923932374E-1
2.939109114E0,1.052516222E0,-1.590272307E0,-3.967882395E-1
2.941628125E0,9.332070947E-1,-1.608382344E0,-4.969232380E-1
2.944147187E0,8.160281181E-1,-1.593468308E0,-5.864052176E-1
2.946730833E0,6.977851391E-1,-1.554054260E0,-6.705602407E-1
2.949249896E0,5.891281366E-1,-1.476290345E0,-7.408672571E-1
2.951768958E0,4.783411324E-1,-1.378286242E0,-8.037182093E-1
2.954287969E0,3.718151450E-1,-1.251520276E0,-8.580462337E-1
2.956807031E0,2.642241418E-1,-1.114101291E0,-9.049172401E-1
2.959326042E0,1.576981246E-1,-9.681612253E-1,-9.347452521E-1
2.961845104E0,5.862913281E-2,-8.179592490E-1,-9.485931993E-1
2.964364167E0,-3.617886826E-2,-6.634962559E-1,-9.539192319E-1
2.966883177E0,-1.192688718E-1,-5.047722459E-1,-9.549852014E-1
2.969402239E0,-1.927718669E-1,-3.407222629E-1,-9.464632273E-1
2.971921250E0,-2.545568645E-1,-1.756072640E-1,-9.294182062E-1
2.974440312E0,-3.014278710E-1,-1.368826814E-2,-9.070482254E-1
2.977019687E0,-3.312558532E-1,1.429047287E-1,-8.846782446E-1
2.979538750E0,-3.557568491E-1,2.803227305E-1,-8.548502326E-1
2.982057812E0,-3.738658428E-1,3.943057358E-1,-8.165012002E-1
2.984576823E0,-3.823878467E-1,4.965707362E-1,-7.770862579E-1
2.987095885E0,-3.845188618E-1,5.839217305E-1,-7.344762087E-1
2.989614896E0,-3.834528625E-1,6.510337591E-1,-6.929312348E-1
2.992133958E0,-3.823878467E-1,6.904477477E-1,-6.471252441E-1
2.994653021E0,-3.770618439E-1,7.042967677E-1,-6.023842096E-1
2.997172031E0,-3.770618439E-1,6.883177757E-1,-5.565772057E-1
2.999691094E0,-3.749308586E-1,6.510337591E-1,-5.086412430E-1
3.002210104E0,-3.770618439E-1,5.967047811E-1,-4.564432204E-1
3.004729167E0,-3.823878467E-1,5.263977647E-1,-4.095722139E-1
3.007310156E0,-3.909098506E-1,4.550257325E-1,-3.733532429E-1
3.009829219E0,-4.068888426E-1,3.772617280E-1,-3.499172330E-1
3.012348281E0,-4.260638654E-1,3.058887422E-1,-3.339382410E-1
3.014867292E0,-4.463038445E-1,2.409087270E-1,-3.243512213E-1
3.017386354E0,-4.718698561E-1,1.706007272E-1,-3.264812231E-1
3.019905364E0,-5.016968846E-1,1.045547277E-1,-3.328732252E-1
3.022424427E0,-5.347198844E-1,3.957373276E-2,-3.445912302E-1
3.024943489E0,-5.698738694E-1,-1.794926822E-2,-3.573742211E-1
3.027462500E0,-6.114189029E-1,-6.908126920E-2,-3.722872138E-1
3.029981562E0,-6.572248936E-1,-1.116922721E-1,-3.840052187E-1
3.032500573E0,-7.136839032E-1,-1.361922771E-1,-3.893322349E-1
3.035019635E0,-7.754688859E-1,-1.425842643E-1,-3.914622366E-1
3.037635052E0,-8.479068875E-1,-1.223442703E-1,-3.893322349E-1
3.040154114E0,-9.267358780E-1,-7.866827399E-2,-3.861362338E-1
3.042673125E0,-1.009825826E0,-1.368826814E-2,-3.797442317E-1
3.045192187E0,-1.093981862E0,7.259672880E-2,-3.776142299E-1
3.047711250E0,-1.182397842E0,1.769927293E-1,-3.797442317E-1
3.050230260E0,-1.280401826E0,2.973667383E-1,-3.914622366E-1
3.052749323E0,-1.382666826E0,4.347857237E-1,-4.042452276E-1
3.055268333E0,-1.489192843E0,5.828567743E-1,-4.276812375E-1
3.057787396E0,-1.597849846E0,7.522327304E-1,-4.553782344E-1
3.060306406E0,-1.705440879E0,9.482407570E-1,-4.852052331E-1
3.062825469E0,-1.809836864E0,1.130400658E0,-5.192932487E-1
3.065344531E0,-1.904644847E0,1.284862757E0,-5.565772057E-1
3.067926927E0,-2.000517845E0,1.442521691E0,-5.970572233E-1
3.070445989E0,-2.089999914E0,1.595918655E0,-6.428642273E-1
3.072965000E0,-2.172024965E0,1.737598658E0,-6.886702180E-1
3.075484062E0,-2.245527983E0,1.873951674E0,-7.355412245E-1
3.078003125E0,-2.313704014E0,2.002848625E0,-7.845432162E-1
3.080522135E0,-2.363771915E0,2.121091604E0,-8.271532059E-1
3.083041198E0,-2.405316830E0,2.232944727E0,-8.708292246E-1
3.085560208E0,-2.439404964E0,2.335209608E0,-9.123742580E-1
3.088079271E0,-2.456449032E0,2.427886724E0,-9.507242441E-1
3.090598281E0,-2.468166828E0,2.499259710E0,-9.848122001E-1
3.093117344E0,-2.473492861E0,2.544000626E0,-1.011443257E0
3.095636406E0,-2.470298052E0,2.556783676E0,-1.025292277E0
3.098220104E0,-2.464970827E0,2.540804625E0,-1.025292277E0
3.100740156E0,-2.457515001E0,2.499259710E0,-1.009313226E0
3.103260260E0,-2.450057983E0,2.442800760E0,-9.880082011E-1
3.105780364E0,-2.447926998E0,2.374623775E0,-9.517892003E-1
3.108300417E0,-2.446861982E0,2.294729710E0,-9.059832096E-1
3.110820521E0,-2.448992968E0,2.211639643E0,-8.516542315E-1
3.113340573E0,-2.453253984E0,2.113635778E0,-7.941302061E-1
3.115860677E0,-2.457515001E0,2.010304689E0,-7.323452234E-1
3.118380781E0,-2.461776018E0,1.899517655E0,-6.748212576E-1
3.120900833E0,-2.471362829E0,1.774882674E0,-6.151672006E-1
3.123420937E0,-2.480949879E0,1.641724706E0,-5.629692078E-1
3.125940989E0,-2.491602898E0,1.496849656E0,-5.224892497E-1
3.128466042E0,-2.503320932E0,1.348778725E0,-4.884012341E-1
3.130986094E0,-2.517168999E0,1.184728742E0,-4.596392214E-1
3.133506198E0,-2.529952049E0,1.016417742E0,-4.340732396E-1
3.136026302E0,-2.543800831E0,8.385187387E-1,-4.117022157E-1
3.138546354E0,-2.556583881E0,6.542287469E-1,-3.914622366E-1
3.141066458E0,-2.564040899E0,4.710047245E-1,-3.712222278E-1
3.143586510E0,-2.578953981E0,2.963017225E-1,-3.499172330E-1
3.146106614E0,-2.591737032E0,1.215987355E-1,-3.275472224E-1
3.148626719E0,-2.603454828E0,-4.031926766E-2,-3.009152412E-1
3.151146771E0,-2.615172863E0,-1.873252690E-1,-2.764142156E-1
3.153666875E0,-2.637543917E0,-3.215482831E-1,-2.465872318E-1
3.156186927E0,-2.664175034E0,-4.216822684E-1,-2.103682309E-1
3.158799114E0,-2.696132898E0,-4.792062640E-1,-1.730842292E-1
3.161319167E0,-2.737678051E0,-4.887942672E-1,-1.294082254E-1
3.163839271E0,-2.789875984E0,-4.344652593E-1,-8.253722638E-2
3.166359375E0,-2.849529982E0,-3.215482831E-1,-2.075223252E-2
3.168879427E0,-2.913445950E0,-1.617592722E-1,4.529276863E-2
3.171399531E0,-2.981622934E0,3.105173260E-2,1.198617741E-1
3.173919583E0,-3.049798965E0,2.377127260E-1,2.072127759E-1
3.176439687E0,-3.110518932E0,4.539607167E-1,3.009557724E-1
3.178959792E0,-3.158455849E0,6.691427827E-1,4.000247717E-1
3.181479844E0,-3.196805000E0,8.704767823E-1,5.012247562E-1
3.183999948E0,-3.222370863E0,1.057962656E0,5.992287993E-1
3.186520000E0,-3.230892897E0,1.220947742E0,6.929717660E-1
3.189078385E0,-3.229827881E0,1.360496640E0,7.803227901E-1
3.191598437E0,-3.210652828E0,1.477674723E0,8.516947627E-1
3.194118542E0,-3.175499916E0,1.566091657E0,9.188067913E-1
3.196638646E0,-3.133955002E0,1.622550726E0,9.763307571E-1
3.199158698E0,-3.077496052E0,1.658769727E0,1.023201823E0
3.201678802E0,-3.012514830E0,1.674748659E0,1.059420824E0
3.204198854E0,-2.942208052E0,1.673682690E0,1.082856774E0
3.206718958E0,-2.862313032E0,1.650247693E0,1.099900723E0
3.209239062E0,-2.784548998E0,1.612962723E0,1.107357740E0
3.211759114E0,-2.702523947E0,1.565026641E0,1.105226755E0
3.214279219E0,-2.613042831E0,1.506436706E0,1.091378808E0
3.216799271E0,-2.519299984E0,1.448912740E0,1.061551809E0
3.219382344E0,-2.427686930E0,1.387127757E0,1.014679790E0
3.221902396E0,-2.335010052E0,1.324277639E0,9.603517652E-1
3.224422500E0,-2.247658014E0,1.259296656E0,8.943057656E-1
3.226942604E0,-2.177350998E0,1.184728742E0,8.165417910E-1
3.229462656E0,-2.116631031E0,1.109094739E0,7.206677794E-1
3.231982760E0,-2.050585032E0,1.038787723E0,6.226637959E-1
3.234502812E0,-1.976016879E0,9.706117511E-1,5.193337798E-1
3.237022917E0,-1.896122813E0,8.981737494E-1,4.096117616E-1
3.239543021E0,-1.815162778E0,8.129527569E-1,2.945637703E-1
3.242063073E0,-1.726745844E0,7.202757597E-1,1.763197780E-1
3.244583177E0,-1.627676845E0,6.233367324E-1,4.422776774E-2
3.247103229E0,-1.515824795E0,5.221367478E-1,-1.038422287E-1
3.249636094E0,-1.392254829E0,4.262637198E-1,-2.657612264E-1
3.252156146E0,-1.263357878E0,3.282597363E-1,-4.298122227E-1
3.254676250E0,-1.137656808E0,2.259947360E-1,-5.949272513E-1
3.257196302E0,-1.025804877E0,1.365127265E-1,-7.493902445E-1
3.259716406E0,-9.299318790E-1,5.768373236E-2,-8.942652345E-1
3.262236510E0,-8.532328606E-1,-5.166268442E-3,-1.013574243E0
3.264756562E0,-7.893168926E-1,-6.269027293E-2,-1.100925207E0
3.267276667E0,-7.349888682E-1,-1.116922721E-1,-1.153123260E0
3.269796771E0,-6.913138628E-1,-1.489762664E-1,-1.173363209E0
3.272316823E0,-6.550948620E-1,-1.660202742E-1,-1.163776278E0
3.274836927E0,-6.188758612E-1,-1.553672701E-1,-1.135014176E0
3.277356979E0,-5.837218761E-1,-1.223442703E-1,-1.083881259E0
3.279927500E0,-5.496338606E-1,-5.949426815E-2,-1.008248210E0
3.282447552E0,-5.144798756E-1,1.933373138E-2,-9.123742580E-1
3.284967656E0,-4.782618582E-1,1.088157296E-1,-7.930652499E-1
3.287487708E0,-4.494988620E-1,2.036237270E-1,-6.577772498E-1
3.290007812E0,-4.271288514E-1,2.984327376E-1,-5.129022002E-1
3.292527917E0,-4.047588706E-1,3.879137337E-1,-3.648312390E-1
3.295047969E0,-3.887798488E-1,4.763307273E-1,-2.156942338E-1
3.297568073E0,-3.738658428E-1,5.562257767E-1,-7.294923067E-2
3.300088177E0,-3.621478677E-1,6.329237819E-1,6.233776733E-2
3.302608229E0,-3.514958620E-1,7.128187418E-1,1.912337691E-1
3.305128333E0,-3.387118578E-1,7.873867750E-1,3.126737773E-1
3.307648385E0,-3.280598521E-1,8.576937318E-1,4.181337655E-1
3.310221146E0,-3.206028640E-1,9.301317334E-1,5.172037482E-1
3.312741198E0,-3.099498451E-1,1.000438690E0,6.034897566E-1
3.315261302E0,-3.003628552E-1,1.069680691E0,6.812537909E-1
3.317781354E0,-2.875798643E-1,1.138922691E0,7.462347746E-1
3.320301458E0,-2.737318575E-1,1.202837706E0,8.005627990E-1
3.322821562E0,-2.598828673E-1,1.261427641E0,8.495647907E-1
3.325341614E0,-2.460348755E-1,1.322146654E0,8.921747804E-1
3.327861719E0,-2.279248685E-1,1.373279691E0,9.251977801E-1
3.330381823E0,-2.044898719E-1,1.415889740E0,9.592867494E-1
3.332901875E0,-1.767928749E-1,1.445717692E0,9.859177470E-1
3.335421979E0,-1.458998770E-1,1.460630655E0,1.006157756E0
3.337942031E0,-1.160728708E-1,1.469152689E0,1.023201823E0
3.340511614E0,-7.665786892E-2,1.463826656E0,1.041311741E0
3.343031667E0,-3.298286721E-2,1.446782708E0,1.055159807E0
3.345551771E0,1.282213163E-2,1.409498692E0,1.066877723E0
3.348071875E0,5.969413370E-2,1.357300758E0,1.080725789E0
3.350591927E0,1.140221283E-1,1.290189743E0,1.090313792E0
3.353112031E0,1.715461314E-1,1.215620756E0,1.098835826E0
3.355632083E0,2.290701270E-1,1.136791706E0,1.106291771E0
3.358152187E0,2.897901535E-1,1.060093641E0,1.110552788E0
3.360672292E0,3.547711372E-1,9.865907431E-1,1.112683773E0
3.363192344E0,4.218821526E-1,9.109567404E-1,1.107357740E0
3.365712448E0,4.868631363E-1,8.427797556E-1,1.098835826E0
3.368232500E0,5.582351089E-1,7.809947729E-1,1.080725789E0
3.370801667E0,6.328040957E-1,7.202757597E-1,1.065812826E0
3.373321719E0,7.052411437E-1,6.638167500E-1,1.050898790E0
3.375841823E0,7.830051184E-1,6.180107594E-1,1.038115740E0
3.378361927E0,8.597041368E-1,5.828567743E-1,1.026397824E0
3.380881979E0,9.395990968E-1,5.615517497E-1,1.017875791E0
3.383402083E0,1.019493222E0,5.562257767E-1,1.015744805E0
3.385922135E0,1.087670207E0,5.658127666E-1,1.002961755E0
3.388442239E0,1.151585221E0,5.977707505E-1,9.741997719E-1
3.390962344E0,1.211240172E0,6.371847391E-1,9.358507991E-1
3.393482396E0,1.262372136E0,6.883177757E-1,8.847177625E-1
3.396002500E0,1.306048155E0,7.564937472E-1,8.293247819E-1
3.398522552E0,1.350789189E0,8.321277499E-1,7.739307880E-1
3.401092135E0,1.392334223E0,9.120217562E-1,7.196027637E-1
3.403612187E0,1.427488208E0,1.000438690E0,6.716657877E-1
3.406132292E0,1.457315207E0,1.094181657E0,6.258597970E-1
3.408652344E0,1.481816173E0,1.192185640E0,5.811187625E-1
3.411172448E0,1.506317139E0,1.293384671E0,5.448997617E-1
3.413692552E0,1.523361206E0,1.404171705E0,5.140077472E-1
3.416212604E0,1.531883121E0,1.516024709E0,4.884417653E-1
3.418732708E0,1.532948136E0,1.640659690E0,4.703317583E-1
3.421252812E0,1.526557207E0,1.771686673E0,4.522227645E-1
3.423772864E0,1.515904188E0,1.902713656E0,4.437007606E-1
3.426292969E0,1.498860121E0,2.034805775E0,4.362437725E-1
3.428813021E0,1.474359155E0,2.156245708E0,4.298517704E-1
3.431410781E0,1.449858189E0,2.252118587E0,4.309177697E-1
3.433930833E0,1.424292207E0,2.324556589E0,4.351787865E-1
3.436450937E0,1.398726225E0,2.372493744E0,4.437007606E-1
3.438970989E0,1.372094154E0,2.391668797E0,4.575487673E-1
3.441491094E0,1.344397187E0,2.386341810E0,4.618097842E-1
3.444011198E0,1.314570189E0,2.353318691E0,4.639407694E-1
3.446531250E0,1.284743190E0,2.293664694E0,4.607447684E-1
3.449051354E0,1.255981207E0,2.210573673E0,4.511577785E-1
3.451571458E0,1.226154208E0,2.101917744E0,4.351787865E-1
3.454091510E0,1.195261121E0,1.959172726E0,4.160037637E-1
3.456611614E0,1.162238121E0,1.789796710E0,3.946987689E-1
3.459131667E0,1.128150225E0,1.600179672E0,3.595447838E-1
3.461675208E0,1.085539222E0,1.389258742E0,3.222607672E-1
3.464195260E0,1.038668156E0,1.167684674E0,2.732587755E-1
3.466715364E0,9.843391180E-1,9.407837391E-1,2.082777768E-1
3.469235417E0,9.119021297E-1,7.138837576E-1,1.379707754E-1
3.471755521E0,8.266811371E-1,4.965707362E-1,6.340277195E-2
3.474275625E0,7.222861052E-1,2.792577147E-1,-1.329523139E-2
3.476795677E0,6.029761434E-1,7.579272985E-2,-8.999422938E-2
3.479315781E0,4.698191583E-1,-1.106262729E-1,-1.592352241E-1
3.481835885E0,3.324001431E-1,-2.917202711E-1,-2.252822220E-1
3.484355937E0,1.843291223E-1,-4.568362832E-1,-2.774792314E-1
3.486876042E0,3.412813321E-2,-6.134292483E-1,-3.105022311E-1
3.489396094E0,-1.213988736E-1,-7.561742663E-1,-3.318082392E-1
3.491965156E0,-2.758618593E-1,-8.840052485E-1,-3.328732252E-1
3.494485208E0,-4.271288514E-1,-1.003314257E0,-3.147632182E-1
3.497005312E0,-5.794608593E-1,-1.111971259E0,-2.806752324E-1
3.499525364E0,-7.200759053E-1,-1.199322343E0,-2.327382267E-1
3.502045469E0,-8.521679044E-1,-1.270694256E0,-1.826712340E-1
3.504565573E0,-9.714769125E-1,-1.315435290E0,-1.304732263E-1
3.507085625E0,-1.071610808E0,-1.322892308E0,-8.466722816E-2
3.509605729E0,-1.157896876E0,-1.295195341E0,-5.057923123E-2
3.512125833E0,-1.232465863E0,-1.236606359E0,-2.607823163E-2
3.514645885E0,-1.294250846E0,-1.160973310E0,-1.649123244E-2
3.517165989E0,-1.343252778E0,-1.074687243E0,-1.542523131E-2
3.519686042E0,-1.385862827E0,-9.873352647E-1,-1.862123236E-2
3.522292604E0,-1.418885827E0,-8.967882395E-1,-3.247023001E-2
3.524812656E0,-1.448712826E0,-7.998492122E-1,-4.205723107E-2
3.527332760E0,-1.480670810E0,-6.965192556E-1,-5.697123334E-2
3.529852864E0,-1.507302880E0,-5.814712644E-1,-7.934122533E-2
3.532372917E0,-1.537129879E0,-4.557702839E-1,-1.017112285E-1
3.534893021E0,-1.570152879E0,-3.258092701E-1,-1.251472384E-1
3.537413073E0,-1.599979877E0,-1.809332669E-1,-1.485832334E-1
3.539933177E0,-1.629807830E0,-2.860127017E-2,-1.677582264E-1
3.542453281E0,-1.657503843E0,1.258597225E-1,-1.826712340E-1
3.544973333E0,-1.679874778E0,2.707357407E-1,-1.943892241E-1
3.547493437E0,-1.697983861E0,4.070887268E-1,-2.039762288E-1
3.550013489E0,-1.709701777E0,5.317247510E-1,-2.082372308E-1
3.552548125E0,-1.718223810E0,6.414457560E-1,-2.242162228E-1
3.555068177E0,-1.722484827E0,7.319927812E-1,-2.433912307E-1
3.557588281E0,-1.716093779E0,7.991047502E-1,-2.678922415E-1
3.560108333E0,-1.697983861E0,8.246707320E-1,-2.987852395E-1
3.562628437E0,-1.670286775E0,8.054957390E-1,-3.328732252E-1
3.565148542E0,-1.624480844E0,7.341237664E-1,-3.637652397E-1
3.567668594E0,-1.559499860E0,6.041617393E-1,-3.946582377E-1
3.570188698E0,-1.479605794E0,4.315897226E-1,-4.202242196E-1
3.572708802E0,-1.380536795E0,2.249297351E-1,-4.372682273E-1
3.575228854E0,-1.267618775E0,4.420731217E-3,-4.393992424E-1
3.577748958E0,-1.135526776E0,-2.128912657E-1,-4.330072403E-1
3.580269010E0,-9.906519055E-1,-4.099642634E-1,-4.170282185E-1
3.582839323E0,-8.361889124E-1,-5.686882138E-1,-3.840052187E-1
3.585359375E0,-6.742689013E-1,-6.816062331E-1,-3.445912302E-1
3.587879479E0,-5.112848878E-1,-7.572392225E-1,-2.977192402E-1
3.590399531E0,-3.472348452E-1,-8.019802570E-1,-2.497832328E-1
3.592919635E0,-1.810538769E-1,-8.264812231E-1,-2.039762288E-1
3.595439739E0,-1.700386964E-2,-8.392642140E-1,-1.645622253E-1
3.597959792E0,1.481101215E-1,-8.509822488E-1,-1.304732263E-1
3.600479896E0,3.047041297E-1,-8.584392667E-1,-1.006462276E-1
3.603000000E0,4.549051523E-1,-8.488512635E-1,-7.827623188E-2
3.605520052E0,5.987151265E-1,-8.275462389E-1,-6.123223156E-2
3.608040156E0,7.340031266E-1,-7.913272381E-1,-4.525323212E-2
3.610560208E0,8.629001379E-1,-7.433912158E-1,-2.820823155E-2
3.613162812E0,9.832741022E-1,-6.837362647E-1,-9.034231305E-3
3.615683698E0,1.094061136E0,-6.240822673E-1,1.120476890E-2
3.618204635E0,1.196326137E0,-5.537742376E-1,2.718376741E-2
3.620725521E0,1.290069222E0,-4.792062640E-1,4.529276863E-2
3.623246458E0,1.376355171E0,-3.950512707E-1,6.553277373E-2
3.625767344E0,1.459445119E0,-3.034382761E-1,8.151177317E-2
3.628288281E0,1.530818224E0,-2.128912657E-1,9.855577350E-2
3.630809167E0,1.598995209E0,-1.180832684E-1,1.187957749E-1
3.633330104E0,1.662910223E0,-2.540526912E-2,1.422317773E-1
3.635850989E0,1.722565174E0,6.087973341E-2,1.667327732E-1
3.638371927E0,1.780089140E0,1.290557235E-1,1.933647692E-1
3.640892812E0,1.838678122E0,1.610137224E-1,2.136047781E-1
3.643418854E0,1.898333192E0,1.620787233E-1,2.221267670E-1
3.645939792E0,1.962248206E0,1.173377261E-1,2.178657651E-1
3.648460677E0,2.029360056E0,2.892173082E-2,2.093437761E-1
3.650981614E0,2.092210054E0,-7.866827399E-2,1.795157790E-1
3.653502552E0,2.153995037E0,-1.873252690E-1,1.411667764E-1
3.656023437E0,2.211519003E0,-3.013082743E-1,9.642577171E-2
3.658544375E0,2.260521173E0,-4.163562655E-1,3.996676952E-2
3.661065260E0,2.297805071E0,-5.346002579E-1,-3.033923171E-2
3.663586198E0,2.330827951E0,-6.592352390E-1,-1.027772278E-1
3.666107083E0,2.352133036E0,-7.891972661E-1,-1.816062331E-1
3.668628021E0,2.365982056E0,-9.223542213E-1,-2.678922415E-1
3.671148906E0,2.369177103E0,-1.044859290E0,-3.477862179E-1
3.673726250E0,2.354264021E0,-1.160973310E0,-4.212892354E-1
3.676247135E0,2.328698158E0,-1.265368342E0,-4.947922230E-1
3.678768073E0,2.294609070E0,-1.360176325E0,-5.640342236E-1
3.681288958E0,2.244542122E0,-1.452854276E0,-6.290152073E-1
3.683809896E0,2.179561138E0,-1.552988291E0,-6.950612068E-1
3.686330781E0,2.102862120E0,-1.669102311E0,-7.589772344E-1
3.688851719E0,2.020837069E0,-1.808651328E0,-8.101092577E-1
3.691372604E0,1.923899174E0,-1.969505310E0,-8.559162021E-1
3.693893542E0,1.813112140E0,-2.148469210E0,-8.974612355E-1
3.696414427E0,1.684215188E0,-2.342346191E0,-9.315492511E-1
3.698935364E0,1.540405154E0,-2.529832363E0,-9.485931993E-1
3.701456250E0,1.389138222E0,-2.668316364E0,-9.496582150E-1
3.704035364E0,1.236806154E0,-2.752471209E0,-9.347452521E-1
3.706556250E0,1.080213189E0,-2.780168295E0,-8.942652345E-1
3.709077187E0,9.278811216E-1,-2.748210192E0,-8.314152360E-1
3.711598125E0,7.755491138E-1,-2.675772190E0,-7.472591996E-1
3.714119010E0,6.242821217E-1,-2.570312262E0,-6.524512172E-1
3.716639896E0,4.804721475E-1,-2.439285278E0,-5.448602438E-1
3.719160833E0,3.483791351E-1,-2.297605276E0,-4.244852364E-1
3.721681719E0,2.312011272E-1,-2.156991243E0,-2.902622223E-1
3.724202656E0,1.331971288E-1,-2.028094292E0,-1.507132351E-1
3.726723542E0,5.543313175E-2,-1.924764276E0,-9.034231305E-3
3.729244479E0,2.170131076E-3,-1.836347342E0,1.358407736E-1
3.731765364E0,-3.298286721E-2,-1.768171310E0,2.775197625E-1
3.734294167E0,-5.322286859E-2,-1.724495292E0,4.117427766E-1
3.736815104E0,-5.748386681E-2,-1.703190327E0,5.363777876E-1
3.739335989E0,-4.256986827E-2,-1.713843346E0,6.460997462E-1
3.741856927E0,-1.274286862E-2,-1.748996258E0,7.377117872E-1
3.744377864E0,3.625813127E-2,-1.805455327E0,8.090847731E-1
3.746898750E0,1.001741290E-1,-1.886415243E0,8.559557796E-1
3.749419687E0,1.715461314E-1,-1.989745259E0,8.761957884E-1
3.751940573E0,2.471801341E-1,-2.104793310E0,8.740657568E-1
3.754461510E0,3.228131533E-1,-2.228363276E0,8.474337459E-1
3.756982396E0,4.005771577E-1,-2.351933241E0,8.048237562E-1
3.759503333E0,4.772761464E-1,-2.479764223E0,7.430387735E-1
3.762024219E0,5.529091358E-1,-2.596943378E0,6.652747989E-1
3.764583958E0,6.349341273E-1,-2.702404261E0,5.779227614E-1
3.767104896E0,7.116330862E-1,-2.787625313E0,4.799197614E-1
3.769625781E0,7.872661352E-1,-2.856867313E0,3.765887618E-1
3.772146719E0,8.586391211E-1,-2.906934261E0,2.647367716E-1
3.774667656E0,9.246851206E-1,-2.935696363E0,1.432967782E-1
3.777188542E0,9.917961359E-1,-2.942087412E0,3.357576951E-2
3.779709479E0,1.053581119E0,-2.927174330E0,-7.294923067E-2
3.782230364E0,1.112171173E0,-2.902673244E0,-1.794752330E-1
3.784751302E0,1.162238121E0,-2.862193346E0,-2.785452306E-1
3.787272187E0,1.209109187E0,-2.811060190E0,-3.637652397E-1
3.789793125E0,1.254916191E0,-2.750341415E0,-4.383342266E-1
3.792314010E0,1.296461225E0,-2.682164192E0,-5.075752139E-1
3.794874948E0,1.335875154E0,-2.607596397E0,-5.597732067E-1
3.797395885E0,1.371029139E0,-2.526636362E0,-6.055792570E-1
3.799916771E0,1.407248139E0,-2.436089277E0,-6.396682262E-1
3.802437708E0,1.443467140E0,-2.345542192E0,-6.577772498E-1
3.804958646E0,1.472229123E0,-2.247538328E0,-6.662992239E-1
3.807479531E0,1.504186153E0,-2.139947414E0,-6.684302092E-1
3.810000469E0,1.532948136E0,-2.024898291E0,-6.535162330E-1
3.812521354E0,1.548927188E0,-1.911981344E0,-6.279502511E-1
3.815042292E0,1.563841224E0,-1.805455327E0,-5.959922075E-1
3.817563177E0,1.573428154E0,-1.706386328E0,-5.544472337E-1
3.820084114E0,1.573428154E0,-1.614773273E0,-5.065102577E-1
3.822605000E0,1.568102121E0,-1.533814311E0,-4.553782344E-1
3.825201458E0,1.559580207E0,-1.478420258E0,-3.989192247E-1
3.827722344E0,1.537209153E0,-1.441136360E0,-3.403302431E-1
3.830243281E0,1.512708187E0,-1.404917359E0,-2.806752324E-1
3.832764167E0,1.483946204E0,-1.377220273E0,-2.178252339E-1
3.835285104E0,1.447728157E0,-1.353785276E0,-1.560402215E-1
3.837805989E0,1.413639188E0,-1.342067242E0,-9.425523132E-2
3.840326927E0,1.382747173E0,-1.331414342E0,-3.140423074E-2
3.842847812E0,1.353985190E0,-1.266433358E0,3.037976846E-2
3.845368750E0,1.334810138E0,-1.192930341E0,9.642577171E-2
3.847889635E0,1.315635204E0,-1.117297292E0,1.539497674E-1
3.850410573E0,1.303917170E0,-1.031011343E0,2.125387788E-1
3.852931458E0,1.296461225E0,-9.351372123E-1,2.711287737E-1
3.855456927E0,1.296461225E0,-8.275462389E-1,3.286527693E-1
3.857977864E0,1.299656153E0,-7.231512666E-1,3.808497787E-1
3.860498750E0,1.307113171E0,-6.251472235E-1,4.330477715E-1
3.863019687E0,1.320962191E0,-5.292732120E-1,4.788537621E-1
3.865540625E0,1.340136170E0,-4.493792653E-1,5.193337798E-1
3.868061510E0,1.360376120E0,-3.694842756E-1,5.544877648E-1
3.870582448E0,1.390204191E0,-3.013082743E-1,5.853797793E-1
3.873103333E0,1.418966174E0,-2.480452657E-1,6.162727475E-1
3.875624271E0,1.450923204E0,-2.054342777E-1,6.397087574E-1
3.878145156E0,1.486077189E0,-1.734772772E-1,6.631437540E-1
3.880666094E0,1.523361206E0,-1.543022692E-1,6.876447797E-1
3.883186979E0,1.558515191E0,-1.457802653E-1,7.121457458E-1
3.885748542E0,1.593668222E0,-1.383232772E-1,7.387777567E-1
3.888269479E0,1.625626206E0,-1.372582763E-1,7.568867803E-1
3.890790364E0,1.655453205E0,-1.383232772E-1,7.707358003E-1
3.893311302E0,1.682085156E0,-1.457802653E-1,7.749967575E-1
3.895832239E0,1.703390121E0,-1.521712691E-1,7.781917453E-1
3.898353125E0,1.720434189E0,-1.670852751E-1,7.718007565E-1
3.900874062E0,1.728956223E0,-1.851942688E-1,7.568867803E-1
3.903394948E0,1.731087208E0,-2.128912657E-1,7.323857546E-1
3.905915885E0,1.726826191E0,-2.469802648E-1,7.046887875E-1
3.908436771E0,1.715108156E0,-2.917202711E-1,6.716657877E-1
3.910957708E0,1.696998119E0,-3.492442667E-1,6.269247532E-1
3.913478594E0,1.674628139E0,-4.152912796E-1,5.821847916E-1
3.916073958E0,1.647996187E0,-4.866632819E-1,5.235947967E-1
3.918594844E0,1.607517123E0,-5.569702387E-1,4.554187655E-1
3.921115781E0,1.556384206E0,-6.208862662E-1,3.904377818E-1
3.923636667E0,1.494599223E0,-6.858672500E-1,3.211957812E-1
3.926157604E0,1.424292207E0,-7.401952147E-1,2.487577796E-1
3.928678489E0,1.344397187E0,-7.796102166E-1,1.741897762E-1
3.931199427E0,1.257046223E0,-8.073062301E-1,9.322977066E-2
3.933720312E0,1.163303137E0,-8.232852221E-1,1.759676822E-2
3.936241250E0,1.062103152E0,-8.275462389E-1,-5.803623050E-2
3.938762135E0,9.555771351E-1,-8.179592490E-1,-1.315392256E-1
3.941283073E0,8.533130884E-1,-7.891972661E-1,-2.071722299E-1
3.943803958E0,7.457211018E-1,-7.455212474E-1,-2.870672345E-1
3.946329531E0,6.370651126E-1,-6.933232546E-1,-3.637652397E-1
3.948850469E0,5.358651280E-1,-6.294082403E-1,-4.425952137E-1
3.951371354E0,4.367961586E-1,-5.484482646E-1,-5.192932487E-1
3.953892292E0,3.526401520E-1,-4.536402822E-1,-5.917312503E-1
3.956413229E0,2.791371346E-1,-3.577672839E-1,-6.524512172E-1
3.958934114E0,2.194831222E-1,-2.512412667E-1,-7.046492100E-1
3.961455052E0,1.821991354E-1,-1.447152644E-1,-7.408672571E-1
3.963975937E0,1.587631255E-1,-3.286226839E-2,-7.643032074E-1
3.966496875E0,1.555671245E-1,7.898873091E-2,-7.696292400E-1
3.969017760E0,1.651551276E-1,1.929717362E-1,-7.643032074E-1
3.971538698E0,1.864601225E-1,3.026937246E-1,-7.451282144E-1
3.974059583E0,2.162871361E-1,4.006977379E-1,-7.142361999E-1
3.976621771E0,2.493101358E-1,4.923097193E-1,-6.748212576E-1
3.979142708E0,2.833981514E-1,5.753997564E-1,-6.290152073E-1
3.981663594E0,3.185521364E-1,6.403807402E-1,-5.800132155E-1
3.984184531E0,3.505101502E-1,7.053617835E-1,-5.278152227E-1
3.986705469E0,3.782071471E-1,7.650157809E-1,-4.692262411E-1
3.989226354E0,3.995121419E-1,8.204097748E-1,-4.095722139E-1
3.991747292E0,4.240131378E-1,8.694117665E-1,-3.477862179E-1
3.994268177E0,4.431871474E-1,9.088267684E-1,-2.774792314E-1
3.996789114E0,4.570361376E-1,9.333277345E-1,-2.093032300E-1
3.999310000E0,4.676881433E-1,9.471757412E-1,-1.421912313E-1
4.001830937E0,4.730151296E-1,9.450447559E-1,-7.721022516E-2
4.004351823E0,4.794061482E-1,9.322617650E-1,-1.755623147E-2
4.006910521E0,4.804721475E-1,9.088267684E-1,3.357576951E-2
4.009431458E0,4.826021492E-1,8.715417385E-1,8.151177317E-2
4.011952344E0,4.783411324E-1,8.150837421E-1,1.251877695E-1
4.014473281E0,4.740801454E-1,7.469067574E-1,1.614067703E-1
4.016994219E0,4.644931555E-1,6.659467816E-1,1.891037673E-1
4.019515104E0,4.538401365E-1,5.658127666E-1,2.136047781E-1
4.022036042E0,4.367961586E-1,4.465037286E-1,2.402357757E-1
4.024556927E0,4.144251347E-1,3.218677342E-1,2.604757845E-1
4.027077864E0,3.867291510E-1,1.823187321E-1,2.796507776E-1
4.029598750E0,3.547711372E-1,5.235773325E-2,2.945637703E-1
4.032119687E0,3.132261336E-1,-5.523326620E-2,2.988247573E-1
4.034640573E0,2.642241418E-1,-1.319312751E-1,3.030857742E-1
4.037199531E0,2.067001313E-1,-1.756072640E-1,2.977597713E-1
4.039720469E0,1.427841336E-1,-1.809332669E-1,2.924337685E-1
4.042241354E0,7.247713208E-2,-1.532372683E-1,2.817807794E-1
4.044762292E0,-3.155868733E-3,-9.677827358E-2,2.711287737E-1
4.047283229E0,-8.304987103E-2,-1.262226887E-2,2.562147677E-1
4.049804114E0,-1.735968739E-1,9.283673018E-2,2.402357757E-1
4.052325052E0,-2.716008425E-1,2.196027339E-1,2.253217697E-1
4.054845937E0,-3.717358708E-1,3.698047400E-1,2.104087770E-1
4.057366875E0,-4.803918600E-1,5.391807556E-1,1.997557729E-1
4.059887760E0,-5.986359119E-1,7.256017327E-1,1.880377680E-1
4.062408698E0,-7.211408615E-1,9.248047471E-1,1.816467643E-1
4.064929583E0,-8.500368595E-1,1.138922691E0,1.741897762E-1
4.067525937E0,-9.768028855E-1,1.359431744E0,1.667327732E-1
4.070046823E0,-1.104633808E0,1.588461757E0,1.571457684E-1
4.072567760E0,-1.231399775E0,1.821753740E0,1.401017755E-1
4.075088646E0,-1.354969859E0,2.052915812E0,1.156007722E-1
4.077609583E0,-1.474279881E0,2.288337708E0,8.683877438E-2
4.080130469E0,-1.581870794E0,2.531217813E0,5.488076806E-2
4.082651406E0,-1.677743793E0,2.740008593E0,1.226976886E-2
4.085172292E0,-1.760834813E0,2.918971777E0,-3.673123196E-2
4.087693229E0,-1.832206845E0,3.081956625E0,-1.006462276E-1
4.090214167E0,-1.892926812E0,3.224701643E0,-1.762802303E-1
4.092735052E0,-1.940862775E0,3.348271608E0,-2.604352236E-1
4.095255937E0,-1.983473778E0,3.439883709E0,-3.541782200E-1
4.097819114E0,-2.014365911E0,3.498473644E0,-4.596392214E-1
4.100340000E0,-2.037801981E0,3.519778728E0,-5.608382225E-1
4.102860937E0,-2.054846048E0,3.488885641E0,-6.662992239E-1
4.105381823E0,-2.064434052E0,3.421774626E0,-7.685642242E-1
4.107902760E0,-2.066563845E0,3.320574760E0,-8.655032516E-1
4.110423646E0,-2.065498829E0,3.182090759E0,-9.592462182E-1
4.112944583E0,-2.059106827E0,3.023367643E0,-1.043401241E0
4.115465469E0,-2.045258999E0,2.850795746E0,-1.120100260E0
4.117986406E0,-2.033540964E0,2.662244797E0,-1.190407276E0
4.120507292E0,-2.017561913E0,2.475823641E0,-1.246866226E0
4.123028229E0,-1.999452829E0,2.291533709E0,-1.287346244E0
4.125549114E0,-1.977081776E0,2.112569809E0,-1.320369244E0
4.128110729E0,-1.950450778E0,1.945324659E0,-1.337413192E0
4.130632344E0,-1.932340860E0,1.781274676E0,-1.339544177E0
4.133153906E0,-1.921688795E0,1.625746727E0,-1.333152175E0
4.135675469E0,-1.915296793E0,1.487262726E0,-1.315043211E0
4.138197083E0,-1.912100792E0,1.350908756E0,-1.291607261E0
4.140718646E0,-1.917427778E0,1.220947742E0,-1.267106175E0
4.143240208E0,-1.923818827E0,1.095246673E0,-1.237279177E0
4.145761823E0,-1.934471846E0,9.674157500E-1,-1.202125192E0
4.148283385E0,-1.953646779E0,8.321277499E-1,-1.162710190E0
4.150805000E0,-1.979212880E0,6.968397498E-1,-1.120100260E0
4.153326562E0,-2.011170864E0,5.626167655E-1,-1.071098208E0
4.155848125E0,-2.045258999E0,4.273287356E-1,-1.011443257E0
4.158366146E0,-2.083607912E0,2.867147326E-1,-9.475282431E-1
4.160887708E0,-2.124088049E0,1.503607333E-1,-8.814822435E-1
4.163409323E0,-2.169893980E0,1.507273223E-2,-8.101092577E-1
4.165930885E0,-2.213569880E0,-1.159532741E-1,-7.376722097E-1
4.168452448E0,-2.257246017E0,-2.384572774E-1,-6.652342081E-1
4.170974062E0,-2.301986933E0,-3.460492790E-1,-5.885352492E-1
4.173495625E0,-2.348857880E0,-4.376612604E-1,-5.160982013E-1
4.176017187E0,-2.395730019E0,-4.973162711E-1,-4.447252154E-1
4.178538802E0,-2.440469980E0,-5.314042568E-1,-3.722872138E-1
4.181060364E0,-2.488406897E0,-5.324692130E-1,-2.998502254E-1
4.183581927E0,-2.540604830E0,-5.015772581E-1,-2.284772247E-1
4.186103489E0,-2.588541985E0,-4.355312586E-1,-1.581702232E-1
4.188666979E0,-2.637543917E0,-3.417882621E-1,-9.105923027E-2
4.191188594E0,-2.680153847E0,-2.246092707E-1,-2.075223252E-2
4.193710156E0,-2.722764015E0,-8.825626969E-2,5.061976612E-2
4.196231719E0,-2.762178898E0,5.874873325E-2,1.177307740E-1
4.198753333E0,-2.798398018E0,2.089507282E-1,1.848427653E-1
4.201274896E0,-2.832485914E0,3.698047400E-1,2.530187666E-1
4.203796458E0,-2.854856968E0,5.232017636E-1,3.148037791E-1
4.206318073E0,-2.866574049E0,6.702077389E-1,3.755237758E-1
4.208839635E0,-2.869770050E0,8.108227849E-1,4.383737743E-1
4.211361250E0,-2.861248016E0,9.471757412E-1,4.937677681E-1
4.213882812E0,-2.844203949E0,1.069680691E0,5.385087729E-1
4.216404375E0,-2.814376831E0,1.177271724E0,5.715317726E-1
4.218945833E0,-2.774961948E0,1.267818689E0,5.928367972E-1
4.221467396E0,-2.724895000E0,1.330669641E0,6.056197882E-1
4.223989010E0,-2.664175034E0,1.375409722E0,6.088157892E-1
4.226510573E0,-2.589607000E0,1.397780657E0,6.034897566E-1
4.229032135E0,-2.504385948E0,1.400976658E0,5.949677825E-1
4.231553750E0,-2.415968895E0,1.392454743E0,5.843147635E-1
4.234075312E0,-2.322227001E0,1.370083690E0,5.736617446E-1
4.236596875E0,-2.219961882E0,1.333864689E0,5.598137975E-1
4.239118489E0,-2.119827032E0,1.286993742E0,5.512917638E-1
4.241640052E0,-2.023953915E0,1.228404641E0,5.427697897E-1
4.244161614E0,-1.928079844E0,1.162357688E0,5.321167707E-1
4.246683229E0,-1.833271861E0,1.089920640E0,5.214647651E-1
4.249272239E0,-1.737398863E0,1.016417742E0,5.065507889E-1
4.251793854E0,-1.648981810E0,9.503717422E-1,4.831147790E-1
4.254315417E0,-1.561630845E0,8.885867596E-1,4.522227645E-1
4.256836979E0,-1.475344777E0,8.268017769E-1,4.149387777E-1
4.259358594E0,-1.387993813E0,7.756687403E-1,3.691327572E-1
4.261880156E0,-1.299576879E0,7.245367765E-1,3.116077781E-1
4.264401719E0,-1.205833793E0,6.808607578E-1,2.370397747E-1
4.266923333E0,-1.103568792E0,6.339897513E-1,1.507537663E-1
4.269444896E0,-1.002368808E0,5.807267427E-1,4.848876968E-2
4.271966510E0,-8.969088793E-1,5.349197388E-1,-6.762322783E-2
4.274488073E0,-7.967739105E-1,4.976357520E-1,-1.943892241E-1
4.277009635E0,-7.094228864E-1,4.720697403E-1,-3.350032270E-1
4.279563958E0,-6.305938959E-1,4.592867196E-1,-4.798792303E-1
4.282085573E0,-5.645478964E-1,4.560907185E-1,-6.215582490E-1
4.284607135E0,-5.134148598E-1,4.443727434E-1,-7.579122186E-1
4.287128698E0,-4.761308432E-1,4.145457149E-1,-8.846782446E-1
4.289650312E0,-4.558908641E-1,3.676747382E-1,-9.922692180E-1
4.292171875E0,-4.452378452E-1,2.963017225E-1,-1.078555226E0
4.294693437E0,-4.473688602E-1,1.908407360E-1,-1.144601226E0
4.297215052E0,-4.580218494E-1,5.874873325E-2,-1.176559210E0
4.299736614E0,-4.761308432E-1,-7.440727204E-2,-1.179755211E0
4.302258229E0,-4.974358678E-1,-1.979782730E-1,-1.164841175E0
4.304779792E0,-5.240678787E-1,-2.917202711E-1,-1.133948207E0
4.307301354E0,-5.560249090E-1,-3.407222629E-1,-1.087077260E0
4.309854844E0,-5.890488625E-1,-3.332662582E-1,-1.024227262E0
4.312376458E0,-6.284629107E-1,-2.927862704E-1,-9.517892003E-1
4.314898021E0,-6.710739136E-1,-2.299352735E-1,-8.793511987E-1
4.317419583E0,-7.190098763E-1,-1.585632712E-1,-8.037182093E-1
4.319941198E0,-7.658818960E-1,-7.760327309E-2,-7.270192504E-1
4.322462760E0,-8.127529025E-1,2.289731521E-3,-6.481902003E-1
4.324984323E0,-8.532328606E-1,8.324972540E-2,-5.714912415E-1
4.327505937E0,-8.894518614E-1,1.684707254E-1,-4.947922230E-1
4.330027500E0,-9.214099050E-1,2.643437386E-1,-4.170282185E-1
4.332549062E0,-9.480409026E-1,3.591517210E-1,-3.360692263E-1
4.335070677E0,-9.693458676E-1,4.433077276E-1,-2.572392225E-1
4.337592239E0,-9.863908887E-1,5.232017636E-1,-1.826712340E-1
4.340111406E0,-9.981079102E-1,5.924437642E-1,-1.112992316E-1
4.342632969E0,-1.008760810E0,6.457067728E-1,-4.844823107E-2
4.345154583E0,-1.017282844E0,6.861867309E-1,5.878768861E-3
4.347676146E0,-1.027935863E0,7.202757597E-1,5.168476701E-2
4.350197708E0,-1.031130791E0,7.415807843E-1,9.216476977E-2
4.352719323E0,-1.026869774E0,7.607547641E-1,1.283837706E-1
4.355240885E0,-1.023674846E0,7.703427672E-1,1.592757702E-1
4.357762448E0,-1.017282844E0,7.639507651E-1,1.816467643E-1
4.360284062E0,-1.004499793E0,7.426457405E-1,1.997557729E-1
4.362805625E0,-9.885208607E-1,7.128187418E-1,2.210607678E-1
4.365327187E0,-9.650849104E-1,6.723387837E-1,2.338437736E-1
4.367848802E0,-9.373888969E-1,6.254667640E-1,2.413007766E-1
4.370399948E0,-9.086269140E-1,5.722037554E-1,2.455617785E-1
4.372921510E0,-8.766688704E-1,5.146797299E-1,2.487577796E-1
4.375443125E0,-8.383188844E-1,4.539607167E-1,2.455617785E-1
4.377964687E0,-7.999699116E-1,3.847187161E-1,2.402357757E-1
4.380486250E0,-7.573598623E-1,3.090847433E-1,2.306487709E-1
4.383007864E0,-7.051618695E-1,2.366477251E-1,2.210607678E-1
4.385529375E0,-6.582899094E-1,1.524917334E-1,2.061477751E-1
4.388050989E0,-6.050269008E-1,7.259672880E-2,1.901687682E-1
4.390572604E0,-5.453729033E-1,1.224731561E-3,1.741897762E-1
4.393094167E0,-4.825228453E-1,-6.588526815E-2,1.539497674E-1
4.395615729E0,-4.175418615E-1,-1.212792695E-1,1.347747743E-1
4.398137344E0,-3.472348452E-1,-1.681502759E-1,1.102737710E-1
4.400694114E0,-2.779928446E-1,-2.182182670E-1,9.216476977E-2
4.403215677E0,-2.066198736E-1,-2.555022836E-1,7.725077122E-2
4.405737292E0,-1.299208701E-1,-2.853292823E-1,6.553277373E-2
4.408258802E0,-5.215786770E-2,-3.087652624E-1,5.488076806E-2
4.410780417E0,2.454013005E-2,-3.204822838E-1,3.996676952E-2
4.413302031E0,9.804312885E-2,-3.172872663E-1,2.505376749E-2
4.415823542E0,1.715461314E-1,-3.013082743E-1,1.013976894E-2
4.418345156E0,2.365271300E-1,-2.736112773E-1,-3.708231263E-3
4.420866771E0,3.004431427E-1,-2.341962755E-1,-2.181723155E-2
4.423388333E0,3.611621559E-1,-1.809332669E-1,-4.099223390E-2
4.425909896E0,4.122951329E-1,-1.223442703E-1,-6.229723245E-2
4.428431510E0,4.570361376E-1,-5.203726888E-2,-8.360222727E-2
4.430982917E0,4.932551384E-1,2.359573171E-2,-1.144952253E-1
4.433504479E0,5.177561045E-1,1.056207269E-1,-1.389962286E-1
4.436026042E0,5.379961133E-1,1.940367222E-1,-1.666922271E-1
4.438547656E0,5.518441200E-1,2.803227305E-1,-1.975852251E-1
4.441069219E0,5.593011379E-1,3.676747382E-1,-2.252822220E-1
4.443590833E0,5.539740920E-1,4.507647157E-1,-2.465872318E-1
4.446112396E0,5.465180874E-1,5.317247510E-1,-2.636312246E-1
4.448633958E0,5.305390954E-1,6.116187572E-1,-2.753492296E-1
4.451155573E0,5.071030855E-1,6.851217747E-1,-2.860012352E-1
4.453677135E0,4.762101471E-1,7.501027584E-1,-2.923932374E-1
4.456198698E0,4.389261305E-1,8.086917400E-1,-2.955892384E-1
4.458720312E0,3.995121419E-1,8.555637598E-1,-2.902622223E-1
4.461273125E0,3.537061512E-1,8.864557743E-1,-2.753492296E-1
4.463794687E0,3.036381304E-1,9.066957831E-1,-2.625662386E-1
4.466316302E0,2.557021379E-1,9.130877852E-1,-2.412602305E-1
4.468837864E0,2.056341320E-1,9.066957831E-1,-2.093032300E-1
4.471359427E0,1.608941257E-1,8.949777484E-1,-1.730842292E-1
4.473881042E0,1.172181293E-1,8.800647855E-1,-1.326042265E-1
4.476402604E0,7.673812658E-2,8.523677588E-1,-8.679822832E-2
4.478924167E0,4.371513426E-2,8.225407600E-1,-3.247023001E-2
4.481445781E0,1.069213171E-2,7.905827761E-1,2.292276733E-2
4.483967344E0,-1.913386956E-2,7.607547641E-1,7.725077122E-2
4.486488906E0,-4.043986648E-2,7.447767854E-1,1.337097734E-1
4.489010521E0,-6.707087159E-2,7.458417416E-1,1.816467643E-1
4.491594010E0,-9.157186747E-2,7.639507651E-1,2.221267670E-1
4.494115625E0,-1.150078699E-1,8.097567558E-1,2.615407705E-1
4.496637187E0,-1.405738741E-1,8.800647855E-1,2.860417664E-1
4.499158750E0,-1.757278740E-1,9.716767669E-1,3.116077781E-1
4.501680364E0,-2.140768766E-1,1.080332756E0,3.318477571E-1
4.504201927E0,-2.641438544E-1,1.197511673E0,3.499577641E-1
4.506723489E0,-3.184728622E-1,1.317885756E0,3.616757691E-1
4.509245104E0,-3.759968579E-1,1.429738641E0,3.744587600E-1
4.511766667E0,-4.399118423E-1,1.523481727E0,3.829807639E-1
4.514288281E0,-5.091539025E-1,1.602310658E0,3.915027678E-1
4.516809792E0,-5.794608593E-1,1.654508710E0,4.064167738E-1
4.519331406E0,-6.518988609E-1,1.682204723E0,4.234607816E-1
4.521857917E0,-7.243368626E-1,1.686465740E0,4.405047596E-1
4.524379479E0,-7.967739105E-1,1.667291641E0,4.628747702E-1
4.526901094E0,-8.692119122E-1,1.622550726E0,4.916367829E-1
4.529422656E0,-9.352579117E-1,1.555438757E0,5.289217830E-1
4.531944219E0,-9.991738796E-1,1.470218658E0,5.662057996E-1
4.534465833E0,-1.052436829E0,1.365822673E0,6.141417623E-1
4.536987396E0,-1.096111774E0,1.240121722E0,6.588827968E-1
4.539508958E0,-1.131265879E0,1.102703691E0,7.100157738E-1
4.542030573E0,-1.153635859E0,9.674157500E-1,7.622127533E-1
4.544552135E0,-1.164288878E0,8.374537826E-1,8.122807741E-1
4.547073698E0,-1.164288878E0,7.256017327E-1,8.591517806E-1
4.549595312E0,-1.154701829E0,6.329237819E-1,8.996317983E-1
4.552145364E0,-1.136591792E0,5.658127666E-1,9.369157553E-1
4.554666927E0,-1.115286827E0,5.253327489E-1,9.603517652E-1
4.557188542E0,-1.086524844E0,5.093537569E-1,9.688737988E-1
4.559710104E0,-1.055631876E0,5.253327489E-1,9.550257921E-1
4.562231667E0,-1.027935863E0,5.743347406E-1,9.209367633E-1
4.564753281E0,-9.991738796E-1,6.552947760E-1,8.634127975E-1
4.567274844E0,-9.757378697E-1,7.618207335E-1,7.781917453E-1
4.569796406E0,-9.544329047E-1,8.928477764E-1,6.674047709E-1
4.572318021E0,-9.448449016E-1,1.040918708E0,5.267907977E-1
4.574839583E0,-9.501718879E-1,1.211359739E0,3.648707569E-1
4.577361146E0,-9.725418687E-1,1.387127757E0,1.944297701E-1
4.579882760E0,-1.018347859E0,1.553308725E0,1.972676814E-2
4.582439010E0,-1.080132842E0,1.697118640E0,-1.517792344E-1
4.584960573E0,-1.157896876E0,1.801513672E0,-3.179592192E-1
4.587482187E0,-1.238856792E0,1.867560744E0,-4.639002383E-1
4.590003750E0,-1.316620827E0,1.872886658E0,-5.874702334E-1
4.592525312E0,-1.379470825E0,1.803644657E0,-6.769522429E-1
4.595046927E0,-1.418885827E0,1.652377725E0,-7.259542346E-1
4.597568489E0,-1.427407861E0,1.407367706E0,-7.387372255E-1
4.600090052E0,-1.394384861E0,1.085659742E0,-7.153012156E-1
4.602611667E0,-1.327273846E0,6.712737679E-1,-6.577772498E-1
4.605133229E0,-1.219681859E0,1.791227311E-1,-5.736222267E-1
4.607654792E0,-1.086524844E0,-3.226132691E-1,-4.830752313E-1
4.610176406E0,-9.427148700E-1,-7.700222135E-1,-3.882662356E-1
4.612730677E0,-7.957088947E-1,-1.122623324E0,-3.051762283E-1
4.615252239E0,-6.529638767E-1,-1.380416274E0,-2.327382267E-1
4.617773854E0,-5.198068619E-1,-1.538075328E0,-1.698882282E-1
4.620295417E0,-3.855838478E-1,-1.603056312E0,-1.230172291E-1
4.622816979E0,-2.588178515E-1,-1.580685258E0,-8.466722816E-2
4.625338594E0,-1.341828704E-1,-1.492268324E0,-5.910123140E-2
4.627860156E0,-6.350868847E-3,-1.368698359E0,-4.418723285E-2
4.630381719E0,1.150871292E-1,-1.223823309E0,-4.099223390E-2
4.632903333E0,2.322661281E-1,-1.076817274E0,-4.844823107E-2
4.635424896E0,3.430531323E-1,-9.393992424E-1,-6.655822694E-2
4.637946458E0,4.506441355E-1,-8.158282638E-1,-1.006462276E-1
4.640468073E0,5.475831032E-1,-7.093022466E-1,-1.432572305E-1
4.643055104E0,6.423910856E-1,-6.240822673E-1,-1.901282221E-1
4.645577187E0,7.329381108E-1,-5.654922128E-1,-2.455222309E-1
4.648099271E0,8.256161213E-1,-5.282082558E-1,-2.977192402E-1
4.650621406E0,9.225541353E-1,-5.100992322E-1,-3.456562161E-1
4.653143542E0,1.021624207E0,-5.037072301E-1,-3.946582377E-1
4.655665625E0,1.121758223E0,-5.005112290E-1,-4.330072403E-1
4.658187760E0,1.222958207E0,-5.005112290E-1,-4.596392214E-1
4.660709844E0,1.323092222E0,-5.100992322E-1,-4.820092320E-1
4.663231979E0,1.429618120E0,-5.196862221E-1,-4.894662201E-1
4.665754114E0,1.534014225E0,-5.377962589E-1,-4.873362184E-1
4.668276198E0,1.638409138E0,-5.612312555E-1,-4.820092320E-1
4.670798333E0,1.740674138E0,-5.910592675E-1,-4.649652243E-1
4.673312604E0,1.845070124E0,-6.198212504E-1,-4.436602294E-1
4.675834687E0,1.947335124E0,-6.485832334E-1,-4.180942178E-1
4.678356823E0,2.043208122E0,-6.858672500E-1,-3.946582377E-1
4.680878958E0,2.139081001E0,-7.242162228E-1,-3.690922260E-1
4.683401042E0,2.229628086E0,-7.668262124E-1,-3.488522172E-1
4.685923177E0,2.314849138E0,-8.094372153E-1,-3.275472224E-1
4.688445260E0,2.392613173E0,-8.424602151E-1,-3.073072135E-1
4.690967396E0,2.468246937E0,-8.648302555E-1,-2.860012352E-1
4.693489479E0,2.538553953E0,-8.765482306E-1,-2.689572275E-1
4.696011614E0,2.605664968E0,-8.797442317E-1,-2.508482337E-1
4.698533698E0,2.669580936E0,-8.808092475E-1,-2.348692268E-1
4.701055833E0,2.727105141E0,-8.733522296E-1,-2.210212350E-1
4.703599687E0,2.787825108E0,-8.712222576E-1,-2.093032300E-1
4.706121771E0,2.845349073E0,-8.733522296E-1,-1.997152269E-1
4.708643906E0,2.903938055E0,-8.797442317E-1,-2.007812262E-1
4.711166042E0,2.972115040E0,-8.957232237E-1,-2.007812262E-1
4.713688125E0,3.040291071E0,-9.255502224E-1,-2.039762288E-1
4.716210260E0,3.104207039E0,-9.670952559E-1,-2.156942338E-1
4.718732344E0,3.172384024E0,-1.020358324E0,-2.316732258E-1
4.721254479E0,3.236299038E0,-1.081078291E0,-2.487172335E-1
4.723776562E0,3.294888020E0,-1.148189306E0,-2.636312246E-1
4.726298698E0,3.350281954E0,-1.217431307E0,-2.881322205E-1
4.728820781E0,3.397153139E0,-1.290934324E0,-3.158292174E-1
4.731342917E0,3.435503006E0,-1.362307310E0,-3.339382410E-1
4.733926927E0,3.469591141E0,-1.430483341E0,-3.552432358E-1
4.736449010E0,3.487699986E0,-1.493334293E0,-3.733532429E-1
4.738971146E0,3.501549006E0,-1.555119276E0,-3.850712180E-1
4.741493229E0,3.495157003E0,-1.623295307E0,-3.967882395E-1
4.744015364E0,3.474917173E0,-1.707451344E0,-4.053112268E-1
4.746537448E0,3.426980972E0,-1.802259326E0,-4.148982167E-1
4.749059583E0,3.357738972E0,-1.911981344E0,-4.234202206E-1
4.751581667E0,3.272518158E0,-2.032355309E0,-4.255502224E-1
4.754103802E0,3.163861036E0,-2.181492329E0,-4.223552346E-1
4.756625937E0,3.031769037E0,-2.343411207E0,-4.180942178E-1
4.759148021E0,2.887959003E0,-2.506396294E0,-4.042452276E-1
4.761670156E0,2.733495951E0,-2.652337313E0,-3.776142299E-1
4.764218489E0,2.574773073E0,-2.776972294E0,-3.275472224E-1
4.766740573E0,2.409657001E0,-2.877106190E0,-2.551092207E-1
4.769262708E0,2.242412090E0,-2.955936193E0,-1.666922271E-1
4.771784792E0,2.068773985E0,-3.011329412E0,-7.188422978E-2
4.774306927E0,1.873832226E0,-3.032634258E0,2.931476757E-2
4.776829010E0,1.662910223E0,-2.995350361E0,1.401017755E-1
4.779351146E0,1.449858189E0,-2.897346258E0,2.562147677E-1
4.781873229E0,1.234676123E0,-2.762058258E0,3.595447838E-1
4.784395364E0,1.019493222E0,-2.612922192E0,4.479617774E-1
4.786917500E0,8.117671013E-1,-2.453133345E0,5.193337798E-1
4.789439583E0,6.125640869E-1,-2.286952257E0,5.694007874E-1
4.791961719E0,4.229471385E-1,-2.116511345E0,6.109467745E-1
4.794474114E0,2.439841330E-1,-1.950330257E0,6.503607631E-1
4.796996198E0,7.247713208E-2,-1.795868278E0,6.855147481E-1
4.799518333E0,-8.624587208E-2,-1.660580277E0,7.153417468E-1
4.802040469E0,-2.140768766E-1,-1.541270256E0,7.462347746E-1
4.804562552E0,-3.206028640E-1,-1.433679342E0,7.718007565E-1
4.807084687E0,-4.015628695E-1,-1.336741328E0,7.909747958E-1
4.809606771E0,-4.644128680E-1,-1.265368342E0,8.048237562E-1
4.812128906E0,-5.091539025E-1,-1.211040258E0,8.122807741E-1
4.814650989E0,-5.315248966E-1,-1.171625257E0,8.239987493E-1
4.817173125E0,-5.432418585E-1,-1.150320292E0,8.314547539E-1
4.819695208E0,-5.432418585E-1,-1.143928289E0,8.378467560E-1
4.822217344E0,-5.315248966E-1,-1.147124290E0,8.410427570E-1
4.824767292E0,-5.091539025E-1,-1.159907341E0,8.474337459E-1
4.827289375E0,-4.793268442E-1,-1.184408307E0,8.474337459E-1
4.829811510E0,-4.345858693E-1,-1.215301275E0,8.442377448E-1
4.832333646E0,-3.728008568E-1,-1.262172341E0,8.271937966E-1
4.834855729E0,-2.897098660E-1,-1.318631291E0,8.069537878E-1
4.837377864E0,-1.831838638E-1,-1.386808276E0,7.781917453E-1
4.839899948E0,-5.322286859E-2,-1.465637326E0,7.355817556E-1
4.842422083E0,1.150871292E-1,-1.565771341E0,6.865797639E-1
4.844944167E0,3.196171522E-1,-1.687211275E0,6.269247532E-1
4.847466302E0,5.443871021E-1,-1.823564291E0,5.566177964E-1
4.849988385E0,7.617000937E-1,-1.949265242E0,4.852457643E-1
4.852510521E0,9.843391180E-1,-2.069639206E0,4.160037637E-1
4.855091771E0,1.198457122E0,-2.178296328E0,3.499577641E-1
4.857613854E0,1.399791121E0,-2.280561209E0,2.796507776E-1
4.860135989E0,1.580885172E0,-2.377500296E0,2.221267670E-1
4.862658073E0,1.736413121E0,-2.469112396E0,1.614067703E-1
4.865180208E0,1.862114191E0,-2.555398226E0,1.038827747E-1
4.867702292E0,1.952661157E0,-2.640619278E0,5.807676911E-2
4.870224427E0,2.012315035E0,-2.717317343E0,1.972676814E-2
4.872746510E0,2.045338154E0,-2.785494328E0,-4.773231223E-3
4.875268646E0,2.048534155E0,-2.847279310E0,-1.968623139E-2
4.877790781E0,2.025099039E0,-2.898412228E0,-2.394723147E-2
4.880312864E0,1.981423140E0,-2.938892365E0,-2.075223252E-2
4.882835000E0,1.921768188E0,-2.954870224E0,-1.116423123E-2
4.885382760E0,1.851461172E0,-2.949544191E0,-2.643231302E-3
4.887904844E0,1.772632122E0,-2.922913313E0,-7.969231345E-3
4.890426979E0,1.696998119E0,-2.867519379E0,-2.501323260E-2
4.892949062E0,1.623495221E0,-2.785494328E0,-4.525323212E-2
4.895471146E0,1.553188205E0,-2.681099415E0,-6.868822873E-2
4.897993281E0,1.492469192E0,-2.560724258E0,-9.851622581E-2
4.900515417E0,1.445597172E0,-2.432893276E0,-1.272782236E-1
4.903037500E0,1.411509156E0,-2.305062294E0,-1.507132351E-1
4.905559635E0,1.382747173E0,-2.175100327E0,-1.634972245E-1
4.908081719E0,1.356115222E0,-2.056856394E0,-1.805412322E-1
4.910603854E0,1.334810138E0,-1.923699260E0,-1.922592223E-1
4.913125989E0,1.309244156E0,-1.758583307E0,-2.093032300E-1
4.915638489E0,1.284743190E0,-1.607317328E0,-2.252822220E-1
4.918160573E0,1.265568137E0,-1.465637326E0,-2.295432240E-1
4.920682708E0,1.248524189E0,-1.326088309E0,-2.231512219E-1
4.923204844E0,1.234676123E0,-1.197191358E0,-2.039762288E-1
4.925726927E0,1.220827222E0,-1.085339308E0,-1.677582264E-1
4.928249010E0,1.213370204E0,-9.766832590E-1,-1.272782236E-1
4.930771146E0,1.213370204E0,-8.722872138E-1,-7.934122533E-2
4.933293281E0,1.216566205E0,-7.774792314E-1,-2.820823155E-2
4.935815364E0,1.225088120E0,-6.816062331E-1,2.505376749E-2
4.938337500E0,1.244263172E0,-6.006462574E-1,7.192476839E-2
4.940859583E0,1.270894170E0,-5.367302299E-1,1.081437692E-1
4.943381719E0,1.300722122E0,-4.792062640E-1,1.475577652E-1
4.945930989E0,1.336941123E0,-4.344652593E-1,1.795157790E-1
4.948453073E0,1.380616188E0,-4.014422596E-1,2.114737779E-1
4.950975208E0,1.430683136E0,-3.780072629E-1,2.434317768E-1
4.953497344E0,1.487142205E0,-3.641582727E-1,2.711287737E-1
4.956019427E0,1.549993157E0,-3.471142650E-1,3.030857742E-1
4.958541562E0,1.614973187E0,-3.300702572E-1,3.361087739E-1
4.961063646E0,1.679954171E0,-3.151562810E-1,3.638057709E-1
4.963585781E0,1.750261188E0,-3.034382761E-1,3.893717825E-1
4.966107864E0,1.826960206E0,-2.970472574E-1,4.160037637E-1
4.968630000E0,1.898333192E0,-2.949162722E-1,4.415697753E-1
4.971152083E0,1.953726172E0,-3.034382761E-1,4.596797824E-1
4.973674219E0,2.002727985E0,-3.279392719E-1,4.703317583E-1
4.976219896E0,2.038947105E0,-3.598972857E-1,4.788537621E-1
4.978741979E0,2.068773985E0,-3.961162567E-1,4.916367829E-1
4.981264114E0,2.078361988E0,-4.504442811E-1,4.905717671E-1
4.983786250E0,2.071969986E0,-5.111642480E-1,4.788537621E-1
4.986308333E0,2.047469139E0,-5.708192587E-1,4.618097842E-1
4.988830469E0,2.005923986E0,-6.336692572E-1,4.405047596E-1
4.991352552E0,1.951596141E0,-6.975852251E-1,4.138727784E-1
4.993874687E0,1.883419156E0,-7.455212474E-1,3.797847629E-1
4.996396771E0,1.805655122E0,-7.923932672E-1,3.467617631E-1
4.998918906E0,1.717238188E0,-8.264812231E-1,3.094777763E-1
5.001440989E0,1.616039157E0,-8.392642140E-1,2.658017576E-1
5.003963125E0,1.510578156E0,-8.286112547E-1,2.167997658E-1
5.006507917E0,1.397660136E0,-7.923932672E-1,1.688637733E-1
5.009030000E0,1.279417157E0,-7.391302586E-1,1.209267750E-1
5.011552135E0,1.160107136E0,-6.709532142E-1,7.085977495E-2
5.014074271E0,1.038668156E0,-5.942542553E-1,2.292276733E-2
5.016596354E0,9.172281027E-1,-5.164902210E-1,-1.862123236E-2
5.019118437E0,7.979190946E-1,-4.429872632E-1,-5.484023318E-2
5.021640573E0,6.871321201E-1,-3.620282710E-1,-8.679822832E-2
5.024162708E0,5.880631208E-1,-2.789372802E-1,-1.112992316E-1
5.026684792E0,5.017771125E-1,-2.065002769E-1,-1.294082254E-1
5.029206927E0,4.197521508E-1,-1.457802653E-1,-1.272782236E-1
5.031729010E0,3.547711372E-1,-1.063652709E-1,-1.294082254E-1
5.034251146E0,3.004431427E-1,-9.464727342E-2,-1.240822300E-1
5.036836614E0,2.567671537E-1,-9.038627148E-2,-1.059722304E-1
5.039358698E0,2.226791233E-1,-9.358227253E-2,-8.892823011E-2
5.041880833E0,2.013731301E-1,-9.251727164E-2,-7.401522994E-2
5.044402917E0,1.832641214E-1,-8.825626969E-2,-5.590523034E-2
5.046925052E0,1.747421324E-1,-8.292926848E-2,-3.673123196E-2
5.049447135E0,1.672851294E-1,-7.121226937E-2,-2.394723147E-2
5.051969271E0,1.694161296E-1,-4.990626872E-2,-1.116423123E-2
5.054491354E0,1.683501303E-1,-2.966626734E-2,3.747768700E-3
5.057013489E0,1.704811305E-1,-7.296268363E-3,1.013976894E-2
5.059535625E0,1.779381335E-1,1.507273223E-2,1.333576906E-2
5.062057708E0,1.896561235E-1,4.276973382E-2,1.013976894E-2
5.064579844E0,1.992431283E-1,6.300973147E-2,9.074768983E-3
5.067126406E0,2.077651322E-1,7.685872912E-2,8.008768782E-3
5.069648489E0,2.184181362E-1,9.070672840E-2,3.747768700E-3
5.072170625E0,2.301351279E-1,9.390272945E-2,2.682768740E-3
5.074692708E0,2.343961298E-1,8.644572645E-2,-5.132312654E-4
5.077214844E0,2.386571318E-1,7.046672702E-2,-3.708231263E-3
5.079736927E0,2.354621291E-1,4.063973203E-2,-9.034231305E-3
5.082259062E0,2.269401252E-1,-9.052683599E-4,-1.223023143E-2
5.084781146E0,2.130911350E-1,-4.564526677E-2,-1.223023143E-2
5.087303281E0,1.896561235E-1,-8.506026864E-2,-1.649123244E-2
5.089825417E0,1.587631255E-1,-1.170182675E-1,-1.968623139E-2
5.092347500E0,1.236091256E-1,-1.340622753E-1,-2.181723155E-2
5.094869635E0,7.673812658E-2,-1.340622753E-1,-2.181723155E-2
5.097418906E0,2.667113021E-2,-1.138222739E-1,-2.607823163E-2
5.099940989E0,-2.446086891E-2,-8.399526775E-2,-2.607823163E-2
5.102463125E0,-7.559286803E-2,-2.434026822E-2,-1.436023135E-2
5.104985208E0,-1.320518702E-1,5.129173398E-2,4.813768901E-3
5.107507344E0,-1.895758659E-1,1.450347304E-1,3.250976652E-2
