"Time (s)","Acceleration x (m/s^2)","Acceleration y (m/s^2)","Acceleration z (m/s^2)"
0.000000000E0,-3.155563354E0,6.086059570E0,6.665451050E0
5.195864000E-3,-3.136398315E0,6.095642090E0,6.780380249E0
1.020074600E-2,-3.040634155E0,6.148315430E0,7.010223389E0
1.520562900E-2,-2.954452515E0,6.196197510E0,7.158660889E0
2.021051200E-2,-2.892196655E0,6.186614990E0,7.225708008E0
2.521539500E-2,-2.877838135E0,6.162673950E0,7.144302368E0
3.022027800E-2,-2.949661255E0,6.196197510E0,7.038955688E0
3.522516000E-2,-3.064575195E0,6.205764771E0,6.938400269E0
4.023004300E-2,-3.227386475E0,6.244079590E0,6.804321289E0
4.523492600E-2,-3.385406494E0,6.315902710E0,6.694183350E0
5.023980900E-2,-3.385406494E0,6.603210449E0,6.526596069E0
5.524469200E-2,-3.505111694E0,6.780380249E0,6.435607910E0
6.021905700E-2,-3.658340454E0,6.837844849E0,6.483505249E0
6.522394000E-2,-3.768478394E0,6.785171509E0,6.536163330E0
7.022882200E-2,-3.888183594E0,6.636734009E0,6.536163330E0
7.523370500E-2,-3.964797974E0,6.517013550E0,6.493072510E0
8.023858800E-2,-3.950439453E0,6.387725830E0,6.469131470E0
8.524347100E-2,-5.075714111E0,5.731719971E0,6.598419189E0
9.024835400E-2,-5.535400391E0,5.516235352E0,6.785171509E0
9.522271900E-2,-4.726150513E0,6.086059570E0,6.861785889E0
1.002276020E-1,-4.208999634E0,6.564895630E0,7.072479248E0
1.052324850E-1,-3.773254395E0,6.890518188E0,7.354980469E0
1.102373670E-1,-3.548202515E0,6.919250488E0,7.637496948E0
1.152422500E-1,-3.543411255E0,6.746856689E0,7.742843628E0
1.202471330E-1,-3.596084595E0,6.493072510E0,7.833831787E0
1.252520160E-1,-3.572143555E0,6.291961670E0,7.886505127E0
1.302263810E-1,-3.418914795E0,6.181823730E0,7.934387207E0
1.352312640E-1,-3.217803955E0,6.205764771E0,7.958328247E0
1.402361470E-1,-3.021484375E0,6.272811890E0,8.025360107E0
1.452410300E-1,-2.844314575E0,6.268020630E0,8.092407227E0
1.502459120E-1,-2.873046875E0,6.349426270E0,8.149856567E0
1.552507950E-1,-2.896987915E0,6.339843750E0,8.250411987E0
1.602251600E-1,-3.078948975E0,6.268020630E0,8.274368286E0
1.652300430E-1,-3.394973755E0,6.138732910E0,8.231262207E0
1.702349260E-1,-3.696640015E0,5.995086670E0,8.101974487E0
1.752398090E-1,-3.902542114E0,5.913681030E0,7.924804688E0
1.802446920E-1,-4.089294434E0,5.889739990E0,7.685394287E0
1.852495740E-1,-4.218582153E0,5.918472290E0,7.393295288E0
1.902239400E-1,-4.237731934E0,5.999862671E0,7.134719849E0
1.952288220E-1,-4.146759033E0,6.038177490E0,6.852203369E0
2.002337050E-1,-4.079727173E0,6.157882690E0,6.641510010E0
2.052385880E-1,-3.945648193E0,6.196197510E0,6.382934570E0
2.102434710E-1,-3.849884033E0,6.210556030E0,6.224929810E0
2.152483540E-1,-3.773254395E0,6.200988770E0,6.186614990E0
2.202532370E-1,-3.672698975E0,6.153091431E0,6.157882690E0
2.252276020E-1,-3.509902954E0,6.071701050E0,6.143524170E0
2.302324850E-1,-3.371032715E0,6.042968750E0,6.253662109E0
2.352373670E-1,-3.174713135E0,6.014236450E0,6.469131470E0
2.402422500E-1,-2.983169556E0,5.966354370E0,6.732498169E0
2.452471330E-1,-2.815582275E0,5.884948730E0,6.971908569E0
2.502520160E-1,-2.710235596E0,5.827484131E0,7.149093628E0
2.552263810E-1,-2.585739136E0,5.722137451E0,7.302322388E0
2.602312640E-1,-2.537857056E0,5.592849731E0,7.378936768E0
2.652361470E-1,-2.580947876E0,5.492294312E0,7.388504028E0
2.702410300E-1,-2.638412476E0,5.396530151E0,7.340621948E0
2.752459120E-1,-2.715026855E0,5.367797852E0,7.235275269E0
2.802507950E-1,-2.710235596E0,5.329498291E0,7.086837769E0
2.852251600E-1,-2.700653076E0,5.248092651E0,6.852203369E0
2.902300430E-1,-2.777267456E0,5.281616211E0,6.746856689E0
2.952349260E-1,-2.772491455E0,5.300765991E0,6.564895630E0
3.002398090E-1,-2.686294556E0,5.257659912E0,6.363784790E0
3.052446920E-1,-2.762908936E0,5.262451172E0,6.181823730E0
3.102495740E-1,-2.853881836E0,5.281616211E0,6.062118530E0
3.152239400E-1,-2.920928955E0,5.257659912E0,5.971145630E0
3.202288220E-1,-3.078948975E0,5.214569092E0,5.947204590E0
3.252337050E-1,-3.217803955E0,5.228942871E0,5.817916870E0
3.302385880E-1,-3.232177734E0,5.257659912E0,5.765243530E0
3.352434710E-1,-3.193862915E0,5.252883911E0,5.659896851E0
3.402483540E-1,-3.122039795E0,5.219360352E0,5.650314331E0
3.452532370E-1,-3.074157715E0,5.147537231E0,5.664688110E0
3.502276020E-1,-3.083724976E0,5.070922852E0,5.635955811E0
3.552324850E-1,-3.107681274E0,5.008666992E0,5.683837891E0
3.602373670E-1,-3.107681274E0,4.965576172E0,5.640747070E0
3.652422500E-1,-3.112457275E0,4.941635132E0,5.544967651E0
3.702471330E-1,-3.098098755E0,4.932052612E0,5.525817871E0
3.752520160E-1,-3.050216675E0,4.884170532E0,5.554550171E0
3.802263810E-1,-2.997543335E0,4.817138672E0,5.578491211E0
3.852312640E-1,-2.978393555E0,4.726150513E0,5.583282471E0
3.902361470E-1,-2.987960815E0,4.678268433E0,5.702987671E0
3.952410300E-1,-3.078948975E0,4.692642212E0,5.817916870E0
4.002459120E-1,-3.064575195E0,4.702209473E0,5.880157471E0
4.052507950E-1,-3.031066895E0,4.697418213E0,5.999862671E0
4.102251600E-1,-3.016693115E0,4.711791992E0,6.148315430E0
4.152300430E-1,-3.021484375E0,4.721359253E0,6.335052490E0
4.202349260E-1,-3.069366455E0,4.759674072E0,6.478713989E0
4.252398090E-1,-3.155563354E0,4.817138672E0,6.564895630E0
4.302446920E-1,-3.174713135E0,4.884170532E0,6.579269409E0
4.352495740E-1,-3.189071655E0,4.979934692E0,6.603210449E0
4.402239400E-1,-3.189071655E0,5.046981812E0,6.617568970E0
4.452288220E-1,-3.074157715E0,5.090072632E0,6.655883789E0
4.502337050E-1,-2.954452515E0,5.114013672E0,6.679824829E0
4.552385880E-1,-2.839523315E0,5.099655151E0,6.588836670E0
4.602434710E-1,-2.791641235E0,5.066131592E0,6.579269409E0
4.652483540E-1,-2.782058716E0,5.061340332E0,6.799530029E0
4.702227190E-1,-2.853881836E0,5.099655151E0,7.235275269E0
4.752276020E-1,-2.882614136E0,5.142745972E0,7.278366089E0
4.802324850E-1,-2.686294556E0,5.181045532E0,7.048522949E0
4.852373670E-1,-2.552215576E0,5.147537231E0,7.149093628E0
4.902422500E-1,-2.633621216E0,5.032608032E0,7.321472168E0
4.952471330E-1,-2.715026855E0,4.893753052E0,7.374145508E0
5.002520160E-1,-2.748550415E0,4.802764893E0,7.268798828E0
5.052263810E-1,-2.786849976E0,4.735733032E0,7.053314209E0
5.102312640E-1,-2.964019775E0,4.783615112E0,6.828262329E0
5.152361470E-1,-3.050216675E0,4.893753052E0,6.789962769E0
5.202410300E-1,-2.997543335E0,5.003875732E0,7.177810669E0
5.252459120E-1,-2.810791016E0,4.994308472E0,7.369354248E0
5.302507950E-1,-2.470809937E0,4.970367432E0,7.474700928E0
5.352251600E-1,-2.178726196E0,5.085281372E0,7.733276367E0
5.402300430E-1,-1.862686157E0,5.205001831E0,8.130706787E0
5.452349260E-1,-1.374267578E0,5.276824951E0,8.963897705E0
5.502398090E-1,-8.571166992E-1,5.377380371E0,9.773132324E0
5.552446920E-1,-5.458831787E-1,5.453994751E0,9.864105225E0
5.602495740E-1,-3.639221191E-1,5.358230591E0,9.528930664E0
5.652544570E-1,-3.064575195E-1,5.114013672E0,8.930374146E0
5.702288220E-1,-3.926544189E-1,4.845870972E0,8.125915527E0
5.752337050E-1,-5.937652588E-1,4.750091553E0,7.508209229E0
5.802385880E-1,-6.368560791E-1,4.951202393E0,7.412445068E0
5.852434710E-1,-3.687133789E-1,5.473144531E0,7.417236328E0
5.902483540E-1,2.873077393E-1,6.177047729E0,7.230484009E0
5.952532370E-1,7.278442383E-1,5.612014771E0,6.526596069E0
6.002276020E-1,8.331756592E-1,4.845870972E0,6.253662109E0
6.052324850E-1,5.841827393E-1,3.921707153E0,6.665451050E0
6.102373670E-1,1.532287598E-1,3.203445435E0,7.460327148E0
6.152422500E-1,-1.005554199E-1,2.873046875E0,8.667007446E0
6.202471330E-1,-1.963195801E-1,2.858673096E0,9.844955444E0
6.252520160E-1,-2.394104004E-2,3.007110596E0,1.067814636E1
6.302263810E-1,3.687133789E-1,3.155563354E0,1.109951782E1
6.352312640E-1,8.283996582E-1,3.131622314E0,1.104205322E1
6.402361470E-1,1.216247559E0,2.834732056E0,1.093193054E1
6.452410300E-1,1.316818237E0,2.106903076E0,1.075476074E1
6.502459120E-1,1.537078857E0,1.278503418E0,1.066856384E1
6.552507950E-1,2.025497437E0,1.335968018E0,1.123838806E1
6.602251600E-1,2.442092896E0,1.268920898E0,1.219606018E1
6.652300430E-1,2.667144775E0,6.655883789E-1,1.325909424E1
6.702349260E-1,2.700653076E0,-3.639221191E-1,1.366610718E1
6.752398090E-1,2.700653076E0,-1.268920898E0,1.408747864E1
6.802446920E-1,2.868255615E0,-1.790863037E0,1.459027100E1
6.852495740E-1,3.098098755E0,-2.149993896E0,1.495896912E1
6.902544570E-1,3.011901855E0,-2.528274536E0,1.507868958E1
6.952288220E-1,2.418136597E0,-3.093307495E0,1.457110596E1
7.002337050E-1,1.508346558E0,-3.481170654E0,1.390551758E1
7.052385880E-1,8.906402588E-1,-3.447647095E0,1.329739380E1
7.102434710E-1,6.368560791E-1,-3.055007935E0,1.300051880E1
7.152483540E-1,5.410919189E-1,-2.422927856E0,1.293347168E1
7.202532370E-1,4.070129395E-1,-1.719039917E0,1.286643982E1
7.252276020E-1,2.202606201E-1,-1.072601318E0,1.269885254E1
7.302324850E-1,-5.267333984E-2,-5.410919189E-1,1.244984436E1
7.352373670E-1,4.309082031E-2,-1.819610596E-1,1.227746582E1
7.402422500E-1,3.831481934E-2,2.442016602E-1,1.263659668E1
7.452471330E-1,-2.681579590E-1,1.915435791E-1,1.268927002E1
7.502520160E-1,-7.565612793E-1,-3.782806396E-1,1.227267456E1
7.552263810E-1,-1.110916138E0,-9.672546387E-1,1.227746582E1
7.602312640E-1,-8.379669189E-1,-1.575378418E0,1.239717102E1
7.652361470E-1,-1.484375000E-1,-2.015914917E0,1.229183960E1
7.702410300E-1,5.123596191E-1,-2.030288696E0,1.198536682E1
7.752459120E-1,1.034301758E0,-1.848327637E0,1.200932312E1
7.802507950E-1,1.254562378E0,-1.699890137E0,1.208593750E1
7.852556780E-1,1.005569458E0,-1.814804077E0,1.160708618E1
7.902300430E-1,5.410919189E-1,-1.872268677E0,1.032379150E1
7.952349260E-1,3.878631592E-1,-1.297653198E0,8.207321167E0
8.002398090E-1,8.331756592E-1,1.436462402E-1,5.832275391E0
8.052446920E-1,7.852935791E-1,1.335968018E0,4.084503174E0
8.102495740E-1,1.914978027E-2,1.862686157E0,3.500320435E0
8.152544570E-1,-8.379669189E-1,1.972824097E0,3.835510254E0
8.202288220E-1,-1.460464478E0,1.853118896E0,5.080490112E0
8.252337050E-1,-1.690307617E0,1.489196777E0,6.593627930E0
8.302385880E-1,-1.690307617E0,9.624633789E-1,7.996627808E0
8.352434710E-1,-1.905792236E0,2.442016602E-1,9.078811646E0
8.402483540E-1,-2.312805176E0,-5.267181396E-1,9.787490845E0
8.452532370E-1,-2.442092896E0,-1.115692139E0,1.006523132E1
8.502276020E-1,-2.087738037E0,-1.465255737E0,9.878479004E0
8.552324850E-1,-1.355117798E0,-1.575378418E0,9.485824585E0
8.602373670E-1,-5.267181396E-1,-1.474822998E0,9.054870605E0
8.652422500E-1,2.346343994E-1,-1.273712158E0,8.719680786E0
8.702471330E-1,9.289550781E-1,-1.091751099E0,8.341400146E0
8.752520160E-1,1.465255737E0,-9.816284180E-1,7.996627808E0
8.802263810E-1,1.790863037E0,-9.816284180E-1,7.627929688E0
8.852312640E-1,1.958450317E0,-9.816284180E-1,7.225708008E0
8.902361470E-1,1.948883057E0,-9.911956787E-1,6.852203369E0
8.952410300E-1,1.728607178E0,-1.015136719E0,6.526596069E0
9.002459120E-1,1.288085938E0,-1.063018799E0,6.282379150E0
9.052507950E-1,6.991119385E-1,-1.163589478E0,6.062118530E0
9.102556780E-1,1.435852051E-2,-1.292861938E0,5.817916870E0
9.152300430E-1,-7.326202393E-1,-1.388641357E0,5.588073730E0
9.202349260E-1,-1.484405518E0,-1.393432617E0,5.363006592E0
9.252398090E-1,-2.154785156E0,-1.302444458E0,5.046981812E0
9.302446920E-1,-2.647979736E0,-1.163589478E0,4.606445312E0
9.352495740E-1,-2.968811035E0,-1.019927979E0,4.070144653E0
9.402544570E-1,-3.227386475E0,-8.810729980E-1,3.548202515E0
9.452288220E-1,-3.332733154E0,-8.858489990E-1,2.786849976E0
9.502337050E-1,-3.102890015E0,-9.864044189E-1,2.394195557E0
9.552385880E-1,-3.715805054E0,-1.786071777E0,3.720596313E0
9.602434710E-1,-3.174713135E0,-2.025497437E0,4.453216553E0
9.652483540E-1,-2.628829956E0,-1.934509277E0,4.726150513E0
9.702532370E-1,-3.299209595E0,-1.857894897E0,3.869033813E0
9.752276020E-1,-4.319137573E0,-1.709457397E0,3.145980835E0
9.802324850E-1,-4.908111572E0,-1.647216797E0,3.241744995E0
9.852373670E-1,-5.114013672E0,-1.685516357E0,3.414138794E0
9.902422500E-1,-5.133163452E0,-1.939300537E0,3.529052734E0
9.952471330E-1,-4.879379272E0,-2.389419556E0,3.658340454E0
1.000252016E0,-4.266464233E0,-2.801208496E0,3.849884033E0
1.005256899E0,-3.610458374E0,-3.050216675E0,3.993530273E0
1.010231264E0,-3.055007935E0,-3.160339355E0,4.151550293E0
1.015236147E0,-2.561798096E0,-3.131622314E0,4.161117554E0
1.020241030E0,-2.140411377E0,-2.964019775E0,4.108444214E0
1.025245912E0,-2.164352417E0,-2.686294556E0,4.199432373E0
1.030250795E0,-1.934509277E0,-2.456451416E0,4.156341553E0
1.035255678E0,-7.996673584E-1,-2.327163696E0,3.902542114E0
1.040230043E0,4.453277588E-1,-2.351104736E0,3.495529175E0
1.045234926E0,1.532287598E0,-2.537857056E0,2.973602295E0
1.050239809E0,2.513916016E0,-2.868255615E0,2.590530396E0
1.055244692E0,3.356674194E0,-3.280059814E0,2.173934937E0
1.060249574E0,4.003112793E0,-3.725372314E0,1.675933838E0
1.065254457E0,4.453216553E0,-4.218582153E0,1.072601318E0
1.070228822E0,4.721359253E0,-4.754882812E0,1.915435791E-1
1.075233705E0,4.730941772E0,-5.181045532E0,-1.005569458E0
1.080238588E0,4.424484253E0,-5.573699951E0,-2.384628296E0
1.085243471E0,3.797210693E0,-5.956771851E0,-3.711013794E0
1.090248354E0,2.777267456E0,-6.339843750E0,-4.817138672E0
1.095253237E0,1.441314697E0,-6.732498169E0,-5.645523071E0
1.100227602E0,1.914978027E-2,-7.086837769E0,-6.234497070E0
1.105232485E0,-1.355117798E0,-7.374145508E0,-6.445190430E0
1.110237367E0,-2.561798096E0,-7.580047607E0,-6.339843750E0
1.115242250E0,-3.394973755E0,-7.690170288E0,-6.019027710E0
1.120247133E0,-3.869033813E0,-7.714111328E0,-5.482727051E0
1.125252016E0,-4.419692993E0,-7.556106567E0,-4.750091553E0
1.130256899E0,-5.295974731E0,-7.244857788E0,-4.003112793E0
1.135231264E0,-6.445190430E0,-7.067687988E0,-3.390182495E0
1.140236147E0,-8.025360107E0,-7.287948608E0,-2.810791016E0
1.145241030E0,-9.926361084E0,-7.805099487E0,-2.312805176E0
1.150245912E0,-1.200932312E1,-8.403656006E0,-1.891418457E0
1.155250795E0,-1.414015198E1,-8.954315186E0,-1.556228638E0
1.160255678E0,-1.635719299E1,-9.437942505E0,-1.292861938E0
1.165230043E0,-1.864604187E1,-9.797073364E0,-1.048660278E0
1.170234926E0,-2.075773621E1,-9.998184204E0,-7.852935791E-1
1.175239809E0,-2.251028442E1,-1.009873962E1,-5.841827393E-1
1.180244692E0,-2.379837036E1,-1.017535400E1,-4.309539795E-1
1.185249574E0,-2.442085266E1,-1.028070068E1,-2.489929199E-1
1.190254457E0,-2.422453308E1,-1.045787048E1,1.914978027E-2
1.195228822E0,-2.336262512E1,-1.054406738E1,3.208160400E-1
1.200233705E0,-2.206974792E1,-1.043872070E1,5.267181396E-1
1.205238588E0,-2.024537659E1,-9.955093384E0,6.464385986E-1
1.210243471E0,-1.813847351E1,-9.313446045E0,6.607971191E-1
1.215248354E0,-1.627578735E1,-8.896850586E0,5.698242188E-1
1.220253237E0,-1.496855164E1,-8.695739746E0,4.022216797E-1
1.225227602E0,-1.423114014E1,-8.547302246E0,7.182312012E-2
1.230232485E0,-1.400129700E1,-8.398864746E0,-5.458831787E-1
1.235237367E0,-1.413058472E1,-8.173797607E0,-1.527496338E0
1.240242250E0,-1.451365662E1,-7.915237427E0,-2.844314575E0
1.245247133E0,-1.481053162E1,-8.054092407E0,-4.276046753E0
1.250252016E0,-1.445140076E1,-9.088394165E0,-5.190628052E0
1.255256899E0,-1.599327087E1,-8.274368286E0,-6.378158569E0
1.260231264E0,-1.752076721E1,-7.513000488E0,-7.613555908E0
1.265236147E0,-1.849281311E1,-7.364562988E0,-8.566452026E0
1.270241030E0,-1.922543335E1,-7.522583008E0,-9.198516846E0
1.275245912E0,-1.967076111E1,-7.599197388E0,-9.744400024E0
1.280250795E0,-1.974737549E1,-7.551315308E0,-9.868896484E0
1.285255678E0,-1.941697693E1,-7.479492188E0,-9.835388184E0
1.290230043E0,-1.883758545E1,-7.249649048E0,-9.576812744E0
1.295234926E0,-1.805227661E1,-6.833053589E0,-9.074020386E0
1.300239809E0,-1.703234863E1,-6.426040649E0,-8.566452026E0
1.305244692E0,-1.584004211E1,-6.258438110E0,-8.226470947E0
1.310249574E0,-1.484884644E1,-6.095642090E0,-7.867340088E0
1.315254457E0,-1.449928284E1,-5.669464111E0,-7.177810669E0
1.320228822E0,-1.355596924E1,-5.731719971E0,-7.484268188E0
1.325233705E0,-1.255998230E1,-5.904098511E0,-8.183380127E0
1.330238588E0,-1.164060974E1,-6.153091431E0,-8.537719727E0
1.335243471E0,-1.037168884E1,-6.751647949E0,-8.796295166E0
1.340248354E0,-9.188949585E0,-6.852203369E0,-9.059661865E0
1.345253237E0,-8.743621826E0,-6.062118530E0,-8.743621826E0
1.350258119E0,-7.469909668E0,-6.526596069E0,-9.461883545E0
1.355232485E0,-6.938400269E0,-5.396530151E0,-8.609542847E0
1.360237367E0,-8.585601807E0,-4.539413452E0,-8.255203247E0
1.365242250E0,-9.605545044E0,-5.228942871E0,-7.580047607E0
1.370247133E0,-9.753982544E0,-6.627151489E0,-7.819458008E0
1.375252016E0,-1.137245178E1,-7.886505127E0,-6.373367310E0
1.380256899E0,-1.332612610E1,-8.116348267E0,-4.151550293E0
1.385231264E0,-1.374751282E1,-8.054092407E0,-2.940078735E0
1.390236147E0,-1.270841980E1,-7.905654907E0,-1.733398438E0
1.395241030E0,-1.177468872E1,-7.503433228E0,-9.241638184E-1
1.400245912E0,-1.097502136E1,-7.134719849E0,-4.740447998E-1
1.405250795E0,-1.009873962E1,-6.928817749E0,-2.298431396E-1
1.410255678E0,-8.963897705E0,-6.909667969E0,-2.777252197E-1
1.415230043E0,-7.742843628E0,-7.120361328E0,-7.469940186E-1
1.420234926E0,-6.493072510E0,-7.158660889E0,-1.206680298E0
1.425239809E0,-7.967910767E0,-7.704544067E0,-1.867523193E-1
1.430244692E0,-7.273590088E0,-7.718902588E0,5.937652588E-1
1.435249574E0,-2.705444336E0,-6.291961670E0,-1.474822998E0
1.440254457E0,-4.237731934E0,-6.895294189E0,7.661437988E-2
1.445259340E0,-7.163452148E0,-7.733276367E0,1.125274658E0
1.450233705E0,-8.073242188E0,-7.474700928E0,1.110916138E0
1.455238588E0,-7.963119507E0,-7.048522949E0,2.475601196E0
1.460243471E0,-5.808334351E0,-6.756439209E0,2.298431396E0
1.465248354E0,-6.550537109E0,-7.173034668E0,3.064575195E0
1.470253237E0,-8.011001587E0,-7.187393188E0,4.156341553E0
1.475258119E0,-8.863342285E0,-6.971908569E0,4.094085693E0
1.480232485E0,-8.576034546E0,-6.813903809E0,3.993530273E0
1.485237367E0,-7.642288208E0,-6.880935669E0,3.931274414E0
1.490242250E0,-7.201751709E0,-7.000640869E0,3.658340454E0
1.495247133E0,-6.856994629E0,-7.297531128E0,2.628829956E0
1.500252016E0,-6.588836670E0,-7.043746948E0,2.719818115E0
1.505256899E0,-6.138732910E0,-6.454772949E0,2.896987915E0
1.510231264E0,-6.129150391E0,-5.942413330E0,3.002334595E0
1.515236147E0,-5.832275391E0,-5.573699951E0,2.767700195E0
1.520241030E0,-5.511459351E0,-5.224151611E0,2.724594116E0
1.525245912E0,-5.233718872E0,-4.951202393E0,2.456451416E0
1.530250795E0,-5.205001831E0,-4.903320312E0,2.207458496E0
1.535255678E0,-5.449203491E0,-5.051773071E0,2.169143677E0
1.540230043E0,-5.626373291E0,-5.252883911E0,2.279281616E0
1.545234926E0,-5.410888672E0,-5.305557251E0,2.758117676E0
1.550239809E0,-5.023040771E0,-5.080490112E0,2.681503296E0
1.555244692E0,-4.879379272E0,-4.711791992E0,2.197875977E0
1.560249574E0,-5.023040771E0,-4.280838013E0,1.752548218E0
1.565254457E0,-5.176269531E0,-3.926498413E0,1.431732178E0
1.570259340E0,-5.147537231E0,-3.907333374E0,1.010360718E0
1.575233705E0,-5.018249512E0,-4.041412354E0,5.075683594E-1
1.580238588E0,-4.850646973E0,-4.084503174E0,2.873229980E-2
1.585243471E0,-4.836288452E0,-4.137176514E0,-4.596862793E-1
1.590248354E0,-4.960784912E0,-4.027053833E0,-7.996673584E-1
1.595253237E0,-5.099655151E0,-4.050994873E0,-1.235412598E0
1.600258119E0,-5.377380371E0,-4.031829834E0,-1.513137817E0
1.605232485E0,-5.702987671E0,-3.869033813E0,-1.580169678E0
1.610237367E0,-6.679824829E0,-3.524261475E0,-2.269699097E0
1.615242250E0,-7.264007568E0,-3.323150635E0,-3.280059814E0
1.620247133E0,-7.522583008E0,-3.160339355E0,-4.189849854E0
1.625252016E0,-7.790725708E0,-2.997543335E0,-4.165908813E0
1.630256899E0,-8.006210327E0,-2.681503296E0,-3.825927734E0
1.635231264E0,-8.350982666E0,-2.288864136E0,-4.089294434E0
1.640236147E0,-8.959106445E0,-2.169143677E0,-4.252105713E0
1.645241030E0,-9.385269165E0,-2.322372437E0,-4.237731934E0
1.650245912E0,-9.691726685E0,-2.743759155E0,-4.041412354E0
1.655250795E0,-9.610321045E0,-3.198654175E0,-3.691864014E0
1.660255678E0,-9.428359985E0,-3.485961914E0,-3.165130615E0
1.665230043E0,-9.131484985E0,-3.620025635E0,-2.609680176E0
1.670234926E0,-8.853759766E0,-3.797210693E0,-2.111679077E0
1.675239809E0,-8.250411987E0,-4.007888794E0,-1.589752197E0
1.680244692E0,-8.015792847E0,-4.266464233E0,-8.571166992E-1
1.685249574E0,-7.632720947E0,-4.458007812E0,1.005554199E-1
1.690254457E0,-6.976699829E0,-4.620803833E0,9.050140381E-1
1.695259340E0,-6.694183350E0,-4.721359253E0,1.570602417E0
1.700233705E0,-6.397308350E0,-4.721359253E0,1.991973877E0
1.705238588E0,-5.899307251E0,-4.750091553E0,2.015914917E0
1.710243471E0,-5.612014771E0,-4.783615112E0,1.924942017E0
1.715248354E0,-5.386947632E0,-4.941635132E0,1.920150757E0
1.720253237E0,-5.286392212E0,-5.267242432E0,1.982406616E0
1.725258119E0,-5.458786011E0,-5.473144531E0,2.226608276E0
1.730232485E0,-5.746078491E0,-5.506668091E0,2.317581177E0
1.735237367E0,-6.181823730E0,-5.573699951E0,2.308013916E0
1.740242250E0,-6.349426270E0,-5.573699951E0,2.355895996E0
1.745247133E0,-6.646301270E0,-5.540176392E0,2.418136597E0
1.750252016E0,-7.101196289E0,-5.645523071E0,2.173934937E0
1.755256899E0,-7.675811768E0,-5.765243530E0,1.695098877E0
1.760231264E0,-8.049301147E0,-5.770019531E0,1.048660278E0
1.765236147E0,-8.173797607E0,-5.707778931E0,3.495483398E-1
1.770241030E0,-8.245635986E0,-5.597640991E0,-2.489929199E-1
1.775245912E0,-8.087615967E0,-5.468353271E0,-8.044586182E-1
1.780250795E0,-7.900863647E0,-5.406112671E0,-1.369476318E0
1.785255678E0,-7.790725708E0,-5.420471191E0,-1.867477417E0
1.790260561E0,-7.718902588E0,-5.430053711E0,-2.346313477E0
1.795234926E0,-7.699752808E0,-5.458786011E0,-2.681503296E0
1.800239809E0,-7.584823608E0,-5.415679932E0,-2.777267456E0
1.805244692E0,-7.455551147E0,-5.324707031E0,-2.873046875E0
1.810249574E0,-7.469909668E0,-5.391738892E0,-2.935287476E0
1.815254457E0,-7.671020508E0,-5.626373291E0,-2.700653076E0
1.820259340E0,-7.900863647E0,-5.789184570E0,-2.274490356E0
1.825233705E0,-8.068466187E0,-5.884948730E0,-1.752548218E0
1.830238588E0,-8.236053467E0,-6.052536011E0,-1.187530518E0
1.835243471E0,-8.264785767E0,-6.253662109E0,-7.422027588E-1
1.840248354E0,-8.140289307E0,-6.502655029E0,-3.734893799E-1
1.845253237E0,-7.991851807E0,-6.766021729E0,-1.101379395E-1
1.850258119E0,-7.829040527E0,-6.928817749E0,8.619689941E-2
1.855232485E0,-7.675811768E0,-6.986282349E0,1.149291992E-1
1.860237367E0,-7.536941528E0,-6.991073608E0,1.053466797E-1
1.865242250E0,-7.575256348E0,-6.991073608E0,4.791259766E-3
1.870247133E0,-7.671020508E0,-7.024581909E0,-7.661437988E-2
1.875252016E0,-7.637496948E0,-7.043746948E0,-3.016662598E-1
1.880256899E0,-7.522583008E0,-7.053314209E0,-5.746154785E-1
1.885231264E0,-7.436386108E0,-7.082046509E0,-9.385223389E-1
1.890236147E0,-7.240066528E0,-7.043746948E0,-1.383850098E0
1.895241030E0,-7.163452148E0,-6.952758789E0,-1.714248657E0
1.900245912E0,-7.129928589E0,-6.794738770E0,-2.044647217E0
1.905250795E0,-7.129928589E0,-6.636734009E0,-2.427719116E0
1.910255678E0,-7.158660889E0,-6.526596069E0,-2.734176636E0
1.915260561E0,-7.134719849E0,-6.406890869E0,-2.992752075E0
1.920234926E0,-7.077255249E0,-6.344635010E0,-3.122039795E0
1.925239809E0,-7.015014648E0,-6.354217529E0,-3.174713135E0
1.930244692E0,-6.933609009E0,-6.426040649E0,-3.193862915E0
1.935249574E0,-6.890518188E0,-6.512222290E0,-3.203445435E0
1.940254457E0,-6.799530029E0,-6.675033569E0,-3.165130615E0
1.945259340E0,-6.679824829E0,-6.818679810E0,-2.968811035E0
1.950233705E0,-6.665451050E0,-7.058105469E0,-2.494750977E0
1.955238588E0,-6.799530029E0,-7.388504028E0,-1.886627197E0
1.960243471E0,-6.919250488E0,-7.685394287E0,-1.187530518E0
1.965248354E0,-6.995864868E0,-7.896072388E0,-4.357452393E-1
1.970253237E0,-7.115570068E0,-8.058883667E0,3.591308594E-1
1.975258119E0,-7.249649048E0,-8.145080566E0,1.010360718E0
1.980232485E0,-7.359771729E0,-8.274368286E0,1.441314697E0
1.985237367E0,-7.517791748E0,-8.370132446E0,1.742980957E0
1.990242250E0,-7.613555908E0,-8.341400146E0,1.752548218E0
1.995247133E0,-7.723693848E0,-8.197753906E0,1.465255737E0
2.000252016E0,-7.738067627E0,-8.006210327E0,9.481048584E-1
2.005256899E0,-7.599197388E0,-7.747634888E0,3.303985596E-1
2.010261781E0,-7.326263428E0,-7.426818848E0,-3.064575195E-1
2.015236147E0,-7.048522949E0,-7.134719849E0,-9.289550781E-1
2.020241030E0,-6.871353149E0,-6.924026489E0,-1.584960938E0
2.025245912E0,-6.703765869E0,-6.751647949E0,-2.207458496E0
2.030250795E0,-6.622360229E0,-6.603210449E0,-2.638412476E0
2.035255678E0,-6.665451050E0,-6.459548950E0,-2.973602295E0
2.040230043E0,-6.770797729E0,-6.363784790E0,-3.031066895E0
2.045234926E0,-6.938400269E0,-6.291961670E0,-2.964019775E0
2.050239809E0,-7.220916748E0,-6.220138550E0,-2.849105835E0
2.055244692E0,-7.570465088E0,-6.186614990E0,-2.547424316E0
2.060249574E0,-7.781158447E0,-6.153091431E0,-2.154785156E0
2.065254457E0,-7.900863647E0,-6.200988770E0,-1.709457397E0
2.070259340E0,-7.987060547E0,-6.445190430E0,-1.244979858E0
2.075233705E0,-7.977478027E0,-6.694183350E0,-8.331756592E-1
2.080238588E0,-7.848190308E0,-6.833053589E0,-6.272735596E-1
2.085243471E0,-7.608779907E0,-6.823471069E0,-5.458831787E-1
2.090248354E0,-7.158660889E0,-6.718124390E0,-6.751708984E-1
2.095253237E0,-6.622360229E0,-6.612777710E0,-9.481048584E-1
2.100258119E0,-6.215347290E0,-6.493072510E0,-1.355117798E0
2.105232485E0,-6.124374390E0,-6.325485229E0,-1.829162598E0
2.110237367E0,-6.110000610E0,-6.177047729E0,-2.322372437E0
2.115242250E0,-6.057327271E0,-6.028594971E0,-2.729385376E0
2.120247133E0,-5.995086670E0,-5.913681030E0,-3.040634155E0
2.125252016E0,-6.033386230E0,-6.608001709E0,-6.756439209E0
2.130256899E0,-5.406112671E0,-6.770797729E0,-7.220916748E0
2.135261781E0,-5.300765991E0,-6.239288330E0,-4.711791992E0
2.140236147E0,-5.434844971E0,-5.659896851E0,-2.853881836E0
2.145241030E0,-5.544967651E0,-5.458786011E0,-2.470809937E0
2.150245912E0,-5.904098511E0,-6.119583130E0,-2.667144775E0
2.155250795E0,-6.555328369E0,-7.292739868E0,-3.083724976E0
2.160255678E0,-6.924026489E0,-8.394073486E0,-3.241744995E0
2.165260561E0,-6.627151489E0,-8.738830566E0,-2.542648315E0
2.170234926E0,-6.205764771E0,-8.418014526E0,-1.666366577E0
2.175239809E0,-5.951980591E0,-8.125915527E0,-8.188171387E-1
2.180244692E0,-5.583282471E0,-7.805099487E0,-9.624633789E-1
2.185249574E0,-5.415679932E0,-7.589614868E0,-1.312026978E0
2.190254457E0,-5.128387451E0,-7.287948608E0,-1.766921997E0
2.195259340E0,-4.812347412E0,-6.995864868E0,-2.269699097E0
2.200233705E0,-4.644744873E0,-6.880935669E0,-2.638412476E0
2.205238588E0,-4.376602173E0,-6.689407349E0,-3.040634155E0
2.210243471E0,-3.332733154E0,-5.568908691E0,-2.849105835E0
2.215248354E0,-2.097320557E0,-4.424484253E0,-2.954452515E0
2.220253237E0,-1.383850098E0,-4.347869873E0,-2.614471436E0
2.225258119E0,-3.270477295E0,-7.240066528E0,-1.359909058E0
2.230263002E0,-5.999862671E0,-9.643844604E0,1.618484497E0
2.235237421E0,-6.430831909E0,-8.920791626E0,2.308013916E0
2.240242304E0,-6.282379150E0,-8.264785767E0,1.599319458E0
2.245247187E0,-3.730163574E0,-6.339843750E0,2.695877075E0
2.250252070E0,-3.916915894E0,-6.157882690E0,5.626373291E0
2.255256953E0,-5.846633911E0,-7.857772827E0,7.924804688E0
2.260261835E0,-6.766021729E0,-8.930374146E0,4.960784912E0
2.265236201E0,-8.145080566E0,-1.006523132E1,2.274490356E0
2.270241084E0,-9.753982544E0,-1.088882446E1,9.385223389E-1
2.275245966E0,-9.198516846E0,-1.002691650E1,-1.695098877E0
2.280250849E0,-6.991073608E0,-8.614334106E0,-5.588073730E0
2.285255732E0,-5.133163452E0,-6.981491089E0,-7.048522949E0
2.290260615E0,-4.553771973E0,-6.105209351E0,-6.651092529E0
2.295234980E0,-4.860229492E0,-6.081268311E0,-5.410888672E0
2.300239863E0,-5.975921631E0,-6.718124390E0,-3.667922974E0
2.305244746E0,-6.947967529E0,-7.742843628E0,-2.422927856E0
2.310249628E0,-7.015014648E0,-8.073242188E0,-1.465255737E0
2.315254511E0,-6.665451050E0,-7.852981567E0,-8.906402588E-1
2.320259394E0,-6.382934570E0,-7.690170288E0,-5.602416992E-1
2.325264277E0,-5.760452271E0,-7.431594849E0,-6.368560791E-1
2.330238642E0,-4.908111572E0,-6.991073608E0,-1.465255737E0
2.335243525E0,-4.467575073E0,-6.588836670E0,-2.370254517E0
2.340248408E0,-4.175491333E0,-6.392517090E0,-3.375823975E0
2.345253291E0,-3.998321533E0,-6.622360229E0,-4.046203613E0
2.350258173E0,-3.529052734E0,-6.555328369E0,-4.534622192E0
2.355263056E0,-3.548202515E0,-6.162673950E0,-4.654327393E0
2.360237421E0,-3.610458374E0,-6.014236450E0,-4.783615112E0
2.365242304E0,-3.658340454E0,-6.282379150E0,-4.874588013E0
2.370247187E0,-3.830718994E0,-6.713348389E0,-4.955993652E0
2.375252070E0,-4.204223633E0,-7.465118408E0,-4.285614014E0
2.380256953E0,-4.103668213E0,-8.169021606E0,-2.877838135E0
2.385261835E0,-4.228164673E0,-8.327026367E0,-9.193725586E-1
2.390236201E0,-4.568130493E0,-7.694961548E0,1.173156738E0
2.395241084E0,-3.998321533E0,-7.910446167E0,2.025497437E0
2.400245966E0,-2.944869995E0,-7.771575928E0,2.082962036E0
2.405250849E0,-2.604888916E0,-7.632720947E0,1.666366577E0
2.410255732E0,-2.245758057E0,-6.947967529E0,1.402999878E0
2.415260615E0,-1.934509277E0,-6.004653931E0,1.077392578E0
2.420234980E0,-1.699890137E0,-5.037399292E0,6.272735596E-1
2.425239863E0,-1.963241577E0,-4.687850952E0,-9.576416016E-2
2.430244746E0,-2.485183716E0,-5.147537231E0,-1.350326538E0
2.435249628E0,-3.246536255E0,-5.779602051E0,-2.743759155E0
2.440254511E0,-5.343856812E0,-5.707778931E0,-4.357452393E0
2.445259394E0,-6.545745850E0,-5.281616211E0,-4.113235474E0
2.450264277E0,-7.225708008E0,-5.707778931E0,-4.204223633E0
2.455238642E0,-7.388504028E0,-6.560119629E0,-4.582504272E0
2.460243525E0,-7.450759888E0,-7.723693848E0,-4.678268433E0
2.465248408E0,-7.015014648E0,-8.954315186E0,-4.903320312E0
2.470253291E0,-5.578491211E0,-9.083602905E0,-5.056549072E0
2.475258173E0,-3.687072754E0,-8.633499146E0,-4.711791992E0
2.480263056E0,-2.063796997E0,-4.003112793E0,-1.312026978E0
2.485237421E0,-1.867477417E0,-4.453216553E0,-3.241744995E0
2.490242304E0,-1.939300537E0,-7.742843628E0,-3.107681274E0
2.495247187E0,-2.130844116E0,-9.514556885E0,-1.680725098E0
2.500252070E0,-1.872268677E0,-9.461883545E0,-2.102111816E0
2.505256953E0,-2.427719116E0,-6.038177490E0,1.881835938E0
2.510261835E0,-3.490753174E0,-6.440399170E0,1.944091797E0
2.515236201E0,-4.620803833E0,-9.773132324E0,6.847381592E-1
2.520241084E0,-4.726150513E0,-1.212423706E1,-1.110916138E0
2.525245966E0,-4.180282593E0,-1.401086426E1,-3.375823975E0
2.530250849E0,-3.778045654E0,-1.538035583E1,-4.046203613E0
2.535255732E0,-3.696640015E0,-1.668280029E1,-3.797210693E0
2.540260615E0,-3.720596313E0,-1.697010803E1,-2.408569336E0
2.545265498E0,-4.261672974E0,-1.707545471E1,-1.642425537E0
2.550239863E0,-4.989517212E0,-1.908178711E1,7.278442383E-1
2.555244746E0,-4.357452393E0,-1.973779297E1,1.259353638E0
2.560249628E0,-4.501098633E0,-1.897644043E1,-5.123596191E-1
2.565254511E0,-4.697418213E0,-1.833000183E1,-2.288864136E0
2.570259394E0,-5.205001831E0,-1.756864929E1,-2.528274536E0
2.575264277E0,-5.367797852E0,-1.607467651E1,-2.346313477E0
2.580238642E0,-4.831497192E0,-1.426464844E1,-2.250549316E0
2.585243525E0,-4.553771973E0,-1.267968750E1,-2.212249756E0
2.590248408E0,-4.007888794E0,-1.077391052E1,-1.086975098E0
2.595253291E0,-3.270477295E0,-8.360549927E0,-8.331756592E-1
2.600258173E0,-7.374114990E-1,-4.620803833E0,-1.053466797E-1
2.605263056E0,-2.303222656E0,-5.329498291E0,-2.260131836E0
2.610237421E0,-3.222595215E0,-8.039733887E0,-1.757339478E0
2.615242304E0,-3.246536255E0,-8.288726807E0,-5.746459961E-2
2.620247187E0,-3.567367554E0,-8.968673706E0,-1.436462402E-1
2.625252070E0,-2.662353516E0,-9.059661865E0,-1.201889038E0
2.630256953E0,-2.173934937E0,-8.676589966E0,-2.944869995E0
2.635261835E0,-1.991973877E0,-8.628707886E0,-4.304779053E0
2.640236201E0,-2.355895996E0,-9.366119385E0,-5.525817871E0
2.645241084E0,-3.179504395E0,-1.033337402E1,-5.583282471E0
2.650245966E0,-3.979156494E0,-1.089361572E1,-5.003875732E0
2.655250849E0,-3.892974854E0,-1.048660278E1,-3.806777954E0
2.660255732E0,-3.251327515E0,-9.461883545E0,-2.647979736E0
2.665260615E0,-3.007110596E0,-9.064453125E0,-2.341522217E0
2.670265498E0,-2.796432495E0,-8.681381226E0,-2.217025757E0
2.675239863E0,-2.820373535E0,-8.494628906E0,-2.092529297E0
2.680244746E0,-2.873046875E0,-8.394073486E0,-2.054229736E0
2.685249628E0,-2.839523315E0,-8.298309326E0,-2.121261597E0
2.690254511E0,-2.686294556E0,-8.312667847E0,-2.341522217E0
2.695259394E0,-2.494750977E0,-8.408432007E0,-2.585739136E0
2.700264277E0,-2.738967896E0,-8.652648926E0,-2.825164795E0
2.705238642E0,-2.772491455E0,-9.121902466E0,-2.547424316E0
2.710243525E0,-1.383850098E0,-8.992614746E0,-2.197875977E0
2.715248408E0,-1.455673218E0,-8.734054565E0,-2.322372437E0
2.720253291E0,-1.814804077E0,-8.537719727E0,-2.308013916E0
2.725258173E0,-1.786071777E0,-8.508987427E0,-2.375045776E0
2.730263056E0,-1.963241577E0,-8.604766846E0,-2.571365356E0
2.735237421E0,-2.054229736E0,-8.710113525E0,-2.652770996E0
2.740242304E0,-2.087738037E0,-8.791503906E0,-2.643203735E0
2.745247187E0,-2.149993896E0,-8.959106445E0,-2.643203735E0
2.750252070E0,-2.102111816E0,-8.877700806E0,-2.552215576E0
2.755256953E0,-1.948883057E0,-8.427597046E0,-2.470809937E0
2.760261835E0,-1.704666138E0,-7.776367188E0,-2.413360596E0
2.765236201E0,-1.221038818E0,-6.540954590E0,-1.948883057E0
2.770241084E0,-8.475494385E-1,-5.176269531E0,-1.230621338E0
2.775245966E0,-7.900848389E-1,-4.367019653E0,-1.551437378E0
2.780250849E0,-7.757263184E-1,-4.122817993E0,-1.901000977E0
2.785255732E0,-8.283996582E-1,-4.328720093E0,-2.111679077E0
2.790260615E0,-8.906402588E-1,-4.750091553E0,-2.011123657E0
2.795265498E0,-1.192306519E0,-5.904098511E0,-1.790863037E0
2.800239863E0,-1.359909058E0,-7.019805908E0,-1.584960938E0
2.805244746E0,-1.431732178E0,-7.824249268E0,-1.723831177E0
2.810249628E0,-1.379058838E0,-8.279144287E0,-2.284072876E0
2.815254511E0,-1.374267578E0,-8.690948486E0,-2.791641235E0
2.820259394E0,-1.364700317E0,-8.973464966E0,-3.294418335E0
2.825264277E0,-1.221038818E0,-9.045288086E0,-3.385406494E0
2.830238642E0,-1.182739258E0,-9.217681885E0,-3.208236694E0
2.835213007E0,-1.048660278E0,-9.184158325E0,-3.174713135E0
2.840217890E0,-1.077392578E0,-8.729263306E0,-3.184295654E0
2.845222773E0,-1.005569458E0,-7.757217407E0,-3.069366455E0
2.850227656E0,-1.374267578E0,-6.904876709E0,-2.571365356E0
2.855232539E0,-8.714904785E-1,-5.228942871E0,-2.255340576E0
2.860206904E0,3.208160400E-1,-2.317581177E0,-1.944091797E0
2.865211787E0,-2.873229980E-2,-1.853118896E0,-1.719039917E0
2.870216669E0,1.005554199E-1,-2.102111816E0,-1.422149658E0
2.875221552E0,9.241638184E-1,-2.217025757E0,-1.647216797E0
2.880226435E0,6.560058594E-1,-3.998321533E0,-1.532287598E0
2.885200800E0,1.029510498E0,-4.984725952E0,-1.125274658E0
2.890205683E0,1.321594238E0,-5.683837891E0,-2.183517456E0
2.895210566E0,8.619079590E-1,-7.627929688E0,-2.662353516E0
2.900215449E0,2.250518799E-1,-1.080264282E1,-2.700653076E0
2.905220332E0,-6.368560791E-1,-1.544259644E1,-2.389419556E0
2.910225214E0,1.628112793E-1,-1.566287231E1,-3.270477295E0
2.915199580E0,-7.182312012E-2,-1.590228271E1,-3.490753174E0
2.920204462E0,-3.734893799E-1,-1.555752563E1,-3.428497314E0
2.925209345E0,-3.974304199E-1,-1.448971558E1,-3.816360474E0
2.930214228E0,-7.278442383E-1,-1.316331482E1,-3.888183594E0
2.935219111E0,-7.086791992E-1,-1.199974060E1,-3.342300415E0
2.940193476E0,-6.655883789E-1,-1.141076660E1,-2.734176636E0
2.945198359E0,-2.633666992E-1,-1.031901550E1,-2.264907837E0
2.950203242E0,3.447723389E-1,-8.686157227E0,-1.359909058E0
2.955208125E0,8.092346191E-1,-7.426818848E0,-1.106124878E0
2.960213007E0,5.458831787E-1,-5.420471191E0,-1.115692139E0
2.965217890E0,7.134704590E-1,-2.911346436E0,-1.292861938E0
2.970192255E0,1.177947998E0,-1.144424438E0,-9.097900391E-1
2.975197138E0,1.431732178E0,-4.309082031E-2,-1.168365479E0
2.980202021E0,2.202667236E0,4.118041992E-1,-2.729385376E0
2.985206904E0,3.950439453E0,-1.661575317E0,-3.213012695E0
2.990211787E0,3.797210693E0,-4.625595093E0,-2.829940796E0
2.995216669E0,3.031066895E0,-8.111557007E0,-4.050994873E0
3.000191035E0,2.260131836E0,-1.128147888E1,-3.203445435E0
3.005195918E0,-9.576416016E-2,-1.165019226E1,-1.235412598E0
3.010200800E0,-4.836273193E-1,-1.206198120E1,4.022216797E-1
3.015205683E0,-6.081237793E-1,-1.221043396E1,8.092346191E-1
3.020210566E0,-8.619689941E-2,-1.365173340E1,-6.560058594E-1
3.025184931E0,-2.968750000E-1,-1.301008606E1,-1.264144897E0
3.030189814E0,-1.288085938E0,-1.352244568E1,-1.714248657E0
3.035194697E0,-1.800445557E0,-1.453759766E1,-1.565811157E0
3.040199580E0,-2.054229736E0,-1.620874023E1,-1.915435791E-1
3.045204462E0,-2.370254517E0,-1.781286621E1,-8.666992188E-1
3.050209345E0,-2.217025757E0,-1.930204773E1,-1.661575317E0
3.055397334E0,-2.063796997E0,-2.088702393E1,-1.948883057E0
3.060585322E0,-2.427719116E0,-2.347753906E1,-2.983169556E0
3.065346064E0,-1.690307617E0,-2.471774292E1,-3.241744995E0
3.070411982E0,-2.197875977E0,-2.505293274E1,-3.634399414E0
3.075416865E0,-4.046203613E0,-2.263957214E1,-4.343078613E0
3.080421748E0,-4.601654053E0,-1.672589111E1,-3.758895874E0
3.085426630E0,-2.992752075E0,-1.263180542E1,-3.213012695E0
3.090431513E0,-1.877059937E0,-1.112825012E1,-3.107681274E0
3.095436396E0,-1.149215698E0,-1.046745300E1,-3.380615234E0
3.100441279E0,-6.416473389E-1,-9.883270264E0,-3.380615234E0
3.105415644E0,1.005554199E-1,-8.882492065E0,-3.332733154E0
3.110420527E0,1.039077759E0,-8.173797607E0,-2.954452515E0
3.115394892E0,2.039855957E0,-8.111557007E0,-2.322372437E0
3.120369257E0,2.715026855E0,-8.346191406E0,-1.733398438E0
3.125374140E0,2.906555176E0,-7.905654907E0,-1.240203857E0
3.130379023E0,2.585739136E0,-7.565673828E0,-7.517852783E-1
3.135353388E0,2.020706177E0,-7.680603027E0,-4.261627197E-1
3.140358271E0,1.450881958E0,-7.953536987E0,-5.363006592E-1
3.145332636E0,8.858489990E-1,-7.948745728E0,-9.624633789E-1
3.150337519E0,2.394256592E-1,-8.063674927E0,-1.326385498E0
3.155342402E0,1.435852051E-2,-8.738830566E0,-1.776504517E0
3.160347285E0,-8.906402588E-1,-8.930374146E0,-1.910568237E0
3.165321650E0,-9.528961182E-1,-9.356536865E0,-1.833953857E0
3.170326533E0,-6.847381592E-1,-1.000297546E1,-2.068588257E0
3.175331416E0,-4.501037598E-1,-1.020887756E1,-2.341522217E0
3.180305781E0,-1.340789795E-1,-1.034774780E1,-2.609680176E0
3.185310664E0,9.097290039E-2,-9.662994385E0,-2.398986816E0
3.190315546E0,5.458831787E-1,-9.476257324E0,-2.298431396E0
3.195289912E0,7.278442383E-1,-9.868896484E0,-2.801208496E0
3.200294794E0,6.416473389E-1,-1.015620422E1,-2.930496216E0
3.205299677E0,3.926544189E-1,-1.013705444E1,-2.825164795E0
3.210304560E0,2.154846191E-1,-9.878479004E0,-2.571365356E0
3.215278925E0,2.011108398E-1,-9.653427124E0,-2.269699097E0
3.220283808E0,3.256072998E-1,-9.595962524E0,-2.025497437E0
3.225288691E0,3.639221191E-1,-9.682159424E0,-1.953674316E0
3.230293574E0,1.963195801E-1,-9.744400024E0,-1.709457397E0
3.235267939E0,1.580200195E-1,-9.667785645E0,-1.608901978E0
3.240272822E0,2.202606201E-1,-9.610321045E0,-1.417373657E0
3.245277705E0,4.165954590E-1,-9.624694824E0,-1.359909058E0
3.250282587E0,7.230529785E-1,-9.548080444E0,-1.259353638E0
3.255256953E0,8.666992188E-1,-9.552871704E0,-1.321594238E0
3.260261835E0,1.106124878E0,-9.749191284E0,-1.465255737E0
3.265266718E0,1.264144897E0,-9.677368164E0,-1.101333618E0
3.270271601E0,1.273712158E0,-9.730041504E0,-1.106124878E0
3.275245966E0,1.273712158E0,-9.648635864E0,-1.077392578E0
3.280250849E0,1.182739258E0,-9.619903564E0,-1.000778198E0
3.285255732E0,1.091751099E0,-9.591171265E0,-9.911956787E-1
3.290260615E0,9.864044189E-1,-9.543289185E0,-1.015136719E0
3.295234980E0,9.433135986E-1,-9.428359985E0,-1.000778198E0
3.300239863E0,1.091751099E0,-9.294296265E0,-8.523406982E-1
3.305244746E0,1.431732178E0,-9.179367065E0,-5.841827393E-1
3.310249628E0,1.790863037E0,-9.136276245E0,-4.118041992E-1
3.315223994E0,2.049438477E0,-9.102752686E0,-5.219421387E-1
3.320228876E0,2.384628296E0,-9.241622925E0,-4.453277588E-1
3.325233759E0,2.202667236E0,-9.016571045E0,-2.920989990E-1
3.330238642E0,2.063796997E0,-9.040512085E0,-4.884185791E-1
3.335213007E0,2.159576416E0,-9.313446045E0,-2.059020996E-1
3.340217890E0,1.867477417E0,-9.303863525E0,1.628112793E-1
3.345222773E0,1.651992798E0,-9.303863525E0,5.075683594E-1
3.350227656E0,2.006347656E0,-9.701309204E0,1.005569458E0
3.355202021E0,1.786071777E0,-9.658203125E0,1.589752197E0
3.360206904E0,1.584960938E0,-9.686935425E0,1.632843018E0
3.365211787E0,9.193725586E-1,-9.428359985E0,1.417373657E0
3.370216669E0,2.011108398E-1,-8.925582886E0,9.002227783E-1
3.375191035E0,-2.011108398E-1,-8.805877686E0,2.011108398E-1
3.380195918E0,4.357452393E-1,-9.552871704E0,-3.160400391E-1
3.385200800E0,1.340759277E0,-1.027590942E1,1.197052002E-1
3.390205683E0,1.244979858E0,-1.040040588E1,4.932098389E-1
3.395210566E0,9.624633789E-1,-1.020408630E1,3.351898193E-1
3.400245966E0,6.751708984E-1,-1.003170776E1,-2.873229980E-2
3.405281367E0,6.607971191E-1,-9.868896484E0,-7.182312012E-2
3.410225214E0,8.571166992E-1,-9.878479004E0,6.703186035E-2
3.415179066E0,9.672546387E-1,-9.931152344E0,4.165954590E-1
3.420122914E0,7.948760986E-1,-9.725250244E0,6.895294189E-1
3.425066761E0,6.272735596E-1,-9.629486084E0,8.092346191E-1
3.430041127E0,2.585754395E-1,-9.428359985E0,5.793914795E-1
3.435015492E0,3.495483398E-1,-9.509765625E0,4.548950195E-1
3.439989857E0,2.154846191E-1,-9.466674805E0,5.650329590E-1
3.444994740E0,-1.244964600E-1,-9.409210205E0,5.506591797E-1
3.449969105E0,-6.751708984E-1,-9.112335205E0,4.501037598E-1
3.454943470E0,-1.067810059E0,-9.050079346E0,1.819610596E-1
3.459948353E0,-1.187530518E0,-9.193740845E0,1.723785400E-1
3.464922718E0,-1.216247559E0,-9.442733765E0,3.687133789E-1
3.469927601E0,-1.335968018E0,-9.691726685E0,6.416473389E-1
3.474932484E0,-1.292861938E0,-9.768341064E0,5.027770996E-1
3.479906849E0,-1.326385498E0,-9.753982544E0,5.410919189E-1
3.484911732E0,-1.345535278E0,-9.749191284E0,5.841827393E-1
3.489886097E0,-1.393432617E0,-9.916778564E0,6.799468994E-1
3.494890980E0,-1.398208618E0,-1.016099548E1,6.703796387E-1
3.499895863E0,-1.359909058E0,-1.032858276E1,5.793914795E-1
3.504900746E0,-1.340759277E0,-1.040998840E1,5.698242188E-1
3.509905629E0,-1.278503418E0,-1.047224426E1,4.980010986E-1
3.514879994E0,-1.216247559E0,-1.049139404E1,5.458831787E-1
3.519884877E0,-1.043869019E0,-1.052012634E1,6.033325195E-1
3.524859242E0,-7.086791992E-1,-1.070208740E1,5.171508789E-1
3.529864125E0,-3.639221191E-1,-1.074996948E1,4.357452393E-1
3.534869007E0,-1.628112793E-1,-1.066856384E1,4.118041992E-1
3.539843373E0,-3.352355957E-2,-1.055842590E1,3.782806396E-1
3.544848255E0,1.580200195E-1,-1.038604736E1,3.112487793E-1
3.549853138E0,2.106933594E-1,-1.018014526E1,3.351898193E-1
3.554858021E0,2.059020996E-1,-1.003170776E1,4.692687988E-1
3.559832386E0,3.064575195E-1,-9.888046265E0,7.230529785E-1
3.564837269E0,4.165954590E-1,-9.725250244E0,1.005569458E0
3.569842152E0,6.512298584E-1,-9.528930664E0,9.433135986E-1
3.574847035E0,7.134704590E-1,-9.485824585E0,1.039077759E0
3.579821400E0,7.422027588E-1,-9.500198364E0,1.216247559E0
3.584826283E0,7.326202393E-1,-9.552871704E0,1.436523438E0
3.589831166E0,8.427581787E-1,-9.572021484E0,1.417373657E0
3.594836048E0,7.422027588E-1,-9.715667725E0,1.120483398E0
3.599810414E0,6.320648193E-1,-9.768341064E0,1.053451538E0
3.604815297E0,5.123596191E-1,-9.691726685E0,1.201889038E0
3.609820179E0,3.256072998E-1,-9.653427124E0,1.355117798E0
3.614825062E0,1.388702393E-1,-9.538497925E0,1.412582397E0
3.619799427E0,-8.140563965E-2,-9.423583984E0,1.541870117E0
3.624804310E0,-2.250518799E-1,-9.346969604E0,1.446090698E0
3.629809193E0,-3.974304199E-1,-9.366119385E0,1.359909058E0
3.634814076E0,-6.368560791E-1,-9.428359985E0,1.302444458E0
3.639788441E0,-8.954315186E-1,-9.528930664E0,1.206680298E0
3.644793324E0,-1.058242798E0,-9.591171265E0,1.144424438E0
3.649798207E0,-1.043869019E0,-9.658203125E0,1.130065918E0
3.654803089E0,-8.188171387E-1,-9.768341064E0,1.048660278E0
3.659777455E0,-6.847381592E-1,-1.000297546E1,1.115692139E0
3.664782338E0,-6.033325195E-1,-1.024240112E1,1.125274658E0
3.669787220E0,-4.836273193E-1,-1.038604736E1,1.249771118E0
3.674792103E0,-4.213867188E-1,-1.035252380E1,1.259353638E0
3.679766468E0,-3.974304199E-1,-1.029985046E1,1.173156738E0
3.684771351E0,-3.399810791E-1,-1.021366882E1,1.048660278E0
3.689776234E0,-1.771697998E-1,-1.012747192E1,1.024719238E0
3.694781117E0,-1.435852051E-2,-1.001255798E1,9.816284180E-1
3.699755482E0,1.723785400E-1,-9.935943604E0,8.810729980E-1
3.704760365E0,3.160400391E-1,-9.950302124E0,8.092346191E-1
3.709765248E0,3.926544189E-1,-1.005564880E1,8.236083984E-1
3.714770130E0,5.315093994E-1,-9.950302124E0,8.236083984E-1
3.719744496E0,5.410919189E-1,-9.792282104E0,8.475494385E-1
3.724749379E0,4.788360596E-1,-9.677368164E0,7.326202393E-1
3.729754261E0,3.495483398E-1,-9.696517944E0,5.123596191E-1
3.734759144E0,2.394256592E-1,-9.763549805E0,3.495483398E-1
3.740069203E0,1.723785400E-1,-9.773132324E0,2.442016602E-1
3.745409779E0,1.244964600E-1,-9.811431885E0,2.059020996E-1
3.750017933E0,1.723785400E-1,-9.873687744E0,4.070129395E-1
3.755297474E0,2.537841797E-1,-9.964660645E0,5.985565186E-1
3.760424427E0,2.825164795E-1,-1.012747192E1,8.619079590E-1
3.765429310E0,3.112487793E-1,-1.035731506E1,1.010360718E0
3.770434193E0,3.160400391E-1,-1.055842590E1,1.139633179E0
3.775439076E0,3.016662598E-1,-1.059674072E1,1.331176758E0
3.780474476E0,2.825164795E-1,-1.054406738E1,1.398208618E0
3.785479359E0,3.399810791E-1,-1.041477966E1,1.355117798E0
3.790484242E0,4.453277588E-1,-1.023760986E1,1.307235718E0
3.795458607E0,5.889739990E-1,-1.006044006E1,1.197097778E0
3.800432972E0,7.900848389E-1,-9.873687744E0,1.086975098E0
3.805407338E0,1.000778198E0,-9.744400024E0,1.000778198E0
3.810381703E0,1.144424438E0,-9.624694824E0,9.624633789E-1
3.815386586E0,1.283294678E0,-9.548080444E0,9.576873779E-1
3.820391468E0,1.402999878E0,-9.418792725E0,9.241638184E-1
3.825365834E0,1.383850098E0,-9.284713745E0,9.145812988E-1
3.830370716E0,1.273712158E0,-9.102752686E0,1.058242798E0
3.835345082E0,1.082183838E0,-8.973464966E0,1.201889038E0
3.840349964E0,8.379669189E-1,-8.896850586E0,1.369476318E0
3.845354847E0,5.698242188E-1,-8.877700806E0,1.537078857E0
3.850359730E0,3.208160400E-1,-8.930374146E0,1.632843018E0
3.855334095E0,7.661437988E-2,-9.045288086E0,1.561019897E0
3.860338978E0,-4.309082031E-2,-9.255981445E0,1.383850098E0
3.865313343E0,-3.352355957E-2,-9.385269165E0,1.288085938E0
3.870318226E0,-1.435852051E-2,-9.476257324E0,1.177947998E0
3.875323109E0,1.292877197E-1,-9.591171265E0,1.053451538E0
3.880327992E0,3.830718994E-1,-9.715667725E0,1.005569458E0
3.885332875E0,5.937652588E-1,-9.777923584E0,1.015136719E0
3.890337757E0,7.805023193E-1,-9.830596924E0,9.768371582E-1
3.895312123E0,9.911956787E-1,-9.849746704E0,9.959869385E-1
3.900317005E0,1.163589478E0,-9.888046265E0,9.720458984E-1
3.905321888E0,1.273712158E0,-9.878479004E0,9.241638184E-1
3.910326771E0,1.288085938E0,-9.921569824E0,8.188171387E-1
3.915331654E0,1.244979858E0,-9.983825684E0,7.230529785E-1
3.920336537E0,1.211471558E0,-9.979034424E0,6.847381592E-1
3.925310902E0,1.264144897E0,-9.998184204E0,6.991119385E-1
3.930315785E0,1.149215698E0,-1.005564880E1,6.368560791E-1
3.935320668E0,1.082183838E0,-1.009394836E1,6.177062988E-1
3.940325550E0,1.086975098E0,-1.016099548E1,6.129150391E-1
3.945330433E0,1.000778198E0,-1.019450378E1,5.506591797E-1
3.950335316E0,9.002227783E-1,-1.017535400E1,5.267181396E-1
3.955309681E0,8.379669189E-1,-1.013226318E1,5.937652588E-1
3.960314564E0,7.517852783E-1,-1.009394836E1,7.278442383E-1
3.965319447E0,6.224975586E-1,-1.016578674E1,6.464385986E-1
3.970324330E0,5.458831787E-1,-1.018014526E1,6.177062988E-1
3.975329213E0,4.596862793E-1,-1.017535400E1,6.416473389E-1
3.980334095E0,2.968750000E-1,-1.023281860E1,4.405364990E-1
3.985338978E0,2.346343994E-1,-1.018493652E1,3.878631592E-1
3.990313343E0,4.788208008E-2,-1.024717712E1,3.447723389E-1
3.995318226E0,-6.225585938E-2,-1.025675964E1,2.442016602E-1
4.000323109E0,-1.867523193E-1,-1.027111816E1,1.675872803E-1
4.005327992E0,-2.250518799E-1,-1.013705444E1,2.585754395E-1
4.010332875E0,-2.873077393E-1,-1.006044006E1,3.399810791E-1
4.015337757E0,-3.639221191E-1,-9.983825684E0,3.830718994E-1
4.020312123E0,-3.974304199E-1,-9.868896484E0,4.213867188E-1
4.025317005E0,-4.261627197E-1,-9.730041504E0,4.213867188E-1
4.030321888E0,-4.022216797E-1,-9.600753784E0,4.405364990E-1
4.035326771E0,-3.734893799E-1,-9.490615845E0,4.884185791E-1
4.040331654E0,-3.591308594E-1,-9.514556885E0,3.208160400E-1
4.045336537E0,-3.112487793E-1,-9.447525024E0,2.777252197E-1
4.050310902E0,-2.633666992E-1,-9.385269165E0,3.878631592E-1
4.055315785E0,-2.585754395E-1,-9.323028564E0,4.980010986E-1
4.060320668E0,-2.633666992E-1,-9.265563965E0,6.703796387E-1
4.065325550E0,-2.489929199E-1,-9.275131226E0,8.044586182E-1
4.070330433E0,-1.963195801E-1,-9.241622925E0,7.996673584E-1
4.075335316E0,-1.771697998E-1,-9.251190186E0,7.278442383E-1
4.080340199E0,-1.915435791E-1,-9.284713745E0,6.655883789E-1
4.085528187E0,-1.963195801E-1,-9.351745605E0,5.363006592E-1
4.090716175E0,-2.202606201E-1,-9.433151245E0,3.734893799E-1
4.095141224E0,-2.442016602E-1,-9.557647705E0,1.771697998E-1
4.100298695E0,-2.729339600E-1,-9.758773804E0,1.914978027E-2
4.105425648E0,-3.016662598E-1,-1.010832214E1,-1.292877197E-1
4.110430531E0,-3.256072998E-1,-1.061109924E1,-1.771697998E-1
4.115435414E0,-3.160400391E-1,-1.125753784E1,-1.292877197E-1
4.120440297E0,-3.447723389E-1,-1.206677246E1,1.197052002E-1
4.125445179E0,-4.740447998E-1,-1.305319214E1,3.351898193E-1
4.130450062E0,-5.650329590E-1,-1.389115906E1,4.884185791E-1
4.135454945E0,-7.805023193E-1,-1.456632996E1,5.746154785E-1
4.140429310E0,-1.125274658E0,-1.504995728E1,5.027770996E-1
4.145434193E0,-1.417373657E0,-1.510263062E1,2.633666992E-1
4.150408558E0,-1.680725098E0,-1.469082642E1,-8.619689941E-2
4.155413441E0,-1.766921997E0,-1.385284424E1,-5.889739990E-1
4.160387806E0,-1.848327637E0,-1.307713318E1,-1.187530518E0
4.165392689E0,-1.699890137E0,-1.227746582E1,-1.766921997E0
4.170367054E0,-1.350326538E0,-1.154963684E1,-2.437301636E0
4.175371937E0,-7.230529785E-1,-1.076432800E1,-3.035842896E0
4.180376820E0,2.250518799E-1,-1.002212524E1,-3.514694214E0
4.185351185E0,1.197097778E0,-9.476257324E0,-3.940856934E0
4.190356068E0,2.255340576E0,-9.074020386E0,-4.477157593E0
4.195360951E0,3.327941895E0,-8.805877686E0,-5.013458252E0
4.200365834E0,4.060562134E0,-8.633499146E0,-5.559341431E0
4.205370716E0,4.596862793E0,-8.480270386E0,-5.980712891E0
4.210345082E0,4.893753052E0,-8.537719727E0,-6.612777710E0
4.215349964E0,4.879379272E0,-8.801086426E0,-7.096420288E0
4.220354847E0,4.577713013E0,-9.179367065E0,-6.938400269E0
4.225359730E0,4.132385254E0,-9.485824585E0,-5.999862671E0
4.230364613E0,3.438079834E0,-9.864105225E0,-4.917694092E0
4.235338978E0,2.671936035E0,-1.013226318E1,-3.691864014E0
4.240343861E0,1.881835938E0,-1.052012634E1,-3.088516235E0
4.245348744E0,1.565811157E0,-1.070686340E1,-2.226608276E0
4.250353627E0,1.948883057E0,-1.077870178E1,-1.273712158E0
4.255358509E0,2.312805176E0,-1.068292236E1,-1.484375000E-1
4.260332875E0,2.001556396E0,-1.079785156E1,6.560058594E-1
4.265337757E0,1.422149658E0,-1.093670654E1,1.561019897E0
4.270342640E0,1.043869019E0,-1.118092346E1,1.987182617E0
4.275347523E0,4.644775391E-1,-1.150173950E1,2.250549316E0
4.280352406E0,-3.831481934E-2,-1.180342102E1,2.561798096E0
4.285357289E0,-1.819610596E-1,-1.185130310E1,2.580947876E0
4.290331654E0,-5.123596191E-1,-1.173158264E1,2.786849976E0
4.295336537E0,-1.283294678E0,-1.197579956E1,2.777267456E0
4.300341420E0,-2.437301636E0,-1.255998230E1,2.911346436E0
4.305346302E0,-3.418914795E0,-1.298136902E1,3.399765015E0
4.310351185E0,-3.687072754E0,-1.312022400E1,3.505111694E0
4.315325550E0,-2.389419556E0,-1.272279358E1,1.901000977E0
4.320330433E0,-1.848327637E0,-1.274673462E1,1.235412598E0
4.325335316E0,-1.527496338E0,-1.266532898E1,5.410919189E-1
4.330340199E0,-1.043869019E0,-1.246421814E1,1.388702393E-1
4.335345082E0,-5.793914795E-1,-1.212423706E1,-6.225585938E-2
4.340319447E0,-2.585754395E-1,-1.168370056E1,-4.070129395E-1
4.345324330E0,8.619689941E-2,-1.118571472E1,-7.852935791E-1
4.350329213E0,3.064575195E-1,-1.078826904E1,-1.096542358E0
4.355334095E0,4.213867188E-1,-1.051054382E1,-1.374267578E0
4.360338978E0,4.022216797E-1,-1.027590942E1,-1.398208618E0
4.365343861E0,3.591308594E-1,-1.011788940E1,-1.470046997E0
4.370318226E0,4.836273193E-1,-1.001255798E1,-1.484405518E0
4.375323109E0,6.272735596E-1,-9.806655884E0,-1.307235718E0
4.380327992E0,7.182617188E-1,-9.643844604E0,-1.206680298E0
4.385332875E0,8.571166992E-1,-9.514556885E0,-1.134857178E0
4.390337757E0,9.002227783E-1,-9.600753784E0,-1.091751099E0
4.395312123E0,1.139633179E0,-9.260772705E0,-7.852935791E-1
4.400317005E0,1.273712158E0,-9.265563965E0,-6.272735596E-1
4.405321888E0,1.446090698E0,-9.313446045E0,-3.495483398E-1
4.410326771E0,1.537078857E0,-9.246414185E0,-2.011108398E-1
4.415331654E0,1.383850098E0,-9.069229126E0,-1.005554199E-1
4.420336537E0,1.484405518E0,-8.729263306E0,2.442016602E-1
4.425371937E0,2.274490356E0,-9.375701904E0,3.303985596E-1
4.430376820E0,2.044647217E0,-1.018014526E1,1.149291992E-1
4.435412220E0,1.877059937E0,-1.018493652E1,2.825164795E-1
4.440356068E0,2.303222656E0,-1.014184570E1,3.160400391E-1
4.445330433E0,2.748550415E0,-1.001255798E1,4.740447998E-1
4.450304798E0,3.031066895E0,-9.854537964E0,6.655883789E-1
4.455279164E0,3.251327515E0,-9.662994385E0,7.422027588E-1
4.460253529E0,3.337524414E0,-9.442733765E0,7.469940186E-1
4.465227894E0,3.375823975E0,-9.083602905E0,6.607971191E-1
4.470202259E0,3.323150635E0,-8.714889526E0,4.644775391E-1
4.475207142E0,3.136398315E0,-8.312667847E0,2.489929199E-1
4.480181507E0,2.987960815E0,-7.843399048E0,1.292877197E-1
4.485186390E0,2.863464355E0,-7.398086548E0,1.532287598E-1
4.490191273E0,2.738967896E0,-6.971908569E0,9.097290039E-2
4.495165638E0,2.633621216E0,-6.579269409E0,4.788208008E-2
4.500170521E0,2.614471436E0,-6.287170410E0,3.352355957E-2
4.505175404E0,2.676712036E0,-6.071701050E0,7.182312012E-2
4.510149769E0,2.786849976E0,-5.913681030E0,8.140563965E-2
4.515154652E0,2.896987915E0,-5.793975830E0,1.053466797E-1
4.520159535E0,3.069366455E0,-5.659896851E0,8.619689941E-2
4.525164418E0,3.193862915E0,-5.631164551E0,6.703186035E-2
4.530138783E0,3.299209595E0,-5.664688110E0,5.746459961E-2
4.535143666E0,3.375823975E0,-5.698196411E0,5.267333984E-2
4.540148548E0,3.385406494E0,-5.736511230E0,3.831481934E-2
4.545153431E0,3.385406494E0,-5.798751831E0,4.309082031E-2
4.550158314E0,3.361465454E0,-5.837066650E0,7.182312012E-2
4.555132679E0,3.351882935E0,-5.865798950E0,9.097290039E-2
4.560137562E0,3.385406494E0,-5.880157471E0,1.101379395E-1
4.565142445E0,3.371032715E0,-5.908889771E0,1.723785400E-1
4.570147328E0,3.299209595E0,-5.942413330E0,2.154846191E-1
4.575152211E0,3.232177734E0,-5.947204590E0,2.633666992E-1
4.580157093E0,3.203445435E0,-5.951980591E0,2.585754395E-1
4.585161976E0,3.169921875E0,-5.961563110E0,2.298431396E-1
4.590136341E0,3.083724976E0,-5.995086670E0,1.915435791E-1
4.595141224E0,3.050216675E0,-6.038177490E0,1.101379395E-1
4.600146107E0,2.973602295E0,-6.157882690E0,1.435852051E-2
4.605150990E0,2.777267456E0,-6.354217529E0,-1.197052002E-1
4.610155873E0,2.528274536E0,-6.588836670E0,-2.873077393E-1
4.615160755E0,2.183517456E0,-6.880935669E0,-5.793914795E-1
4.620165638E0,1.790863037E0,-7.264007568E0,-1.024719238E0
4.625140004E0,1.240203857E0,-7.762008667E0,-1.455673218E0
4.630144886E0,5.171508789E-1,-8.365341187E0,-2.035064697E0
4.635149769E0,-2.489929199E-1,-9.040512085E0,-2.949661255E0
4.640154652E0,-9.864044189E-1,-9.926361084E0,-4.276046753E0
4.645159535E0,-1.551437378E0,-1.108036804E1,-6.143524170E0
4.650164418E0,-2.264907837E0,-1.265095520E1,-8.441955566E0
4.655169300E0,-2.925720215E0,-1.465730286E1,-1.084094238E1
4.660143666E0,-4.141967773E0,-1.710417175E1,-1.335485840E1
4.665148548E0,-6.531387329E0,-2.025015259E1,-1.629493713E1
4.670153431E0,-8.556884766E0,-2.308967590E1,-1.689349365E1
4.675158314E0,-9.686935425E0,-2.487097168E1,-1.538992310E1
4.680163197E0,-8.231262207E0,-2.487097168E1,-1.351287842E1
4.685168080E0,-5.042190552E0,-2.287420654E1,-1.126232910E1
4.690172963E0,-2.619262695E0,-1.935951233E1,-9.212890625E0
4.695147328E0,-1.924942017E0,-1.525585938E1,-8.456314087E0
4.700152211E0,-1.331176758E0,-1.129106140E1,-7.694961548E0
4.705157093E0,-2.011108398E-1,-7.848190308E0,-6.555328369E0
4.710161976E0,1.388641357E0,-4.774032593E0,-5.137954712E0
4.715166859E0,3.055007935E0,-2.207458496E0,-3.294418335E0
4.720171742E0,4.932052612E0,-1.340789795E-1,-1.556228638E0
4.725176625E0,6.890518188E0,1.489196777E0,-1.723785400E-1
4.730150990E0,8.403656006E0,2.470809937E0,8.571166992E-1
4.735155873E0,9.504974365E0,2.911346436E0,1.939300537E0
4.740160755E0,1.006044006E1,2.681503296E0,3.275268555E0
4.745165638E0,9.294296265E0,1.604110718E0,5.066131592E0
4.750170521E0,8.346191406E0,1.005554199E-1,6.550537109E0
4.755175404E0,7.522583008E0,-1.647216797E0,7.656661987E0
4.760180287E0,6.622360229E0,-3.816360474E0,8.676589966E0
4.765185170E0,6.296752930E0,-6.344635010E0,9.275131226E0
4.770495228E0,6.153091431E0,-9.150634766E0,9.457092285E0
4.775805287E0,5.434844971E0,-1.218649292E1,9.040512085E0
4.780443959E0,4.572921753E0,-1.561019897E1,8.322250366E0
4.785448841E0,3.490753174E0,-1.981919861E1,6.828262329E0
4.790484242E0,1.201889038E0,-2.449269104E1,3.701431274E0
4.795489125E0,-2.614471436E0,-2.862028503E1,-1.920150757E0
4.800494007E0,-6.976699829E0,-3.159388733E1,-1.043392944E1
4.805468373E0,-1.191833496E1,-3.402160645E1,-1.946965027E1
4.810442738E0,-1.768357849E1,-3.492182922E1,-2.359246826E1
4.815417103E0,-1.585440063E1,-2.901773071E1,-1.882321167E1
4.820391468E0,-1.158793640E1,-2.028367615E1,-1.343626404E1
4.825396351E0,-8.753204346E0,-1.440351868E1,-1.037646484E1
4.830401234E0,-5.755661011E0,-9.816223145E0,-8.365341187E0
4.835375599E0,-3.380615234E0,-5.966354370E0,-6.167465210E0
4.840380482E0,-2.059020996E-1,-2.485183716E0,-3.634399414E0
4.845354847E0,3.174713135E0,2.489929199E-1,-5.554504395E-1
4.850359730E0,6.181823730E0,2.015914917E0,4.395751953E0
4.855364613E0,7.034164429E0,2.916137695E0,7.900863647E0
4.860369496E0,1.052969360E1,3.466796875E0,9.246414185E0
4.865343861E0,1.203326416E1,3.916915894E0,1.121444702E1
4.870348744E0,1.174595642E1,3.131622314E0,1.186087036E1
4.875353627E0,1.054885864E1,9.289550781E-1,1.148738098E1
4.880358509E0,9.557647705E0,-1.268920898E0,9.912002563E0
4.885332875E0,8.494628906E0,-3.074157715E0,8.116348267E0
4.890337757E0,7.996627808E0,-4.860229492E0,6.392517090E0
4.895312123E0,7.656661987E0,-6.694183350E0,4.678268433E0
4.900317005E0,6.952758789E0,-8.820236206E0,3.002334595E0
4.905321888E0,5.688629150E0,-1.116654968E1,1.470046997E0
4.910326771E0,4.132385254E0,-1.293826294E1,6.225585938E-2
4.915331654E0,2.260131836E0,-1.434126282E1,-1.824386597E0
4.920336537E0,1.915435791E-1,-1.582566833E1,-4.553771973E0
4.925310902E0,-3.174713135E0,-1.753514099E1,-7.781158447E0
4.930315785E0,-6.651092529E0,-1.894770813E1,-8.480270386E0
4.935320668E0,-9.734817505E0,-1.955105591E1,-6.833053589E0
4.940325550E0,-1.154484558E1,-1.908657837E1,-5.070922852E0
4.945330433E0,-1.151132202E1,-1.755908203E1,-2.868255615E0
4.950335316E0,-1.034774780E1,-1.492066956E1,-7.900848389E-1
4.955309681E0,-8.078033447E0,-1.233493042E1,3.016662598E-1
4.960314564E0,-5.841857910E0,-1.051054382E1,7.326202393E-1
4.965319447E0,-4.208999634E0,-9.433151245E0,9.481048584E-1
4.970324330E0,-2.911346436E0,-9.097961426E0,1.690307617E0
4.975329213E0,-1.584960938E0,-8.944732666E0,2.600097656E0
4.980334095E0,-1.915435791E-1,-8.801086426E0,3.246536255E0
4.985308461E0,9.002227783E-1,-8.628707886E0,3.715805054E0
4.990313343E0,1.781280518E0,-8.336608887E0,3.485961914E0
4.995318226E0,2.298431396E0,-8.092407227E0,3.169921875E0
5.000323109E0,2.557006836E0,-8.111557007E0,2.552215576E0
5.005327992E0,2.427719116E0,-8.298309326E0,1.814804077E0
5.010332875E0,2.485183716E0,-8.470687866E0,1.043869019E0
5.015337757E0,2.710235596E0,-8.614334106E0,6.799468994E-1
5.020312123E0,2.691085815E0,-8.983047485E0,7.565612793E-1
5.025317005E0,2.609680176E0,-9.370910645E0,1.077392578E0
5.030321888E0,2.427719116E0,-9.658203125E0,1.584960938E0
5.035326771E0,2.533065796E0,-9.658203125E0,1.824386597E0
5.040331654E0,2.298431396E0,-9.777923584E0,1.977615356E0
5.045336537E0,1.920150757E0,-9.959884644E0,1.948883057E0
5.050310902E0,1.618484497E0,-1.001255798E1,1.905792236E0
5.055315785E0,1.498764038E0,-9.921569824E0,1.651992798E0
5.060320668E0,1.618484497E0,-9.691726685E0,1.187530518E0
5.065325550E0,1.651992798E0,-9.385269165E0,7.613525391E-1
5.070330433E0,1.704666138E0,-9.088394165E0,1.963195801E-1
5.075335316E0,1.987182617E0,-8.734054565E0,-1.484375000E-1
5.080309681E0,2.015914917E0,-8.537719727E0,9.576416016E-2
5.085314564E0,1.929733276E0,-8.398864746E0,4.980010986E-1
5.090319447E0,1.881835938E0,-8.255203247E0,8.283996582E-1
5.095324330E0,1.819595337E0,-8.130706787E0,1.307235718E0
5.100329213E0,1.675933838E0,-8.049301147E0,1.709457397E0
5.105334095E0,1.426940918E0,-8.054092407E0,1.991973877E0
5.110338978E0,1.096542358E0,-8.116348267E0,2.188293457E0
5.115526966E0,7.900848389E-1,-8.221694946E0,2.284072876E0
5.120684437E0,4.596862793E-1,-8.413223267E0,2.188293457E0
5.125170521E0,2.873229980E-2,-8.762771606E0,1.968032837E0
5.130327992E0,-2.777252197E-1,-9.117126465E0,1.762130737E0
5.135424427E0,-5.650329590E-1,-9.471466064E0,1.556228638E0
5.140429310E0,-8.379669189E-1,-9.792282104E0,1.369476318E0
5.145434193E0,-1.110916138E0,-1.002212524E1,1.096542358E0
5.150439076E0,-1.340759277E0,-1.016578674E1,7.805023193E-1
5.155443959E0,-1.522705078E0,-1.012268066E1,4.501037598E-1
5.160448841E0,-1.637634277E0,-9.912002563E0,9.097290039E-2
5.165453724E0,-1.661575317E0,-9.552871704E0,-2.777252197E-1
5.170458607E0,-1.623275757E0,-9.088394165E0,-6.560058594E-1
5.175463490E0,-1.508346558E0,-8.623916626E0,-1.072601318E0
5.180437855E0,-1.321594238E0,-8.216903687E0,-1.489196777E0
5.185442738E0,-1.024719238E0,-7.939178467E0,-1.833953857E0
5.190447621E0,-7.086791992E-1,-7.905654907E0,-1.972824097E0
5.195421986E0,-7.661437988E-2,-8.394073486E0,-2.260131836E0
5.200426869E0,6.991119385E-1,-8.997406006E0,-2.264907837E0
5.205431752E0,1.197097778E0,-9.710876465E0,-2.030288696E0
5.210406117E0,1.527496338E0,-1.052012634E1,-1.781280518E0
5.215411000E0,1.771713257E0,-1.116177368E1,-1.532287598E0
5.220415882E0,1.848327637E0,-1.152568054E1,-1.158798218E0
5.225420765E0,1.728607178E0,-1.162625122E1,-6.272735596E-1
5.230395130E0,1.436523438E0,-1.146343994E1,-1.963195801E-1
5.235400013E0,1.019927979E0,-1.109951782E1,2.250518799E-1
5.240374379E0,5.267181396E-1,-1.060630798E1,5.315093994E-1
5.245379261E0,4.309082031E-2,-1.010832214E1,6.847381592E-1
5.250384144E0,-3.591308594E-1,-9.720458984E0,6.512298584E-1
5.255389027E0,-6.847381592E-1,-9.428359985E0,5.985565186E-1
5.260393910E0,-9.289550781E-1,-9.275131226E0,5.650329590E-1
5.265398793E0,-1.115692139E0,-9.279922485E0,4.548950195E-1
5.270373158E0,-1.115692139E0,-9.356536865E0,3.543395996E-1
5.275378041E0,-9.864044189E-1,-9.519348145E0,2.585754395E-1
5.280382923E0,-8.236083984E-1,-9.787490845E0,7.661437988E-2
5.285387806E0,-6.751708984E-1,-1.009394836E1,-1.292877197E-1
5.290392689E0,-5.027770996E-1,-1.040040588E1,-2.825164795E-1
5.295397572E0,-3.303985596E-1,-1.070686340E1,-3.830718994E-1
5.300371937E0,-2.106933594E-1,-1.099896240E1,-5.506591797E-1
5.305376820E0,-1.723785400E-1,-1.127189636E1,-7.374114990E-1
5.310381703E0,-1.149291992E-1,-1.154005432E1,-1.010360718E0
5.315386586E0,1.914978027E-2,-1.178904724E1,-1.316818237E0
5.320391468E0,1.101379395E-1,-1.204283142E1,-1.848327637E0
5.325396351E0,2.059020996E-1,-1.221043396E1,-2.628829956E0
5.330370716E0,3.639221191E-1,-1.227267456E1,-3.505111694E0
5.335375599E0,5.410919189E-1,-1.216732788E1,-4.367019653E0
5.340380482E0,7.134704590E-1,-1.191354370E1,-5.085281372E0
5.345385365E0,7.709350586E-1,-1.147302246E1,-5.482727051E0
5.350390248E0,7.038879395E-1,-1.097981262E1,-5.554550171E0
5.355395130E0,6.177062988E-1,-1.057279968E1,-5.530609131E0
5.360369496E0,5.889739990E-1,-1.044830322E1,-5.602432251E0
5.365374379E0,5.650329590E-1,-1.064941406E1,-5.712570190E0
5.370379261E0,3.687133789E-1,-1.123359680E1,-5.554550171E0
5.375384144E0,8.140563965E-2,-1.216732788E1,-5.444412231E0
5.380389027E0,-3.303985596E-1,-1.332612610E1,-5.291183472E0
5.385393910E0,-1.053451538E0,-1.461421204E1,-5.209777832E0
5.390368275E0,-1.771713257E0,-1.583045959E1,-5.085281372E0
5.395373158E0,-1.848327637E0,-1.700361633E1,-4.568130493E0
5.400378041E0,-2.250549316E0,-1.787989807E1,-4.802764893E0
5.405382923E0,-2.657562256E0,-1.811932373E1,-5.382171631E0
5.410387806E0,-2.638412476E0,-1.762132263E1,-6.105209351E0
5.415392689E0,-2.327163696E0,-1.664448547E1,-6.641510010E0
5.420367054E0,-1.920150757E0,-1.550485229E1,-6.133941650E0
5.425371937E0,-1.307235718E0,-1.444181824E1,-4.414901733E0
5.430376820E0,-2.825164795E-1,-1.345541382E1,-2.269699097E0
5.435381703E0,2.279281616E0,-1.234928894E1,-1.877059937E0
5.440386586E0,4.620803833E0,-1.179862976E1,-1.316818237E0
5.445391468E0,6.766021729E0,-1.146343994E1,-4.070129395E-1
5.450396351E0,8.738830566E0,-1.140597534E1,3.256072998E-1
5.455401234E0,9.643844604E0,-1.172201538E1,1.321594238E0
5.460406117E0,9.883270264E0,-1.230619812E1,2.351104736E0
5.465411000E0,9.576812744E0,-1.299093628E1,2.844314575E0
5.470385365E0,8.346191406E0,-1.363258362E1,3.323150635E0
5.475359730E0,6.138732910E0,-1.393904114E1,4.601654053E0
5.480364613E0,4.247314453E0,-1.364216614E1,5.679046631E0
5.485338978E0,2.260131836E0,-1.345541382E1,5.937622070E0
5.490343861E0,3.160400391E-1,-1.330218506E1,5.870590210E0
5.495318226E0,4.309082031E-2,-1.299572754E1,4.371810913E0
5.500323109E0,-8.810729980E-1,-1.267491150E1,2.106903076E0
5.505297474E0,-1.417373657E0,-1.227267456E1,-4.357452393E-1
5.510302357E0,-4.582504272E0,-1.212423706E1,-1.647216797E0
5.515307240E0,-6.612777710E0,-1.197579956E1,-9.145812988E-1
5.520281605E0,-5.975921631E0,-1.120486450E1,-1.431732178E0
5.525286488E0,-4.740524292E0,-1.070208740E1,-1.647216797E0
5.530291371E0,-3.284851074E0,-1.049139404E1,-1.086975098E0
5.535265736E0,-2.082962036E0,-1.040998840E1,-8.331756592E-1
5.540270619E0,-1.508346558E0,-1.029028320E1,-6.991119385E-1
5.545275502E0,-7.326202393E-1,-9.806655884E0,2.346343994E-1
5.550280384E0,-3.160400391E-1,-9.825805664E0,9.528961182E-1
5.555285267E0,6.703186035E-2,-9.830596924E0,1.369476318E0
5.560290150E0,2.298431396E-1,-9.691726685E0,1.398208618E0
5.565264515E0,3.495483398E-1,-9.437942505E0,1.225830078E0
5.570269398E0,4.692687988E-1,-9.188949585E0,1.115692139E0
5.575274281E0,6.560058594E-1,-8.858551025E0,9.576873779E-1
5.580279164E0,9.002227783E-1,-8.394073486E0,7.422027588E-1
5.585253529E0,1.072601318E0,-7.991851807E0,6.129150391E-1
5.590258412E0,1.115692139E0,-7.637496948E0,6.320648193E-1
5.595263295E0,1.206680298E0,-7.110778809E0,6.751708984E-1
5.600268177E0,1.369476318E0,-6.722915649E0,7.469940186E-1
5.605273060E0,1.537078857E0,-6.483505249E0,8.523406982E-1
5.610277943E0,1.800445557E0,-6.258438110E0,8.140258789E-1
5.615252308E0,2.044647217E0,-6.110000610E0,7.134704590E-1
5.620257191E0,2.442092896E0,-6.066909790E0,6.320648193E-1
5.625262074E0,2.820373535E0,-6.119583130E0,6.416473389E-1
5.630266957E0,3.136398315E0,-6.248870850E0,5.937652588E-1
5.635271839E0,3.323150635E0,-6.325485229E0,6.129150391E-1
5.640276722E0,3.423706055E0,-6.392517090E0,7.278442383E-1
5.645251088E0,3.658340454E0,-6.421249390E0,8.666992188E-1
5.650255970E0,3.758895874E0,-6.416458130E0,8.858489990E-1
5.655260853E0,3.883392334E0,-6.382934570E0,9.145812988E-1
5.660265736E0,3.926498413E0,-6.282379150E0,9.481048584E-1
5.665270619E0,3.969589233E0,-6.071701050E0,1.000778198E0
5.670275502E0,3.964797974E0,-5.841857910E0,1.125274658E0
5.675249867E0,3.892974854E0,-5.544967651E0,1.240203857E0
5.680254750E0,3.821151733E0,-5.181045532E0,1.340759277E0
5.685259632E0,3.687072754E0,-4.884170532E0,1.369476318E0
5.690264515E0,3.495529175E0,-4.649536133E0,1.355117798E0
5.695269398E0,3.289627075E0,-4.458007812E0,1.321594238E0
5.700274281E0,3.141189575E0,-4.261672974E0,1.230621338E0
5.705248646E0,3.002334595E0,-4.185058594E0,1.173156738E0
5.710253529E0,2.916137695E0,-4.175491333E0,1.091751099E0
5.715258412E0,2.906555176E0,-4.165908813E0,1.048660278E0
5.720263295E0,2.925720215E0,-4.189849854E0,1.077392578E0
5.725268177E0,2.901779175E0,-4.280838013E0,1.187530518E0
5.730273060E0,2.944869995E0,-4.333511353E0,1.249771118E0
5.735247425E0,2.978393555E0,-4.376602173E0,1.278503418E0
5.740252308E0,3.078948975E0,-4.429275513E0,1.249771118E0
5.745257191E0,3.179504395E0,-4.486740112E0,1.192306519E0
5.750262074E0,3.222595215E0,-4.601654053E0,1.072601318E0
5.755266957E0,3.217803955E0,-4.788406372E0,8.619079590E-1
5.760271839E0,3.093307495E0,-5.051773071E0,4.932098389E-1
5.765246205E0,2.868255615E0,-5.439620972E0,-2.298431396E-1
5.770251088E0,2.571365356E0,-5.995086670E0,-9.672546387E-1
5.775255970E0,2.154785156E0,-6.646301270E0,-2.097320557E0
5.780260853E0,1.541870117E0,-7.359771729E0,-3.591308594E0
5.785265736E0,6.655883789E-1,-8.298309326E0,-5.410888672E0
5.790270619E0,-3.112487793E-1,-9.835388184E0,-7.757217407E0
5.795275502E0,-1.321594238E0,-1.205720520E1,-1.063983154E1
5.800585560E0,-2.657562256E0,-1.516966248E1,-1.502601624E1
5.805895619E0,-6.478713989E0,-2.021664429E1,-2.347274780E1
5.809984974E0,-1.365652466E1,-2.817974854E1,-3.612850952E1
5.815233998E0,-1.947923279E1,-3.535757446E1,-3.208709717E1
5.820452504E0,-1.522233582E1,-3.769909668E1,-1.768836975E1
5.825457386E0,-7.364562988E0,-3.616201782E1,-7.173034668E0
5.830462269E0,-4.141967773E0,-3.270001221E1,-3.711013794E0
5.835467152E0,-2.834732056E0,-2.628833008E1,-4.510681152E0
5.840472035E0,-2.193084717E0,-1.850718689E1,-5.501876831E0
5.845446400E0,-1.824386597E0,-1.125753784E1,-5.315124512E0
5.850420765E0,-6.416473389E-1,-4.932052612E0,-4.108444214E0
5.855395130E0,1.441314697E0,4.644775391E-1,-3.184295654E0
5.860400013E0,4.242523193E0,4.994308472E0,-2.427719116E0
5.865404896E0,7.235275269E0,8.298309326E0,-1.273712158E0
5.870379261E0,9.289505005E0,1.018972778E1,2.729339600E-1
5.875384144E0,9.303863525E0,1.096543884E1,2.039855957E0
5.880358509E0,9.471466064E0,1.121922302E1,3.509902954E0
5.885363392E0,1.018493652E1,1.021846008E1,6.057327271E0
5.890368275E0,1.026155090E1,7.910446167E0,9.323028564E0
5.895373158E0,9.476257324E0,4.357452393E0,1.232055664E1
5.900347523E0,8.844177246E0,-9.582519531E-3,1.422634888E1
5.905352406E0,1.056800842E1,-4.855438232E0,1.480094910E1
5.910357289E0,1.177947998E1,-1.082658386E1,1.661097717E1
5.915362172E0,1.252168274E1,-1.747288513E1,1.675462341E1
5.920336537E0,1.419761658E1,-2.552697754E1,1.402523804E1
5.925310902E0,1.274673462E1,-3.201527405E1,7.939178467E0
5.930315785E0,7.675811768E0,-3.594654846E1,-4.577713013E0
5.935320668E0,-8.101974487E0,-4.260720825E1,-5.195417786E1
5.940325550E0,-1.934036255E1,-4.665341187E1,-4.417781067E1
5.945299916E0,-2.149514771E1,-4.352659607E1,-2.751895142E1
5.950304798E0,-1.967555237E1,-3.262339783E1,-2.136585999E1
5.955309681E0,-1.219126892E1,-2.077209473E1,-1.616085815E1
5.960314564E0,-7.671020508E0,-1.224873352E1,-1.128147888E1
5.965319447E0,-3.801986694E0,-5.631164551E0,-6.062118530E0
5.970293812E0,-1.211471558E0,-3.303985596E-1,8.762817383E-1
5.975298695E0,1.709457397E0,4.022262573E0,8.494628906E0
5.980303578E0,2.829940796E0,6.579269409E0,1.403959656E1
5.985308461E0,5.798751831E0,8.087615967E0,1.967555237E1
5.990313343E0,9.744400024E0,8.805877686E0,2.251507568E1
5.995287709E0,1.050097656E1,6.047760010E0,1.871308899E1
6.000292591E0,4.927261353E0,2.403778076E0,1.986708069E1
6.005297474E0,3.634399414E0,-1.197052002E-1,1.601721191E1
6.010302357E0,3.184295654E0,-1.958450317E0,1.254083252E1
6.015307240E0,3.246536255E0,-3.624816895E0,1.000776672E1
6.020281605E0,3.457229614E0,-5.377380371E0,7.680603027E0
6.025286488E0,4.218582153E0,-7.474700928E0,5.363006592E0
6.030291371E0,5.190628052E0,-1.044351196E1,4.022262573E0
6.035296254E0,5.267242432E0,-1.433648682E1,5.937652588E-1
6.040301136E0,1.431732178E0,-1.842098999E1,-8.906433105E0
6.045275502E0,-3.936065674E0,-2.060928345E1,-1.648168945E1
6.050280384E0,-6.770797729E0,-2.122698975E1,-1.597889709E1
6.055285267E0,-8.710113525E0,-2.171540833E1,-1.034295654E1
6.060290150E0,-9.208099365E0,-2.130839539E1,-5.750869751E0
6.065295033E0,-7.450759888E0,-1.896208191E1,-3.069366455E0
6.070269398E0,-4.625595093E0,-1.503079224E1,-1.417373657E0
6.075274281E0,-2.092529297E0,-1.154005432E1,-2.154846191E-1
6.080279164E0,-2.681579590E-1,-9.289505005E0,1.254562378E0
6.085284047E0,1.719039917E0,-8.020568848E0,2.145202637E0
6.090288929E0,3.351882935E0,-7.316680908E0,2.360687256E0
6.095263295E0,4.778823853E0,-6.579269409E0,2.456451416E0
6.100268177E0,5.880157471E0,-5.621582031E0,2.317581177E0
6.105273060E0,6.220138550E0,-5.272033691E0,2.590530396E0
6.110277943E0,6.014236450E0,-5.492294312E0,2.734176636E0
6.115282826E0,5.717361450E0,-6.023818970E0,2.547424316E0
6.120257191E0,5.477935791E0,-6.469131470E0,2.087738037E0
6.125262074E0,5.363006592E0,-6.909667969E0,1.608901978E0
6.130266957E0,5.482727051E0,-7.264007568E0,1.556228638E0
6.135271839E0,5.516235352E0,-7.632720947E0,1.963241577E0
6.140276722E0,4.122817993E0,-8.418014526E0,2.370254517E0
6.145464711E0,2.528274536E0,-9.399642944E0,1.924942017E0
6.150622181E0,1.575378418E0,-1.013226318E1,1.503555298E0
6.155413441E0,7.134704590E-1,-1.061589050E1,1.024719238E0
6.160448841E0,-1.435852051E-2,-1.088882446E1,5.889739990E-1
6.165453724E0,-6.991119385E-1,-1.093193054E1,1.292877197E-1
6.170489125E0,-1.273712158E0,-1.070686340E1,-2.537841797E-1
6.175494007E0,-1.508346558E0,-1.022802734E1,-4.453277588E-1
6.180498890E0,-1.561019897E0,-9.725250244E0,-4.980010986E-1
6.185503773E0,-1.331176758E0,-9.270355225E0,-3.782806396E-1
6.190478138E0,-8.954315186E-1,-8.820236206E0,-7.661437988E-2
6.195452504E0,-4.884185791E-1,-8.461105347E0,3.495483398E-1
6.200426869E0,-1.197052002E-1,-8.154647827E0,6.655883789E-1
6.205401234E0,3.351898193E-1,-7.795516968E0,8.666992188E-1
6.210406117E0,5.746154785E-1,-7.522583008E0,9.576873779E-1
6.215411000E0,7.996673584E-1,-7.268798828E0,1.000778198E0
6.220385365E0,9.864044189E-1,-7.082046509E0,9.145812988E-1
6.225390248E0,1.130065918E0,-6.967132568E0,6.224975586E-1
6.230364613E0,1.331176758E0,-6.871353149E0,2.106933594E-1
6.235369496E0,1.570602417E0,-6.962341309E0,-3.591308594E-1
6.240374379E0,1.786071777E0,-7.374145508E0,-1.000778198E0
6.245379261E0,1.862686157E0,-8.188171387E0,-1.537078857E0
6.250353627E0,1.623275757E0,-9.222457886E0,-1.838745117E0
6.255358509E0,1.297653198E0,-1.010353088E1,-1.977615356E0
6.260363392E0,9.145812988E-1,-1.074996948E1,-2.030288696E0
6.265368275E0,5.267181396E-1,-1.116177368E1,-2.054229736E0
6.270342640E0,1.101379395E-1,-1.134373474E1,-1.987182617E0
6.275347523E0,-3.064575195E-1,-1.129583740E1,-1.829162598E0
6.280352406E0,-5.841827393E-1,-1.105642700E1,-1.680725098E0
6.285357289E0,-7.900848389E-1,-1.065420532E1,-1.570602417E0
6.290331654E0,-8.858489990E-1,-1.008438110E1,-1.441314697E0
6.295336537E0,-7.805023193E-1,-9.552871704E0,-1.259353638E0
6.300341420E0,-6.129150391E-1,-9.097961426E0,-1.115692139E0
6.305346302E0,-3.734893799E-1,-8.753204346E0,-9.768371582E-1
6.310320668E0,-1.101379395E-1,-8.518569946E0,-8.283996582E-1
6.315325550E0,1.244964600E-1,-8.470687866E0,-6.512298584E-1
6.320330433E0,3.351898193E-1,-8.556884766E0,-3.734893799E-1
6.325335316E0,3.687133789E-1,-8.657440186E0,-4.791259766E-3
6.330309681E0,5.746154785E-1,-8.614334106E0,2.059020996E-1
6.335314564E0,1.154006958E0,-8.370132446E0,3.734893799E-1
6.340319447E0,1.216247559E0,-8.106765747E0,3.016662598E-1
6.345324330E0,1.264144897E0,-7.967910767E0,-4.788208008E-2
6.350329213E0,1.359909058E0,-8.250411987E0,-3.016662598E-1
6.355303578E0,1.268920898E0,-8.877700806E0,-3.543395996E-1
6.360308461E0,7.661437988E-1,-9.787490845E0,-1.675872803E-1
6.365313343E0,-7.182312012E-2,-1.079785156E1,1.484375000E-1
6.370318226E0,-1.015136719E0,-1.174595642E1,3.351898193E-1
6.375292591E0,-1.742980957E0,-1.258392334E1,3.639221191E-1
6.380297474E0,-2.126052856E0,-1.321598816E1,2.394104004E-2
6.385302357E0,-2.384628296E0,-1.377145386E1,-8.283996582E-1
6.390307240E0,-2.413360596E0,-1.409706116E1,-1.910568237E0
6.395281605E0,-2.183517456E0,-1.414973450E1,-3.074157715E0
6.400286488E0,-1.719039917E0,-1.385284424E1,-4.151550293E0
6.405291371E0,-8.858489990E-1,-1.331176758E1,-5.315124512E0
6.410296254E0,1.101379395E-1,-1.268927002E1,-6.631942749E0
6.415301136E0,1.015136719E0,-1.207156372E1,-7.742843628E0
6.420275502E0,1.565811157E0,-1.153047180E1,-7.948745728E0
6.425280384E0,1.833953857E0,-1.092234802E1,-7.264007568E0
6.430285267E0,1.920150757E0,-1.033337402E1,-6.311111450E0
6.435290150E0,2.197875977E0,-9.701309204E0,-5.947204590E0
6.440264515E0,1.776504517E0,-9.414001465E0,-5.693405151E0
6.445269398E0,8.523406982E-1,-9.251190186E0,-5.209777832E0
6.450274281E0,3.495483398E-1,-8.868118286E0,-4.836288452E0
6.455279164E0,-2.920989990E-1,-8.470687866E0,-4.836288452E0
6.460253529E0,-5.698242188E-1,-8.034942627E0,-5.635955811E0
6.465258412E0,-8.140258789E-1,-7.876922607E0,-6.564895630E0
6.470263295E0,-1.206680298E0,-8.221694946E0,-7.168243408E0
6.475268177E0,-1.537078857E0,-9.169799805E0,-7.580047607E0
6.480273060E0,-1.929733276E0,-1.110430908E1,-7.541732788E0
6.485277943E0,-2.217025757E0,-1.371398926E1,-6.569686890E0
6.490282826E0,-2.331954956E0,-1.674504089E1,-5.128387451E0
6.495287709E0,-2.087738037E0,-1.980963135E1,-3.452438354E0
6.500292591E0,-1.968032837E0,-2.264436340E1,-1.915359497E0
6.505266957E0,-2.231399536E0,-2.484223938E1,-4.884185791E-1
6.510241322E0,-2.221817017E0,-2.621171570E1,5.985565186E-1
6.515246205E0,-2.154846191E-1,-2.594357300E1,1.144424438E0
6.520220570E0,1.273712158E0,-2.394201660E1,4.070144653E0
6.525225453E0,4.252105713E0,-2.074336243E1,4.750091553E0
6.530199818E0,6.124374390E0,-1.792778015E1,5.463562012E0
6.535204701E0,6.967132568E0,-1.561976624E1,4.568130493E0
6.540209584E0,7.211334229E0,-1.461421204E1,1.757339478E0
6.545183949E0,8.724472046E0,-1.335485840E1,4.791259766E-3
6.550188832E0,9.844955444E0,-1.174595642E1,2.633666992E-1
6.555193714E0,7.723693848E0,-1.083137512E1,7.661437988E-1
6.560198597E0,6.521804810E0,-1.040998840E1,1.914978027E-2
6.565172963E0,4.922485352E0,-1.016099548E1,-1.388641357E0
6.570177845E0,3.270477295E0,-1.022802734E1,-1.522705078E0
6.575182728E0,1.877059937E0,-1.038604736E1,-1.709457397E0
6.580187611E0,1.024719238E0,-1.072602844E1,-2.264907837E0
6.585192494E0,4.357452393E-1,-1.117613220E1,-2.557006836E0
6.590197377E0,1.197052002E-1,-1.161187744E1,-2.542648315E0
6.595171742E0,-1.101379395E-1,-1.170764160E1,-2.015914917E0
6.600176625E0,-2.825164795E-1,-1.153047180E1,-1.197097778E0
6.605181507E0,-4.165954590E-1,-1.141555786E1,-4.070129395E-1
6.610186390E0,1.484375000E-1,-1.113304138E1,-6.225585938E-2
6.615160755E0,1.077392578E0,-1.068292236E1,5.267333984E-2
6.620165638E0,1.838745117E0,-1.023281860E1,-2.729339600E-1
6.625170521E0,2.226608276E0,-9.782714844E0,-6.799468994E-1
6.630175404E0,2.446868896E0,-9.366119385E0,-7.086791992E-1
6.635180287E0,2.475601196E0,-9.165008545E0,-6.512298584E-1
6.640154652E0,2.686294556E0,-9.088394165E0,-5.698242188E-1
6.645159535E0,2.882614136E0,-8.983047485E0,-5.123596191E-1
6.650164418E0,3.122039795E0,-8.829818726E0,-4.405364990E-1
6.655169300E0,3.275268555E0,-8.734054565E0,-3.974304199E-1
6.660174183E0,3.394973755E0,-8.647857666E0,-3.256072998E-1
6.665148548E0,3.476379395E0,-8.513778687E0,-3.831481934E-2
6.670153431E0,3.552993774E0,-8.322250366E0,4.309539795E-1
6.675158314E0,3.667922974E0,-8.039733887E0,8.666992188E-1
6.680163197E0,3.797210693E0,-7.690170288E0,1.125274658E0
6.685168080E0,3.883392334E0,-7.273590088E0,1.345535278E0
6.690172963E0,4.046203613E0,-6.751647949E0,1.455673218E0
6.695147328E0,4.180282593E0,-6.186614990E0,1.407791138E0
6.700152211E0,4.280838013E0,-5.640747070E0,1.455673218E0
6.705157093E0,4.505889893E0,-5.090072632E0,1.517929077E0
6.710161976E0,4.630386353E0,-4.525039673E0,1.479614258E0
6.715166859E0,4.740524292E0,-4.031829834E0,1.465255737E0
6.720141224E0,4.802764893E0,-3.648757935E0,1.551437378E0
6.725146107E0,4.769256592E0,-3.409347534E0,1.704666138E0
6.730150990E0,4.654327393E0,-3.299209595E0,1.766921997E0
6.735155873E0,4.328720093E0,-3.189071655E0,1.867477417E0
6.740160755E0,3.873825073E0,-3.208236694E0,1.838745117E0
6.745135121E0,3.452438354E0,-3.275268555E0,1.762130737E0
6.750140004E0,3.011901855E0,-3.299209595E0,1.690307617E0
6.755144886E0,2.647979736E0,-3.270477295E0,1.561019897E0
6.760149769E0,2.446868896E0,-3.227386475E0,1.450881958E0
6.765154652E0,2.269699097E0,-3.126831055E0,1.388641357E0
6.770159535E0,2.169143677E0,-3.031066895E0,1.302444458E0
6.775133900E0,2.193084717E0,-3.002334595E0,1.206680298E0
6.780138783E0,2.193084717E0,-3.098098755E0,1.139633179E0
6.785143666E0,2.207458496E0,-3.280059814E0,1.091751099E0
6.790148548E0,2.236190796E0,-3.543411255E0,1.053451538E0
6.795153431E0,2.327163696E0,-3.878601074E0,9.720458984E-1
6.800127797E0,2.264907837E0,-4.309570312E0,9.145812988E-1
6.805132679E0,2.183517456E0,-4.778823853E0,7.517852783E-1
6.810137562E0,2.149993896E0,-5.205001831E0,4.884185791E-1
6.815142445E0,2.020706177E0,-5.683837891E0,9.097290039E-2
6.820147328E0,1.776504517E0,-6.205764771E0,-2.154846191E-1
6.825152211E0,1.359909058E0,-6.727706909E0,-7.134704590E-1
6.830462269E0,6.655883789E-1,-7.244857788E0,-1.283294678E0
6.835741810E0,-2.585754395E-1,-7.795516968E0,-2.078170776E0
6.840411000E0,-1.177947998E0,-8.418014526E0,-3.284851074E0
6.845476918E0,-2.561798096E0,-9.179367065E0,-5.075714111E0
6.850451283E0,-3.940856934E0,-1.036210632E1,-7.943954468E0
6.855456166E0,-5.032608032E0,-1.213859558E1,-1.199015808E1
6.860430531E0,-5.798751831E0,-1.477223206E1,-1.726219177E1
6.865435414E0,-6.943191528E0,-1.842578125E1,-2.139936829E1
6.870409779E0,-9.040512085E0,-2.280715942E1,-2.309446716E1
6.875414662E0,-1.076432800E1,-2.684857178E1,-2.244325256E1
6.880419545E0,-9.955093384E0,-2.954444885E1,-1.697488403E1
6.885393910E0,-6.564895630E0,-3.066972351E1,-1.061589050E1
6.890398793E0,-2.676712036E0,-2.998019409E1,-6.885726929E0
6.895403675E0,-7.661437988E-2,-2.681506348E1,-5.367797852E0
6.900378041E0,-5.123596191E-1,-2.134191895E1,-5.846633911E0
6.905382923E0,-6.799468994E-1,-1.532768250E1,-6.679824829E0
6.910387806E0,-1.053466797E-1,-9.902420044E0,-6.531387329E0
6.915392689E0,1.125274658E0,-5.114013672E0,-5.679046631E0
6.920367054E0,3.050216675E0,-1.096542358E0,-4.821929932E0
6.925371937E0,5.195419312E0,2.044647217E0,-3.548202515E0
6.930376820E0,8.054092407E0,4.395751953E0,-2.121261597E0
6.935381703E0,1.060153198E1,5.770019531E0,-6.129150391E-1
6.940386586E0,1.135330200E1,6.258438110E0,1.628051758E0
6.945391468E0,1.191833496E1,6.023818970E0,3.011901855E0
6.950365834E0,1.291911316E1,5.070922852E0,2.959228516E0
6.955340199E0,1.188003540E1,3.519470215E0,4.467575073E0
6.960345082E0,1.007479858E1,1.733398438E0,6.325485229E0
6.965349964E0,8.456314087E0,-2.968750000E-1,8.331817627E0
6.970354847E0,6.823471069E0,-2.284072876E0,9.667785645E0
6.975329213E0,5.741302490E0,-4.261672974E0,1.038604736E1
6.980334095E0,4.280838013E0,-6.167465210E0,1.057279968E1
6.985338978E0,2.135635376E0,-7.953536987E0,9.979034424E0
6.990343861E0,-2.873077393E-1,-1.002212524E1,8.892059326E0
6.995318226E0,-1.829162598E0,-1.173158264E1,7.546524048E0
7.000323109E0,-1.915359497E0,-1.287123108E1,5.291183472E0
7.005327992E0,-1.977615356E0,-1.458547974E1,1.987182617E0
7.010332875E0,-4.371810913E0,-1.936909485E1,-3.390182495E0
7.015337757E0,-9.241622925E0,-2.618777466E1,-1.173158264E1
7.020312123E0,-1.079785156E1,-3.265213013E1,-2.076251221E1
7.025317005E0,-6.502655029E0,-3.665043640E1,-1.976174927E1
7.030321888E0,-5.295974731E0,-4.060566711E1,-2.017832947E1
7.035326771E0,-3.926498413E0,-4.211401367E1,-2.114558411E1
7.040301136E0,-3.548202515E0,-3.841735840E1,-2.037944031E1
7.045306019E0,-3.811569214E0,-3.044467163E1,-1.799482727E1
7.050310902E0,-2.331954956E0,-2.199313354E1,-1.378581238E1
7.055315785E0,4.740447998E-1,-1.463336182E1,-6.306320190E0
7.060290150E0,4.242523193E0,-7.704544067E0,1.431732178E0
7.065295033E0,8.231262207E0,-1.948883057E0,7.259216309E0
7.070299916E0,8.556884766E0,1.968032837E0,1.210987854E1
7.075304798E0,9.299072266E0,4.711791992E0,1.417846680E1
7.080309681E0,1.011788940E1,6.957550049E0,1.490629578E1
7.085284047E0,1.162625122E1,9.102752686E0,1.453759766E1
7.090288929E0,7.503433228E0,9.236831665E0,1.571554565E1
7.095293812E0,7.240066528E0,8.762771606E0,1.412579346E1
7.100298695E0,6.469131470E0,6.713348389E0,1.131500244E1
7.105273060E0,5.372589111E0,3.145980835E0,8.499420166E0
7.110277943E0,5.085281372E0,5.267333984E-2,6.358993530E0
7.115282826E0,4.860229492E0,-2.662353516E0,4.505889893E0
7.120287709E0,4.558563232E0,-6.339843750E0,2.427719116E0
7.125292591E0,4.644744873E0,-1.077391052E1,0.000000000E0
7.130266957E0,4.127609253E0,-1.399171448E1,-1.637634277E0
7.135271839E0,2.370254517E0,-1.702755737E1,-1.594543457E0
7.140276722E0,-3.256072998E-1,-1.980484009E1,-2.729339600E-1
7.145281605E0,-2.489974976E0,-2.134191895E1,8.379669189E-1
7.150255970E0,-4.161117554E0,-2.270660400E1,-7.613525391E-1
7.155260853E0,-8.259994507E0,-2.422453308E1,-2.466033936E0
7.160265736E0,-1.091755676E1,-2.341050720E1,-2.719818115E0
7.165270619E0,-9.538497925E0,-1.972822571E1,-3.806777954E0
7.170275502E0,-8.619125366E0,-1.527500916E1,-4.434066772E0
7.175432972E0,-6.957550049E0,-1.204283142E1,-3.213012695E0
7.180590443E0,-5.109222412E0,-9.864105225E0,-2.384628296E0
7.185412220E0,-3.198654175E0,-8.307876587E0,-7.374114990E-1
7.190447621E0,-1.972824097E0,-7.053314209E0,7.422027588E-1
7.195452504E0,-5.841827393E-1,-6.138732910E0,2.303222656E0
7.200457386E0,1.048660278E0,-5.525817871E0,3.107681274E0
7.205462269E0,1.901000977E0,-5.200210571E0,4.568130493E0
7.210467152E0,2.734176636E0,-5.300765991E0,4.678268433E0
7.215472035E0,3.169921875E0,-5.683837891E0,4.347869873E0
7.220476918E0,3.505111694E0,-6.220138550E0,3.725372314E0
7.225481800E0,3.581726074E0,-6.847412109E0,2.791641235E0
7.230456166E0,3.739746094E0,-7.642288208E0,1.541870117E0
7.235461048E0,3.562576294E0,-8.595184326E0,1.130065918E0
7.240435414E0,3.572143555E0,-9.461883545E0,1.177947998E0
7.245440297E0,3.490753174E0,-1.025196838E1,6.607971191E-1
7.250414662E0,2.753326416E0,-1.084094238E1,8.619689941E-2
7.255419545E0,2.011123657E0,-1.102769470E1,-4.357452393E-1
7.260393910E0,1.264144897E0,-1.081221008E1,-1.101333618E0
7.265398793E0,6.416473389E-1,-1.052012634E1,-1.699890137E0
7.270403675E0,3.591308594E-1,-1.020408630E1,-2.116470337E0
7.275378041E0,2.585754395E-1,-9.806655884E0,-2.217025757E0
7.280382923E0,8.140563965E-2,-9.524139404E0,-2.092529297E0
7.285387806E0,-3.831481934E-2,-9.423583984E0,-1.910568237E0
7.290392689E0,-1.484375000E-1,-9.308654785E0,-1.503555298E0
7.295367054E0,-1.963195801E-1,-9.107543945E0,-9.193725586E-1
7.300341420E0,-2.968750000E-1,-8.920791626E0,-3.399810791E-1
7.305346302E0,-3.974304199E-1,-8.791503906E0,8.619689941E-2
7.310351185E0,-5.123596191E-1,-8.738830566E0,3.208160400E-1
7.315325550E0,-6.033325195E-1,-8.705322266E0,4.980010986E-1
7.320330433E0,-6.560058594E-1,-8.700531006E0,5.793914795E-1
7.325335316E0,-6.607971191E-1,-8.753204346E0,6.224975586E-1
7.330340199E0,-5.793914795E-1,-8.872909546E0,5.698242188E-1
7.335314564E0,-4.165954590E-1,-9.030929565E0,3.303985596E-1
7.340319447E0,-2.059020996E-1,-9.169799805E0,6.225585938E-2
7.345324330E0,-1.675872803E-1,-9.356536865E0,-1.484375000E-1
7.350298695E0,-5.746459961E-2,-9.466674805E0,-5.075683594E-1
7.355303578E0,3.831481934E-2,-9.572021484E0,-9.193725586E-1
7.360308461E0,7.661437988E-2,-9.629486084E0,-1.335968018E0
7.365313343E0,2.585754395E-1,-9.634262085E0,-1.695098877E0
7.370287709E0,5.171508789E-1,-9.610321045E0,-1.848327637E0
7.375292591E0,6.751708984E-1,-9.567230225E0,-1.786071777E0
7.380297474E0,7.182617188E-1,-9.500198364E0,-1.541870117E0
7.385271839E0,6.512298584E-1,-9.433151245E0,-1.221038818E0
7.390276722E0,4.932098389E-1,-9.390060425E0,-8.379669189E-1
7.395281605E0,3.303985596E-1,-9.308654785E0,-4.070129395E-1
7.400286488E0,1.388702393E-1,-9.246414185E0,1.149291992E-1
7.405260853E0,-1.914978027E-2,-9.184158325E0,7.086791992E-1
7.410265736E0,-1.101379395E-1,-9.078811646E0,1.259353638E0
7.415270619E0,-1.819610596E-1,-9.059661865E0,1.656784058E0
7.420275502E0,-1.915435791E-1,-9.093185425E0,1.843536377E0
7.425249867E0,-1.053466797E-1,-9.179367065E0,1.757339478E0
7.430254750E0,1.197052002E-1,-9.394851685E0,1.532287598E0
7.435259632E0,4.788360596E-1,-9.701309204E0,1.312026978E0
7.440233998E0,8.858489990E-1,-1.002212524E1,1.063018799E0
7.445238880E0,1.168365479E0,-1.036210632E1,7.948760986E-1
7.450243763E0,1.230621338E0,-1.080743408E1,7.422027588E-1
7.455248646E0,1.182739258E0,-1.124795532E1,8.666992188E-1
7.460223011E0,9.528961182E-1,-1.149217224E1,1.082183838E0
7.465227894E0,6.081237793E-1,-1.144906616E1,1.254562378E0
7.470232777E0,3.447723389E-1,-1.121444702E1,1.125274658E0
7.475207142E0,2.298431396E-1,-1.101811218E1,7.565612793E-1
7.480212025E0,3.016662598E-1,-1.104684448E1,1.388702393E-1
7.485216908E0,5.027770996E-1,-1.126712036E1,-6.655883789E-1
7.490221791E0,9.337310791E-1,-1.143470764E1,-1.704666138E0
7.495196156E0,1.431732178E0,-1.152568054E1,-2.676712036E0
7.500201039E0,1.623275757E0,-1.166934204E1,-3.433288574E0
7.505205922E0,1.719039917E0,-1.163581848E1,-4.070144653E0
7.510210804E0,1.843536377E0,-1.140597534E1,-4.553771973E0
7.515215687E0,1.728607178E0,-1.111389160E1,-4.639968872E0
7.520220570E0,1.393432617E0,-1.080264282E1,-4.424484253E0
7.525225453E0,9.481048584E-1,-1.058715820E1,-4.146759033E0
7.530199818E0,6.129150391E-1,-1.049618530E1,-3.993530273E0
7.535174183E0,6.751708984E-1,-1.025675964E1,-4.323928833E0
7.540148548E0,5.363006592E-1,-1.019929504E1,-4.845870972E0
7.545153431E0,5.363006592E-1,-1.009873962E1,-5.477935791E0
7.550127797E0,8.714904785E-1,-9.955093384E0,-6.124374390E0
7.555132679E0,1.158798218E0,-9.777923584E0,-6.689407349E0
7.560107045E0,1.316818237E0,-9.447525024E0,-7.163452148E0
7.565111927E0,1.498764038E0,-9.141067505E0,-7.589614868E0
7.570116810E0,1.470046997E0,-9.006988525E0,-7.967910767E0
7.575091175E0,1.441314697E0,-9.078811646E0,-8.068466187E0
7.580096058E0,1.048660278E0,-9.572021484E0,-8.082824707E0
7.585100941E0,3.399810791E-1,-1.065420532E1,-8.169021606E0
7.590105824E0,-2.106933594E-1,-1.215296936E1,-7.867340088E0
7.595080189E0,-3.160400391E-1,-1.415452576E1,-7.187393188E0
7.600085072E0,-1.819610596E-1,-1.676420593E1,-6.311111450E0
7.605089955E0,-1.771697998E-1,-1.957020569E1,-5.295974731E0
7.610094838E0,-1.435852051E-2,-2.215115356E1,-4.074935913E0
7.615069203E0,4.453277588E-1,-2.398989868E1,-2.997543335E0
7.620074086E0,1.283294678E0,-2.472731018E1,-1.508346558E0
7.625078968E0,2.504333496E0,-2.384146118E1,-3.687133789E-1
7.630083851E0,3.821151733E0,-2.166273499E1,5.458831787E-1
7.635088734E0,5.176269531E0,-1.929248047E1,1.771713257E0
7.640063099E0,5.990295410E0,-1.795172119E1,3.122039795E0
7.645037464E0,6.641510010E0,-1.698925781E1,4.170700073E0
7.650042347E0,6.655883789E0,-1.582566833E1,5.032608032E0
7.655047230E0,6.938400269E0,-1.475785828E1,5.248092651E0
7.660052113E0,6.928817749E0,-1.386721802E1,4.429275513E0
7.665026478E0,6.727706909E0,-1.301487732E1,3.715805054E0
7.670031361E0,6.191406250E0,-1.231578064E1,2.796432495E0
7.675036244E0,4.659118652E0,-1.188960266E1,2.379837036E0
7.680041127E0,3.514694214E0,-1.117613220E1,5.315093994E-1
7.685015492E0,1.163589478E0,-1.083615112E1,4.501037598E-1
7.690020375E0,-1.130065918E0,-1.072602844E1,3.399810791E-1
7.695025257E0,-2.135635376E0,-1.039083862E1,-1.029510498E0
7.700030140E0,-3.246536255E0,-1.000297546E1,-1.608901978E0
7.705004505E0,-3.356674194E0,-9.610321045E0,-1.977615356E0
7.710009388E0,-3.007110596E0,-9.686935425E0,-1.795654297E0
7.715014271E0,-2.571365356E0,-9.677368164E0,-1.029510498E0
7.720019154E0,-2.159576416E0,-9.303863525E0,-4.788208008E-2
7.725024037E0,-1.972824097E0,-8.772354126E0,7.278442383E-1
7.729998402E0,-1.675933838E0,-8.216903687E0,9.768371582E-1
7.735003285E0,-1.431732178E0,-7.785949707E0,8.906402588E-1
7.740008168E0,-1.168365479E0,-7.603988647E0,8.858489990E-1
7.745013050E0,-8.523406982E-1,-7.565673828E0,9.481048584E-1
7.749987416E0,-3.447723389E-1,-7.508209229E0,1.043869019E0
7.754992298E0,4.357452393E-1,-7.369354248E0,1.340759277E0
7.759997181E0,1.144424438E0,-7.225708008E0,1.604110718E0
7.765002064E0,1.699890137E0,-7.034164429E0,1.719039917E0
7.769976429E0,2.020706177E0,-6.789962769E0,1.651992798E0
7.774981312E0,2.193084717E0,-6.569686890E0,1.513137817E0
7.779986195E0,2.231399536E0,-6.402099609E0,1.350326538E0
7.784991078E0,2.207458496E0,-6.368576050E0,1.197097778E0
7.789995961E0,2.121261597E0,-6.387725830E0,1.139633179E0
7.794970326E0,2.140411377E0,-6.421249390E0,1.067810059E0
7.799975209E0,2.135635376E0,-6.478713989E0,1.053451538E0
7.804980091E0,2.135635376E0,-6.483505249E0,1.024719238E0
7.809984974E0,2.231399536E0,-6.478713989E0,1.010360718E0
7.814959339E0,2.288864136E0,-6.459548950E0,1.029510498E0
7.819964222E0,2.384628296E0,-6.358993530E0,1.000778198E0
7.824969105E0,2.547424316E0,-6.268020630E0,9.528961182E-1
7.829973988E0,2.738967896E0,-6.215347290E0,8.188171387E-1
7.834948353E0,3.016693115E0,-6.114791870E0,7.900848389E-1
7.839953236E0,3.217803955E0,-5.928039551E0,8.666992188E-1
7.844958119E0,3.462020874E0,-5.650314331E0,9.002227783E-1
7.849963002E0,3.763687134E0,-5.300765991E0,9.050140381E-1
7.854967884E0,4.055770874E0,-4.951202393E0,9.193725586E-1
7.860247425E0,4.352661133E0,-4.553771973E0,9.816284180E-1
7.865557484E0,4.572921753E0,-4.151550293E0,1.082183838E0
7.870196156E0,4.754882812E0,-3.782836914E0,1.149215698E0
7.875445179E0,4.941635132E0,-3.418914795E0,1.221038818E0
7.880450062E0,5.032608032E0,-3.126831055E0,1.288085938E0
7.885454945E0,4.917694092E0,-2.868255615E0,1.374267578E0
7.890459828E0,4.697418213E0,-2.715026855E0,1.431732178E0
7.895464711E0,4.443634033E0,-2.600097656E0,1.503555298E0
7.900469593E0,4.141967773E0,-2.676712036E0,1.455673218E0
7.905474476E0,3.845092773E0,-2.863464355E0,1.465255737E0
7.910479359E0,3.672698975E0,-3.078948975E0,1.541870117E0
7.915484242E0,3.634399414E0,-3.251327515E0,1.551437378E0
7.920489125E0,3.634399414E0,-3.380615234E0,1.527496338E0
7.925494007E0,3.663131714E0,-3.557785034E0,1.417373657E0
7.930498890E0,3.682281494E0,-3.801986694E0,1.254562378E0
7.935503773E0,3.639190674E0,-4.132385254E0,9.864044189E-1
7.940508656E0,3.457229614E0,-4.606445312E0,4.309539795E-1
7.945513539E0,3.198654175E0,-5.166687012E0,-3.687133789E-1
7.950487904E0,2.729385376E0,-5.765243530E0,-1.489196777E0
7.955462269E0,2.044647217E0,-6.406890869E0,-2.863464355E0
7.960436634E0,1.182739258E0,-7.254425049E0,-4.860229492E0
7.965441517E0,1.484375000E-1,-8.288726807E0,-7.694961548E0
7.970415882E0,-1.110916138E0,-9.816223145E0,-1.044351196E1
7.975420765E0,-2.269699097E0,-1.232534790E1,-1.438916016E1
7.980395130E0,-4.074935913E0,-1.663970947E1,-2.331474304E1
7.985369496E0,-1.080743408E1,-2.513432312E1,-3.779487610E1
7.990374379E0,-2.131797791E1,-3.617639160E1,-4.123294067E1
7.995348744E0,-1.946965027E1,-4.048117065E1,-2.206974792E1
8.000353627E0,-1.081221008E1,-3.973417664E1,-5.602432251E0
8.005358509E0,-4.951202393E0,-3.746925354E1,-2.681579590E-1
8.010332875E0,-4.865020752E0,-3.365768433E1,-9.720458984E-1
8.015337757E0,-3.102890015E0,-2.539768982E1,-4.314346313E0
8.020342640E0,-3.035842896E0,-1.700840759E1,-3.481170654E0
8.025317005E0,-3.078948975E0,-9.299072266E0,-3.236953735E0
8.030321888E0,-9.582519531E-3,-2.006347656E0,-4.276046753E0
8.035326771E0,2.293640137E0,3.797210693E0,-4.319137573E0
8.040301136E0,5.329498291E0,7.991851807E0,-3.907333374E0
8.045306019E0,7.762008667E0,1.060153198E1,-2.920928955E0
8.050310902E0,9.380477905E0,1.193748474E1,-7.757263184E-1
8.055285267E0,8.906433105E0,1.125753784E1,1.790863037E0
8.060290150E0,9.629486084E0,9.706100464E0,2.930496216E0
8.065295033E0,1.006044006E1,8.049301147E0,4.256896973E0
8.070269398E0,9.595962524E0,6.296752930E0,7.910446167E0
8.075274281E0,8.441955566E0,4.055770874E0,1.222958374E1
8.080279164E0,7.321472168E0,1.800445557E0,1.527500916E1
8.085253529E0,8.327026367E0,-1.580200195E-1,1.593580627E1
8.090258412E0,4.678268433E0,-3.011901855E0,1.651519775E1
8.095263295E0,4.917694092E0,-5.688629150E0,1.327824402E1
8.100237660E0,3.509902954E0,-9.610321045E0,1.150173950E1
8.105242543E0,4.299987793E0,-1.441310120E1,8.815444946E0
8.110247425E0,6.023818970E0,-2.097799683E1,6.833053589E0
8.115221791E0,7.757217407E0,-2.718376160E1,4.017471313E0
8.120226673E0,6.698974609E0,-3.508941650E1,-4.338287354E0
8.125231556E0,-9.500198364E0,-5.072355652E1,-5.708734131E1
8.130205922E0,-2.037466431E1,-5.640739441E1,-5.045541382E1
8.135210804E0,-1.333570862E1,-5.050329590E1,-2.722207642E1
8.140215687E0,-1.305798340E1,-3.959051514E1,-2.068589783E1
8.145190052E0,-9.088394165E0,-2.614468384E1,-1.613691711E1
8.150194935E0,-3.691864014E0,-1.666365051E1,-1.137724304E1
8.155199818E0,2.442016602E-1,-9.844955444E0,-4.611236572E0
8.160174183E0,2.695877075E0,-4.419692993E0,2.964019775E0
8.165179066E0,3.586517334E0,1.340789795E-1,1.037168884E1
8.170183949E0,5.205001831E0,3.993530273E0,1.624705505E1
8.175158314E0,6.296752930E0,6.339843750E0,1.983357239E1
8.180163197E0,6.823471069E0,7.101196289E0,1.782722473E1
8.185168080E0,7.632720947E0,6.856994629E0,1.656309509E1
8.190142445E0,3.524261475E0,5.262451172E0,1.941697693E1
8.195147328E0,3.021484375E0,3.643981934E0,1.706108093E1
8.200152211E0,3.548202515E0,1.541870117E0,1.411141968E1
8.205279164E0,3.849884033E0,-9.145812988E-1,1.055842590E1
8.210436634E0,4.443634033E0,-3.466796875E0,7.824249268E0
8.215258412E0,4.544189453E0,-6.454772949E0,5.880157471E0
8.220110707E0,5.013458252E0,-9.950302124E0,4.635177612E0
8.224963002E0,5.166687012E0,-1.391510010E1,3.442855835E0
8.229876332E0,3.864242554E0,-1.791342163E1,2.068588257E0
8.234789662E0,1.422149658E0,-2.072421265E1,5.841827393E-1
8.239702992E0,-9.672546387E-1,-2.151429749E1,-1.474822998E0
8.244646839E0,-2.777267456E0,-2.122219849E1,-3.869033813E0
8.249590687E0,-4.304779053E0,-2.014002991E1,-5.473144531E0
8.254534535E0,-4.711791992E0,-1.704672241E1,-6.076477051E0
8.259508900E0,-2.944869995E0,-1.323036194E1,-5.348648071E0
8.264483265E0,-1.144424438E0,-1.061589050E1,-3.974380493E0
8.269457630E0,-4.309082031E-2,-8.863342285E0,-2.978393555E0
8.274431996E0,1.101333618E0,-7.498641968E0,-2.279281616E0
8.279406361E0,1.838745117E0,-6.526596069E0,-1.273712158E0
8.284411244E0,2.298431396E0,-5.923248291E0,-1.436462402E-1
8.289385609E0,2.600097656E0,-5.650314331E0,1.393432617E0
8.294390492E0,3.701431274E0,-5.568908691E0,1.877059937E0
8.299364857E0,5.195419312E0,-5.540176392E0,6.177062988E-1
8.304369740E0,4.453216553E0,-5.913681030E0,1.714248657E0
8.309344105E0,4.170700073E0,-6.411666870E0,3.011901855E0
8.314348988E0,3.519470215E0,-7.206542969E0,3.519470215E0
8.319353871E0,3.232177734E0,-8.049301147E0,3.749313354E0
8.324358754E0,3.821151733E0,-8.662216187E0,3.275268555E0
8.329333119E0,3.313568115E0,-9.409210205E0,3.366241455E0
8.334338002E0,2.212249756E0,-9.945510864E0,3.284851074E0
8.339342884E0,1.575378418E0,-1.034774780E1,2.059020996E0
8.344317250E0,9.528961182E-1,-1.069729614E1,7.996673584E-1
8.349322132E0,3.447723389E-1,-1.076911926E1,-2.968750000E-1
8.354327015E0,-1.101379395E-1,-1.063983154E1,-1.580169678E0
8.359331898E0,-5.363006592E-1,-1.038125610E1,-2.691085815E0
8.364306263E0,-7.230529785E-1,-9.998184204E0,-3.414138794E0
8.369311146E0,-5.219421387E-1,-9.519348145E0,-3.356674194E0
8.374316029E0,-3.256072998E-1,-9.184158325E0,-2.868255615E0
8.379320912E0,-2.059020996E-1,-8.877700806E0,-2.049438477E0
8.384295277E0,-1.101379395E-1,-8.638275146E0,-9.097900391E-1
8.389300160E0,8.140563965E-2,-8.370132446E0,1.340789795E-1
8.394305043E0,9.002227783E-1,-8.044525146E0,4.165954590E-1
8.399309925E0,1.388702393E-1,-7.967910767E0,1.077392578E0
8.404284291E0,3.303985596E-1,-7.680603027E0,1.120483398E0
8.409289173E0,3.878631592E-1,-7.517791748E0,6.607971191E-1
8.414294056E0,3.926544189E-1,-7.618347168E0,1.435852051E-2
8.419298939E0,5.937652588E-1,-7.996627808E0,-3.926544189E-1
8.424273304E0,8.954315186E-1,-8.576034546E0,-4.261627197E-1
8.429278187E0,1.034301758E0,-8.997406006E0,-3.112487793E-1
8.434283070E0,1.019927979E0,-9.332595825E0,-1.484375000E-1
8.439287953E0,1.077392578E0,-9.648635864E0,-4.788208008E-2
8.444262318E0,1.235412598E0,-9.873687744E0,9.097290039E-2
8.449267201E0,1.254562378E0,-1.002212524E1,3.543395996E-1
8.454272084E0,1.029510498E0,-1.010832214E1,6.033325195E-1
8.459276966E0,7.852935791E-1,-1.007479858E1,6.033325195E-1
8.464251332E0,4.548950195E-1,-9.902420044E0,3.734893799E-1
8.469256214E0,2.202606201E-1,-9.691726685E0,-4.791259766E-3
8.474261097E0,-4.791259766E-3,-9.457092285E0,-3.495483398E-1
8.479265980E0,-1.532287598E-1,-9.255981445E0,-6.081237793E-1
8.484240345E0,-1.053466797E-1,-9.184158325E0,-7.661437988E-1
8.489245228E0,3.352355957E-2,-9.270355225E0,-7.613525391E-1
8.494250111E0,2.585754395E-1,-9.437942505E0,-5.793914795E-1
8.499254994E0,5.267181396E-1,-9.629486084E0,-3.639221191E-1
8.504229359E0,8.954315186E-1,-9.787490845E0,-1.675872803E-1
8.509234242E0,1.474822998E0,-9.959884644E0,-1.197052002E-1
8.514239125E0,2.183517456E0,-1.022802734E1,-3.208160400E-1
8.519244007E0,2.758117676E0,-1.053927612E1,-7.134704590E-1
8.524218373E0,2.906555176E0,-1.090798950E1,-1.053451538E0
8.529223255E0,2.552215576E0,-1.134851074E1,-1.115692139E0
8.534228138E0,1.824386597E0,-1.168370056E1,-9.289550781E-1
8.539233021E0,8.810729980E-1,-1.175074768E1,-5.793914795E-1
8.544237904E0,-1.915435791E-1,-1.173158264E1,-1.292877197E-1
8.549242787E0,-6.560058594E-1,-1.179862976E1,-2.394104004E-2
8.554247670E0,-1.527496338E0,-1.209550476E1,1.340789795E-1
8.559252552E0,-1.666366577E0,-1.222000122E1,-4.932098389E-1
8.564226918E0,-1.714248657E0,-1.247857666E1,-1.805221558E0
8.569231800E0,-1.508346558E0,-1.255519104E1,-3.552993774E0
8.574236683E0,-1.039077759E0,-1.233972168E1,-5.267242432E0
8.579241566E0,-5.171508789E-1,-1.206677246E1,-6.521804810E0
8.584215931E0,-2.873229980E-2,-1.185130310E1,-6.833053589E0
8.589220814E0,3.160400391E-1,-1.207156372E1,-6.320693970E0
8.594225697E0,3.447723389E-1,-1.273715210E1,-5.420471191E0
8.599230580E0,1.484375000E-1,-1.392945862E1,-4.357452393E0
8.604235463E0,-3.303985596E-1,-1.561019897E1,-3.256118774E0
8.609240345E0,-1.077392578E0,-1.735795593E1,-2.576156616E0
8.614214711E0,-1.537078857E0,-1.858857727E1,-2.743759155E0
8.619219593E0,-1.953674316E0,-1.912966919E1,-3.524261475E0
8.624224476E0,-2.197875977E0,-1.859336853E1,-4.855438232E0
8.629229359E0,-2.006347656E0,-1.733401489E1,-6.153091431E0
8.634234242E0,-1.426940918E0,-1.586398315E1,-6.584060669E0
8.639239125E0,-5.123596191E-1,-1.436042786E1,-6.181823730E0
8.644213490E0,1.034301758E0,-1.291432190E1,-5.281616211E0
8.649218373E0,2.580947876E0,-1.176989746E1,-3.926498413E0
8.654223255E0,4.400543213E0,-1.080264282E1,-2.695877075E0
8.659228138E0,6.081268311E0,-1.000297546E1,-1.699890137E0
8.664233021E0,7.297531128E0,-9.715667725E0,-7.948760986E-1
8.669237904E0,8.647857666E0,-9.849746704E0,-3.639221191E-1
8.674212269E0,9.414001465E0,-1.034774780E1,5.554504395E-1
8.679217152E0,1.009873962E1,-1.105642700E1,1.259353638E0
8.684222035E0,1.023760986E1,-1.226310730E1,2.020706177E0
8.689226918E0,9.974243164E0,-1.371878052E1,2.466033936E0
8.694231800E0,8.987838745E0,-1.486320496E1,2.834732056E0
8.699236683E0,7.043746948E0,-1.523669434E1,3.332733154E0
8.704241566E0,5.616790771E0,-1.454238892E1,3.438079834E0
8.709215931E0,4.812347412E0,-1.346020508E1,3.016693115E0
8.714220814E0,2.844314575E0,-1.346977234E1,2.049438477E0
8.719225697E0,5.889739990E-1,-1.320162964E1,9.911956787E-1
8.724230580E0,-1.154006958E0,-1.247857666E1,3.256072998E-1
8.729235463E0,-2.202667236E0,-1.165975952E1,1.149291992E-1
8.734240345E0,-1.498764038E0,-1.114260864E1,-1.187530518E0
8.739245228E0,-3.955215454E0,-1.133894348E1,-1.264144897E0
8.744219593E0,-3.289627075E0,-1.084573364E1,-5.793914795E-1
8.749224476E0,-3.634399414E0,-1.086967468E1,1.435852051E-2
8.754229359E0,-3.371032715E0,-1.055363464E1,-2.633666992E-1
8.759234242E0,-2.398986816E0,-1.018014526E1,-7.948760986E-1
8.764239125E0,-1.211471558E0,-9.912002563E0,-7.661437988E-2
8.769244007E0,-1.628112793E-1,-9.567230225E0,3.687133789E-1
8.774248890E0,5.698242188E-1,-9.366119385E0,9.241638184E-1
8.779223255E0,9.433135986E-1,-9.126693726E0,1.221038818E0
8.784228138E0,1.149215698E0,-8.815444946E0,1.034301758E0
8.789233021E0,1.331176758E0,-8.537719727E0,8.331756592E-1
8.794237904E0,1.374267578E0,-8.264785767E0,8.236083984E-1
8.799242787E0,1.278503418E0,-7.991851807E0,1.067810059E0
8.804247670E0,1.211471558E0,-7.694961548E0,1.268920898E0
8.809252552E0,1.158798218E0,-7.331039429E0,1.407791138E0
8.814226918E0,9.241638184E-1,-7.024581909E0,1.359909058E0
8.819231800E0,7.374114990E-1,-6.785171509E0,1.244979858E0
8.824236683E0,6.416473389E-1,-6.660675049E0,1.043869019E0
8.829241566E0,5.123596191E-1,-6.579269409E0,9.385223389E-1
8.834246449E0,5.075683594E-1,-6.493072510E0,9.385223389E-1
8.839251332E0,6.033325195E-1,-6.402099609E0,9.528961182E-1
8.844256214E0,8.714904785E-1,-6.282379150E0,9.911956787E-1
8.849230580E0,1.240203857E0,-6.119583130E0,1.120483398E0
8.854235463E0,1.671157837E0,-6.023818970E0,1.163589478E0
8.859240345E0,2.140411377E0,-5.980712891E0,1.264144897E0
8.864245228E0,2.667144775E0,-5.971145630E0,1.331176758E0
8.869250111E0,3.165130615E0,-5.966354370E0,1.407791138E0
8.874254994E0,3.615249634E0,-5.942413330E0,1.446090698E0
8.879259877E0,3.960006714E0,-5.923248291E0,1.489196777E0
8.884264759E0,4.175491333E0,-5.832275391E0,1.541870117E0
8.889544300E0,4.309570312E0,-5.664688110E0,1.561019897E0
8.894854359E0,4.400543213E0,-5.473144531E0,1.522705078E0
8.899493031E0,4.434066772E0,-5.300765991E0,1.479614258E0
8.904742054E0,4.395751953E0,-5.094863892E0,1.446090698E0
8.909930043E0,4.299987793E0,-4.912902832E0,1.412582397E0
8.915118031E0,4.232955933E0,-4.740524292E0,1.383850098E0
8.920244984E0,4.194641113E0,-4.625595093E0,1.340759277E0
8.925371937E0,4.055770874E0,-4.525039673E0,1.331176758E0
8.930468373E0,3.849884033E0,-4.448425293E0,1.307235718E0
8.935473255E0,3.720596313E0,-4.491516113E0,1.264144897E0
8.940478138E0,3.600875854E0,-4.553771973E0,1.254562378E0
8.945483021E0,3.557785034E0,-4.649536133E0,1.288085938E0
8.950487904E0,3.572143555E0,-4.764465332E0,1.278503418E0
8.955492787E0,3.672698975E0,-4.874588013E0,1.235412598E0
8.960497670E0,3.801986694E0,-5.061340332E0,1.154006958E0
8.965472035E0,3.892974854E0,-5.252883911E0,1.120483398E0
8.970446400E0,3.945648193E0,-5.482727051E0,1.019927979E0
8.975420765E0,3.983947754E0,-5.894531250E0,5.602416992E-1
8.980425648E0,3.869033813E0,-6.402099609E0,-2.011108398E-1
8.985430531E0,3.409347534E0,-6.933609009E0,-1.154006958E0
8.990404896E0,2.810791016E0,-7.513000488E0,-2.542648315E0
8.995409779E0,2.202667236E0,-8.250411987E0,-4.309570312E0
9.000384144E0,1.508346558E0,-9.193740845E0,-6.253662109E0
9.005389027E0,6.799468994E-1,-1.041957092E1,-8.327026367E0
9.010393910E0,-4.932098389E-1,-1.221520996E1,-1.074517822E1
9.015368275E0,-2.896987915E0,-1.474827576E1,-1.521754456E1
9.020373158E0,-6.756439209E0,-1.904826355E1,-2.403300476E1
9.025378041E0,-1.369483948E1,-2.614468384E1,-3.615245056E1
9.030352406E0,-1.665885925E1,-3.179978943E1,-3.172317505E1
9.035357289E0,-1.165019226E1,-3.265213013E1,-1.973779297E1
9.040362172E0,-5.837066650E0,-3.080380249E1,-1.045787048E1
9.045367054E0,-2.925720215E0,-2.798822021E1,-5.008666992E0
9.050341420E0,-3.112457275E0,-2.337219238E1,-3.758895874E0
9.055346302E0,-2.427719116E0,-1.701319885E1,-4.108444214E0
9.060351185E0,-1.268920898E0,-1.066856384E1,-3.916915894E0
9.065356068E0,5.554504395E-1,-5.056549072E0,-3.050216675E0
9.070330433E0,2.652770996E0,-4.453277588E-1,-2.336746216E0
9.075335316E0,5.181045532E0,3.308792114E0,-2.169143677E0
9.080340199E0,7.417236328E0,5.980712891E0,-1.728607178E0
9.085314564E0,8.226470947E0,7.292739868E0,-4.932098389E-1
9.090319447E0,8.025360107E0,7.264007568E0,1.781280518E0
9.095324330E0,8.413223267E0,6.842636108E0,2.820373535E0
9.100329213E0,9.548080444E0,6.239288330E0,4.716583252E0
9.105303578E0,9.428359985E0,5.434844971E0,8.609542847E0
9.110308461E0,8.643066406E0,3.940856934E0,1.124795532E1
9.115313343E0,8.422805786E0,1.968032837E0,1.329260254E1
9.120318226E0,7.331039429E0,-6.799468994E-1,1.442266846E1
9.125292591E0,6.114791870E0,-3.557785034E0,1.529415894E1
9.130297474E0,6.229705811E0,-7.479492188E0,1.307713318E1
9.135302357E0,6.488281250E0,-1.209550476E1,1.058715820E1
9.140276722E0,6.943191528E0,-1.792778015E1,8.101974487E0
9.145281605E0,7.896072388E0,-2.434902954E1,6.512222290E0
9.150286488E0,7.316680908E0,-3.070803833E1,8.619079590E-1
9.155291371E0,-1.704666138E0,-3.810133362E1,-3.219721985E1
9.160265736E0,-1.596932983E1,-4.749139404E1,-5.853344727E1
9.165270619E0,-1.454716492E1,-4.841554260E1,-3.050691223E1
9.170275502E0,-1.380975342E1,-3.939419556E1,-2.157655334E1
9.175249867E0,-9.610321045E0,-2.555091858E1,-1.608424377E1
9.180254750E0,-4.678268433E0,-1.592144775E1,-8.791503906E0
9.185259632E0,-1.355117798E0,-9.715667725E0,-7.996673584E-1
9.190264515E0,6.943206787E-1,-4.730941772E0,5.837066650E0
9.195238880E0,1.331176758E0,-4.453277588E-1,1.047702026E1
9.200243763E0,3.936065674E0,3.821151733E0,1.328303528E1
9.205248646E0,5.410888672E0,6.469131470E0,1.689826965E1
9.210253529E0,7.522583008E0,6.780380249E0,1.924938965E1
9.215227894E0,7.647079468E0,6.086059570E0,1.973301697E1
9.220232777E0,5.798751831E0,4.740524292E0,1.874180603E1
9.225237660E0,5.243301392E0,2.619262695E0,1.522233582E1
9.230242543E0,4.951202393E0,-2.298431396E-1,1.159751892E1
9.235400013E0,4.807556152E0,-2.930496216E0,8.973464966E0
9.240526966E0,4.879379272E0,-5.214569092E0,6.540954590E0
9.245348744E0,5.195419312E0,-7.742843628E0,4.774032593E0
9.250201039E0,5.329498291E0,-1.101811218E1,3.016693115E0
9.255083851E0,4.343078613E0,-1.379060364E1,7.613525391E-1
9.259997181E0,2.691085815E0,-1.593101501E1,-9.050140381E-1
9.264910511E0,9.816284180E-1,-1.767399597E1,-2.169143677E0
9.269854359E0,-8.571166992E-1,-1.928768921E1,-3.217803955E0
9.274798207E0,-2.968811035E0,-2.055183411E1,-3.711013794E0
9.279742054E0,-4.592071533E0,-2.005862427E1,-3.816360474E0
9.284716420E0,-5.501876831E0,-1.768357849E1,-3.605667114E0
9.289660267E0,-5.329498291E0,-1.447055054E1,-3.624816895E0
9.294634632E0,-3.438079834E0,-1.188960266E1,-3.730163574E0
9.299608998E0,-3.931274414E0,-1.029028320E1,-2.715026855E0
9.304613880E0,-1.948883057E0,-8.676589966E0,-2.528274536E0
9.309588246E0,-2.154846191E-1,-7.460327148E0,-1.465255737E0
9.314562611E0,9.576873779E-1,-6.885726929E0,-4.453277588E-1
9.319567494E0,1.383850098E0,-6.837844849E0,7.757263184E-1
9.324541859E0,2.212249756E0,-6.684616089E0,1.426940918E0
9.329546742E0,3.179504395E0,-6.631942749E0,2.422927856E0
9.334551625E0,3.811569214E0,-6.684616089E0,2.916137695E0
9.339525990E0,3.706222534E0,-6.880935669E0,3.323150635E0
9.344530873E0,2.853881836E0,-7.393295288E0,3.275268555E0
9.349535755E0,2.226608276E0,-7.963119507E0,2.925720215E0
9.354510121E0,1.728607178E0,-8.374923706E0,2.590530396E0
9.359484486E0,1.426940918E0,-8.724472046E0,1.987182617E0
9.364489369E0,1.024719238E0,-9.533706665E0,1.216247559E0
9.369494252E0,3.639221191E-1,-1.037168884E1,7.517852783E-1
9.374468617E0,-1.340789795E-1,-1.074038696E1,5.410919189E-1
9.379473500E0,-4.309539795E-1,-1.099896240E1,1.963195801E-1
9.384478382E0,-6.033325195E-1,-1.100375366E1,-4.548950195E-1
9.389483265E0,-6.847381592E-1,-1.078826904E1,-1.149215698E0
9.394457630E0,-1.436462402E-1,-1.039562988E1,-1.810012817E0
9.399462513E0,-4.309539795E-1,-1.011311340E1,-2.231399536E0
9.404467396E0,-9.097290039E-2,-9.797073364E0,-2.533065796E0
9.409472279E0,3.351898193E-1,-9.495407104E0,-2.322372437E0
9.414446644E0,6.033325195E-1,-9.260772705E0,-1.819595337E0
9.419451527E0,9.241638184E-1,-9.088394165E0,-1.359909058E0
9.424456410E0,1.067810059E0,-8.954315186E0,-7.900848389E-1
9.429461293E0,1.034301758E0,-8.959106445E0,-3.064575195E-1
9.434435658E0,1.216247559E0,-8.978256226E0,8.140563965E-2
9.439440541E0,1.594543457E0,-8.911224365E0,3.639221191E-1
9.444445423E0,1.742980957E0,-8.944732666E0,6.751708984E-1
9.449450306E0,1.580169678E0,-9.069229126E0,1.067810059E0
9.454424672E0,1.537078857E0,-9.212890625E0,1.312026978E0
9.459429554E0,1.656784058E0,-9.318237305E0,1.446090698E0
9.464434437E0,1.709457397E0,-9.351745605E0,1.532287598E0
9.469439320E0,1.637634277E0,-9.375701904E0,1.489196777E0
9.474413685E0,1.584960938E0,-9.366119385E0,1.221038818E0
9.479418568E0,1.561019897E0,-9.332595825E0,9.337310791E-1
9.484423451E0,1.493988037E0,-9.337387085E0,7.086791992E-1
9.489428334E0,1.326385498E0,-9.442733765E0,4.644775391E-1
9.494402699E0,1.206680298E0,-9.572021484E0,1.819610596E-1
9.499407582E0,1.120483398E0,-9.739608765E0,-1.244964600E-1
9.504412464E0,1.072601318E0,-9.935943604E0,-3.687133789E-1
9.509417347E0,1.015136719E0,-1.012268066E1,-5.793914795E-1
9.514391713E0,9.816284180E-1,-1.031901550E1,-6.560058594E-1
9.519396595E0,8.810729980E-1,-1.048660278E1,-6.943206787E-1
9.524401478E0,8.044586182E-1,-1.053927612E1,-5.889739990E-1
9.529406361E0,7.230529785E-1,-1.051054382E1,-5.554504395E-1
9.534380726E0,6.512298584E-1,-1.036689758E1,-5.985565186E-1
9.539385609E0,5.554504395E-1,-1.017056274E1,-6.129150391E-1
9.544390492E0,3.495483398E-1,-1.005085754E1,-5.698242188E-1
9.549395375E0,1.101379395E-1,-9.864105225E0,-3.447723389E-1
9.554369740E0,-6.703186035E-2,-9.734817505E0,-8.140563965E-2
9.559374623E0,-1.388702393E-1,-9.643844604E0,2.633666992E-1
9.564379505E0,-4.788208008E-2,-9.600753784E0,4.884185791E-1
9.569384388E0,2.777252197E-1,-9.572021484E0,5.841827393E-1
9.574389271E0,5.793914795E-1,-9.710876465E0,5.937652588E-1
9.579363636E0,1.240203857E0,-1.009394836E1,1.101379395E-1
9.584368519E0,1.695098877E0,-1.054885864E1,-5.075683594E-1
9.589373402E0,1.829162598E0,-1.093670654E1,-1.024719238E0
9.594378285E0,1.656784058E0,-1.122880554E1,-1.268920898E0
9.599383168E0,1.283294678E0,-1.134373474E1,-1.254562378E0
9.604388050E0,7.996673584E-1,-1.134851074E1,-1.034301758E0
9.609392933E0,3.160400391E-1,-1.139161682E1,-7.326202393E-1
9.614397816E0,-1.005554199E-1,-1.154005432E1,-5.171508789E-1
9.619402699E0,-3.591308594E-1,-1.173637390E1,-5.171508789E-1
9.624407582E0,-5.746154785E-1,-1.198059082E1,-7.996673584E-1
9.629412464E0,-6.512298584E-1,-1.210029602E1,-1.364700317E0
9.634417347E0,-5.793914795E-1,-1.210508728E1,-2.245758057E0
9.639422230E0,-2.729339600E-1,-1.182257080E1,-3.270477295E0
9.644427113E0,1.292877197E-1,-1.128147888E1,-4.347869873E0
9.649431996E0,5.219421387E-1,-1.068292236E1,-5.032608032E0
9.654406361E0,8.762817383E-1,-1.015141296E1,-5.137954712E0
9.659411244E0,1.144424438E0,-9.806655884E0,-4.965576172E0
9.664416127E0,1.254562378E0,-9.667785645E0,-4.860229492E0
9.669421009E0,1.177947998E0,-9.912002563E0,-5.008666992E0
9.674425892E0,8.379669189E-1,-1.058236694E1,-5.295974731E0
9.679430775E0,2.250518799E-1,-1.171722412E1,-5.386947632E0
9.684435658E0,-5.554504395E-1,-1.329260254E1,-5.147537231E0
9.689410023E0,-1.527496338E0,-1.498291016E1,-4.616027832E0
9.694414906E0,-2.240966797E0,-1.640028381E1,-3.768478394E0
9.699419789E0,-2.911346436E0,-1.765963745E1,-3.327941895E0
9.704394154E0,-3.514694214E0,-1.857421875E1,-3.581726074E0
9.709399037E0,-3.366241455E0,-1.842098999E1,-4.003112793E0
9.714403920E0,-2.671936035E0,-1.720472717E1,-4.309570312E0
9.719408802E0,-1.881835938E0,-1.557667542E1,-4.707000732E0
9.724413685E0,-8.571166992E-1,-1.396777344E1,-4.673477173E0
9.729418568E0,4.070129395E-1,-1.251210022E1,-3.888183594E0
9.734392933E0,2.169143677E0,-1.127668762E1,-2.834732056E0
9.739397816E0,4.007888794E0,-1.034295654E1,-1.575378418E0
9.744402699E0,5.750869751E0,-9.782714844E0,-1.628112793E-1
9.749407582E0,7.168243408E0,-9.576812744E0,6.895294189E-1
9.754412464E0,8.690948486E0,-9.648635864E0,1.086975098E0
9.759417347E0,9.844955444E0,-1.016099548E1,1.556228638E0
9.764391713E0,1.077870178E1,-1.079785156E1,2.485183716E0
9.769396595E0,1.125753784E1,-1.179383850E1,3.394973755E0
9.774401478E0,1.126712036E1,-1.287123108E1,3.993530273E0
9.779406361E0,1.022802734E1,-1.369004822E1,4.118026733E0
9.784411244E0,8.494628906E0,-1.393424988E1,3.878601074E0
9.789416127E0,6.311111450E0,-1.357991028E1,3.672698975E0
9.794390492E0,3.687072754E0,-1.306755066E1,2.772491455E0
9.799395375E0,6.416473389E-1,-1.301008606E1,1.465255737E0
9.804400257E0,-1.048660278E0,-1.268447876E1,3.112487793E-1
9.809405140E0,-1.661575317E0,-1.183692932E1,-3.399810791E-1
9.814410023E0,-1.948883057E0,-1.181777954E1,-1.125274658E0
9.819414906E0,-4.553771973E0,-1.201889038E1,6.177062988E-1
9.824389271E0,-4.434066772E0,-1.163102722E1,2.346343994E-1
9.829394154E0,-4.400543213E0,-1.149217224E1,8.140258789E-1
9.834399037E0,-4.189849854E0,-1.089361572E1,-8.283996582E-1
9.839403920E0,-2.729385376E0,-1.007000732E1,-1.091751099E0
9.844408802E0,-1.173156738E0,-9.677368164E0,-4.357452393E-1
9.849413685E0,4.980010986E-1,-9.375701904E0,2.825164795E-1
9.854388050E0,1.288085938E0,-9.284713745E0,5.267181396E-1
9.859392933E0,1.273712158E0,-9.351745605E0,7.613525391E-1
9.864397816E0,1.163589478E0,-9.433151245E0,7.852935791E-1
9.869402699E0,1.302444458E0,-9.404418945E0,8.858489990E-1
9.874407582E0,1.417373657E0,-9.251190186E0,1.106124878E0
9.879412464E0,1.484405518E0,-9.002197266E0,1.264144897E0
9.884386830E0,1.412582397E0,-8.710113525E0,1.240203857E0
9.889391713E0,1.407791138E0,-8.408432007E0,1.086975098E0
9.894396595E0,1.398208618E0,-8.106765747E0,9.289550781E-1
9.899401478E0,1.436523438E0,-7.795516968E0,7.326202393E-1
9.904406361E0,1.422149658E0,-7.527374268E0,5.602416992E-1
9.909411244E0,1.436523438E0,-7.273590088E0,4.740447998E-1
9.914416127E0,1.599319458E0,-7.024581909E0,4.692687988E-1
9.919695668E0,1.867477417E0,-6.818679810E0,5.554504395E-1
9.924975209E0,2.164352417E0,-6.651092529E0,6.416473389E-1
9.929644398E0,2.489974976E0,-6.497863770E0,6.895294189E-1
9.934893422E0,2.820373535E0,-6.363784790E0,7.278442383E-1
9.940081410E0,3.122039795E0,-6.272811890E0,7.661437988E-1
9.945238880E0,3.404556274E0,-6.258438110E0,8.140258789E-1
9.950365834E0,3.629608154E0,-6.244079590E0,8.379669189E-1
9.955462269E0,3.845092773E0,-6.200988770E0,9.145812988E-1
9.960467152E0,4.027053833E0,-6.162673950E0,9.576873779E-1
9.965502552E0,4.065353394E0,-6.100433350E0,9.241638184E-1
9.970476918E0,4.003112793E0,-5.975921631E0,9.050140381E-1
9.975481800E0,3.907333374E0,-5.717361450E0,9.481048584E-1
9.980486683E0,3.859451294E0,-5.439620972E0,9.911956787E-1
9.985491566E0,3.945648193E0,-5.176269531E0,9.624633789E-1
9.990496449E0,4.022262573E0,-4.912902832E0,9.720458984E-1
9.995501332E0,4.070144653E0,-4.644744873E0,9.864044189E-1
1.000047570E1,4.089294434E0,-4.424484253E0,9.385223389E-1
1.000548058E1,4.074935913E0,-4.271255493E0,9.385223389E-1
1.001048546E1,3.993530273E0,-4.165908813E0,9.720458984E-1
1.001545983E1,3.888183594E0,-4.122817993E0,9.959869385E-1
1.002046471E1,3.696640015E0,-4.127609253E0,9.672546387E-1
1.002546959E1,3.557785034E0,-4.228164673E0,9.145812988E-1
1.003047448E1,3.457229614E0,-4.362228394E0,9.050140381E-1
1.003544884E1,3.442855835E0,-4.515457153E0,8.666992188E-1
1.004045372E1,3.495529175E0,-4.750091553E0,7.996673584E-1
1.004542809E1,3.576934814E0,-5.075714111E0,6.177062988E-1
1.005043297E1,3.696640015E0,-5.406112671E0,3.447723389E-1
1.005543786E1,3.687072754E0,-5.832275391E0,1.435852051E-2
1.006044274E1,3.543411255E0,-6.181823730E0,-4.548950195E-1
1.006541710E1,3.174713135E0,-6.536163330E0,-1.063018799E0
1.007042199E1,2.667144775E0,-6.900085449E0,-1.733398438E0
1.007542687E1,2.030288696E0,-7.273590088E0,-2.686294556E0
1.008043175E1,1.177947998E0,-7.881713867E0,-3.830718994E0
1.008540612E1,6.225585938E-2,-8.676589966E0,-5.257659912E0
1.009041100E1,-1.125274658E0,-9.864105225E0,-7.354980469E0
1.009541588E1,-2.379837036E0,-1.160708618E1,-1.040998840E1
1.010042076E1,-3.706222534E0,-1.408268738E1,-1.444660950E1
1.010539513E1,-6.277603149E0,-1.791821289E1,-1.997721863E1
1.011040001E1,-1.086009216E1,-2.331474304E1,-2.690124512E1
1.011540490E1,-1.286643982E1,-2.815580750E1,-2.730348206E1
1.012040978E1,-1.107557678E1,-3.032017517E1,-1.946006775E1
1.012538414E1,-7.599197388E0,-3.017173767E1,-1.121444702E1
1.013038903E1,-4.012680054E0,-2.835691833E1,-5.185836792E0
1.013539391E1,-2.264907837E0,-2.468421936E1,-3.548202515E0
1.014039879E1,-1.398208618E0,-1.891897583E1,-3.859451294E0
1.014537316E1,-4.548950195E-1,-1.284729004E1,-4.189849854E0
1.015037804E1,5.650329590E-1,-7.613555908E0,-4.003112793E0
1.015538292E1,1.968032837E0,-3.356674194E0,-3.586517334E0
1.016038781E1,4.309570312E0,3.399810791E-1,-3.495529175E0
1.016536217E1,6.550537109E0,3.083724976E0,-3.117248535E0
1.017036705E1,7.139511108E0,4.673477173E0,-1.637634277E0
1.017537194E1,7.608779907E0,5.319915771E0,-2.106933594E-1
1.018037682E1,9.447525024E0,5.219360352E0,5.746154785E-1
1.018535118E1,1.063983154E1,4.582504272E0,2.102111816E0
1.019035607E1,8.916000366E0,3.141189575E0,4.079727173E0
1.019536095E1,9.423583984E0,1.613693237E0,5.904098511E0
1.020036583E1,9.974243164E0,-9.582519531E-3,8.192962646E0
1.020534020E1,1.120486450E1,-2.355895996E0,9.471466064E0
1.021034508E1,1.003649902E1,-5.645523071E0,1.109472656E1
1.021534996E1,1.020887756E1,-9.543289185E0,1.062547302E1
1.022035485E1,9.734817505E0,-1.373793030E1,1.004127502E1
1.022532921E1,9.289505005E0,-1.836352539E1,8.738830566E0
1.023033410E1,8.269577026E0,-2.325727844E1,6.052536011E0
1.023533898E1,6.579269409E0,-2.562753296E1,2.001556396E0
1.024034386E1,8.954315186E-1,-2.860592651E1,-1.325430298E1
