"Time (s)","Acceleration x (m/s^2)","Acceleration y (m/s^2)","Acceleration z (m/s^2)"
0.000000000E0,3.902465105E-2,-1.093879986E1,-9.702993393E0
2.482395000E-3,3.648097515E-1,-1.201197433E1,-1.019167137E1
4.964739000E-3,8.702557087E-1,-1.305161190E1,-1.080491352E1
7.447187000E-3,1.222391129E0,-1.421581459E1,-1.119777298E1
9.929583000E-3,1.584108353E0,-1.548541737E1,-1.181341076E1
1.241197900E-2,2.036853790E0,-1.674783707E1,-1.254882240E1
1.489442700E-2,2.321915627E0,-1.811325836E1,-1.301114941E1
1.737682200E-2,2.698005676E0,-1.936609459E1,-1.352857304E1
1.985927000E-2,3.203451633E0,-2.055904198E1,-1.396215439E1
2.234166600E-2,3.562773705E0,-2.161784554E1,-1.407713795E1
2.482411400E-2,3.998750687E0,-2.231971931E1,-1.402683258E1
2.730651000E-2,4.465868950E0,-2.276527786E1,-1.383040333E1
2.978895800E-2,4.827586174E0,-2.282995605E1,-1.344952202E1
3.227135400E-2,5.004851341E0,-2.259040833E1,-1.285065269E1
3.466526000E-2,4.772490025E0,-2.189092827E1,-1.206493568E1
3.714765600E-2,4.140083790E0,-2.079379845E1,-1.129359150E1
3.963010400E-2,3.318434715E0,-1.949305534E1,-1.057255268E1
4.211250000E-2,2.463248968E0,-1.805097580E1,-9.758090019E0
4.459494700E-2,1.639204264E0,-1.655859375E1,-8.864576340E0
4.707734300E-2,9.181652069E-1,-1.517400551E1,-8.050113678E0
4.955973900E-2,3.672052622E-1,-1.391637993E1,-7.355425358E0
5.204218700E-2,-2.364553511E-1,-1.288632393E1,-6.581685543E0
5.452453100E-2,-8.089747429E-1,-1.206946564E1,-5.740872860E0
5.700697900E-2,-1.283279419E0,-1.143705940E1,-5.158771515E0
5.948942700E-2,-1.668951511E0,-1.075674343E1,-4.727585316E0
6.197182200E-2,-2.083369255E0,-1.021536541E1,-4.313167572E0
6.434286400E-2,-2.291775942E0,-9.685964584E0,-4.004150867E0
6.682531200E-2,-2.550487518E0,-9.173331261E0,-3.659201622E0
6.930770800E-2,-2.837944984E0,-8.682258606E0,-3.395699024E0
7.179010400E-2,-2.972091675E0,-8.231908798E0,-3.352580547E0
7.427255200E-2,-3.082283735E0,-7.783955097E0,-3.208851814E0
7.675489500E-2,-3.252362728E0,-7.357560158E0,-3.175314903E0
7.923734300E-2,-3.434419155E0,-6.945537567E0,-3.292693377E0
8.171973900E-2,-3.561379433E0,-6.555074692E0,-3.275925159E0
8.420218700E-2,-3.724272013E0,-6.202939034E0,-3.299880028E0
8.668463500E-2,-3.803322792E0,-5.879549503E0,-3.295089006E0
8.916703100E-2,-3.815300226E0,-5.541787148E0,-3.309462070E0
9.164942700E-2,-3.805718184E0,-5.304634571E0,-3.326230288E0
9.405692700E-2,-3.738645077E0,-5.196837902E0,-3.232806444E0
9.653932200E-2,-3.671571493E0,-5.192047119E0,-3.122614384E0
9.902177000E-2,-3.544611216E0,-5.251934052E0,-2.832761765E0
1.015041660E-1,-3.372136831E0,-5.424408436E0,-2.526140451E0
1.039866140E-1,-3.192475796E0,-5.766962051E0,-2.217123747E0
1.064690100E-1,-3.144566298E0,-6.274803638E0,-1.678140998E0
1.089514060E-1,-3.180498600E0,-6.900023460E0,-1.115203619E0
1.114338540E-1,-3.271526575E0,-7.510870457E0,-4.468650818E-1
1.139162500E-1,-3.293086052E0,-8.045062065E0,3.340609670E-1
1.163986450E-1,-3.408068895E0,-8.627162933E0,9.640717506E-1
1.188810930E-1,-3.525447369E0,-9.264360428E0,1.550963998E0
1.213634890E-1,-3.657198668E0,-1.005486870E1,2.398963451E0
1.237634370E-1,-3.659594297E0,-1.079986191E1,3.096047878E0
1.262458330E-1,-3.472746849E0,-1.147538662E1,3.594307184E0
1.287282810E-1,-3.465560436E0,-1.204311562E1,3.994352102E0
1.312106770E-1,-3.585334301E0,-1.268031311E1,4.277018070E0
1.336930720E-1,-3.707503796E0,-1.340374756E1,4.473447800E0
1.361755200E-1,-3.882373810E0,-1.392596149E1,4.370441914E0
1.386579680E-1,-4.208158493E0,-1.430205154E1,4.377628326E0
1.411403640E-1,-4.526757240E0,-1.469011879E1,4.133289814E0
1.436227600E-1,-4.668090343E0,-1.507579136E1,3.548793077E0
1.461052080E-1,-4.948361397E0,-1.538959885E1,2.777449131E0
1.485876040E-1,-5.305287838E0,-1.581838989E1,2.018082380E0
1.510700000E-1,-5.633468628E0,-1.621124840E1,1.229969859E0
1.534601560E-1,-5.997581005E0,-1.633820915E1,6.576733291E-2
1.559425520E-1,-6.404812336E0,-1.636455917E1,-1.100830674E0
1.584249470E-1,-6.615614414E0,-1.605314827E1,-2.562072515E0
1.609073950E-1,-6.692269802E0,-1.549979019E1,-3.671179295E0
1.633897910E-1,-6.663524151E0,-1.475958729E1,-4.792263031E0
1.658722390E-1,-6.462304115E0,-1.402417564E1,-5.688172340E0
1.683546350E-1,-5.985603809E0,-1.329834557E1,-6.054680824E0
1.708370310E-1,-5.240610123E0,-1.254377079E1,-5.712127209E0
1.733194790E-1,-4.507593155E0,-1.218684387E1,-4.981506348E0
1.758018750E-1,-3.918305874E0,-1.201676464E1,-3.905936003E0
1.782842700E-1,-3.041560650E0,-1.159995174E1,-2.612377644E0
1.807667700E-1,-2.021086931E0,-1.100347805E1,-1.201440811E0
1.831447910E-1,-1.161110044E0,-1.044293594E1,2.358463258E-1
1.856271870E-1,-3.442518711E-1,-9.884789467E0,1.562941432E0
1.881096350E-1,3.049228191E-1,-9.341015816E0,2.849313259E0
1.905920310E-1,9.612839222E-1,-8.799637794E0,3.912905931E0
1.930744790E-1,1.521826029E0,-8.296586990E0,4.701018333E0
1.955568750E-1,1.979362249E0,-7.793537140E0,5.412475109E0
1.980392700E-1,2.357847929E0,-7.364746094E0,5.891570568E0
2.005217180E-1,2.662073851E0,-6.955119610E0,6.272451878E0
2.030041140E-1,2.973485708E0,-6.581424713E0,6.610214233E0
2.054865620E-1,3.220220327E0,-6.361040592E0,6.859344482E0
2.079689580E-1,3.450185776E0,-6.186171055E0,7.007863998E0
2.104513540E-1,3.713688374E0,-5.939436436E0,7.058168888E0
2.128386450E-1,3.869394779E0,-5.798103333E0,7.158778667E0
2.153210410E-1,4.001145840E0,-5.790916920E0,7.307298660E0
2.178034890E-1,4.044264793E0,-5.836431026E0,7.321671963E0
2.202858850E-1,4.049055576E0,-5.920272827E0,7.302507877E0
2.227682810E-1,3.950840950E0,-6.116702080E0,7.424677372E0
2.252507290E-1,3.811903477E0,-6.401763916E0,7.388744831E0
2.277331250E-1,3.610682964E0,-6.593401909E0,7.276157379E0
2.302155720E-1,3.447790623E0,-6.876068592E0,7.142010689E0
2.326979680E-1,3.220220327E0,-7.321627617E0,6.943185806E0
2.351803640E-1,2.836943388E0,-7.870192051E0,6.650937557E0
2.376628120E-1,2.424921274E0,-8.387615204E0,6.411389828E0
2.401452080E-1,2.051226854E0,-8.950552940E0,6.047276974E0
2.425288020E-1,1.742209911E0,-9.410484314E0,5.735864639E0
2.450111970E-1,1.476311684E0,-9.820111275E0,5.314260960E0
2.474936450E-1,1.258323193E0,-1.024890137E1,4.842351437E0
2.499760410E-1,1.081057906E0,-1.070164776E1,4.514170647E0
2.524584370E-1,9.109789133E-1,-1.106336498E1,4.121312141E0
2.549408850E-1,7.025722265E-1,-1.137477684E1,3.711685658E0
2.574232810E-1,5.492615700E-1,-1.163348866E1,3.270917416E0
2.599057290E-1,4.438605309E-1,-1.195448303E1,2.858895302E0
2.623881250E-1,5.013519526E-1,-1.227308178E1,2.461245775E0
2.648705720E-1,5.804028511E-1,-1.256053829E1,2.104319572E0
2.673529680E-1,6.618491411E-1,-1.273061752E1,1.790511847E0
2.698353640E-1,7.888095379E-1,-1.290788269E1,1.455144882E0
2.722197910E-1,9.804477692E-1,-1.297974777E1,1.186851263E0
2.747021870E-1,1.236763954E0,-1.297974777E1,9.832355976E-1
2.771846350E-1,1.469125271E0,-1.297495651E1,6.670324802E-1
2.796670310E-1,1.672740936E0,-1.290788269E1,4.514393806E-1
2.821494270E-1,1.876356840E0,-1.286236858E1,2.478237003E-1
2.846318750E-1,1.861983776E0,-1.275936317E1,-1.737805158E-1
2.871142700E-1,1.586503744E0,-1.256532955E1,-4.444695711E-1
2.895966660E-1,1.437984228E0,-1.237129593E1,-6.816219687E-1
2.920791140E-1,1.375701666E0,-1.210300255E1,-9.810567498E-1
2.945615100E-1,1.308628201E0,-1.182991791E1,-1.179881454E0
2.970439580E-1,1.126571894E0,-1.158797455E1,-1.290073514E0
2.995263540E-1,9.756567478E-1,-1.126698017E1,-1.452965975E0
3.019086450E-1,7.025722265E-1,-1.102264118E1,-1.512853026E0
3.043910410E-1,3.264821172E-1,-1.076392937E1,-1.670954585E0
3.068734890E-1,7.016587257E-2,-1.055073261E1,-1.699700356E0
3.093558850E-1,-1.047040224E-1,-1.036628056E1,-1.721259594E0
3.118382810E-1,-3.729976416E-1,-1.006924057E1,-1.618253946E0
3.143207290E-1,-6.676414609E-1,-9.793760300E0,-1.371519685E0
3.168031250E-1,-8.305340409E-1,-9.580563545E0,-1.237372994E0
3.192855720E-1,-1.046127081E0,-9.388925552E0,-1.333192110E0
3.217679680E-1,-1.216206074E0,-9.082304001E0,-1.165508628E0
3.242503640E-1,-1.376703143E0,-8.727772713E0,-8.588873744E-1
3.267328120E-1,-1.446171999E0,-8.413965225E0,-6.672490835E-1
3.292152080E-1,-1.508454442E0,-8.198371887E0,-5.426841974E-1
3.315988020E-1,-1.532409191E0,-8.066620827E0,-4.875882268E-1
3.340811970E-1,-1.501268029E0,-7.863005161E0,-3.390685320E-1
3.365636450E-1,-1.453358412E0,-7.659389973E0,-2.887634933E-1
3.390460410E-1,-1.438985586E0,-7.462961197E0,-3.294866085E-1
3.415284370E-1,-1.484499693E0,-7.242577076E0,-3.678142726E-1
3.440108850E-1,-1.496477127E0,-7.031774521E0,-3.246956468E-1
3.464932810E-1,-1.462940454E0,-6.902419090E0,-2.815770507E-1
3.489756770E-1,-1.403053403E0,-6.876068592E0,-2.192946076E-1
3.514581250E-1,-1.405448914E0,-6.844927788E0,-2.765633166E-2
3.539405200E-1,-1.549177647E0,-6.806599617E0,2.025325596E-2
3.564229680E-1,-1.731233954E0,-6.854509830E0,2.743969858E-2
3.589053640E-1,-1.800702929E0,-6.959910393E0,1.136769205E-1
3.612822390E-1,-1.896522045E0,-7.012610912E0,1.903322190E-1
3.637646350E-1,-2.066600800E0,-7.043752193E0,3.915524483E-1
3.662470830E-1,-2.275007486E0,-7.065311432E0,5.424675941E-1
3.687294790E-1,-2.545696735E0,-7.031774521E0,7.293148637E-1
3.712118750E-1,-2.634329319E0,-7.003029346E0,9.425125122E-1
3.736943220E-1,-2.622352123E0,-7.015006542E0,1.081450224E0
3.761767180E-1,-2.478623390E0,-7.010215759E0,1.196433306E0
3.786591660E-1,-2.327708244E0,-7.034170151E0,1.213201523E0
3.811415620E-1,-2.138465405E0,-7.127593994E0,1.256320119E0
3.836239580E-1,-1.874962687E0,-7.242577076E0,1.380885005E0
3.861064060E-1,-1.707279086E0,-7.410260677E0,1.498263478E0
3.885888020E-1,-1.520431757E0,-7.633039951E0,1.546172976E0
3.909721870E-1,-1.254533768E0,-7.894147396E0,1.584500790E0
3.934545830E-1,-1.010194898E0,-8.131299019E0,1.634805799E0
3.959370310E-1,-7.706470490E-1,-8.303773880E0,1.723438501E0
3.984194270E-1,-5.334947109E-1,-8.454689026E0,1.692297220E0
4.009018220E-1,-2.484327555E-1,-8.521761894E0,1.788116455E0
4.033842700E-1,-4.242157936E-2,-8.610394478E0,1.826443911E0
4.058666660E-1,1.037026048E-1,-8.722982407E0,1.816862106E0
4.083491140E-1,2.641996741E-1,-8.816405296E0,1.752184272E0
4.108315100E-1,3.432503939E-1,-8.897851944E0,1.713856459E0
4.133139060E-1,5.205159187E-1,-8.988881111E0,1.740206838E0
4.157963540E-1,6.642446518E-1,-9.020021439E0,1.615641952E0
4.182787500E-1,8.391145468E-1,-9.048768044E0,1.457540393E0
4.206620830E-1,9.660748243E-1,-9.072721481E0,1.400048852E0
4.231444790E-1,1.061893940E0,-9.036789894E0,1.299438715E0
4.256269270E-1,1.169690490E0,-9.029603958E0,1.191642284E0
4.281093220E-1,1.239159346E0,-9.008043289E0,1.124568939E0
4.305917180E-1,1.241554856E0,-8.988881111E0,9.928175211E-1
4.330741660E-1,1.337373972E0,-8.979298592E0,8.754391670E-1
4.355565620E-1,1.418820143E0,-9.000857353E0,8.179476261E-1
4.380390100E-1,1.471520662E0,-9.008043289E0,7.556651235E-1
4.405214060E-1,1.464334488E0,-9.063139915E0,7.293148637E-1
4.430038020E-1,1.517035007E0,-9.055953979E0,6.358912587E-1
4.454862500E-1,1.536198854E0,-9.089490891E0,7.005691528E-1
4.479686450E-1,1.634413481E0,-9.094281197E0,5.448631048E-1
4.503584890E-1,1.648786306E0,-9.070326805E0,5.544449687E-1
4.528408850E-1,1.639204264E0,-9.151772499E0,5.688178539E-1
4.553233330E-1,1.612854004E0,-9.235614777E0,4.490438700E-1
4.578057290E-1,1.744605541E0,-9.214056015E0,3.532247543E-1
4.602881250E-1,1.766164780E0,-9.238009453E0,2.909423113E-1
4.627705720E-1,1.802096844E0,-9.230823517E0,2.142869979E-1
4.652529680E-1,1.778141975E0,-9.221241951E0,1.544000357E-1
4.677353640E-1,1.684718609E0,-9.202077866E0,1.376316994E-1
4.702178120E-1,1.737418890E0,-9.166145325E0,1.520045549E-1
4.727002080E-1,1.751791716E0,-9.115840912E0,-2.073172182E-1
4.751826560E-1,1.586503744E0,-9.202077866E0,-2.528313100E-1
4.776650520E-1,1.543385267E0,-9.352993011E0,-4.133283794E-1
4.800486970E-1,1.524221182E0,-9.467975616E0,-5.091475248E-1
4.825310930E-1,1.526616812E0,-9.530258179E0,-7.031812668E-1
4.850135410E-1,1.502661943E0,-9.549422264E0,-8.804466724E-1
4.874959370E-1,1.402051926E0,-9.549422264E0,-7.798365355E-1
4.899783330E-1,1.478707314E0,-9.719501495E0,-8.780511618E-1
4.924607810E-1,1.502661943E0,-9.776992798E0,-1.033757329E0
4.949431770E-1,1.562548876E0,-9.870416641E0,-1.088853359E0
4.974256250E-1,1.713464260E0,-9.999773026E0,-1.100830674E0
4.999080200E-1,1.897916079E0,-1.011236000E1,-1.184672475E0
5.023904160E-1,2.017689943E0,-1.021776104E1,-1.263723254E0
5.048728120E-1,2.187768936E0,-1.035190773E1,-1.285282493E0
5.073552600E-1,2.319520235E0,-1.048845005E1,-1.376310706E0
5.097383330E-1,2.477621794E0,-1.062978268E1,-1.481711745E0
5.122207290E-1,2.614163876E0,-1.079986191E1,-1.534412265E0
5.147031770E-1,2.812988758E0,-1.092921734E1,-1.623044968E0
5.171855720E-1,2.963903904E0,-1.108013248E1,-1.694909334E0
5.196679680E-1,3.071700573E0,-1.127416706E1,-1.797914982E0
5.221504160E-1,3.263338804E0,-1.140112686E1,-1.970389366E0
5.246328120E-1,3.375926018E0,-1.153766918E1,-2.020694494E0
5.271152080E-1,3.457372665E0,-1.162630177E1,-2.059022188E0
5.295976560E-1,3.596310616E0,-1.173170376E1,-2.178796053E0
5.320800520E-1,3.716084003E0,-1.187064075E1,-2.312942743E0
5.345625000E-1,3.740038872E0,-1.185387230E1,-2.382411718E0
5.370448950E-1,3.847835541E0,-1.183710480E1,-2.418344021E0
5.393949470E-1,3.886162758E0,-1.182752228E1,-2.375225306E0
5.418773430E-1,3.840649128E0,-1.176284504E1,-2.317733765E0
5.443597910E-1,3.696920395E0,-1.173888969E1,-2.291383505E0
5.468421870E-1,3.644219875E0,-1.172930717E1,-2.190773487E0
5.493246350E-1,3.584332943E0,-1.174128437E1,-2.116513729E0
5.518070310E-1,3.510073185E0,-1.175326252E1,-2.020694494E0
5.542894270E-1,3.500491142E0,-1.172691250E1,-1.884152055E0
5.567718750E-1,3.411858559E0,-1.167900276E1,-1.747609854E0
5.592542700E-1,3.308852673E0,-1.162630177E1,-1.654186249E0
5.617366660E-1,3.296875477E0,-1.150173759E1,-1.464943409E0
5.642191140E-1,3.213033676E0,-1.139873123E1,-1.337983131E0
5.667015100E-1,3.052536726E0,-1.120230293E1,-1.203836203E0
5.690838540E-1,2.913599014E0,-1.100826836E1,-1.139158368E0
5.715662500E-1,2.798615932E0,-1.082621288E1,-1.088853359E0
5.740486970E-1,2.640514135E0,-1.068966961E1,-1.048130155E0
5.765310930E-1,2.439294338E0,-1.062738800E1,-1.091248870E0
5.790135410E-1,2.206932783E0,-1.047168159E1,-1.167904139E0
5.814959370E-1,2.020085573E0,-1.042137623E1,-1.390683651E0
5.839783850E-1,1.677531958E0,-1.048365879E1,-1.529621363E0
5.864607810E-1,1.464334488E0,-1.055073261E1,-1.843428969E0
5.889431770E-1,1.294255376E0,-1.069446087E1,-2.183587074E0
5.914256250E-1,1.095430732E0,-1.091005325E1,-2.528536081E0
5.939080200E-1,9.684703350E-1,-1.110887909E1,-2.942953825E0
5.963904160E-1,8.558828831E-1,-1.139154530E1,-3.405281067E0
5.988016660E-1,8.846286535E-1,-1.171733093E1,-3.759811640E0
6.012840620E-1,8.990014791E-1,-1.202155590E1,-4.018523693E0
6.037665100E-1,1.061893940E0,-1.238087749E1,-4.361077309E0
6.062489060E-1,1.208018184E0,-1.271864033E1,-4.526365280E0
6.087313020E-1,1.375701666E0,-1.292704678E1,-4.655721188E0
6.112137500E-1,1.646390676E0,-1.318815327E1,-4.667698383E0
6.136961970E-1,1.979362249E0,-1.346842480E1,-4.569483757E0
6.161785930E-1,2.297960997E0,-1.374150944E1,-4.425755024E0
6.186609890E-1,2.554276943E0,-1.401459503E1,-4.217348576E0
6.211433850E-1,2.877666712E0,-1.436433411E1,-4.044873714E0
6.236258330E-1,3.246570587E0,-1.477635670E1,-3.872399330E0
6.261082290E-1,3.589124203E0,-1.510693264E1,-3.656806231E0
6.284914060E-1,4.003541470E0,-1.541594887E1,-3.549009800E0
6.309738020E-1,4.331721783E0,-1.573694324E1,-3.307066441E0
6.334562500E-1,4.688648701E0,-1.610584831E1,-3.249574900E0
6.359386450E-1,5.035993099E0,-1.638851547E1,-3.168128729E0
6.384210410E-1,5.383337498E0,-1.660410690E1,-3.115428209E0
6.409034890E-1,5.651630878E0,-1.668315887E1,-2.990863323E0
6.433858850E-1,5.874410629E0,-1.668076324E1,-2.765688181E0
6.458682810E-1,5.874410629E0,-1.662087631E1,-2.514163017E0
6.483507290E-1,5.915133476E0,-1.642444611E1,-2.300965548E0
6.508331250E-1,6.013348103E0,-1.607949829E1,-2.183587074E0
6.533155720E-1,6.125935555E0,-1.556446838E1,-2.011112452E0
6.557980200E-1,6.058862209E0,-1.494403934E1,-1.869779229E0
6.581757810E-1,5.907947063E0,-1.423258305E1,-1.706886768E0
6.606581770E-1,5.733077049E0,-1.345644760E1,-1.558367133E0
6.631406250E-1,5.495924473E0,-1.270666218E1,-1.431406736E0
6.656230200E-1,5.098275661E0,-1.226110363E1,-1.532016873E0
6.681054680E-1,4.585642815E0,-1.199281025E1,-1.781146646E0
6.705878640E-1,4.300580978E0,-1.181794071E1,-2.039858341E0
6.730702600E-1,3.876581669E0,-1.167181683E1,-2.047044754E0
6.755527080E-1,3.414254189E0,-1.154485607E1,-1.953621030E0
6.780351040E-1,3.014209032E0,-1.153527355E1,-1.529621363E0
6.805175000E-1,2.549486160E0,-1.161672020E1,-7.127631903E-1
6.829999470E-1,2.192559719E0,-1.177482128E1,3.244790435E-1
6.854823430E-1,1.811678648E0,-1.188740921E1,1.354534745E0
6.878785410E-1,1.442775011E0,-1.199520588E1,2.305539846E0
6.903609370E-1,1.018775344E0,-1.202155590E1,3.424228191E0
6.928433850E-1,5.372842550E-1,-1.201916027E1,4.626758099E0
6.953257810E-1,1.027894020E-2,-1.221319485E1,5.637650490E0
6.978081770E-1,-6.053590775E-1,-1.250544262E1,6.466485977E0
7.002906250E-1,-1.110805035E0,-1.293662834E1,7.228247643E0
7.027730200E-1,-1.450963020E0,-1.334386063E1,7.841490269E0
7.052554160E-1,-1.776748061E0,-1.360975838E1,8.231954575E0
7.077378640E-1,-2.164815426E0,-1.388284302E1,8.449942589E0
7.102202600E-1,-2.380408764E0,-1.410801792E1,8.167276382E0
7.127027080E-1,-2.598397255E0,-1.435475159E1,7.896585941E0
7.151851040E-1,-2.943346024E0,-1.474042511E1,7.695366383E0
7.175686970E-1,-3.197266817E0,-1.515963268E1,7.427073002E0
7.200510930E-1,-3.539820194E0,-1.556446838E1,6.931208611E0
7.225335410E-1,-3.870396376E0,-1.598128223E1,6.442530632E0
7.250159370E-1,-4.373446465E0,-1.646756554E1,5.977808475E0
7.274983850E-1,-4.608203888E0,-1.686042404E1,5.201673508E0
7.299807810E-1,-4.977107525E0,-1.730358696E1,4.245877266E0
7.324631770E-1,-5.240610123E0,-1.768207169E1,3.223007917E0
7.349455720E-1,-5.616700172E0,-1.793120193E1,2.010895967E0
7.374280200E-1,-5.973626614E0,-1.816835403E1,7.341058254E-1
7.399104160E-1,-6.205987930E0,-1.812284088E1,-2.624132037E-1
7.423928640E-1,-6.385648727E0,-1.790006065E1,-1.184672475E0
7.448752600E-1,-6.184428692E0,-1.741377831E1,-2.128490925E0
7.472586970E-1,-5.868225574E0,-1.660410690E1,-2.897439480E0
7.497410930E-1,-5.437038898E0,-1.575131607E1,-3.244783878E0
7.522235410E-1,-4.835773945E0,-1.488654900E1,-3.510681868E0
7.547059370E-1,-4.361469269E0,-1.408645821E1,-3.625664949E0
7.571883330E-1,-4.050057411E0,-1.335344124E1,-3.443608761E0
7.596707810E-1,-3.724272013E0,-1.273061752E1,-3.225620270E0
7.621531770E-1,-3.451187611E0,-1.207904720E1,-2.708196640E0
7.646355720E-1,-3.278712988E0,-1.155443764E1,-2.128490925E0
7.671180200E-1,-3.087074757E0,-1.109690189E1,-1.776355624E0
7.696004160E-1,-2.715775728E0,-1.074237061E1,-1.381101727E0
7.720828120E-1,-2.615165472E0,-1.061061954E1,-5.881983042E-1
7.745652600E-1,-2.591210842E0,-1.061541080E1,1.615864784E-1
7.769472910E-1,-2.330103636E0,-1.048126411E1,5.736087561E-1
7.794296870E-1,-2.344476461E0,-1.030878830E1,1.047913551E0
7.819121350E-1,-2.440295696E0,-1.012673283E1,1.641992211E0
7.843945830E-1,-2.215120792E0,-9.992585182E0,1.886331081E0
7.868769270E-1,-1.530013800E0,-9.951862335E0,1.507845402E0
7.893593750E-1,-9.574943781E-1,-1.009559155E1,1.349743843E0
7.918417700E-1,-6.868053079E-1,-1.022494793E1,1.117382407E0
7.943241660E-1,-4.520484209E-1,-1.027046204E1,8.946028948E-1
7.968066140E-1,-7.595831156E-2,-1.027046204E1,9.401170015E-1
7.992890100E-1,2.019172311E-1,-1.033513927E1,8.347159624E-1
8.017714580E-1,3.743916750E-1,-1.037586308E1,8.371113539E-1
8.042538540E-1,4.989564419E-1,-1.044293594E1,1.273088574E0
8.066198430E-1,1.061893940E0,-1.021776104E1,1.373698592E0
8.091022390E-1,1.830842495E0,-9.709919930E0,1.306625247E0
8.115846350E-1,2.365034342E0,-9.305083275E0,1.071868300E0
8.140670310E-1,2.611768484E0,-9.010439873E0,7.197329998E-1
8.165494790E-1,2.674051046E0,-8.917016029E0,3.364564776E-1
8.190318750E-1,2.554276943E0,-8.816405296E0,-2.528313100E-1
8.215143220E-1,2.312333822E0,-8.734959602E0,-9.834522605E-1
8.239967180E-1,1.854797602E0,-8.696631432E0,-1.505666614E0
8.264791660E-1,1.430797815E0,-8.691840172E0,-1.819474220E0
8.289615620E-1,1.272696137E0,-8.663095474E0,-1.747609854E0
8.314439580E-1,1.241554856E0,-8.629558563E0,-1.342774034E0
8.339263540E-1,1.229577541E0,-8.418756485E0,-7.726501226E-1
8.363277600E-1,1.162504077E0,-8.174417496E0,-2.408539057E-1
8.388101560E-1,1.064289451E0,-8.006733894E0,2.238689214E-1
8.412926040E-1,9.996116161E-1,-7.889356136E0,5.831906796E-1
8.437750000E-1,9.732612371E-1,-7.798327923E0,8.466933966E-1
8.462573950E-1,1.136153817E0,-7.788746357E0,9.712582827E-1
8.487398430E-1,1.267905116E0,-7.786350727E0,1.016772270E0
8.512222390E-1,1.423611164E0,-7.819887161E0,1.071868300E0
8.537046350E-1,1.576921940E0,-7.819887161E0,1.019167781E0
8.561870830E-1,1.679927588E0,-7.716881752E0,9.425125122E-1
8.586694790E-1,1.713464260E0,-7.546802521E0,8.538798094E-1
8.611519270E-1,1.663158894E0,-7.362350464E0,9.856311083E-1
8.636343220E-1,1.756582737E0,-7.153944016E0,1.052704573E0
8.659843750E-1,1.900311470E0,-7.017402172E0,1.131755233E0
8.684667700E-1,1.988944292E0,-6.871277809E0,1.126964450E0
8.709492180E-1,2.000921488E0,-6.780249596E0,1.143732667E0
8.734316140E-1,2.008107901E0,-6.682034969E0,1.182060361E0
8.759140620E-1,1.861983776E0,-6.545492649E0,1.201224089E0
8.783964580E-1,1.643995285E0,-6.358644962E0,1.213201523E0
8.808789060E-1,1.418820143E0,-6.162216187E0,1.076659322E0
8.833613020E-1,1.160108566E0,-5.996928215E0,1.086241126E0
8.858436970E-1,1.100221634E0,-5.896317959E0,9.880266190E-1
8.883260930E-1,9.612839222E-1,-5.663956642E0,1.067077398E0
8.908085410E-1,8.678601980E-1,-5.414826393E0,1.088636637E0
8.932909370E-1,9.037923813E-1,-5.168092728E0,9.161622524E-1
8.957103120E-1,9.301427603E-1,-5.062691689E0,9.808400869E-1
8.981927080E-1,9.301427603E-1,-4.988431454E0,1.062286377E0
9.006751560E-1,9.684703350E-1,-4.930940151E0,1.131755233E0
9.031576040E-1,9.205607176E-1,-4.978849411E0,1.263506651E0
9.056399470E-1,7.696455717E-1,-4.993222713E0,1.330579996E0
9.081223950E-1,6.786174774E-1,-4.945312977E0,1.383280516E0
9.106047910E-1,4.750016928E-1,-4.926148891E0,1.527009249E0
9.130871870E-1,2.665951252E-1,-4.823143482E0,1.646783113E0
9.155696350E-1,8.693426847E-2,-4.684205532E0,1.610851049E0
9.180520310E-1,-6.398087740E-2,-4.588386536E0,1.618037343E0
9.205344790E-1,-1.933367252E-1,-4.468612671E0,1.630014777E0
9.230168750E-1,-3.370654583E-1,-4.334465981E0,1.627619386E0
9.253640100E-1,-4.951670468E-1,-4.248228550E0,1.661156058E0
9.278464060E-1,-5.766133070E-1,-4.173969269E0,1.718647480E0
9.303288540E-1,-7.083646059E-1,-4.061381817E0,1.721042991E0
9.328112500E-1,-7.706470490E-1,-4.035031319E0,1.723438501E0
9.352936970E-1,-9.143757820E-1,-4.025449276E0,1.800093651E0
9.377760930E-1,-9.958220720E-1,-4.013472080E0,1.723438501E0
9.402585410E-1,-1.187460303E0,-4.018262863E0,1.754579782E0
9.427409370E-1,-1.369516611E0,-3.996703625E0,1.812071085E0
9.452233330E-1,-1.484499693E0,-3.953584671E0,1.701879144E0
9.477057290E-1,-1.628228426E0,-3.908071041E0,1.644387603E0
9.501881770E-1,-1.764770627E0,-3.946398258E0,1.462331295E0
9.526705720E-1,-1.795911908E0,-3.915257454E0,1.344952941E0
9.550870310E-1,-1.901312828E0,-3.908071041E0,1.229969859E0
9.575694790E-1,-2.030668736E0,-3.881720543E0,1.189246774E0
9.600518750E-1,-2.085764885E0,-3.867347717E0,1.141337276E0
9.625343220E-1,-2.133674383E0,-3.891302586E0,9.688627720E-1
9.650166660E-1,-2.188770294E0,-3.915257454E0,8.251340389E-1
9.674991140E-1,-2.332499027E0,-3.879324913E0,8.419023752E-1
9.699815100E-1,-2.394781590E0,-3.874534130E0,7.676425576E-1
9.724639060E-1,-2.461854935E0,-3.884116173E0,5.855861902E-1
9.749463540E-1,-2.634329319E0,-3.836206436E0,4.466484785E-1
9.774287500E-1,-2.641515732E0,-3.730805397E0,1.064904779E-1
9.799111970E-1,-2.648702145E0,-3.644567966E0,-2.049217373E-1
9.823936450E-1,-2.675052404E0,-3.591867447E0,-3.965600133E-1
9.847439580E-1,-2.663074970E0,-3.539166927E0,-6.432943344E-1
9.872263540E-1,-2.706193686E0,-3.500839233E0,-9.044014215E-1
9.897088020E-1,-2.646306753E0,-3.469697952E0,-1.184672475E0
9.921911970E-1,-2.660679579E0,-3.512816906E0,-1.484107256E0
9.946736450E-1,-2.646306753E0,-3.601449490E0,-1.661372662E0
9.971560410E-1,-2.639120102E0,-3.697268486E0,-1.970389366E0
9.996384890E-1,-2.612770081E0,-3.785901070E0,-2.327315807E0
1.002120885E0,-2.627142906E0,-4.008680820E0,-2.686637402E0
1.004603281E0,-2.658284187E0,-4.229064941E0,-3.007631540E0
1.007085677E0,-2.641515732E0,-4.480590343E0,-3.441213131E0
1.009568125E0,-2.646306753E0,-4.732115746E0,-3.805325985E0
1.012050520E0,-2.710984707E0,-5.086646080E0,-4.169438839E0
1.014434218E0,-2.677448034E0,-5.400454044E0,-4.603020668E0
1.016910052E0,-2.593606234E0,-5.872363091E0,-5.091698170E0
1.019385885E0,-2.574442387E0,-6.373018265E0,-5.429460526E0
1.021861718E0,-2.629538536E0,-6.950328827E0,-5.606726170E0
1.024337552E0,-2.516950846E0,-7.532429695E0,-5.894183159E0
1.026813385E0,-2.344476461E0,-8.090575218E0,-6.198409081E0
1.029289218E0,-2.181583881E0,-8.701422691E0,-6.531380653E0
1.031765052E0,-1.989945650E0,-9.331433296E0,-6.809256077E0
1.034240885E0,-1.704883695E0,-1.005007744E1,-7.118272781E0
1.036716718E0,-1.338375449E0,-1.079746628E1,-7.432080746E0
1.039192552E0,-9.047938585E-1,-1.157120609E1,-7.911176205E0
1.041668385E0,-6.173364520E-1,-1.240483284E1,-8.160305977E0
1.044124166E0,-2.723875344E-1,-1.325522804E1,-8.483695030E0
1.046600000E0,2.881544232E-1,-1.412957764E1,-8.984350204E0
1.049075833E0,8.007868528E-1,-1.502069569E1,-9.655083656E0
1.051551666E0,1.169690490E0,-1.583515739E1,-1.020843983E1
1.054027500E0,1.555362463E0,-1.657056999E1,-1.063004398E1
1.056503333E0,1.902707100E0,-1.729879570E1,-1.100852966E1
1.058979166E0,2.247656107E0,-1.785694313E1,-1.147804356E1
1.061455000E0,2.468039989E0,-1.827375603E1,-1.175352383E1
1.063930833E0,2.501576424E0,-1.858037567E1,-1.166728592E1
1.066406666E0,2.609373331E0,-1.851809502E1,-1.167926407E1
1.068882500E0,2.539904356E0,-1.816835403E1,-1.137982845E1
1.071358333E0,2.326706648E0,-1.773237801E1,-1.098936558E1
1.073813593E0,2.149441242E0,-1.720058060E1,-1.070669937E1
1.076289427E0,2.000921488E0,-1.660171127E1,-1.032102776E1
1.078765260E0,1.847610950E0,-1.592139530E1,-1.003836060E1
1.081241093E0,1.574526548E0,-1.530575657E1,-9.671853065E0
1.083716927E0,1.279882431E0,-1.464700031E1,-9.238270760E0
1.086192760E0,1.002007008E0,-1.390679741E1,-8.847807884E0
1.088668593E0,6.714309454E-1,-1.316180325E1,-8.385480881E0
1.091144427E0,3.743916750E-1,-1.248867512E1,-7.915966988E0
1.093620260E0,6.537491083E-2,-1.187543201E1,-7.439267159E0
1.096096093E0,-3.370654583E-1,-1.129572582E1,-6.972148895E0
1.098571927E0,-6.341047883E-1,-1.076392937E1,-6.399629116E0
1.101047760E0,-9.311441183E-1,-1.028243828E1,-5.961256504E0
1.103539687E0,-1.295256853E0,-9.875207901E0,-5.573189259E0
1.106015520E0,-1.556364059E0,-9.477557182E0,-5.252195358E0
1.108491354E0,-1.831843972E0,-9.082304001E0,-4.940783024E0
1.110967187E0,-2.064205647E0,-8.730168343E0,-4.739562511E0
1.113443020E0,-2.315730810E0,-8.394802094E0,-4.394613743E0
1.115918854E0,-2.445086479E0,-8.092970848E0,-4.207766533E0
1.118394687E0,-2.756498814E0,-7.748023033E0,-3.963427544E0
1.120870520E0,-2.890645504E0,-7.479729176E0,-3.855630875E0
1.123346354E0,-3.127798080E0,-7.213830948E0,-3.637642384E0
1.125822135E0,-3.448791981E0,-7.034170151E0,-3.323834658E0
1.128298020E0,-3.611684561E0,-6.878464222E0,-3.026795387E0
1.130773802E0,-3.717085838E0,-6.720362663E0,-2.756106138E0
1.133193177E0,-3.899142027E0,-6.701198578E0,-2.473439932E0
1.135669010E0,-4.129107952E0,-6.734735489E0,-2.157236814E0
1.138144843E0,-4.284813881E0,-6.844927788E0,-1.797914982E0
1.140620677E0,-4.347096443E0,-7.062916279E0,-1.560762644E0
1.143096510E0,-4.452497482E0,-7.458169937E0,-1.383497119E0
1.145572343E0,-4.536339283E0,-7.932474613E0,-1.005011559E0
1.148048177E0,-4.581852913E0,-8.473853111E0,-7.439044118E-1
1.150524010E0,-4.591435432E0,-9.055953979E0,-4.804017544E-1
1.152999843E0,-4.617785454E0,-9.662009239E0,-7.317042351E-2
1.155475677E0,-4.692045689E0,-1.035909367E1,5.328856707E-1
1.157951458E0,-4.610599041E0,-1.104899120E1,1.129359722E0
1.160427343E0,-4.682463646E0,-1.188740921E1,1.795302868E0
1.162884010E0,-4.751932144E0,-1.274020004E1,2.497178078E0
1.165359843E0,-4.821401119E0,-1.356184864E1,3.153539181E0
1.167835677E0,-4.727977276E0,-1.420144176E1,3.534420252E0
1.170311510E0,-4.536339283E0,-1.500392628E1,3.757199764E0
1.172787343E0,-4.476452351E0,-1.570340633E1,3.946442366E0
1.175263177E0,-4.313559532E0,-1.640049171E1,3.635030270E0
1.177739010E0,-4.085988998E0,-1.695863914E1,3.242171764E0
1.180214843E0,-3.846441507E0,-1.722693253E1,2.602579117E0
1.182690677E0,-3.717085838E0,-1.737066078E1,1.883935452E0
1.185166510E0,-3.645221233E0,-1.753834534E1,1.258715630E0
1.187642343E0,-3.669176102E0,-1.761260414E1,2.238689214E-1
1.190118177E0,-3.729063034E0,-1.771081924E1,-4.851927161E-1
1.192565260E0,-3.609288931E0,-1.749043465E1,-1.110412598E0
1.195041093E0,-3.455978394E0,-1.716225433E1,-1.666163564E0
1.197516927E0,-3.350577593E0,-1.675023270E1,-2.051835775E0
1.199992760E0,-3.106238604E0,-1.619927216E1,-2.435112238E0
1.202468645E0,-2.794826508E0,-1.557884121E1,-2.827970743E0
1.204944427E0,-2.576838017E0,-1.483384800E1,-3.125010014E0
1.207420260E0,-2.449877501E0,-1.400261688E1,-3.144174099E0
1.209896093E0,-2.313335419E0,-1.313784885E1,-3.057936668E0
1.212371927E0,-2.207934141E0,-1.226110363E1,-2.839947939E0
1.214847760E0,-2.104928493E0,-1.145622253E1,-2.300965548E0
1.217323593E0,-2.001923084E0,-1.056989574E1,-1.438593149E0
1.219799427E0,-1.692906380E0,-9.738664627E0,-6.049666405E-1
1.222263750E0,-1.405448914E0,-8.952947617E0,4.179027081E-1
1.224739583E0,-1.144341707E0,-8.298982620E0,1.349743843E0
1.227215416E0,-8.473023772E-1,-7.676158428E0,2.262421370E0
1.229691250E0,-5.814042687E-1,-7.134780407E0,3.124793530E0
1.232167083E0,-3.202970922E-1,-6.619752407E0,3.824273348E0
1.234642916E0,7.883429527E-3,-6.229289532E0,4.406374454E0
1.237118750E0,3.216910958E-1,-5.838826656E0,4.998057365E0
1.239594583E0,6.786174774E-1,-5.534600735E0,5.594532013E0
1.242070416E0,1.009193540E0,-5.316612244E0,5.975412846E0
1.244546250E0,1.282277942E0,-5.081855297E0,6.346711636E0
1.247022083E0,1.548176289E0,-4.966872215E0,6.674892426E0
1.249497916E0,1.804492235E0,-4.911776066E0,7.031818867E0
1.251966770E0,2.084763288E0,-4.911776066E0,7.204293251E0
1.254442656E0,2.281192541E0,-5.002804756E0,7.443840981E0
1.256918437E0,2.520740509E0,-5.158510685E0,7.601942062E0
1.259394270E0,2.676446438E0,-5.378894806E0,7.721716404E0
1.261870104E0,2.741124392E0,-5.541787148E0,7.810348988E0
1.264345937E0,2.836943388E0,-5.747797966E0,7.767230988E0
1.266821770E0,2.925576210E0,-5.953809738E0,7.791184902E0
1.269297604E0,2.882457733E0,-6.183775425E0,7.884608746E0
1.271773437E0,2.829757214E0,-6.507164955E0,7.764835358E0
1.274249270E0,2.669260025E0,-6.868882179E0,7.657038689E0
1.276725104E0,2.580627441E0,-7.309649944E0,7.577987671E0
1.279200937E0,2.451271534E0,-7.798327923E0,7.336044312E0
1.281641406E0,2.190164566E0,-8.375638008E0,7.113264561E0
1.284117239E0,1.912288904E0,-8.902642250E0,6.818621159E0
1.286593072E0,1.632018089E0,-9.446416855E0,6.612609863E0
1.289068906E0,1.299046397E0,-9.980608940E0,6.334734440E0
1.291544739E0,1.002007008E0,-1.048605442E1,6.064045429E0
1.294020572E0,6.426852942E-1,-1.087891293E1,5.881989002E0
1.296496406E0,3.600188494E-1,-1.127177143E1,5.671186924E0
1.298972239E0,2.019172311E-1,-1.162390709E1,5.477153301E0
1.301448072E0,1.995217204E-1,-1.191855049E1,5.213650227E0
1.303923906E0,1.803579330E-1,-1.216768074E1,4.842351437E0
1.306399739E0,8.932971954E-2,-1.243118286E1,4.705808640E0
1.308875520E0,1.204709411E-1,-1.257251549E1,4.317741394E0
1.311353385E0,1.779624224E-1,-1.265875340E1,4.037470341E0
1.313829218E0,3.935555220E-1,-1.270187187E1,3.544002295E0
1.316305052E0,5.037474632E-1,-1.269708061E1,3.131979704E0
1.318780885E0,5.061429739E-1,-1.265156651E1,2.753494263E0
1.321256718E0,5.612390041E-1,-1.268510342E1,2.042037010E0
1.323732552E0,6.522670984E-1,-1.267552185E1,1.294647932E0
1.326208385E0,7.720410824E-1,-1.274020004E1,4.801851511E-1
1.328684218E0,7.959958315E-1,-1.286715984E1,-3.438594937E-1
1.331160052E0,8.966059685E-1,-1.284799671E1,-1.512853026E0
1.333635885E0,1.097826242E0,-1.269228935E1,-2.413552999E0
1.336111718E0,1.270300627E0,-1.252460670E1,-3.266343117E0
1.338587552E0,1.332583070E0,-1.229464054E1,-3.937077284E0
1.341050677E0,1.215204597E0,-1.204311562E1,-4.394613743E0
1.343526510E0,8.678601980E-1,-1.172691250E1,-4.576670170E0
1.346002343E0,5.492615700E-1,-1.138675499E1,-4.624579906E0
1.348478177E0,9.412068129E-2,-1.113283348E1,-4.253280640E0
1.350954010E0,-2.316643894E-1,-1.077590752E1,-4.083201408E0
1.353429843E0,-6.388957500E-1,-1.041418934E1,-3.656806231E0
1.355905677E0,-8.928164840E-1,-1.008361340E1,-3.309462070E0
1.358381510E0,-1.220997095E0,-9.812924385E0,-2.930976152E0
1.360857343E0,-1.613855481E0,-9.470371246E0,-2.566863537E0
1.363333125E0,-1.882149100E0,-9.166145325E0,-2.279406071E0
1.365809010E0,-2.128883362E0,-8.917016029E0,-1.982366681E0
1.368284843E0,-2.313335419E0,-8.684654236E0,-1.678140998E0
1.370728125E0,-2.361244678E0,-8.500202179E0,-1.304446340E0
1.373203958E0,-2.294171333E0,-8.315751076E0,-9.451246262E-1
1.375679791E0,-2.210329533E0,-8.116926193E0,-7.415089011E-1
1.378155625E0,-1.999527454E0,-7.982779980E0,-5.762209296E-1
1.380631458E0,-1.740815878E0,-7.913311481E0,-3.965600133E-1
1.383107239E0,-1.815075755E0,-7.848633289E0,-1.929443479E-1
1.385583125E0,-1.817471147E0,-7.738440990E0,3.484889865E-3
1.388058958E0,-1.587505341E0,-7.592316628E0,2.645920515E-1
1.390534791E0,-1.515640974E0,-7.467751980E0,4.993489385E-1
1.393010572E0,-1.525222778E0,-7.398283005E0,6.215183735E-1
1.395486458E0,-1.525222778E0,-7.316836834E0,7.556651235E-1
1.397962239E0,-1.577923298E0,-7.185085773E0,7.987837791E-1
1.400403385E0,-1.633019328E0,-7.103639126E0,9.784446955E-1
1.402879218E0,-1.815075755E0,-7.094057083E0,1.095823169E0
1.405355052E0,-2.037855148E0,-7.082079411E0,1.162896514E0
1.407830885E0,-2.296566963E0,-7.082079411E0,1.287461400E0
1.410306718E0,-2.423527241E0,-7.144361973E0,1.392862439E0
1.412782552E0,-2.524137497E0,-7.168317318E0,1.347348452E0
1.415258385E0,-2.555278540E0,-7.185085773E0,1.368907690E0
1.417734218E0,-2.473832130E0,-7.261740685E0,1.435981035E0
1.420210052E0,-2.267821312E0,-7.302463531E0,1.201224089E0
1.422685885E0,-2.124092340E0,-7.388700962E0,1.217992544E0
1.425161718E0,-1.853403330E0,-7.510870457E0,1.172478437E0
1.427637500E0,-1.450963020E0,-7.587525845E0,1.105404973E0
1.430103281E0,-1.153923631E0,-7.721672535E0,1.165292025E0
1.432579114E0,-9.000028968E-1,-8.021106720E0,1.217992544E0
1.435054947E0,-6.939917803E-1,-8.241491318E0,1.237156391E0
1.437530781E0,-4.592348337E-1,-8.490620613E0,1.141337276E0
1.440006614E0,-2.436417937E-1,-8.727772713E0,1.119777918E0
1.442482447E0,-1.367586851E-2,-8.931388855E0,1.091032147E0
1.444958281E0,2.282674909E-1,-9.077512741E0,1.083845735E0
1.447434114E0,4.558379650E-1,-9.199682236E0,1.064681888E0
1.449909947E0,7.672500610E-1,-9.278733253E0,9.209531546E-1
1.452385729E0,1.033148289E0,-9.386529922E0,9.185577631E-1
1.454861614E0,1.208018184E0,-9.420066833E0,7.915973663E-1
1.457337395E0,1.382888079E0,-9.417670250E0,7.293148637E-1
1.459783645E0,1.593690157E0,-9.381738663E0,7.556651235E-1
1.462259479E0,1.797306061E0,-9.290710449E0,6.071454883E-1
1.464735312E0,1.938639164E0,-9.209264755E0,6.718233824E-1
1.467211145E0,2.118299961E0,-9.139795303E0,6.814053059E-1
1.469686979E0,2.362638712E0,-9.072721481E0,5.736087561E-1
1.472162812E0,2.508763075E0,-8.962529182E0,5.927726626E-1
1.474638645E0,2.712378740E0,-8.842755318E0,5.328856707E-1
1.477114479E0,2.937553644E0,-8.720586777E0,6.095409393E-1
1.479590312E0,3.110028267E0,-8.687049866E0,7.293148637E-1
1.482066145E0,3.248965979E0,-8.574462891E0,7.652471066E-1
1.484541979E0,3.411858559E0,-8.509784698E0,6.981737018E-1
1.487017812E0,3.543610096E0,-8.442711830E0,6.095409393E-1
1.489491354E0,3.591519356E0,-8.382824898E0,6.334957480E-1
1.491967187E0,3.629847050E0,-8.363660812E0,6.287048459E-1
1.494443020E0,3.658592701E0,-8.318146706E0,5.903771520E-1
1.496918854E0,3.615474224E0,-8.282213211E0,6.981737018E-1
1.499394687E0,3.569960117E0,-8.327728271E0,7.652471066E-1
1.501870520E0,3.646615505E0,-8.339705467E0,6.981737018E-1
1.504346354E0,3.567564487E0,-8.332519531E0,7.987837791E-1
1.506822187E0,3.534028053E0,-8.399592400E0,7.484787107E-1
1.509298020E0,3.440604210E0,-8.483434677E0,8.275295496E-1
1.511773802E0,3.284898043E0,-8.593626976E0,8.371113539E-1
1.514249687E0,3.145960331E0,-8.708609581E0,9.161622524E-1
1.516725468E0,3.186683416E0,-8.778079033E0,8.323205709E-1
1.519163645E0,3.119610071E0,-8.905038834E0,7.245239615E-1
1.521639479E0,3.112423420E0,-9.043976784E0,6.718233824E-1
1.524115312E0,3.098050833E0,-9.202077866E0,5.544449687E-1
1.526591145E0,3.038163662E0,-9.273942947E0,4.610213041E-1
1.529066979E0,2.949531078E0,-9.410484314E0,3.675976396E-1
1.531542812E0,2.932762623E0,-9.578167915E0,2.214734405E-1
1.534018645E0,2.784243107E0,-9.697941780E0,1.280497760E-1
1.536494479E0,2.695610285E0,-9.817715645E0,-1.306056976E-3
1.538970312E0,2.628536940E0,-9.927907944E0,-6.358850002E-2
1.541446145E0,2.556672573E0,-9.983003616E0,-2.073172182E-1
1.543921979E0,2.508763075E0,-9.966236115E0,-3.031363487E-1
1.546397760E0,2.515949488E0,-1.002851772E1,-3.989554942E-1
1.548887916E0,2.456062555E0,-9.978212357E0,-5.187294483E-1
1.551363750E0,2.436898708E0,-9.879998207E0,-6.313169003E-1
1.553839583E0,2.448875904E0,-9.743455887E0,-7.918139696E-1
1.556315416E0,2.420130253E0,-9.669197083E0,-8.588873744E-1
1.558791250E0,2.405757427E0,-9.585354805E0,-1.076875925E0
1.561267083E0,2.429712296E0,-9.518280983E0,-1.275700569E0
1.563742916E0,2.463248968E0,-9.479953766E0,-1.486502767E0
1.566218750E0,2.417734623E0,-9.477557182E0,-1.630231500E0
1.568694583E0,2.420130253E0,-9.523071289E0,-1.896129608E0
1.571170364E0,2.381802797E0,-9.556608200E0,-2.245869398E0
1.573646250E0,2.384198189E0,-9.626077652E0,-2.571654558E0
1.576122031E0,2.309938192E0,-9.702733040E0,-2.811202288E0
1.578578645E0,2.245260477E0,-9.767410278E0,-3.048354626E0
1.581054479E0,2.147045851E0,-9.872811317E0,-3.230411053E0
1.583530312E0,2.067995071E0,-9.963839531E0,-3.402885437E0
1.586006145E0,1.969780207E0,-1.003809929E1,-3.402885437E0
1.588481979E0,1.833237886E0,-1.021057510E1,-3.287902594E0
1.590957812E0,1.797306061E0,-1.040221310E1,-3.266343117E0
1.593433645E0,1.751791716E0,-1.057229137E1,-3.065123081E0
1.595909479E0,1.744605541E0,-1.075195217E1,-2.863903046E0
1.598385312E0,1.701486826E0,-1.086933041E1,-2.696219444E0
1.600861093E0,1.651181698E0,-1.105378246E1,-2.437507629E0
1.603336979E0,1.699091196E0,-1.130530739E1,-2.140468359E0
1.605812760E0,1.723046064E0,-1.154725170E1,-1.833847165E0
1.608267864E0,1.850006580E0,-1.166223431E1,-1.682932019E0
1.610743697E0,1.998526096E0,-1.181075382E1,-1.570344448E0
1.613219531E0,2.065599442E0,-1.194490051E1,-1.364333391E0
1.615695364E0,2.147045851E0,-1.202155590E1,-1.084062338E0
1.618171197E0,2.257237673E0,-1.205748844E1,-1.050525665E0
1.620647031E0,2.384198189E0,-1.202155590E1,-1.079271436E0
1.623122864E0,2.470435381E0,-1.192573643E1,-1.019384503E0
1.625598697E0,2.539904356E0,-1.179638100E1,-9.762657881E-1
1.628074531E0,2.487203836E0,-1.163827991E1,-8.157687187E-1
1.630550312E0,2.585418224E0,-1.137956810E1,-8.540964127E-1
1.633026197E0,2.597395658E0,-1.127416706E1,-8.876330853E-1
1.635501979E0,2.491994858E0,-1.115199757E1,-8.349325657E-1
1.637957083E0,2.362638712E0,-1.109450531E1,-8.588873744E-1
1.640432916E0,2.257237673E0,-1.112564659E1,-9.499155283E-1
1.642908750E0,2.075181484E0,-1.118313885E1,-1.045734644E0
1.645384583E0,1.845215559E0,-1.126458454E1,-1.105621696E0
1.647860416E0,1.655972719E0,-1.140352249E1,-1.215813756E0
1.650336250E0,1.531407833E0,-1.156401920E1,-1.524830341E0
1.652812083E0,1.402051926E0,-1.176284504E1,-1.776355624E0
1.655287916E0,1.378097057E0,-1.198801994E1,-2.035067320E0
1.657763750E0,1.351746798E0,-1.223954487E1,-2.382411718E0
1.660239583E0,1.469125271E0,-1.246471977E1,-2.902230501E0
1.662715364E0,1.632018089E0,-1.278571320E1,-3.316648245E0
1.665191197E0,1.792515039E0,-1.313784885E1,-3.687947512E0
1.667640833E0,2.044040203E0,-1.357622147E1,-4.085597038E0
1.670116666E0,2.396175385E0,-1.399543095E1,-4.382636547E0
1.672592500E0,2.657282829E0,-1.445057201E1,-4.507201195E0
1.675068333E0,2.894434929E0,-1.491529369E1,-4.593438625E0
1.677544166E0,3.256152153E0,-1.540636730E1,-4.593438625E0
1.680020000E0,3.680151939E0,-1.583755398E1,-4.545529366E0
1.682495833E0,4.022705555E0,-1.624957657E1,-4.358681679E0
1.684971666E0,4.410772800E0,-1.663524818E1,-4.188602448E0
1.687447500E0,4.712603569E0,-1.703529167E1,-4.028105736E0
1.689923333E0,5.016829014E0,-1.728921509E1,-3.654410839E0
1.692399166E0,5.440828323E0,-1.739461517E1,-3.647224188E0
1.694875000E0,5.728285789E0,-1.753355217E1,-3.457981586E0
1.697330312E0,5.888782978E0,-1.757906723E1,-3.266343117E0
1.699806145E0,5.977416039E0,-1.758146286E1,-3.170524120E0
1.702281979E0,5.972624779E0,-1.749522400E1,-2.964513063E0
1.704757812E0,6.044489384E0,-1.738024330E1,-2.914207935E0
1.707233645E0,6.142704010E0,-1.714069366E1,-2.763292789E0
1.709709479E0,6.212172985E0,-1.674304390E1,-2.770479202E0
1.712185312E0,6.173844814E0,-1.618968964E1,-2.739337921E0
1.714661145E0,6.181031704E0,-1.560040092E1,-2.928580761E0
1.717136927E0,5.991788864E0,-1.495601749E1,-2.993258715E0
1.719612760E0,5.692354202E0,-1.424455929E1,-3.012422562E0
1.722088645E0,5.371359825E0,-1.367922783E1,-3.163337708E0
1.724564427E0,4.873100281E0,-1.332230091E1,-3.244783878E0
1.727027291E0,4.425146103E0,-1.302526188E1,-3.242388487E0
1.729503125E0,3.993959427E0,-1.277613163E1,-3.031586409E0
1.731978958E0,3.601100922E0,-1.260844898E1,-2.633936882E0
1.734454791E0,3.062118530E0,-1.255095673E1,-1.903316021E0
1.736930625E0,2.525531530E0,-1.245992851E1,-1.201440811E0
1.739406458E0,2.039249182E0,-1.247909260E1,-4.468650818E-1
1.741882291E0,1.485893726E0,-1.263479900E1,3.699931502E-1
1.744358125E0,1.028357267E0,-1.276175880E1,9.712582827E-1
1.746833958E0,5.660300255E-1,-1.287195110E1,1.697088242E0
1.749309739E0,8.693426847E-2,-1.294860649E1,2.478014231E0
1.751785625E0,-4.400710464E-1,-1.302765656E1,3.285290480E0
1.754261406E0,-8.377204537E-1,-1.316180325E1,3.853018999E0
1.756717864E0,-1.333584547E0,-1.339656067E1,4.612385273E0
1.759193697E0,-1.743211389E0,-1.346123886E1,5.333424091E0
1.761669531E0,-2.222306967E0,-1.333667374E1,6.138305187E0
1.764145364E0,-2.624747276E0,-1.322169018E1,6.718010902E0
1.766621197E0,-2.979278326E0,-1.318336391E1,7.180338383E0
1.769097031E0,-3.338599920E0,-1.304682064E1,7.566010475E0
1.771572864E0,-3.741040468E0,-1.304442596E1,7.657038689E0
1.774048697E0,-4.074011803E0,-1.308514881E1,7.688179970E0
1.776524531E0,-4.246486664E0,-1.311149883E1,7.530078411E0
1.779000312E0,-4.418960571E0,-1.326720428E1,7.142010689E0
1.781476197E0,-4.653717995E0,-1.336302376E1,6.655728340E0
1.783951979E0,-4.756723404E0,-1.345884323E1,6.133514404E0
1.786400312E0,-5.013039589E0,-1.368880844E1,5.618486404E0
1.788876145E0,-5.307683468E0,-1.394272995E1,5.120226860E0
1.791351979E0,-5.532858372E0,-1.415832233E1,4.463865757E0
1.793827812E0,-5.722101212E0,-1.447213078E1,3.577538729E0
1.796303645E0,-5.949671745E0,-1.474042511E1,2.880454540E0
1.798779479E0,-6.208383560E0,-1.506141853E1,1.967777252E0
1.801255312E0,-6.416790009E0,-1.533929348E1,9.113712311E-1
1.803731145E0,-6.699456692E0,-1.552374554E1,1.400271505E-1
1.806206979E0,-6.895885468E0,-1.563154221E1,-3.702097535E-1
1.808682812E0,-6.881512642E0,-1.565070534E1,-8.588873744E-1
1.811158645E0,-6.665919304E0,-1.546625423E1,-1.314028263E0
1.813634479E0,-6.189219475E0,-1.520035553E1,-1.596694708E0
1.816097343E0,-5.592745304E0,-1.480031204E1,-1.678140998E0
1.818573177E0,-4.969921112E0,-1.440266132E1,-1.773960114E0
1.821049010E0,-4.481243134E0,-1.394991684E1,-1.807496905E0
1.823524843E0,-4.076407433E0,-1.344686604E1,-1.738027930E0
1.826000677E0,-3.578148127E0,-1.310670757E1,-1.750005364E0
1.828476510E0,-3.144566298E0,-1.272582626E1,-1.618253946E0
1.830952343E0,-2.739730358E0,-1.228266335E1,-1.493689060E0
1.833428177E0,-2.445086479E0,-1.189220047E1,-1.524830341E0
1.835903958E0,-2.330103636E0,-1.156641579E1,-1.393079162E0
1.838379791E0,-1.980363727E0,-1.127416706E1,-1.141553879E0
1.840855677E0,-1.357539296E0,-1.114720631E1,-1.100830674E0
1.843331458E0,-6.628505588E-1,-1.126698017E1,-7.702546716E-1
1.845788125E0,1.923353076E-1,-1.108731937E1,-6.289214492E-1
1.848263958E0,5.780073404E-1,-1.086933041E1,-7.077492774E-2
1.850739791E0,1.196040750E0,-1.078309345E1,4.849760532E-1
1.853215625E0,1.569735527E0,-1.083339882E1,5.233037472E-1
1.855691458E0,1.596085787E0,-1.081902599E1,7.460832596E-1
1.858167239E0,1.873961210E0,-1.076392937E1,8.993939161E-1
1.860643125E0,2.125486374E0,-1.074476528E1,1.148523688E0
1.863118958E0,2.489599228E0,-1.068727493E1,1.215597034E0
1.865594791E0,2.930367231E0,-1.058426857E1,9.760491848E-1
1.868070572E0,3.421440125E0,-1.056031418E1,7.987837791E-1
1.870546458E0,3.610682964E0,-1.077590752E1,9.041849375E-1
1.873022239E0,3.900536060E0,-1.094359112E1,1.634805799E0
1.875477656E0,4.192784309E0,-1.067050648E1,1.965381861E0
1.877953489E0,4.252671719E0,-1.030160236E1,1.953404427E0
1.880429322E0,4.312558651E0,-1.014589691E1,1.469517827E0
1.882905156E0,4.252671719E0,-1.016506100E1,6.814053059E-1
1.885380989E0,3.720874786E0,-1.011715031E1,-1.785714626E-1
1.887856822E0,3.040559292E0,-1.003570461E1,-8.493053913E-1
1.890332656E0,2.252446651E0,-9.930303574E0,-1.131971955E0
1.892808489E0,1.596085787E0,-9.753037453E0,-1.055316687E0
1.895284322E0,1.248741388E0,-9.554213524E0,-9.571020007E-1
1.897760104E0,9.708658457E-1,-9.350597382E0,-6.289214492E-1
1.900235989E0,7.864140272E-1,-9.166145325E0,-4.684243798E-1
1.902711770E0,7.480863333E-1,-8.897851944E0,-2.528313100E-1
1.905167968E0,7.504817247E-1,-8.514575958E0,1.040949970E-1
1.907643802E0,8.079732656E-1,-8.279818535E0,3.723886013E-1
1.910119635E0,8.199505806E-1,-8.066620827E0,7.796199322E-1
1.912595468E0,7.959958315E-1,-8.049852371E0,1.091032147E0
1.915071302E0,6.881994009E-1,-8.205558777E0,1.354534745E0
1.917547135E0,3.600188494E-1,-8.222327232E0,1.742602229E0
1.920022968E0,1.731714606E-1,-8.080994606E0,1.927054167E0
1.922498802E0,2.138946056E-1,-7.867796421E0,1.790511847E0
1.924974635E0,2.881544232E-1,-7.688136101E0,1.527009249E0
1.927450416E0,3.001317978E-1,-7.446192741E0,1.225179076E0
1.929926302E0,3.648097515E-1,-7.163526058E0,1.002399445E0
1.932402083E0,5.588434935E-1,-6.885650635E0,1.071868300E0
1.934858437E0,6.786174774E-1,-6.715571404E0,1.146128178E0
1.937334270E0,6.953856945E-1,-6.574238777E0,1.203619599E0
1.939810104E0,4.654198885E-1,-6.329899788E0,1.479099631E0
1.942285937E0,4.031373262E-1,-6.147843361E0,1.718647480E0
1.944761770E0,5.971710682E-1,-5.891527176E0,1.826443911E0
1.947237604E0,7.049677372E-1,-5.743007183E0,1.915076733E0
1.949713437E0,6.187305450E-1,-5.443572521E0,1.828839540E0
1.952189218E0,5.588434935E-1,-5.220793247E0,1.800093651E0
1.954665104E0,6.810128689E-1,-5.060296059E0,1.713856459E0
1.957140885E0,7.552727461E-1,-4.921358109E0,1.752184272E0
1.959616770E0,8.534873724E-1,-4.777629852E0,1.733020425E0
1.962092552E0,7.576682568E-1,-4.679415226E0,1.728229403E0
1.964513385E0,7.241314650E-1,-4.547663689E0,1.725834012E0
1.966989218E0,6.019620895E-1,-4.502149582E0,1.824048758E0
1.969465052E0,6.091486216E-1,-4.413516521E0,1.759370685E0
1.971940885E0,5.444706678E-1,-4.320093155E0,1.831234932E0
1.974416718E0,4.031373262E-1,-4.190737247E0,1.891122103E0
1.976892552E0,2.618041635E-1,-4.116477489E0,1.936635971E0
1.979368385E0,1.444257498E-1,-3.963166714E0,1.907890320E0
1.981844218E0,-4.242157936E-2,-3.905675411E0,1.965381861E0
1.984320052E0,-2.292689085E-1,-3.812251568E0,1.931844950E0
1.986795885E0,-4.017433822E-1,-3.747573853E0,1.883935452E0
1.989271718E0,-5.263082385E-1,-3.706850529E0,1.857585192E0
1.991747552E0,-6.460821629E-1,-3.577494621E0,1.910285711E0
1.994238229E0,-8.137656450E-1,-3.555935383E0,1.795302868E0
1.996714062E0,-9.527034760E-1,-3.551144600E0,1.785720825E0
1.999189895E0,-1.108409524E0,-3.524794102E0,1.812071085E0
2.001665729E0,-1.290465832E0,-3.524794102E0,1.922263384E0
2.004141562E0,-1.455753922E0,-3.565517426E0,1.867167234E0
2.006617395E0,-1.625832796E0,-3.541562557E0,1.891122103E0
2.009093177E0,-1.666556001E0,-3.529584885E0,1.891122103E0
2.011569062E0,-1.834239483E0,-3.534376144E0,1.953404427E0
2.014044843E0,-1.968386292E0,-3.558330536E0,1.876749039E0
2.016520677E0,-2.095346689E0,-3.570308208E0,1.795302868E0
2.018996510E0,-2.198352337E0,-3.503234863E0,1.694692731E0
2.021472343E0,-2.361244678E0,-3.479279995E0,1.644387603E0
2.023927812E0,-2.514555454E0,-3.486466408E0,1.562941432E0
2.026402343E0,-2.624747276E0,-3.424183846E0,1.424003601E0
2.028876927E0,-2.703798294E0,-3.383460999E0,1.400048852E0
2.031351458E0,-2.761289835E0,-3.345133305E0,1.227574348E0
2.033826041E0,-2.921786785E0,-3.280455112E0,1.258715630E0
2.036300572E0,-2.914600372E0,-3.177449703E0,1.059890866E0
2.038775208E0,-2.878668308E0,-3.117562771E0,8.203431368E-1
2.041249739E0,-2.864295244E0,-3.103189945E0,6.191229224E-1
2.043724322E0,-2.921786785E0,-3.040907383E0,3.628066778E-1
2.046198854E0,-2.943346024E0,-3.016952991E0,9.211759269E-2
2.048673437E0,-2.976882696E0,-3.002579689E0,-8.035685122E-2
2.051148020E0,-3.039165258E0,-2.990602493E0,-3.007408679E-1
2.053617291E0,-3.101447821E0,-3.050489426E0,-5.307068229E-1
2.056091822E0,-3.132588863E0,-3.052884579E0,-8.900285363E-1
2.058566354E0,-3.175707579E0,-3.096003532E0,-1.100830674E0
2.061040989E0,-3.259549141E0,-3.210986614E0,-1.381101727E0
2.063515520E0,-3.372136831E0,-3.309201241E0,-1.718864083E0
2.065990104E0,-3.523051739E0,-3.512816906E0,-2.032671928E0
2.068464635E0,-3.635639191E0,-3.766737461E0,-2.296174526E0
2.070939218E0,-3.645221233E0,-3.924839020E0,-2.612377644E0
2.073413802E0,-3.693130732E0,-4.185945988E0,-3.048354626E0
2.075888385E0,-3.788949966E0,-4.538081646E0,-3.443608761E0
2.078362916E0,-3.853627920E0,-4.974058628E0,-3.766998291E0
2.080837447E0,-3.829673052E0,-5.412431240E0,-4.284421921E0
2.083306822E0,-3.793740988E0,-5.884340763E0,-4.821009159E0
2.085781354E0,-3.683548927E0,-6.435300827E0,-5.233031273E0
2.088255937E0,-3.568566084E0,-7.019797802E0,-5.570793629E0
2.090730520E0,-3.369741201E0,-7.656994820E0,-5.951674938E0
2.093205052E0,-3.058329105E0,-8.342101097E0,-6.265482903E0
2.095679635E0,-2.713380098E0,-9.058349609E0,-6.560126305E0
2.098154218E0,-2.239075422E0,-9.800947189E0,-6.917052746E0
2.100628750E0,-1.865380764E0,-1.068248367E1,-7.365007401E0
2.103103333E0,-1.398262501E0,-1.161911583E1,-7.925549030E0
2.105577916E0,-8.616752625E-1,-1.259167957E1,-8.500463486E0
2.108052447E0,-3.634157181E-1,-1.370557785E1,-9.257434845E0
2.110526979E0,5.487978458E-3,-1.480989265E1,-1.022999859E1
2.112996875E0,4.630243778E-1,-1.597169971E1,-1.123130894E1
2.115471406E0,8.630692959E-1,-1.718381310E1,-1.223740959E1
2.117945989E0,9.780522585E-1,-1.857558632E1,-1.322195148E1
2.120420520E0,9.972161055E-1,-1.990986824E1,-1.407953262E1
2.122895104E0,9.780522585E-1,-2.114593506E1,-1.464486599E1
2.125369687E0,8.199505806E-1,-2.221192169E1,-1.487004089E1
2.127844218E0,6.187305450E-1,-2.296889496E1,-1.488680935E1
2.130318802E0,3.719961643E-1,-2.332582092E1,-1.441010857E1
2.132793385E0,3.216910958E-1,-2.290661049E1,-1.355971336E1
2.135267916E0,2.234764695E-1,-2.214245415E1,-1.274525166E1
2.137742500E0,-1.367586851E-2,-2.120103073E1,-1.198828030E1
2.140217031E0,-3.059242368E-1,-1.995059013E1,-1.111872196E1
2.142687864E0,-5.478675365E-1,-1.853965378E1,-1.023478985E1
2.145162395E0,-6.987826824E-1,-1.705924797E1,-9.475423813E0
2.147636979E0,-8.664661646E-1,-1.559560966E1,-8.648983955E0
2.150111510E0,-8.760480881E-1,-1.414394951E1,-7.944713116E0
2.152586093E0,-8.353250027E-1,-1.283122730E1,-7.273979187E0
2.155060625E0,-8.520933390E-1,-1.178919506E1,-6.718228340E0
2.157535260E0,-9.479124546E-1,-1.092442703E1,-6.143313408E0
2.160009791E0,-1.012590408E0,-1.017464161E1,-5.669008255E0
2.162484375E0,-1.106014013E0,-9.479953766E0,-5.443833351E0
2.164958958E0,-1.328793526E0,-8.940970421E0,-4.988692760E0
2.167433489E0,-1.434194565E0,-8.401988029E0,-4.667698383E0
2.169908020E0,-1.549177647E0,-7.973197460E0,-4.303585529E0
2.172375833E0,-1.815075755E0,-7.439006329E0,-3.951450348E0
2.174850364E0,-2.001923084E0,-6.912001133E0,-3.695133924E0
2.177324947E0,-2.200747728E0,-6.401763916E0,-3.350184917E0
2.179799531E0,-2.267821312E0,-5.937041283E0,-3.053145647E0
2.182274062E0,-2.344476461E0,-5.453154564E0,-2.775270224E0
2.184748593E0,-2.464250326E0,-5.045923233E0,-2.552490711E0
2.187223177E0,-2.526532650E0,-4.655460358E0,-2.305756330E0
2.189697760E0,-2.600792646E0,-4.415912151E0,-2.130886555E0
2.192172343E0,-2.646306753E0,-4.250624180E0,-1.908106923E0
2.194646927E0,-2.598397255E0,-4.159595966E0,-1.670954585E0
2.197121458E0,-2.464250326E0,-4.159595966E0,-1.227791071E0
2.199595989E0,-2.277402878E0,-4.217087746E0,-8.588873744E-1
2.202067656E0,-2.092951298E0,-4.377584457E0,-6.001756787E-1
2.204542187E0,-2.054623604E0,-4.514127254E0,-8.993875980E-2
2.207016770E0,-1.908499360E0,-4.722533703E0,2.957332730E-1
2.209491354E0,-1.762375116E0,-4.981245041E0,7.388968468E-1
2.211965885E0,-1.680928826E0,-5.395663261E0,1.064681888E0
2.214440416E0,-1.712070107E0,-5.819662571E0,1.359325767E0
2.216915052E0,-1.556364059E0,-6.181380272E0,1.474308729E0
2.219389583E0,-1.429403663E0,-6.638916016E0,1.711461186E0
2.221864166E0,-1.443776488E0,-7.115616798E0,2.046828032E0
2.224338697E0,-1.335979939E0,-7.496497631E0,2.401359081E0
2.226813281E0,-1.189855814E0,-7.946847439E0,2.784635544E0
2.229287812E0,-1.024567842E0,-8.382824898E0,3.196657658E0
2.231759218E0,-9.071893692E-1,-8.981693268E0,3.682940006E0
2.234233750E0,-7.586696744E-1,-9.621286392E0,4.243481636E0
2.236708333E0,-6.676414609E-1,-1.036388493E1,4.825582981E0
2.239182864E0,-6.412912011E-1,-1.114481068E1,5.359774590E0
2.241657447E0,-7.275284529E-1,-1.193771458E1,5.850847721E0
2.244132031E0,-7.514832616E-1,-1.268749905E1,6.207773685E0
2.246606614E0,-9.239577055E-1,-1.348758888E1,6.339525223E0
2.249081145E0,-1.137155294E0,-1.413915825E1,6.387434959E0
2.251555729E0,-1.331189036E0,-1.478833389E1,6.258079052E0
2.254030260E0,-1.628228426E0,-1.544469452E1,5.908339500E0
2.256504843E0,-1.884544611E0,-1.602440071E1,5.446011543E0
2.258979375E0,-2.059414387E0,-1.643402863E1,4.681854248E0
2.261448489E0,-2.239075422E0,-1.683407211E1,3.862600565E0
2.263923020E0,-2.473832130E0,-1.734431076E1,2.990646601E0
2.266397604E0,-2.708589077E0,-1.764853668E1,1.893517494E0
2.268872187E0,-2.948137045E0,-1.789527130E1,4.801851511E-1
2.271346718E0,-3.240385532E0,-1.819470406E1,-1.251745820E0
2.273821250E0,-3.453583002E0,-1.840311241E1,-3.383721828E0
2.276295885E0,-3.748226643E0,-1.854444504E1,-5.700149536E0
2.278770416E0,-3.870396376E0,-1.852528000E1,-8.033345222E0
2.281245000E0,-3.793740988E0,-1.832645607E1,-9.758090019E0
2.283719531E0,-3.812904835E0,-1.785215187E1,-1.048871040E1
2.286194114E0,-3.712294817E0,-1.717423058E1,-1.047194290E1
2.288668645E0,-3.348181963E0,-1.626395035E1,-9.710179329E0
2.291137187E0,-2.797221899E0,-1.529377937E1,-8.567536354E0
2.293611718E0,-2.107324123E0,-1.418706894E1,-6.969753265E0
2.296086302E0,-1.398262501E0,-1.290309238E1,-5.295313835E0
2.298560833E0,-9.455170035E-1,-1.176284504E1,-3.378930807E0
2.301035416E0,-6.149409413E-1,-1.066571522E1,-1.481711745E0
2.303510000E0,-4.616303444E-1,-9.556608200E0,2.071005553E-1
2.305984583E0,-3.490428627E-1,-8.691840172E0,1.459935904E0
2.308459114E0,-4.089297950E-1,-8.076203346E0,2.516341686E0
2.310933697E0,-4.041388631E-1,-7.494102001E0,3.445787430E0
2.313408229E0,-3.322744966E-1,-6.991051674E0,4.197968006E0
2.315882812E0,-2.556191981E-1,-6.516746998E0,4.947752476E0
2.318357343E0,-9.512215853E-2,-6.087955952E0,5.534644604E0
2.320830052E0,9.891164303E-2,-5.659165859E0,5.917921066E0
2.323304635E0,3.456459045E-1,-5.395663261E0,6.188610077E0
2.325779166E0,5.612390041E-1,-5.263911724E0,6.231728554E0
2.328253750E0,7.408999205E-1,-5.177674770E0,6.301198006E0
2.330728333E0,8.319281340E-1,-5.136950970E0,6.248497486E0
2.333202864E0,9.756567478E-1,-5.182465553E0,6.104768276E0
2.335677447E0,1.035543799E0,-5.259120464E0,6.040090561E0
2.338152031E0,1.047521114E0,-5.378894806E0,5.944271088E0
2.340626562E0,1.071475863E0,-5.522623062E0,5.891570568E0
2.343101145E0,1.013984442E0,-5.673538685E0,5.819706440E0
2.345575729E0,1.064289451E0,-5.750193596E0,5.793356419E0
2.348050260E0,1.097826242E0,-5.886735916E0,6.018531322E0
2.350487760E0,1.140944719E0,-6.016092300E0,6.013740063E0
2.352962343E0,1.138549328E0,-6.155029774E0,6.032904148E0
2.355436927E0,1.150526762E0,-6.418531895E0,6.109559059E0
2.357911458E0,1.047521114E0,-6.686826229E0,6.226937771E0
2.360386093E0,9.349336624E-1,-7.065311432E0,6.176632881E0
2.362860625E0,8.534873724E-1,-7.407865047E0,6.056859016E0
2.365335156E0,8.463009596E-1,-7.798327923E0,6.008949280E0
2.367809739E0,9.085834026E-1,-8.136090279E0,5.788565159E0
2.370284322E0,8.510918617E-1,-8.512179375E0,5.675977707E0
2.372758854E0,6.834083796E-1,-8.859524727E0,5.652022839E0
2.375233437E0,5.468660593E-1,-9.238009453E0,5.398102283E0
2.377708020E0,3.911600113E-1,-9.669197083E0,5.168136120E0
2.380178802E0,2.043126822E-1,-1.013631439E1,4.830373764E0
2.382653385E0,1.348438263E-1,-1.056989574E1,4.506984234E0
2.385127968E0,2.450358272E-1,-1.103940964E1,4.224317551E0
2.387602500E0,3.672052622E-1,-1.141310501E1,3.764386177E0
2.390077083E0,4.558379650E-1,-1.177003098E1,3.268522024E0
2.392551666E0,4.821882248E-1,-1.208623409E1,2.645697832E0
2.395026197E0,5.205159187E-1,-1.234015465E1,2.013291359E0
2.397500781E0,6.762219667E-1,-1.263479900E1,1.208410621E0
2.399975364E0,8.582783937E-1,-1.288153267E1,3.148971200E-1
2.402449895E0,1.057103038E0,-1.295339775E1,-7.247405648E-1
2.404924479E0,1.078662395E0,-1.303005219E1,-1.508062005E0
2.407399062E0,1.131362915E0,-1.303963470E1,-2.202750921E0
2.409867760E0,1.275091648E0,-1.293902493E1,-3.038772821E0
2.412342343E0,1.311023712E0,-1.281685448E1,-3.493913651E0
2.414816927E0,1.255927682E0,-1.257251549E1,-3.870003700E0
2.417291510E0,1.188854337E0,-1.219882202E1,-3.982591152E0
2.419766041E0,1.100221634E0,-1.179398537E1,-3.975404978E0
2.422240625E0,9.013969898E-1,-1.142987251E1,-3.860421896E0
2.424715156E0,7.145496607E-1,-1.112085629E1,-3.522659540E0
2.427189739E0,6.546626091E-1,-1.080704880E1,-3.201665163E0
2.429664322E0,5.085384846E-1,-1.041658592E1,-2.712987661E0
2.432138854E0,4.630243778E-1,-1.006205463E1,-2.451880455E0
2.434613437E0,4.342786074E-1,-9.820111275E0,-2.073395014E0
2.437088020E0,3.719961643E-1,-9.647636414E0,-1.730841517E0
2.439588906E0,1.731714606E-1,-9.448811531E0,-1.292469025E0
2.442063437E0,-6.877189875E-2,-9.178122520E0,-1.050525665E0
2.444538020E0,-1.813593507E-1,-8.993671417E0,-7.247405648E-1
2.447012552E0,-2.771784663E-1,-8.768496513E0,-4.300967157E-1
2.449487135E0,-5.382856727E-1,-8.600812912E0,-1.689895540E-1
2.451961666E0,-6.724324226E-1,-8.478643417E0,-7.317042351E-2
2.454436302E0,-8.137656450E-1,-8.392405510E0,1.280497760E-1
2.456910833E0,-9.215621948E-1,-8.277423859E0,2.837558985E-1
2.459385416E0,-9.646807909E-1,-8.169626236E0,3.220835924E-1
2.461859947E0,-1.053313494E0,-8.097762108E0,4.801851511E-1
2.464334531E0,-1.113200426E0,-8.006733894E0,6.909872890E-1
2.466809062E0,-1.098827600E0,-7.913311481E0,9.784446955E-1
2.469260572E0,-1.182669401E0,-7.834259987E0,1.304229736E0
2.471735104E0,-1.156319141E0,-7.731254578E0,1.289856911E0
2.474209739E0,-1.240160942E0,-7.621062756E0,1.467122316E0
2.476684270E0,-1.285674930E0,-7.546802521E0,1.598873615E0
2.479158802E0,-1.242556334E0,-7.484519958E0,1.680319905E0
2.481633385E0,-1.170691967E0,-7.417446613E0,1.689901710E0
2.484107968E0,-1.117991447E0,-7.357560158E0,1.639596820E0
2.486582500E0,-1.036545157E0,-7.371932507E0,1.541382194E0
2.489057135E0,-8.856300116E-1,-7.436610699E0,1.268297553E0
2.491531666E0,-8.712571859E-1,-7.544406891E0,1.232365370E0
2.494006250E0,-7.634606361E-1,-7.692926407E0,1.138941765E0
2.496480781E0,-6.987826824E-1,-7.740836620E0,1.160501003E0
2.498968125E0,-6.101499796E-1,-7.750418186E0,1.057495475E0
2.501442656E0,-3.921614587E-1,-7.831864834E0,8.179476261E-1
2.503917239E0,-2.628056407E-1,-7.853424072E0,5.616313815E-1
2.506391770E0,-1.310543418E-1,-8.011525154E0,4.179027081E-1
2.508866354E0,-6.637638807E-2,-8.310959816E0,2.598010898E-1
2.511340885E0,-7.116734982E-2,-8.603208542E0,1.975186616E-1
2.513815520E0,-8.554017544E-2,-8.818801880E0,1.639819592E-1
2.516290052E0,4.621112347E-2,-8.905038834E0,1.136769205E-1
2.518764635E0,2.114990950E-1,-8.931388855E0,7.055829465E-2
2.521239166E0,3.192957044E-1,-8.979298592E0,4.181255400E-2
2.523713750E0,3.384594917E-1,-9.003252983E0,8.972214162E-2
2.526188281E0,4.462560415E-1,-8.974507332E0,2.741739750E-1
2.528658177E0,4.630243778E-1,-9.000857353E0,4.298800826E-1
2.531132708E0,4.821882248E-1,-9.000857353E0,5.736087561E-1
2.533607291E0,5.468660593E-1,-9.012834549E0,7.772244215E-1
2.536081875E0,6.402897835E-1,-8.974507332E0,9.089757204E-1
2.538556406E0,7.456908226E-1,-8.964925766E0,1.007190347E0
2.541030937E0,9.732612371E-1,-8.950552940E0,1.076659322E0
2.543505572E0,1.076266885E0,-8.928993225E0,1.129359722E0
2.545980104E0,1.145735741E0,-8.878688812E0,1.246738315E0
2.548454687E0,1.279882431E0,-8.828383446E0,1.239551783E0
2.550929218E0,1.313419223E0,-8.756518364E0,1.227574348E0
2.553403802E0,1.303837419E0,-8.667886734E0,1.265902162E0
2.555878333E0,1.342164993E0,-8.655908585E0,1.285065889E0
2.558314010E0,1.275091648E0,-8.562484741E0,1.311416149E0
2.560788541E0,1.136153817E0,-8.543321609E0,1.383280516E0
2.563263177E0,1.155317664E0,-8.591230392E0,1.340161920E0
2.565737708E0,1.258323193E0,-8.619976997E0,1.227574348E0
2.568212291E0,1.241554856E0,-8.648722649E0,1.177269340E0
2.570686822E0,1.358933449E0,-8.708609581E0,1.141337276E0
2.573161406E0,1.406842947E0,-8.754123688E0,1.026354313E0
2.575635937E0,1.485893726E0,-8.847546577E0,1.026354313E0
2.578110572E0,1.509848595E0,-8.945761681E0,9.496989250E-1
2.580585104E0,1.514639378E0,-9.010439873E0,8.610662222E-1
2.583059687E0,1.596085787E0,-9.132608414E0,7.460832596E-1
2.585534270E0,1.550571680E0,-9.223637581E0,7.820154428E-1
2.588004062E0,1.608062983E0,-9.300292969E0,7.365013361E-1
2.590478645E0,1.711068630E0,-9.412879944E0,6.358912587E-1
2.592953177E0,1.739814520E0,-9.520676613E0,6.119364500E-1
2.595427760E0,1.802096844E0,-9.630868912E0,5.664224029E-1
2.597902343E0,1.869170189E0,-9.755434036E0,4.322755933E-1
2.600376875E0,1.981757641E0,-9.827297211E0,3.077107072E-1
2.602851458E0,2.137463808E0,-9.944676399E0,1.184678823E-1
2.605325989E0,2.190164566E0,-9.997376442E0,-5.879753828E-2
2.607800625E0,2.245260477E0,-1.005247307E1,-1.929443479E-1
2.610275156E0,2.314729214E0,-1.011475563E1,-3.750007153E-1
2.612749739E0,2.451271534E0,-1.015787411E1,-7.295315266E-1
2.615224270E0,2.499181032E0,-1.027525234E1,-1.007407069E0
2.617702083E0,2.618954897E0,-1.034711647E1,-1.371519685E0
2.620176666E0,2.702796698E0,-1.039502621E1,-1.771564603E0
2.622651250E0,2.724355936E0,-1.048605442E1,-1.987157702E0
2.625125781E0,2.824966192E0,-1.056510448E1,-2.473439932E0
2.627600416E0,2.966299534E0,-1.068727493E1,-2.983676672E0
2.630074947E0,3.009418011E0,-1.083819008E1,-3.422049522E0
2.632549531E0,3.102841854E0,-1.094359112E1,-3.740648031E0
2.635024062E0,3.220220327E0,-1.102264118E1,-4.131111145E0
2.637498645E0,3.174705982E0,-1.119511604E1,-4.231721401E0
2.639973177E0,3.287293434E0,-1.135800838E1,-4.365868092E0
2.642447760E0,3.395090103E0,-1.152808762E1,-4.370659351E0
2.644922343E0,3.440604210E0,-1.167421150E1,-4.272444248E0
2.647418906E0,3.507677555E0,-1.185866356E1,-4.011337280E0
2.649893437E0,3.713688374E0,-1.195448303E1,-3.927495241E0
2.652367968E0,3.795135021E0,-1.215091133E1,-3.517868519E0
2.654842604E0,3.855021954E0,-1.235213184E1,-3.007631540E0
2.657317135E0,4.008332253E0,-1.251023388E1,-2.605191231E0
2.659791666E0,4.219134331E0,-1.269228935E1,-2.231496572E0
2.662266302E0,4.319745064E0,-1.279050446E1,-1.814683199E0
2.664740833E0,4.501801014E0,-1.282164574E1,-1.512853026E0
2.667215416E0,4.609597683E0,-1.281206322E1,-1.211022735E0
2.669689947E0,4.671879768E0,-1.277852726E1,-8.972150087E-1
2.672164531E0,4.664693356E0,-1.264438057E1,-6.385033131E-1
2.674639062E0,4.741349220E0,-1.237369156E1,-5.929892659E-1
2.677108645E0,4.655111790E0,-1.217247200E1,-4.324921966E-1
2.679583177E0,4.492218971E0,-1.194010925E1,-4.037464559E-1
2.682057760E0,4.405982018E0,-1.170774841E1,-4.157238603E-1
2.684532291E0,4.202366352E0,-1.151610947E1,-3.845826387E-1
2.687006875E0,3.972400665E0,-1.134842682E1,-4.780062735E-1
2.689481406E0,3.740038872E0,-1.123104858E1,-4.875882268E-1
2.691956041E0,3.476536274E0,-1.116158009E1,-5.858027935E-1
2.694430572E0,3.172310591E0,-1.112085629E1,-9.020059705E-1
2.696905156E0,2.812988758E0,-1.119751167E1,-1.179881454E0
2.699379687E0,2.470435381E0,-1.125021172E1,-1.658977270E0
2.701854270E0,2.044040203E0,-1.135082150E1,-2.154841185E0
2.704328802E0,1.689509392E0,-1.147059536E1,-2.691428423E0
2.706798697E0,1.318210244E0,-1.154964638E1,-3.278320789E0
2.709273281E0,1.025961876E0,-1.166223431E1,-4.109551907E0
2.711747812E0,7.408999205E-1,-1.193531895E1,-4.691653252E0
2.714222343E0,5.205159187E-1,-1.210779381E1,-5.336036682E0
2.716696927E0,4.366741180E-1,-1.229703522E1,-6.059471130E0
2.719171458E0,3.624143600E-1,-1.253418827E1,-6.428375244E0
2.721646093E0,4.079283476E-1,-1.271145344E1,-6.672713757E0
2.724120625E0,5.636345148E-1,-1.294621086E1,-7.032035828E0
2.726595208E0,7.121541500E-1,-1.322169018E1,-7.101504803E0
2.729069739E0,8.870241642E-1,-1.354268456E1,-7.046408653E0
2.731544322E0,1.085848689E0,-1.381097889E1,-6.996103764E0
2.734018854E0,1.320605755E0,-1.408645821E1,-6.921843529E0
2.736488802E0,1.701486826E0,-1.431163406E1,-6.797278881E0
2.738963333E0,1.945825577E0,-1.461346340E1,-6.610431671E0
2.741437968E0,2.233283043E0,-1.488654900E1,-6.258296013E0
2.743912500E0,2.508763075E0,-1.510214138E1,-5.930115700E0
2.746387083E0,2.920785189E0,-1.526263905E1,-5.518093109E0
2.748861614E0,3.172310591E0,-1.531773472E1,-5.010251522E0
2.751336197E0,3.349575996E0,-1.546385860E1,-4.480851173E0
2.753810729E0,3.579542160E0,-1.559321499E1,-4.090388298E0
2.756285364E0,3.718479633E0,-1.569861603E1,-3.814907789E0
2.758759895E0,3.687338352E0,-1.572975636E1,-3.426840305E0
2.761234479E0,3.763994217E0,-1.557405090E1,-3.232806444E0
2.763709010E0,3.795135021E0,-1.514765549E1,-3.062727451E0
2.766180104E0,3.811903477E0,-1.456794930E1,-2.945349216E0
2.768654687E0,3.866999626E0,-1.382535172E1,-3.014817953E0
2.771129218E0,3.888558388E0,-1.301807499E1,-3.237597466E0
2.773603750E0,3.826275826E0,-1.238327408E1,-3.596919298E0
2.776078333E0,3.541214466E0,-1.187543201E1,-3.893958807E0
2.778552864E0,3.184288025E0,-1.142268658E1,-4.135901928E0
2.781027500E0,2.736333609E0,-1.102982807E1,-4.210161686E0
2.783502031E0,2.338684082E0,-1.068487835E1,-4.047269344E0
2.785976614E0,1.917079687E0,-1.052677727E1,-3.623269558E0
2.788451145E0,1.414029360E0,-1.048126411E1,-2.794434071E0
2.790925729E0,1.004402518E0,-1.063217831E1,-1.697304845E0
2.793400260E0,5.133293867E-1,-1.088130856E1,-5.522661209E-1
2.795868333E0,1.108890772E-1,-1.126218987E1,7.844108343E-1
2.798342864E0,-9.751754999E-2,-1.168379402E1,2.054014444E0
2.800817447E0,-1.645910144E-1,-1.204311562E1,3.211030722E0
2.803291979E0,-1.621955037E-1,-1.250544262E1,4.281809330E0
2.805766562E0,-8.793568611E-2,-1.302526188E1,5.168136120E0
2.808241093E0,-8.793568611E-2,-1.342051601E1,6.162259579E0
2.810715729E0,-2.005231678E-1,-1.372474194E1,7.065355301E0
2.813190260E0,-4.448619783E-1,-1.408645821E1,7.994801044E0
2.815664843E0,-7.514832616E-1,-1.456315899E1,8.615230560E0
2.818139375E0,-8.496978283E-1,-1.489613056E1,9.017671585E0
2.820613958E0,-7.730425596E-1,-1.518358803E1,9.159004211E0
2.823088489E0,-7.131555676E-1,-1.532971191E1,8.931433678E0
2.825537708E0,-7.371103764E-1,-1.545188141E1,8.545761108E0
2.828012291E0,-9.598898888E-1,-1.555967808E1,8.318191528E0
2.830486875E0,-1.343166471E0,-1.570101070E1,7.925332546E0
2.832961406E0,-1.692906380E0,-1.586869526E1,7.527682781E0
2.835435989E0,-2.186374903E0,-1.594295406E1,7.101287365E0
2.837910520E0,-2.646306753E0,-1.611063766E1,6.545536041E0
2.840385104E0,-3.161334515E0,-1.634060478E1,5.812520504E0
2.842859635E0,-3.769786358E0,-1.660410690E1,4.523752689E0
2.845334270E0,-4.452497482E0,-1.684605026E1,3.359550238E0
2.847808802E0,-5.060948849E0,-1.694666100E1,1.761766195E0
2.850283385E0,-5.736474037E0,-1.701852417E1,5.472584963E-1
2.852757916E0,-6.095796108E0,-1.695624352E1,-7.295315266E-1
2.855248645E0,-6.304202557E0,-1.667118073E1,-1.876965761E0
2.857723177E0,-6.083818436E0,-1.625197220E1,-2.569258928E0
2.860197760E0,-5.544835567E0,-1.563872910E1,-2.947744846E0
2.862672291E0,-4.864520073E0,-1.497997189E1,-3.223224640E0
2.865146875E0,-4.349492073E0,-1.443859386E1,-3.232806444E0
2.867621406E0,-3.863209724E0,-1.395470810E1,-3.302275419E0
2.870096041E0,-3.345786572E0,-1.352352047E1,-3.251970530E0
2.872570572E0,-2.914600372E0,-1.309952164E1,-2.959722042E0
2.875045156E0,-2.730148554E0,-1.265396309E1,-2.485417128E0
2.877519687E0,-2.660679579E0,-1.224912643E1,-2.157236814E0
2.879994270E0,-2.378013134E0,-1.193052769E1,-1.747609854E0
2.882468802E0,-2.136069775E0,-1.165025711E1,-1.009802461E0
2.884910833E0,-2.004318476E0,-1.150413227E1,-4.348876476E-1
2.887385416E0,-1.604273558E0,-1.150892353E1,-1.258709431E-1
2.889860000E0,-1.278488517E0,-1.126698017E1,4.801851511E-1
2.892334531E0,-9.047938585E-1,-1.114481068E1,1.031145096E0
2.894809114E0,-4.544439018E-1,-1.103940964E1,1.064681888E0
2.897283697E0,-1.190769076E-1,-1.083819008E1,1.112591505E0
2.899758229E0,1.060980558E-1,-1.081902599E1,1.136546254E0
2.902232812E0,2.450358272E-1,-1.073757935E1,1.091032147E0
2.904707395E0,4.390696287E-1,-1.065613365E1,8.874164820E-1
2.907181927E0,4.654198885E-1,-1.063936424E1,9.113712311E-1
2.909656510E0,4.630243778E-1,-1.053635979E1,1.026354313E0
2.912131093E0,7.145496607E-1,-1.042856312E1,7.915973663E-1
2.914622447E0,8.223460913E-1,-1.046928596E1,7.892018557E-1
2.917096979E0,9.373291731E-1,-1.052198696E1,7.365013361E-1
2.919571562E0,9.996116161E-1,-1.066331959E1,7.317103744E-1
2.922046145E0,1.148131251E0,-1.063696957E1,5.304902196E-1
2.924520677E0,1.172086000E0,-1.038304901E1,4.466484785E-1
2.926995260E0,1.128967404E0,-1.003091335E1,3.891569376E-1
2.929469843E0,1.330187559E0,-9.879998207E0,-7.556588948E-2
2.931944375E0,1.548176289E0,-9.681173325E0,-4.468650818E-1
2.934418958E0,1.747000694E0,-9.453602791E0,-8.253506422E-1
2.936893489E0,1.485893726E0,-9.269151688E0,-8.876330853E-1
2.939368072E0,1.176877022E0,-9.087094307E0,-8.588873744E-1
2.941842604E0,8.391145468E-1,-8.890666008E0,-7.582772374E-1
2.944288593E0,4.079283476E-1,-8.761309624E0,-5.187294483E-1
2.946763125E0,-2.086228132E-2,-8.576857567E0,-1.474302411E-1
2.949237708E0,-3.514383137E-1,-8.078598976E0,1.160723716E-1
2.951712239E0,-9.311441183E-1,-8.330123901E0,3.005242944E-1
2.954186822E0,-7.634606361E-1,-8.634349823E0,3.220835924E-1
2.956661354E0,-5.861952305E-1,-8.095366478E0,8.035748005E-1
2.959135937E0,-5.071444511E-1,-7.470147133E0,1.100614071E0
2.961610468E0,-5.143308640E-1,-7.103639126E0,1.366512179E0
2.964085104E0,-5.981726050E-1,-6.801808834E0,1.524613738E0
2.966559635E0,-7.395058274E-1,-6.646102428E0,1.543777585E0
2.969034218E0,-8.904209733E-1,-6.346668243E0,1.761766195E0
2.971508750E0,-6.484776735E-1,-6.001718998E0,1.912681341E0
2.974008020E0,-4.328845739E-1,-5.740612030E0,1.955800056E0
2.976482552E0,-2.556191981E-1,-5.525018692E0,1.989336491E0
2.978957135E0,-2.804869413E-2,-5.433990479E0,2.008500576E0
2.981431666E0,1.300528646E-1,-5.328589439E0,2.061201096E0
2.983906250E0,1.683804989E-1,-5.251934052E0,2.027664185E0
2.986380833E0,2.354539037E-1,-5.091437340E0,1.843212366E0
2.988855416E0,4.893746376E-1,-4.897403717E0,1.766557097E0
2.991329947E0,7.696455717E-1,-4.614737034E0,1.721042991E0
2.993804531E0,9.780522585E-1,-4.387166500E0,1.673133373E0
2.996279062E0,1.066684961E0,-4.217087746E0,1.800093651E0
2.998753645E0,1.200831771E0,-4.224274158E0,1.848003387E0
3.001228229E0,1.529012203E0,-4.267392635E0,1.809675694E0
3.003678020E0,1.634413481E0,-4.432680607E0,2.123483419E0
3.006152604E0,1.768560171E0,-4.490171909E0,2.272002935E0
3.008627187E0,1.830842495E0,-4.617132664E0,2.375008583E0
3.011101718E0,1.823656321E0,-4.621923447E0,2.480409861E0
3.013576302E0,1.811678648E0,-4.535686016E0,2.511550903E0
3.016050833E0,1.739814520E0,-4.471008301E0,2.434895515E0
3.018525468E0,1.596085787E0,-4.379980087E0,2.473223209E0
3.021000000E0,1.505057573E0,-4.257810593E0,2.336681128E0
3.023474583E0,1.315814734E0,-4.068568230E0,2.310330868E0
3.025949114E0,1.057103038E0,-3.963166714E0,2.377403975E0
3.028423697E0,8.750466108E-1,-3.761946678E0,2.446872950E0
3.030898281E0,7.241314650E-1,-3.649359226E0,2.506760120E0
3.033388906E0,5.899847746E-1,-3.539166927E0,2.552273989E0
3.035863177E0,4.079283476E-1,-3.464907169E0,2.657675028E0
3.038337395E0,1.468212008E-1,-3.393042564E0,2.787030935E0
3.040811666E0,-9.033113718E-2,-3.352319717E0,2.827754021E0
3.043285885E0,-4.496529400E-1,-3.275664330E0,2.791821957E0
3.045760156E0,-7.898108959E-1,-3.158286095E0,2.842127085E0
3.048234375E0,-9.934265614E-1,-3.084025860E0,2.849313259E0
3.050708645E0,-1.230578899E0,-2.992998123E0,2.791821957E0
3.053182916E0,-1.376703143E0,-2.918737888E0,2.834940434E0
3.055657135E0,-1.549177647E0,-2.844478130E0,2.751098871E0
3.058131406E0,-1.736024857E0,-2.822918892E0,2.592997313E0
3.060605625E0,-1.898917437E0,-2.796568871E0,2.509155512E0
3.063017812E0,-2.126487732E0,-2.789382458E0,2.372613192E0
3.065492083E0,-2.303753376E0,-2.775009155E0,2.077969313E0
3.067966302E0,-2.483414173E0,-2.755845547E0,1.697088242E0
3.070440572E0,-2.667865992E0,-2.765427589E0,1.548568487E0
3.072914791E0,-2.766080856E0,-2.753449917E0,1.344952941E0
3.075389062E0,-2.907413960E0,-2.729495049E0,1.160501003E0
3.077863281E0,-3.041560650E0,-2.765427589E0,9.760491848E-1
3.080337552E0,-3.099052191E0,-2.770218372E0,6.311002970E-1
3.082811770E0,-3.209244251E0,-2.743868351E0,4.945580363E-1
3.085286041E0,-3.245176315E0,-2.820523739E0,2.957332730E-1
3.087760260E0,-3.233199120E0,-2.885201454E0,-2.046988904E-2
3.090234531E0,-3.199662209E0,-2.949879169E0,-2.863680124E-1
3.092769739E0,-3.170916557E0,-3.057675838E0,-4.636334181E-1
3.095244010E0,-3.192475796E0,-3.239732265E0,-6.720400453E-1
3.097718229E0,-3.154148340E0,-3.467302799E0,-1.062503099E0
3.100192500E0,-3.051142454E0,-3.690082073E0,-1.469734311E0
3.102666718E0,-3.065515518E0,-3.955980301E0,-1.690118313E0
3.105140989E0,-3.137379646E0,-4.276974678E0,-1.996739626E0
3.107615208E0,-3.235594511E0,-4.643482685E0,-2.447089672E0
3.110089479E0,-3.329018116E0,-5.079459667E0,-2.813597679E0
3.112563750E0,-3.369741201E0,-5.608860493E0,-3.345393896E0
3.115037968E0,-3.434419155E0,-6.313131332E0,-3.925099850E0
3.117512239E0,-3.693130732E0,-7.036565781E0,-4.581461430E0
3.119986458E0,-3.829673052E0,-7.774373055E0,-5.321664333E0
3.122459531E0,-3.851232529E0,-8.600812912E0,-6.174454212E0
3.124933802E0,-3.769786358E0,-9.568585396E0,-7.065572262E0
3.127408020E0,-3.463165045E0,-1.059624672E1,-8.071673393E0
3.129882291E0,-3.082283735E0,-1.169816685E1,-8.989140511E0
3.132356510E0,-2.459459305E0,-1.282404137E1,-1.007429314E1
3.134830781E0,-1.795911908E0,-1.414634609E1,-1.115705013E1
3.137305052E0,-9.934265614E-1,-1.563154221E1,-1.249612141E1
3.139779270E0,-7.356280088E-2,-1.715267181E1,-1.383998489E1
3.142253541E0,7.696455717E-1,-1.856121254E1,-1.504012012E1
3.144727760E0,1.612854004E0,-2.002964211E1,-1.573960018E1
3.147202031E0,2.388988972E0,-2.135913277E1,-1.611329460E1
3.149676302E0,2.923180819E0,-2.268143654E1,-1.629774666E1
3.152149062E0,3.361553669E0,-2.386959457E1,-1.643668365E1
3.154623333E0,3.519655228E0,-2.455709648E1,-1.620432281E1
3.157097552E0,3.435813427E0,-2.477508545E1,-1.552400684E1
3.159571822E0,3.157937765E0,-2.461937904E1,-1.453706932E1
3.162046041E0,2.801011562E0,-2.381689262E1,-1.346150017E1
3.164520312E0,2.388988972E0,-2.243949318E1,-1.251768112E1
3.166994531E0,1.948220968E0,-2.082733727E1,-1.198348999E1
3.169468802E0,1.478707314E0,-1.909780121E1,-1.151157951E1
3.171943072E0,9.373291731E-1,-1.731316948E1,-1.083605480E1
3.174417291E0,2.809680104E-1,-1.562675190E1,-9.988056183E0
3.176891562E0,-3.442518711E-1,-1.412478638E1,-9.164011002E0
3.179365781E0,-1.019776821E0,-1.284560108E1,-8.294452667E0
3.181840156E0,-1.621042013E0,-1.177003098E1,-7.506340504E0
3.184314427E0,-2.126487732E0,-1.087412167E1,-6.806860924E0
3.186788645E0,-2.516950846E0,-1.015308285E1,-6.222364426E0
3.189262916E0,-2.900227547E0,-9.494326591E0,-5.673799038E0
3.191737135E0,-3.326622725E0,-8.924202919E0,-5.276150227E0
3.194211406E0,-3.705108166E0,-8.461874962E0,-4.969528675E0
3.196685625E0,-4.066825867E0,-8.059434891E0,-4.720398903E0
3.199159895E0,-4.442915440E0,-7.666576385E0,-4.435337067E0
3.201634166E0,-4.735164165E0,-7.347978115E0,-4.243698597E0
3.204108385E0,-5.137604713E0,-7.127593994E0,-4.006546497E0
3.206582656E0,-5.561604023E0,-6.888046265E0,-3.743043423E0
3.209056927E0,-5.849061489E0,-6.679639816E0,-3.443608761E0
3.211529687E0,-6.079027653E0,-6.478419304E0,-3.105846167E0
3.214003958E0,-6.299411297E0,-6.375413418E0,-2.712987661E0
3.216478177E0,-6.529377460E0,-6.358644962E0,-2.291383505E0
3.218952447E0,-6.706643105E0,-6.272408009E0,-1.979971409E0
3.221426666E0,-6.847976208E0,-6.322712898E0,-1.663768053E0
3.223900937E0,-7.063569069E0,-6.406555176E0,-1.354751348E0
3.226375156E0,-7.221670628E0,-6.555074692E0,-1.230186582E0
3.228849427E0,-7.341444492E0,-6.677244186E0,-1.086457849E0
3.231323697E0,-7.420495510E0,-6.969491959E0,-9.379381537E-1
3.233797916E0,-7.456427574E0,-7.182690144E0,-9.091924429E-1
3.236272187E0,-7.348630905E0,-7.498893261E0,-9.211698174E-1
3.238746458E0,-7.202507019E0,-7.882169247E0,-8.037913442E-1
3.241196562E0,-7.068359852E0,-8.272632599E0,-7.774410844E-1
3.243670833E0,-6.792880058E0,-8.746936798E0,-6.432943344E-1
3.246145052E0,-6.402417183E0,-9.135004997E0,-4.636334181E-1
3.248619322E0,-6.019140720E0,-9.664405823E0,-2.648086846E-1
3.251093541E0,-5.729287624E0,-1.029920673E1,-5.161111057E-2
3.253567812E0,-5.381943226E0,-1.098910427E1,3.556202650E-1
3.256042031E0,-4.969921112E0,-1.168858433E1,7.149420381E-1
3.258516302E0,-4.476452351E0,-1.230661774E1,9.784446955E-1
3.260990572E0,-3.894351006E0,-1.295100212E1,1.177269340E0
3.263464791E0,-3.362554789E0,-1.344686604E1,1.594082594E0
3.265939062E0,-2.619956493E0,-1.378223228E1,1.589291692E0
3.268413333E0,-1.867776275E0,-1.396668434E1,1.510240912E0
3.270909218E0,-1.182669401E0,-1.404333973E1,1.479099631E0
3.273383489E0,-5.406811237E-1,-1.399063969E1,1.239551783E0
3.275857708E0,3.092467785E-3,-1.393314743E1,1.105404973E0
3.278331979E0,4.127193689E-1,-1.378941917E1,1.203619599E0
3.280806197E0,7.289224863E-1,-1.351633453E1,1.361721277E0
3.283280468E0,9.085834026E-1,-1.320252705E1,1.459935904E0
3.285754739E0,7.768321037E-1,-1.285278702E1,1.845607996E0
3.288228958E0,7.744365931E-1,-1.254377079E1,1.737811446E0
3.290703229E0,5.540525913E-1,-1.222038078E1,1.606060028E0
3.293177447E0,2.186855674E-1,-1.187064075E1,1.215597034E0
3.295651718E0,-9.991306067E-2,-1.154725170E1,7.939928770E-1
3.298125989E0,-5.167263746E-1,-1.128135395E1,3.628066778E-1
3.300599583E0,-7.922063470E-1,-1.091005325E1,-1.905488670E-1
3.303073854E0,-1.086850166E0,-1.057229137E1,-5.402886868E-1
3.305548072E0,-1.242556334E0,-1.021776104E1,-8.948195577E-1
3.308022343E0,-1.412635326E0,-9.858438492E0,-8.612828851E-1
3.310496562E0,-1.403053403E0,-9.465580940E0,-7.103676796E-1
3.312970833E0,-1.369516611E0,-9.125422478E0,-1.761759818E-1
3.315445052E0,-1.242556334E0,-8.737354279E0,4.370664954E-1
3.317919322E0,-1.086850166E0,-8.373242378E0,1.004794836E0
3.320393593E0,-1.010194898E0,-8.071412086E0,1.670737982E0
3.322867812E0,-8.137656450E-1,-7.762395859E0,2.269607544E0
3.325342083E0,-7.107601166E-1,-7.534825325E0,2.818172216E0
3.327816354E0,-5.718223453E-1,-7.369537354E0,3.273313046E0
3.330289583E0,-5.071444511E-1,-7.221017838E0,3.809900045E0
3.332763854E0,-3.466473520E-1,-7.067707062E0,4.078193665E0
3.335238072E0,-3.202970922E-1,-6.998238087E0,4.430328846E0
3.337712343E0,-2.843649089E-1,-7.017402172E0,4.765695572E0
3.340186562E0,-2.268734574E-1,-6.981469631E0,5.031594276E0
3.342660833E0,-2.244779468E-1,-6.888046265E0,5.261559963E0
3.345135052E0,-1.550090909E-1,-6.868882179E0,5.520271778E0
3.347609322E0,-1.262633204E-1,-6.931164742E0,5.654418468E0
3.350083593E0,-1.142859459E-1,-6.979074001E0,5.652022839E0
3.352557812E0,-5.200350285E-2,-7.055729389E0,5.666395664E0
3.355032083E0,-5.439901352E-2,-7.180294514E0,5.649627686E0
3.357506302E0,8.214330673E-2,-7.369537354E0,5.582554340E0
3.359981250E0,7.256138325E-2,-7.542011738E0,5.666395664E0
3.362455520E0,3.902465105E-2,-7.750418186E0,5.743051052E0
3.364929739E0,3.662919998E-2,-7.958825588E0,5.807729244E0
3.367404010E0,1.516121626E-1,-8.078598976E0,5.776587963E0
3.369878229E0,3.097137213E-1,-8.303773880E0,5.764610291E0
3.372352447E0,5.205159187E-1,-8.531343460E0,5.721491814E0
3.374826718E0,6.163350344E-1,-8.792450905E0,5.881989002E0
3.377300989E0,7.337135077E-1,-9.123026848E0,5.910734653E0
3.379775260E0,9.996116161E-1,-9.446416855E0,5.747842312E0
3.382249479E0,1.196040750E0,-9.745851517E0,5.668791294E0
3.384723750E0,1.493080139E0,-9.937489510E0,5.343006134E0
3.387197968E0,1.814074278E0,-1.015787411E1,5.105853558E0
3.389670260E0,2.017689943E0,-1.043575001E1,4.648317337E0
3.392144531E0,2.142254829E0,-1.085256290E1,4.219526768E0
3.394618750E0,2.257237673E0,-1.118553352E1,3.766781807E0
3.397093020E0,2.317124844E0,-1.151371479E1,3.409855366E0
3.399567239E0,2.365034342E0,-1.187782764E1,3.050533533E0
3.402041510E0,2.499181032E0,-1.213653851E1,2.585810661E0
3.404515729E0,2.618954897E0,-1.236890030E1,2.212116003E0
3.406990000E0,2.640514135E0,-1.252700138E1,1.756975174E0
3.409464218E0,2.686028481E0,-1.266354465E1,1.292252421E0
3.411938489E0,2.741124392E0,-1.274020004E1,7.987837791E-1
3.414412760E0,2.676446438E0,-1.276415443E1,2.813604474E-1
3.416887031E0,2.738729000E0,-1.281445980E1,-2.312719971E-1
3.419359010E0,2.779452085E0,-1.284080982E1,-6.792264581E-1
3.421833281E0,2.880062342E0,-1.283122730E1,-1.069689512E0
3.424307500E0,2.827361822E0,-1.281685448E1,-1.402660966E0
3.426781770E0,2.887248755E0,-1.275457287E1,-1.702095747E0
3.429255989E0,2.877666712E0,-1.273780346E1,-1.917688847E0
3.431730260E0,2.647700787E0,-1.278331852E1,-2.011112452E0
3.434204479E0,2.326706648E0,-1.268270779E1,-1.994344234E0
3.436678750E0,2.027271748E0,-1.248388386E1,-2.018299103E0
3.439153020E0,1.775746584E0,-1.225152206E1,-2.011112452E0
3.441627239E0,1.373306274E0,-1.201197433E1,-1.896129608E0
3.444101510E0,9.972161055E-1,-1.171733093E1,-1.917688847E0
3.446575781E0,6.043576002E-1,-1.147778225E1,-1.738027930E0
3.449049583E0,2.809680104E-1,-1.121427917E1,-1.599090219E0
3.451523854E0,-5.679446459E-2,-1.094598675E1,-1.486502767E0
3.453998072E0,-3.945569396E-1,-1.066571522E1,-1.268514156E0
3.456472343E0,-6.748279333E-1,-1.036867523E1,-1.084062338E0
3.458946562E0,-8.520933390E-1,-1.005007744E1,-9.307517409E-1
3.461420833E0,-9.886355996E-1,-9.757828712E0,-8.349325657E-1
3.463895052E0,-1.101223111E0,-9.477557182E0,-6.217349768E-1
3.466369322E0,-1.185064793E0,-9.125422478E0,-5.834073424E-1
3.468843541E0,-1.369516611E0,-8.924202919E0,-3.989554942E-1
3.471317812E0,-1.510849953E0,-8.715795517E0,-2.049217373E-1
3.473792083E0,-1.597087145E0,-8.445106506E0,-1.306056976E-3
3.476266354E0,-1.549177647E0,-8.224722862E0,2.238689214E-1
3.478729062E0,-1.604273558E0,-8.124113083E0,3.723886013E-1
3.481203333E0,-1.695301771E0,-7.956429958E0,4.298800826E-1
3.483677552E0,-1.779143453E0,-7.810305119E0,5.616313815E-1
3.486151822E0,-1.942036033E0,-7.628249168E0,7.053601146E-1
3.488626041E0,-1.951617956E0,-7.470147133E0,6.957781911E-1
3.491100312E0,-1.989945650E0,-7.405469418E0,6.334957480E-1
3.493574531E0,-2.064205647E0,-7.436610699E0,4.586258531E-1
3.496048802E0,-1.982759118E0,-7.496497631E0,3.196880817E-1
3.498523072E0,-1.874962687E0,-7.522848129E0,3.125016689E-1
3.500997291E0,-1.764770627E0,-7.544406891E0,1.040949970E-1
3.503471510E0,-1.623437405E0,-7.542011738E0,-4.442466795E-2
3.505945781E0,-1.479708672E0,-7.551593781E0,-1.402437985E-1
3.508430937E0,-1.386285067E0,-7.599503040E0,-2.695996463E-1
3.510905208E0,-1.347957373E0,-7.688136101E0,-3.630233109E-1
3.513379427E0,-1.300047874E0,-7.788746357E0,-3.893735707E-1
3.515853697E0,-1.211415052E0,-7.836655617E0,-3.965600133E-1
3.518327968E0,-1.141946197E0,-7.922893047E0,-3.270911276E-1
3.520802187E0,-1.084454775E0,-8.066620827E0,-2.695996463E-1
3.523276458E0,-9.790537357E-1,-8.239095688E0,-3.246956468E-1
3.525750677E0,-9.023983479E-1,-8.416360855E0,-2.959499359E-1
3.528224895E0,-8.976074457E-1,-8.612790108E0,-2.145036459E-1
3.530699166E0,-8.496978283E-1,-8.739750862E0,-8.993875980E-2
3.533173437E0,-6.820143461E-1,-8.663095474E0,-6.837946177E-2
3.535647708E0,-4.927715659E-1,-8.605603218E0,9.211759269E-2
3.538107135E0,-2.819694579E-1,-8.545716286E0,2.262644023E-1
3.540581406E0,-8.314478397E-2,-8.471456528E0,3.244790435E-1
3.543055625E0,1.084935665E-1,-8.411569595E0,3.364564776E-1
3.545529895E0,1.252619028E-1,-8.349287987E0,4.155071974E-1
3.548004114E0,1.827533841E-1,-8.337309837E0,5.712133050E-1
3.550478385E0,2.737815380E-1,-8.287004471E0,6.143319607E-1
3.552952604E0,2.689906359E-1,-8.308564186E0,7.029646635E-1
3.555426875E0,3.648097515E-1,-8.349287987E0,7.844108343E-1
3.557901093E0,4.989564419E-1,-8.320541382E0,7.245239615E-1
3.560375364E0,6.666400433E-1,-8.279818535E0,7.532697320E-1
3.562849583E0,7.385044098E-1,-8.236700058E0,7.293148637E-1
3.565323854E0,8.127642870E-1,-8.215140343E0,7.604561448E-1
3.567809270E0,8.391145468E-1,-8.291795731E0,7.269194126E-1
3.570283541E0,9.157698154E-1,-8.337309837E0,6.550551057E-1
3.572757760E0,1.028357267E0,-8.325332642E0,4.514393806E-1
3.575232031E0,1.037939191E0,-8.325332642E0,3.388518691E-1
3.577706250E0,9.732612371E-1,-8.356473923E0,3.484338522E-1
3.580180520E0,9.756567478E-1,-8.378033638E0,1.759593338E-1
3.582654791E0,9.277472496E-1,-8.502597809E0,1.400271505E-1
3.585129010E0,9.013969898E-1,-8.596021652E0,1.376316994E-1
3.587603229E0,9.349336624E-1,-8.684654236E0,5.378992856E-2
3.590077500E0,9.205607176E-1,-8.806823730E0,1.831457764E-1
3.592551770E0,7.983913422E-1,-8.952947617E0,3.220835924E-1
3.595026041E0,7.528772354E-1,-8.981693268E0,3.819705248E-1
3.597498854E0,7.672500610E-1,-9.015230179E0,4.753941894E-1
3.599973125E0,7.912050486E-1,-9.031998634E0,5.496540070E-1
3.602447343E0,8.415099382E-1,-9.063139915E0,6.263093352E-1
3.604921614E0,9.517019987E-1,-9.091885567E0,6.861962676E-1
3.607395833E0,1.047521114E0,-9.017625809E0,7.844108343E-1
3.609870104E0,1.145735741E0,-9.003252983E0,8.371113539E-1
3.612344322E0,1.219995618E0,-9.010439873E0,8.562753201E-1
3.614818593E0,1.296650887E0,-8.909830093E0,9.185577631E-1
3.617292864E0,1.394865513E0,-8.881083488E0,9.233486652E-1
3.619767083E0,1.514639378E0,-8.859524727E0,9.233486652E-1
3.622241354E0,1.598481178E0,-8.876292229E0,9.808400869E-1
3.624715572E0,1.696695805E0,-8.830779076E0,8.946028948E-1
3.627188906E0,1.775746584E0,-8.866710663E0,8.850209713E-1
3.629663177E0,1.907497883E0,-8.924202919E0,8.107610941E-1
3.632137395E0,1.988944292E0,-9.053558350E0,7.412922382E-1
3.634611666E0,2.010503531E0,-9.125422478E0,8.347159624E-1
3.637085885E0,2.048831224E0,-9.238009453E0,7.868063450E-1
3.639560156E0,2.156627655E0,-9.305083275E0,6.742188931E-1
3.642034375E0,2.199746132E0,-9.410484314E0,6.742188931E-1
3.644508645E0,2.262028694E0,-9.530258179E0,5.736087561E-1
3.646982916E0,2.353056908E0,-9.614100456E0,5.352811217E-1
3.649457135E0,2.405757427E0,-9.662009239E0,5.592359304E-1
3.651931406E0,2.513554096E0,-9.760224342E0,4.586258531E-1
3.654405677E0,2.451271534E0,-9.851252556E0,5.256991982E-1
3.656879947E0,2.554276943E0,-9.911139488E0,3.939478993E-1
3.659354218E0,2.614163876E0,-1.001654053E1,2.358463258E-1
3.661828437E0,2.645305157E0,-1.010277748E1,1.208633333E-1
3.664302708E0,2.733937979E0,-1.022494793E1,-1.594076455E-1
3.666776927E0,2.810593128E0,-1.036628056E1,-3.127182722E-1
3.669251197E0,2.889643908E0,-1.048126411E1,-7.462998629E-1
3.671725416E0,2.966299534E0,-1.054833698E1,-1.131971955E0
3.674199687E0,3.033372641E0,-1.061780548E1,-1.527225852E0
3.676673958E0,3.019000053E0,-1.073039341E1,-1.903316021E0
3.679148177E0,3.095655203E0,-1.075913906E1,-2.411157370E0
3.681622447E0,3.201056242E0,-1.081423473E1,-2.923789740E0
3.684096718E0,3.153146744E0,-1.088130856E1,-3.283111811E0
3.686569479E0,3.236988544E0,-1.095077801E1,-3.728670835E0
3.689043750E0,3.287293434E0,-1.111606598E1,-4.193393707E0
3.691517968E0,3.282502413E0,-1.120469761E1,-4.437732697E0
3.693992239E0,3.275316238E0,-1.133405399E1,-4.567088127E0
3.696466458E0,3.294480085E0,-1.145143223E1,-4.715608120E0
3.698940677E0,3.349575996E0,-1.157120609E1,-4.720398903E0
3.701414947E0,3.339993954E0,-1.175086689E1,-4.511992455E0
3.703889218E0,3.363948822E0,-1.186584949E1,-4.162252426E0
3.706363489E0,3.385508060E0,-1.202634621E1,-3.865212917E0
3.708837708E0,3.349575996E0,-1.226589489E1,-3.434026718E0
3.711311979E0,3.359158039E0,-1.244316101E1,-2.907021523E0
3.713786250E0,3.464559078E0,-1.253897953E1,-2.645914316E0
3.716259583E0,3.466954708E0,-1.265875340E1,-2.310547352E0
3.718733854E0,3.522050381E0,-1.269228935E1,-1.991948724E0
3.721208072E0,3.502886295E0,-1.265635777E1,-1.728446126E0
3.723682343E0,3.502886295E0,-1.257491207E1,-1.450570583E0
3.726156562E0,3.476536274E0,-1.248867512E1,-1.234977484E0
3.728630833E0,3.447790623E0,-1.234015465E1,-1.028966427E0
3.731105052E0,3.304061890E0,-1.220361233E1,-8.013958335E-1
3.733579322E0,3.191474438E0,-1.204071999E1,-8.061868548E-1
3.736053593E0,2.999836206E0,-1.189699173E1,-6.672490835E-1
3.738527812E0,2.892039537E0,-1.177961254E1,-7.031812668E-1
3.741002083E0,2.690819502E0,-1.167421150E1,-7.582772374E-1
3.743476354E0,2.427316666E0,-1.167421150E1,-7.918139696E-1
3.745949375E0,2.262028694E0,-1.169816685E1,-9.355426431E-1
3.748423645E0,2.022480965E0,-1.175326252E1,-1.158322215E0
3.750897864E0,1.833237886E0,-1.189459610E1,-1.347564936E0
3.753372135E0,1.605667830E0,-1.212695694E1,-1.716468573E0
3.755846354E0,1.387679100E0,-1.239525032E1,-1.908106923E0
3.758320625E0,1.255927682E0,-1.262521648E1,-2.353666067E0
3.760794843E0,1.191249847E0,-1.291506958E1,-2.724965334E0
3.763269114E0,1.311023712E0,-1.321929550E1,-3.165733337E0
3.765743385E0,1.370910645E0,-1.354987144E1,-3.565778017E0
3.768217604E0,1.423611164E0,-1.387326050E1,-3.865212917E0
3.770691875E0,1.540989637E0,-1.426851463E1,-4.150274754E0
3.773166145E0,1.667949915E0,-1.465897751E1,-4.346704006E0
3.775639947E0,1.842819929E0,-1.493685341E1,-4.461687088E0
3.778114218E0,1.969780207E0,-1.522431087E1,-4.523969650E0
3.780588437E0,2.139859200E0,-1.553093147E1,-4.595834255E0
3.783062708E0,2.453666925E0,-1.575131607E1,-4.746749401E0
3.785536927E0,2.741124392E0,-1.584234428E1,-4.579065800E0
3.788011145E0,2.999836206E0,-1.597409534E1,-4.521574020E0
3.790485416E0,3.155542135E0,-1.603398323E1,-4.480851173E0
3.792959687E0,3.282502413E0,-1.609147453E1,-4.358681679E0
3.795433958E0,3.414254189E0,-1.602200699E1,-4.473664761E0
3.797908177E0,3.474141121E0,-1.589025402E1,-4.234116554E0
3.800382447E0,3.634637833E0,-1.558842373E1,-4.061642170E0
3.802856718E0,3.898140430E0,-1.510453701E1,-3.862817526E0
3.805332604E0,4.056241989E0,-1.457034588E1,-3.788557529E0
3.807806875E0,4.034683228E0,-1.416071892E1,-3.647224188E0
3.810281093E0,3.878976345E0,-1.377025604E1,-3.560987234E0
3.812755364E0,3.723270416E0,-1.343728352E1,-3.474750042E0
3.815229583E0,3.589124203E0,-1.303244781E1,-3.484331846E0
3.817703802E0,3.431022167E0,-1.261084366E1,-3.532241583E0
3.820178072E0,3.215429306E0,-1.209821129E1,-3.383721828E0
3.822652343E0,3.023791075E0,-1.158797455E1,-3.438817739E0
3.825126614E0,2.793824911E0,-1.123344326E1,-3.472354412E0
3.827600833E0,2.499181032E0,-1.100347805E1,-3.649619818E0
3.830075104E0,2.240469456E0,-1.082142162E1,-4.047269344E0
3.832549322E0,1.960198402E0,-1.079986191E1,-4.262862682E0
3.835019531E0,1.576921940E0,-1.080704880E1,-4.406591415E0
3.837493802E0,1.006798029E0,-1.098431396E1,-4.030500889E0
3.839968020E0,4.630243778E-1,-1.123583889E1,-3.405281067E0
3.842442291E0,-1.310543418E-1,-1.149934196E1,-2.439903259E0
3.844916510E0,-6.939917803E-1,-1.169337559E1,-9.738702774E-1
3.847390781E0,-1.161110044E0,-1.188740921E1,5.280947089E-1
3.849865052E0,-1.628228426E0,-1.210060692E1,1.831234932E0
3.852339270E0,-2.016295910E0,-1.229224491E1,3.318827152E0
3.854813541E0,-2.212725163E0,-1.238806438E1,4.598012447E0
3.857287760E0,-2.382804155E0,-1.250065136E1,5.632859230E0
3.859762031E0,-2.440295696E0,-1.280248165E1,6.442530632E0
3.862236302E0,-2.366035938E0,-1.317378139E1,7.115660191E0
3.864711458E0,-2.332499027E0,-1.351393986E1,7.589965343E0
3.867185729E0,-2.313335419E0,-1.372953224E1,7.944495678E0
3.869659947E0,-2.334894657E0,-1.376067352E1,8.160089493E0
3.872134218E0,-2.387595177E0,-1.377025604E1,8.236744881E0
3.874608489E0,-2.339685440E0,-1.376067352E1,7.932518482E0
3.877082708E0,-2.349267483E0,-1.379181480E1,7.664224625E0
3.879556927E0,-2.445086479E0,-1.378462887E1,7.431863785E0
3.882031197E0,-2.586419582E0,-1.377265072E1,6.935999393E0
3.884505468E0,-2.866690874E0,-1.391877460E1,6.617400646E0
3.886979687E0,-3.077492714E0,-1.406969070E1,6.078418255E0
3.889453958E0,-3.482328653E0,-1.427809620E1,5.481944084E0
3.891928177E0,-3.956633568E0,-1.461346340E1,4.727368355E0
3.894400000E0,-4.373446465E0,-1.490331650E1,3.611075401E0
3.896874270E0,-4.869310856E0,-1.532731628E1,2.224093437E0
3.899348489E0,-5.381943226E0,-1.578964329E1,7.077555656E-1
3.901822760E0,-5.817920685E0,-1.627592659E1,-8.085823059E-1
3.904296979E0,-5.873016357E0,-1.665441322E1,-2.181191444E0
3.906771250E0,-5.774801731E0,-1.678616524E1,-3.175314903E0
3.909245468E0,-5.398711681E0,-1.671190453E1,-3.824489832E0
3.911719739E0,-4.960339069E0,-1.651786995E1,-4.255676270E0
3.914194010E0,-4.562689781E0,-1.629988098E1,-4.545529366E0
3.916668229E0,-4.212949753E0,-1.587588024E1,-4.468873501E0
3.919142500E0,-3.947051525E0,-1.542313576E1,-4.138297558E0
3.921616718E0,-3.647616863E0,-1.484342957E1,-3.644829035E0
3.924089739E0,-3.376927853E0,-1.435714722E1,-3.223224640E0
3.926564010E0,-3.158939362E0,-1.401459503E1,-2.540513277E0
3.929038229E0,-2.988860369E0,-1.358340740E1,-1.879361272E0
3.931512500E0,-2.663074970E0,-1.311868572E1,-1.462548018E0
3.933986718E0,-2.428318262E0,-1.271624470E1,-7.654636502E-1
3.936460989E0,-2.234284401E0,-1.244316101E1,-3.031363487E-1
3.938935208E0,-1.915685773E0,-1.222277641E1,-6.119303405E-2
3.941409479E0,-1.824657679E0,-1.216288948E1,7.412922382E-1
3.943883750E0,-1.683324337E0,-1.217726231E1,1.227574348E0
3.946357968E0,-1.271301985E0,-1.211737537E1,8.850209713E-1
3.948832239E0,-9.119802713E-1,-1.203113747E1,8.035748005E-1
3.951306510E0,-6.604550481E-1,-1.189938641E1,8.634616137E-1
3.953781145E0,-3.825795352E-1,-1.171972561E1,9.449080229E-1
3.956255416E0,-4.481709003E-2,-1.155204296E1,7.412922382E-1
3.958729635E0,5.100202560E-2,-1.131728554E1,5.280947089E-1
3.961203906E0,1.228664517E-1,-1.127656269E1,3.316654563E-1
3.963678125E0,1.468212008E-1,-1.118793011E1,1.999141425E-1
3.966152395E0,2.641996741E-1,-1.102982807E1,1.064904779E-1
3.968626614E0,2.114990950E-1,-1.083819008E1,4.660351574E-2
3.971100885E0,1.180754900E-1,-1.073278904E1,2.286598831E-1
3.973575156E0,5.324932337E-1,-1.066811085E1,3.771795630E-1
3.976049375E0,1.198436260E0,-1.039742184E1,-2.765633166E-2
3.978523645E0,1.519430399E0,-1.024890137E1,-5.019610524E-1
3.980997916E0,1.188854337E0,-1.043335342E1,-5.187294483E-1
3.983469843E0,7.672500610E-1,-1.042377186E1,-7.918139696E-1
3.985944114E0,3.959510326E-1,-1.022255135E1,-9.666838646E-1
3.988418333E0,5.339753628E-2,-1.004049587E1,-9.810567498E-1
3.990892552E0,-4.185117483E-1,-9.760224342E0,-7.846275568E-1
3.993366822E0,-8.017882705E-1,-9.479953766E0,-7.558817863E-1
3.995841041E0,-9.455170035E-1,-9.120631218E0,-6.888083816E-1
3.998315312E0,-6.844098568E-1,-8.627162933E0,-6.241304874E-1
4.000789583E0,-2.987377942E-1,-8.219931602E0,-3.989554942E-1
4.003263854E0,-1.128035784E-2,-7.891751766E0,-1.522212029E-1
4.005738072E0,3.696007729E-1,-7.530034065E0,-1.498257220E-1
4.008212343E0,6.163350344E-1,-7.302463531E0,1.088859290E-1
4.010686562E0,9.349336624E-1,-7.103639126E0,3.268744946E-1
4.013160208E0,1.275091648E0,-6.820972443E0,6.694279313E-1
4.015634479E0,1.426006794E0,-6.535910606E0,9.904220104E-1
4.018108697E0,1.289464474E0,-6.250848770E0,1.366512179E0
4.020582968E0,1.095430732E0,-5.884340763E0,1.570127845E0
4.023057187E0,1.064289451E0,-5.690306664E0,1.699483633E0
4.025531458E0,1.184063315E0,-5.620838165E0,1.800093651E0
4.028005677E0,1.394865513E0,-5.513041496E0,1.927054167E0
4.030479947E0,1.624831438E0,-5.378894806E0,1.845607996E0
4.032954218E0,1.794910431E0,-5.275888920E0,1.809675694E0
4.035428437E0,1.938639164E0,-5.194442749E0,1.694692731E0
4.037902708E0,1.926661730E0,-5.074668407E0,1.596478105E0
4.040376927E0,1.929057121E0,-5.026759148E0,1.570127845E0
4.042850260E0,1.917079687E0,-4.990827084E0,1.586896300E0
4.045324427E0,2.015294552E0,-4.947708607E0,1.603664517E0
4.047798645E0,2.204537153E0,-4.938126564E0,1.594082594E0
4.050272812E0,2.317124844E0,-4.839911938E0,1.541382194E0
4.052747031E0,2.257237673E0,-4.691391945E0,1.479099631E0
4.055221197E0,2.166209459E0,-4.518917561E0,1.515031934E0
4.057695364E0,2.101531744E0,-4.401539803E0,1.534195662E0
4.060169531E0,1.838028908E0,-4.178760052E0,1.625223875E0
4.062643750E0,1.574526548E0,-3.934421062E0,1.630014777E0
4.065117916E0,1.358933449E0,-3.670918465E0,1.730624914E0
4.067592083E0,1.176877022E0,-3.416997433E0,1.778534412E0
4.070066302E0,8.942104578E-1,-3.081630707E0,1.833630562E0
4.072534062E0,7.361088991E-1,-2.775009155E0,1.943822622E0
4.075008229E0,5.468660593E-1,-2.554625034E0,1.986941099E0
4.077482447E0,3.097137213E-1,-2.245608330E0,1.979754686E0
4.079956614E0,7.495689392E-2,-1.996478677E0,2.008500576E0
4.082430781E0,-3.523510695E-2,-1.785676718E0,2.032455206E0
4.084905000E0,-1.023085713E-1,-1.562897205E0,2.044432402E0
4.087379166E0,-1.885457933E-1,-1.435936928E0,2.111505985E0
4.089853333E0,-2.747830153E-1,-1.354490638E0,2.168997526E0
4.092327552E0,-4.137207568E-1,-1.337722301E0,2.149833679E0
4.094801718E0,-4.879806042E-1,-1.270648837E0,2.099528551E0
4.097275885E0,-5.550540090E-1,-1.225134730E0,2.133065224E0
4.099750104E0,-6.077545285E-1,-1.232321262E0,2.054014444E0
4.102225208E0,-5.885906816E-1,-1.165247798E0,1.970172882E0
4.104699375E0,-6.245228648E-1,-1.136502028E0,1.761766195E0
4.107173593E0,-6.269183755E-1,-1.079010606E0,1.613246560E0
4.109647760E0,-6.844098568E-1,-1.019123673E0,1.438376546E0
4.112121979E0,-7.850199342E-1,-1.057451248E0,1.335371017E0
4.114596145E0,-9.023983479E-1,-9.831913710E-1,1.107800484E0
4.117070364E0,-9.023983479E-1,-9.688185453E-1,8.466933966E-1
4.119544479E0,-1.077268362E0,-9.280953407E-1,7.484787107E-1
4.122018697E0,-1.304838777E0,-8.729994297E-1,6.814053059E-1
4.124492864E0,-1.359934807E0,-7.771802545E-1,4.418574572E-1
4.126967031E0,-1.477313280E0,-6.813611388E-1,1.711683720E-1
4.129441250E0,-1.656974077E0,-7.101069093E-1,-1.088796556E-2
4.131920468E0,-1.728838563E0,-6.526153684E-1,-3.031363487E-1
4.134394635E0,-1.815075755E0,-6.789656281E-1,-5.905937552E-1
4.136868854E0,-1.865380764E0,-7.412481308E-1,-8.085823059E-1
4.139343020E0,-2.023482323E0,-8.202988505E-1,-1.050525665E0
4.141817187E0,-2.116906166E0,-8.825813532E-1,-1.395474434E0
4.144291406E0,-2.255843639E0,-1.076615095E0,-1.687723041E0
4.146765572E0,-2.411550045E0,-1.265857935E0,-2.094954252E0
4.149239791E0,-2.540905476E0,-1.464682579E0,-2.602795839E0
4.151713958E0,-2.706193686E0,-1.824004412E0,-3.096264124E0
4.154188125E0,-2.768476248E0,-2.212071896E0,-3.608896732E0
4.156662291E0,-2.969696283E0,-2.616907597E0,-3.994568825E0
4.159136510E0,-3.111029625E0,-3.088817120E0,-4.507201195E0
4.161610572E0,-3.161334515E0,-3.656545639E0,-5.024624825E0
4.164084739E0,-3.154148340E0,-4.300929070E0,-5.410296917E0
4.166558958E0,-3.101447821E0,-4.978849411E0,-5.817528248E0
4.169033125E0,-2.921786785E0,-5.762171268E0,-6.452329636E0
4.171507291E0,-2.540905476E0,-6.701198578E0,-7.082340717E0
4.173981510E0,-2.260634899E0,-7.659389973E0,-7.664442062E0
4.176455677E0,-1.872567177E0,-8.746936798E0,-8.304034233E0
4.178929843E0,-1.436590075E0,-9.944676399E0,-9.056214333E0
4.181404062E0,-9.095848203E-1,-1.125500298E1,-1.000961494E1
4.183878229E0,-3.993478715E-1,-1.272103596E1,-1.091031456E1
4.186352395E0,3.183823824E-2,-1.423497868E1,-1.162895870E1
4.188826614E0,4.965611696E-1,-1.573694324E1,-1.254163551E1
4.191300833E0,8.510918617E-1,-1.739461517E1,-1.312373638E1
4.193775000E0,1.119385481E0,-1.922236443E1,-1.351659584E1
4.196249218E0,1.392469883E0,-2.106688499E1,-1.404599667E1
4.198723385E0,1.423611164E0,-2.287547112E1,-1.425440311E1
4.201197604E0,1.346956015E0,-2.462416840E1,-1.430949879E1
4.203671770E0,1.313419223E0,-2.607822418E1,-1.412504673E1
4.206145937E0,1.184063315E0,-2.718972588E1,-1.357408714E1
4.208620104E0,9.708658457E-1,-2.764726257E1,-1.286262989E1
4.211094322E0,6.402897835E-1,-2.730710411E1,-1.191402054E1
4.213568489E0,1.564031243E-1,-2.633693695E1,-1.102769375E1
4.216042656E0,-4.137207568E-1,-2.507691383E1,-1.034498215E1
4.218516875E0,-8.616752625E-1,-2.359171867E1,-9.760485649E0
4.220990208E0,-1.383889556E0,-2.186457825E1,-9.087355614E0
4.223464375E0,-1.846216917E0,-1.981644440E1,-8.359129906E0
4.225938541E0,-2.270216465E0,-1.762937355E1,-7.671628952E0
4.228412760E0,-2.660679579E0,-1.568184757E1,-6.986521721E0
4.230886927E0,-3.101447821E0,-1.413197231E1,-6.277460098E0
4.233361145E0,-3.554193020E0,-1.294141960E1,-5.731290817E0
4.235835312E0,-4.148271561E0,-1.207425690E1,-5.072534084E0
4.238309479E0,-4.567480564E0,-1.132447147E1,-4.638952732E0
4.240783697E0,-4.910034180E0,-1.062259674E1,-4.291608334E0
4.243257864E0,-5.226236820E0,-1.001654053E1,-4.056851387E0
4.245732031E0,-5.381943226E0,-9.417670250E0,-3.980195999E0
4.248206250E0,-5.686169147E0,-8.912224770E0,-3.728670835E0
4.250680781E0,-5.913739681E0,-8.476247787E0,-3.541823149E0
4.253154947E0,-6.170055389E0,-8.107343674E0,-3.268738747E0
4.255629166E0,-6.294620514E0,-7.721672535E0,-3.132196426E0
4.258103333E0,-6.349716663E0,-7.343187332E0,-2.993258715E0
4.260577500E0,-6.450326443E0,-7.103639126E0,-2.823179722E0
4.263051718E0,-6.651546955E0,-6.871277809E0,-2.677055597E0
4.265525885E0,-6.826416492E0,-6.650893688E0,-2.557281733E0
4.268000052E0,-6.905467510E0,-6.454464436E0,-2.447089672E0
4.270474270E0,-6.919840336E0,-6.298758030E0,-2.461462498E0
4.272948437E0,-7.099501610E0,-6.229289532E0,-2.324920177E0
4.275422604E0,-7.216879368E0,-6.293967724E0,-2.207541704E0
4.277896822E0,-7.276766300E0,-6.408950806E0,-2.200355530E0
4.280370572E0,-7.269580364E0,-6.626939297E0,-2.162027597E0
4.282844739E0,-7.353422165E0,-6.916791439E0,-2.042253733E0
4.285318958E0,-7.379772663E0,-7.388700962E0,-1.903316021E0
4.287793125E0,-7.288743973E0,-7.961220264E0,-1.876965761E0
4.290267343E0,-7.257603168E0,-8.574462891E0,-1.864988327E0
4.292741510E0,-7.104291916E0,-9.254778862E0,-1.709282279E0
4.295215677E0,-7.001286507E0,-1.002612305E1,-1.529621363E0
4.297689895E0,-6.931818008E0,-1.090047169E1,-1.218209147E0
4.300164062E0,-6.824021339E0,-1.178440380E1,-8.636782765E-1
4.302638229E0,-6.673106194E0,-1.262042522E1,-3.678142726E-1
4.305112395E0,-6.493444920E0,-1.337739658E1,-3.005181253E-2
4.307586614E0,-6.277852058E0,-1.406010818E1,2.214734405E-1
4.310060416E0,-6.055072308E0,-1.453201771E1,4.538348913E-1
4.312534583E0,-5.741264820E0,-1.486498833E1,6.550551057E-1
4.315008802E0,-5.286124229E0,-1.510214138E1,6.215183735E-1
4.317482968E0,-4.744746208E0,-1.515484142E1,4.155071974E-1
4.319957135E0,-4.363864899E0,-1.520035553E1,1.546227932E-2
4.322431354E0,-4.124317169E0,-1.522910118E1,-2.648086846E-1
4.324905520E0,-3.779367924E0,-1.506141853E1,-4.708198309E-1
4.327379687E0,-3.455978394E0,-1.477875137E1,-4.061419368E-1
4.329853906E0,-3.180498600E0,-1.452243519E1,-2.240855545E-1
4.332328072E0,-2.998441935E0,-1.419904518E1,9.451307356E-2
4.334802239E0,-2.816385746E0,-1.362173557E1,5.233037472E-1
4.337276458E0,-2.624747276E0,-1.292944241E1,1.002399445E0
4.339750156E0,-2.619956493E0,-1.230661774E1,1.519822717E0
4.342224375E0,-2.596001625E0,-1.155443764E1,1.802489281E0
4.344698541E0,-2.507369041E0,-1.079746628E1,2.065992117E0
4.347172708E0,-2.313335419E0,-1.000935364E1,2.233675480E0
4.349646927E0,-2.112114906E0,-9.326642990E0,2.063596487E0
4.352121093E0,-1.901312828E0,-8.699028015E0,2.042037010E0
4.354595260E0,-1.659369588E0,-8.064225197E0,2.068387508E0
4.357069427E0,-1.355143785E0,-7.470147133E0,2.291167021E0
4.359543645E0,-9.958220720E-1,-6.959910393E0,2.583415270E0
4.362017812E0,-6.484776735E-1,-6.519142628E0,3.052928925E0
4.364491979E0,-2.340598702E-1,-6.164611816E0,3.678148985E0
4.366966197E0,2.043126822E-1,-5.824453831E0,4.241086483E0
4.369441041E0,5.995665789E-1,-5.527414322E0,4.643526554E0
4.371915208E0,8.702557087E-1,-5.340567112E0,4.964520931E0
4.374389427E0,1.140944719E0,-5.124974251E0,5.242396355E0
4.376863593E0,1.418820143E0,-4.976454258E0,5.412475109E0
4.379337760E0,1.624831438E0,-4.844703197E0,5.429243088E0
4.381811979E0,1.838028908E0,-4.770442963E0,5.537040234E0
4.384286145E0,1.974571228E0,-4.734510899E0,5.570576668E0
4.386760364E0,2.101531744E0,-4.758465767E0,5.529853821E0
4.389234531E0,2.175791502E0,-4.827934742E0,5.647232056E0
4.391708697E0,2.173395872E0,-4.950104237E0,5.711909771E0
4.394182864E0,2.211723804E0,-5.182465553E0,5.755028725E0
4.396657083E0,2.257237673E0,-5.433990479E0,5.831683636E0
4.399106822E0,2.422525644E0,-5.625628948E0,5.755028725E0
4.401580989E0,2.621350527E0,-5.872363091E0,5.747842312E0
4.404055156E0,2.731542587E0,-6.200543404E0,5.704723835E0
4.406529375E0,2.741124392E0,-6.559865475E0,5.668791294E0
4.409003541E0,2.695610285E0,-6.995842457E0,5.649627686E0
4.411477760E0,2.647700787E0,-7.534825325E0,5.587345123E0
4.413951927E0,2.477621794E0,-8.104948997E0,5.551412582E0
4.416426093E0,2.266819715E0,-8.749332428E0,5.520271778E0
4.418900312E0,1.905102491E0,-9.455998421E0,5.486734867E0
4.421374479E0,1.476311684E0,-1.021057510E1,5.376542568E0
4.423848645E0,1.133758307E0,-1.084537601E1,5.254373550E0
4.426322864E0,8.774421215E-1,-1.135561275E1,5.072317123E0
4.428821718E0,8.558828831E-1,-1.175326252E1,4.890260696E0
4.431295885E0,8.654646873E-1,-1.213893509E1,4.660295010E0
4.433770104E0,9.109789133E-1,-1.249106979E1,4.631549358E0
4.436244270E0,1.093035221E0,-1.273540878E1,4.334509850E0
4.438718437E0,1.119385481E0,-1.295100212E1,3.977584124E0
4.441192656E0,1.143340230E0,-1.309233475E1,3.728454113E0
4.443666822E0,1.270300627E0,-1.317378139E1,3.500883579E0
4.446141041E0,1.361328840E0,-1.313545322E1,3.199053288E0
4.448615208E0,1.392469883E0,-1.316180325E1,2.885245562E0
4.451089375E0,1.437984228E0,-1.317617702E1,2.523528337E0
4.453563593E0,1.543385267E0,-1.322169018E1,2.020477772E0
4.456037760E0,1.641599655E0,-1.327439117E1,1.318602681E0
4.458490416E0,1.883543253E0,-1.327678680E1,4.059253335E-1
4.460964635E0,1.996130705E0,-1.329595089E1,-4.205147922E-1
4.463438802E0,2.161418676E0,-1.334625530E1,-1.270909667E0
4.465912968E0,2.369825125E0,-1.336781502E1,-2.159632206E0
4.468387135E0,2.503972054E0,-1.332469654E1,-2.885462284E0
4.470861354E0,2.585418224E0,-1.337021065E1,-3.388512850E0
4.473335520E0,2.575836420E0,-1.342530632E1,-3.649619818E0
4.475809687E0,2.448875904E0,-1.345884323E1,-3.649619818E0
4.478283906E0,1.984153271E0,-1.322887802E1,-3.726275206E0
4.480758072E0,1.275091648E0,-1.297735119E1,-3.584941864E0
4.483232239E0,7.959958315E-1,-1.254616547E1,-3.319043636E0
4.485706458E0,3.456459045E-1,-1.222038078E1,-3.139383078E0
4.488200885E0,-9.991306067E-2,-1.191136360E1,-2.938162804E0
4.490675052E0,-5.263082385E-1,-1.154006481E1,-2.691428423E0
4.493149270E0,-8.760480881E-1,-1.124781704E1,-2.471044540E0
4.495623437E0,-1.225787997E0,-1.097473145E1,-2.221914768E0
4.498097604E0,-1.489290714E0,-1.061061954E1,-1.932061791E0
4.500571822E0,-1.755188704E0,-1.024890137E1,-1.809892416E0
4.503045989E0,-2.052227974E0,-9.927907944E0,-1.496084571E0
4.505520208E0,-2.327708244E0,-9.611704826E0,-1.160717726E0
4.507994375E0,-2.478623390E0,-9.202077866E0,-1.096039772E0
4.510468541E0,-2.584024429E0,-8.938575745E0,-8.325371146E-1
4.512942708E0,-2.706193686E0,-8.627162933E0,-6.912038922E-1
4.515416927E0,-2.797221899E0,-8.425942421E0,-7.630682588E-1
4.517867656E0,-2.897831917E0,-8.243886948E0,-6.289214492E-1
4.520341875E0,-2.933764219E0,-8.042666435E0,-5.019610524E-1
4.522816041E0,-2.799617290E0,-7.867796421E0,-3.175092340E-1
4.525290208E0,-2.416340828E0,-7.668972015E0,-9.712520242E-2
4.527764375E0,-1.999527454E0,-7.484519958E0,5.618543923E-2
4.530238593E0,-1.817471147E0,-7.391096592E0,4.011343122E-1
4.532712760E0,-1.767166138E0,-7.319231987E0,5.089309216E-1
4.535186927E0,-1.891731024E0,-7.264136314E0,8.299250603E-1
4.537661145E0,-1.994736671E0,-7.197062492E0,1.062286377E0
4.540135312E0,-1.908499360E0,-7.079684258E0,1.277879477E0
4.542609479E0,-1.771957159E0,-7.010215759E0,1.366512179E0
4.545083697E0,-1.690510869E0,-6.914396286E0,1.392862439E0
4.547582083E0,-1.515640974E0,-6.871277809E0,1.416817307E0
4.550056250E0,-1.395866871E0,-6.840136528E0,1.481495142E0
4.552530468E0,-1.427008152E0,-6.885650635E0,1.493472576E0
4.555004635E0,-1.446171999E0,-6.950328827E0,1.527009249E0
4.557478854E0,-1.556364059E0,-7.065311432E0,1.634805799E0
4.559953020E0,-1.736024857E0,-7.137175560E0,1.608455539E0
4.562427187E0,-1.968386292E0,-7.276113510E0,1.630014777E0
4.564901406E0,-2.126487732E0,-7.391096592E0,1.627619386E0
4.567375572E0,-2.270216465E0,-7.556384563E0,1.689901710E0
4.569849739E0,-2.284589529E0,-7.623457909E0,1.469517827E0
4.572323906E0,-2.215120792E0,-7.712090492E0,1.323393464E0
4.574798125E0,-2.097742081E0,-7.716881752E0,1.229969859E0
4.577250364E0,-2.006713867E0,-7.750418186E0,1.186851263E0
4.579724531E0,-1.829448462E0,-7.819887161E0,1.153314590E0
4.582198750E0,-1.609064579E0,-7.877378941E0,1.100614071E0
4.584672916E0,-1.371912241E0,-7.982779980E0,9.568853378E-1
4.587147135E0,-1.244951844E0,-8.116926193E0,9.952130318E-1
4.589621302E0,-9.047938585E-1,-8.205558777E0,8.874164820E-1
4.592095468E0,-7.275284529E-1,-8.294191360E0,8.754391670E-1
4.594569687E0,-4.855851233E-1,-8.315751076E0,8.442978859E-1
4.597043854E0,-3.155061305E-1,-8.351682663E0,8.993939161E-1
4.599518020E0,-6.637638807E-2,-8.430733681E0,7.844108343E-1
4.601992239E0,1.540076137E-1,-8.435524940E0,7.173374891E-1
4.604466406E0,2.618041635E-1,-8.500202179E0,8.490887880E-1
4.606951666E0,4.582333565E-1,-8.533740044E0,7.101510763E-1
4.609425833E0,5.468660593E-1,-8.610394478E0,7.700380087E-1
4.611900052E0,6.858038902E-1,-8.607999802E0,7.149420381E-1
4.614374218E0,8.103687763E-1,-8.596021652E0,7.388968468E-1
4.616848385E0,8.846286535E-1,-8.581648827E0,7.748290300E-1
4.619322604E0,9.972161055E-1,-8.581648827E0,7.388968468E-1
4.621796770E0,1.076266885E0,-8.605603218E0,8.490887880E-1
4.624270937E0,1.081057906E0,-8.607999802E0,9.425125122E-1
4.626745156E0,1.157713056E0,-8.622371674E0,9.353259802E-1
4.629219322E0,1.222391129E0,-8.663095474E0,9.592808485E-1
4.631693489E0,1.287068963E0,-8.737354279E0,1.002399445E0
4.634167708E0,1.318210244E0,-8.746936798E0,1.083845735E0
4.636598229E0,1.416424751E0,-8.725378036E0,1.079054713E0
4.639072395E0,1.476311684E0,-8.744542122E0,1.165292025E0
4.641546614E0,1.524221182E0,-8.809219360E0,1.208410621E0
4.644020781E0,1.545780659E0,-8.864315987E0,1.270693064E0
4.646494947E0,1.600876808E0,-8.917016029E0,1.227574348E0
4.648969166E0,1.505057573E0,-8.998462677E0,1.385676026E0
4.651443333E0,1.435588837E0,-9.099072456E0,1.474308729E0
4.653917500E0,1.382888079E0,-9.127818108E0,1.443167567E0
4.656391718E0,1.279882431E0,-9.218846321E0,1.517427444E0
4.658865885E0,1.167295098E0,-9.269151688E0,1.543777585E0
4.661340052E0,1.131362915E0,-9.350597382E0,1.606060028E0
4.663814270E0,1.136153817E0,-9.355388641E0,1.668342471E0
4.666338854E0,1.193645358E0,-9.400902748E0,1.610851049E0
4.668813020E0,1.263114214E0,-9.537445068E0,1.584500790E0
4.671287187E0,1.327792168E0,-9.609309196E0,1.481495142E0
4.673761406E0,1.409238338E0,-9.736269951E0,1.376094103E0
4.676235572E0,1.447566032E0,-9.839274406E0,1.253924608E0
4.678709791E0,1.605667830E0,-9.942280769E0,1.105404973E0
4.681183958E0,1.612854004E0,-1.013871002E1,1.011981368E0
4.683658125E0,1.723046064E0,-1.016266441E1,8.898119926E-1
4.686132291E0,1.806887627E0,-1.026806545E1,6.909872890E-1
4.688606510E0,1.888334036E0,-1.034951210E1,6.526595950E-1
4.691080677E0,2.010503531E0,-1.038065338E1,5.280947089E-1
4.693554895E0,2.199746132E0,-1.039981651E1,3.508292437E-1
4.696032708E0,2.297960997E0,-1.041418934E1,2.574056387E-1
4.698506875E0,2.343475103E0,-1.045491219E1,2.262644023E-1
4.700981093E0,2.396175385E0,-1.051480007E1,9.930403531E-2
4.703455260E0,2.554276943E0,-1.055552387E1,-8.035685122E-2
4.705929427E0,2.657282829E0,-1.057468700E1,-2.791815698E-1
4.708403645E0,2.834547997E0,-1.064415550E1,-5.067520142E-1
4.710877812E0,2.961508512E0,-1.070404243E1,-6.888083816E-1
4.713351979E0,3.059722900E0,-1.074716187E1,-9.930341840E-1
4.715826197E0,3.155542135E0,-1.081423473E1,-1.270909667E0
4.718300364E0,3.306457520E0,-1.087412167E1,-1.637417912E0
4.720774531E0,3.447790623E0,-1.100108242E1,-2.003926277E0
4.723248750E0,3.625055790E0,-1.110887909E1,-2.444694281E0
4.725723020E0,3.742434502E0,-1.119990635E1,-2.962117434E0
4.728197187E0,3.845439911E0,-1.133405399E1,-3.453190565E0
4.730671406E0,4.008332253E0,-1.146101379E1,-3.920309067E0
4.733145572E0,4.173620701E0,-1.165744400E1,-4.459291935E0
4.735619739E0,4.310163021E0,-1.182512665E1,-4.888082027E0
4.738093958E0,4.410772800E0,-1.199520588E1,-5.249799728E0
4.740568125E0,4.420354843E0,-1.215570259E1,-5.427065372E0
4.743042343E0,4.453891277E0,-1.235931873E1,-5.525279522E0
4.745516510E0,4.401190758E0,-1.248867512E1,-5.508511066E0
4.747990677E0,4.350885868E0,-1.259647083E1,-5.427065372E0
4.750464843E0,4.238298416E0,-1.270187187E1,-5.158771515E0
4.752939062E0,4.096965313E0,-1.277613163E1,-4.835381508E0
4.755413125E0,4.053846359E0,-1.277134037E1,-4.555110931E0
4.757887291E0,3.917304516E0,-1.279290104E1,-4.107156277E0
4.760361510E0,3.763994217E0,-1.283601856E1,-3.793348551E0
4.762835677E0,3.692129612E0,-1.282643700E1,-3.510681868E0
4.765309843E0,3.593914986E0,-1.281685448E1,-3.225620270E0
4.767784062E0,3.548400402E0,-1.268031311E1,-3.060332298E0
4.770258229E0,3.466954708E0,-1.257970238E1,-2.806411505E0
4.772732395E0,3.423835754E0,-1.245992851E1,-2.571654558E0
4.775206614E0,3.239383936E0,-1.238566875E1,-2.339293003E0
4.777680781E0,3.119610071E0,-1.220840359E1,-2.217123747E0
4.780154947E0,3.033372641E0,-1.199520588E1,-2.135677338E0
4.782629166E0,2.856107473E0,-1.178919506E1,-2.087767839E0
4.785102395E0,2.664469242E0,-1.161192989E1,-2.039858341E0
4.787576562E0,2.458457947E0,-1.140831375E1,-2.070999622E0
4.790050781E0,2.247656107E0,-1.131249428E1,-2.047044754E0
4.792524947E0,1.962594032E0,-1.123344326E1,-1.963202953E0
4.794999114E0,1.641599655E0,-1.120469761E1,-2.056626558E0
4.797473333E0,1.356537819E0,-1.121427917E1,-2.123700142E0
4.799947500E0,1.059498549E0,-1.136040401E1,-2.296174526E0
4.802421718E0,7.720410824E-1,-1.152329636E1,-2.408761978E0
4.804895885E0,5.899847746E-1,-1.162869740E1,-2.449485064E0
4.807370052E0,3.216910958E-1,-1.190417767E1,-2.693824053E0
4.809844270E0,1.444257498E-1,-1.217726231E1,-2.787247419E0
4.812318437E0,1.132844687E-1,-1.239046001E1,-3.122614384E0
4.814792968E0,1.013070941E-1,-1.265875340E1,-3.374139786E0
4.817267135E0,1.228664517E-1,-1.287674141E1,-3.656806231E0
4.819741354E0,2.162901163E-1,-1.317378139E1,-3.915518045E0
4.822215520E0,2.929453850E-1,-1.336781502E1,-4.217348576E0
4.824689687E0,3.648097515E-1,-1.363610840E1,-4.294003487E0
4.827163906E0,6.043576002E-1,-1.389961147E1,-4.564692497E0
4.829638072E0,9.349336624E-1,-1.411520481E1,-4.773099899E0
4.832112291E0,1.231972933E0,-1.434517097E1,-4.888082027E0
4.834586458E0,1.538594246E0,-1.460388184E1,-4.959946632E0
4.837060625E0,1.888334036E0,-1.478833389E1,-5.038997650E0
4.839534791E0,2.276401520E0,-1.491050339E1,-5.089302540E0
4.842009010E0,2.724355936E0,-1.498715878E1,-5.082116127E0
4.844483593E0,2.968694925E0,-1.503506756E1,-4.955155849E0
4.846957760E0,3.371135235E0,-1.495122623E1,-4.991088390E0
4.849431979E0,3.696920395E0,-1.479791546E1,-4.785076618E0
4.851906145E0,4.178411484E0,-1.447692204E1,-4.538342953E0
4.854380312E0,4.564083576E0,-1.420623302E1,-4.341913700E0
4.856854531E0,4.803631306E0,-1.388523865E1,-4.138297558E0
4.859328697E0,4.916218758E0,-1.356663990E1,-3.824489832E0
4.861802864E0,5.035993099E0,-1.326480961E1,-3.608896732E0
4.864277083E0,5.148580551E0,-1.294860649E1,-3.414862871E0
4.866751250E0,5.184512615E0,-1.258209801E1,-3.148964643E0
4.869225416E0,5.131812096E0,-1.202634621E1,-2.957326412E0
4.871699635E0,5.110252380E0,-1.132207680E1,-2.686637402E0
4.874165833E0,4.935382843E0,-1.075913906E1,-2.600400209E0
4.876640000E0,4.765304089E0,-1.030399799E1,-2.633936882E0
4.879114218E0,4.552105904E0,-9.932698250E0,-2.811202288E0
4.881588385E0,4.312558651E0,-9.638054848E0,-3.139383078E0
4.884062552E0,3.919700146E0,-9.297896385E0,-3.455585957E0
4.886536770E0,3.445395470E0,-9.082304001E0,-3.515472889E0
4.889010937E0,2.995045185E0,-9.029603958E0,-3.570569038E0
4.891485104E0,2.513554096E0,-9.053558350E0,-3.335812330E0
4.893959322E0,1.852401972E0,-9.211659431E0,-2.629146099E0
4.896433489E0,1.219995618E0,-9.518280983E0,-2.001530647E0
4.898907656E0,6.139395237E-1,-9.935094833E0,-1.220604658E0
4.901381875E0,9.172517061E-2,-1.034711647E1,-2.767860889E-1
4.903856197E0,-3.011332452E-1,-1.079507065E1,8.347159624E-1
4.906330364E0,-7.131555676E-1,-1.146580505E1,1.917472363E0
4.908804583E0,-1.026963234E0,-1.222756767E1,2.808590174E0
4.911278750E0,-1.338375449E0,-1.285039139E1,3.802713633E0
4.913752916E0,-1.724047542E0,-1.326960087E1,4.851933479E0
4.916227135E0,-2.037855148E0,-1.359538555E1,5.788565159E0
4.918701302E0,-2.325312614E0,-1.379900074E1,6.579073429E0
4.921175468E0,-2.519346237E0,-1.384691048E1,7.247411728E0
4.923649687E0,-2.548092127E0,-1.389242458E1,7.630688190E0
4.926123854E0,-2.631933928E0,-1.400261688E1,7.913354397E0
4.928598020E0,-2.713380098E0,-1.411759949E1,7.889400005E0
4.931072239E0,-2.893040895E0,-1.417988300E1,7.954078197E0
4.933519635E0,-3.015210629E0,-1.429965591E1,8.009174347E0
4.935993802E0,-3.211639643E0,-1.450806236E1,7.779207706E0
4.938467968E0,-3.444000959E0,-1.464700031E1,7.594756126E0
4.940942187E0,-3.568566084E0,-1.490571308E1,7.108473778E0
4.943416354E0,-3.764995337E0,-1.519077396E1,6.545536041E0
4.945890572E0,-4.009334087E0,-1.550458145E1,5.908339500E0
4.948364739E0,-4.275232315E0,-1.577527046E1,5.069921970E0
4.950838906E0,-4.651322365E0,-1.600763321E1,4.257854462E0
4.953313072E0,-5.175931931E0,-1.632623100E1,3.249358177E0
4.955787291E0,-5.875411987E0,-1.659452629E1,2.010895967E0
4.958261458E0,-6.728201866E0,-1.682449150E1,7.412922382E-1
4.960735677E0,-7.363004208E0,-1.699456978E1,-2.456448674E-1
4.963243437E0,-7.784607887E0,-1.705924797E1,-1.376310706E0
4.965717604E0,-7.870845318E0,-1.691072845E1,-2.279406071E0
4.968191822E0,-7.679206848E0,-1.651307869E1,-2.787247419E0
4.970665989E0,-7.228857040E0,-1.595014095E1,-3.127405405E0
4.973140156E0,-6.479072571E0,-1.518837833E1,-3.105846167E0
4.975614375E0,-5.655027390E0,-1.460388184E1,-3.196874380E0
4.978088541E0,-4.792655468E0,-1.402417564E1,-3.156151295E0
4.980562760E0,-4.200972557E0,-1.341332817E1,-2.947744846E0
4.983036927E0,-3.908724070E0,-1.304442596E1,-2.413552999E0
4.985511145E0,-3.525447369E0,-1.272582626E1,-1.932061791E0
4.987985260E0,-3.139775276E0,-1.250065136E1,-1.359542370E0
4.990459479E0,-2.861899853E0,-1.228745461E1,-1.005011559E0
4.992899531E0,-2.564860344E0,-1.199520588E1,-6.624581218E-1
4.995373697E0,-2.126487732E0,-1.181794071E1,-8.109778166E-1
4.997847864E0,-1.714465618E0,-1.184189606E1,-1.141553879E0
5.000322083E0,-1.484499693E0,-1.188022232E1,-1.115203619E0
5.002796250E0,-1.295256853E0,-1.196166897E1,-1.028966427E0
5.005270468E0,-9.311441183E-1,-1.209102440E1,-1.417033911E0
5.007744635E0,-6.532686353E-1,-1.210060692E1,-1.838638067E0
5.010218802E0,-3.346699774E-1,-1.212935257E1,-2.159632206E0
5.012692968E0,-2.086228132E-2,-1.211258507E1,-2.382411718E0
5.015167187E0,2.210810781E-1,-1.224673080E1,-2.466253519E0
5.017641354E0,5.109339952E-1,-1.237369156E1,-2.528536081E0
5.020115572E0,1.042730093E0,-1.252460670E1,-2.605191231E0
5.022589114E0,1.703882217E0,-1.248388386E1,-2.480626345E0
5.025063281E0,2.084763288E0,-1.244076443E1,-2.569258928E0
5.027537447E0,2.226096392E0,-1.251741982E1,-2.526140451E0
5.030011666E0,2.281192541E0,-1.258209801E1,-2.454276085E0
5.032485833E0,2.178186893E0,-1.257012081E1,-2.097349882E0
5.034960052E0,2.079972506E0,-1.248627853E1,-1.936852694E0
5.037434218E0,1.864379168E0,-1.224912643E1,-2.116513729E0
5.039908437E0,1.404447556E0,-1.194969177E1,-2.193168879E0
5.042382604E0,9.085834026E-1,-1.170056152E1,-2.135677338E0
5.044856770E0,6.211259365E-1,-1.148975945E1,-1.491293788E0
5.047330937E0,9.493064880E-1,-1.124542046E1,-5.522661209E-1
5.049805156E0,8.990014791E-1,-1.091244984E1,1.759593338E-1
5.052279687E0,7.840185165E-1,-1.057229137E1,5.544449687E-1
