"Time (s)","Acceleration x (m/s^2)","Acceleration y (m/s^2)","Acceleration z (m/s^2)"
0.000000000E0,-6.870285869E-1,-1.158979225E1,-2.200604439E0
1.431563000E-3,-1.227035999E0,-1.214865589E1,-2.075459957E0
3.931563000E-3,-1.526603341E0,-1.247641945E1,-1.885423541E0
6.431563000E-3,-1.641369820E0,-1.261385822E1,-1.747308850E0
8.931563000E-3,-1.569389105E0,-1.278042984E1,-1.588210344E0
1.143156300E-2,-1.564652205E0,-1.279155445E1,-1.330839634E0
1.393156300E-2,-1.580058217E0,-1.272534657E1,-1.049047232E0
1.643156300E-2,-1.430341363E0,-1.263834858E1,-7.709850669E-1
1.893156300E-2,-1.224644184E0,-1.259826469E1,-5.497807860E-1
2.143156300E-2,-7.213497162E-1,-1.249394608E1,-2.038700134E-1
2.393156300E-2,-3.698401749E-1,-1.243451691E1,6.341901608E-3
2.643156300E-2,-3.844661266E-2,-1.240526199E1,2.229694277E-1
2.893156300E-2,2.894020677E-1,-1.239871025E1,3.862798512E-1
3.143156300E-2,6.585643888E-1,-1.234176922E1,5.211932659E-1
3.393156300E-2,1.042351604E0,-1.228640652E1,6.712669730E-1
3.643156300E-2,1.435090423E0,-1.227074909E1,7.766087651E-1
3.893156300E-2,1.800694823E0,-1.223280716E1,8.849830627E-1
4.143156300E-2,2.121175289E0,-1.217090702E1,1.145590544E0
4.393156300E-2,2.632528543E0,-1.213204384E1,1.242878079E0
4.643156300E-2,2.867654562E0,-1.236271286E1,1.255265951E0
4.893156300E-2,3.073035240E0,-1.252980423E1,1.323128343E0
5.143156300E-2,3.266989470E0,-1.272904682E1,1.453459263E0
5.393156300E-2,3.436023235E0,-1.280505943E1,1.773527741E0
5.643156300E-2,3.676853895E0,-1.311400127E1,1.750666738E0
5.893156300E-2,3.662781000E0,-1.346791935E1,1.812756419E0
6.143156300E-2,3.588888407E0,-1.377827930E1,1.861961007E0
6.393156300E-2,3.490317822E0,-1.405273247E1,1.872446418E0
6.643156300E-2,3.320480824E0,-1.425826454E1,2.038613081E0
6.893156300E-2,3.149282217E0,-1.441852474E1,2.144786596E0
7.143156300E-2,2.811750412E0,-1.474108124E1,1.959579587E0
7.393156300E-2,2.384030581E0,-1.501084518E1,1.779347062E0
7.643156300E-2,1.942878127E0,-1.518670177E1,1.608896017E0
7.893156300E-2,1.560767412E0,-1.532229137E1,1.440433264E0
8.143156300E-2,1.185465455E0,-1.536802292E1,1.213413358E0
8.393156300E-2,9.893701077E-1,-1.518648720E1,1.242149591E0
8.643156300E-2,5.827354193E-1,-1.540409374E1,7.115303874E-1
8.893156300E-2,2.524451911E-1,-1.550309753E1,2.577209175E-1
9.143156300E-2,4.872700945E-2,-1.551330757E1,-1.997840852E-1
9.393156300E-2,-5.575724319E-2,-1.549490643E1,-5.886483788E-1
9.643156300E-2,5.856872350E-2,-1.538558292E1,-8.958798647E-1
9.893156300E-2,3.520184457E-1,-1.514280224E1,-9.863646626E-1
1.014315630E-1,6.486626267E-1,-1.505230141E1,-1.206958055E0
1.039315630E-1,9.087200165E-1,-1.495448971E1,-1.585477948E0
1.064315630E-1,1.325791359E0,-1.470216370E1,-1.853743434E0
1.089315630E-1,1.839994311E0,-1.436660385E1,-2.134005547E0
1.114315630E-1,2.334873676E0,-1.378140450E1,-2.292365074E0
1.139315630E-1,2.832559586E0,-1.298750973E1,-2.380069494E0
1.164315630E-1,3.229830027E0,-1.195403385E1,-2.260277987E0
1.189315630E-1,3.915686131E0,-1.112875462E1,-2.716009140E0
1.214315630E-1,4.170406818E0,-1.002221775E1,-2.933612108E0
1.239315630E-1,4.415971756E0,-9.142312050E0,-3.176882029E0
1.264315630E-1,4.542821407E0,-8.460683823E0,-3.400905132E0
1.289315630E-1,4.697302341E0,-7.891615868E0,-3.694919348E0
1.314315630E-1,4.708397388E0,-7.537702084E0,-3.848317385E0
1.339315630E-1,5.056348801E0,-7.284555435E0,-4.192864895E0
1.364315630E-1,5.252498627E0,-7.007963657E0,-4.461825371E0
1.389315630E-1,5.536703110E0,-6.944114685E0,-4.669031143E0
1.414315630E-1,5.801595211E0,-7.039380074E0,-4.854557037E0
1.439315630E-1,6.029885769E0,-7.179830551E0,-4.996267319E0
1.464315630E-1,6.123965740E0,-7.418961525E0,-5.116968632E0
1.489315630E-1,6.192568302E0,-7.633196354E0,-5.250236511E0
1.514315630E-1,6.113983631E0,-7.890667439E0,-5.320515156E0
1.539315630E-1,6.021237850E0,-8.165303230E0,-5.375241280E0
1.564315630E-1,5.929375172E0,-8.501349449E0,-5.414932728E0
1.589315630E-1,5.821024418E0,-8.883559227E0,-5.390740395E0
1.614315630E-1,5.751863956E0,-9.277873993E0,-5.278181553E0
1.639315630E-1,5.690982819E0,-9.681470871E0,-5.090943336E0
1.664315630E-1,5.632903099E0,-1.012530422E1,-4.671094418E0
1.689315630E-1,5.628870964E0,-1.056746387E1,-4.181332588E0
1.714315630E-1,5.671634674E0,-1.098348331E1,-3.520204306E0
1.739315630E-1,5.715075016E0,-1.132689476E1,-2.762257099E0
1.764315630E-1,5.742612839E0,-1.169447899E1,-1.922701716E0
1.789315630E-1,5.728261471E0,-1.199406910E1,-1.115533471E0
1.814315630E-1,5.747424603E0,-1.231990433E1,-2.927256227E-1
1.839315630E-1,5.725395679E0,-1.261128616E1,4.668338597E-1
1.864315630E-1,5.659382820E0,-1.296368217E1,1.256154060E0
1.889315630E-1,5.590780258E0,-1.329173183E1,1.957336783E0
1.914315630E-1,5.499451637E0,-1.362691498E1,2.489797354E0
1.939315630E-1,5.361648560E0,-1.395146370E1,2.960976839E0
1.964315630E-1,5.213452339E0,-1.425203991E1,3.279861212E0
1.989315630E-1,5.028435230E0,-1.452093029E1,3.491489410E0
2.014315630E-1,4.782333851E0,-1.476908875E1,3.568515539E0
2.039315630E-1,4.478096008E0,-1.496625328E1,3.534125090E0
2.064315630E-1,4.175727844E0,-1.509467888E1,3.468860626E0
2.089315630E-1,3.873442650E0,-1.513302135E1,3.342126846E0
2.114315630E-1,3.626838684E0,-1.509248829E1,3.186639071E0
2.139315630E-1,3.391881704E0,-1.493712997E1,2.985175610E0
2.164315630E-1,2.997226954E0,-1.468359089E1,2.947838306E0
2.189315630E-1,2.416864634E0,-1.447847462E1,3.243010759E0
2.214315630E-1,1.940521240E0,-1.418670082E1,3.555953503E0
2.239315630E-1,1.520857453E0,-1.389175892E1,4.011136055E0
2.264315630E-1,1.082483292E0,-1.360137558E1,4.453938961E0
2.289315630E-1,8.027216792E-1,-1.325354290E1,4.710464954E0
2.314315630E-1,6.668382883E-1,-1.294235706E1,4.586433411E0
2.339315630E-1,6.115465760E-1,-1.273037624E1,4.195130825E0
2.364315630E-1,4.153045714E-1,-1.259766293E1,3.835285425E0
2.389315630E-1,2.704431415E-1,-1.252435970E1,3.347247362E0
2.414315630E-1,3.732171953E-1,-1.243504047E1,2.805240393E0
2.439315630E-1,5.468926430E-1,-1.235486126E1,2.334586620E0
2.464315630E-1,7.057146430E-1,-1.230315495E1,1.984948754E0
2.489315630E-1,7.773481607E-1,-1.230634308E1,1.681827784E0
2.514315630E-1,8.609633446E-1,-1.233167362E1,1.423343182E0
2.539315630E-1,9.034609199E-1,-1.236148453E1,1.269716859E0
2.564315630E-1,7.845472693E-1,-1.245665646E1,1.152539611E0
2.589315630E-1,6.419501901E-1,-1.247904015E1,9.813957214E-1
2.614315630E-1,5.602384210E-1,-1.249614906E1,7.596936226E-1
2.639315630E-1,4.856395423E-1,-1.250022984E1,5.012986660E-1
2.664315630E-1,3.786501884E-1,-1.249032497E1,3.870494664E-1
2.689315630E-1,2.242188454E-1,-1.247412968E1,3.394688070E-1
2.714315630E-1,1.009105667E-1,-1.244272041E1,2.824503779E-1
2.739315630E-1,-1.177406777E-2,-1.240284252E1,2.115610242E-1
2.764315630E-1,-2.496401668E-1,-1.238234901E1,8.444195241E-2
2.789315630E-1,-5.760095716E-1,-1.232898712E1,1.249451749E-2
2.814315630E-1,-7.325099111E-1,-1.221147346E1,1.607782394E-2
2.839315630E-1,-9.138256311E-1,-1.205087852E1,1.069352552E-1
2.864315630E-1,-1.177136779E0,-1.185123348E1,2.970849276E-1
2.889315630E-1,-1.389761567E0,-1.160999584E1,5.230354071E-1
2.914315630E-1,-1.435695052E0,-1.134250736E1,7.392844558E-1
2.939315630E-1,-1.394672871E0,-1.107001781E1,9.848654270E-1
2.964315630E-1,-1.261422634E0,-1.081158257E1,1.141063690E0
2.989315630E-1,-1.087397337E0,-1.053865814E1,1.315326810E0
3.014315630E-1,-8.450544477E-1,-1.026979446E1,1.446020842E0
3.039315630E-1,-5.702834129E-1,-1.000761986E1,1.593719721E0
3.064315630E-1,-2.279821634E-1,-9.732709885E0,1.680115700E0
3.089315630E-1,9.078273177E-2,-9.499495506E0,1.770745277E0
3.114315630E-1,3.957473040E-1,-9.251383781E0,1.829621553E0
3.139315630E-1,7.567673922E-1,-9.019319534E0,1.902368069E0
3.164315630E-1,1.163655162E0,-8.796905518E0,1.942289472E0
3.189315630E-1,1.487610459E0,-8.578426361E0,1.884944439E0
3.214315630E-1,1.775195956E0,-8.341967583E0,1.828126431E0
3.239315630E-1,2.027323008E0,-8.105971336E0,1.750777483E0
3.264315630E-1,2.309758663E0,-7.830062866E0,1.636913180E0
3.289315630E-1,2.551854610E0,-7.573970318E0,1.536583185E0
3.314315630E-1,2.752793312E0,-7.311407089E0,1.446626902E0
3.339315630E-1,2.919904709E0,-6.981498241E0,1.423151493E0
3.364315630E-1,3.032098532E0,-6.622376442E0,1.418795228E0
3.389315630E-1,3.088340044E0,-6.298764706E0,1.396819949E0
3.414315630E-1,3.193391323E0,-5.959197998E0,1.371473670E0
3.439315630E-1,3.289863586E0,-5.629573822E0,1.338569760E0
3.464315630E-1,3.387844086E0,-5.360511780E0,1.329937339E0
3.489315630E-1,3.445906162E0,-5.082683563E0,1.284314036E0
3.514315630E-1,3.436333179E0,-4.819517612E0,1.237705946E0
3.539315630E-1,3.436604500E0,-4.667569160E0,1.231185555E0
3.564315630E-1,3.382965088E0,-4.484390259E0,1.270393372E0
3.589315630E-1,3.401490211E0,-4.334069252E0,1.295978189E0
3.614315630E-1,3.399509430E0,-4.206363678E0,1.336594701E0
3.639315630E-1,3.261356115E0,-4.006398201E0,1.280493021E0
3.664315630E-1,3.323244095E0,-3.897035599E0,1.271464944E0
3.689315630E-1,3.562502861E0,-3.804708719E0,1.309440613E0
3.714315630E-1,3.778587103E0,-3.726198435E0,1.231449962E0
3.739315630E-1,3.987222433E0,-3.648039341E0,1.126267076E0
3.764315630E-1,4.161905289E0,-3.536151648E0,1.036124229E0
3.789315630E-1,4.337862015E0,-3.545600891E0,9.947838783E-1
3.814315630E-1,4.481584072E0,-3.481949091E0,9.478335977E-1
3.839315630E-1,4.617064953E0,-3.419525623E0,9.023449421E-1
3.864315630E-1,4.676017284E0,-3.387187243E0,8.564981818E-1
3.889315630E-1,4.734547138E0,-3.383654356E0,7.865912318E-1
3.914315630E-1,4.764747143E0,-3.358189106E0,7.301185131E-1
3.939315630E-1,4.780607224E0,-3.395227671E0,6.993827820E-1
3.964315630E-1,4.769670963E0,-3.406239510E0,6.640414000E-1
3.989315630E-1,4.786090374E0,-3.471181870E0,6.110569835E-1
4.014315630E-1,4.779120445E0,-3.563764334E0,5.609512329E-1
4.039315630E-1,4.739258289E0,-3.667361736E0,5.609248281E-1
4.064315630E-1,4.691017628E0,-3.782283068E0,5.772589445E-1
4.089315630E-1,4.714570999E0,-3.917694092E0,6.246532798E-1
4.114315630E-1,4.683026791E0,-4.048390865E0,6.540253758E-1
4.139315630E-1,4.639103889E0,-4.200662613E0,7.072702646E-1
4.164315630E-1,4.570071697E0,-4.327706337E0,7.177984118E-1
4.189315630E-1,4.547665119E0,-4.468228817E0,7.873719931E-1
4.214315630E-1,4.454541206E0,-4.602609634E0,8.681595922E-1
4.239315630E-1,4.368887424E0,-4.700499058E0,9.538133144E-1
4.264315630E-1,4.271127701E0,-4.804199219E0,1.075426340E0
4.289315630E-1,4.224559784E0,-4.934598446E0,1.161003828E0
4.314315630E-1,4.109713554E0,-5.002571106E0,1.235459328E0
4.339315630E-1,4.038936615E0,-5.044359207E0,1.326078415E0
4.364315630E-1,4.024047852E0,-5.079371929E0,1.428741574E0
4.389315630E-1,3.856798649E0,-5.046486855E0,1.472792983E0
4.414315630E-1,3.694940567E0,-4.990414619E0,1.528116822E0
4.439315630E-1,3.526498079E0,-4.913577080E0,1.546832800E0
4.464315630E-1,3.433918953E0,-4.740966797E0,1.561805129E0
4.489315630E-1,3.326167822E0,-4.609863758E0,1.543501496E0
4.514315630E-1,3.205595970E0,-4.416647911E0,1.486821175E0
4.539315630E-1,3.055371046E0,-4.217951775E0,1.453004360E0
4.564315630E-1,2.933335781E0,-3.967198133E0,1.397737980E0
4.589315630E-1,2.853318691E0,-3.769689560E0,1.290283680E0
4.614315630E-1,2.832509995E0,-3.532739878E0,1.163724303E0
4.639315630E-1,2.870855093E0,-3.336822987E0,1.057397008E0
4.664315630E-1,2.881667614E0,-3.103861094E0,9.476064444E-1
4.689315630E-1,2.843676329E0,-2.966721773E0,7.887094021E-1
4.714315630E-1,2.850727320E0,-2.815220594E0,6.306015253E-1
4.739315630E-1,2.895673752E0,-2.700462818E0,4.338831902E-1
4.764315630E-1,2.915171623E0,-2.630454302E0,2.090427727E-1
4.789315630E-1,2.950778723E0,-2.598501921E0,-1.443484914E-3
4.814315630E-1,2.968919516E0,-2.611598969E0,-2.314351946E-1
4.839315630E-1,2.937838316E0,-2.696156740E0,-4.556046128E-1
4.864315630E-1,2.934073210E0,-2.837454796E0,-6.795300841E-1
4.889315630E-1,2.840179205E0,-3.037892580E0,-8.951084614E-1
4.914315630E-1,2.820059299E0,-3.281613111E0,-1.082035303E0
4.939315630E-1,2.848854065E0,-3.528401852E0,-1.344445467E0
4.964315630E-1,2.835159540E0,-3.813794851E0,-1.631840467E0
4.989315630E-1,2.813144207E0,-4.141464233E0,-1.905452371E0
5.014315630E-1,2.805261135E0,-4.487489700E0,-2.164550066E0
5.039315630E-1,2.733111620E0,-4.863375664E0,-2.452283144E0
5.064315630E-1,2.728933573E0,-5.245303631E0,-2.721531630E0
5.089315630E-1,2.594786644E0,-5.649211884E0,-3.011432409E0
5.114315630E-1,2.463549614E0,-6.054945946E0,-3.352096319E0
5.139315630E-1,2.284074068E0,-6.413023949E0,-3.756587744E0
5.164315630E-1,1.918976545E0,-6.695360661E0,-4.173909664E0
5.189315630E-1,1.981419206E0,-7.162196159E0,-4.522200584E0
5.214315630E-1,2.073669195E0,-7.682120800E0,-4.832054615E0
5.239315630E-1,2.116245508E0,-8.132559776E0,-5.273268223E0
5.264315630E-1,1.990471840E0,-8.571232796E0,-5.810960770E0
5.289315630E-1,1.808524251E0,-9.065707207E0,-6.333574772E0
5.314315630E-1,1.655441046E0,-9.543046951E0,-6.901901722E0
5.339315630E-1,1.434788108E0,-1.005602074E1,-7.534877777E0
5.364315630E-1,1.308852196E0,-1.054880714E1,-8.170317650E0
5.389315630E-1,1.241870165E0,-1.105818176E1,-8.838655472E0
5.414315630E-1,1.422505498E0,-1.158718586E1,-9.477658272E0
5.439315630E-1,1.551952720E0,-1.212712288E1,-1.006728745E1
5.464315630E-1,1.613669276E0,-1.264735985E1,-1.065301895E1
5.489315630E-1,1.820754886E0,-1.315729046E1,-1.133194733E1
5.514315630E-1,1.854644179E0,-1.371550846E1,-1.192490387E1
5.539315630E-1,1.666358709E0,-1.423449516E1,-1.246649933E1
5.564315630E-1,1.398079991E0,-1.476293564E1,-1.298712444E1
5.589315630E-1,1.181455851E0,-1.527853394E1,-1.340794849E1
5.614315630E-1,8.307207823E-1,-1.577459908E1,-1.368740940E1
5.639315630E-1,3.322449028E-1,-1.621246529E1,-1.388615417E1
5.664315630E-1,-1.158474088E-1,-1.663051224E1,-1.396146774E1
5.689315630E-1,-5.789194107E-1,-1.702491951E1,-1.403600693E1
5.714315630E-1,-1.121470451E0,-1.733590508E1,-1.401373196E1
5.739315630E-1,-1.600336313E0,-1.758855629E1,-1.386897087E1
5.764315630E-1,-2.084789276E0,-1.778600883E1,-1.352317524E1
5.789315630E-1,-2.429987907E0,-1.787469864E1,-1.295130825E1
5.814315630E-1,-2.490617752E0,-1.785823822E1,-1.227344418E1
5.839315630E-1,-2.488486290E0,-1.774470901E1,-1.141894913E1
5.864315630E-1,-2.301024199E0,-1.747410011E1,-1.049393940E1
5.889315630E-1,-2.169556141E0,-1.705471802E1,-9.608825684E0
5.914315630E-1,-1.877951622E0,-1.644863510E1,-8.757565498E0
5.939315630E-1,-1.543510437E0,-1.571995544E1,-8.062202454E0
5.964315630E-1,-1.209291935E0,-1.486799145E1,-7.545674324E0
5.989315630E-1,-1.017955661E0,-1.391593456E1,-7.249006748E0
6.014315630E-1,-8.476047516E-1,-1.290176201E1,-7.087145329E0
6.039315630E-1,-6.141866446E-1,-1.187837887E1,-6.938372135E0
6.064315630E-1,-2.070971876E-1,-1.079973221E1,-6.675740242E0
6.089315630E-1,3.107246459E-1,-9.824323654E0,-6.259400845E0
6.114315630E-1,9.478976727E-1,-8.879471779E0,-5.635996819E0
6.139315630E-1,1.704105973E0,-8.044784546E0,-4.839593410E0
6.164315630E-1,2.332364798E0,-7.261565208E0,-3.987553120E0
6.189315630E-1,3.003135920E0,-6.642123699E0,-3.145747185E0
6.214315630E-1,3.599017143E0,-6.162722111E0,-2.391392946E0
6.239315630E-1,4.213649750E0,-5.814483166E0,-1.625695825E0
6.264315630E-1,4.870266914E0,-5.575943470E0,-8.447026014E-1
6.289315630E-1,5.479075909E0,-5.527200699E0,6.336993724E-2
6.314315630E-1,5.904352665E0,-5.562494278E0,1.030528069E0
6.339315630E-1,6.067209721E0,-5.693239212E0,1.968921185E0
6.364315630E-1,6.068971634E0,-5.891566753E0,3.023099184E0
6.389315630E-1,6.164484978E0,-6.152002335E0,3.799061298E0
6.414315630E-1,6.299420357E0,-6.492165089E0,4.211848736E0
6.439315630E-1,6.507593155E0,-6.906470776E0,4.343739033E0
6.464315630E-1,6.676392078E0,-7.397569180E0,4.290031910E0
6.489315630E-1,6.809787273E0,-7.959006786E0,4.033548832E0
6.514315630E-1,6.959513187E0,-8.623212814E0,3.554538727E0
6.539315630E-1,7.071275234E0,-9.371466637E0,2.836967707E0
6.564315630E-1,7.069591522E0,-1.017157650E1,1.905811548E0
6.589315630E-1,7.050421715E0,-1.112026310E1,8.663576841E-1
6.614315630E-1,7.012539387E0,-1.210937214E1,-1.167941391E-1
6.639315630E-1,6.914220810E0,-1.317214870E1,-9.721590281E-1
6.664315630E-1,6.777488232E0,-1.431575394E1,-1.678208232E0
6.689315630E-1,6.642119408E0,-1.552076054E1,-2.115988970E0
6.714315630E-1,6.370293617E0,-1.670356941E1,-2.344019890E0
6.739315630E-1,6.021862030E0,-1.778456116E1,-2.401791334E0
6.764315630E-1,5.707433701E0,-1.869365883E1,-2.386326551E0
6.789315630E-1,5.125888824E0,-1.921248627E1,-2.200981379E0
6.814315630E-1,4.664116859E0,-1.964476967E1,-2.429630041E0
6.839315630E-1,4.588766575E0,-1.986882591E1,-2.797603369E0
6.864315630E-1,4.470876694E0,-1.989159966E1,-3.481368065E0
6.889315630E-1,4.374969006E0,-1.971913528E1,-4.369859695E0
6.914315630E-1,4.364392281E0,-1.939834595E1,-5.529563904E0
6.939315630E-1,4.392936230E0,-1.891289902E1,-6.517225266E0
6.964315630E-1,4.402474880E0,-1.815709496E1,-7.146464348E0
6.989315630E-1,4.396973610E0,-1.722261238E1,-7.154470921E0
7.014315630E-1,4.322920322E0,-1.600018883E1,-6.283458710E0
7.039315630E-1,4.154909611E0,-1.462443256E1,-4.676357746E0
7.064315630E-1,3.659517527E0,-1.307536221E1,-2.604686975E0
7.089315630E-1,3.150718689E0,-1.133863449E1,-2.603637278E-1
7.114315630E-1,2.457746983E0,-9.621499062E0,1.961651683E0
7.139315630E-1,2.011594296E0,-8.045047760E0,3.742120504E0
7.164315630E-1,1.858716249E0,-6.567376614E0,5.185213566E0
7.189315630E-1,1.952826381E0,-5.318679810E0,6.300292015E0
7.214315630E-1,2.076024771E0,-4.346702576E0,7.174997330E0
7.239315630E-1,2.271549702E0,-3.484923363E0,7.844657898E0
7.264315630E-1,2.460390091E0,-2.715912580E0,8.257231712E0
7.289315630E-1,2.663043022E0,-2.055046082E0,8.562621117E0
7.314315630E-1,3.058051586E0,-1.518663287E0,8.684025764E0
7.339315630E-1,3.535657406E0,-1.168941617E0,8.788271904E0
7.364315630E-1,4.193007946E0,-9.294564724E-1,9.030875206E0
7.389315630E-1,4.716486454E0,-7.295530438E-1,9.374160767E0
7.414315630E-1,5.308442116E0,-6.265101433E-1,9.841759682E0
7.439315630E-1,5.841811657E0,-5.782898664E-1,1.008529663E1
7.464315630E-1,6.343313217E0,-6.217683554E-1,1.003910828E1
7.489315630E-1,6.853125095E0,-7.378494740E-1,9.829408646E0
7.514315630E-1,7.269796848E0,-8.992494941E-1,9.384041786E0
7.539315630E-1,7.576796532E0,-1.110748053E0,8.982845306E0
7.564315630E-1,7.799065113E0,-1.388734698E0,8.590634346E0
7.589315630E-1,7.944249153E0,-1.746548295E0,8.081735611E0
7.614315630E-1,7.890871048E0,-2.185391188E0,7.330278873E0
7.639315630E-1,7.724391937E0,-2.684737206E0,6.530539513E0
7.664315630E-1,7.510602951E0,-3.238976717E0,5.826771259E0
7.689315630E-1,7.252810955E0,-3.866541386E0,5.305609226E0
7.714315630E-1,7.097742558E0,-4.499642372E0,4.905989170E0
7.739315630E-1,6.978624344E0,-5.138500214E0,4.657128334E0
7.764315630E-1,6.850948334E0,-5.786577225E0,4.411930084E0
7.789315630E-1,6.685197353E0,-6.461290359E0,4.209064960E0
7.814315630E-1,6.563289642E0,-7.159876347E0,3.898469925E0
7.839315630E-1,6.536009789E0,-7.871230125E0,3.439634562E0
7.864315630E-1,6.691164494E0,-8.599101067E0,2.821496010E0
7.889315630E-1,6.868608952E0,-9.319100380E0,2.005846024E0
7.914315630E-1,6.828940868E0,-1.006271076E1,1.024527788E0
7.939315630E-1,6.512912750E0,-1.084159374E1,3.042969329E-4
7.964315630E-1,5.882886410E0,-1.154232121E1,-8.068630695E-1
7.989315630E-1,5.043684006E0,-1.225966930E1,-1.429823279E0
8.014315630E-1,3.986707687E0,-1.290513325E1,-1.773208976E0
8.039315630E-1,2.876707792E0,-1.355281162E1,-1.846317172E0
8.064315630E-1,1.817046165E0,-1.416857910E1,-1.777497530E0
8.089315630E-1,9.070851207E-1,-1.473891640E1,-1.622002482E0
8.114315630E-1,1.686822921E-1,-1.518389130E1,-1.379663229E0
8.139315630E-1,-4.515303671E-1,-1.553728008E1,-1.114055037E0
8.164315630E-1,-1.052398205E0,-1.576796436E1,-7.904503345E-1
8.189315630E-1,-1.775715113E0,-1.602386284E1,-4.656594396E-1
8.214315630E-1,-2.342895269E0,-1.619419670E1,-1.446680725E-1
8.239315630E-1,-2.811598301E0,-1.627584457E1,9.895301610E-2
8.264315630E-1,-3.267254591E0,-1.627535057E1,3.340560198E-1
8.289315630E-1,-3.713092327E0,-1.620876884E1,4.539848566E-1
8.314315630E-1,-4.021722317E0,-1.603095055E1,5.195835233E-1
8.339315630E-1,-4.414498329E0,-1.582455254E1,5.950005651E-1
8.364315630E-1,-4.710350990E0,-1.554684353E1,6.979948282E-1
8.389315630E-1,-4.729990482E0,-1.509899044E1,6.970165372E-1
8.414315630E-1,-4.164361000E0,-1.444421482E1,4.971259534E-1
8.439315630E-1,-3.429380178E0,-1.368001842E1,2.421391755E-1
8.464315630E-1,-2.696639061E0,-1.287539291E1,-4.028247669E-2
8.489315630E-1,-2.064903975E0,-1.211631584E1,-3.409238160E-1
8.514315630E-1,-1.515989423E0,-1.135442829E1,-5.747493505E-1
8.539315630E-1,-1.056049228E0,-1.068281174E1,-6.767016649E-1
8.564315630E-1,-6.813829541E-1,-1.005875015E1,-6.212260127E-1
8.589315630E-1,-3.114628792E-1,-9.490196228E0,-4.815944135E-1
8.614315630E-1,-5.096122995E-2,-8.966243744E0,-3.328874111E-1
8.639315630E-1,3.160037398E-1,-8.468031883E0,-2.094932646E-1
8.664315630E-1,5.623456240E-1,-7.999505997E0,-1.537246536E-2
8.689315630E-1,8.982191682E-1,-7.572615147E0,1.606733948E-1
8.714315630E-1,1.109331250E0,-7.184519768E0,4.149058759E-1
8.739315630E-1,1.346832275E0,-6.870820522E0,6.579935551E-1
8.764315630E-1,1.696791768E0,-6.560704708E0,7.913349867E-1
8.789315630E-1,2.091689348E0,-6.292906761E0,8.997566700E-1
8.814315630E-1,2.292082071E0,-6.090127468E0,9.902131557E-1
8.839315630E-1,2.366007090E0,-5.923119068E0,1.157443643E0
8.864315630E-1,2.444122553E0,-5.875198841E0,1.256583095E0
8.889315630E-1,2.447015285E0,-5.837229252E0,1.312139511E0
8.914315630E-1,2.525417566E0,-5.871966362E0,1.396679282E0
8.939315630E-1,2.527173758E0,-5.956684113E0,1.451493979E0
8.964315630E-1,2.519119263E0,-6.078732014E0,1.465398669E0
8.989315630E-1,2.512616873E0,-6.306580544E0,1.431357384E0
9.014315630E-1,2.503358841E0,-6.563118935E0,1.353834391E0
9.039315630E-1,2.539110661E0,-6.830837250E0,1.186341405E0
9.064315630E-1,2.553727865E0,-7.156825066E0,1.053381205E0
9.089315630E-1,2.501959801E0,-7.496940613E0,9.425321817E-1
9.114315630E-1,2.453567505E0,-7.837107658E0,8.875595331E-1
9.139315630E-1,2.355860949E0,-8.207152367E0,8.726131320E-1
9.164315630E-1,2.227386951E0,-8.567493439E0,8.249687552E-1
9.189315630E-1,2.055673599E0,-8.842881203E0,8.420431018E-1
9.214315630E-1,1.841739655E0,-9.116608620E0,8.626091480E-1
9.239315630E-1,1.650835872E0,-9.412511826E0,7.848818302E-1
9.264315630E-1,1.504347086E0,-9.684095383E0,7.012775540E-1
9.289315630E-1,1.258822083E0,-9.954160690E0,6.074655056E-1
9.314315630E-1,1.111860871E0,-1.017858124E1,4.558941424E-1
9.339315630E-1,9.401447177E-1,-1.037369156E1,3.541694582E-1
9.364315630E-1,7.326807976E-1,-1.052760506E1,2.435402274E-1
9.389315630E-1,5.819659233E-1,-1.061963463E1,1.396893710E-1
9.414315630E-1,4.648421109E-1,-1.074253178E1,-2.872923156E-3
9.439315630E-1,3.676132560E-1,-1.080074406E1,-1.238582507E-1
9.464315630E-1,2.625007629E-1,-1.080807400E1,-2.426886111E-1
9.489315630E-1,2.124097347E-1,-1.076089954E1,-3.822156489E-1
9.514315630E-1,2.018634975E-1,-1.075146484E1,-5.276653767E-1
9.539315630E-1,2.426509559E-1,-1.065991879E1,-6.009073853E-1
9.564315630E-1,3.233115375E-1,-1.059194279E1,-7.060407996E-1
9.589315630E-1,4.078006148E-1,-1.051204681E1,-7.597499490E-1
9.614315630E-1,5.247061849E-1,-1.037702656E1,-8.734273911E-1
9.639315630E-1,6.255245209E-1,-1.025886440E1,-9.735282660E-1
9.664315630E-1,7.060374618E-1,-1.011681652E1,-9.627834558E-1
9.689315630E-1,7.737622261E-1,-9.988203049E0,-9.825765491E-1
9.714315630E-1,8.576332927E-1,-9.824904442E0,-9.403996468E-1
9.739315630E-1,9.184460640E-1,-9.676244736E0,-8.908898830E-1
9.764315630E-1,1.026608706E0,-9.539402962E0,-7.965357900E-1
9.789315630E-1,1.107308149E0,-9.386330605E0,-6.492882371E-1
9.814315630E-1,1.221302867E0,-9.224497795E0,-4.539542496E-1
9.839315630E-1,1.327185750E0,-9.108585358E0,-2.062712014E-1
9.864315630E-1,1.363159776E0,-8.968941689E0,5.421862379E-2
9.889315630E-1,1.376795530E0,-8.831172943E0,3.159181774E-1
9.914315630E-1,1.414381266E0,-8.703554153E0,6.293466091E-1
9.939315630E-1,1.412653446E0,-8.553352356E0,9.306637645E-1
9.964315630E-1,1.481664658E0,-8.446301460E0,1.177121758E0
9.989315630E-1,1.555638194E0,-8.364608765E0,1.421375036E0
1.001431563E0,1.603827000E0,-8.246670723E0,1.647929907E0
1.003931563E0,1.638685703E0,-8.147924423E0,1.801306009E0
1.006431563E0,1.682664275E0,-8.074052811E0,1.919055939E0
1.008931563E0,1.739077806E0,-8.045095444E0,2.002167702E0
1.011431563E0,1.826008201E0,-7.977235317E0,2.076165199E0
1.013931563E0,1.898964047E0,-7.950669765E0,2.106029034E0
1.016431563E0,1.962384820E0,-7.935714245E0,2.108755112E0
1.018931563E0,2.036616564E0,-7.950160027E0,2.126690626E0
1.021431563E0,2.141203165E0,-7.963746548E0,2.150607586E0
1.023931563E0,2.210396767E0,-8.032779694E0,2.120757341E0
1.026431563E0,2.302628994E0,-8.107494354E0,2.048168421E0
1.028931563E0,2.430856943E0,-8.215757370E0,1.971619010E0
1.031431563E0,2.597131014E0,-8.355910301E0,1.880138755E0
1.033931563E0,2.813007116E0,-8.521263123E0,1.754222870E0
1.036431563E0,3.053904295E0,-8.665060043E0,1.603376746E0
1.038931563E0,3.294359684E0,-8.802655220E0,1.488869071E0
1.041431563E0,3.479039907E0,-8.933733940E0,1.405869007E0
1.043931563E0,3.548137665E0,-9.082884789E0,1.250944495E0
1.046431563E0,3.641849518E0,-9.239408493E0,1.120675921E0
1.048931563E0,3.711276531E0,-9.380045891E0,9.425966740E-1
1.051431563E0,3.756047726E0,-9.531799316E0,7.187970281E-1
1.053931563E0,3.939243793E0,-9.829248428E0,3.401940465E-1
1.056431563E0,3.941292763E0,-9.855753899E0,2.557693422E-1
1.058931563E0,3.844105005E0,-9.864832878E0,2.191161662E-1
1.061431563E0,3.789081812E0,-9.865098953E0,1.175976992E-1
1.063931563E0,3.720777512E0,-9.828839302E0,5.211853981E-2
1.066431563E0,3.637187719E0,-9.852240562E0,-4.390386865E-2
1.068931563E0,3.576798439E0,-9.861140251E0,-1.133124605E-1
1.071431563E0,3.540327072E0,-9.836628914E0,-1.551670432E-1
1.073931563E0,3.443054438E0,-9.826978683E0,-1.887714565E-1
1.076431563E0,3.318068266E0,-9.829460144E0,-1.791832298E-1
1.078931563E0,3.184267521E0,-9.856634140E0,-1.892126948E-1
1.081431563E0,3.021796703E0,-9.870102882E0,-1.769171953E-1
1.083931563E0,2.838740110E0,-9.855647087E0,-1.476264000E-1
1.086431563E0,2.620376825E0,-9.854775429E0,-7.310906798E-2
1.088931563E0,2.428735256E0,-9.870818138E0,-3.109405935E-2
1.091431563E0,2.192873240E0,-9.912667274E0,-1.405897830E-2
1.093931563E0,1.955227971E0,-9.944020271E0,-2.053834498E-2
1.096431563E0,1.711451650E0,-1.003892231E1,-6.673572212E-2
1.098931563E0,1.457688928E0,-1.017319775E1,-1.887190044E-1
1.101431563E0,1.226136446E0,-1.026604080E1,-2.877233922E-1
1.103931563E0,9.808398485E-1,-1.046453857E1,-3.610039353E-1
1.106431563E0,7.740442753E-1,-1.070710468E1,-4.884634316E-1
1.108931563E0,5.897914767E-1,-1.096324921E1,-5.600554943E-1
1.111431563E0,4.328656495E-1,-1.127454281E1,-6.713094115E-1
1.113931563E0,2.974554598E-1,-1.154615784E1,-7.469708920E-1
1.116431563E0,1.713380665E-1,-1.182225418E1,-7.863116264E-1
1.118931563E0,4.274052009E-2,-1.210873985E1,-8.636076450E-1
1.121431563E0,-6.325722486E-2,-1.234194279E1,-8.786189556E-1
1.123931563E0,-1.843087971E-1,-1.258036137E1,-9.489687085E-1
1.126431563E0,-2.335009277E-1,-1.270743656E1,-9.560360312E-1
1.128931563E0,-2.667258978E-1,-1.277601147E1,-9.700530767E-1
1.131431563E0,-2.839482725E-1,-1.282184410E1,-9.834326506E-1
1.133931563E0,-2.387287915E-1,-1.284149456E1,-1.059579968E0
1.136431563E0,-1.673966646E-1,-1.279064369E1,-1.073898196E0
1.138931563E0,-3.078568541E-2,-1.272291183E1,-1.094482660E0
1.141431563E0,1.478306949E-1,-1.264280510E1,-1.092092991E0
1.143931563E0,3.712298572E-1,-1.252966404E1,-1.121686697E0
1.146431563E0,6.319483519E-1,-1.245687294E1,-1.123521090E0
1.148931563E0,9.290886521E-1,-1.234758568E1,-1.064914823E0
1.151431563E0,1.182893991E0,-1.227063274E1,-1.070766091E0
1.153931563E0,1.468154192E0,-1.215721035E1,-1.000382543E0
1.156431563E0,1.743597865E0,-1.203740978E1,-9.439611435E-1
1.158931563E0,1.993189812E0,-1.193204498E1,-8.886072636E-1
1.161431563E0,2.233458519E0,-1.185395050E1,-8.315567970E-1
1.163931563E0,2.440283298E0,-1.177751446E1,-7.357790470E-1
1.166431563E0,2.679374218E0,-1.170163536E1,-5.873332024E-1
1.168931563E0,2.911631584E0,-1.160650826E1,-4.544149041E-1
1.171431563E0,3.149472713E0,-1.154820347E1,-3.468048275E-1
1.173931563E0,3.250106096E0,-1.148705864E1,-1.496651471E-1
1.176431563E0,3.278985977E0,-1.133161545E1,4.568118975E-2
1.178931563E0,3.332648993E0,-1.127881527E1,6.962172687E-2
1.181431563E0,3.286263704E0,-1.129280281E1,1.030782759E-1
1.183931563E0,3.162856340E0,-1.128026009E1,2.129926234E-1
1.186431563E0,3.081370354E0,-1.121883202E1,3.330080211E-1
1.188931563E0,2.948471546E0,-1.128969765E1,3.476817608E-1
1.191431563E0,2.814502716E0,-1.133582020E1,4.477504194E-1
1.193931563E0,2.686393023E0,-1.142684937E1,5.210372210E-1
1.196431563E0,2.534532547E0,-1.146832943E1,7.017623186E-1
1.198931563E0,2.420492887E0,-1.159543896E1,8.231732845E-1
1.201431563E0,2.252162457E0,-1.187761497E1,7.475955486E-1
1.203931563E0,2.117680073E0,-1.218638992E1,6.769753098E-1
1.206431563E0,1.982061625E0,-1.245678520E1,6.639170051E-1
1.208931563E0,1.866062641E0,-1.270464230E1,6.336184740E-1
1.211431563E0,1.738730907E0,-1.290807533E1,5.984603763E-1
1.213931563E0,1.567425013E0,-1.311477280E1,6.379086971E-1
1.216431563E0,1.404271483E0,-1.318781567E1,6.999797821E-1
1.218931563E0,1.116546869E0,-1.344082737E1,4.138632417E-1
1.221431563E0,7.769197822E-1,-1.363677406E1,1.964031160E-1
1.223931563E0,5.029703379E-1,-1.368755245E1,2.802213281E-2
1.226431563E0,2.448326498E-1,-1.372526932E1,-1.791014671E-1
1.228931563E0,-7.014916837E-2,-1.370884800E1,-3.507747948E-1
1.231431563E0,-3.294960260E-1,-1.368620777E1,-5.349305868E-1
1.233931563E0,-5.203222632E-1,-1.371634293E1,-7.183640599E-1
1.236431563E0,-7.188085914E-1,-1.370813370E1,-8.367103338E-1
1.238931563E0,-7.878959179E-1,-1.358044910E1,-8.384978771E-1
1.241431563E0,-9.653880596E-1,-1.370108223E1,-1.121765494E0
1.243931563E0,-1.074311376E0,-1.387296581E1,-1.454138160E0
1.246431563E0,-1.142505169E0,-1.395460701E1,-1.592762589E0
1.248931563E0,-1.086887121E0,-1.403579617E1,-1.736098886E0
1.251431563E0,-9.544305801E-1,-1.411181450E1,-1.804101825E0
1.253931563E0,-7.438933849E-1,-1.414817715E1,-1.792227030E0
1.256431563E0,-4.253349006E-1,-1.416742611E1,-1.801356792E0
1.258931563E0,-9.588783979E-2,-1.399922466E1,-1.608250976E0
1.261431563E0,3.416585028E-1,-1.392423344E1,-1.653829694E0
1.263931563E0,5.407459736E-1,-1.375636101E1,-1.647047400E0
1.266431563E0,7.320584655E-1,-1.337950802E1,-1.515383840E0
1.268931563E0,9.608674049E-1,-1.281866646E1,-1.271422625E0
1.271431563E0,1.269845486E0,-1.211678886E1,-1.045567393E0
1.273931563E0,1.683263183E0,-1.128840065E1,-8.166769743E-1
1.276431563E0,2.308606148E0,-1.044060993E1,-7.488334775E-1
1.278931563E0,2.952453613E0,-9.633891106E0,-8.468363285E-1
1.281431563E0,3.576411724E0,-8.974608421E0,-9.474554658E-1
1.283931563E0,4.347250462E0,-8.339894295E0,-1.555945277E0
1.286431563E0,4.885493755E0,-7.744117737E0,-2.115942717E0
1.288931563E0,5.351366520E0,-7.349974155E0,-2.716014862E0
1.291431563E0,5.775791168E0,-7.064759254E0,-3.359459639E0
1.293931563E0,6.123172760E0,-6.948127270E0,-4.038093567E0
1.296431563E0,6.395827770E0,-6.991540909E0,-4.613219261E0
1.298931563E0,6.690750599E0,-7.149259090E0,-5.100193977E0
1.301431563E0,6.954357147E0,-7.395563602E0,-5.464000702E0
1.303931563E0,7.124478817E0,-7.649960041E0,-5.746112823E0
1.306431563E0,7.235739231E0,-8.042049408E0,-5.873755455E0
1.308931563E0,7.304099083E0,-8.510708809E0,-5.904738426E0
1.311431563E0,7.326064587E0,-8.986552238E0,-5.739610672E0
1.313931563E0,7.321148396E0,-9.458828926E0,-5.322221756E0
1.316431563E0,7.365569592E0,-9.914515495E0,-4.691739082E0
1.318931563E0,7.429149628E0,-1.036176014E1,-3.875871897E0
1.321431563E0,7.514879704E0,-1.075823116E1,-3.000869989E0
1.323931563E0,7.622105598E0,-1.111936569E1,-2.072581768E0
1.326431563E0,7.718418121E0,-1.147407246E1,-1.176375747E0
1.328931563E0,7.837800026E0,-1.177222824E1,-3.199772537E-1
1.331431563E0,7.931585312E0,-1.210554695E1,4.954647124E-1
1.333931563E0,7.940409660E0,-1.244295788E1,1.174194455E0
1.336431563E0,7.930435658E0,-1.278542423E1,1.784668803E0
1.338931563E0,7.844138145E0,-1.312380028E1,2.239691496E0
1.341431563E0,7.696243286E0,-1.342099285E1,2.574470758E0
1.343931563E0,7.483600140E0,-1.374389076E1,2.745697021E0
1.346431563E0,7.120007515E0,-1.396520519E1,2.834822893E0
1.348931563E0,6.624646187E0,-1.417763710E1,2.856118441E0
1.351431563E0,6.133725643E0,-1.432022190E1,2.798420191E0
1.353931563E0,5.818094254E0,-1.438237000E1,2.578477144E0
1.356431563E0,5.701880932E0,-1.448539925E1,2.283470631E0
1.358931563E0,5.524027824E0,-1.454827976E1,2.035413980E0
1.361431563E0,5.276914597E0,-1.456708622E1,1.956290007E0
1.363931563E0,5.010044575E0,-1.447808552E1,2.033499241E0
1.366431563E0,4.660661697E0,-1.432377815E1,2.107756615E0
1.368931563E0,4.330450058E0,-1.419653988E1,1.975727201E0
1.371431563E0,3.965135336E0,-1.407471275E1,2.038286448E0
1.373931563E0,3.680975914E0,-1.389514828E1,2.396014452E0
1.376431563E0,3.321617603E0,-1.374128723E1,2.688917875E0
1.378931563E0,3.091638565E0,-1.353863907E1,2.606842756E0
1.381431563E0,2.893960476E0,-1.334693718E1,2.407245636E0
1.383931563E0,2.632722139E0,-1.318740463E1,2.402712107E0
1.386431563E0,2.192522287E0,-1.308382320E1,2.462707996E0
1.388931563E0,1.693534732E0,-1.303905296E1,2.393688202E0
1.391431563E0,1.388145328E0,-1.294614601E1,2.290144682E0
1.393931563E0,1.263463140E0,-1.283371258E1,2.190379381E0
1.396431563E0,1.191152692E0,-1.274193287E1,2.211935282E0
1.398931563E0,1.030583024E0,-1.265555000E1,2.207192659E0
1.401431563E0,8.619191647E-1,-1.255443096E1,2.108349085E0
1.403931563E0,7.653705478E-1,-1.247930717E1,1.945294619E0
1.406431563E0,7.376318574E-1,-1.234290123E1,1.739050150E0
1.408931563E0,6.771143675E-1,-1.223111439E1,1.596670270E0
1.411431563E0,6.838433743E-1,-1.214539528E1,1.459615946E0
1.413931563E0,6.971060634E-1,-1.207258892E1,1.266557932E0
1.416431563E0,6.355266571E-1,-1.198655987E1,9.338964820E-1
1.418931563E0,6.513324976E-1,-1.181348991E1,6.072595716E-1
1.421431563E0,6.836220622E-1,-1.157819366E1,4.350366890E-1
1.423931563E0,5.876295567E-1,-1.140210533E1,3.357006013E-1
1.426431563E0,4.424428940E-1,-1.124569702E1,3.555631042E-1
1.428931563E0,3.262003064E-1,-1.111419773E1,4.922310114E-1
1.431431563E0,2.134018540E-1,-1.096352482E1,6.671071649E-1
1.433931563E0,1.155491471E-1,-1.083200073E1,8.496637344E-1
1.436431563E0,-3.142217919E-2,-1.065644741E1,9.425697327E-1
1.438931563E0,-1.706604958E-1,-1.049252510E1,1.036634922E0
1.441431563E0,-2.886190712E-1,-1.033302784E1,1.168738246E0
1.443931563E0,-3.229764998E-1,-1.016356659E1,1.351590753E0
1.446431563E0,-4.407883286E-1,-9.970778465E0,1.523165226E0
1.448931563E0,-4.126543105E-1,-9.761191368E0,1.682461262E0
1.451431563E0,-3.291284740E-1,-9.562615395E0,1.788509250E0
1.453931563E0,-2.177469730E-1,-9.357494354E0,1.779314876E0
1.456431563E0,-1.176539063E-1,-9.190032959E0,1.761400700E0
1.458931563E0,9.451163560E-2,-9.013057709E0,1.740997910E0
1.461431563E0,3.116348386E-1,-8.878580093E0,1.696889877E0
1.463931563E0,5.305351615E-1,-8.719429970E0,1.614686608E0
1.466431563E0,7.335803509E-1,-8.532401085E0,1.534203172E0
1.468931563E0,1.000148654E0,-8.336411476E0,1.422468424E0
1.471431563E0,1.217548847E0,-8.137800217E0,1.328973293E0
1.473931563E0,1.407394767E0,-7.970031261E0,1.221669555E0
1.476431563E0,1.558083415E0,-7.753202915E0,1.102225065E0
1.478931563E0,1.743616581E0,-7.556327343E0,1.038195133E0
1.481431563E0,1.862744093E0,-7.319936275E0,9.646158218E-1
1.483931563E0,2.018540859E0,-7.036967278E0,9.643609524E-1
1.486431563E0,2.066262484E0,-6.832270145E0,9.118832946E-1
1.488931563E0,2.118006468E0,-6.561202526E0,9.377431870E-1
1.491431563E0,2.172600269E0,-6.288928032E0,8.954970241E-1
1.493931563E0,2.223325729E0,-6.037940979E0,7.960881591E-1
1.496431563E0,2.288761377E0,-5.759000778E0,6.973121762E-1
1.498931563E0,2.295024633E0,-5.530757904E0,6.225690842E-1
1.501431563E0,2.281235695E0,-5.323888779E0,5.888461471E-1
1.503931563E0,2.298075676E0,-5.141241074E0,5.853192806E-1
1.506431563E0,2.339686871E0,-4.926281929E0,5.759974718E-1
1.508931563E0,2.445231438E0,-4.737122536E0,5.479431152E-1
1.511431563E0,2.654355288E0,-4.574527740E0,5.331273675E-1
1.513931563E0,2.891328573E0,-4.414216042E0,5.147092938E-1
1.516431563E0,3.121759892E0,-4.290201664E0,4.947142005E-1
1.518931563E0,3.383183718E0,-4.176476002E0,5.501078367E-1
1.521431563E0,3.602078199E0,-4.095064640E0,5.817930698E-1
1.523931563E0,3.856091499E0,-4.019074440E0,5.672804117E-1
1.526431563E0,4.122455120E0,-3.992806435E0,5.276543498E-1
1.528931563E0,4.410237789E0,-3.918010712E0,5.552663207E-1
1.531431563E0,4.699129105E0,-3.836149931E0,5.956867337E-1
1.533931563E0,4.948263168E0,-3.813532114E0,6.257260442E-1
1.536431563E0,5.137717724E0,-3.752779007E0,6.180934310E-1
1.538931563E0,5.313174248E0,-3.763360739E0,6.060579419E-1
1.541431563E0,5.347358227E0,-3.761751413E0,6.361114383E-1
1.543931563E0,5.296849728E0,-3.666712999E0,9.295918345E-1
1.546431563E0,5.221575260E0,-3.506257772E0,1.275492668E0
1.548931563E0,5.394543648E0,-3.616885185E0,8.770964742E-1
1.551431563E0,5.644591331E0,-3.888758421E0,3.421633840E-1
1.553931563E0,5.770011425E0,-4.038009644E0,1.666122079E-1
1.556431563E0,5.753883839E0,-4.150599003E0,2.721297741E-1
1.558931563E0,5.736485481E0,-4.250896454E0,3.748602867E-1
1.561431563E0,5.642767429E0,-4.309915066E0,4.348556399E-1
1.563931563E0,5.479859829E0,-4.375856400E0,5.103304982E-1
1.566431563E0,5.261820316E0,-4.412388802E0,5.651609898E-1
1.568931563E0,5.002581120E0,-4.425359249E0,6.708472371E-1
1.571431563E0,4.820502281E0,-4.448326111E0,7.210457921E-1
1.573931563E0,4.663854122E0,-4.523618221E0,7.510976195E-1
1.576431563E0,4.539273262E0,-4.559670448E0,7.286671400E-1
1.578931563E0,4.339999676E0,-4.608475685E0,6.439681649E-1
1.581431563E0,4.187326431E0,-4.592279911E0,5.793486238E-1
1.583931563E0,4.028641701E0,-4.580002308E0,5.124535561E-1
1.586431563E0,3.844203711E0,-4.544102669E0,4.422518015E-1
1.588931563E0,3.698308945E0,-4.496248245E0,4.170011282E-1
1.591431563E0,3.516322136E0,-4.472334862E0,4.228112996E-1
1.593931563E0,3.095914364E0,-4.308363914E0,3.475233912E-1
1.596431563E0,3.270649433E0,-4.298968792E0,5.210075378E-1
1.598931563E0,3.444455385E0,-4.280109882E0,5.896198750E-1
1.601431563E0,3.440191746E0,-4.225667477E0,5.859991908E-1
1.603931563E0,3.414265633E0,-4.155080795E0,5.847843885E-1
1.606431563E0,3.297005892E0,-4.021575451E0,5.158934593E-1
1.608931563E0,3.225734472E0,-3.868479013E0,4.372024536E-1
1.611431563E0,3.158802509E0,-3.724764585E0,3.167007565E-1
1.613931563E0,3.061220646E0,-3.603899240E0,1.741715372E-1
1.616431563E0,2.974725962E0,-3.490440607E0,6.307677180E-2
1.618931563E0,2.978934288E0,-3.393481493E0,-5.866582319E-2
1.621431563E0,2.896465540E0,-3.332612276E0,-1.548994184E-1
1.623931563E0,2.831757307E0,-3.278616905E0,-2.406853437E-1
1.626431563E0,2.762885094E0,-3.258426189E0,-3.622593284E-1
1.628931563E0,2.718321800E0,-3.273534775E0,-4.914673269E-1
1.631431563E0,2.620682716E0,-3.290786982E0,-6.279721260E-1
1.633931563E0,2.470795393E0,-3.333061457E0,-7.787121534E-1
1.636431563E0,2.403429747E0,-3.393989086E0,-9.496273994E-1
1.638931563E0,2.296205044E0,-3.520838022E0,-1.197601318E0
1.641431563E0,2.172160387E0,-3.658716440E0,-1.357909918E0
1.643931563E0,2.031100512E0,-3.816077471E0,-1.553046227E0
1.646431563E0,1.915433526E0,-4.022462845E0,-1.800108314E0
1.648931563E0,1.745003700E0,-4.231849670E0,-2.025082111E0
1.651431563E0,1.530835152E0,-4.410958767E0,-2.331555367E0
1.653931563E0,1.745044708E0,-4.780575752E0,-2.480573416E0
1.656431563E0,1.890779853E0,-5.164054871E0,-2.645480394E0
1.658931563E0,1.840497971E0,-5.436614990E0,-2.956912756E0
1.661431563E0,1.870938063E0,-5.807722092E0,-3.228222609E0
1.663931563E0,1.998334646E0,-6.202709198E0,-3.550637245E0
1.666431563E0,1.840256095E0,-6.482386112E0,-3.907045364E0
1.668931563E0,1.801770806E0,-6.794365406E0,-4.343089104E0
1.671431563E0,1.925765514E0,-7.222955227E0,-4.655528545E0
1.673931563E0,1.945087433E0,-7.636151791E0,-5.078355789E0
1.676431563E0,1.909794688E0,-8.000668526E0,-5.602257729E0
1.678931563E0,1.760534525E0,-8.352493286E0,-6.109320641E0
1.681431563E0,1.449543715E0,-8.613373756E0,-6.714335918E0
1.683931563E0,1.424542665E0,-9.030360222E0,-7.178682804E0
1.686431563E0,1.583281517E0,-9.478945732E0,-7.692373276E0
1.688931563E0,1.756034255E0,-9.901033401E0,-8.208057404E0
1.691431563E0,1.728602648E0,-1.030269337E1,-8.733616829E0
1.693931563E0,1.765098572E0,-1.074316597E1,-9.200360298E0
1.696431563E0,1.686217546E0,-1.119566154E1,-9.758433342E0
1.698931563E0,1.556356907E0,-1.161296844E1,-1.026645947E1
1.701431563E0,1.322620153E0,-1.204457855E1,-1.068491936E1
1.703931563E0,1.171140432E0,-1.248329449E1,-1.100128460E1
1.706431563E0,9.688799977E-1,-1.286496067E1,-1.116248131E1
1.708931563E0,4.548654854E-1,-1.313302135E1,-1.135017967E1
1.711431563E0,2.012575865E-1,-1.374235344E1,-1.150200367E1
1.713931563E0,6.387190521E-2,-1.430355549E1,-1.152423763E1
1.716431563E0,-7.960869372E-2,-1.480377579E1,-1.160280323E1
1.718931563E0,-3.527143300E-1,-1.532895279E1,-1.174387741E1
1.721431563E0,-6.801800132E-1,-1.584859085E1,-1.196547890E1
1.723931563E0,-8.292697072E-1,-1.637675858E1,-1.222028828E1
1.726431563E0,-9.387043715E-1,-1.692420959E1,-1.239865589E1
1.728931563E0,-1.318122387E0,-1.717837143E1,-1.232084942E1
1.731431563E0,-1.212318659E0,-1.782488251E1,-1.195862579E1
1.733931563E0,-9.586534500E-1,-1.830424881E1,-1.124784851E1
1.736431563E0,-7.744244337E-1,-1.860604095E1,-1.051584911E1
1.738931563E0,-6.307535172E-1,-1.873086548E1,-9.785755157E0
1.741431563E0,-3.706943989E-1,-1.865090752E1,-9.140460968E0
1.743931563E0,-3.199095279E-2,-1.839962769E1,-8.650971413E0
1.746431563E0,4.384952188E-1,-1.799490166E1,-8.286813736E0
1.748931563E0,1.050633550E0,-1.733174896E1,-8.111661911E0
1.751431563E0,1.801175117E0,-1.661194038E1,-8.053255081E0
1.753931563E0,2.728700876E0,-1.609104347E1,-7.916883945E0
1.756431563E0,3.329970360E0,-1.548939610E1,-7.962198257E0
1.758931563E0,3.848563194E0,-1.492492104E1,-7.959550381E0
1.761431563E0,4.583066940E0,-1.439508629E1,-7.821463108E0
1.763931563E0,5.413494587E0,-1.393360996E1,-7.508574009E0
1.766431563E0,6.184082508E0,-1.355041409E1,-7.076632500E0
1.768931563E0,6.802734852E0,-1.304399204E1,-6.397945881E0
1.771431563E0,7.703011036E0,-1.298503780E1,-5.834057808E0
1.773931563E0,8.733063698E0,-1.299276543E1,-4.810674667E0
1.776431563E0,9.465178490E0,-1.294335175E1,-3.892278433E0
1.778931563E0,9.996361732E0,-1.294183636E1,-3.105294466E0
1.781431563E0,1.041415977E1,-1.299687004E1,-2.502701998E0
1.783931563E0,1.061974239E1,-1.306173134E1,-2.141809464E0
1.786431563E0,1.050555325E1,-1.310903549E1,-2.015635252E0
1.788931563E0,1.016626835E1,-1.321053886E1,-2.114839315E0
1.791431563E0,9.656572342E0,-1.326255131E1,-2.407436848E0
1.793931563E0,9.122510910E0,-1.333316898E1,-2.787304640E0
1.796431563E0,8.488748550E0,-1.342560387E1,-3.233783960E0
1.798931563E0,7.531006336E0,-1.356537437E1,-3.517338037E0
1.801431563E0,6.524452209E0,-1.365291977E1,-3.711191893E0
1.803931563E0,5.580661297E0,-1.371910477E1,-3.827015638E0
1.806431563E0,4.842060089E0,-1.376890087E1,-3.796756506E0
1.808931563E0,4.194717407E0,-1.379625797E1,-3.574126959E0
1.811431563E0,3.499976635E0,-1.364818192E1,-3.092671633E0
1.813931563E0,2.943948746E0,-1.332820606E1,-2.234523296E0
1.816431563E0,2.603305340E0,-1.276174450E1,-1.016136646E0
1.818931563E0,2.419872761E0,-1.192993069E1,4.667987525E-1
1.821431563E0,2.218465805E0,-1.092456341E1,2.113101006E0
1.823931563E0,2.063108921E0,-9.734669685E0,3.667298079E0
1.826431563E0,1.942711711E0,-8.474617004E0,5.080386162E0
1.828931563E0,1.769617558E0,-7.131384373E0,6.260380268E0
1.831431563E0,1.588995576E0,-5.943338871E0,7.048893452E0
1.833931563E0,1.560783386E0,-4.960044861E0,7.565041542E0
1.836431563E0,1.793358207E0,-4.070526123E0,7.676961899E0
1.838931563E0,2.240052223E0,-3.368538857E0,7.438175678E0
1.841431563E0,2.606539249E0,-2.834809780E0,7.114322662E0
1.843931563E0,2.812860012E0,-2.422445059E0,6.875622749E0
1.846431563E0,2.865611315E0,-2.049835443E0,6.765471935E0
1.848931563E0,2.931447029E0,-1.797085524E0,6.879493237E0
1.851431563E0,2.963053465E0,-1.609872699E0,7.089385509E0
1.853931563E0,2.956574202E0,-1.496311545E0,7.337692738E0
1.856431563E0,2.875549078E0,-1.417206764E0,7.676559448E0
1.858931563E0,2.874402761E0,-1.386435390E0,8.026281357E0
1.861431563E0,3.050002813E0,-1.458933473E0,8.303420067E0
1.863931563E0,3.397698641E0,-1.591973186E0,8.474258423E0
1.866431563E0,3.886762142E0,-1.801638365E0,8.563022614E0
1.868931563E0,4.387961388E0,-2.069891691E0,8.570475578E0
1.871431563E0,4.919346333E0,-2.470368147E0,8.421894073E0
1.873931563E0,5.527823925E0,-2.919446230E0,8.234339714E0
1.876431563E0,6.235332966E0,-3.419668674E0,7.997988224E0
1.878931563E0,6.702275753E0,-3.969237566E0,7.663000107E0
1.881431563E0,7.072464943E0,-4.535067558E0,7.305575371E0
1.883931563E0,7.157746792E0,-5.133293152E0,6.888377190E0
1.886431563E0,7.123470306E0,-5.778650761E0,6.499545097E0
1.888931563E0,6.963561535E0,-6.363503933E0,6.104503155E0
1.891431563E0,6.597594261E0,-7.028675079E0,5.676214695E0
1.893931563E0,6.102031708E0,-7.695130348E0,5.260076523E0
1.896431563E0,5.480691910E0,-8.362115860E0,4.895960331E0
1.898931563E0,4.881627560E0,-9.030360222E0,4.601747990E0
1.901431563E0,4.338215351E0,-9.697240829E0,4.315124512E0
1.903931563E0,3.899392843E0,-1.038963604E1,4.072191238E0
1.906431563E0,3.505999565E0,-1.104807472E1,3.836346626E0
1.908931563E0,3.168893576E0,-1.169830704E1,3.599453688E0
1.911431563E0,3.044532061E0,-1.229706573E1,3.269824028E0
1.913931563E0,2.888074160E0,-1.276696491E1,2.775371313E0
1.916431563E0,2.840924263E0,-1.320145893E1,2.106179476E0
1.918931563E0,2.838365078E0,-1.358494186E1,1.371220589E0
1.921431563E0,2.973752737E0,-1.386005878E1,4.286648631E-1
1.923931563E0,3.131222486E0,-1.410558414E1,-5.791376829E-1
1.926431563E0,3.161183357E0,-1.425865078E1,-1.513609886E0
1.928931563E0,3.049349546E0,-1.434075737E1,-2.310286999E0
1.931431563E0,2.822741985E0,-1.437912178E1,-2.919567108E0
1.933931563E0,2.503137112E0,-1.430259132E1,-3.348974466E0
1.936431563E0,2.092088699E0,-1.416966438E1,-3.561691046E0
1.938931563E0,1.718628168E0,-1.400081348E1,-3.518737793E0
1.941431563E0,1.171150923E0,-1.377896118E1,-3.239727736E0
1.943931563E0,4.967761338E-1,-1.352920818E1,-2.765944719E0
1.946431563E0,-1.357541084E-1,-1.328304005E1,-2.157118082E0
1.948931563E0,-6.047217846E-1,-1.300440121E1,-1.493291736E0
1.951431563E0,-7.983840704E-1,-1.275568199E1,-7.763123512E-1
1.953931563E0,-6.834423542E-1,-1.249168015E1,-2.124644965E-1
1.956431563E0,-3.630216122E-1,-1.227040291E1,2.529255152E-1
1.958931563E0,-3.753184527E-2,-1.204769230E1,6.271061301E-1
1.961431563E0,1.449989825E-1,-1.184549904E1,9.249681234E-1
1.963931563E0,1.939633638E-1,-1.160788631E1,1.164953351E0
1.966431563E0,1.177138761E-1,-1.136918259E1,1.378157854E0
1.968931563E0,1.670103073E-1,-1.113725948E1,1.497668624E0
1.971431563E0,5.111678243E-1,-1.081861019E1,1.455335736E0
1.973931563E0,8.130038381E-1,-1.049022102E1,1.264402866E0
1.976431563E0,9.673114419E-1,-1.012358570E1,1.128445148E0
1.978931563E0,9.873453975E-1,-9.825244904E0,1.016677737E0
1.981431563E0,1.004958749E0,-9.481206894E0,9.469344020E-1
1.983931563E0,1.040193200E0,-9.268675804E0,8.803867698E-1
1.986431563E0,9.784461856E-1,-9.011801720E0,8.049429059E-1
1.988931563E0,9.045035839E-1,-8.798591614E0,7.317044139E-1
1.991431563E0,8.299406767E-1,-8.607290268E0,6.392837167E-1
1.993931563E0,7.962898016E-1,-8.413509369E0,5.498993993E-1
1.996431563E0,8.409230113E-1,-8.234571457E0,4.611092210E-1
1.998931563E0,9.309984446E-1,-8.084343910E0,3.869644105E-1
2.001431563E0,1.076118827E0,-7.944674015E0,2.513471246E-1
2.003931563E0,1.300171852E0,-7.791389942E0,1.277011782E-1
2.006431563E0,1.504497886E0,-7.668303490E0,6.920246035E-2
2.008931563E0,1.778545380E0,-7.654233456E0,2.625301294E-2
2.011431563E0,1.996645570E0,-7.576817513E0,-8.596529812E-2
2.013931563E0,2.201753616E0,-7.545601845E0,-1.589055508E-1
2.016431563E0,2.396009684E0,-7.503789425E0,-2.048998475E-1
2.018931563E0,2.512620211E0,-7.513334274E0,-2.939378321E-1
2.021431563E0,2.616765976E0,-7.473748207E0,-3.490490913E-1
2.023931563E0,2.648222923E0,-7.507187843E0,-3.755829632E-1
2.026431563E0,2.675275564E0,-7.522946358E0,-4.406806231E-1
2.028931563E0,2.730316877E0,-7.551398277E0,-5.281881094E-1
2.031431563E0,2.703509569E0,-7.595354557E0,-5.286080241E-1
2.033931563E0,2.593469858E0,-7.713411808E0,-5.362254381E-1
2.036431563E0,2.500112295E0,-7.841412067E0,-4.901621640E-1
2.038931563E0,2.385056019E0,-7.987878799E0,-4.643867314E-1
2.041431563E0,2.259747982E0,-8.161010742E0,-4.640238285E-1
2.043931563E0,2.129699469E0,-8.384107590E0,-4.223101437E-1
2.046431563E0,2.067145109E0,-8.642260551E0,-3.914947510E-1
2.048931563E0,2.013340712E0,-8.853167534E0,-3.126815856E-1
2.051431563E0,1.926538944E0,-9.058982849E0,-2.323862612E-1
2.053931563E0,1.844317675E0,-9.257348061E0,-7.834289968E-2
2.056431563E0,1.715080738E0,-9.420310020E0,1.009184495E-1
2.058931563E0,1.568229556E0,-9.576032639E0,2.759256363E-1
2.061431563E0,1.415175080E0,-9.758408546E0,4.035296142E-1
2.063931563E0,1.213467836E0,-9.855278969E0,4.976333082E-1
2.066431563E0,1.039734840E0,-9.959167480E0,5.888352990E-1
2.068931563E0,8.452297449E-1,-1.008348179E1,6.313766837E-1
2.071431563E0,5.646194816E-1,-1.013057613E1,7.077424526E-1
2.073931563E0,3.485659063E-1,-1.016885948E1,7.457752228E-1
2.076431563E0,1.365478337E-1,-1.019091988E1,7.650165558E-1
2.078931563E0,-3.141675889E-2,-1.019393635E1,8.034356833E-1
2.081431563E0,-2.361386716E-1,-1.015416908E1,7.846550345E-1
2.083931563E0,-3.249396384E-1,-1.013213444E1,7.479137778E-1
2.086431563E0,-3.840476274E-1,-1.007603741E1,6.581966877E-1
2.088931563E0,-4.107664824E-1,-1.003266430E1,5.378395319E-1
2.091431563E0,-4.606380165E-1,-9.952925682E0,4.520096779E-1
2.093931563E0,-4.724267721E-1,-9.919891357E0,3.493301868E-1
2.096431563E0,-4.416349232E-1,-9.852040291E0,2.545760274E-1
2.098931563E0,-4.093563855E-1,-9.787826538E0,1.320826411E-1
2.101431563E0,-3.251097798E-1,-9.650616646E0,2.362713683E-3
2.103931563E0,-2.238845229E-1,-9.597021103E0,-1.362736076E-1
2.106431563E0,-1.105017364E-1,-9.553547859E0,-2.794893682E-1
2.108931563E0,-3.038459457E-2,-9.475424767E0,-4.221962392E-1
2.111431563E0,1.246366426E-1,-9.386090279E0,-5.689075589E-1
2.113931563E0,2.447701395E-1,-9.332001686E0,-7.183626294E-1
2.116431563E0,4.408940375E-1,-9.253571510E0,-8.646073341E-1
2.118931563E0,6.235629320E-1,-9.235428810E0,-9.596787691E-1
2.121431563E0,7.679861188E-1,-9.147208214E0,-1.026616454E0
2.123931563E0,9.553622603E-1,-9.076416969E0,-1.036595583E0
2.126431563E0,1.104819417E0,-9.035970688E0,-1.019135237E0
2.128931563E0,1.273907781E0,-8.943951607E0,-9.186327457E-1
2.131431563E0,1.443573117E0,-8.821378708E0,-7.451079488E-1
2.133931563E0,1.579652190E0,-8.702987671E0,-5.128000379E-1
2.136431563E0,1.690008879E0,-8.596708298E0,-2.679337561E-1
2.138931563E0,1.824518323E0,-8.509515762E0,6.163161993E-2
2.141431563E0,1.968112946E0,-8.419708252E0,4.554642141E-1
2.143931563E0,2.073933125E0,-8.326307297E0,8.719046712E-1
2.146431563E0,2.158737898E0,-8.283458710E0,1.248541832E0
2.148931563E0,2.329913855E0,-8.229991913E0,1.560588121E0
2.151431563E0,2.506642580E0,-8.238390923E0,1.824848652E0
2.153931563E0,2.628329277E0,-8.226795197E0,2.039994240E0
2.156431563E0,2.804469585E0,-8.209003448E0,2.201689482E0
2.158931563E0,2.961236954E0,-8.199172020E0,2.345316172E0
2.161431563E0,3.201900721E0,-8.206837654E0,2.423382998E0
2.163931563E0,3.410695553E0,-8.219711304E0,2.469341755E0
2.166431563E0,3.586852312E0,-8.252791405E0,2.503332376E0
2.168931563E0,3.766327143E0,-8.278343201E0,2.490700960E0
2.171431563E0,3.884497643E0,-8.325336456E0,2.410986900E0
2.173931563E0,3.994755268E0,-8.332182884E0,2.307531118E0
2.176431563E0,4.073928356E0,-8.339594841E0,2.153597355E0
2.178931563E0,4.159770966E0,-8.349866867E0,1.982655764E0
2.181431563E0,4.196260452E0,-8.439126968E0,1.754801631E0
2.183931563E0,4.292434216E0,-8.545678139E0,1.500725389E0
2.186431563E0,4.313528061E0,-8.644192696E0,1.203412056E0
2.188931563E0,4.326630116E0,-8.797284126E0,9.088581800E-1
2.191431563E0,4.353284359E0,-8.981034279E0,6.532414556E-1
2.193931563E0,4.359218597E0,-9.222336769E0,3.373900652E-1
2.196431563E0,4.369158745E0,-9.450234413E0,6.109543145E-2
2.198931563E0,4.358080387E0,-9.670989990E0,-2.003383934E-1
2.201431563E0,4.307960510E0,-9.843431473E0,-4.380421340E-1
2.203931563E0,4.237063408E0,-9.989809990E0,-6.758401394E-1
2.206431563E0,4.136734009E0,-1.013830185E1,-8.248053193E-1
2.208931563E0,3.965694189E0,-1.020380974E1,-9.351815581E-1
2.211431563E0,3.776010036E0,-1.026223850E1,-9.897254109E-1
2.213931563E0,3.548372984E0,-1.029219151E1,-1.036207676E0
2.216431563E0,3.260158539E0,-1.030180645E1,-1.033194542E0
2.218931563E0,2.939079046E0,-1.030230427E1,-9.905289412E-1
2.221431563E0,2.657836199E0,-1.032153893E1,-9.462757707E-1
2.223931563E0,2.330995798E0,-1.029476643E1,-8.672721982E-1
2.226431563E0,2.037946224E0,-1.027469540E1,-8.072577119E-1
2.228931563E0,1.767948151E0,-1.031353951E1,-7.484583259E-1
2.231431563E0,1.517485261E0,-1.036386299E1,-7.026469707E-1
2.233931563E0,1.316092610E0,-1.042966366E1,-6.417829990E-1
2.236431563E0,1.120207429E0,-1.050733566E1,-6.024314165E-1
2.238931563E0,9.424702525E-1,-1.065373898E1,-6.567646265E-1
2.241431563E0,7.648873329E-1,-1.086923695E1,-7.023127675E-1
2.243931563E0,6.202420592E-1,-1.107756329E1,-7.301975489E-1
2.246431563E0,5.033887029E-1,-1.129170609E1,-7.842716575E-1
2.248931563E0,3.953095078E-1,-1.147820950E1,-8.233657479E-1
2.251431563E0,3.780863583E-1,-1.167527294E1,-8.673069477E-1
2.253931563E0,2.801814973E-1,-1.185013485E1,-8.904632330E-1
2.256431563E0,2.033882439E-1,-1.197586441E1,-9.356085658E-1
2.258931563E0,1.921501756E-1,-1.206272888E1,-9.890629649E-1
2.261431563E0,2.120534927E-1,-1.217567348E1,-1.023159266E0
2.263931563E0,1.944502890E-1,-1.229069996E1,-1.030261040E0
2.266431563E0,2.177340090E-1,-1.229617405E1,-1.008928299E0
2.268931563E0,2.384263873E-1,-1.233033943E1,-1.013601422E0
2.271431563E0,2.638181150E-1,-1.236410046E1,-1.091109991E0
2.273931563E0,2.779889405E-1,-1.242354965E1,-1.078998566E0
2.276431563E0,3.338632882E-1,-1.241067410E1,-1.060378671E0
2.278931563E0,3.770916760E-1,-1.238894653E1,-9.854852557E-1
2.281431563E0,4.628911614E-1,-1.230879402E1,-9.486575723E-1
2.283931563E0,5.472756624E-1,-1.231684303E1,-8.325392008E-1
2.286431563E0,6.596322656E-1,-1.228007603E1,-7.257208824E-1
2.288931563E0,8.042205572E-1,-1.219553947E1,-5.481010079E-1
2.291431563E0,9.713978171E-1,-1.209304428E1,-3.619697392E-1
2.293931563E0,1.175097823E0,-1.218760490E1,-3.032222986E-1
2.296431563E0,1.324208498E0,-1.223853397E1,-2.432101071E-1
2.298931563E0,1.546705961E0,-1.227181625E1,-1.513523906E-1
2.301431563E0,1.843088150E0,-1.235592937E1,-3.381518275E-2
2.303931563E0,2.131841660E0,-1.233837795E1,1.930157840E-1
2.306431563E0,2.414812803E0,-1.222054386E1,5.103628635E-1
2.308931563E0,2.705443144E0,-1.222931194E1,6.361075044E-1
2.311431563E0,2.887859344E0,-1.225326824E1,6.699753404E-1
2.313931563E0,2.990231991E0,-1.222968674E1,7.812682986E-1
2.316431563E0,3.147835970E0,-1.212062740E1,9.261975288E-1
2.318931563E0,3.301364422E0,-1.213291073E1,9.570647478E-1
2.321431563E0,3.277278423E0,-1.216908836E1,9.881072640E-1
2.323931563E0,3.341120243E0,-1.215133095E1,1.086494088E0
2.326431563E0,3.363011122E0,-1.226808643E1,1.023996234E0
2.328931563E0,3.324029446E0,-1.241696739E1,9.494330287E-1
2.331431563E0,3.228897572E0,-1.256461906E1,8.842490911E-1
2.333931563E0,3.096718550E0,-1.271402740E1,8.144375086E-1
2.336431563E0,2.986261368E0,-1.290529442E1,7.058693171E-1
2.338931563E0,2.875449181E0,-1.294155693E1,8.353215456E-1
2.341431563E0,2.734100819E0,-1.325898647E1,6.632061005E-1
2.343931563E0,2.435398340E0,-1.356017971E1,4.229078889E-1
2.346431563E0,2.139606714E0,-1.386389637E1,2.368044406E-1
2.348931563E0,1.797679543E0,-1.410631084E1,1.092942283E-1
2.351431563E0,1.465386629E0,-1.426809597E1,4.211856518E-3
2.353931563E0,1.105355859E0,-1.443663692E1,-1.527993679E-1
2.356431563E0,7.977170348E-1,-1.446871662E1,-1.144731566E-1
2.358931563E0,5.396803021E-1,-1.458721161E1,-2.405413836E-1
2.361431563E0,1.778972000E-1,-1.481453228E1,-5.897649527E-1
2.363931563E0,-9.539998323E-2,-1.499041653E1,-8.261249661E-1
2.366431563E0,-2.991838455E-1,-1.505115700E1,-1.023752451E0
2.368931563E0,-3.611206114E-1,-1.505814934E1,-1.225590467E0
2.371431563E0,-2.733715177E-1,-1.502763557E1,-1.363803983E0
2.373931563E0,-1.566124558E-1,-1.490822601E1,-1.517520905E0
2.376431563E0,1.083987728E-1,-1.476760578E1,-1.640709758E0
2.378931563E0,4.184247255E-1,-1.459556198E1,-1.778217077E0
2.381431563E0,7.212483883E-1,-1.421859837E1,-1.886040688E0
2.383931563E0,1.049795628E0,-1.369020271E1,-1.963719368E0
2.386431563E0,1.416588187E0,-1.306934643E1,-2.053316832E0
2.388931563E0,1.840654135E0,-1.235921383E1,-2.113626957E0
2.391431563E0,2.273526907E0,-1.157394695E1,-2.156021118E0
2.393931563E0,2.724697351E0,-1.081094265E1,-2.158693314E0
2.396431563E0,3.130722046E0,-1.014320469E1,-2.128499746E0
2.398931563E0,3.611648321E0,-9.500304222E0,-2.440175056E0
2.401431563E0,3.929440498E0,-8.753669739E0,-2.513449669E0
2.403931563E0,4.151762009E0,-8.225148201E0,-2.622116327E0
2.406431563E0,4.361177444E0,-7.781570435E0,-2.804109335E0
2.408931563E0,4.612689972E0,-7.463503361E0,-3.012317896E0
2.411431563E0,4.938543320E0,-7.229657173E0,-3.224544048E0
2.413931563E0,5.166689396E0,-7.119225502E0,-3.419480801E0
2.416431563E0,5.458313942E0,-7.152600288E0,-3.675674915E0
2.418931563E0,5.812871933E0,-7.125158310E0,-4.010434628E0
2.421431563E0,5.989993572E0,-7.167295456E0,-4.200886250E0
2.423931563E0,6.116291046E0,-7.329325199E0,-4.427688599E0
2.426431563E0,6.179126740E0,-7.563364029E0,-4.620832920E0
2.428931563E0,6.239815712E0,-7.837516308E0,-4.753433228E0
2.431431563E0,6.300238132E0,-8.196273804E0,-4.841683388E0
2.433931563E0,6.277088165E0,-8.577268600E0,-4.829860210E0
2.436431563E0,6.292041779E0,-9.040579796E0,-4.713178158E0
2.438931563E0,6.319337368E0,-9.500703812E0,-4.444411755E0
2.441431563E0,6.363151550E0,-9.982092857E0,-3.975644827E0
2.443931563E0,6.411283493E0,-1.043012524E1,-3.293325186E0
2.446431563E0,6.488852501E0,-1.087770844E1,-2.516503811E0
2.448931563E0,6.562416077E0,-1.130033398E1,-1.677861094E0
2.451431563E0,6.629077911E0,-1.171104717E1,-8.323675990E-1
2.453931563E0,6.696864605E0,-1.211327362E1,9.049464762E-2
2.456431563E0,6.799410343E0,-1.255093956E1,8.800386786E-1
2.458931563E0,6.847923279E0,-1.298054790E1,1.627416849E0
2.461431563E0,6.897083759E0,-1.342207432E1,2.281779528E0
2.463931563E0,6.893210411E0,-1.384125614E1,2.748524666E0
2.466431563E0,6.840879440E0,-1.429468441E1,3.043417215E0
2.468931563E0,6.668363094E0,-1.468898964E1,3.154653549E0
2.471431563E0,6.474798679E0,-1.506646061E1,3.086427212E0
2.473931563E0,6.251049042E0,-1.534529781E1,2.894494057E0
2.476431563E0,5.961762428E0,-1.555293751E1,2.660629988E0
2.478931563E0,5.583063602E0,-1.568430424E1,2.518728018E0
2.481431563E0,5.188261032E0,-1.577359009E1,2.323544025E0
2.483931563E0,4.891993523E0,-1.579908085E1,2.124538898E0
2.486431563E0,4.743085384E0,-1.572974014E1,1.734414577E0
2.488931563E0,4.648737907E0,-1.555152702E1,1.433935642E0
2.491431563E0,4.571582317E0,-1.528110218E1,1.249557018E0
2.493931563E0,4.342636585E0,-1.492773914E1,1.255008459E0
2.496431563E0,4.001147747E0,-1.442833710E1,1.407395720E0
2.498931563E0,3.597290516E0,-1.390331364E1,1.681127548E0
2.501431563E0,3.271248341E0,-1.323767376E1,2.166058064E0
2.503931563E0,2.968221188E0,-1.263632393E1,2.563804865E0
2.506431563E0,2.467725992E0,-1.227453995E1,2.840899467E0
2.508931563E0,1.898807764E0,-1.205333424E1,2.856755972E0
2.511431563E0,1.497377515E0,-1.188793087E1,2.653609753E0
2.513931563E0,1.366876125E0,-1.177412796E1,2.382998705E0
2.516431563E0,1.315370083E0,-1.169241142E1,2.355086803E0
2.518931563E0,1.100772142E0,-1.167594528E1,2.437771797E0
2.521431563E0,9.008334875E-1,-1.169572449E1,2.566466331E0
2.523931563E0,7.601441741E-1,-1.171955299E1,2.582867861E0
2.526431563E0,7.129658461E-1,-1.179268646E1,2.491111994E0
2.528931563E0,7.961972952E-1,-1.186680698E1,2.283384085E0
2.531431563E0,8.482975364E-1,-1.193863583E1,2.120944500E0
2.533931563E0,9.057071805E-1,-1.195412159E1,1.971822739E0
2.536431563E0,9.879225492E-1,-1.198896313E1,1.865489364E0
2.538931563E0,1.001886725E0,-1.201564121E1,1.718203425E0
2.541431563E0,9.860553741E-1,-1.208517075E1,1.497287393E0
2.543931563E0,9.027623534E-1,-1.211924076E1,1.176958084E0
2.546431563E0,9.371945262E-1,-1.199645615E1,9.451162815E-1
2.548931563E0,1.012100577E0,-1.186826324E1,8.441997170E-1
2.551431563E0,9.331608415E-1,-1.179196644E1,8.038719296E-1
2.553931563E0,7.176936865E-1,-1.171861458E1,7.474828362E-1
2.556431563E0,5.126015544E-1,-1.161756420E1,6.782935858E-1
2.558931563E0,3.129419982E-1,-1.151175976E1,6.009960771E-1
2.561431563E0,2.140650898E-1,-1.137991810E1,5.694800615E-1
2.563931563E0,1.280178428E-1,-1.123071575E1,5.429216027E-1
2.566431563E0,5.023092031E-2,-1.103162193E1,6.490771770E-1
2.568931563E0,-3.295117989E-2,-1.079459000E1,7.409422398E-1
2.571431563E0,-6.041526049E-2,-1.056467438E1,9.166127443E-1
2.573931563E0,-6.277391221E-3,-1.034934139E1,1.105033755E0
2.576431563E0,7.805504650E-2,-1.012419224E1,1.287607551E0
2.578931563E0,1.749868542E-1,-9.901638985E0,1.433982849E0
2.581431563E0,2.326402962E-1,-9.660491943E0,1.553452492E0
2.583931563E0,4.037590027E-1,-9.431756020E0,1.659307837E0
2.586431563E0,5.301845074E-1,-9.219380379E0,1.732916474E0
2.588931563E0,6.130524278E-1,-9.021174431E0,1.726211309E0
2.591431563E0,7.507373691E-1,-8.800775528E0,1.722981215E0
2.593931563E0,8.460771441E-1,-8.564533234E0,1.750088811E0
2.596431563E0,9.982418418E-1,-8.346645355E0,1.768910170E0
2.598931563E0,1.169909239E0,-8.079498291E0,1.742026091E0
2.601431563E0,1.349592090E0,-7.876674652E0,1.666105270E0
2.603931563E0,1.652895570E0,-7.622028351E0,1.614599228E0
2.606431563E0,1.835304976E0,-7.318508625E0,1.679729223E0
2.608931563E0,2.091012001E0,-7.043331623E0,1.621999979E0
2.611431563E0,2.313520193E0,-6.740945816E0,1.514265299E0
2.613931563E0,2.521715879E0,-6.409162045E0,1.397504568E0
2.616431563E0,2.716894865E0,-6.135938168E0,1.294512749E0
2.618931563E0,2.826554060E0,-5.821549416E0,1.162087560E0
2.621431563E0,2.980141401E0,-5.538743496E0,1.099525332E0
2.623931563E0,3.131183386E0,-5.219738007E0,1.075708151E0
2.626431563E0,3.211714745E0,-4.944689751E0,1.062835932E0
2.628931563E0,3.224101543E0,-4.756523132E0,1.102222443E0
2.631431563E0,3.182852268E0,-4.543098450E0,1.105808854E0
2.633931563E0,3.274160385E0,-4.376137733E0,1.075944901E0
2.636431563E0,3.419077635E0,-4.208638191E0,1.067568183E0
2.638931563E0,3.544482946E0,-4.042243004E0,1.038830400E0
2.641431563E0,3.727664709E0,-3.868670464E0,1.040465474E0
2.643931563E0,3.908545971E0,-3.798732996E0,1.020875335E0
2.646431563E0,4.131925583E0,-3.681595564E0,1.002689719E0
2.648931563E0,4.326519489E0,-3.565363884E0,1.024393916E0
2.651431563E0,4.521263123E0,-3.497502327E0,9.849856496E-1
2.653931563E0,4.711114407E0,-3.410783291E0,9.728764296E-1
2.656431563E0,4.882458687E0,-3.310087442E0,9.239617586E-1
2.658931563E0,5.050020695E0,-3.262188911E0,8.221771717E-1
2.661431563E0,5.201607704E0,-3.212511301E0,7.580024600E-1
2.663931563E0,5.312336922E0,-3.187902689E0,6.331964731E-1
2.666431563E0,5.386576176E0,-3.200459480E0,4.977027476E-1
2.668931563E0,5.443101406E0,-3.196218729E0,4.153788686E-1
2.671431563E0,5.431407928E0,-3.227620125E0,3.468501270E-1
2.673931563E0,5.408633232E0,-3.271312237E0,3.026471436E-1
2.676431563E0,5.372195244E0,-3.346224546E0,2.479999661E-1
2.678931563E0,5.300336361E0,-3.385821342E0,2.201578170E-1
2.681431563E0,5.223666191E0,-3.436796904E0,2.215243578E-1
2.683931563E0,5.167479515E0,-3.530642986E0,2.537107766E-1
2.686431563E0,5.185209751E0,-3.626125813E0,3.046154976E-1
2.688931563E0,5.110646248E0,-3.710069418E0,4.098158479E-1
2.691431563E0,5.070069313E0,-3.792766809E0,5.369470119E-1
2.693931563E0,4.982777119E0,-3.845070362E0,6.923966408E-1
2.696431563E0,4.883043766E0,-3.906616211E0,9.129461646E-1
2.698931563E0,4.706886768E0,-3.932944775E0,1.237574816E0
2.701431563E0,4.561774254E0,-3.952126980E0,1.324703932E0
2.703931563E0,4.593369961E0,-4.090805054E0,1.228766799E0
2.706431563E0,4.537597656E0,-4.205208778E0,1.131946564E0
2.708931563E0,4.396639347E0,-4.294104576E0,1.161159635E0
2.711431563E0,4.194736481E0,-4.333184242E0,1.256505013E0
2.713931563E0,3.936697483E0,-4.342715263E0,1.351448536E0
2.716431563E0,3.816075325E0,-4.371718407E0,1.447585821E0
2.718931563E0,3.599004984E0,-4.288550854E0,1.469110489E0
2.721431563E0,3.267914772E0,-4.206257820E0,1.400018692E0
2.723931563E0,3.410305977E0,-4.197962284E0,1.536662102E0
2.726431563E0,3.479869127E0,-4.136824131E0,1.544759274E0
2.728931563E0,3.428328753E0,-4.069012642E0,1.496344447E0
2.731431563E0,3.350808620E0,-3.920582533E0,1.393375158E0
2.733931563E0,3.251393318E0,-3.767876148E0,1.304961085E0
2.736431563E0,3.177686930E0,-3.585132360E0,1.166137218E0
2.738931563E0,3.089329243E0,-3.518963099E0,1.071101308E0
2.741431563E0,2.932173252E0,-3.486060858E0,9.767411947E-1
2.743931563E0,2.950823545E0,-3.324043751E0,8.492501974E-1
2.746431563E0,2.998296022E0,-3.159304380E0,6.622976065E-1
2.748931563E0,2.879823446E0,-3.015139818E0,4.737706482E-1
2.751431563E0,2.803131580E0,-2.990572214E0,2.836959660E-1
2.753931563E0,2.675882339E0,-2.982251406E0,9.856861085E-2
2.756431563E0,2.584706545E0,-3.023050785E0,-1.136984676E-1
2.758931563E0,2.559803486E0,-3.070846081E0,-3.676016331E-1
2.761431563E0,2.459492922E0,-3.169890404E0,-6.206363440E-1
2.763931563E0,2.358364582E0,-3.302666187E0,-9.030553699E-1
2.766431563E0,2.328694105E0,-3.459445715E0,-1.201217413E0
2.768931563E0,2.367160797E0,-3.633795500E0,-1.565902114E0
2.771431563E0,2.361187935E0,-3.846341848E0,-1.906359434E0
2.773931563E0,2.348766804E0,-4.107484818E0,-2.294111013E0
2.776431563E0,2.391258240E0,-4.419283867E0,-2.692123413E0
2.778931563E0,2.376722813E0,-4.723021984E0,-3.109127760E0
2.781431563E0,2.439094782E0,-5.087304115E0,-3.563116312E0
2.783931563E0,2.431680202E0,-5.438661098E0,-3.998613358E0
2.786431563E0,2.283246994E0,-5.784225464E0,-4.577831745E0
2.788931563E0,2.495683432E0,-6.210453987E0,-5.075364113E0
2.791431563E0,2.644244671E0,-6.685709476E0,-5.619513035E0
2.793931563E0,2.686856270E0,-7.101598263E0,-6.229864120E0
2.796431563E0,2.774186850E0,-7.621934414E0,-6.824053764E0
2.798931563E0,2.700237751E0,-8.099698067E0,-7.474894524E0
2.801431563E0,2.815567255E0,-8.648573875E0,-8.116412163E0
2.803931563E0,2.921132088E0,-9.193269730E0,-8.788551331E0
2.806431563E0,2.954737663E0,-9.752039909E0,-9.501139641E0
2.808931563E0,2.950048685E0,-1.031223297E1,-1.017704010E1
2.811431563E0,2.974215508E0,-1.096542168E1,-1.087259483E1
2.813931563E0,2.953278542E0,-1.157673550E1,-1.154557514E1
2.816431563E0,2.849168539E0,-1.220680428E1,-1.224980927E1
2.818931563E0,2.715485096E0,-1.287120724E1,-1.285827065E1
2.821431563E0,2.524934292E0,-1.357985497E1,-1.356814575E1
2.823931563E0,2.206488371E0,-1.430081749E1,-1.427486229E1
2.826431563E0,1.817677498E0,-1.503629684E1,-1.492573261E1
2.828931563E0,1.439636588E0,-1.579558182E1,-1.530867386E1
2.831431563E0,1.134721398E0,-1.657147408E1,-1.542730522E1
2.833931563E0,7.837375402E-1,-1.731299591E1,-1.536722946E1
2.836431563E0,2.926827371E-1,-1.804091072E1,-1.500247002E1
2.838931563E0,-1.544783860E-1,-1.872850609E1,-1.439146328E1
2.841431563E0,-6.352279186E-1,-1.931867027E1,-1.357069397E1
2.843931563E0,-1.077460408E0,-1.975907326E1,-1.263164997E1
2.846431563E0,-1.429371119E0,-2.005824852E1,-1.153379726E1
2.848931563E0,-1.665952325E0,-2.006894684E1,-1.047643948E1
2.851431563E0,-1.880536199E0,-1.977878571E1,-9.566987991E0
2.853931563E0,-1.915635705E0,-1.929345322E1,-8.761590004E0
2.856431563E0,-1.301102996E0,-1.881827545E1,-7.753513813E0
2.858931563E0,-7.676388621E-1,-1.804715538E1,-7.113407612E0
2.861431563E0,-2.449328303E-1,-1.710498428E1,-6.761013031E0
2.863931563E0,2.364521176E-1,-1.604843903E1,-6.708636284E0
2.866431563E0,6.584424376E-1,-1.485922718E1,-6.850339890E0
2.868931563E0,9.576153755E-1,-1.358278465E1,-6.968608856E0
2.871431563E0,1.298522592E0,-1.236485958E1,-6.939982891E0
2.873931563E0,1.775449634E0,-1.114368153E1,-6.686870575E0
2.876431563E0,2.279987574E0,-1.003244495E1,-6.292660713E0
2.878931563E0,2.937759876E0,-9.048061371E0,-5.714662552E0
2.881431563E0,3.572770834E0,-8.164999008E0,-5.051898479E0
2.883931563E0,4.222438812E0,-7.338750362E0,-4.337341309E0
2.886431563E0,4.881336689E0,-6.596835613E0,-3.682438612E0
2.888931563E0,5.384346008E0,-6.036712170E0,-2.955473185E0
2.891431563E0,5.960305691E0,-5.524358749E0,-2.319879770E0
2.893931563E0,6.534864426E0,-5.117098808E0,-1.651222348E0
2.896431563E0,7.119582176E0,-4.863130569E0,-9.642437696E-1
2.898931563E0,7.676233292E0,-4.697063923E0,-2.304622084E-1
2.901431563E0,8.182432175E0,-4.658918381E0,4.994995594E-1
2.903931563E0,8.714655876E0,-4.749334812E0,1.262988210E0
2.906431563E0,9.107123375E0,-4.890213490E0,1.996210098E0
2.908931563E0,9.366389275E0,-5.091981411E0,2.542620659E0
2.911431563E0,9.535163879E0,-5.409701824E0,2.905269384E0
2.913931563E0,9.590534210E0,-5.767526627E0,3.114335299E0
2.916431563E0,9.501749039E0,-6.121273041E0,3.186387539E0
2.918931563E0,9.411296844E0,-6.576600552E0,3.136972427E0
2.921431563E0,9.267867088E0,-7.055957794E0,2.773924589E0
2.923931563E0,9.062703133E0,-7.597636700E0,2.144321203E0
2.926431563E0,8.755785942E0,-8.274929047E0,1.178274751E0
2.928931563E0,8.385643959E0,-9.128121376E0,-1.115432531E-1
2.931431563E0,7.958028316E0,-1.010437012E1,-1.535601854E0
2.933931563E0,7.444113255E0,-1.120600224E1,-3.164437532E0
2.936431563E0,6.920825958E0,-1.248945618E1,-4.648908615E0
2.938931563E0,6.400148869E0,-1.383026600E1,-5.822002888E0
2.941431563E0,5.941192150E0,-1.521356964E1,-6.493224621E0
2.943931563E0,5.476923943E0,-1.661874771E1,-6.619909763E0
2.946431563E0,5.088469982E0,-1.788421631E1,-6.189375401E0
2.948931563E0,4.599631310E0,-1.894728851E1,-5.479921818E0
2.951431563E0,3.771471739E0,-1.967928314E1,-4.766584396E0
2.953931563E0,2.865232706E0,-2.008996391E1,-4.238622665E0
2.956431563E0,2.411561251E0,-2.054521370E1,-3.775592089E0
2.958931563E0,2.250547647E0,-2.055416679E1,-3.491208792E0
2.961431563E0,2.263721228E0,-2.025260353E1,-3.307050228E0
2.963931563E0,2.305578470E0,-1.969290161E1,-3.079820871E0
2.966431563E0,2.165919781E0,-1.886792374E1,-2.852539062E0
2.968931563E0,1.955333471E0,-1.762426186E1,-2.539698362E0
2.971431563E0,1.566620111E0,-1.620275879E1,-2.051592112E0
2.973931563E0,1.242434382E0,-1.467365551E1,-1.248342156E0
2.976431563E0,9.725329280E-1,-1.303958321E1,-6.189631298E-2
2.978931563E0,7.015892267E-1,-1.135950279E1,1.332081318E0
2.981431563E0,5.053126812E-1,-9.732591629E0,2.774068832E0
2.983931563E0,3.182248473E-1,-8.228744507E0,4.166807652E0
2.986431563E0,1.675719917E-1,-7.002646923E0,5.457932949E0
2.988931563E0,4.616439939E-1,-5.777080536E0,6.440353394E0
2.991431563E0,8.210097551E-1,-4.866463184E0,7.181756973E0
2.993931563E0,1.337682605E0,-4.067470551E0,7.735107899E0
2.996431563E0,1.820578814E0,-3.353142977E0,8.135925293E0
2.998931563E0,2.289378881E0,-2.781626463E0,8.516747475E0
3.001431563E0,2.789551973E0,-2.323391914E0,8.848792076E0
3.003931563E0,3.268088102E0,-1.879974842E0,9.120525360E0
3.006431563E0,3.550712585E0,-1.543505669E0,9.196830750E0
3.008931563E0,3.995040655E0,-1.259769201E0,9.280099869E0
3.011431563E0,4.311099529E0,-1.028500557E0,9.346076012E0
3.013931563E0,4.602262497E0,-9.482449889E-1,9.361351013E0
3.016431563E0,4.926826000E0,-9.000300765E-1,9.395121574E0
3.018931563E0,5.364099979E0,-9.684205055E-1,9.308852196E0
3.021431563E0,5.828740120E0,-1.089251876E0,9.178530693E0
3.023931563E0,6.272495747E0,-1.268017054E0,8.899996758E0
3.026431563E0,6.693969727E0,-1.501050830E0,8.519176483E0
3.028931563E0,7.055741310E0,-1.785892844E0,7.927048683E0
3.031431563E0,7.326593399E0,-2.170751095E0,7.284240246E0
3.033931563E0,7.495844841E0,-2.605772734E0,6.605844975E0
3.036431563E0,7.536780357E0,-3.059917212E0,5.896927357E0
3.038931563E0,7.427850723E0,-3.613679647E0,5.326301575E0
3.041431563E0,7.267471313E0,-4.216125965E0,4.845380783E0
3.043931563E0,6.879615784E0,-4.847404003E0,4.517419338E0
3.046431563E0,6.342445374E0,-5.467410088E0,4.300862789E0
3.048931563E0,5.915441036E0,-6.133400440E0,4.154796600E0
3.051431563E0,5.572719574E0,-6.843351364E0,4.012839794E0
3.053931563E0,5.339042664E0,-7.567122459E0,3.849079132E0
3.056431563E0,5.073441505E0,-8.253307343E0,3.616076469E0
3.058931563E0,4.804434776E0,-8.952009201E0,3.169961691E0
3.061431563E0,4.550070763E0,-9.673105240E0,2.590255737E0
3.063931563E0,4.314839840E0,-1.044106293E1,1.940773368E0
3.066431563E0,4.078445435E0,-1.120101929E1,1.272606850E0
3.068931563E0,3.817924976E0,-1.199607944E1,7.247859836E-1
3.071431563E0,3.586691141E0,-1.274357033E1,1.706666350E-1
3.073931563E0,3.314773798E0,-1.349023342E1,-2.980565429E-1
3.076431563E0,2.898317575E0,-1.419942188E1,-7.631313801E-1
3.078931563E0,2.471678495E0,-1.485264015E1,-1.220774412E0
3.081431563E0,1.927384615E0,-1.540643501E1,-1.563331485E0
3.083931563E0,1.309042096E0,-1.578350353E1,-1.713895082E0
3.086431563E0,7.483984232E-1,-1.605366898E1,-1.700847030E0
3.088931563E0,8.226684481E-2,-1.623913765E1,-1.545488954E0
3.091431563E0,-5.273602605E-1,-1.636125755E1,-1.255623817E0
3.093931563E0,-9.320471287E-1,-1.638150215E1,-9.273942709E-1
3.096431563E0,-1.302155733E0,-1.634163475E1,-6.363880634E-1
3.098931563E0,-1.673216581E0,-1.626675987E1,-3.271107376E-1
3.101431563E0,-2.025452375E0,-1.613287544E1,-1.046835035E-1
3.103931563E0,-2.056944609E0,-1.586214733E1,-7.110902574E-3
3.106431563E0,-1.807860732E0,-1.545655823E1,6.276232004E-2
3.108931563E0,-1.458014965E0,-1.488877201E1,8.969768882E-2
3.111431563E0,-1.099819899E0,-1.416178989E1,1.286615431E-1
3.113931563E0,-7.873962522E-1,-1.338578510E1,1.330939829E-1
3.116431563E0,-4.376414120E-1,-1.254502869E1,1.028287187E-1
3.118931563E0,-2.055502832E-1,-1.179659557E1,1.202279255E-1
3.121431563E0,1.234764978E-1,-1.107859516E1,1.006178632E-1
3.123931563E0,4.406494498E-1,-1.042346668E1,2.742018923E-2
3.126431563E0,7.242806554E-1,-9.913295746E0,-5.122007802E-2
3.128931563E0,1.108415127E0,-9.388581276E0,-1.482708156E-1
3.131431563E0,1.402373195E0,-8.903841972E0,-2.160880268E-1
3.133931563E0,1.760970831E0,-8.437201500E0,-2.560167313E-1
3.136431563E0,2.129670620E0,-8.026076317E0,-3.002329469E-1
3.138931563E0,2.348712206E0,-7.647917271E0,-2.976014912E-1
3.141431563E0,2.596926212E0,-7.347755432E0,-2.514435947E-1
3.143931563E0,2.763787508E0,-7.071877480E0,-1.800912321E-1
3.146431563E0,3.099115372E0,-6.788348198E0,-2.347765863E-1
3.148931563E0,3.512686968E0,-6.574597359E0,-3.221157789E-1
3.151431563E0,3.732993364E0,-6.383573055E0,-3.080882132E-1
3.153931563E0,3.915853739E0,-6.223354816E0,-2.696841061E-1
3.156431563E0,4.056581497E0,-6.093250751E0,-2.188667357E-1
3.158931563E0,4.157718182E0,-6.013995171E0,-1.194596738E-1
3.161431563E0,4.219666004E0,-5.965241909E0,-4.154440016E-2
3.163931563E0,4.216676712E0,-5.961795330E0,6.838447601E-2
3.166431563E0,4.201618671E0,-6.032144070E0,1.489624679E-1
3.168931563E0,4.177803993E0,-6.107368946E0,1.732545644E-1
3.171431563E0,4.015851021E0,-6.171571732E0,2.145140916E-1
3.173931563E0,3.845090628E0,-6.329372406E0,2.609319389E-1
3.176431563E0,3.658813000E0,-6.528561115E0,2.759081125E-1
3.178931563E0,3.498132467E0,-6.739552021E0,3.175655007E-1
3.181431563E0,3.248667955E0,-7.007222176E0,3.434493244E-1
3.183931563E0,2.998112679E0,-7.306014061E0,3.837310374E-1
3.186431563E0,2.817864180E0,-7.637602806E0,4.164618254E-1
3.188931563E0,2.618028879E0,-7.968468189E0,4.572595060E-1
3.191431563E0,2.364089251E0,-8.317503929E0,5.646945834E-1
3.193931563E0,2.130675316E0,-8.674021721E0,6.426858306E-1
3.196431563E0,1.925849676E0,-9.007110596E0,7.466375232E-1
3.198931563E0,1.700861096E0,-9.349370003E0,8.451641202E-1
3.201431563E0,1.503594160E0,-9.705922127E0,8.765625358E-1
3.203931563E0,1.290645003E0,-1.005416107E1,8.820919991E-1
3.206431563E0,1.044325948E0,-1.033151913E1,8.785388470E-1
3.208931563E0,7.469503284E-1,-1.057151890E1,8.581720591E-1
3.211431563E0,5.006272197E-1,-1.077871323E1,8.496641517E-1
3.213931563E0,2.608369887E-1,-1.096609592E1,7.391343713E-1
3.216431563E0,5.036226660E-2,-1.112358856E1,5.988625288E-1
3.218931563E0,-1.796605289E-1,-1.123884583E1,5.104209781E-1
3.221431563E0,-3.672288656E-1,-1.125388241E1,4.466127157E-1
3.223931563E0,-5.631967783E-1,-1.121058083E1,3.818525672E-1
3.226431563E0,-7.436310053E-1,-1.114240074E1,2.837773860E-1
3.228931563E0,-9.002860188E-1,-1.107293415E1,1.322043091E-1
3.231431563E0,-9.793882966E-1,-1.095152569E1,-1.243137848E-2
3.233931563E0,-1.046392441E0,-1.086224842E1,-1.499571502E-1
3.236431563E0,-1.063056231E0,-1.076514244E1,-2.937790453E-1
3.238931563E0,-1.027445197E0,-1.060588360E1,-4.011919498E-1
3.241431563E0,-9.420465827E-1,-1.051908398E1,-5.448471904E-1
3.243931563E0,-7.986926436E-1,-1.040194511E1,-6.337066889E-1
3.246431563E0,-6.783542037E-1,-1.028917694E1,-7.118172050E-1
3.248931563E0,-5.331191421E-1,-1.019112492E1,-7.236970663E-1
3.251431563E0,-3.818765581E-1,-1.006923962E1,-6.430035233E-1
3.253931563E0,-2.501312196E-1,-9.944716454E0,-5.448911190E-1
3.256431563E0,-9.496376663E-2,-9.787488937E0,-3.911161423E-1
3.258931563E0,8.614397794E-2,-9.677213669E0,-2.175541967E-1
3.261431563E0,2.330479622E-1,-9.573398590E0,-1.430763770E-2
3.263931563E0,3.599593639E-1,-9.470276833E0,2.068409026E-1
3.266431563E0,5.126742125E-1,-9.367726326E0,4.164175391E-1
3.268931563E0,6.883554459E-1,-9.235237122E0,6.772468090E-1
3.271431563E0,8.080370426E-1,-9.182900429E0,9.227733612E-1
3.273931563E0,9.575287700E-1,-9.047066689E0,1.127769828E0
3.276431563E0,1.088982821E0,-8.938401222E0,1.327455163E0
3.278931563E0,1.221709609E0,-8.859482765E0,1.509194374E0
3.281431563E0,1.433399320E0,-8.742940903E0,1.592303514E0
3.283931563E0,1.611418128E0,-8.646507263E0,1.687551498E0
3.286431563E0,1.805797815E0,-8.538030624E0,1.748548865E0
3.288931563E0,1.965643287E0,-8.438500404E0,1.784597397E0
3.291431563E0,2.145023108E0,-8.315694809E0,1.796437979E0
3.293931563E0,2.307480812E0,-8.224884987E0,1.869684219E0
3.296431563E0,2.479107380E0,-8.155849457E0,1.877583504E0
3.298931563E0,2.583527327E0,-8.051219940E0,1.857009649E0
3.301431563E0,2.738183022E0,-8.000258446E0,1.810524225E0
3.303931563E0,2.805099010E0,-7.948978901E0,1.748209357E0
3.306431563E0,2.877341509E0,-7.904390335E0,1.689165115E0
3.308931563E0,3.029236317E0,-7.894239902E0,1.602091312E0
3.311431563E0,3.127150297E0,-7.864659786E0,1.506997108E0
3.313931563E0,3.196864843E0,-7.865707874E0,1.367317200E0
3.316431563E0,3.285297871E0,-7.846849442E0,1.278469920E0
3.318931563E0,3.428719997E0,-7.908751488E0,1.132876277E0
3.321431563E0,3.536798000E0,-7.933482647E0,1.000766516E0
3.323931563E0,3.619579792E0,-8.008205414E0,8.602256179E-1
3.326431563E0,3.751498938E0,-8.117043495E0,6.864010096E-1
3.328931563E0,3.835176229E0,-8.219347954E0,5.139620304E-1
3.331431563E0,3.983742714E0,-8.379045486E0,3.267582953E-1
3.333931563E0,4.077033043E0,-8.567457199E0,1.396645308E-1
3.336431563E0,4.108989716E0,-8.768939018E0,8.001134731E-3
3.338931563E0,4.119781494E0,-8.989301682E0,-1.191007495E-1
3.341431563E0,4.047577381E0,-9.209976196E0,-2.322917730E-1
3.343931563E0,3.960087299E0,-9.432556152E0,-3.590623140E-1
3.346431563E0,3.826662779E0,-9.639871597E0,-4.833240509E-1
3.348931563E0,3.683701992E0,-9.824097633E0,-5.259029269E-1
3.351431563E0,3.445794821E0,-9.971742630E0,-5.817329884E-1
3.353931563E0,3.162601948E0,-1.009694672E1,-5.497364998E-1
3.356431563E0,2.918292761E0,-1.018912506E1,-4.875170887E-1
3.358931563E0,2.599209785E0,-1.025713158E1,-3.858924508E-1
3.361431563E0,2.316734791E0,-1.030793381E1,-2.445030361E-1
3.363931563E0,2.058878183E0,-1.027516556E1,-1.292964518E-1
3.366431563E0,1.738446236E0,-1.025151825E1,-3.852541000E-2
3.368931563E0,1.478070974E0,-1.020614624E1,1.704698429E-2
3.371431563E0,1.166268349E0,-1.020007229E1,2.049362659E-2
3.373931563E0,9.268307090E-1,-1.021574211E1,-4.060158134E-2
3.376431563E0,7.012689710E-1,-1.023759937E1,-1.477615982E-1
3.378931563E0,4.997181296E-1,-1.032368755E1,-3.422819376E-1
3.381431563E0,3.653861284E-1,-1.048070240E1,-5.767301321E-1
3.383931563E0,2.019606531E-1,-1.065509510E1,-8.188267946E-1
3.386431563E0,7.234454900E-2,-1.086453247E1,-1.057693839E0
3.388931563E0,4.191217199E-2,-1.110299969E1,-1.285415649E0
3.391431563E0,6.926047802E-2,-1.138424206E1,-1.494311929E0
3.393931563E0,9.822487086E-2,-1.165675831E1,-1.622581840E0
3.396431563E0,1.191482916E-1,-1.193522263E1,-1.743252158E0
3.398931563E0,1.595731676E-1,-1.211636066E1,-1.793097258E0
3.401431563E0,2.243996710E-1,-1.227244759E1,-1.775779009E0
3.403931563E0,2.576567531E-1,-1.239938641E1,-1.716250300E0
3.406431563E0,3.662220240E-1,-1.246826839E1,-1.598600030E0
3.408931563E0,7.796792388E-1,-1.266948318E1,-1.619840384E0
3.411431563E0,8.731788993E-1,-1.265468693E1,-1.446136117E0
3.413931563E0,8.903638124E-1,-1.250482750E1,-1.194051504E0
3.416431563E0,9.342520237E-1,-1.239238739E1,-9.911184907E-1
3.418931563E0,1.030459285E0,-1.231366158E1,-7.934390306E-1
3.421431563E0,1.164368987E0,-1.218605709E1,-5.918720961E-1
3.423931563E0,1.357041836E0,-1.211873055E1,-4.247587025E-1
3.426431563E0,1.545430183E0,-1.214104748E1,-3.529421687E-1
3.428931563E0,1.718632340E0,-1.214966774E1,-2.836613357E-1
3.431431563E0,1.925221682E0,-1.209245205E1,-1.612135619E-1
3.433931563E0,2.095079184E0,-1.207143402E1,-6.110130996E-2
3.436431563E0,2.271422148E0,-1.199968910E1,2.558194473E-2
3.438931563E0,2.481477022E0,-1.191062355E1,1.928607672E-1
3.441431563E0,2.643548012E0,-1.172645569E1,4.103781283E-1
3.443931563E0,2.835400581E0,-1.182816982E1,3.182535768E-1
3.446431563E0,2.986941338E0,-1.187005520E1,2.759081125E-1
3.448931563E0,3.065793276E0,-1.189234734E1,2.634820640E-1
3.451431563E0,3.203840256E0,-1.187831783E1,2.913232744E-1
3.453931563E0,3.316606760E0,-1.182125092E1,3.921809494E-1
3.456431563E0,3.429627180E0,-1.178352070E1,5.386201143E-1
3.458931563E0,3.490333557E0,-1.192748356E1,4.175779521E-1
3.461431563E0,3.422207594E0,-1.193769169E1,3.922609389E-1
3.463931563E0,3.241165638E0,-1.194494629E1,4.445718229E-1
3.466431563E0,3.097589493E0,-1.192862511E1,4.740702510E-1
3.468931563E0,2.862685442E0,-1.209959316E1,3.240260482E-1
3.471431563E0,2.576147318E0,-1.222105694E1,2.568154335E-1
3.473931563E0,2.331294537E0,-1.231937981E1,3.137316704E-1
3.476431563E0,2.173796177E0,-1.248217201E1,3.533289135E-1
3.478931563E0,1.955446124E0,-1.280362225E1,2.118175477E-1
3.481431563E0,1.733770609E0,-1.305517101E1,1.849862486E-1
3.483931563E0,1.544497728E0,-1.334946918E1,1.410311460E-1
3.486431563E0,1.341343045E0,-1.361557961E1,1.279467046E-1
3.488931563E0,1.181958556E0,-1.388462734E1,1.429732442E-1
3.491431563E0,1.005125403E0,-1.412812424E1,1.944764555E-1
3.493931563E0,8.109291792E-1,-1.422526073E1,3.326562345E-1
3.496431563E0,6.440516114E-1,-1.439207935E1,3.018499911E-1
3.498931563E0,3.907481730E-1,-1.469963360E1,5.812751874E-2
3.501431563E0,1.457189620E-1,-1.485077381E1,-8.970502019E-2
3.503931563E0,-1.910296455E-2,-1.489893532E1,-2.499240637E-1
3.506431563E0,-1.560732126E-1,-1.490763950E1,-4.439496696E-1
3.508931563E0,-2.917223871E-1,-1.492742348E1,-6.157903671E-1
3.511431563E0,-2.697030306E-1,-1.487667847E1,-8.108041883E-1
3.513931563E0,-3.226628304E-1,-1.483104038E1,-1.040849924E0
3.516431563E0,-2.927714586E-1,-1.476928711E1,-1.205970526E0
3.518931563E0,-2.512513697E-1,-1.467560387E1,-1.375401020E0
3.521431563E0,-1.794036925E-1,-1.459150791E1,-1.547848701E0
3.523931563E0,-3.244319558E-2,-1.450841236E1,-1.661761403E0
3.526431563E0,2.041603178E-1,-1.439395618E1,-1.762317300E0
3.528931563E0,4.351117909E-1,-1.423187923E1,-1.858664870E0
3.531431563E0,6.842013597E-1,-1.400683689E1,-1.942556143E0
3.533931563E0,8.252508044E-1,-1.362917805E1,-1.879195452E0
3.536431563E0,9.716806412E-1,-1.307515144E1,-1.555434942E0
3.538931563E0,1.323997974E0,-1.266269970E1,-1.508515596E0
3.541431563E0,1.402261734E0,-1.206317616E1,-1.452448606E0
3.543931563E0,1.675378561E0,-1.131541538E1,-1.335080266E0
3.546431563E0,2.113773108E0,-1.055874825E1,-1.232992291E0
3.548931563E0,2.614393711E0,-9.818666458E0,-1.219820261E0
3.551431563E0,3.117036104E0,-9.164664268E0,-1.231589079E0
3.553931563E0,3.836837769E0,-8.729426384E0,-1.415152550E0
3.556431563E0,4.478033543E0,-8.209515572E0,-1.797757626E0
3.558931563E0,5.073635101E0,-7.867587090E0,-2.180356264E0
3.561431563E0,5.564218521E0,-7.647182465E0,-2.613262892E0
3.563931563E0,6.012520790E0,-7.636826038E0,-3.112432718E0
3.566431563E0,6.371160030E0,-7.671544075E0,-3.590364933E0
3.568931563E0,6.673893452E0,-7.788669109E0,-4.027657986E0
3.571431563E0,6.952280998E0,-7.967245579E0,-4.376080036E0
3.573931563E0,7.066827297E0,-8.224494934E0,-4.592176914E0
3.576431563E0,7.216816425E0,-8.500891685E0,-4.745163441E0
3.578931563E0,7.260417461E0,-8.829799652E0,-4.754565239E0
3.581431563E0,7.255288601E0,-9.200057030E0,-4.668492317E0
3.583931563E0,7.283944607E0,-9.562383652E0,-4.454163551E0
3.586431563E0,7.338137627E0,-9.903120041E0,-4.073846817E0
3.588931563E0,7.393452644E0,-1.030602741E1,-3.572005033E0
3.591431563E0,7.425145149E0,-1.063937759E1,-2.932423592E0
3.593931563E0,7.452047348E0,-1.094486523E1,-2.185153246E0
3.596431563E0,7.484911442E0,-1.123486328E1,-1.452306867E0
3.598931563E0,7.487458229E0,-1.150326633E1,-6.977326274E-1
3.601431563E0,7.506393433E0,-1.178479767E1,8.757968247E-2
3.603931563E0,7.457363129E0,-1.207676697E1,7.823925018E-1
3.606431563E0,7.381350517E0,-1.235836697E1,1.421870828E0
3.608931563E0,7.309064388E0,-1.267656803E1,2.002153873E0
3.611431563E0,7.163486958E0,-1.296145821E1,2.469642401E0
3.613931563E0,6.897620201E0,-1.326961708E1,2.773119688E0
3.616431563E0,6.610188484E0,-1.350542355E1,3.072712660E0
3.618931563E0,6.285775661E0,-1.369920826E1,3.340656757E0
3.621431563E0,5.812530518E0,-1.382022858E1,3.567667246E0
3.623931563E0,5.329816341E0,-1.390597820E1,3.771754265E0
3.626431563E0,4.954674244E0,-1.388756180E1,3.812653303E0
3.628931563E0,4.635507107E0,-1.388521004E1,3.674395084E0
3.631431563E0,4.200120449E0,-1.386329365E1,3.603601217E0
3.633931563E0,3.813184500E0,-1.376700687E1,3.418247938E0
3.636431563E0,3.477152824E0,-1.372893715E1,3.319731236E0
3.638931563E0,3.312073946E0,-1.359516525E1,3.417220116E0
3.641431563E0,3.203712702E0,-1.339234161E1,3.627028704E0
3.643931563E0,3.028415680E0,-1.322151661E1,3.734097242E0
3.646431563E0,2.822474480E0,-1.304520988E1,3.869630098E0
3.648931563E0,2.593447924E0,-1.289519691E1,3.641872168E0
3.651431563E0,2.228091240E0,-1.284296703E1,3.395003557E0
3.653931563E0,1.952205181E0,-1.279449081E1,2.955858231E0
3.656431563E0,1.664294362E0,-1.278493690E1,2.624807358E0
3.658931563E0,1.516833544E0,-1.271803570E1,2.376180172E0
3.661431563E0,1.363175631E0,-1.264153862E1,2.260496855E0
3.663931563E0,1.168838978E0,-1.252940083E1,2.192709208E0
3.666431563E0,1.035766244E0,-1.247154713E1,2.092477322E0
3.668931563E0,9.112401605E-1,-1.240184402E1,1.889979601E0
3.671431563E0,8.523830771E-1,-1.228142452E1,1.608102202E0
3.673931563E0,7.427948713E-1,-1.223333836E1,1.381056428E0
3.676431563E0,6.569252014E-1,-1.220304871E1,1.224824905E0
3.678931563E0,6.247925758E-1,-1.218954945E1,1.038423538E0
3.681431563E0,4.840695262E-1,-1.223569775E1,7.803118229E-1
3.683931563E0,3.672341704E-1,-1.223988438E1,4.630718231E-1
3.686431563E0,2.639652491E-1,-1.226277637E1,1.641565710E-1
3.688931563E0,1.095821932E-1,-1.230147362E1,-7.658988237E-2
3.691431563E0,1.716486178E-2,-1.236632633E1,-2.678936422E-1
3.693931563E0,-1.103897840E-1,-1.247778034E1,-5.273067951E-1
3.696431563E0,-2.085086554E-1,-1.252047634E1,-7.642396092E-1
3.698931563E0,-1.281720102E-1,-1.248714542E1,-8.689423203E-1
3.701431563E0,-9.167469293E-2,-1.238135529E1,-7.669894099E-1
3.703931563E0,-7.065732032E-2,-1.221045780E1,-4.649600685E-1
3.706431563E0,-4.522740841E-2,-1.196841621E1,-5.976401269E-2
3.708931563E0,9.427097440E-2,-1.173327637E1,4.023021758E-1
3.711431563E0,1.959649771E-1,-1.143688965E1,8.837960958E-1
3.713931563E0,3.416626453E-1,-1.116893101E1,1.292372823E0
3.716431563E0,4.903600216E-1,-1.084224892E1,1.541415453E0
3.718931563E0,6.502291560E-1,-1.051526356E1,1.693876028E0
3.721431563E0,8.360508680E-1,-1.019973469E1,1.841427088E0
3.723931563E0,9.835141301E-1,-9.874663353E0,1.952731848E0
3.726431563E0,1.127446651E0,-9.639215469E0,2.020349264E0
3.728931563E0,1.288403392E0,-9.326264381E0,2.023973942E0
3.731431563E0,1.523236990E0,-9.076439857E0,1.993659735E0
3.733931563E0,1.767732978E0,-8.855870247E0,1.943348646E0
3.736431563E0,1.934403539E0,-8.645734787E0,1.923951745E0
3.738931563E0,2.174942017E0,-8.407185555E0,1.918970823E0
3.741431563E0,2.452481508E0,-8.173445702E0,1.894549608E0
3.743931563E0,2.698875904E0,-7.897716522E0,1.805080295E0
3.746431563E0,2.894656420E0,-7.621961594E0,1.746159077E0
3.748931563E0,3.035158634E0,-7.309564590E0,1.737191796E0
3.751431563E0,3.107378483E0,-7.008593082E0,1.694691777E0
3.753931563E0,3.183972836E0,-6.695321083E0,1.623860240E0
3.756431563E0,3.228973389E0,-6.377987862E0,1.549698114E0
3.758931563E0,3.284472227E0,-6.040144444E0,1.492834091E0
3.761431563E0,3.258287668E0,-5.709266186E0,1.411778688E0
3.763931563E0,3.307776213E0,-5.403255939E0,1.375351310E0
3.766431563E0,3.351696968E0,-5.125801086E0,1.330624700E0
3.768931563E0,3.388730526E0,-4.832317829E0,1.328548074E0
3.771431563E0,3.464529514E0,-4.621851921E0,1.343102336E0
3.773931563E0,3.454734802E0,-4.440626144E0,1.323063016E0
3.776431563E0,3.344488382E0,-4.210071564E0,1.266620278E0
3.778931563E0,3.391734123E0,-4.025356770E0,1.344550252E0
3.781431563E0,3.503259420E0,-3.906603813E0,1.429429650E0
3.783931563E0,3.549536228E0,-3.862121105E0,1.433476925E0
3.786431563E0,3.730053186E0,-3.770814180E0,1.394309759E0
3.788931563E0,3.908521652E0,-3.732558966E0,1.385342360E0
3.791431563E0,4.115342140E0,-3.700484276E0,1.350114942E0
3.793931563E0,4.292395592E0,-3.683400869E0,1.346071005E0
3.796431563E0,4.441797733E0,-3.649158239E0,1.353099465E0
3.798931563E0,4.605312347E0,-3.624894619E0,1.376656890E0
3.801431563E0,4.726851940E0,-3.602957964E0,1.365639091E0
3.803931563E0,4.814884663E0,-3.589628935E0,1.333134174E0
3.806431563E0,4.954018593E0,-3.589537382E0,1.313004375E0
3.808931563E0,5.064615250E0,-3.559223890E0,1.272862673E0
3.811431563E0,5.197012901E0,-3.564291954E0,1.217012286E0
3.813931563E0,5.250830173E0,-3.599942923E0,1.183281660E0
3.816431563E0,5.325890541E0,-3.637140512E0,1.174978733E0
3.818931563E0,5.382796288E0,-3.665160179E0,1.153188467E0
3.821431563E0,5.418264866E0,-3.700003386E0,1.111519575E0
3.823931563E0,5.460494041E0,-3.805073261E0,1.086544991E0
3.826431563E0,5.439466000E0,-3.917833805E0,1.075483084E0
3.828931563E0,5.359241962E0,-4.028045654E0,1.088885427E0
3.831431563E0,5.270781040E0,-4.120686531E0,1.085896254E0
3.833931563E0,5.235363483E0,-4.227991581E0,1.102817059E0
3.836431563E0,5.112930775E0,-4.365863323E0,1.144953370E0
3.838931563E0,5.007400036E0,-4.455932140E0,1.169284463E0
3.841431563E0,4.879583359E0,-4.568202019E0,1.261540413E0
3.843931563E0,4.680175781E0,-4.688744068E0,1.324581265E0
3.846431563E0,4.547688007E0,-4.764291286E0,1.351514220E0
3.848931563E0,4.426800728E0,-4.822170258E0,1.453953862E0
3.851431563E0,4.363465309E0,-4.877750397E0,1.509664297E0
3.853931563E0,4.253580093E0,-4.878252506E0,1.544039845E0
3.856431563E0,4.171475887E0,-4.847228050E0,1.501179814E0
3.858931563E0,4.080913067E0,-4.788102627E0,1.434126616E0
3.861431563E0,3.941857815E0,-4.687602997E0,1.348393202E0
3.863931563E0,3.802268505E0,-4.582103252E0,1.256843686E0
3.866431563E0,3.688161612E0,-4.435510635E0,1.160402298E0
3.868931563E0,3.671355486E0,-4.303646564E0,1.109341025E0
3.871431563E0,3.641839743E0,-4.154938698E0,1.030502915E0
3.873931563E0,3.604217291E0,-3.985930204E0,9.203664660E-1
3.876431563E0,3.554148436E0,-3.903557539E0,8.223871589E-1
3.878931563E0,3.483715296E0,-3.803248882E0,7.267359495E-1
3.881431563E0,3.498355865E0,-3.706861973E0,6.347829700E-1
3.883931563E0,3.452246666E0,-3.557309866E0,4.811552465E-1
3.886431563E0,3.475274086E0,-3.446070910E0,3.009897172E-1
3.888931563E0,3.448888779E0,-3.328777075E0,1.378470659E-1
3.891431563E0,3.408016920E0,-3.233675957E0,-7.803943753E-2
3.893931563E0,3.280572176E0,-3.194629431E0,-2.628290653E-1
3.896431563E0,3.166733503E0,-3.169605732E0,-4.886281788E-1
3.898931563E0,3.028017521E0,-3.210898399E0,-6.942139864E-1
3.901431563E0,2.943675280E0,-3.255735159E0,-8.962948918E-1
3.903931563E0,2.910250425E0,-3.327098846E0,-1.161946893E0
3.906431563E0,2.866559267E0,-3.432384491E0,-1.405303836E0
3.908931563E0,2.813373089E0,-3.577084303E0,-1.676138878E0
3.911431563E0,2.772722006E0,-3.802422285E0,-1.988187790E0
3.913931563E0,2.785757780E0,-4.032660484E0,-2.243017197E0
3.916431563E0,2.869230270E0,-4.275940418E0,-2.583628654E0
3.918931563E0,2.973135948E0,-4.556889057E0,-2.894412994E0
3.921431563E0,3.057792902E0,-4.927892685E0,-3.184102058E0
3.923931563E0,3.144236565E0,-5.308752537E0,-3.479160786E0
3.926431563E0,3.175538540E0,-5.669467926E0,-3.798782825E0
3.928931563E0,3.152020454E0,-6.042574406E0,-4.063160896E0
3.931431563E0,3.098343611E0,-6.408029556E0,-4.378113747E0
3.933931563E0,2.979644775E0,-6.786359787E0,-4.731468201E0
3.936431563E0,2.939946651E0,-7.187608242E0,-5.070707321E0
3.938931563E0,2.885273457E0,-7.606082439E0,-5.437932491E0
3.941431563E0,2.822983980E0,-8.012410164E0,-5.855143547E0
3.943931563E0,2.823764086E0,-8.451888084E0,-6.261230946E0
3.946431563E0,2.822117090E0,-8.837837219E0,-6.697638035E0
3.948931563E0,2.796759367E0,-9.257821083E0,-7.153426647E0
3.951431563E0,2.890095711E0,-9.689910889E0,-7.545443058E0
3.953931563E0,2.913030624E0,-1.011205196E1,-8.064762115E0
3.956431563E0,2.921489477E0,-1.054809475E1,-8.570891380E0
3.958931563E0,2.935973406E0,-1.096251392E1,-9.146326065E0
3.961431563E0,2.937821150E0,-1.140408897E1,-9.705541611E0
3.963931563E0,2.964119673E0,-1.183362484E1,-1.025105667E1
3.966431563E0,2.895183086E0,-1.227119350E1,-1.079432869E1
3.968931563E0,2.737462997E0,-1.272090721E1,-1.134813404E1
3.971431563E0,2.488951206E0,-1.323362446E1,-1.181253529E1
3.973931563E0,2.258790255E0,-1.376914597E1,-1.223053646E1
3.976431563E0,1.891631484E0,-1.425950241E1,-1.268565273E1
3.978931563E0,1.503844261E0,-1.478019428E1,-1.302082634E1
3.981431563E0,1.121273994E0,-1.530199146E1,-1.311222935E1
3.983931563E0,6.532261968E-1,-1.580724144E1,-1.310385990E1
3.986431563E0,3.138169348E-1,-1.629370880E1,-1.288171673E1
3.988931563E0,-2.003035694E-1,-1.679617310E1,-1.255889320E1
3.991431563E0,-7.269306183E-1,-1.722602081E1,-1.213928986E1
3.993931563E0,-1.108779430E0,-1.760802841E1,-1.158870888E1
3.996431563E0,-1.527972460E0,-1.783212280E1,-1.091332150E1
3.998931563E0,-1.725164175E0,-1.795832253E1,-1.018967915E1
4.001431563E0,-1.934765577E0,-1.793206978E1,-9.461354256E0
4.003931563E0,-2.203890324E0,-1.772431183E1,-8.717384338E0
4.006431563E0,-2.262353420E0,-1.738600349E1,-7.953539848E0
4.008931563E0,-2.147903442E0,-1.688923454E1,-7.188690186E0
4.011431563E0,-1.878976464E0,-1.627495956E1,-6.531333923E0
4.013931563E0,-1.396013141E0,-1.550948524E1,-6.091293812E0
4.016431563E0,-7.823541760E-1,-1.463870811E1,-5.858377934E0
4.018931563E0,-2.480851710E-1,-1.366857433E1,-5.816342354E0
4.021431563E0,1.671899557E-1,-1.260603809E1,-5.806130886E0
4.023931563E0,6.341998577E-1,-1.155579472E1,-5.708739758E0
4.026431563E0,1.191878915E0,-1.050389481E1,-5.480973244E0
4.028931563E0,1.759149432E0,-9.547807693E0,-5.064751625E0
4.031431563E0,2.372140169E0,-8.673678398E0,-4.625214100E0
4.033931563E0,2.983754635E0,-7.894176006E0,-4.154767036E0
4.036431563E0,3.505528212E0,-7.182148457E0,-3.658009768E0
4.038931563E0,3.946424246E0,-6.594388485E0,-3.106119871E0
4.041431563E0,4.380371571E0,-6.081382751E0,-2.581074476E0
4.043931563E0,4.808291912E0,-5.636499882E0,-2.081537485E0
4.046431563E0,5.298331738E0,-5.313223362E0,-1.536355853E0
4.048931563E0,5.785964489E0,-5.136073589E0,-8.044093251E-1
4.051431563E0,6.213085651E0,-5.069936752E0,5.516285077E-3
4.053931563E0,6.640425682E0,-5.044388771E0,8.232004642E-1
4.056431563E0,6.990805149E0,-5.148149014E0,1.548842549E0
4.058931563E0,7.083624363E0,-5.278923988E0,2.290885687E0
4.061431563E0,6.991977215E0,-5.443454742E0,2.987112999E0
4.063931563E0,6.893846512E0,-5.692151070E0,3.501158953E0
4.066431563E0,7.088079929E0,-6.072293282E0,3.534632683E0
4.068931563E0,7.263653755E0,-6.538876534E0,3.260358810E0
4.071431563E0,7.307098866E0,-7.048403740E0,2.844970226E0
4.073931563E0,7.237565041E0,-7.646846771E0,2.241039991E0
4.076431563E0,7.087837219E0,-8.336792946E0,1.485908508E0
4.078931563E0,6.903087139E0,-9.071749687E0,7.001371980E-1
4.081431563E0,6.718782902E0,-9.842437744E0,-1.408699993E-2
4.083931563E0,6.573667526E0,-1.066415310E1,-6.126953363E-1
4.086431563E0,6.385536194E0,-1.146362305E1,-9.282969832E-1
4.088931563E0,6.121485233E0,-1.218408585E1,-1.056579828E0
4.091431563E0,6.116078377E0,-1.298643970E1,-8.714319468E-1
4.093931563E0,5.967143536E0,-1.365949821E1,-4.916819632E-1
4.096431563E0,5.663425922E0,-1.419628620E1,-4.706499726E-2
4.098931563E0,5.385539055E0,-1.463015079E1,3.790470064E-1
4.101431563E0,5.038803101E0,-1.491848946E1,6.411463618E-1
4.103931563E0,4.910833836E0,-1.509559059E1,3.998551667E-1
4.106431563E0,5.194766045E0,-1.532649231E1,-4.280270040E-1
4.108931563E0,5.508224964E0,-1.552281666E1,-1.532864928E0
4.111431563E0,5.748438358E0,-1.580803013E1,-2.741508007E0
4.113931563E0,6.122950554E0,-1.615616608E1,-3.899272919E0
4.116431563E0,6.549233913E0,-1.657418633E1,-4.905466557E0
4.118931563E0,7.009346485E0,-1.687823868E1,-5.565108776E0
4.121431563E0,7.357573509E0,-1.703994942E1,-5.957404613E0
4.123931563E0,7.450588703E0,-1.702713013E1,-6.124978065E0
4.126431563E0,7.360913277E0,-1.683396912E1,-5.897996902E0
4.128931563E0,7.034853458E0,-1.635380936E1,-5.201898098E0
4.131431563E0,6.568720341E0,-1.559202003E1,-3.902525187E0
4.133931563E0,5.893255234E0,-1.460064316E1,-2.277827740E0
4.136431563E0,5.170765400E0,-1.332242393E1,-5.391711593E-1
4.138931563E0,4.481864452E0,-1.198571968E1,1.106903315E0
4.141431563E0,3.788703680E0,-1.054229546E1,2.533147573E0
4.143931563E0,3.232234478E0,-9.120529175E0,3.833141804E0
4.146431563E0,2.748575449E0,-7.791762352E0,5.012248039E0
4.148931563E0,2.298651218E0,-6.619905949E0,6.088379860E0
4.151431563E0,1.920277596E0,-5.552386761E0,7.060026169E0
4.153931563E0,1.527762890E0,-4.657726288E0,7.794891357E0
4.156431563E0,1.200226068E0,-3.865937471E0,8.279310226E0
4.158931563E0,1.211458445E0,-3.200123072E0,8.529766083E0
4.161431563E0,1.489666581E0,-2.724467278E0,8.836095810E0
4.163931563E0,1.828760982E0,-2.333828211E0,9.237234116E0
4.166431563E0,2.143011808E0,-1.999064326E0,9.622629166E0
4.168931563E0,2.400827885E0,-1.713860273E0,9.889801025E0
4.171431563E0,2.799638510E0,-1.450016737E0,1.029631901E1
4.173931563E0,3.319536209E0,-1.330237150E0,1.066687393E1
4.176431563E0,3.875354290E0,-1.242220759E0,1.089476585E1
4.178931563E0,4.326761246E0,-1.242063165E0,1.089801693E1
4.181431563E0,4.698313713E0,-1.316379070E0,1.067988396E1
4.183931563E0,4.967599392E0,-1.456377268E0,1.023486328E1
4.186431563E0,5.215835571E0,-1.638899684E0,9.684030533E0
4.188931563E0,5.367935181E0,-1.895086527E0,8.900863647E0
4.191431563E0,5.464295387E0,-2.304351568E0,8.042582512E0
4.193931563E0,5.492745876E0,-2.822586060E0,7.100709438E0
4.196431563E0,5.498680115E0,-3.400700331E0,6.140297890E0
4.198931563E0,5.583171368E0,-4.049983025E0,5.304301262E0
4.201431563E0,5.642722130E0,-4.741344452E0,4.645973206E0
4.203931563E0,5.689865589E0,-5.529006958E0,4.162067413E0
4.206431563E0,5.691312790E0,-6.279875278E0,3.779108524E0
4.208931563E0,5.669479847E0,-7.094962120E0,3.508512497E0
4.211431563E0,5.468802929E0,-7.886530399E0,3.196967602E0
4.213931563E0,5.183493137E0,-8.663463593E0,2.800589323E0
4.216431563E0,4.886716366E0,-9.472052574E0,2.387502193E0
4.218931563E0,4.508922100E0,-1.028748417E1,1.776673317E0
4.221431563E0,4.108177185E0,-1.109450054E1,1.157060266E0
4.223931563E0,3.596279383E0,-1.189978218E1,5.270770788E-1
4.226431563E0,3.018779755E0,-1.273613930E1,-1.333758980E-2
4.228931563E0,2.487973690E0,-1.349378300E1,-3.375899494E-1
4.231431563E0,1.925914884E0,-1.419633007E1,-6.319222450E-1
4.233931563E0,1.356993914E0,-1.481857395E1,-8.901952505E-1
4.236431563E0,7.094343901E-1,-1.542456055E1,-1.137766242E0
4.238931563E0,3.326589242E-2,-1.589866734E1,-1.248109341E0
4.241431563E0,-5.867432356E-1,-1.633952904E1,-1.365850091E0
4.243931563E0,-1.069140792E0,-1.671118546E1,-1.390379786E0
4.246431563E0,-1.104225397E0,-1.703890419E1,-1.280268669E0
4.248931563E0,-9.399715066E-1,-1.709350014E1,-1.153214216E0
4.251431563E0,-6.775516272E-1,-1.701040077E1,-1.110843182E0
4.253931563E0,-5.672846437E-1,-1.679698944E1,-1.091692448E0
4.256431563E0,-6.278039813E-1,-1.646613884E1,-1.075157285E0
4.258931563E0,-7.269820571E-1,-1.595457554E1,-1.090904355E0
4.261431563E0,-7.446351647E-1,-1.522077942E1,-1.130157471E0
4.263931563E0,-6.120755076E-1,-1.436995792E1,-1.190491676E0
4.266431563E0,-3.843902647E-1,-1.348623371E1,-1.241386294E0
4.268931563E0,-1.227242351E-1,-1.269792557E1,-1.228896618E0
4.271431563E0,1.096334774E-2,-1.195359516E1,-1.214671493E0
4.273931563E0,1.402217448E-1,-1.125974083E1,-1.128892303E0
4.276431563E0,2.533962131E-1,-1.069213390E1,-1.034845948E0
4.278931563E0,6.422271132E-1,-1.009030437E1,-9.865410328E-1
4.281431563E0,1.138665557E0,-9.486010551E0,-9.588631988E-1
4.283931563E0,1.611490965E0,-8.949151039E0,-8.918826580E-1
4.286431563E0,1.993504524E0,-8.463784218E0,-7.684736848E-1
4.288931563E0,2.207970381E0,-8.033398628E0,-6.956128478E-1
4.291431563E0,2.474048615E0,-7.606404305E0,-5.967967510E-1
4.293931563E0,2.728685617E0,-7.222553730E0,-4.874452651E-1
4.296431563E0,2.928019047E0,-6.884192944E0,-4.342601597E-1
4.298931563E0,3.197796106E0,-6.537505627E0,-2.991902828E-1
4.301431563E0,3.369495630E0,-6.285703182E0,-2.021023631E-1
4.303931563E0,3.486373425E0,-6.060046196E0,-6.183777377E-2
4.306431563E0,3.608180046E0,-5.876936436E0,9.362722188E-2
4.308931563E0,3.623037338E0,-5.745040417E0,2.466454953E-1
4.311431563E0,3.637169838E0,-5.697612286E0,3.489778936E-1
4.313931563E0,3.662709951E0,-5.675702095E0,4.372888803E-1
4.316431563E0,3.654074192E0,-5.670679569E0,5.047510266E-1
4.318931563E0,3.672186852E0,-5.751847267E0,6.513367891E-1
4.321431563E0,3.652489424E0,-5.800362587E0,8.242271543E-1
4.323931563E0,3.639170647E0,-5.927513599E0,1.008114219E0
4.326431563E0,3.582854509E0,-6.049438000E0,1.247242451E0
4.328931563E0,3.490313768E0,-6.260059834E0,1.472802043E0
4.331431563E0,3.370745897E0,-6.469273567E0,1.713928223E0
4.333931563E0,3.255570889E0,-6.709612370E0,1.993161559E0
4.336431563E0,3.128080368E0,-6.954483986E0,2.206023216E0
4.338931563E0,2.976326704E0,-7.242811203E0,2.416287184E0
4.341431563E0,2.895560265E0,-7.522444725E0,2.550979376E0
4.343931563E0,2.808272123E0,-7.845720768E0,2.645573139E0
4.346431563E0,2.737764835E0,-8.145050049E0,2.666198015E0
4.348931563E0,2.647930384E0,-8.506836891E0,2.624972343E0
4.351431563E0,2.504215479E0,-8.875577927E0,2.564687967E0
4.353931563E0,2.350978851E0,-9.218532562E0,2.411677837E0
4.356431563E0,2.184046507E0,-9.599275589E0,2.231416941E0
4.358931563E0,1.994332314E0,-9.957201004E0,1.972133994E0
4.361431563E0,1.832331896E0,-1.024709892E1,1.702351451E0
4.363931563E0,1.625331640E0,-1.055515385E1,1.410575628E0
4.366431563E0,1.380687833E0,-1.077607155E1,1.120570421E0
4.368931563E0,1.074579477E0,-1.098705578E1,9.066809416E-1
4.371431563E0,8.124502301E-1,-1.109833241E1,7.082419395E-1
4.373931563E0,6.473929882E-1,-1.124177170E1,5.287469029E-1
4.376431563E0,5.129303336E-1,-1.134433079E1,4.006601274E-1
4.378931563E0,3.114859462E-1,-1.136602306E1,2.461408079E-1
4.381431563E0,9.064955264E-2,-1.130653000E1,1.785459816E-1
4.383931563E0,-9.168639779E-2,-1.127513599E1,7.990712672E-2
4.386431563E0,-2.376237363E-1,-1.119668388E1,1.913997903E-2
4.388931563E0,-3.475888073E-1,-1.110072422E1,-3.352004103E-3
4.391431563E0,-4.606035650E-1,-1.100403690E1,-7.804422826E-2
4.393931563E0,-5.352538824E-1,-1.090714169E1,-8.739762008E-2
4.396431563E0,-6.035439968E-1,-1.078435993E1,-8.923587948E-2
4.398931563E0,-6.572712660E-1,-1.066948891E1,-4.399736971E-2
4.401431563E0,-7.260206342E-1,-1.057073307E1,-6.084009260E-2
4.403931563E0,-7.525386214E-1,-1.042909622E1,-4.367236793E-2
4.406431563E0,-7.182017565E-1,-1.030646706E1,-2.077410184E-2
4.408931563E0,-7.203655839E-1,-1.018184376E1,1.263605081E-3
4.411431563E0,-6.344431639E-1,-1.005691242E1,8.595276624E-2
4.413931563E0,-4.331321418E-1,-9.934307098E0,1.369966567E-1
4.416431563E0,-2.542159259E-1,-9.812975883E0,2.204275280E-1
4.418931563E0,-2.972225472E-2,-9.682483673E0,3.203525841E-1
4.421431563E0,1.614808589E-1,-9.502511978E0,4.301251173E-1
4.423931563E0,3.671637177E-1,-9.339636803E0,5.292231441E-1
4.426431563E0,5.448291302E-1,-9.201689720E0,6.490805745E-1
4.428931563E0,7.756531835E-1,-9.071370125E0,7.359030843E-1
4.431431563E0,1.012487888E0,-8.931004524E0,7.717723250E-1
4.433931563E0,1.278327465E0,-8.828994751E0,8.454219699E-1
4.436431563E0,1.529406786E0,-8.701451302E0,9.460505843E-1
4.438931563E0,1.797315359E0,-8.550400734E0,9.860228896E-1
4.441431563E0,2.125637293E0,-8.407237053E0,1.085762024E0
4.443931563E0,2.471201420E0,-8.303779602E0,1.176338911E0
4.446431563E0,2.754317045E0,-8.216191292E0,1.252875447E0
4.448931563E0,3.073812246E0,-8.115335464E0,1.263059020E0
4.451431563E0,3.371187449E0,-8.051190376E0,1.310884595E0
4.453931563E0,3.657312632E0,-7.988123417E0,1.328760505E0
4.456431563E0,3.880548716E0,-7.908451080E0,1.289316773E0
4.458931563E0,4.159285545E0,-7.832146168E0,1.226909161E0
4.461431563E0,4.390976906E0,-7.782815456E0,1.238129973E0
4.463931563E0,4.682745457E0,-7.694968700E0,1.269972086E0
4.466431563E0,4.939262867E0,-7.626088619E0,1.316237807E0
4.468931563E0,5.136750221E0,-7.600806236E0,1.313613653E0
4.471431563E0,5.322146416E0,-7.632084846E0,1.259439349E0
4.473931563E0,5.461449146E0,-7.698094845E0,1.126049042E0
4.476431563E0,5.504259586E0,-7.788840294E0,9.104986191E-1
4.478931563E0,5.560223103E0,-7.933298588E0,6.675795317E-1
4.481431563E0,5.510708332E0,-8.095245361E0,3.968427181E-1
4.483931563E0,5.446579456E0,-8.315137863E0,1.462983787E-1
4.486431563E0,5.333681107E0,-8.537139893E0,-1.034126803E-1
4.488931563E0,5.154744148E0,-8.757856369E0,-3.636975884E-1
4.491431563E0,4.940911770E0,-8.957455635E0,-5.719776750E-1
4.493931563E0,4.703394890E0,-9.173057556E0,-7.068439126E-1
4.496431563E0,4.405843735E0,-9.363930702E0,-7.994158864E-1
4.498931563E0,4.131060600E0,-9.485022545E0,-8.416534066E-1
4.501431563E0,3.828189611E0,-9.603015900E0,-7.970426679E-1
4.503931563E0,3.533535004E0,-9.707233429E0,-7.033184767E-1
4.506431563E0,3.266649485E0,-9.780373573E0,-5.707311034E-1
4.508931563E0,2.986526728E0,-9.865374565E0,-3.983350098E-1
4.511431563E0,2.716576338E0,-9.970285416E0,-2.163751721E-1
4.513931563E0,2.435106516E0,-1.001961803E1,-3.505229950E-2
4.516431563E0,2.201315403E0,-1.010149670E1,1.323374063E-1
4.518931563E0,1.948873758E0,-1.018489075E1,2.582428455E-1
4.521431563E0,1.705134034E0,-1.026215553E1,3.599575162E-1
4.523931563E0,1.485044956E0,-1.031935692E1,4.041376710E-1
4.526431563E0,1.257138491E0,-1.039444542E1,3.730095029E-1
4.528931563E0,1.038341641E0,-1.045471859E1,3.013087213E-1
4.531431563E0,8.314781189E-1,-1.049454594E1,1.593246311E-1
4.533931563E0,6.851364374E-1,-1.059510517E1,-5.566781387E-2
4.536431563E0,5.772261620E-1,-1.068823338E1,-3.169052005E-1
4.538931563E0,5.008986592E-1,-1.084735870E1,-6.176635027E-1
4.541431563E0,4.680054486E-1,-1.090891171E1,-8.663553596E-1
4.543931563E0,4.733245671E-1,-1.102424526E1,-1.119820833E0
4.546431563E0,4.966573715E-1,-1.113435078E1,-1.317993283E0
4.548931563E0,5.675312281E-1,-1.123475933E1,-1.512094378E0
4.551431563E0,6.316579580E-1,-1.134654617E1,-1.617852569E0
4.553931563E0,7.142247558E-1,-1.142656326E1,-1.659864068E0
4.556431563E0,8.261845708E-1,-1.145781612E1,-1.649844646E0
4.558931563E0,8.647347093E-1,-1.147937012E1,-1.604691029E0
4.561431563E0,9.578230381E-1,-1.150636196E1,-1.499575377E0
4.563931563E0,1.060642600E0,-1.153744316E1,-1.387104511E0
4.566431563E0,1.145509720E0,-1.154358482E1,-1.205437541E0
4.568931563E0,1.246125460E0,-1.154880238E1,-1.041715145E0
4.571431563E0,1.383319378E0,-1.158152771E1,-8.807586432E-1
4.573931563E0,1.524745464E0,-1.158461761E1,-7.141920924E-1
4.576431563E0,1.619080901E0,-1.158700466E1,-5.812155604E-1
4.578931563E0,1.736323953E0,-1.158268070E1,-4.321366251E-1
4.581431563E0,1.886428475E0,-1.152752113E1,-2.375785857E-1
4.583931563E0,2.047231197E0,-1.146768856E1,-9.394818544E-2
4.586431563E0,2.187298775E0,-1.138013649E1,1.135802865E-1
4.588931563E0,2.335824251E0,-1.119839954E1,3.520656228E-1
4.591431563E0,2.537652731E0,-1.119811535E1,4.191745520E-1
4.593931563E0,2.662694931E0,-1.120150852E1,4.824457169E-1
4.596431563E0,2.783687592E0,-1.112391663E1,5.818701386E-1
4.598931563E0,2.930822849E0,-1.098450661E1,7.049613595E-1
4.601431563E0,3.139577866E0,-1.097132587E1,7.685093284E-1
4.603931563E0,3.302052021E0,-1.089550686E1,9.184460640E-1
4.606431563E0,3.498818636E0,-1.075325775E1,1.119953394E0
4.608931563E0,3.713576794E0,-1.086958694E1,1.094929695E0
4.611431563E0,3.782190561E0,-1.095061588E1,1.024254322E0
4.613931563E0,3.766325951E0,-1.099512959E1,9.992838502E-1
4.616431563E0,3.624037981E0,-1.089241695E1,1.107821584E0
4.618931563E0,3.613943577E0,-1.099464035E1,9.240382910E-1
4.621431563E0,3.400046825E0,-1.114091492E1,7.421295047E-1
4.623931563E0,3.201577902E0,-1.125831890E1,7.215645313E-1
4.626431563E0,3.041798830E0,-1.144442368E1,6.654478312E-1
4.628931563E0,2.818800449E0,-1.184149265E1,5.212689042E-1
4.631431563E0,2.547399998E0,-1.221553612E1,4.052424431E-1
4.633931563E0,2.338832378E0,-1.259198380E1,4.083015919E-1
4.636431563E0,2.141422987E0,-1.291955757E1,4.995696843E-1
4.638931563E0,1.879880786E0,-1.343153095E1,4.115040302E-1
4.641431563E0,1.624630928E0,-1.398252201E1,2.677288949E-1
4.643931563E0,1.327787638E0,-1.444369984E1,2.040224075E-1
4.646431563E0,1.036041260E0,-1.481892395E1,1.601794362E-1
4.648931563E0,6.951200366E-1,-1.511771870E1,1.137422547E-1
4.651431563E0,4.587393105E-1,-1.533578491E1,8.154409379E-2
4.653931563E0,1.542619467E-1,-1.550442028E1,-2.615138143E-2
4.656431563E0,-9.828427434E-2,-1.559795952E1,-1.218026355E-1
4.658931563E0,-3.198565543E-1,-1.560918713E1,-2.999054492E-1
4.661431563E0,-5.295175314E-1,-1.564889717E1,-5.301499367E-1
4.663931563E0,-6.757817864E-1,-1.561246967E1,-7.931908369E-1
4.666431563E0,-7.797175050E-1,-1.553568745E1,-1.054674983E0
4.668931563E0,-8.034105301E-1,-1.539654446E1,-1.291072488E0
4.671431563E0,-7.832107544E-1,-1.523946667E1,-1.539800286E0
4.673931563E0,-6.362763047E-1,-1.505886364E1,-1.771691084E0
4.676431563E0,-4.008094966E-1,-1.483424854E1,-1.972287059E0
4.678931563E0,-1.484278142E-1,-1.452476883E1,-2.123039007E0
4.681431563E0,1.677349210E-1,-1.417667866E1,-2.250993252E0
4.683931563E0,5.530983210E-1,-1.383166027E1,-2.319528103E0
4.686431563E0,1.013128519E0,-1.341279793E1,-2.365397692E0
4.688931563E0,1.451289892E0,-1.294294357E1,-2.391783953E0
4.691431563E0,1.862431645E0,-1.237506390E1,-2.262352467E0
4.693931563E0,2.523743868E0,-1.181347275E1,-2.291156769E0
4.696431563E0,2.946728230E0,-1.110197163E1,-2.287966490E0
4.698931563E0,3.381346464E0,-1.042647934E1,-2.284718752E0
4.701431563E0,3.724504948E0,-9.761077881E0,-2.296302319E0
4.703931563E0,4.067891598E0,-9.141709328E0,-2.345015049E0
4.706431563E0,4.356380463E0,-8.618370056E0,-2.443216801E0
4.708931563E0,4.611297131E0,-8.184425354E0,-2.535736322E0
4.711431563E0,4.767207623E0,-7.876184940E0,-2.447930574E0
4.713931563E0,5.385753632E0,-7.734054565E0,-2.861578465E0
4.716431563E0,5.639960766E0,-7.475420475E0,-2.969734430E0
4.718931563E0,5.871610641E0,-7.322989464E0,-3.148906946E0
4.721431563E0,6.093446255E0,-7.296943188E0,-3.346375227E0
4.723931563E0,6.227992058E0,-7.319971085E0,-3.529966116E0
4.726431563E0,6.308597565E0,-7.402013779E0,-3.691070318E0
4.728931563E0,6.306716919E0,-7.551867008E0,-3.806427717E0
4.731431563E0,6.301143169E0,-7.774812222E0,-3.905792952E0
4.733931563E0,6.270583630E0,-8.068566322E0,-3.978867769E0
4.736431563E0,6.261616707E0,-8.436096191E0,-3.960345030E0
4.738931563E0,6.280900955E0,-8.827517509E0,-3.826049805E0
4.741431563E0,6.379306316E0,-9.264257431E0,-3.615529060E0
4.743931563E0,6.474051952E0,-9.737298012E0,-3.284691334E0
4.746431563E0,6.625779152E0,-1.020416451E1,-2.842003822E0
4.748931563E0,6.810169697E0,-1.064858818E1,-2.273831367E0
4.751431563E0,7.008500576E0,-1.106069279E1,-1.660710692E0
4.753931563E0,7.121472836E0,-1.140612507E1,-9.614396691E-1
4.756431563E0,7.225792408E0,-1.180601788E1,-2.723347843E-1
4.758931563E0,7.266936302E0,-1.219968891E1,4.230847657E-1
4.761431563E0,7.265779018E0,-1.259011459E1,1.010639668E0
4.763931563E0,7.262634277E0,-1.304095554E1,1.603463411E0
4.766431563E0,7.216135502E0,-1.344884014E1,2.035751104E0
4.768931563E0,7.018492699E0,-1.387403584E1,2.376984358E0
4.771431563E0,6.807473183E0,-1.430856419E1,2.587814093E0
4.773931563E0,6.580975056E0,-1.465890884E1,2.728248119E0
4.776431563E0,6.271925449E0,-1.495195770E1,2.831928968E0
4.778931563E0,5.929208279E0,-1.518811417E1,2.823300600E0
4.781431563E0,5.552985191E0,-1.537360096E1,2.726206064E0
4.783931563E0,5.118732452E0,-1.547812176E1,2.454442024E0
4.786431563E0,4.697600365E0,-1.548311234E1,2.330914974E0
4.788931563E0,4.311608791E0,-1.541685009E1,2.261726856E0
4.791431563E0,4.017704964E0,-1.523069954E1,2.267606497E0
4.793931563E0,3.787453651E0,-1.494530296E1,2.341652155E0
4.796431563E0,3.408594608E0,-1.466191101E1,2.377558231E0
4.798931563E0,2.772875547E0,-1.442118645E1,2.600270033E0
4.801431563E0,2.286890268E0,-1.415191174E1,2.856490374E0
4.803931563E0,1.883737445E0,-1.385808086E1,2.982259750E0
4.806431563E0,1.542966962E0,-1.359049320E1,2.932932854E0
4.808931563E0,1.067151308E0,-1.345582294E1,2.736911058E0
4.811431563E0,7.951467633E-1,-1.344055748E1,2.514465570E0
4.813931563E0,7.215957642E-1,-1.335193634E1,2.329791784E0
4.816431563E0,7.717154622E-1,-1.325551319E1,2.200815439E0
4.818931563E0,7.165896297E-1,-1.313213348E1,2.131257296E0
4.821431563E0,6.322048903E-1,-1.308650970E1,2.134880781E0
4.823931563E0,5.908492208E-1,-1.295442200E1,2.160065174E0
4.826431563E0,5.198693871E-1,-1.283570862E1,2.209626913E0
4.828931563E0,4.358744919E-1,-1.277283764E1,2.251911163E0
4.831431563E0,3.467242420E-1,-1.267112350E1,2.238859892E0
4.833931563E0,2.895026505E-1,-1.259873962E1,2.154536724E0
4.836431563E0,2.194627821E-1,-1.253097534E1,1.979878187E0
4.838931563E0,1.379429251E-1,-1.241721630E1,1.737067342E0
4.841431563E0,1.067293063E-1,-1.228799152E1,1.454515576E0
4.843931563E0,-3.317622468E-2,-1.216567039E1,1.188679576E0
4.846431563E0,-7.135234028E-2,-1.204515743E1,8.890674710E-1
4.848931563E0,-5.829435587E-2,-1.189090252E1,7.123141289E-1
4.851431563E0,-1.647150703E-2,-1.168024254E1,5.751462579E-1
4.853931563E0,-2.954509296E-2,-1.148302746E1,5.406122208E-1
4.856431563E0,-1.640088297E-2,-1.131563473E1,5.800672174E-1
4.858931563E0,5.041251332E-2,-1.111779404E1,6.499506831E-1
4.861431563E0,5.314859748E-2,-1.091272259E1,7.569182515E-1
4.863931563E0,1.520417184E-1,-1.075140858E1,8.469386697E-1
4.866431563E0,2.403532267E-1,-1.054805660E1,9.746614695E-1
4.868931563E0,3.697690070E-1,-1.034845161E1,1.085589409E0
4.871431563E0,5.422527194E-1,-1.013336563E1,1.213496804E0
4.873931563E0,6.560909152E-1,-9.957421303E0,1.345679045E0
4.876431563E0,8.540442586E-1,-9.725541115E0,1.432474256E0
4.878931563E0,1.016795635E0,-9.517540932E0,1.562345743E0
4.881431563E0,1.161975861E0,-9.331766129E0,1.661243677E0
4.883931563E0,1.333268762E0,-9.153510094E0,1.752601027E0
4.886431563E0,1.501087070E0,-8.969889641E0,1.798712492E0
4.888931563E0,1.676188111E0,-8.809483528E0,1.803559542E0
4.891431563E0,1.866508842E0,-8.610473633E0,1.743392467E0
4.893931563E0,1.993610740E0,-8.427560806E0,1.642137527E0
4.896431563E0,2.140437603E0,-8.222082138E0,1.509879351E0
4.898931563E0,2.303915977E0,-7.978776932E0,1.404598594E0
4.901431563E0,2.515699148E0,-7.743048191E0,1.366537094E0
4.903931563E0,2.680627346E0,-7.477291584E0,1.314666390E0
4.906431563E0,2.856512785E0,-7.203867435E0,1.244344115E0
4.908931563E0,2.996063471E0,-6.926282406E0,1.193440080E0
4.911431563E0,3.132732868E0,-6.648995399E0,1.066887021E0
4.913931563E0,3.242156982E0,-6.321596622E0,9.788534045E-1
4.916431563E0,3.326985359E0,-6.037014008E0,9.068061113E-1
4.918931563E0,3.434653759E0,-5.729297638E0,8.651000261E-1
4.921431563E0,3.475246429E0,-5.452224255E0,8.283980489E-1
4.923931563E0,3.476041079E0,-5.174863815E0,7.972428203E-1
4.926431563E0,3.485469103E0,-4.888453007E0,7.836440206E-1
4.928931563E0,3.544126987E0,-4.679481983E0,8.142452240E-1
4.931431563E0,3.607445478E0,-4.463376999E0,8.171961904E-1
4.933931563E0,3.599407434E0,-4.220829487E0,8.940018415E-1
4.936431563E0,3.571173668E0,-4.092010498E0,9.467239976E-1
4.938931563E0,3.550624609E0,-3.953160524E0,1.047865510E0
4.941431563E0,3.552100420E0,-3.820124388E0,1.118280888E0
4.943931563E0,3.558063745E0,-3.715245485E0,1.146332860E0
4.946431563E0,3.636389971E0,-3.669973850E0,1.200049639E0
4.948931563E0,3.783483982E0,-3.579051971E0,1.270546913E0
4.951431563E0,3.918447733E0,-3.452299118E0,1.364646912E0
4.953931563E0,4.115406513E0,-3.381457090E0,1.485581875E0
4.956431563E0,4.258733273E0,-3.277694464E0,1.521451116E0
4.958931563E0,4.365917206E0,-3.263004541E0,1.547717810E0
4.961431563E0,4.478518963E0,-3.321160793E0,1.570041299E0
4.963931563E0,4.553451538E0,-3.366451979E0,1.521812677E0
4.966431563E0,4.673580647E0,-3.450469732E0,1.470172048E0
4.968931563E0,4.716626644E0,-3.500380039E0,1.399476051E0
4.971431563E0,4.792432785E0,-3.597127676E0,1.350023031E0
4.973931563E0,4.910431385E0,-3.666123629E0,1.289170742E0
4.976431563E0,5.034410477E0,-3.775164604E0,1.185268998E0
4.978931563E0,5.061583996E0,-3.912120104E0,1.096886873E0
4.981431563E0,5.083682060E0,-4.059226990E0,1.034415007E0
4.983931563E0,5.116713524E0,-4.176694870E0,9.867988229E-1
4.986431563E0,5.210887909E0,-4.340813637E0,9.666836262E-1
4.988931563E0,5.211628437E0,-4.463150501E0,9.593575597E-1
4.991431563E0,5.265565872E0,-4.601150036E0,9.862928391E-1
4.993931563E0,5.232882023E0,-4.765213966E0,1.049357891E0
4.996431563E0,5.136065483E0,-4.891270161E0,1.131192446E0
4.998931563E0,5.171994686E0,-4.942145348E0,1.211959124E0
5.001431563E0,5.102808475E0,-5.070097446E0,1.312602162E0
5.003931563E0,5.075216293E0,-5.138833046E0,1.480203271E0
5.006431563E0,5.072227001E0,-5.214981079E0,1.622835159E0
5.008931563E0,5.049666405E0,-5.252137184E0,1.697628498E0
5.011431563E0,5.085501671E0,-5.244307995E0,1.703640699E0
5.013931563E0,5.178223610E0,-5.306616783E0,1.642035484E0
5.016431563E0,5.147567272E0,-5.240005970E0,1.549288750E0
5.018931563E0,5.060834885E0,-5.128035069E0,1.483608842E0
5.021431563E0,4.935266018E0,-4.997686863E0,1.432030678E0
5.023931563E0,4.841930866E0,-4.856660366E0,1.377683878E0
5.026431563E0,4.693757534E0,-4.661727428E0,1.326869130E0
5.028931563E0,4.631751537E0,-4.456730366E0,1.273119450E0
5.031431563E0,4.584027767E0,-4.261304855E0,1.224572659E0
5.033931563E0,4.553768158E0,-4.051426411E0,1.083875179E0
5.036431563E0,4.531152248E0,-3.891717196E0,9.412595630E-1
5.038931563E0,4.552904129E0,-3.717980862E0,7.973465919E-1
5.041431563E0,4.526500702E0,-3.523888588E0,6.384260058E-1
5.043931563E0,4.491133690E0,-3.364766359E0,4.851070046E-1
5.046431563E0,4.470245838E0,-3.250568151E0,2.894973457E-1
5.048931563E0,4.408384800E0,-3.173630953E0,1.139197350E-1
5.051431563E0,4.330204010E0,-3.134084225E0,-6.474156678E-2
5.053931563E0,4.289512634E0,-3.125356674E0,-2.638549805E-1
5.056431563E0,4.159085751E0,-3.135432720E0,-5.051102042E-1
5.058931563E0,4.040932655E0,-3.197196722E0,-6.739104986E-1
5.061431563E0,3.884264946E0,-3.295944452E0,-8.823772669E-1
5.063931563E0,3.741343737E0,-3.451644421E0,-1.152253270E0
5.066431563E0,3.533127785E0,-3.695550919E0,-1.368661165E0
5.068931563E0,3.541641712E0,-3.871026993E0,-1.610885262E0
5.071431563E0,3.695003986E0,-4.014418602E0,-1.967336178E0
5.073931563E0,3.690047979E0,-4.205422401E0,-2.327209949E0
5.076431563E0,3.487164974E0,-4.476124287E0,-2.656234741E0
5.078931563E0,3.290218592E0,-4.749107838E0,-3.035941362E0
5.081431563E0,3.114258051E0,-5.040626049E0,-3.408400059E0
5.083931563E0,3.048965216E0,-5.409385204E0,-3.786691427E0
5.086431563E0,3.017919779E0,-5.818842888E0,-4.156067371E0
5.088931563E0,2.943081141E0,-6.254577160E0,-4.595354080E0
5.091431563E0,2.863322258E0,-6.703618526E0,-5.029720783E0
5.093931563E0,2.692675114E0,-7.176532745E0,-5.547891140E0
5.096431563E0,2.599272251E0,-7.634605408E0,-6.103943825E0
5.098931563E0,2.522306204E0,-8.106939316E0,-6.666380882E0
5.101431563E0,2.497431993E0,-8.592233658E0,-7.252821445E0
5.103931563E0,2.478853703E0,-9.077725410E0,-7.867699146E0
5.106431563E0,2.416702032E0,-9.530726433E0,-8.496029854E0
5.108931563E0,2.346151590E0,-9.978018761E0,-9.125171661E0
5.111431563E0,2.174111366E0,-1.043535137E1,-9.662627220E0
5.113931563E0,2.076789379E0,-1.088081741E1,-1.008605003E1
5.116431563E0,2.054417610E0,-1.134043598E1,-1.050311947E1
5.118931563E0,2.146641016E0,-1.179906559E1,-1.087412071E1
5.121431563E0,2.197149754E0,-1.224615192E1,-1.120987320E1
5.123931563E0,2.195878029E0,-1.258405972E1,-1.154409504E1
5.126431563E0,2.049524307E0,-1.300997639E1,-1.186811066E1
5.128931563E0,2.016690731E0,-1.346822262E1,-1.218748760E1
5.131431563E0,1.873797774E0,-1.388443375E1,-1.250542068E1
