"Time (s)","Gyroscope x (rad/s)","Gyroscope y (rad/s)","Gyroscope z (rad/s)"
1.008578100E-2,-8.746087551E-1,1.240005612E0,2.024064213E-1
1.512171300E-2,-8.959147334E-1,1.240005612E0,1.789698899E-1
2.018816500E-2,-9.449183941E-1,1.212307930E0,1.043990999E-1
2.507656500E-2,-9.992485046E-1,1.198459029E0,3.302420676E-2
3.033104400E-2,-1.048252225E0,1.213373184E0,-2.343653329E-2
3.537807600E-2,-1.088733435E0,1.242136240E0,-6.072192639E-2
4.041406600E-2,-1.101517081E0,1.251723886E0,-8.415845782E-2
4.545448400E-2,-1.069558144E0,1.179283738E0,-9.055023640E-2
5.053547300E-2,-1.009901524E0,1.047186852E0,-8.841964602E-2
5.554453700E-2,-9.427877665E-1,9.097635746E-1,-8.309315890E-2
6.068089000E-2,-9.086982608E-1,7.691444159E-1,-6.924430281E-2
6.568162100E-2,-9.406571984E-1,6.945735812E-1,-3.728539124E-2
7.078714200E-2,-1.029076815E0,7.702096701E-1,7.457078435E-3
7.580370500E-2,-1.149455428E0,9.310694933E-1,6.817900389E-2
8.090292400E-2,-1.294335723E0,1.047186852E0,1.502068639E-1
8.591756100E-2,-1.407257199E0,1.137737155E0,2.364959270E-1
9.099521700E-2,-1.458391547E0,1.210177302E0,2.897607684E-1
9.603542600E-2,-1.453065038E0,1.244266868E0,2.993484437E-1
1.011908950E-1,-1.398734927E0,1.237874985E0,2.780424953E-1
1.061598020E-1,-1.313511133E0,1.153716564E0,2.407571077E-1
1.112691250E-1,-1.200589657E0,1.007770896E0,1.992105246E-1
1.162742820E-1,-1.072754025E0,8.564987183E-1,1.544680595E-1
1.215488650E-1,-9.427877665E-1,6.839206219E-1,1.299662292E-1
1.264026160E-1,-8.000379801E-1,4.942977726E-1,1.320968270E-1
1.315191270E-1,-6.508964300E-1,3.195890784E-1,1.555333585E-1
1.366805340E-1,-5.198649168E-1,1.970799267E-1,1.619251370E-1
1.416472530E-1,-3.867027760E-1,1.374233067E-1,1.853616685E-1
1.465447020E-1,-2.375612110E-1,9.800732136E-2,2.226470560E-1
1.517175140E-1,-8.948494494E-2,1.107908785E-1,1.384886056E-1
1.567987650E-1,5.006895587E-2,2.450182885E-1,-1.001379117E-1
1.618231920E-1,2.183858752E-1,5.273219943E-1,-3.131972849E-1
1.669090270E-1,3.270461559E-1,8.085603714E-1,-3.941598535E-1
1.720036100E-1,2.908260524E-1,9.587672353E-1,-4.175963998E-1
1.770198610E-1,1.757739931E-1,1.040795088E0,-3.930945694E-1
1.820246000E-1,8.628904819E-2,1.101517081E0,-3.462215066E-1
1.871671020E-1,4.261187837E-2,1.072754025E0,-3.376991153E-1
1.922602790E-1,1.491415687E-2,9.278736115E-1,-3.717886209E-1
1.972226240E-1,4.261187743E-3,7.169448137E-1,-3.930945694E-1
2.022736650E-1,1.704475097E-2,5.379749537E-1,-3.973557651E-1
2.073178330E-1,4.793836176E-2,4.911018908E-1,-4.389023483E-1
2.125061140E-1,5.859133229E-2,5.539544225E-1,-5.081466436E-1
2.175083550E-1,4.900366068E-2,6.157416105E-1,-4.900365770E-1
2.225109070E-1,6.178722158E-2,6.498311162E-1,-4.058781266E-1
2.277060640E-1,1.043990999E-1,6.487658620E-1,-3.313073516E-1
2.326820010E-1,1.512721628E-1,6.210681200E-1,-2.950872481E-1
2.376513780E-1,1.864269674E-1,6.210681200E-1,-2.854995728E-1
2.427788710E-1,2.141246796E-1,6.679411530E-1,-2.492794842E-1
2.479640350E-1,2.482141852E-1,6.817900538E-1,-1.384886056E-1
2.530187220E-1,3.046749234E-1,6.285251975E-1,2.876301669E-2
2.580383590E-1,3.717886209E-1,5.102772117E-1,1.811004728E-1
2.630395050E-1,3.909639716E-1,3.302420378E-1,2.343653291E-1
2.681436720E-1,3.536785841E-1,1.885575503E-1,1.874922663E-1
2.732616410E-1,3.153278828E-1,1.683169156E-1,1.289009303E-1
2.782518500E-1,3.036096394E-1,2.471488863E-1,1.139867753E-1
2.833752880E-1,3.313073516E-1,3.898986876E-1,1.448803842E-1
2.884160700E-1,3.781804144E-1,5.752603412E-1,2.002758235E-1
2.935138300E-1,4.133352041E-1,7.212060094E-1,2.503447831E-1
2.985122170E-1,4.293146729E-1,7.499690652E-1,2.631283402E-1
3.036226860E-1,4.516859055E-1,6.785941720E-1,2.130593807E-1
3.085087810E-1,5.081466436E-1,5.379749537E-1,1.171826646E-1
3.137690930E-1,5.731297731E-1,4.346411526E-1,4.261187837E-2
3.188438860E-1,6.306557655E-1,4.048128426E-1,1.491415687E-2
3.237886770E-1,7.052266002E-1,3.664621413E-1,2.024064213E-2
3.289393030E-1,8.053644896E-1,3.046749234E-1,3.195890784E-2
3.339897720E-1,8.916535378E-1,2.492794842E-1,2.556712553E-2
3.389843040E-1,9.374613166E-1,2.183858752E-1,1.065296936E-3
3.441272730E-1,9.172206521E-1,2.578018606E-1,-1.171826664E-2
3.491621180E-1,8.479763865E-1,4.197269976E-1,2.343653329E-2
3.541601910E-1,7.659484744E-1,6.253293157E-1,8.841964602E-2
3.593079000E-1,6.988347769E-1,7.904503345E-1,1.289009303E-1
3.642661290E-1,6.519617438E-1,9.150900841E-1,1.139867753E-1
3.693549840E-1,5.816521049E-1,9.598325491E-1,4.793836176E-2
3.743430570E-1,4.868406951E-1,8.884576559E-1,-3.728539124E-2
3.793492040E-1,3.867027760E-1,7.904503345E-1,-1.257050335E-1
3.846297770E-1,2.886954844E-1,7.084224820E-1,-2.024064213E-1
3.896162890E-1,2.258429527E-1,6.402434707E-1,-2.546059787E-1
3.947194650E-1,2.269082516E-1,6.295905113E-1,-2.748466134E-1
3.997359250E-1,2.769772112E-1,6.604840755E-1,-2.450182885E-1
4.048239980E-1,3.440909088E-1,7.169448137E-1,-1.374233067E-1
4.098130610E-1,4.154658020E-1,7.936462164E-1,4.154657945E-2
4.150089470E-1,5.070813298E-1,8.788699508E-1,2.141246796E-1
4.199581670E-1,5.827174187E-1,9.534407854E-1,3.302420378E-1
4.249518640E-1,6.114804149E-1,9.513101578E-1,4.026822448E-1
4.299588970E-1,5.795215368E-1,8.916535378E-1,4.261187613E-1
4.350875940E-1,5.177342892E-1,8.437151909E-1,4.069434404E-1
4.402466580E-1,4.452941120E-1,8.394539952E-1,3.622009456E-1
4.452793140E-1,3.707233369E-1,8.841964602E-1,3.089361191E-1
4.503390030E-1,3.025443256E-1,9.118942022E-1,2.492794842E-1
4.555221800E-1,2.301041335E-1,9.055023789E-1,1.928187460E-1
4.604570770E-1,1.704475135E-1,8.969800472E-1,1.416844875E-1
4.654359830E-1,1.459456831E-1,8.415845633E-1,9.374613315E-2
4.705974430E-1,1.299662292E-1,7.744708657E-1,3.941598535E-2
4.759454630E-1,1.182479635E-1,7.180101275E-1,-3.302420676E-2
4.807645270E-1,1.001379117E-1,6.753982306E-1,-9.587672353E-2
4.858211930E-1,7.776667923E-2,6.924430132E-1,-1.320968270E-1
4.908661950E-1,1.917534508E-2,6.381128430E-1,-1.374233067E-1
4.959127570E-1,-6.178722158E-2,1.246397421E-1,-6.604841352E-2
5.009046330E-1,4.261187743E-3,-2.908260524E-1,2.237123623E-2
5.060298930E-1,1.491415687E-2,-4.261187743E-3,2.130593918E-2
5.109303630E-1,-1.885575503E-1,1.491415687E-2,4.793836176E-2
5.160636960E-1,-3.430256248E-1,-1.779045910E-1,7.030959427E-2
5.211739580E-1,-3.515479863E-1,-1.043990999E-1,1.917534508E-2
5.263138010E-1,-3.717886209E-1,5.539543927E-2,-5.326484516E-2
5.312856260E-1,-4.484900236E-1,1.033338010E-1,-7.989726961E-2
5.364004690E-1,-5.230607986E-1,1.203785539E-1,-6.178722158E-2
5.412983870E-1,-5.923051238E-1,1.118561774E-1,-2.024064213E-2
5.467007310E-1,-7.020306587E-1,7.137489319E-2,5.113425106E-2
5.516047940E-1,-8.714128733E-1,6.924430281E-2,1.384886056E-1
5.566894290E-1,-1.078080535E0,8.735434711E-2,1.885575503E-1
5.617109410E-1,-1.295401096E0,1.502068639E-1,1.906881481E-1
5.667968780E-1,-1.516982794E0,2.066676021E-1,1.384886056E-1
5.717676090E-1,-1.750282884E0,2.769772112E-1,2.982831374E-2
5.768984940E-1,-1.958015800E0,3.973557651E-1,-9.055023640E-2
5.818318810E-1,-2.143377542E0,6.008274555E-1,-1.949493438E-1
5.870277660E-1,-2.344718456E0,8.437151909E-1,-2.759118974E-1
5.919374030E-1,-2.581214428E0,9.843343496E-1,-3.408950269E-1
5.970229230E-1,-2.873105764E0,8.011032939E-1,-4.634041786E-1
6.022764660E-1,-3.109601736E0,4.751224220E-1,-5.912398100E-1
6.074705280E-1,-3.193760157E0,1.629904360E-1,-6.583535075E-1
6.121547480E-1,-3.142626047E0,-4.793836176E-2,-6.508964300E-1
6.172809980E-1,-2.990288496E0,-1.331621110E-1,-5.784562230E-1
6.222827700E-1,-2.780425072E0,-1.629904360E-1,-4.751224220E-1
6.275877180E-1,-2.529014826E0,-1.683169156E-1,-3.611356616E-1
6.323951150E-1,-2.253103018E0,-1.395539045E-1,-2.364959270E-1
6.376349060E-1,-1.953754544E0,-4.154657945E-2,-1.065296903E-1
6.425253760E-1,-1.649079680E0,9.907261282E-2,1.704475097E-2
6.476463140E-1,-1.345470071E0,2.418224066E-1,1.384886056E-1
6.527813150E-1,-1.050382733E0,4.154658020E-1,2.801730931E-1
6.579404290E-1,-7.829932570E-1,5.539544225E-1,4.261187613E-1
6.628611080E-1,-5.816521049E-1,5.763256550E-1,5.124078393E-1
6.679741800E-1,-5.060160160E-1,5.880439281E-1,5.156037211E-1
6.730020460E-1,-5.869786143E-1,6.114804149E-1,5.049507618E-1
6.780003270E-1,-7.819279432E-1,6.295905113E-1,4.847100973E-1
6.831143390E-1,-1.032272696E0,6.956388950E-1,4.602082670E-1
6.882351200E-1,-1.325229406E0,7.489037514E-1,4.389023483E-1
6.933046520E-1,-1.662928462E0,7.393160462E-1,3.984210491E-1
6.983997560E-1,-2.032586575E0,6.881818175E-1,2.854995728E-1
7.033478300E-1,-2.413962841E0,6.604840755E-1,8.948494494E-2
7.085096010E-1,-2.798535109E0,6.690064669E-1,-1.672516167E-1
7.133771540E-1,-3.172454357E0,6.466352344E-1,-4.559471011E-1
7.186339770E-1,-3.514414549E0,4.942977726E-1,-7.084224820E-1
7.235076240E-1,-3.772216558E0,2.673895359E-1,-8.873923421E-1
7.286122590E-1,-3.907509089E0,1.672516167E-1,-9.960526228E-1
7.337722080E-1,-3.910705090E0,2.247776538E-1,-1.046121597E0
7.389259580E-1,-3.794587612E0,3.888333738E-1,-1.073819280E0
7.437465840E-1,-3.567679405E0,5.880439281E-1,-1.101517081E0
7.489796050E-1,-3.263004541E0,8.160174489E-1,-1.137737155E0
7.540723150E-1,-2.917848349E0,1.121757627E0,-1.186740756E0
7.590275750E-1,-2.566300392E0,1.451999664E0,-1.242136240E0
7.641564300E-1,-2.263756037E0,1.698083282E0,-1.320968151E0
7.692109090E-1,-2.109287977E0,1.911142707E0,-1.423236728E0
7.742204420E-1,-2.122071505E0,2.100765467E0,-1.522309303E0
7.793446600E-1,-2.255233526E0,2.221144199E0,-1.619251370E0
7.843441400E-1,-2.456574678E0,2.278670073E0,-1.701279163E0
7.893430980E-1,-2.677091122E0,2.296780109E0,-1.753478765E0
7.944095500E-1,-2.881628275E0,2.258429527E0,-1.770523548E0
7.994747660E-1,-3.089361191E0,2.182793379E0,-1.758805275E0
8.045014860E-1,-3.327987671E0,2.066676140E0,-1.721519828E0
8.095987250E-1,-3.561287642E0,1.803547740E0,-1.661863208E0
8.147049250E-1,-3.741322756E0,1.444542646E0,-1.587292433E0
8.198145080E-1,-3.844656706E0,1.120692372E0,-1.501003385E0
8.247127900E-1,-3.858505487E0,8.522375226E-1,-1.407257199E0
8.298428940E-1,-3.779673576E0,5.965662599E-1,-1.331621170E0
8.348386770E-1,-3.640119553E0,4.314452708E-1,-1.295401096E0
8.401082600E-1,-3.450496674E0,3.675274551E-1,-1.299662232E0
8.450235210E-1,-3.223588467E0,3.494173884E-1,-1.346535325E0
8.501950320E-1,-2.976439714E0,3.717886209E-1,-1.420040846E0
8.551115950E-1,-2.709050179E0,4.591429830E-1,-1.506329894E0
8.603062310E-1,-2.434203386E0,5.656726956E-1,-1.574508905E0
8.653245130E-1,-2.155095816E0,5.827174187E-1,-1.614990115E0
8.705796170E-1,-1.915403843E0,5.773909688E-1,-1.606467724E0
8.754072750E-1,-1.736433983E0,5.496932268E-1,-1.539354086E0
8.804545140E-1,-1.590488315E0,5.113425255E-1,-1.416844964E0
8.854826920E-1,-1.471175075E0,5.049507618E-1,-1.276225686E0
8.905768070E-1,-1.374233007E0,5.369096398E-1,-1.141998291E0
8.955686310E-1,-1.318837643E0,6.487658620E-1,-1.045056343E0
9.006954010E-1,-1.352927089E0,8.980453014E-1,-1.043990970E0
9.056981110E-1,-1.502068639E0,1.218699694E0,-1.149455428E0
9.108483710E-1,-1.755609393E0,1.497807503E0,-1.331621170E0
9.158125390E-1,-2.067741394E0,1.709801555E0,-1.523374677E0
9.209348820E-1,-2.358567476E0,1.861073732E0,-1.638426661E0
9.259376440E-1,-2.550320864E0,1.943101645E0,-1.636296034E0
9.310809250E-1,-2.602520466E0,1.953754544E0,-1.519113421E0
9.360584780E-1,-2.536472082E0,1.933513880E0,-1.310315251E0
9.412430090E-1,-2.393722296E0,1.832310677E0,-1.035468578E0
9.461830110E-1,-2.166813850E0,1.650144935E0,-7.489037514E-1
9.513088440E-1,-1.871726751E0,1.507395148E0,-4.868406951E-1
9.563097830E-1,-1.550006986E0,1.377428889E0,-2.823036909E-1
9.614226990E-1,-1.269833922E0,1.265572786E0,-1.480762810E-1
9.664302000E-1,-1.067427516E0,1.206981421E0,-8.522375673E-2
9.715523350E-1,-8.756740689E-1,1.281552196E0,-9.800732136E-2
9.765575450E-1,-6.551576257E-1,1.464783311E0,-1.629904360E-1
9.816722320E-1,-4.442288280E-1,1.675712109E0,-2.535406649E-1
9.866811920E-1,-2.269082516E-1,1.903685570E0,-3.568744659E-1
9.917803580E-1,-5.859133229E-2,2.066676140E0,-4.463594258E-1
9.971869210E-1,1.065296936E-3,2.178532124E0,-5.006895661E-1
1.001859631E0,1.555333585E-1,2.503447771E0,-4.793836176E-1
1.007013902E0,4.207922816E-1,2.826232672E0,-4.090740085E-1
1.011979944E0,4.506205916E-1,2.802796125E0,-3.984210491E-1
1.017087913E0,1.789698899E-1,2.570561409E0,-4.389023483E-1
1.022109425E0,-2.290388346E-1,2.306367874E0,-4.591429830E-1
1.027334477E0,-5.955010056E-1,2.128463268E0,-4.175963998E-1
1.032283123E0,-7.425119877E-1,2.076263666E0,-2.727160156E-1
1.037356248E0,-6.732676625E-1,2.005954027E0,-4.261187837E-2
1.042334843E0,-5.145384073E-1,1.836571932E0,1.992105246E-1
1.047471926E0,-3.110667169E-1,1.635230780E0,4.282493591E-1
1.052469428E0,-8.841964602E-2,1.516982794E0,5.891091824E-1
1.057576146E0,1.097255871E-1,1.481828094E0,7.020306587E-1
1.062613491E0,2.588671446E-1,1.486089230E0,7.968420982E-1
1.067696720E0,3.749845326E-1,1.520178676E0,9.023064971E-1
1.072699325E0,4.420982301E-1,1.543615222E0,1.053578615E0
1.077824898E0,4.420982301E-1,1.534027576E0,1.170761347E0
1.082840785E0,3.920292854E-1,1.515917540E0,1.180348992E0
1.087946305E0,3.334379494E-1,1.558529377E0,1.105778217E0
1.092964536E0,3.089361191E-1,1.687430382E0,1.074884653E0
1.098065733E0,3.004137278E-1,1.791829467E0,1.124953508E0
1.103074276E0,2.918913662E-1,1.855747223E0,1.204850793E0
1.108196880E0,2.503447831E-1,1.891967416E0,1.278356314E0
1.113276465E0,2.578018606E-1,1.951624036E0,1.399800181E0
1.118318444E0,3.195890784E-1,2.037913084E0,1.618185997E0
1.123328028E0,3.685927391E-1,2.112483740E0,1.902620316E0
1.128446518E0,4.037475288E-1,2.170009851E0,2.157226324E0
1.133438290E0,4.335758388E-1,2.213686943E0,2.280800819E0
1.138557508E0,4.314452708E-1,2.228601217E0,2.355371475E0
1.143562041E0,3.877680898E-1,2.185989380E0,2.494925499E0
1.148687041E0,2.854995728E-1,2.102896214E0,2.637675285E0
1.153686521E0,1.981452256E-1,2.015541792E0,2.672830105E0
1.158811833E0,2.034717202E-1,1.959081054E0,2.602520466E0
1.163801001E0,2.567365468E-1,1.896228552E0,2.513035536E0
1.168961470E0,3.078708053E-1,1.825918913E0,2.424615860E0
1.173952877E0,3.376991153E-1,1.764131784E0,2.314890146E0
1.179035846E0,3.313073516E-1,1.701279163E0,2.180662870E0
1.184065378E0,2.908260524E-1,1.588357687E0,2.054957867E0
1.189170795E0,2.450182885E-1,1.413649082E0,1.954819918E0
1.194175848E0,1.992105246E-1,1.201654911E0,1.906881571E0
1.199287202E0,1.970799267E-1,9.790078998E-1,1.877053142E0
1.204368870E0,2.237123549E-1,7.425119877E-1,1.857877851E0
1.209429078E0,2.514100671E-1,5.262566805E-1,1.878118515E0
1.214428037E0,2.886954844E-1,3.483521044E-1,1.929252744E0
1.219525173E0,3.611356616E-1,2.418224066E-1,1.936709881E0
1.224537101E0,4.282493591E-1,1.672516167E-1,1.846159577E0
1.229652309E0,4.442288280E-1,1.139867753E-1,1.690626264E0
1.234656060E0,4.122699201E-1,1.033338010E-1,1.440281510E0
1.239830175E0,3.952251673E-1,1.363580078E-1,1.135606527E0
1.244781947E0,4.133352041E-1,2.162552774E-1,8.799352646E-1
1.249907155E0,4.506205916E-1,2.599324584E-1,7.169448137E-1
1.254905802E0,4.879060090E-1,2.460835874E-1,6.221334338E-1
1.260081166E0,4.996242523E-1,1.427497864E-1,5.294525623E-1
1.265033147E0,4.836448133E-1,-3.408950195E-2,4.495553076E-1
1.270141376E0,4.548817873E-1,-2.407571077E-1,3.930945694E-1
1.275173773E0,4.058781266E-1,-4.687306583E-1,3.398297131E-1
1.280269814E0,3.462215066E-1,-6.796594262E-1,2.684548199E-1
1.285289347E0,3.153278828E-1,-8.703476191E-1,1.406191885E-1
1.290430961E0,3.046749234E-1,-1.063166380E0,-3.515479714E-2
1.295390441E0,3.068055212E-1,-1.187806129E0,-2.024064213E-1
1.300604660E0,3.217196763E-1,-1.245332122E0,-3.227849603E-1
1.305623984E0,3.483521044E-1,-1.238940358E0,-4.048128426E-1
1.310659609E0,4.080087245E-1,-1.181414247E0,-5.017548800E-1
1.316663307E0,4.836448133E-1,-1.111104727E0,-6.572881937E-1
1.320746538E0,5.390402675E-1,-1.029076815E0,-8.543681502E-1
1.325956798E0,5.667379498E-1,-8.767393827E-1,-1.057839870E0
1.330939612E0,5.795215368E-1,-6.945735812E-1,-1.291139841E0
1.335962059E0,5.358443856E-1,-5.198649168E-1,-1.531896949E0
1.340937529E0,3.568744659E-1,-3.068055212E-1,-1.707671046E0
1.346150393E0,1.374233067E-1,-1.278356314E-1,-1.800351858E0
1.351153207E0,-5.965662748E-2,-1.225091442E-1,-1.842963696E0
1.356353936E0,-2.759118974E-1,-2.546059787E-1,-1.883445024E0
1.361190552E0,-3.707233369E-1,-3.398297131E-1,-1.847224832E0
1.366439354E0,-2.652589381E-1,-3.696580231E-1,-1.658667326E0
1.371433991E0,-1.320968270E-1,-3.398297131E-1,-1.355057716E0
1.376501334E0,-1.022685021E-1,-2.141246796E-1,-9.630284309E-1
1.381523627E0,-1.161173657E-1,8.309315890E-2,-6.285251975E-1
1.386641960E0,-1.267703325E-1,3.845722079E-1,-4.602082670E-1
1.391581961E0,-1.416844875E-1,5.816521049E-1,-4.293146729E-1
1.396705711E0,-1.779045910E-1,7.425119877E-1,-4.580776691E-1
1.401690452E0,-2.705854177E-1,8.831311464E-1,-5.006895661E-1
1.406791389E0,-4.591429830E-1,8.596946001E-1,-4.825794995E-1
1.411919463E0,-6.146763563E-1,6.817900538E-1,-4.442288280E-1
1.417012432E0,-6.445046663E-1,4.495553076E-1,-4.484900236E-1
1.421914152E0,-5.837827325E-1,1.779045910E-1,-4.761877358E-1
1.427150766E0,-5.081466436E-1,-6.817900389E-2,-4.953630865E-1
1.432128111E0,-4.516859055E-1,-2.173205763E-1,-4.825794995E-1
1.437254101E0,-4.016169310E-1,-2.247776538E-1,-4.293146729E-1
1.442181810E0,-3.547438681E-1,-1.779045910E-1,-3.696580231E-1
1.447351862E0,-2.993484437E-1,-1.597945392E-1,-3.068055212E-1
1.452423634E0,-2.460835874E-1,-1.629904360E-1,-2.482141852E-1
1.457537019E0,-2.002758235E-1,-2.013411224E-1,-2.311694324E-1
1.462421083E0,-1.661863178E-1,-2.333000302E-1,-2.428877056E-1
1.467519208E0,-1.193132550E-1,-2.663242221E-1,-3.110667169E-1
1.472522855E0,-4.474247247E-2,-3.504827023E-1,-3.920292854E-1
1.477732594E0,3.728539124E-2,-3.952251673E-1,-4.293146729E-1
1.482678741E0,1.235744432E-1,-3.014790416E-1,-3.941598535E-1
1.487787179E0,2.066676021E-1,-2.609977424E-1,-2.705854177E-1
1.492767024E0,2.535406649E-1,-3.483521044E-1,-2.673895359E-1
1.498211346E0,2.929566503E-1,-4.037475288E-1,-3.930945694E-1
1.502889056E0,3.494173884E-1,-4.314452708E-1,-5.060160160E-1
1.508134837E0,4.239881933E-1,-3.867027760E-1,-5.997622013E-1
1.513147442E0,4.985589683E-1,-2.428877056E-1,-6.317210793E-1
1.518282807E0,5.496932268E-1,-8.096256852E-2,-5.720644593E-1
1.523253693E0,5.592808723E-1,7.030959427E-2,-4.474247098E-1
1.528315203E0,5.433014631E-1,1.800351888E-1,-2.705854177E-1
1.533382965E0,4.879060090E-1,1.949493438E-1,-1.214438528E-1
1.538476090E0,4.154658020E-1,1.906881481E-1,-1.597945392E-2
1.543500414E0,3.227849603E-1,2.407571077E-1,8.415845782E-2
1.548640258E0,1.757739931E-1,3.110667169E-1,1.949493438E-1
1.553634373E0,-2.556712553E-2,3.622009456E-1,3.323726356E-1
1.558735363E0,-2.460835874E-1,3.803110123E-1,4.847100973E-1
1.563810624E0,-4.442288280E-1,3.856374919E-1,6.146763563E-1
1.568864999E0,-6.072192788E-1,3.227849603E-1,7.371854782E-1
1.573903542E0,-7.425119877E-1,1.800351888E-1,8.724781871E-1
1.578961198E0,-8.575640321E-1,2.450183034E-2,1.001379132E0
1.584060210E0,-9.470489621E-1,-1.086602882E-1,1.095125198E0
1.589081095E0,-9.949873090E-1,-1.661863178E-1,1.067427516E0
1.594101200E0,-9.332001209E-1,2.844342887E-1,6.231986880E-1
1.599211877E0,-7.872544527E-1,9.214818478E-1,-2.450183034E-2
1.604116670E0,-7.361201644E-1,6.892471313E-1,-1.320968270E-1
1.609326774E0,-6.924430132E-1,2.535406649E-1,1.491415687E-2
1.614348963E0,-5.464973450E-1,1.022685021E-1,-3.622009605E-2
1.619365994E0,-3.717886209E-1,-3.195890691E-3,-2.109287977E-1
1.624364380E0,-2.173205763E-1,-9.907261282E-2,-3.281114697E-1
1.629475161E0,-7.776667923E-2,-9.587672353E-2,-3.994863629E-1
1.634476725E0,4.900366068E-2,-5.859133229E-2,-4.410329461E-1
1.639595631E0,1.608598381E-1,-2.556712553E-2,-4.623388648E-1
1.644634695E0,2.727160156E-1,-6.391781382E-3,-5.507585406E-1
1.649816830E0,3.675274551E-1,-8.522375673E-2,-7.957767844E-1
1.654924592E0,4.080087245E-1,-2.961525619E-1,-1.061035752E0
1.659856831E0,4.026822448E-1,-4.634041786E-1,-1.167565465E0
1.664970582E0,3.568744659E-1,-5.006895661E-1,-1.205916166E0
1.669963759E0,2.578018606E-1,-5.070813298E-1,-1.252789140E0
1.674965740E0,1.033338010E-1,-5.198649168E-1,-1.315641761E0
1.680207562E0,-7.137489319E-2,-5.145384073E-1,-1.390212536E0
1.685214126E0,-2.364959270E-1,-4.346411526E-1,-1.457326174E0
1.690253970E0,-3.930945694E-1,-2.929566503E-1,-1.504199266E0
1.695338294E0,-5.273219943E-1,-1.619251370E-1,-1.526570559E0
1.700427512E0,-6.370475888E-1,-8.415845782E-2,-1.523374677E0
1.705444076E0,-7.222713232E-1,-5.859133229E-2,-1.509525776E0
1.710546992E0,-7.797973752E-1,-8.309315890E-2,-1.493546247E0
1.715554910E0,-8.096256852E-1,-1.299662292E-1,-1.472240329E0
1.720678243E0,-8.170827627E-1,-2.024064213E-1,-1.428563237E0
1.725605224E0,-8.160174489E-1,-2.886954844E-1,-1.376363635E0
1.730717776E0,-8.011032939E-1,-3.558091819E-1,-1.336947680E0
1.735754131E0,-7.712749839E-1,-3.600703776E-1,-1.308184624E0
1.740820641E0,-7.116183639E-1,-2.833689749E-1,-1.297531724E0
1.745961424E0,-6.551576257E-1,-2.183858752E-1,-1.316707015E0
1.751093767E0,-6.008274555E-1,-2.119940966E-1,-1.341208816E0
1.755947414E0,-5.411708355E-1,-2.056023031E-1,-1.384886026E0
1.761083820E0,-4.719265401E-1,-1.715128124E-1,-1.456260920E0
1.766068301E0,-4.016169310E-1,-1.491415650E-1,-1.544680595E0
1.771383821E0,-3.430256248E-1,-1.523374617E-1,-1.645883799E0
1.776287312E0,-2.641936541E-1,-9.694202244E-2,-1.734303355E0
1.781317104E0,-1.842963696E-1,-6.072192639E-2,-1.808874249E0
1.786449761E0,-1.193132550E-1,-9.268083423E-2,-1.856812596E0
1.791577730E0,-7.350549102E-2,-1.438150853E-1,-1.884510279E0
1.796538616E0,-6.391781569E-2,-2.333000302E-1,-1.877053142E0
1.801668720E0,-8.841964602E-2,-3.451561928E-1,-1.805678248E0
1.806557263E0,-1.320968270E-1,-4.367717505E-1,-1.654406190E0
1.811672054E0,-1.874922663E-1,-4.825794995E-1,-1.479697466E0
1.816697004E0,-2.705854177E-1,-5.486279130E-1,-1.294335723E0
1.821869035E0,-3.643315434E-1,-4.804489315E-1,-9.843343496E-1
1.826960286E0,-3.515479863E-1,-2.769772112E-1,-6.913776994E-1
1.831993463E0,-2.226470560E-1,-6.178722158E-2,-5.422361493E-1
1.836936068E0,-6.498311460E-2,3.089361079E-2,-4.303799570E-1
1.842098360E0,4.580776766E-2,-8.735434711E-2,-3.803110123E-1
1.847225236E0,1.246397421E-1,-2.567365468E-1,-3.739192188E-1
1.852170236E0,2.194511741E-1,-3.025443256E-1,-3.685927391E-1
1.857317216E0,3.142625988E-1,-2.908260524E-1,-3.590050638E-1
1.862385810E0,3.600703776E-1,-2.673895359E-1,-3.515479863E-1
1.867286905E0,2.812383771E-1,-2.982831299E-1,-3.611356616E-1
1.872541696E0,1.033338010E-1,-4.282493591E-1,-3.472867906E-1
1.877410760E0,-7.670138031E-2,-4.953630865E-1,-3.259808719E-1
1.882649562E0,-2.620630562E-1,-4.442288280E-1,-3.430256248E-1
1.887545344E0,-4.708612561E-1,-3.440909088E-1,-4.442288280E-1
1.892716490E0,-6.572881937E-1,-2.759118974E-1,-6.317210793E-1
1.897821908E0,-8.724781871E-1,-3.685927391E-1,-8.841964602E-1
1.902918880E0,-1.071688771E0,-4.804489315E-1,-1.193132520E0
1.907918367E0,-1.265572786E0,-5.198649168E-1,-1.490350366E0
1.913043575E0,-1.456260920E0,-5.358443856E-1,-1.689560890E0
1.918023524E0,-1.636296034E0,-5.986968875E-1,-1.759870529E0
1.923016232E0,-1.766262293E0,-6.732676625E-1,-1.763066411E0
1.928018213E0,-1.803547740E0,-8.000379801E-1,-1.724715710E0
1.933176494E0,-1.749217510E0,-9.800731540E-1,-1.575574160E0
1.938143995E0,-1.651210308E0,-1.146259546E0,-1.360384226E0
1.943398266E0,-1.516982794E0,-1.249593258E0,-1.153716564E0
1.948411496E0,-1.366775990E0,-1.311380506E0,-9.832690954E-1
1.953436027E0,-1.212307930E0,-1.366775990E0,-8.234745264E-1
1.958396549E0,-1.048252225E0,-1.351861835E0,-6.722023487E-1
1.963657539E0,-8.671516776E-1,-1.242136240E0,-5.390402675E-1
1.968579050E0,-6.540923119E-1,-1.083406925E0,-4.165311158E-1
1.973668894E0,-4.197269976E-1,-8.650211096E-1,-3.025443256E-1
1.978642072E0,-2.056023031E-1,-6.061539650E-1,-2.151899785E-1
1.983759207E0,-1.278356276E-2,-2.982831299E-1,-1.736433953E-1
1.988898115E0,2.056023031E-1,1.917534508E-2,-1.821657717E-1
1.993909364E0,4.186616838E-1,2.375612110E-1,-1.874922663E-1
1.998987334E0,5.294525623E-1,3.014790416E-1,-8.948494494E-2
2.004239574E0,5.411708355E-1,3.121320009E-1,8.522375487E-3
2.009154679E0,4.133352041E-1,3.685927391E-1,-1.065296959E-2
2.014180252E0,2.769772112E-1,4.666000605E-1,-1.278356314E-1
2.019135045E0,2.769772112E-1,4.974936545E-1,-3.600703776E-1
2.024257805E0,1.917534471E-1,2.354306281E-1,-5.433014631E-1
2.029341192E0,-1.470109820E-1,-2.194511741E-1,-6.029580832E-1
2.034358952E0,-4.570123851E-1,-4.154658020E-1,-7.116183639E-1
2.039458641E0,-7.520996332E-1,-5.070813298E-1,-9.374613166E-1
2.044573484E0,-1.041860461E0,-6.189374924E-1,-1.167565465E0
2.049580308E0,-1.290074587E0,-7.819279432E-1,-1.287943959E0
2.054738589E0,-1.407257199E0,-8.682169914E-1,-1.335882306E0
2.059606299E0,-1.432824373E0,-8.064298034E-1,-1.402996063E0
2.064821871E0,-1.393408418E0,-6.903123856E-1,-1.503134012E0
2.069887394E0,-1.217634439E0,-5.443667173E-1,-1.565986514E0
2.074954685E0,-9.481142759E-1,-3.068055212E-1,-1.607533097E0
2.079967395E0,-6.253293157E-1,-4.048128426E-2,-1.654406190E0
2.085093800E0,-2.492794842E-1,1.853616685E-1,-1.695952773E0
2.090126198E0,9.268083423E-2,2.759118974E-1,-1.757739902E0
2.095100676E0,3.547438681E-1,1.949493438E-1,-1.874922633E0
2.100098386E0,5.891091824E-1,6.817900389E-2,-1.997431755E0
2.105236198E0,7.425119877E-1,4.793836176E-2,-2.102896214E0
2.110383231E0,8.245398402E-1,4.048128426E-2,-2.260560036E0
2.115522449E0,8.671516776E-1,1.054643989E-1,-2.443791151E0
2.120500055E0,8.490416408E-1,2.556712627E-1,-2.671764612E0
2.125557138E0,7.723402977E-1,4.687306583E-1,-2.856060982E0
2.130649847E0,6.327863932E-1,7.755361795E-1,-2.998810768E0
2.135772504E0,4.900365770E-1,1.126018882E0,-3.147952557E0
2.140726828E0,4.346411526E-1,1.424301982E0,-3.346097708E0
2.145818702E0,4.538165033E-1,1.584096551E0,-3.580462933E0
2.150705006E0,4.644694626E-1,1.608598351E0,-3.819089413E0
2.155821985E0,4.495553076E-1,1.488219857E0,-4.037475586E0
2.160851726E0,3.994863629E-1,1.346535325E0,-4.256926537E0
2.166071725E0,2.205164731E-1,1.087668180E0,-4.550948620E0
2.171077352E0,1.225091442E-1,1.126018882E0,-4.833252430E0
2.176134226E0,2.908260524E-1,1.695952773E0,-5.060160637E0
2.181126571E0,4.431635141E-1,2.129528522E0,-5.313701153E0
2.186313967E0,4.953630865E-1,2.214752436E0,-5.545935631E0
2.191314489E0,5.518237948E-1,2.181728125E0,-5.685489655E0
2.196441885E0,6.082845330E-1,2.048566103E0,-5.795215130E0
2.201474855E0,6.764635444E-1,1.772654057E0,-5.884700298E0
2.206562667E0,7.627525926E-1,1.360384226E0,-5.942226410E0
2.211434751E0,8.288010359E-1,8.213439584E-1,-5.928377628E0
2.216668761E0,8.266704082E-1,-8.096256852E-2,-5.930508137E0
2.221575638E0,8.181480169E-1,-1.424301982E0,-5.983772755E0
2.226795690E0,9.374613166E-1,-3.002006769E0,-5.899614334E0
2.231753712E0,1.130280018E0,-4.615931511E0,-5.393598557E0
2.236909805E0,1.206981421E0,-5.806933403E0,-4.497683525E0
2.241850119E0,1.083406925E0,-6.370475769E0,-3.432386637E0
2.247049285E0,8.021686077E-1,-6.204289436E0,-2.347914457E0
2.252041318E0,4.261187613E-1,-5.540609360E0,-1.362514734E0
2.257168870E0,3.622009605E-2,-4.605278492E0,-5.305178761E-1
2.262047569E0,-3.078708053E-1,-3.366338253E0,1.534027606E-1
2.267164183E0,-5.241261125E-1,-2.063480139E0,6.583535075E-1
2.272186997E0,-5.592808723E-1,-8.458457589E-1,9.150900841E-1
2.277460643E0,-4.399676323E-1,1.597945392E-1,9.321348071E-1
2.282289915E0,-2.439530045E-1,7.989727259E-1,7.755361795E-1
2.287581529E0,-2.769771963E-2,1.152651310E0,5.401055217E-1
2.292459864E0,1.587292403E-1,1.315641761E0,2.929566503E-1
2.297659030E0,2.833689749E-1,1.342274189E0,1.406191885E-1
2.302539604E0,3.462215066E-1,1.290074587E0,1.384886056E-1
2.307808041E0,3.536785841E-1,1.149455428E0,2.024064213E-1
2.312834605E0,3.142625988E-1,9.193512797E-1,2.684548199E-1
2.317919761E0,2.428877056E-1,6.615493894E-1,3.100014031E-1
2.322897471E0,1.597945392E-1,4.570123851E-1,3.110667169E-1
2.328045908E0,7.989726961E-2,3.515479863E-1,2.737812996E-1
2.333028253E0,1.491415687E-2,3.227849603E-1,2.322347313E-1
2.338035388E0,-2.450183034E-2,3.089361191E-1,2.013411224E-1
2.343023671E0,-4.367717355E-2,2.695201337E-1,1.779045910E-1
2.348378566E0,-5.433014408E-2,2.290388346E-1,1.640557349E-1
2.353345599E0,-5.219954997E-2,1.896228492E-1,1.384886056E-1
2.358445703E0,-3.515479714E-2,1.534027606E-1,1.097255871E-1
2.363397319E0,-1.384885982E-2,1.214438528E-1,8.415845782E-2
2.368392787E0,1.278356276E-2,1.012032107E-1,6.498311460E-2
2.373426955E0,3.835069016E-2,1.022685021E-1,4.474247247E-2
2.378633569E0,5.433014408E-2,1.257050335E-1,2.769771963E-2
2.383669821E0,5.859133229E-2,1.683169156E-1,1.171826664E-2
2.389588466E0,4.900366068E-2,2.119940966E-1,5.326484796E-3
2.393652999E0,3.195890784E-2,2.546059787E-1,-2.130593872E-3
2.398880967E0,5.326484796E-3,2.886954844E-1,-8.522375487E-3
2.403884041E0,-2.450183034E-2,3.153278828E-1,-1.065296959E-2
2.408865916E0,-4.793836176E-2,3.387644291E-1,-1.171826664E-2
2.413998522E0,-6.924430281E-2,3.611356616E-1,-9.587672539E-3
2.419108000E0,-8.096256852E-2,3.771151006E-1,-8.522375487E-3
2.424205450E0,-8.096256852E-2,3.867027760E-1,-8.522375487E-3
2.429263418E0,-7.137489319E-2,3.984210491E-1,-7.457078435E-3
2.434239617E0,-5.219954997E-2,4.037475288E-1,-5.326484796E-3
2.439263784E0,-3.195890784E-2,4.133352041E-1,-7.457078435E-3
2.444398108E0,-9.587672539E-3,4.239881933E-1,-1.171826664E-2
2.449371806E0,1.065296959E-2,4.303799570E-1,-1.171826664E-2
2.454504046E0,2.556712553E-2,4.303799570E-1,-1.065296959E-2
2.459617119E0,3.622009605E-2,4.293146729E-1,-1.065296959E-2
2.464633683E0,3.728539124E-2,4.250534773E-1,-1.065296959E-2
2.469801651E0,3.941598535E-2,4.154658020E-1,-1.065296959E-2
2.474788111E0,3.089361079E-2,4.016169310E-1,-7.457078435E-3
2.480040923E0,2.130593918E-2,3.845722079E-1,-4.261187743E-3
2.484736029E0,1.384885982E-2,3.622009456E-1,-3.195890691E-3
2.489955091E0,5.326484796E-3,3.387644291E-1,-2.130593872E-3
2.494957332E0,-3.195890691E-3,3.153278828E-1,-2.130593872E-3
2.500086863E0,-1.065296959E-2,2.908260524E-1,-7.457078435E-3
2.505117541E0,-1.704475097E-2,2.663242221E-1,-1.171826664E-2
2.510089312E0,-2.130593918E-2,2.471488863E-1,-1.384885982E-2
2.515220355E0,-2.130593918E-2,2.322347313E-1,-1.491415687E-2
2.520264000E0,-1.704475097E-2,2.269082516E-1,-1.704475097E-2
2.525426970E0,-1.065296959E-2,2.237123549E-1,-1.491415687E-2
2.530472178E0,-4.261187743E-3,2.269082516E-1,-1.384885982E-2
2.535339940E0,0.000000000E0,2.290388346E-1,-1.065296959E-2
2.540492700E0,2.130593872E-3,2.258429527E-1,-9.587672539E-3
2.545461764E0,2.130593872E-3,2.173205763E-1,-1.065296936E-3
2.550819107E0,2.130593872E-3,2.045370042E-1,5.326484796E-3
2.555750307E0,-3.195890691E-3,1.896228492E-1,1.171826664E-2
2.560913067E0,-3.195890691E-3,1.661863178E-1,1.811004803E-2
2.565850255E0,-2.130593872E-3,1.416844875E-1,2.450183034E-2
2.570950047E0,-2.130593872E-3,1.139867753E-1,2.769771963E-2
2.575951194E0,0.000000000E0,8.735434711E-2,3.302420676E-2
2.581073902E0,4.261187743E-3,5.433014408E-2,3.408950195E-2
2.585950882E0,7.457078435E-3,2.343653329E-2,3.195890784E-2
2.591065882E0,1.278356276E-2,-8.522375487E-3,3.195890784E-2
2.596170206E0,1.704475097E-2,-4.048128426E-2,3.089361079E-2
2.601425727E0,2.237123623E-2,-6.711370498E-2,2.769771963E-2
2.606359114E0,2.450183034E-2,-9.587672353E-2,2.663242258E-2
2.611594478E0,3.089361079E-2,-1.150520667E-1,2.450183034E-2
2.616399844E0,3.728539124E-2,-1.342274100E-1,1.917534508E-2
2.621582239E0,3.622009605E-2,-1.512721628E-1,1.917534508E-2
2.626438699E0,3.728539124E-2,-1.661863178E-1,1.597945392E-2
2.631547969E0,3.941598535E-2,-1.779045910E-1,1.597945392E-2
2.636618700E0,3.622009605E-2,-1.917534471E-1,1.811004803E-2
2.641914429E0,3.515479714E-2,-2.045370042E-1,1.917534508E-2
2.646693753E0,3.408950195E-2,-2.151899785E-1,2.237123623E-2
2.651929534E0,3.089361079E-2,-2.279735506E-1,2.663242258E-2
2.656930837E0,2.769771963E-2,-2.364959270E-1,2.769771963E-2
2.661930785E0,2.450183034E-2,-2.450182885E-1,3.089361079E-2
2.667083443E0,2.130593918E-2,-2.535406649E-1,3.515479714E-2
2.672190578E0,1.811004803E-2,-2.609977424E-1,3.728539124E-2
2.677171777E0,1.917534508E-2,-2.620630562E-1,3.941598535E-2
2.682166829E0,1.811004803E-2,-2.641936541E-1,3.941598535E-2
2.687237768E0,1.704475097E-2,-2.631283402E-1,4.048128426E-2
2.692395371E0,1.704475097E-2,-2.599324584E-1,4.367717355E-2
2.697394539E0,1.491415687E-2,-2.567365468E-1,4.367717355E-2
2.702421414E0,1.384885982E-2,-2.546059787E-1,4.580776766E-2
2.707607718E0,1.811004803E-2,-2.524753809E-1,4.474247247E-2
2.712550269E0,2.237123623E-2,-2.546059787E-1,4.154657945E-2
2.717716156E0,2.663242258E-2,-2.535406649E-1,3.835069016E-2
2.722693343E0,3.515479714E-2,-2.514100671E-1,3.622009605E-2
2.727785011E0,4.474247247E-2,-2.482141852E-1,3.302420676E-2
2.732879490E0,5.219954997E-2,-2.428877056E-1,3.195890784E-2
2.737796366E0,5.752603337E-2,-2.418224066E-1,3.195890784E-2
2.742897460E0,5.859133229E-2,-2.418224066E-1,3.302420676E-2
2.748017617E0,5.646073818E-2,-2.407571077E-1,3.302420676E-2
2.753022357E0,5.539543927E-2,-2.343653291E-1,3.408950195E-2
2.758165900E0,5.113425106E-2,-2.226470560E-1,3.408950195E-2
2.763275378E0,4.900366068E-2,-2.130593807E-1,3.515479714E-2
2.768310432E0,4.474247247E-2,-2.024064213E-1,3.728539124E-2
2.773377254E0,4.154657945E-2,-1.917534471E-1,3.622009605E-2
2.778401995E0,3.515479714E-2,-1.874922663E-1,3.408950195E-2
2.783524651E0,2.982831374E-2,-1.811004728E-1,3.408950195E-2
2.788388976E0,2.450183034E-2,-1.789698899E-1,3.408950195E-2
2.793574809E0,1.597945392E-2,-1.747086942E-1,2.769771963E-2
2.798665695E0,1.065296959E-2,-1.725780964E-1,2.663242258E-2
2.803766268E0,4.261187743E-3,-1.704475135E-1,2.450183034E-2
2.808759915E0,-4.261187743E-3,-1.725780964E-1,1.811004803E-2
2.813872936E0,-1.171826664E-2,-1.704475135E-1,1.278356276E-2
2.818867364E0,-1.597945392E-2,-1.704475135E-1,8.522375487E-3
2.823955645E0,-1.917534508E-2,-1.683169156E-1,6.391781382E-3
2.829007261E0,-2.024064213E-2,-1.661863178E-1,1.065296936E-3
2.833993250E0,-1.704475097E-2,-1.608598381E-1,0.000000000E0
2.839132574E0,-1.491415687E-2,-1.491415650E-1,0.000000000E0
2.844456064E0,-1.065296959E-2,-1.384886056E-1,-2.130593872E-3
2.849134607E0,-7.457078435E-3,-1.278356314E-1,-2.130593872E-3
2.854369971E0,-4.261187743E-3,-1.161173657E-1,-4.261187743E-3
2.859372628E0,-1.065296936E-3,-1.033338010E-1,-5.326484796E-3
2.864472680E0,3.195890691E-3,-9.374613315E-2,-5.326484796E-3
2.869373046E0,1.065296936E-3,-8.948494494E-2,-3.195890691E-3
2.874494296E0,2.130593872E-3,-8.096256852E-2,-3.195890691E-3
2.879496485E0,3.195890691E-3,-7.457078248E-2,-1.065296936E-3
2.884605911E0,5.326484796E-3,-7.137489319E-2,0.000000000E0
2.889728986E0,4.261187743E-3,-7.244019210E-2,0.000000000E0
2.894864298E0,0.000000000E0,-7.244019210E-2,3.195890691E-3
2.899881174E0,-2.130593872E-3,-7.350549102E-2,5.326484796E-3
2.904853257E0,-6.391781382E-3,-7.563608140E-2,6.391781382E-3
2.909979456E0,-1.171826664E-2,-7.670138031E-2,7.457078435E-3
2.915142425E0,-1.384885982E-2,-7.457078248E-2,8.522375487E-3
2.920156749E0,-1.384885982E-2,-7.350549102E-2,8.522375487E-3
2.925236645E0,-1.171826664E-2,-6.924430281E-2,6.391781382E-3
2.930118885E0,-1.065296959E-2,-6.924430281E-2,9.587672539E-3
2.935213468E0,-8.522375487E-3,-6.924430281E-2,9.587672539E-3
2.940246387E0,-6.391781382E-3,-6.711370498E-2,9.587672539E-3
2.945373880E0,-2.130593872E-3,-6.604841352E-2,1.065296959E-2
2.950349096E0,1.065296936E-3,-6.817900389E-2,9.587672539E-3
2.955627116E0,4.261187743E-3,-7.137489319E-2,8.522375487E-3
2.960576701E0,6.391781382E-3,-7.244019210E-2,1.065296959E-2
2.965714513E0,9.587672539E-3,-7.350549102E-2,9.587672539E-3
2.970586337E0,1.171826664E-2,-7.670138031E-2,9.587672539E-3
2.975796181E0,1.597945392E-2,-7.670138031E-2,9.587672539E-3
2.980816807E0,1.704475097E-2,-7.989726961E-2,8.522375487E-3
2.985949567E0,1.917534508E-2,-8.096256852E-2,1.065296959E-2
2.990919517E0,2.024064213E-2,-8.415845782E-2,1.278356276E-2
2.996088058E0,2.024064213E-2,-8.628904819E-2,1.278356276E-2
3.001062486E0,1.597945392E-2,-9.055023640E-2,1.384885982E-2
3.006187434E0,1.491415687E-2,-9.800732136E-2,1.491415687E-2
3.011079779E0,1.491415687E-2,-9.907261282E-2,1.171826664E-2
3.016333372E0,1.171826664E-2,-9.907261282E-2,1.384885982E-2
3.021199884E0,1.171826664E-2,-9.800732136E-2,1.491415687E-2
3.026329050E0,9.587672539E-3,-9.800732136E-2,1.597945392E-2
3.031426448E0,1.065296959E-2,-9.587672353E-2,1.491415687E-2
3.036439677E0,1.278356276E-2,-8.948494494E-2,1.491415687E-2
3.041563636E0,9.587672539E-3,-8.628904819E-2,1.491415687E-2
3.046700615E0,9.587672539E-3,-7.989726961E-2,1.384885982E-2
3.051662595E0,1.278356276E-2,-7.244019210E-2,1.384885982E-2
3.056794522E0,1.597945392E-2,-6.391781569E-2,1.491415687E-2
3.061776815E0,1.597945392E-2,-5.326484516E-2,1.491415687E-2
3.066937544E0,1.491415687E-2,-4.474247247E-2,1.597945392E-2
3.071864108E0,1.491415687E-2,-4.048128426E-2,1.491415687E-2
3.077079472E0,1.278356276E-2,-3.728539124E-2,1.597945392E-2
3.081938067E0,1.278356276E-2,-2.982831374E-2,1.704475097E-2
3.087177025E0,1.278356276E-2,-2.876301669E-2,1.811004803E-2
3.092199318E0,9.587672539E-3,-2.876301669E-2,1.811004803E-2
3.097285516E0,7.457078435E-3,-2.876301669E-2,1.917534508E-2
3.102174371E0,5.326484796E-3,-3.089361079E-2,2.130593918E-2
3.107430048E0,1.065296936E-3,-2.982831374E-2,2.024064213E-2
3.112397758E0,0.000000000E0,-2.876301669E-2,1.704475097E-2
3.117560935E0,1.065296936E-3,-2.769771963E-2,1.491415687E-2
3.122419478E0,2.130593872E-3,-2.343653329E-2,1.384885982E-2
3.127657915E0,3.195890691E-3,-1.704475097E-2,1.278356276E-2
3.132655156E0,8.522375487E-3,-1.384885982E-2,8.522375487E-3
3.137897187E0,8.522375487E-3,-3.195890691E-3,7.457078435E-3
3.142656146E0,8.522375487E-3,2.130593872E-3,7.457078435E-3
3.147877604E0,1.171826664E-2,5.326484796E-3,8.522375487E-3
3.152916043E0,9.587672539E-3,6.391781382E-3,6.391781382E-3
3.157993543E0,1.065296959E-2,6.391781382E-3,6.391781382E-3
3.163021252E0,8.522375487E-3,7.457078435E-3,5.326484796E-3
3.168020471E0,1.065296959E-2,6.391781382E-3,6.391781382E-3
3.173129535E0,1.065296959E-2,8.522375487E-3,6.391781382E-3
3.178267659E0,1.065296959E-2,7.457078435E-3,5.326484796E-3
3.183270213E0,1.171826664E-2,8.522375487E-3,6.391781382E-3
3.188423546E0,1.278356276E-2,1.065296959E-2,6.391781382E-3
3.193391672E0,1.065296959E-2,1.597945392E-2,6.391781382E-3
3.198423390E0,1.171826664E-2,1.704475097E-2,8.522375487E-3
3.203463496E0,9.587672539E-3,1.917534508E-2,8.522375487E-3
3.208625423E0,9.587672539E-3,2.024064213E-2,7.457078435E-3
3.213620372E0,8.522375487E-3,2.024064213E-2,6.391781382E-3
3.218734591E0,9.587672539E-3,2.663242258E-2,6.391781382E-3
3.223740529E0,1.278356276E-2,2.663242258E-2,7.457078435E-3
3.228858133E0,1.491415687E-2,2.663242258E-2,9.587672539E-3
3.233885999E0,1.384885982E-2,2.769771963E-2,9.587672539E-3
3.238908811E0,1.384885982E-2,3.089361079E-2,9.587672539E-3
3.243884906E0,1.384885982E-2,2.982831374E-2,8.522375487E-3
3.249125427E0,1.597945392E-2,3.089361079E-2,8.522375487E-3
3.254147512E0,1.491415687E-2,2.876301669E-2,8.522375487E-3
3.259248865E0,1.384885982E-2,2.556712553E-2,7.457078435E-3
3.264231575E0,1.491415687E-2,2.130593918E-2,7.457078435E-3
3.269327148E0,1.491415687E-2,1.704475097E-2,9.587672539E-3
3.274416159E0,1.811004803E-2,1.597945392E-2,9.587672539E-3
3.279504128E0,2.024064213E-2,1.491415687E-2,1.065296959E-2
3.284526733E0,1.917534508E-2,1.597945392E-2,1.384885982E-2
3.289603139E0,2.024064213E-2,1.278356276E-2,1.384885982E-2
3.294587464E0,1.811004803E-2,1.171826664E-2,1.384885982E-2
3.299646630E0,1.704475097E-2,9.587672539E-3,1.384885982E-2
3.304612360E0,1.704475097E-2,8.522375487E-3,1.384885982E-2
3.309855745E0,1.491415687E-2,7.457078435E-3,1.171826664E-2
3.314750590E0,1.491415687E-2,1.065296959E-2,1.491415687E-2
3.320008611E0,1.811004803E-2,1.065296959E-2,1.171826664E-2
3.324963300E0,1.597945392E-2,1.065296959E-2,1.171826664E-2
3.330067310E0,1.597945392E-2,8.522375487E-3,1.065296959E-2
3.335079238E0,1.597945392E-2,4.261187743E-3,1.065296959E-2
3.340209915E0,1.171826664E-2,1.065296936E-3,1.065296959E-2
3.345269031E0,1.065296959E-2,-5.326484796E-3,1.065296959E-2
3.350348927E0,7.457078435E-3,-1.065296959E-2,9.587672539E-3
3.355239969E0,4.261187743E-3,-1.278356276E-2,1.278356276E-2
3.360530074E0,3.195890691E-3,-2.024064213E-2,9.587672539E-3
3.365422314E0,2.130593872E-3,-2.769771963E-2,6.391781382E-3
3.370608512E0,1.065296936E-3,-3.515479714E-2,9.587672539E-3
3.375606951E0,1.065296936E-3,-3.728539124E-2,1.065296959E-2
3.380806586E0,2.130593872E-3,-4.048128426E-2,1.065296959E-2
3.385744712E0,4.261187743E-3,-4.154657945E-2,1.171826664E-2
3.390809087E0,5.326484796E-3,-3.941598535E-2,1.171826664E-2
3.395870703E0,6.391781382E-3,-3.835069016E-2,1.065296959E-2
3.400976588E0,7.457078435E-3,-3.941598535E-2,1.065296959E-2
3.405958620E0,9.587672539E-3,-3.728539124E-2,1.278356276E-2
3.411017214E0,8.522375487E-3,-3.515479714E-2,1.278356276E-2
3.416088986E0,9.587672539E-3,-3.835069016E-2,1.597945392E-2
3.421185652E0,5.326484796E-3,-4.154657945E-2,1.597945392E-2
3.426186591E0,3.195890691E-3,-4.793836176E-2,1.278356276E-2
3.431338882E0,4.261187743E-3,-5.219954997E-2,1.384885982E-2
3.436325394E0,3.195890691E-3,-5.539543927E-2,1.065296959E-2
3.441388675E0,1.065296936E-3,-6.285251677E-2,1.065296959E-2
3.446453416E0,1.065296936E-3,-6.711370498E-2,9.587672539E-3
3.451454770E0,1.065296936E-3,-6.924430281E-2,8.522375487E-3
3.456489719E0,2.130593872E-3,-7.244019210E-2,8.522375487E-3
3.461709250E0,1.065296936E-3,-7.350549102E-2,7.457078435E-3
3.466701335E0,3.195890691E-3,-7.137489319E-2,1.065296959E-2
3.471774824E0,3.195890691E-3,-6.924430281E-2,1.278356276E-2
3.476689930E0,1.065296936E-3,-6.924430281E-2,9.587672539E-3
3.481839565E0,0.000000000E0,-6.817900389E-2,5.326484796E-3
3.487003524E0,-1.065296936E-3,-6.498311460E-2,7.457078435E-3
3.492110816E0,-5.326484796E-3,-6.498311460E-2,9.587672539E-3
3.497075921E0,-7.457078435E-3,-6.711370498E-2,1.065296959E-2
3.502045348E0,-9.587672539E-3,-6.604841352E-2,1.278356276E-2
3.507155558E0,-1.278356276E-2,-6.711370498E-2,1.278356276E-2
3.512307953E0,-1.278356276E-2,-6.711370498E-2,1.171826664E-2
3.517338059E0,-1.171826664E-2,-6.178722158E-2,9.587672539E-3
3.522298371E0,-9.587672539E-3,-5.539543927E-2,8.522375487E-3
3.527352070E0,-3.195890691E-3,-4.367717355E-2,1.171826664E-2
3.532427590E0,3.195890691E-3,-2.663242258E-2,1.278356276E-2
3.537563842E0,5.326484796E-3,-1.278356276E-2,1.597945392E-2
3.542619883E0,7.457078435E-3,-5.326484796E-3,1.917534508E-2
3.547680718E0,1.171826664E-2,2.130593872E-3,2.024064213E-2
3.552671395E0,7.457078435E-3,1.384885982E-2,2.769771963E-2
3.557663531E0,6.391781382E-3,1.811004803E-2,2.982831374E-2
3.562778635E0,5.326484796E-3,2.237123623E-2,3.195890784E-2
3.567801345E0,2.130593872E-3,2.769771963E-2,3.835069016E-2
3.573023220E0,-1.065296936E-3,2.982831374E-2,3.728539124E-2
3.578014992E0,-3.195890691E-3,2.982831374E-2,3.195890784E-2
3.583038325E0,-7.457078435E-3,3.089361079E-2,2.876301669E-2
3.588157701E0,-1.065296959E-2,3.089361079E-2,2.343653329E-2
3.593267649E0,-1.384885982E-2,2.982831374E-2,2.024064213E-2
3.598321035E0,-1.491415687E-2,2.982831374E-2,2.130593918E-2
3.603347389E0,-1.278356276E-2,2.982831374E-2,1.811004803E-2
3.608341505E0,-1.278356276E-2,3.302420676E-2,1.597945392E-2
3.613449161E0,-1.384885982E-2,3.835069016E-2,1.065296959E-2
3.618572027E0,-1.065296959E-2,4.048128426E-2,7.457078435E-3
3.623514787E0,-1.171826664E-2,4.474247247E-2,5.326484796E-3
3.628678382E0,-1.065296959E-2,4.793836176E-2,4.261187743E-3
3.633638330E0,-9.587672539E-3,4.580776766E-2,7.457078435E-3
3.638642341E0,-1.065296959E-2,4.580776766E-2,4.261187743E-3
3.643820622E0,-1.171826664E-2,5.006895587E-2,0.000000000E0
3.648776613E0,-1.278356276E-2,5.006895587E-2,-1.065296936E-3
3.653896457E0,-1.171826664E-2,4.793836176E-2,-1.065296936E-3
3.659057239E0,-1.065296959E-2,4.793836176E-2,-1.065296936E-3
3.664196875E0,-1.065296959E-2,5.219954997E-2,0.000000000E0
3.669023907E0,-8.522375487E-3,5.326484516E-2,1.065296936E-3
3.674169063E0,-9.587672539E-3,5.326484516E-2,1.065296936E-3
3.679135991E0,-1.171826664E-2,5.006895587E-2,0.000000000E0
3.684283752E0,-1.704475097E-2,4.367717355E-2,3.195890691E-3
3.689400940E0,-1.597945392E-2,3.728539124E-2,3.195890691E-3
3.694412190E0,-1.811004803E-2,3.515479714E-2,4.261187743E-3
3.699534066E0,-1.704475097E-2,2.876301669E-2,5.326484796E-3
3.704585576E0,-1.597945392E-2,2.237123623E-2,8.522375487E-3
3.709630109E0,-1.171826664E-2,1.917534508E-2,8.522375487E-3
3.714618182E0,-8.522375487E-3,1.491415687E-2,8.522375487E-3
3.719691256E0,-9.587672539E-3,1.065296959E-2,6.391781382E-3
3.724737922E0,-9.587672539E-3,3.195890691E-3,6.391781382E-3
3.729778601E0,-7.457078435E-3,-5.326484796E-3,7.457078435E-3
3.735049277E0,-9.587672539E-3,-1.384885982E-2,6.391781382E-3
3.739953602E0,-6.391781382E-3,-1.704475097E-2,6.391781382E-3
3.745159278E0,-5.326484796E-3,-2.130593918E-2,7.457078435E-3
3.750119175E0,-5.326484796E-3,-2.237123623E-2,8.522375487E-3
3.755239331E0,-6.391781382E-3,-2.343653329E-2,8.522375487E-3
3.760326312E0,-4.261187743E-3,-2.237123623E-2,9.587672539E-3
3.765424176E0,-3.195890691E-3,-2.556712553E-2,1.065296959E-2
3.770512771E0,-8.522375487E-3,-2.343653329E-2,1.171826664E-2
3.775478500E0,-5.326484796E-3,-2.663242258E-2,1.278356276E-2
3.780469804E0,-2.130593872E-3,-2.982831374E-2,1.278356276E-2
3.785587564E0,-2.130593872E-3,-3.195890784E-2,1.917534508E-2
3.790579440E0,-1.065296936E-3,-3.408950195E-2,2.237123623E-2
3.795694804E0,-1.065296936E-3,-3.622009605E-2,2.024064213E-2
3.800717149E0,-1.065296936E-3,-3.941598535E-2,2.237123623E-2
3.805744857E0,4.261187743E-3,-3.835069016E-2,2.450183034E-2
3.810748504E0,4.261187743E-3,-3.941598535E-2,2.769771963E-2
3.815859702E0,3.195890691E-3,-3.728539124E-2,3.089361079E-2
3.820838922E0,4.261187743E-3,-3.835069016E-2,2.769771963E-2
3.826108766E0,3.195890691E-3,-4.048128426E-2,2.769771963E-2
3.830962204E0,3.195890691E-3,-3.941598535E-2,2.663242258E-2
3.836103089E0,6.391781382E-3,-3.515479714E-2,2.343653329E-2
3.841081060E0,6.391781382E-3,-2.982831374E-2,2.237123623E-2
3.846364549E0,1.171826664E-2,-2.450183034E-2,2.130593918E-2
3.851343769E0,1.704475097E-2,-1.917534508E-2,1.704475097E-2
3.856453091E0,2.024064213E-2,-1.384885982E-2,1.171826664E-2
3.861436218E0,1.704475097E-2,-1.597945392E-2,1.278356276E-2
3.866542624E0,1.171826664E-2,-1.811004803E-2,1.384885982E-2
3.871548354E0,7.457078435E-3,-2.024064213E-2,1.278356276E-2
3.876665802E0,3.195890691E-3,-2.237123623E-2,1.171826664E-2
3.881696689E0,-1.065296936E-3,-2.556712553E-2,9.587672539E-3
3.886806115E0,-6.391781382E-3,-2.876301669E-2,8.522375487E-3
3.891816169E0,-5.326484796E-3,-2.343653329E-2,1.171826664E-2
3.896959137E0,-8.522375487E-3,-1.811004803E-2,1.171826664E-2
3.901861378E0,-1.065296959E-2,-1.597945392E-2,1.171826664E-2
3.907066794E0,-1.384885982E-2,-7.457078435E-3,1.065296959E-2
3.912035129E0,-1.704475097E-2,-4.261187743E-3,1.065296959E-2
3.917173931E0,-2.237123623E-2,-5.326484796E-3,1.065296959E-2
3.922133307E0,-2.663242258E-2,-8.522375487E-3,9.587672539E-3
3.927291484E0,-3.408950195E-2,-1.491415687E-2,7.457078435E-3
3.932300027E0,-4.048128426E-2,-2.343653329E-2,5.326484796E-3
3.937418777E0,-4.474247247E-2,-3.195890784E-2,4.261187743E-3
3.942301174E0,-4.900366068E-2,-3.302420676E-2,3.195890691E-3
3.947546330E0,-5.113425106E-2,-3.941598535E-2,0.000000000E0
3.952519716E0,-5.326484516E-2,-4.474247247E-2,0.000000000E0
3.957660602E0,-5.433014408E-2,-5.113425106E-2,-1.065296936E-3
3.962589613E0,-5.433014408E-2,-5.539543927E-2,-5.326484796E-3
3.967674978E0,-5.433014408E-2,-5.752603337E-2,-5.326484796E-3
3.972779510E0,-5.433014408E-2,-6.072192639E-2,-5.326484796E-3
3.977909041E0,-5.433014408E-2,-6.391781569E-2,-4.261187743E-3
3.982927792E0,-5.219954997E-2,-6.924430281E-2,-1.065296936E-3
3.988182323E0,-5.006895587E-2,-8.202786744E-2,2.130593872E-3
3.993010398E0,-5.006895587E-2,-9.055023640E-2,3.195890691E-3
3.998147533E0,-4.474247247E-2,-9.800732136E-2,4.261187743E-3
4.003163680E0,-4.048128426E-2,-1.065296903E-1,4.261187743E-3
4.008161700E0,-3.195890784E-2,-1.150520667E-1,5.326484796E-3
4.013312587E0,-2.343653329E-2,-1.225091442E-1,7.457078435E-3
4.018504878E0,-1.704475097E-2,-1.310315281E-1,7.457078435E-3
4.023421963E0,-1.171826664E-2,-1.406191885E-1,1.065296959E-2
4.028450609E0,-9.587672539E-3,-1.502068639E-1,1.278356276E-2
4.033435766E0,-8.522375487E-3,-1.619251370E-1,1.384885982E-2
4.038550714E0,-6.391781382E-3,-1.757739931E-1,1.384885982E-2
4.043640559E0,-6.391781382E-3,-1.874922663E-1,1.597945392E-2
4.048641704E0,-6.391781382E-3,-1.981452256E-1,1.917534508E-2
4.053781341E0,-6.391781382E-3,-2.013411224E-1,2.556712553E-2
4.058892330E0,-1.065296936E-3,-2.056023031E-1,2.450183034E-2
4.063883530E0,1.065296936E-3,-2.141246796E-1,1.597945392E-2
4.068896186E0,1.065296936E-3,-2.247776538E-1,1.065296959E-2
4.073988739E0,1.065296936E-3,-2.386265099E-1,1.065296959E-2
4.079133895E0,1.065296936E-3,-2.471488863E-1,1.171826664E-2
4.084156448E0,5.326484796E-3,-2.503447831E-1,1.171826664E-2
4.089230771E0,6.391781382E-3,-2.460835874E-1,1.171826664E-2
4.094215199E0,1.065296959E-2,-2.407571077E-1,1.171826664E-2
4.099250512E0,1.491415687E-2,-2.386265099E-1,1.384885982E-2
4.104382180E0,1.704475097E-2,-2.428877056E-1,1.491415687E-2
4.109370252E0,1.811004803E-2,-2.492794842E-1,1.704475097E-2
4.114376504E0,1.384885982E-2,-2.546059787E-1,1.811004803E-2
4.119505305E0,1.384885982E-2,-2.641936541E-1,2.130593918E-2
4.124618640E0,7.457078435E-3,-2.748466134E-1,2.450183034E-2
4.129768327E0,4.261187743E-3,-2.854995728E-1,2.876301669E-2
4.134624578E0,-1.065296936E-3,-2.972178459E-1,3.408950195E-2
4.139864109E0,0.000000000E0,-3.121320009E-1,3.728539124E-2
4.144859371E0,-2.130593872E-3,-3.281114697E-1,3.728539124E-2
4.149962131E0,-6.391781382E-3,-3.419603109E-1,3.835069016E-2
4.154971091E0,-8.522375487E-3,-3.536785841E-1,3.835069016E-2
4.160081715E0,-7.457078435E-3,-3.611356616E-1,3.941598535E-2
4.165144165E0,-8.522375487E-3,-3.685927391E-1,3.941598535E-2
4.170247341E0,-7.457078435E-3,-3.728539348E-1,3.835069016E-2
4.175174374E0,-5.326484796E-3,-3.717886209E-1,3.515479714E-2
4.180401457E0,1.065296936E-3,-3.707233369E-1,3.515479714E-2
4.185257344E0,5.326484796E-3,-3.696580231E-1,3.195890784E-2
4.190493802E0,9.587672539E-3,-3.653968573E-1,3.195890784E-2
4.195519689E0,1.384885982E-2,-3.632662594E-1,3.195890784E-2
4.200633699E0,1.704475097E-2,-3.558091819E-1,3.302420676E-2
4.205475471E0,1.704475097E-2,-3.451561928E-1,3.408950195E-2
4.210607918E0,2.024064213E-2,-3.323726356E-1,3.515479714E-2
4.215816670E0,2.450183034E-2,-3.259808719E-1,3.408950195E-2
4.220864065E0,2.876301669E-2,-3.249155581E-1,2.769771963E-2
4.225730785E0,3.302420676E-2,-3.281114697E-1,2.556712553E-2
4.230961671E0,3.302420676E-2,-3.313073516E-1,2.343653329E-2
4.235948859E0,3.622009605E-2,-3.334379494E-1,2.237123623E-2
4.241078130E0,3.835069016E-2,-3.334379494E-1,2.663242258E-2
4.246101621E0,4.048128426E-2,-3.291767538E-1,2.769771963E-2
4.251083131E0,3.941598535E-2,-3.270461559E-1,2.982831374E-2
4.256088028E0,3.728539124E-2,-3.206543922E-1,3.408950195E-2
4.261215371E0,3.941598535E-2,-3.163931966E-1,3.622009605E-2
4.266346987E0,3.941598535E-2,-3.174584806E-1,3.728539124E-2
4.271518758E0,3.622009605E-2,-3.174584806E-1,3.622009605E-2
4.276518811E0,3.089361079E-2,-3.142625988E-1,3.835069016E-2
4.281449176E0,2.876301669E-2,-3.142625988E-1,3.941598535E-2
4.286465791E0,3.089361079E-2,-3.153278828E-1,4.261187837E-2
4.291724124E0,2.769771963E-2,-3.142625988E-1,4.474247247E-2
4.296629595E0,2.450183034E-2,-3.163931966E-1,4.261187837E-2
4.301973396E0,2.663242258E-2,-3.195890784E-1,4.261187837E-2
4.306840221E0,2.450183034E-2,-3.217196763E-1,4.367717355E-2
4.311945845E0,2.024064213E-2,-3.217196763E-1,4.261187837E-2
4.316813242E0,1.811004803E-2,-3.217196763E-1,3.941598535E-2
4.321960117E0,2.130593918E-2,-3.185237944E-1,3.622009605E-2
4.327062410E0,1.917534508E-2,-3.131972849E-1,3.728539124E-2
4.332209285E0,2.024064213E-2,-2.982831299E-1,3.835069016E-2
4.337096526E0,2.343653329E-2,-2.801730931E-1,3.408950195E-2
4.342178765E0,2.663242258E-2,-2.652589381E-1,3.195890784E-2
4.347432620E0,2.663242258E-2,-2.524753809E-1,3.408950195E-2
4.352532828E0,2.663242258E-2,-2.428877056E-1,3.195890784E-2
4.357444236E0,2.663242258E-2,-2.343653291E-1,3.302420676E-2
4.362424861E0,2.663242258E-2,-2.343653291E-1,3.195890784E-2
4.367526633E0,2.130593918E-2,-2.386265099E-1,2.769771963E-2
4.372676424E0,1.597945392E-2,-2.418224066E-1,2.769771963E-2
4.377653613E0,1.278356276E-2,-2.428877056E-1,2.663242258E-2
4.382860279E0,1.065296959E-2,-2.460835874E-1,2.450183034E-2
4.387809864E0,7.457078435E-3,-2.460835874E-1,2.450183034E-2
4.392911843E0,7.457078435E-3,-2.450182885E-1,2.237123623E-2
4.397792782E0,7.457078435E-3,-2.428877056E-1,2.024064213E-2
4.402914292E0,2.130593872E-3,-2.386265099E-1,1.597945392E-2
4.407979033E0,1.065296936E-3,-2.386265099E-1,1.597945392E-2
4.413191116E0,-4.261187743E-3,-2.375612110E-1,1.597945392E-2
4.418034450E0,-1.065296959E-2,-2.333000302E-1,1.384885982E-2
4.423167419E0,-1.278356276E-2,-2.237123549E-1,1.278356276E-2
4.428278045E0,-1.278356276E-2,-2.066676021E-1,1.384885982E-2
4.433269659E0,-1.171826664E-2,-1.906881481E-1,1.278356276E-2
4.438389713E0,-8.522375487E-3,-1.725780964E-1,1.278356276E-2
4.443508306E0,-6.391781382E-3,-1.480762810E-1,1.811004803E-2
4.448548985E0,-4.261187743E-3,-1.203785539E-1,2.130593918E-2
4.453644922E0,0.000000000E0,-9.587672353E-2,2.556712553E-2
4.458734819E0,1.065296936E-3,-8.309315890E-2,2.343653329E-2
4.463642787E0,5.326484796E-3,-7.457078248E-2,2.130593918E-2
4.468737320E0,2.130593872E-3,-7.350549102E-2,1.917534508E-2
4.473922893E0,1.065296936E-3,-7.563608140E-2,1.491415687E-2
4.478774769E0,0.000000000E0,-7.670138031E-2,1.597945392E-2
4.483898258E0,-2.130593872E-3,-7.670138031E-2,1.704475097E-2
4.488890030E0,-3.195890691E-3,-7.244019210E-2,1.917534508E-2
4.494096957E0,-6.391781382E-3,-6.604841352E-2,2.130593918E-2
4.499028104E0,-7.457078435E-3,-6.178722158E-2,1.811004803E-2
4.504479719E0,-6.391781382E-3,-6.072192639E-2,1.384885982E-2
4.509402168E0,-5.326484796E-3,-6.072192639E-2,1.278356276E-2
4.514365709E0,-6.391781382E-3,-5.539543927E-2,6.391781382E-3
4.519370502E0,-4.261187743E-3,-4.793836176E-2,4.261187743E-3
4.524500502E0,-3.195890691E-3,-3.622009605E-2,3.195890691E-3
4.529507274E0,-3.195890691E-3,-2.876301669E-2,2.130593872E-3
4.534547534E0,-5.326484796E-3,-2.343653329E-2,2.130593872E-3
4.539549723E0,-7.457078435E-3,-1.811004803E-2,1.065296936E-3
4.544742848E0,-1.171826664E-2,-1.384885982E-2,0.000000000E0
4.549785297E0,-1.171826664E-2,-9.587672539E-3,-1.065296936E-3
4.554847640E0,-1.065296959E-2,-3.195890691E-3,-1.065296936E-3
4.559868579E0,-9.587672539E-3,4.261187743E-3,2.130593872E-3
4.564982433E0,-9.587672539E-3,1.704475097E-2,3.195890691E-3
4.569982122E0,-9.587672539E-3,2.663242258E-2,4.261187743E-3
4.575104569E0,-7.457078435E-3,3.622009605E-2,6.391781382E-3
4.580140300E0,-8.522375487E-3,4.793836176E-2,6.391781382E-3
4.585249831E0,-6.391781382E-3,5.859133229E-2,4.261187743E-3
4.590216186E0,-3.195890691E-3,6.711370498E-2,5.326484796E-3
4.595349519E0,-6.391781382E-3,7.244019210E-2,6.391781382E-3
4.600336812E0,-7.457078435E-3,6.924430281E-2,7.457078435E-3
4.605443531E0,-8.522375487E-3,6.711370498E-2,5.326484796E-3
4.610434678E0,-6.391781382E-3,6.711370498E-2,1.065296936E-3
4.615492386E0,-9.587672539E-3,6.604841352E-2,-1.065296936E-3
4.620546033E0,-9.587672539E-3,6.711370498E-2,-1.065296936E-3
4.625758168E0,-8.522375487E-3,6.924430281E-2,-5.326484796E-3
4.630807753E0,-9.587672539E-3,7.244019210E-2,-5.326484796E-3
4.635718534E0,-9.587672539E-3,7.776667923E-2,-6.391781382E-3
4.640852650E0,-9.587672539E-3,8.309315890E-2,-6.391781382E-3
4.645835618E0,-7.457078435E-3,8.841964602E-2,-7.457078435E-3
4.650839265E0,-8.522375487E-3,9.161553532E-2,-7.457078435E-3
4.655970255E0,-8.522375487E-3,9.587672353E-2,-8.522375487E-3
4.660963537E0,-1.065296959E-2,9.907261282E-2,-6.391781382E-3
4.666079735E0,-1.278356276E-2,9.694202244E-2,-5.326484796E-3
4.671225413E0,-1.171826664E-2,9.481142461E-2,-5.326484796E-3
4.676318434E0,-1.065296959E-2,9.055023640E-2,-4.261187743E-3
4.681331664E0,-1.065296959E-2,9.374613315E-2,-4.261187743E-3
4.686472497E0,-9.587672539E-3,9.800732136E-2,-6.391781382E-3
4.691453696E0,-8.522375487E-3,9.907261282E-2,-7.457078435E-3
4.696588644E0,-5.326484796E-3,1.043990999E-1,-6.391781382E-3
4.701618906E0,-6.391781382E-3,1.065296903E-1,-7.457078435E-3
4.706777030E0,-7.457078435E-3,1.118561774E-1,-5.326484796E-3
4.711652865E0,-4.261187743E-3,1.171826646E-1,-4.261187743E-3
4.716761511E0,-3.195890691E-3,1.139867753E-1,-5.326484796E-3
4.721824429E0,-2.130593872E-3,1.139867753E-1,-5.326484796E-3
4.726882085E0,-4.261187743E-3,1.086602882E-1,-5.326484796E-3
4.731952815E0,-2.130593872E-3,1.001379117E-1,-4.261187743E-3
4.737103648E0,-3.195890691E-3,9.268083423E-2,-1.065296936E-3
4.741938962E0,-5.326484796E-3,8.202786744E-2,-1.065296936E-3
4.747111930E0,-6.391781382E-3,7.350549102E-2,1.065296936E-3
4.752234119E0,-7.457078435E-3,6.924430281E-2,2.130593872E-3
4.757360421E0,-6.391781382E-3,6.711370498E-2,4.261187743E-3
4.762347714E0,-5.326484796E-3,6.285251677E-2,4.261187743E-3
4.767452245E0,-2.130593872E-3,6.285251677E-2,5.326484796E-3
4.772432767E0,0.000000000E0,6.285251677E-2,7.457078435E-3
4.777577089E0,3.195890691E-3,6.604841352E-2,1.065296959E-2
4.782460580E0,9.587672539E-3,6.924430281E-2,1.065296959E-2
4.787554018E0,1.171826664E-2,6.604841352E-2,1.065296959E-2
4.792549436E0,1.171826664E-2,6.498311460E-2,9.587672539E-3
4.797866831E0,1.384885982E-2,6.072192639E-2,9.587672539E-3
4.802847978E0,1.597945392E-2,5.752603337E-2,1.065296959E-2
4.807957353E0,1.811004803E-2,5.433014408E-2,6.391781382E-3
4.812941677E0,2.130593918E-2,4.900366068E-2,5.326484796E-3
4.817907406E0,2.450183034E-2,4.048128426E-2,6.391781382E-3
4.822978918E0,2.556712553E-2,3.515479714E-2,6.391781382E-3
4.828195063E0,2.663242258E-2,2.876301669E-2,3.195890691E-3
4.833167513E0,2.769771963E-2,2.024064213E-2,2.130593872E-3
4.838279231E0,2.556712553E-2,1.065296959E-2,2.130593872E-3
4.843173191E0,2.450183034E-2,2.130593872E-3,1.065296936E-3
4.848397826E0,1.917534508E-2,-5.326484796E-3,0.000000000E0
4.853285588E0,1.384885982E-2,-1.065296959E-2,0.000000000E0
4.858399754E0,9.587672539E-3,-1.278356276E-2,0.000000000E0
4.863421422E0,9.587672539E-3,-1.704475097E-2,-1.065296936E-3
4.868741734E0,8.522375487E-3,-1.704475097E-2,0.000000000E0
4.873653558E0,8.522375487E-3,-1.704475097E-2,-1.065296936E-3
4.878788454E0,6.391781382E-3,-1.597945392E-2,0.000000000E0
4.883765486E0,4.261187743E-3,-1.704475097E-2,-1.065296936E-3
4.888872361E0,4.261187743E-3,-1.811004803E-2,-2.130593872E-3
4.893900644E0,1.065296936E-3,-1.704475097E-2,0.000000000E0
4.898957935E0,-2.130593872E-3,-1.811004803E-2,-1.065296936E-3
4.903894655E0,-4.261187743E-3,-1.917534508E-2,-3.195890691E-3
4.909282728E0,-8.522375487E-3,-2.343653329E-2,-4.261187743E-3
4.914210177E0,-8.522375487E-3,-2.556712553E-2,-3.195890691E-3
4.919287468E0,-8.522375487E-3,-2.450183034E-2,-4.261187743E-3
4.924199917E0,-1.065296959E-2,-2.343653329E-2,-7.457078435E-3
4.929395073E0,-1.065296959E-2,-2.024064213E-2,-7.457078435E-3
4.934320700E0,-9.587672539E-3,-1.597945392E-2,-8.522375487E-3
4.939409762E0,-4.261187743E-3,-8.522375487E-3,-9.587672539E-3
4.944550440E0,-4.261187743E-3,0.000000000E0,-9.587672539E-3
4.949662523E0,-4.261187743E-3,7.457078435E-3,-9.587672539E-3
4.954500441E0,-3.195890691E-3,1.384885982E-2,-1.171826664E-2
4.959757993E0,-5.326484796E-3,2.130593918E-2,-1.171826664E-2
4.964776171E0,-4.261187743E-3,2.663242258E-2,-1.065296959E-2
4.969846588E0,-6.391781382E-3,3.195890784E-2,-1.384885982E-2
4.974852735E0,-7.457078435E-3,3.728539124E-2,-1.278356276E-2
4.979876380E0,-6.391781382E-3,4.154657945E-2,-1.278356276E-2
4.984903517E0,-8.522375487E-3,4.580776766E-2,-1.384885982E-2
4.990106121E0,-9.587672539E-3,5.219954997E-2,-1.278356276E-2
4.995273727E0,-9.587672539E-3,5.859133229E-2,-1.171826664E-2
5.000319612E0,-1.065296959E-2,6.817900389E-2,-1.065296959E-2
5.005264248E0,-9.587672539E-3,7.776667923E-2,-1.171826664E-2
5.010357321E0,-1.065296959E-2,8.735434711E-2,-1.171826664E-2
5.015360760E0,-1.065296959E-2,9.907261282E-2,-1.171826664E-2
5.020532218E0,-1.384885982E-2,1.118561774E-1,-1.065296959E-2
5.025434719E0,-1.278356276E-2,1.289009303E-1,-1.065296959E-2
5.030473365E0,-9.587672539E-3,1.448803842E-1,-1.278356276E-2
5.035599199E0,-1.065296959E-2,1.651210189E-1,-1.384885982E-2
5.040696699E0,-9.587672539E-3,1.885575503E-1,-1.171826664E-2
5.045712013E0,-8.522375487E-3,2.077329010E-1,-1.384885982E-2
5.050838471E0,-7.457078435E-3,2.226470560E-1,-1.384885982E-2
5.055826754E0,-8.522375487E-3,2.386265099E-1,-1.491415687E-2
5.060946597E0,-1.171826664E-2,2.482141852E-1,-1.597945392E-2
5.065918161E0,-1.171826664E-2,2.556712627E-1,-1.491415687E-2
5.071134775E0,-1.278356276E-2,2.609977424E-1,-1.597945392E-2
5.076117068E0,-1.704475097E-2,2.620630562E-1,-1.597945392E-2
5.081247016E0,-1.597945392E-2,2.641936541E-1,-1.704475097E-2
5.086250402E0,-1.597945392E-2,2.631283402E-1,-2.237123623E-2
5.091412954E0,-1.597945392E-2,2.631283402E-1,-2.237123623E-2
5.096209674E0,-1.171826664E-2,2.641936541E-1,-2.450183034E-2
5.101339622E0,-7.457078435E-3,2.609977424E-1,-2.769771963E-2
5.106400092E0,-9.587672539E-3,2.546059787E-1,-2.769771963E-2
5.111643946E0,-1.384885982E-2,2.439530045E-1,-2.769771963E-2
5.116496753E0,-1.491415687E-2,2.343653291E-1,-2.876301669E-2
5.121856186E0,-1.704475097E-2,2.215817571E-1,-2.982831374E-2
5.126589677E0,-2.237123623E-2,2.119940966E-1,-2.556712553E-2
5.131821083E0,-2.343653329E-2,1.981452256E-1,-2.769771963E-2
5.136823012E0,-2.876301669E-2,1.832310706E-1,-2.663242258E-2
5.141892490E0,-3.408950195E-2,1.672516167E-1,-2.876301669E-2
5.147035877E0,-3.728539124E-2,1.534027606E-1,-2.769771963E-2
5.151944419E0,-3.941598535E-2,1.384886056E-1,-2.769771963E-2
5.157101139E0,-4.048128426E-2,1.299662292E-1,-2.876301669E-2
5.162092388E0,-3.835069016E-2,1.246397421E-1,-2.769771963E-2
5.167150775E0,-3.622009605E-2,1.193132550E-1,-2.556712553E-2
5.172324420E0,-3.515479714E-2,1.118561774E-1,-2.556712553E-2
5.177322859E0,-3.195890784E-2,1.107908785E-1,-2.130593918E-2
5.182303484E0,-2.982831374E-2,1.118561774E-1,-2.024064213E-2
5.187470881E0,-2.663242258E-2,1.075949892E-1,-2.024064213E-2
5.192456089E0,-2.450183034E-2,1.012032107E-1,-1.811004803E-2
5.197459736E0,-1.917534508E-2,9.268083423E-2,-1.704475097E-2
5.202579059E0,-1.811004803E-2,8.202786744E-2,-1.491415687E-2
5.207597029E0,-1.597945392E-2,6.924430281E-2,-1.597945392E-2
5.212676977E0,-1.597945392E-2,5.113425106E-2,-1.704475097E-2
5.217690259E0,-1.597945392E-2,3.302420676E-2,-1.597945392E-2
5.222956197E0,-2.024064213E-2,1.811004803E-2,-1.597945392E-2
5.227942187E0,-1.917534508E-2,-6.391781382E-3,-2.130593918E-2
5.233072395E0,-1.384885982E-2,-3.089361079E-2,-2.024064213E-2
5.238030834E0,-1.597945392E-2,-3.622009605E-2,-1.704475097E-2
5.243040782E0,-2.130593918E-2,-4.048128426E-2,-1.704475097E-2
5.248045731E0,-2.130593918E-2,-4.900366068E-2,-1.597945392E-2
5.253279845E0,-2.024064213E-2,-5.539543927E-2,-1.597945392E-2
5.258393545E0,-1.704475097E-2,-5.539543927E-2,-1.384885982E-2
5.263455627E0,-1.491415687E-2,-4.793836176E-2,-1.384885982E-2
5.268399691E0,-1.597945392E-2,-4.580776766E-2,-1.171826664E-2
5.273497139E0,-1.384885982E-2,-3.408950195E-2,-9.587672539E-3
5.278409640E0,-1.597945392E-2,-1.917534508E-2,-9.587672539E-3
5.283672973E0,-1.491415687E-2,-8.522375487E-3,-8.522375487E-3
5.288545475E0,-1.171826664E-2,-1.065296936E-3,-9.587672539E-3
5.293823599E0,-1.065296959E-2,1.384885982E-2,-9.587672539E-3
5.298859531E0,-1.065296959E-2,3.195890784E-2,-9.587672539E-3
5.303843288E0,-1.065296959E-2,5.006895587E-2,-1.065296959E-2
5.308780320E0,-7.457078435E-3,6.817900389E-2,-1.065296959E-2
5.313954018E0,-6.391781382E-3,8.841964602E-2,-1.065296959E-2
5.319033863E0,-5.326484796E-3,1.075949892E-1,-1.171826664E-2
5.324164540E0,-5.326484796E-3,1.246397421E-1,-1.278356276E-2
5.329092822E0,-6.391781382E-3,1.395539045E-1,-9.587672539E-3
5.334287353E0,-8.522375487E-3,1.534027606E-1,-8.522375487E-3
5.339286626E0,-9.587672539E-3,1.661863178E-1,-8.522375487E-3
5.344416313E0,-1.065296959E-2,1.779045910E-1,-1.065296959E-2
5.349270585E0,-1.065296959E-2,1.842963696E-1,-9.587672539E-3
5.354609647E0,-7.457078435E-3,1.917534471E-1,-1.171826664E-2
5.359391055E0,-4.261187743E-3,2.045370042E-1,-1.384885982E-2
5.364565377E0,-3.195890691E-3,2.173205763E-1,-2.024064213E-2
5.369602201E0,-3.195890691E-3,2.301041335E-1,-2.450183034E-2
5.374714701E0,2.130593872E-3,2.396918088E-1,-2.876301669E-2
5.379764182E0,5.326484796E-3,2.460835874E-1,-3.089361079E-2
5.384821837E0,2.130593872E-3,2.567365468E-1,-3.195890784E-2
5.389871631E0,2.130593872E-3,2.673895359E-1,-3.408950195E-2
5.394899235E0,-2.130593872E-3,2.759118974E-1,-3.302420676E-2
5.400028819E0,-3.195890691E-3,2.854995728E-1,-3.302420676E-2
5.405130121E0,-9.587672539E-3,2.961525619E-1,-3.302420676E-2
5.410112778E0,-1.597945392E-2,3.068055212E-1,-2.982831374E-2
5.415219393E0,-1.811004803E-2,3.142625988E-1,-2.663242258E-2
5.420221894E0,-1.917534508E-2,3.238502741E-1,-2.663242258E-2
5.425345904E0,-1.704475097E-2,3.366338313E-1,-2.343653329E-2
5.430541010E0,-1.597945392E-2,3.472867906E-1,-2.130593918E-2
5.435516791E0,-1.171826664E-2,3.568744659E-1,-2.024064213E-2
5.440537208E0,-1.065296959E-2,3.590050638E-1,-2.130593918E-2
5.445701010E0,-8.522375487E-3,3.600703776E-1,-2.343653329E-2
5.450607262E0,-7.457078435E-3,3.515479863E-1,-2.450183034E-2
5.455767313E0,-1.065296959E-2,3.419603109E-1,-2.876301669E-2
5.460602263E0,-1.491415687E-2,3.313073516E-1,-2.982831374E-2
5.465744710E0,-1.811004803E-2,3.313073516E-1,-2.982831374E-2
5.470947524E0,-1.811004803E-2,3.323726356E-1,-2.663242258E-2
5.475856117E0,-1.811004803E-2,3.206543922E-1,-2.769771963E-2
5.480998931E0,-1.491415687E-2,2.876301706E-1,-3.941598535E-2
5.486097889E0,-1.171826664E-2,2.514100671E-1,-3.835069016E-2
5.490995495E0,-1.278356276E-2,2.301041335E-1,-3.408950195E-2
5.496137682E0,-1.491415687E-2,2.237123549E-1,-2.982831374E-2
5.501090965E0,-1.278356276E-2,2.215817571E-1,-2.982831374E-2
5.506321016E0,-1.384885982E-2,2.109287977E-1,-3.089361079E-2
5.511395445E0,-1.384885982E-2,1.874922663E-1,-2.982831374E-2
5.516452632E0,-1.384885982E-2,1.683169156E-1,-3.195890784E-2
5.521465550E0,-1.384885982E-2,1.534027606E-1,-3.089361079E-2
5.526578622E0,-6.391781382E-3,1.374233067E-1,-2.982831374E-2
5.531582895E0,0.000000000E0,1.246397421E-1,-3.089361079E-2
5.536687269E0,4.261187743E-3,1.086602882E-1,-3.089361079E-2
5.541736489E0,9.587672539E-3,8.841964602E-2,-2.876301669E-2
5.546699718E0,9.587672539E-3,6.711370498E-2,-2.663242258E-2
5.551825970E0,8.522375487E-3,5.006895587E-2,-2.237123623E-2
5.556904928E0,9.587672539E-3,3.728539124E-2,-1.917534508E-2
5.561894877E0,5.326484796E-3,2.556712553E-2,-1.811004803E-2
5.566960554E0,4.261187743E-3,1.811004803E-2,-1.597945392E-2
5.572066909E0,7.457078435E-3,1.384885982E-2,-1.278356276E-2
5.577185086E0,0.000000000E0,3.302420676E-2,6.391781382E-3
5.582081337E0,-1.171826664E-2,6.711370498E-2,2.450183034E-2
5.587197431E0,-2.130593872E-3,5.752603337E-2,2.024064213E-2
5.592192953E0,1.065296959E-2,3.728539124E-2,2.130593918E-2
5.597496234E0,1.384885982E-2,1.491415687E-2,2.237123623E-2
5.602331235E0,1.278356276E-2,-1.171826664E-2,2.343653329E-2
5.607429933E0,7.457078435E-3,-2.343653329E-2,2.769771963E-2
5.612533528E0,7.457078435E-3,-2.343653329E-2,2.769771963E-2
5.617658788E0,1.171826664E-2,-2.237123623E-2,2.556712553E-2
5.622659518E0,1.917534508E-2,-2.556712553E-2,2.130593918E-2
5.627812383E0,2.982831374E-2,-3.941598535E-2,1.917534508E-2
5.632686967E0,3.302420676E-2,-4.580776766E-2,1.597945392E-2
5.637825561E0,2.769771963E-2,-4.580776766E-2,1.704475097E-2
5.642853427E0,2.556712553E-2,-4.261187837E-2,1.811004803E-2
5.648066447E0,2.556712553E-2,-3.622009605E-2,2.024064213E-2
5.653039365E0,2.663242258E-2,-2.556712553E-2,2.450183034E-2
5.658195302E0,2.556712553E-2,-1.065296959E-2,2.663242258E-2
5.663181501E0,2.024064213E-2,1.065296959E-2,3.089361079E-2
5.668296189E0,1.171826664E-2,3.622009605E-2,3.302420676E-2
5.673277544E0,7.457078435E-3,5.965662748E-2,3.302420676E-2
5.678318950E0,6.391781382E-3,7.563608140E-2,3.195890784E-2
5.683441660E0,9.587672539E-3,8.628904819E-2,3.089361079E-2
5.688571035E0,1.384885982E-2,9.374613315E-2,2.450183034E-2
5.693543327E0,1.917534508E-2,1.012032107E-1,1.704475097E-2
5.698647285E0,2.130593918E-2,1.012032107E-1,9.587672539E-3
5.703649422E0,2.450183034E-2,9.800732136E-2,1.065296936E-3
5.708788745E0,2.769771963E-2,9.268083423E-2,-9.587672539E-3
5.713791142E0,3.408950195E-2,8.309315890E-2,-1.811004803E-2
5.718899579E0,3.622009605E-2,6.817900389E-2,-2.663242258E-2
5.723849164E0,3.941598535E-2,5.752603337E-2,-3.089361079E-2
5.729034111E0,3.835069016E-2,5.113425106E-2,-3.089361079E-2
5.734031509E0,3.622009605E-2,5.006895587E-2,-2.876301669E-2
5.739134008E0,3.622009605E-2,6.285251677E-2,-2.663242258E-2
5.744033280E0,3.408950195E-2,7.563608140E-2,-2.343653329E-2
5.749139322E0,3.089361079E-2,8.948494494E-2,-2.024064213E-2
5.754263281E0,2.982831374E-2,1.043990999E-1,-1.917534508E-2
5.759389323E0,2.769771963E-2,1.150520667E-1,-1.597945392E-2
5.764358022E0,2.450183034E-2,1.278356314E-1,-1.811004803E-2
5.769526511E0,2.343653329E-2,1.395539045E-1,-2.024064213E-2
5.774392086E0,2.237123623E-2,1.491415650E-1,-2.237123623E-2
5.779511200E0,2.450183034E-2,1.576639414E-1,-2.450183034E-2
5.784577764E0,2.450183034E-2,1.608598381E-1,-2.876301669E-2
5.789741253E0,2.343653329E-2,1.661863178E-1,-3.089361079E-2
5.794806931E0,2.237123623E-2,1.672516167E-1,-3.195890784E-2
5.799853441E0,2.024064213E-2,1.597945392E-1,-2.982831374E-2
5.804917974E0,2.237123623E-2,1.459456831E-1,-2.982831374E-2
5.810018755E0,2.556712553E-2,1.225091442E-1,-3.195890784E-2
5.815104537E0,3.089361079E-2,8.628904819E-2,-3.835069016E-2
5.820128652E0,3.835069016E-2,5.219954997E-2,-4.154657945E-2
5.825170893E0,4.687306657E-2,2.450183034E-2,-4.687306657E-2
5.830122871E0,5.113425106E-2,1.065296936E-3,-4.687306657E-2
5.835121831E0,5.433014408E-2,-1.278356276E-2,-4.687306657E-2
5.840266050E0,5.326484516E-2,-1.917534508E-2,-4.367717355E-2
5.845398082E0,4.793836176E-2,-6.391781382E-3,-3.408950195E-2
5.850508707E0,3.941598535E-2,1.278356276E-2,-2.982831374E-2
5.855504229E0,2.982831374E-2,2.982831374E-2,-2.237123623E-2
5.860481416E0,2.130593918E-2,4.687306657E-2,-1.384885982E-2
5.865499959E0,1.704475097E-2,5.326484516E-2,-1.065296959E-2
5.870605271E0,1.278356276E-2,5.646073818E-2,-8.522375487E-3
5.875774127E0,6.391781382E-3,5.752603337E-2,-6.391781382E-3
5.880900793E0,2.130593872E-3,6.498311460E-2,-6.391781382E-3
5.885864024E0,-1.065296936E-3,7.457078248E-2,-7.457078435E-3
5.890851055E0,3.195890691E-3,7.137489319E-2,-1.384885982E-2
5.895974546E0,1.704475097E-2,5.006895587E-2,-2.769771963E-2
5.901076681E0,2.556712553E-2,2.663242258E-2,-3.089361079E-2
5.906098609E0,2.556712553E-2,2.024064213E-2,-3.408950195E-2
5.911106213E0,1.491415687E-2,2.876301669E-2,-3.728539124E-2
5.916242204E0,9.587672539E-3,3.728539124E-2,-3.835069016E-2
5.921340485E0,7.457078435E-3,5.006895587E-2,-3.515479714E-2
5.926333246E0,7.457078435E-3,6.604841352E-2,-2.876301669E-2
5.931452986E0,5.326484796E-3,7.883197069E-2,-2.982831374E-2
5.936381841E0,7.457078435E-3,8.948494494E-2,-2.982831374E-2
5.941471268E0,9.587672539E-3,9.481142461E-2,-2.876301669E-2
5.946629707E0,1.171826664E-2,9.587672353E-2,-2.556712553E-2
5.951698352E0,1.597945392E-2,9.374613315E-2,-2.663242258E-2
5.956708770E0,1.704475097E-2,9.481142461E-2,-2.450183034E-2
5.961780437E0,1.704475097E-2,9.587672353E-2,-2.237123623E-2
5.966808146E0,1.491415687E-2,9.481142461E-2,-2.450183034E-2
5.971959969E0,1.491415687E-2,9.800732136E-2,-2.769771963E-2
5.976950856E0,1.704475097E-2,9.268083423E-2,-2.876301669E-2
5.981954189E0,2.130593918E-2,8.735434711E-2,-3.622009605E-2
5.987104971E0,2.343653329E-2,7.776667923E-2,-4.154657945E-2
5.992094190E0,2.556712553E-2,7.244019210E-2,-4.580776766E-2
5.997085910E0,2.769771963E-2,6.711370498E-2,-4.900366068E-2
6.002230076E0,2.876301669E-2,6.178722158E-2,-4.793836176E-2
6.007335442E0,2.876301669E-2,6.072192639E-2,-4.367717355E-2
6.012446171E0,2.769771963E-2,6.178722158E-2,-4.367717355E-2
6.017520651E0,2.237123623E-2,6.711370498E-2,-3.941598535E-2
6.022436484E0,1.065296959E-2,1.012032107E-1,-2.663242258E-2
6.027441434E0,-3.302420676E-2,2.087981999E-1,7.457078435E-3
6.032557788E0,-9.694202244E-2,3.653968573E-1,4.580776766E-2
6.037568622E0,-6.604841352E-2,3.004137278E-1,5.326484796E-3
6.042924820E0,9.587672539E-3,1.661863178E-1,-8.522375487E-3
6.047852165E0,3.941598535E-2,1.459456831E-1,1.704475097E-2
6.052940914E0,2.876301669E-2,1.608598381E-1,1.384885982E-2
6.057970603E0,1.065296959E-2,1.544680595E-1,1.065296936E-3
6.062926228E0,4.261187743E-3,1.534027606E-1,1.065296936E-3
6.068022896E0,1.278356276E-2,1.555333585E-1,6.391781382E-3
6.073052375E0,2.450183034E-2,1.608598381E-1,1.491415687E-2
6.078224407E0,3.622009605E-2,1.768392920E-1,2.237123623E-2
6.083335293E0,4.154657945E-2,1.917534471E-1,2.982831374E-2
6.088292169E0,4.580776766E-2,1.960146427E-1,3.408950195E-2
6.093431231E0,5.219954997E-2,1.896228492E-1,3.728539124E-2
6.098410295E0,6.391781569E-2,1.842963696E-1,4.580776766E-2
6.103555243E0,7.670138031E-2,1.938840449E-1,5.539543927E-2
6.108555713E0,8.735434711E-2,2.130593807E-1,6.498311460E-2
6.113769931E0,1.001379117E-1,2.407571077E-1,7.670138031E-2
6.118629984E0,1.043990999E-1,2.780424953E-1,9.055023640E-2
6.123663994E0,1.033338010E-1,3.174584806E-1,1.022685021E-1
6.128708475E0,1.043990999E-1,3.622009456E-1,1.129214764E-1
6.133920975E0,1.075949892E-1,4.101393223E-1,1.214438528E-1
6.138923684E0,1.118561774E-1,4.602082670E-1,1.278356314E-1
6.144053163E0,1.161173657E-1,5.070813298E-1,1.352927089E-1
6.148905404E0,1.193132550E-1,5.518237948E-1,1.416844875E-1
6.154087956E0,1.225091442E-1,6.018927693E-1,1.395539045E-1
6.159170770E0,1.257050335E-1,6.498311162E-1,1.363580078E-1
6.164380821E0,1.225091442E-1,6.956388950E-1,1.363580078E-1
6.169260406E0,1.171826646E-1,7.339895964E-1,1.352927089E-1
6.174381499E0,1.086602882E-1,7.680791020E-1,1.320968270E-1
6.179383949E0,9.694202244E-2,7.936462164E-1,1.299662292E-1
6.184496553E0,8.522375673E-2,8.170827627E-1,1.267703325E-1
6.189526346E0,7.244019210E-2,8.437151909E-1,1.246397421E-1
6.194562960E0,6.391781569E-2,8.714128733E-1,1.235744432E-1
6.199529107E0,5.752603337E-2,8.980453014E-1,1.225091442E-1
6.204828846E0,5.326484516E-2,9.246777296E-1,1.203785539E-1
6.209643066E0,5.326484516E-2,9.566366673E-1,1.203785539E-1
6.214978431E0,5.539543927E-2,9.800731540E-1,1.193132550E-1
6.219888172E0,5.752603337E-2,9.949873090E-1,1.182479635E-1
6.225036088E0,5.752603337E-2,9.981832504E-1,1.118561774E-1
6.229893277E0,5.752603337E-2,9.928567410E-1,1.054643989E-1
6.235021610E0,5.859133229E-2,9.853996634E-1,9.800732136E-2
6.240002549E0,5.859133229E-2,9.662243128E-1,8.628904819E-2
6.245264579E0,5.752603337E-2,9.417225122E-1,7.563608140E-2
6.250228227E0,5.752603337E-2,9.182859659E-1,6.391781569E-2
6.255350987E0,5.752603337E-2,8.937841058E-1,4.900366068E-2
6.260360780E0,5.859133229E-2,8.660864234E-1,3.622009605E-2
6.265442915E0,5.752603337E-2,8.341274858E-1,2.024064213E-2
6.270467760E0,5.219954997E-2,8.032338619E-1,6.391781382E-3
6.275518437E0,4.048128426E-2,7.734055519E-1,-2.130593872E-3
6.280570834E0,2.982831374E-2,7.393160462E-1,-1.171826664E-2
6.285779271E0,2.130593918E-2,6.935083270E-1,-2.450183034E-2
6.290625106E0,9.587672539E-3,6.445046663E-1,-3.408950195E-2
6.295833074E0,0.000000000E0,5.976315737E-1,-3.941598535E-2
6.300820888E0,-1.384885982E-2,5.528891087E-1,-4.367717355E-2
6.306022502E0,-3.089361079E-2,5.038854480E-1,-4.580776766E-2
6.311082139E0,-4.048128426E-2,4.548817873E-1,-4.900366068E-2
6.316134639E0,-4.687306657E-2,4.069434404E-1,-4.580776766E-2
6.321013963E0,-4.900366068E-2,3.600703776E-1,-4.687306657E-2
6.326113390E0,-5.113425106E-2,3.195890784E-1,-5.006895587E-2
6.331277089E0,-5.219954997E-2,2.823036909E-1,-5.006895587E-2
6.336332036E0,-5.006895587E-2,2.471488863E-1,-5.219954997E-2
6.341378184E0,-4.367717355E-2,2.045370042E-1,-6.072192639E-2
6.346339381E0,-1.065296959E-2,1.118561774E-1,-8.202786744E-2
6.351404591E0,0.000000000E0,4.687306657E-2,-7.670138031E-2
6.356674382E0,-6.072192639E-2,1.075949892E-1,-3.835069016E-2
6.361620842E0,-1.139867753E-1,1.438150853E-1,-1.704475097E-2
6.366748550E0,-1.182479635E-1,1.043990999E-1,-1.491415687E-2
6.371647666E0,-8.948494494E-2,3.515479714E-2,-1.811004803E-2
6.376814436E0,-6.498311460E-2,-2.769771963E-2,-1.704475097E-2
6.381735271E0,-5.752603337E-2,-6.924430281E-2,-1.597945392E-2
6.386934489E0,-4.687306657E-2,-1.193132550E-1,-1.278356276E-2
6.391950116E0,-2.982831374E-2,-1.683169156E-1,-2.130593872E-3
6.396953240E0,-2.130593918E-2,-1.853616685E-1,7.457078435E-3
6.401978346E0,-9.587672539E-3,-2.077329010E-1,1.065296959E-2
6.407237669E0,2.237123623E-2,-2.716507316E-1,1.065296959E-2
6.412273503E0,4.048128426E-2,-3.217196763E-1,1.491415687E-2
6.417307930E0,4.474247247E-2,-3.664621413E-1,1.384885982E-2
6.422201785E0,4.793836176E-2,-4.037475288E-1,1.065296959E-2
6.427313973E0,5.752603337E-2,-4.378370345E-1,1.065296959E-2
6.432439286E0,7.989726961E-2,-4.857754111E-1,1.065296959E-2
6.437516734E0,9.161553532E-2,-5.230607986E-1,1.917534508E-2
6.442446215E0,9.481142461E-2,-5.464973450E-1,2.237123623E-2
6.447698818E0,9.374613315E-2,-5.805868506E-1,1.491415687E-2
6.452678716E0,9.374613315E-2,-6.189374924E-1,8.522375487E-3
6.457795122E0,9.481142461E-2,-6.498311162E-1,9.587672539E-3
6.462849967E0,8.948494494E-2,-6.647452712E-1,1.704475097E-2
6.467914602E0,8.415845782E-2,-6.817900538E-1,1.704475097E-2
6.472934916E0,9.481142461E-2,-7.062918544E-1,1.278356276E-2
6.478078926E0,1.054643989E-1,-7.222713232E-1,1.065296959E-2
6.482950125E0,1.193132550E-1,-7.371854782E-1,1.491415687E-2
6.488045177E0,1.320968270E-1,-7.499690652E-1,2.130593918E-2
6.493211793E0,1.331621110E-1,-7.520996332E-1,2.982831374E-2
6.498293667E0,1.310315281E-1,-7.414466739E-1,3.835069016E-2
6.503299189E0,1.246397421E-1,-7.212060094E-1,4.474247247E-2
6.508455648E0,1.225091442E-1,-7.126836777E-1,5.433014408E-2
6.513491580E0,1.182479635E-1,-7.030959725E-1,6.924430281E-2
6.518466169E0,1.054643989E-1,-6.700717807E-1,8.841964602E-2
6.523418723E0,9.268083423E-2,-6.168069243E-1,1.001379117E-1
6.528723254E0,8.841964602E-2,-5.592808723E-1,9.694202244E-2
6.533670442E0,9.800732136E-2,-5.145384073E-1,9.268083423E-2
6.538845234E0,1.118561774E-1,-4.783183336E-1,9.694202244E-2
6.543812943E0,1.150520667E-1,-4.474247098E-1,1.086602882E-1
6.548896849E0,1.118561774E-1,-4.165311158E-1,1.193132550E-1
6.553917944E0,1.001379117E-1,-3.824416101E-1,1.320968270E-1
6.559060965E0,8.841964602E-2,-3.504827023E-1,1.289009303E-1
6.563952789E0,7.776667923E-2,-3.302420378E-1,1.150520667E-1
6.569018778E0,7.137489319E-2,-3.078708053E-1,1.118561774E-1
6.574201696E0,7.030959427E-2,-2.918913662E-1,1.065296903E-1
6.579427842E0,6.817900389E-2,-2.748466134E-1,9.055023640E-2
6.584215499E0,6.924430281E-2,-2.652589381E-1,6.604841352E-2
6.589430708E0,5.539543927E-2,-2.471488863E-1,4.580776766E-2
6.594478990E0,4.261187837E-2,-2.024064213E-1,2.450183034E-2
6.599450969E0,5.433014408E-2,-1.917534471E-1,-3.195890691E-3
6.604407116E0,7.563608140E-2,-2.130593807E-1,-2.130593918E-2
6.609523678E0,8.522375673E-2,-2.066676021E-1,-3.089361079E-2
6.614586023E0,7.670138031E-2,-1.896228492E-1,-4.261187837E-2
6.619781075E0,6.072192639E-2,-1.747086942E-1,-6.178722158E-2
6.624832222E0,5.006895587E-2,-1.629904360E-1,-7.776667923E-2
6.629874566E0,4.367717355E-2,-1.502068639E-1,-8.522375673E-2
6.634885400E0,4.261187837E-2,-1.352927089E-1,-9.161553532E-2
6.640036702E0,4.580776766E-2,-1.203785539E-1,-9.907261282E-2
6.645142224E0,4.687306657E-2,-1.107908785E-1,-1.022685021E-1
6.650030870E0,4.580776766E-2,-1.022685021E-1,-1.001379117E-1
6.655012850E0,3.835069016E-2,-9.055023640E-2,-9.907261282E-2
6.660312694E0,3.728539124E-2,-8.522375673E-2,-9.907261282E-2
6.665122851E0,4.048128426E-2,-9.268083423E-2,-1.022685021E-1
6.670397122E0,4.687306657E-2,-1.054643989E-1,-1.012032107E-1
6.675353790E0,4.900366068E-2,-1.246397421E-1,-9.374613315E-2
6.680534935E0,4.474247247E-2,-1.502068639E-1,-8.415845782E-2
6.685370562E0,3.089361079E-2,-1.576639414E-1,-6.498311460E-2
6.690641447E0,1.811004803E-2,-1.608598381E-1,-5.219954997E-2
6.695627021E0,1.917534508E-2,-1.864269674E-1,-5.219954997E-2
6.700727177E0,3.089361079E-2,-2.087981999E-1,-4.793836176E-2
6.705833585E0,4.367717355E-2,-2.269082516E-1,-3.515479714E-2
6.710857126E0,4.687306657E-2,-2.301041335E-1,-1.704475097E-2
6.715862388E0,3.515479714E-2,-1.970799267E-1,8.522375487E-3
6.720850981E0,2.876301669E-2,-1.629904360E-1,1.704475097E-2
6.725877962E0,3.622009605E-2,-1.544680595E-1,2.024064213E-2
6.731020097E0,5.113425106E-2,-1.406191885E-1,3.195890784E-2
6.736105306E0,5.965662748E-2,-1.203785539E-1,4.048128426E-2
6.741189577E0,5.539543927E-2,-9.694202244E-2,4.474247247E-2
6.746177443E0,4.580776766E-2,-7.350549102E-2,4.580776766E-2
6.751338640E0,4.367717355E-2,-6.391781569E-2,4.154657945E-2
6.756448590E0,5.006895587E-2,-7.457078248E-2,3.302420676E-2
6.761501402E0,6.285251677E-2,-9.587672353E-2,2.343653329E-2
6.766388174E0,7.563608140E-2,-1.182479635E-1,1.384885982E-2
6.771467132E0,7.670138031E-2,-1.406191885E-1,8.522375487E-3
6.776629737E0,7.244019210E-2,-1.725780964E-1,4.261187743E-3
6.781811143E0,6.817900389E-2,-2.045370042E-1,3.195890691E-3
6.786717447E0,6.285251677E-2,-2.215817571E-1,8.522375487E-3
6.791705676E0,5.859133229E-2,-2.173205763E-1,1.384885982E-2
6.796733437E0,5.113425106E-2,-2.013411224E-1,2.024064213E-2
6.802002812E0,4.474247247E-2,-1.768392920E-1,2.343653329E-2
6.806877032E0,4.367717355E-2,-1.565986425E-1,2.343653329E-2
6.812062084E0,4.687306657E-2,-1.480762810E-1,2.024064213E-2
6.817094169E0,5.433014408E-2,-1.427497864E-1,1.278356276E-2
6.822202814E0,6.285251677E-2,-1.416844875E-1,7.457078435E-3
6.827187138E0,6.817900389E-2,-1.427497864E-1,3.195890691E-3
6.832298805E0,7.244019210E-2,-1.374233067E-1,-1.065296936E-3
6.837307243E0,7.244019210E-2,-1.299662292E-1,-2.130593872E-3
6.842540212E0,6.924430281E-2,-1.235744432E-1,0.000000000E0
6.847385109E0,6.498311460E-2,-1.107908785E-1,2.130593872E-3
6.852543546E0,5.646073818E-2,-9.374613315E-2,6.391781382E-3
6.857582506E0,5.326484516E-2,-8.096256852E-2,8.522375487E-3
6.862672870E0,5.113425106E-2,-6.711370498E-2,1.384885982E-2
6.867712299E0,4.900366068E-2,-4.580776766E-2,2.024064213E-2
6.872822663E0,4.580776766E-2,-2.237123623E-2,2.130593918E-2
6.877925945E0,4.687306657E-2,-1.065296936E-3,2.343653329E-2
6.882829956E0,5.326484516E-2,2.343653329E-2,2.237123623E-2
6.887815530E0,5.539543927E-2,4.474247247E-2,2.343653329E-2
6.892957040E0,4.793836176E-2,7.244019210E-2,2.982831374E-2
6.898085791E0,4.048128426E-2,1.054643989E-1,3.302420676E-2
6.903192926E0,3.195890784E-2,1.384886056E-1,3.622009605E-2
6.908185115E0,2.556712553E-2,1.608598381E-1,3.515479714E-2
6.913299906E0,2.343653329E-2,1.757739931E-1,2.876301669E-2
6.918302616E0,2.450183034E-2,1.832310706E-1,2.450183034E-2
6.923299387E0,2.450183034E-2,1.842963696E-1,1.811004803E-2
6.928354336E0,1.917534508E-2,1.874922663E-1,1.278356276E-2
6.933474544E0,2.024064213E-2,1.853616685E-1,3.195890691E-3
6.938507462E0,1.811004803E-2,1.928187460E-1,-5.326484796E-3
6.943537930E0,1.597945392E-2,2.077329010E-1,-9.587672539E-3
6.948543296E0,1.491415687E-2,2.183858752E-1,-1.491415687E-2
6.953829285E0,1.065296959E-2,2.205164731E-1,-2.343653329E-2
6.958678662E0,1.065296959E-2,2.173205763E-1,-2.876301669E-2
6.963942255E0,9.587672539E-3,2.109287977E-1,-3.302420676E-2
6.968801059E0,7.457078435E-3,2.013411224E-1,-4.048128426E-2
6.973946840E0,9.587672539E-3,1.789698899E-1,-5.113425106E-2
6.979064185E0,7.457078435E-3,1.651210189E-1,-5.219954997E-2
6.984028872E0,1.065296936E-3,1.736433953E-1,-5.006895587E-2
6.989184446E0,-8.522375487E-3,1.917534471E-1,-4.793836176E-2
6.994273352E0,-1.278356276E-2,2.034717202E-1,-5.006895587E-2
6.999278353E0,-6.391781382E-3,2.045370042E-1,-5.539543927E-2
7.004271426E0,-2.130593872E-3,2.109287977E-1,-5.539543927E-2
7.009286375E0,-1.065296936E-3,2.226470560E-1,-4.900366068E-2
7.014695802E0,2.130593872E-3,2.194511741E-1,-5.113425106E-2
7.019648616E0,7.457078435E-3,1.874922663E-1,-5.965662748E-2
7.024553407E0,6.391781382E-3,1.619251370E-1,-5.006895587E-2
7.029535179E0,-8.522375487E-3,1.661863178E-1,-3.515479714E-2
7.034767939E0,-2.024064213E-2,1.768392920E-1,-3.408950195E-2
7.039641274E0,-3.408950195E-2,1.960146427E-1,-2.769771963E-2
7.044901586E0,-4.474247247E-2,2.237123549E-1,-1.597945392E-2
7.049900390E0,-4.474247247E-2,2.343653291E-1,-1.384885982E-2
7.055031223E0,-3.941598535E-2,2.322347313E-1,-1.917534508E-2
7.060033620E0,-3.622009605E-2,2.322347313E-1,-2.237123623E-2
7.065160807E0,-3.195890784E-2,2.247776538E-1,-2.450183034E-2
7.070179819E0,-3.195890784E-2,2.194511741E-1,-2.556712553E-2
7.075322995E0,-3.302420676E-2,2.087981999E-1,-2.769771963E-2
7.080249872E0,-2.876301669E-2,1.885575503E-1,-3.302420676E-2
7.085382424E0,-2.663242258E-2,1.629904360E-1,-3.835069016E-2
7.090425290E0,-3.302420676E-2,1.278356314E-1,-3.728539124E-2
7.095418623E0,-4.154657945E-2,9.694202244E-2,-3.408950195E-2
7.100633624E0,-5.006895587E-2,7.670138031E-2,-2.663242258E-2
7.105862946E0,-5.539543927E-2,7.030959427E-2,-1.917534508E-2
7.110533364E0,-5.752603337E-2,7.137489319E-2,-1.065296959E-2
7.115748208E0,-5.646073818E-2,7.883197069E-2,-6.391781382E-3
7.120786751E0,-5.006895587E-2,7.457078248E-2,-7.457078435E-3
7.125731750E0,-4.154657945E-2,5.433014408E-2,-1.491415687E-2
7.130879929E0,-3.089361079E-2,3.408950195E-2,-1.917534508E-2
7.136038002E0,-2.556712553E-2,2.130593918E-2,-1.917534508E-2
7.140937586E0,-2.343653329E-2,1.704475097E-2,-2.130593918E-2
7.146100503E0,-2.024064213E-2,2.237123623E-2,-1.811004803E-2
7.151110556E0,-1.704475097E-2,2.982831374E-2,-1.917534508E-2
7.156097483E0,-1.171826664E-2,3.195890784E-2,-2.237123623E-2
7.161104359E0,-9.587672539E-3,2.237123623E-2,-2.556712553E-2
7.166343838E0,-6.391781382E-3,1.065296959E-2,-2.343653329E-2
7.171361964E0,-6.391781382E-3,-1.065296936E-3,-2.343653329E-2
7.176508891E0,-8.522375487E-3,-8.522375487E-3,-2.237123623E-2
7.181464934E0,-9.587672539E-3,-2.130593872E-3,-2.130593918E-2
7.186588007E0,-9.587672539E-3,1.065296959E-2,-2.130593918E-2
7.191600925E0,-3.195890691E-3,1.491415687E-2,-1.811004803E-2
7.196707695E0,4.261187743E-3,1.065296959E-2,-2.024064213E-2
7.201721186E0,1.065296959E-2,3.195890691E-3,-2.343653329E-2
7.206875092E0,1.491415687E-2,1.065296936E-3,-2.130593918E-2
7.211729260E0,1.597945392E-2,-1.065296936E-3,-1.811004803E-2
7.216896655E0,1.491415687E-2,-3.195890691E-3,-1.811004803E-2
7.221992490E0,1.491415687E-2,2.130593872E-3,-1.278356276E-2
7.227121552E0,1.278356276E-2,5.326484796E-3,-1.384885982E-2
7.232070824E0,9.587672539E-3,4.261187743E-3,-1.065296959E-2
7.237211293E0,6.391781382E-3,4.261187743E-3,-8.522375487E-3
7.242245617E0,1.065296936E-3,1.065296936E-3,-1.065296959E-2
7.247185721E0,-1.065296936E-3,-7.457078435E-3,-1.384885982E-2
7.252307129E0,-2.130593872E-3,-1.917534508E-2,-1.491415687E-2
7.257354941E0,-7.457078435E-3,-2.343653329E-2,-1.597945392E-2
7.262420203E0,-1.384885982E-2,-1.917534508E-2,-1.491415687E-2
7.267566035E0,-2.130593918E-2,-1.597945392E-2,-1.491415687E-2
7.272571037E0,-1.811004803E-2,-2.876301669E-2,-2.450183034E-2
7.277675047E0,-1.065296959E-2,-3.728539124E-2,-2.556712553E-2
7.282695882E0,-8.522375487E-3,-3.622009605E-2,-2.450183034E-2
7.287683017E0,-1.278356276E-2,-2.876301669E-2,-2.876301669E-2
7.292711508E0,-1.171826664E-2,-2.024064213E-2,-2.982831374E-2
7.297825153E0,-9.587672539E-3,-1.491415687E-2,-3.089361079E-2
7.302983540E0,-2.130593872E-3,-8.522375487E-3,-3.728539124E-2
7.308094789E0,3.195890691E-3,-4.261187743E-3,-3.622009605E-2
7.313065520E0,4.261187743E-3,1.065296959E-2,-3.302420676E-2
7.318180936E0,-2.130593872E-3,3.408950195E-2,-2.982831374E-2
7.323062344E0,-4.261187743E-3,5.646073818E-2,-3.195890784E-2
7.328292344E0,1.065296936E-3,6.178722158E-2,-3.728539124E-2
7.333326043E0,9.587672539E-3,5.433014408E-2,-3.728539124E-2
7.338316563E0,1.597945392E-2,4.367717355E-2,-3.728539124E-2
7.343445367E0,2.237123623E-2,2.663242258E-2,-4.580776766E-2
7.348549690E0,2.876301669E-2,1.171826664E-2,-4.900366068E-2
7.353549378E0,2.663242258E-2,2.130593872E-3,-5.113425106E-2
7.358665628E0,2.450183034E-2,-4.261187743E-3,-5.326484516E-2
7.363668702E0,2.237123623E-2,-7.457078435E-3,-5.006895587E-2
7.368711827E0,2.450183034E-2,-1.811004803E-2,-5.219954997E-2
7.373797245E0,2.876301669E-2,-2.982831374E-2,-5.326484516E-2
7.378906463E0,2.237123623E-2,-2.769771963E-2,-4.687306657E-2
7.383909798E0,1.491415687E-2,-2.450183034E-2,-4.261187837E-2
7.389046777E0,1.171826664E-2,-2.450183034E-2,-4.367717355E-2
7.394034330E0,9.587672539E-3,-2.876301669E-2,-4.474247247E-2
7.399171622E0,8.522375487E-3,-3.622009605E-2,-4.580776766E-2
7.404172144E0,6.391781382E-3,-3.941598535E-2,-4.154657945E-2
7.409384175E0,0.000000000E0,-3.728539124E-2,-3.835069016E-2
7.414369853E0,-8.522375487E-3,-3.089361079E-2,-3.515479714E-2
7.419469644E0,-1.384885982E-2,-1.811004803E-2,-2.982831374E-2
7.424447302E0,-1.917534508E-2,0.000000000E0,-2.024064213E-2
7.429506208E0,-2.237123623E-2,1.704475097E-2,-1.597945392E-2
7.434396001E0,-2.237123623E-2,3.089361079E-2,-1.278356276E-2
7.439637251E0,-2.024064213E-2,3.941598535E-2,-6.391781382E-3
7.444634335E0,-1.704475097E-2,4.474247247E-2,-1.065296936E-3
7.449730429E0,-1.811004803E-2,5.006895587E-2,-1.065296936E-3
7.454640222E0,-1.811004803E-2,5.433014408E-2,-2.130593872E-3
7.459782930E0,-1.704475097E-2,6.391781569E-2,1.065296936E-3
7.464907150E0,-1.917534508E-2,7.670138031E-2,4.261187743E-3
7.470035170E0,-2.130593918E-2,9.481142461E-2,2.130593872E-3
7.474906786E0,-1.917534508E-2,1.097255871E-1,-2.130593872E-3
7.480127046E0,-1.491415687E-2,1.225091442E-1,-5.326484796E-3
7.485215433E0,-8.522375487E-3,1.289009303E-1,-4.261187743E-3
7.490293454E0,-6.391781382E-3,1.352927089E-1,-8.522375487E-3
7.495334236E0,-5.326484796E-3,1.427497864E-1,-8.522375487E-3
7.500237257E0,-9.587672539E-3,1.427497864E-1,-9.587672539E-3
7.505315070E0,-1.278356276E-2,1.427497864E-1,-1.171826664E-2
7.510519393E0,-1.384885982E-2,1.470109820E-1,-9.587672539E-3
7.515428092E0,-1.491415687E-2,1.523374617E-1,-9.587672539E-3
7.520656946E0,-1.278356276E-2,1.555333585E-1,-1.278356276E-2
7.525626062E0,-1.384885982E-2,1.661863178E-1,-8.522375487E-3
7.530765697E0,-1.491415687E-2,1.768392920E-1,-6.391781382E-3
7.535620490E0,-1.384885982E-2,1.800351888E-1,-9.587672539E-3
7.540737365E0,-7.457078435E-3,1.768392920E-1,-9.587672539E-3
7.545787158E0,-6.391781382E-3,1.789698899E-1,-4.261187743E-3
7.551017314E0,-8.522375487E-3,1.906881481E-1,0.000000000E0
7.555992732E0,-9.587672539E-3,1.896228492E-1,-3.195890691E-3
7.561090805E0,-1.065296959E-2,1.821657717E-1,-4.261187743E-3
7.566124035E0,-8.522375487E-3,1.640557349E-1,-8.522375487E-3
7.571368722E0,4.261187743E-3,1.203785539E-1,-2.130593918E-2
7.576213046E0,2.130593872E-3,1.182479635E-1,-1.811004803E-2
7.581272317E0,-1.491415687E-2,1.406191885E-1,-7.457078435E-3
7.586401433E0,-2.876301669E-2,1.523374617E-1,-1.065296959E-2
7.591352057E0,-3.408950195E-2,1.576639414E-1,-1.171826664E-2
7.596493569E0,-3.195890784E-2,1.534027606E-1,-1.491415687E-2
7.601481798E0,-2.982831374E-2,1.438150853E-1,-2.024064213E-2
7.606618726E0,-2.769771963E-2,1.246397421E-1,-2.769771963E-2
7.611758987E0,-2.556712553E-2,1.022685021E-1,-3.302420676E-2
7.616720186E0,-2.450183034E-2,8.309315890E-2,-3.515479714E-2
7.621905862E0,-2.556712553E-2,6.498311460E-2,-3.622009605E-2
7.626809197E0,-2.237123623E-2,5.113425106E-2,-3.941598535E-2
7.632130707E0,-1.811004803E-2,3.941598535E-2,-3.622009605E-2
7.636844406E0,-1.704475097E-2,2.982831374E-2,-3.408950195E-2
7.642291490E0,-1.384885982E-2,2.024064213E-2,-3.089361079E-2
7.647104251E0,-1.171826664E-2,1.171826664E-2,-2.663242258E-2
7.652275553E0,-9.587672539E-3,4.261187743E-3,-2.130593918E-2
7.657272065E0,-9.587672539E-3,1.065296936E-3,-1.384885982E-2
7.662406335E0,-1.384885982E-2,0.000000000E0,-9.587672539E-3
7.667194670E0,-1.278356276E-2,-4.261187743E-3,-5.326484796E-3
7.672330867E0,-1.597945392E-2,-5.326484796E-3,-1.065296936E-3
7.677489515E0,-1.704475097E-2,-1.171826664E-2,4.261187743E-3
7.682679983E0,-1.811004803E-2,-1.597945392E-2,4.261187743E-3
7.687459307E0,-1.278356276E-2,-2.450183034E-2,1.065296936E-3
7.692593161E0,-5.326484796E-3,-3.835069016E-2,-5.326484796E-3
7.697579881E0,2.130593872E-3,-5.113425106E-2,-6.391781382E-3
7.702742225E0,4.261187743E-3,-5.646073818E-2,-9.587672539E-3
7.707890455E0,0.000000000E0,-5.752603337E-2,-1.278356276E-2
7.712944778E0,0.000000000E0,-6.178722158E-2,-1.491415687E-2
7.717975144E0,7.457078435E-3,-6.498311460E-2,-1.917534508E-2
7.722948008E0,1.065296959E-2,-6.285251677E-2,-1.917534508E-2
7.728055093E0,8.522375487E-3,-5.965662748E-2,-1.811004803E-2
7.733165613E0,8.522375487E-3,-6.391781569E-2,-2.024064213E-2
7.738071916E0,6.391781382E-3,-7.350549102E-2,-1.917534508E-2
7.743194781E0,4.261187743E-3,-8.096256852E-2,-1.704475097E-2
7.748225407E0,-4.261187743E-3,-8.841964602E-2,-1.597945392E-2
7.753317230E0,-9.587672539E-3,-9.694202244E-2,-1.491415687E-2
7.758326450E0,-1.065296959E-2,-1.097255871E-1,-1.278356276E-2
7.763574470E0,-9.587672539E-3,-1.182479635E-1,-1.065296959E-2
7.768587544E0,-1.171826664E-2,-1.203785539E-1,-8.522375487E-3
7.773757648E0,-9.587672539E-3,-1.246397421E-1,-8.522375487E-3
7.778564525E0,-6.391781382E-3,-1.310315281E-1,-4.261187743E-3
7.783844733E0,-6.391781382E-3,-1.342274100E-1,0.000000000E0
7.788688172E0,-7.457078435E-3,-1.416844875E-1,3.195890691E-3
7.793919005E0,-4.261187743E-3,-1.523374617E-1,4.261187743E-3
7.798924006E0,-1.065296936E-3,-1.619251370E-1,3.195890691E-3
7.804051766E0,-2.130593872E-3,-1.672516167E-1,4.261187743E-3
7.809028330E0,-3.195890691E-3,-1.683169156E-1,8.522375487E-3
7.814139580E0,-6.391781382E-3,-1.640557349E-1,9.587672539E-3
7.819040362E0,-1.278356276E-2,-1.587292403E-1,9.587672539E-3
7.824155726E0,-1.171826664E-2,-1.640557349E-1,8.522375487E-3
7.829317915E0,-6.391781382E-3,-1.832310706E-1,5.326484796E-3
7.834447446E0,-6.391781382E-3,-1.906881481E-1,4.261187743E-3
7.839450416E0,-1.171826664E-2,-1.928187460E-1,2.130593872E-3
7.844466197E0,-1.278356276E-2,-1.928187460E-1,1.065296936E-3
7.849514376E0,-1.065296959E-2,-1.842963696E-1,0.000000000E0
7.854535417E0,-8.522375487E-3,-1.725780964E-1,-1.065296936E-3
7.859540887E0,-5.326484796E-3,-1.565986425E-1,-1.065296936E-3
7.864676043E0,-4.261187743E-3,-1.406191885E-1,0.000000000E0
7.869786096E0,-6.391781382E-3,-1.225091442E-1,2.130593872E-3
7.874906252E0,-8.522375487E-3,-1.065296903E-1,4.261187743E-3
7.879894952E0,-8.522375487E-3,-1.001379117E-1,7.457078435E-3
7.885035784E0,-8.522375487E-3,-9.587672353E-2,7.457078435E-3
7.890006150E0,-8.522375487E-3,-9.907261282E-2,4.261187743E-3
7.895131983E0,-7.457078435E-3,-1.012032107E-1,0.000000000E0
7.900120474E0,-6.391781382E-3,-1.001379117E-1,-4.261187743E-3
7.905131099E0,-6.391781382E-3,-1.043990999E-1,-4.261187743E-3
7.910191048E0,-5.326484796E-3,-1.065296903E-1,-8.522375487E-3
7.915410162E0,-6.391781382E-3,-1.065296903E-1,-1.384885982E-2
7.920259956E0,-5.326484796E-3,-1.043990999E-1,-1.704475097E-2
7.925504643E0,-1.811004803E-2,-6.604841352E-2,-8.522375487E-3
7.930493186E0,-3.089361079E-2,-2.237123623E-2,-6.391781382E-3
7.935495737E0,-5.326484796E-3,-6.072192639E-2,-3.408950195E-2
7.940619541E0,2.876301669E-2,-1.075949892E-1,-5.219954997E-2
7.945690374E0,2.769771963E-2,-1.086602882E-1,-4.793836176E-2
7.950756886E0,5.326484796E-3,-9.268083423E-2,-4.367717355E-2
7.955808864E0,-7.457078435E-3,-8.309315890E-2,-4.580776766E-2
7.960867512E0,-6.391781382E-3,-6.178722158E-2,-4.154657945E-2
7.965881990E0,0.000000000E0,-4.367717355E-2,-4.261187837E-2
7.970878815E0,3.195890691E-3,-2.663242258E-2,-3.941598535E-2
7.976138710E0,8.522375487E-3,-1.811004803E-2,-3.728539124E-2
7.981107930E0,1.491415687E-2,-1.704475097E-2,-3.515479714E-2
7.986119493E0,2.130593918E-2,-2.343653329E-2,-3.195890784E-2
7.991149858E0,2.876301669E-2,-2.769771963E-2,-2.982831374E-2
7.996347462E0,3.622009605E-2,-3.408950195E-2,-2.876301669E-2
8.001358766E0,4.261187837E-2,-4.154657945E-2,-2.769771963E-2
8.006482828E0,5.113425106E-2,-5.752603337E-2,-2.556712553E-2
8.011465069E0,5.539543927E-2,-8.096256852E-2,-2.130593918E-2
8.016596266E0,5.539543927E-2,-1.075949892E-1,-1.811004803E-2
8.021506007E0,5.646073818E-2,-1.310315281E-1,-1.491415687E-2
8.026752101E0,5.326484516E-2,-1.459456831E-1,-5.326484796E-3
8.031718925E0,4.687306657E-2,-1.523374617E-1,-1.065296936E-3
8.036721008E0,4.154657945E-2,-1.576639414E-1,5.326484796E-3
8.041851114E0,2.982831374E-2,-1.459456831E-1,1.704475097E-2
8.047034186E0,1.278356276E-2,-1.246397421E-1,3.302420676E-2
8.052009656E0,0.000000000E0,-1.065296903E-1,3.728539124E-2
8.057111531E0,-1.171826664E-2,-8.841964602E-2,3.941598535E-2
8.062037365E0,-2.343653329E-2,-7.563608140E-2,4.154657945E-2
8.067116584E0,-3.515479714E-2,-7.350549102E-2,4.580776766E-2
8.072244241E0,-4.580776766E-2,-8.096256852E-2,4.793836176E-2
8.077294345E0,-5.433014408E-2,-7.244019210E-2,5.433014408E-2
8.082349243E0,-5.646073818E-2,-5.326484516E-2,5.006895587E-2
8.087336325E0,-4.900366068E-2,-2.343653329E-2,3.835069016E-2
8.092495129E0,-3.515479714E-2,1.384885982E-2,2.556712553E-2
8.097454191E0,-1.384885982E-2,3.728539124E-2,7.457078435E-3
8.102456901E0,3.195890691E-3,4.900366068E-2,-9.587672539E-3
8.107740234E0,1.384885982E-2,5.965662748E-2,-1.491415687E-2
8.112631485E0,1.811004803E-2,7.350549102E-2,-1.065296959E-2
8.117699245E0,1.065296959E-2,8.415845782E-2,-5.326484796E-3
8.122708413E0,3.195890691E-3,8.948494494E-2,-2.130593872E-3
8.127985653E0,-6.391781382E-3,9.481142461E-2,4.261187743E-3
8.132987997E0,-1.704475097E-2,1.012032107E-1,9.587672539E-3
8.138059872E0,-2.663242258E-2,9.268083423E-2,9.587672539E-3
8.142957894E0,-3.622009605E-2,7.137489319E-2,9.587672539E-3
8.148218936E0,-3.835069016E-2,4.474247247E-2,7.457078435E-3
8.153073000E0,-3.302420676E-2,1.384885982E-2,4.261187743E-3
8.158262791E0,-2.769771963E-2,-2.876301669E-2,-1.065296936E-3
8.163317636E0,-2.343653329E-2,-5.965662748E-2,-5.326484796E-3
8.168416854E0,-2.237123623E-2,-8.735434711E-2,-9.587672539E-3
8.173420710E0,-2.343653329E-2,-1.129214764E-1,-1.278356276E-2
8.178588626E0,-2.769771963E-2,-1.075949892E-1,-5.326484796E-3
8.183433003E0,-3.089361079E-2,-9.907261282E-2,-2.130593872E-3
8.188549617E0,-2.130593918E-2,-1.097255871E-1,-1.171826664E-2
8.193556076E0,0.000000000E0,-1.342274100E-1,-2.343653329E-2
8.198788055E0,2.982831374E-2,-1.874922663E-1,-4.900366068E-2
8.203845765E0,6.604841352E-2,-2.247776538E-1,-9.268083423E-2
8.208923265E0,5.433014408E-2,-9.268083423E-2,-9.268083423E-2
8.213928318E0,9.587672539E-3,9.374613315E-2,-7.989726961E-2
8.219039932E0,-1.065296936E-3,1.768392920E-1,-7.457078248E-2
8.224120298E0,4.154657945E-2,1.065296903E-1,-6.391781569E-2
8.229040923E0,8.309315890E-2,-3.515479714E-2,-3.622009605E-2
8.234198320E0,6.817900389E-2,-1.352927089E-1,-3.195890691E-3
8.239276757E0,-2.130593872E-3,-1.608598381E-1,1.597945392E-2
8.244294207E0,-7.137489319E-2,-1.523374617E-1,2.876301669E-2
8.249360456E0,-1.065296903E-1,-1.395539045E-1,4.793836176E-2
8.254409937E0,-1.086602882E-1,-1.129214764E-1,7.457078248E-2
8.259404363E0,-9.481142461E-2,-7.137489319E-2,8.735434711E-2
8.264530459E0,-6.178722158E-2,-7.563608140E-2,7.989726961E-2
8.269658740E0,-1.491415687E-2,-1.043990999E-1,6.924430281E-2
8.274535512E0,3.941598535E-2,-1.757739931E-1,4.048128426E-2
8.279726188E0,8.202786744E-2,-2.301041335E-1,2.769771963E-2
8.284725200E0,8.841964602E-2,-2.279735506E-1,2.982831374E-2
8.289932960E0,8.202786744E-2,-2.301041335E-1,1.917534508E-2
8.294949576E0,7.350549102E-2,-2.364959270E-1,1.597945392E-2
8.299951451E0,5.646073818E-2,-2.471488863E-1,1.597945392E-2
8.304937598E0,3.515479714E-2,-2.695201337E-1,1.171826664E-2
8.310022129E0,1.811004803E-2,-2.950872481E-1,9.587672539E-3
8.315118380E0,5.326484796E-3,-3.121320009E-1,9.587672539E-3
8.320340203E0,-7.457078435E-3,-3.014790416E-1,1.171826664E-2
8.325228329E0,-1.811004803E-2,-2.737812996E-1,1.491415687E-2
8.330373589E0,-1.917534508E-2,-2.247776538E-1,1.065296959E-2
8.335376299E0,-8.522375487E-3,-1.970799267E-1,-4.261187743E-3
8.340487132E0,1.384885982E-2,-2.109287977E-1,-2.343653329E-2
8.345507290E0,3.622009605E-2,-2.226470560E-1,-3.835069016E-2
8.350504164E0,5.113425106E-2,-2.407571077E-1,-5.752603337E-2
8.355724843E0,6.924430281E-2,-2.759118974E-1,-7.457078248E-2
8.360867238E0,8.202786744E-2,-3.046749234E-1,-7.883197069E-2
8.365703073E0,8.415845782E-2,-3.110667169E-1,-7.989726961E-2
8.370925677E0,7.244019210E-2,-2.982831299E-1,-7.457078248E-2
8.375833178E0,6.072192639E-2,-2.737812996E-1,-6.711370498E-2
8.380978751E0,5.752603337E-2,-2.503447831E-1,-6.072192639E-2
8.386012606E0,5.433014408E-2,-2.322347313E-1,-5.006895587E-2
8.391135627E0,5.752603337E-2,-2.354306281E-1,-4.154657945E-2
8.396132868E0,6.178722158E-2,-2.492794842E-1,-2.982831374E-2
8.401121357E0,6.391781569E-2,-2.652589381E-1,-1.278356276E-2
8.406305733E0,6.817900389E-2,-2.833689749E-1,2.130593872E-3
8.411360837E0,7.563608140E-2,-2.982831299E-1,1.384885982E-2
8.416238026E0,7.883197069E-2,-3.121320009E-1,2.876301669E-2
8.421500838E0,7.776667923E-2,-3.185237944E-1,4.261187837E-2
8.426483652E0,7.350549102E-2,-3.227849603E-1,5.326484516E-2
8.431634902E0,6.711370498E-2,-3.238502741E-1,6.285251677E-2
8.436481569E0,5.965662748E-2,-3.291767538E-1,7.137489319E-2
8.441812298E0,5.219954997E-2,-3.366338313E-1,7.563608140E-2
8.446671206E0,4.687306657E-2,-3.451561928E-1,7.883197069E-2
8.451999799E0,3.302420676E-2,-3.515479863E-1,7.776667923E-2
8.456887613E0,1.811004803E-2,-3.536785841E-1,7.883197069E-2
8.462030582E0,6.391781382E-3,-3.568744659E-1,7.563608140E-2
8.466998031E0,-5.326484796E-3,-3.653968573E-1,7.244019210E-2
8.471966103E0,-7.457078435E-3,-3.728539348E-1,7.137489319E-2
8.476986365E0,9.587672539E-3,-3.771151006E-1,6.924430281E-2
8.482094282E0,3.941598535E-2,-3.749845326E-1,7.244019210E-2
8.487092981E0,8.096256852E-2,-3.685927391E-1,8.202786744E-2
8.492206522E0,1.161173657E-1,-3.526133001E-1,9.481142461E-2
8.497349284E0,1.459456831E-1,-3.302420378E-1,1.118561774E-1
8.502444336E0,1.725780964E-1,-2.982831299E-1,1.331621110E-1
8.507438399E0,1.949493438E-1,-2.588671446E-1,1.619251370E-1
8.512573503E0,2.258429527E-1,-2.183858752E-1,1.938840449E-1
8.517458817E0,2.684548199E-1,-1.800351888E-1,2.247776538E-1
8.522675119E0,3.217196763E-1,-1.534027606E-1,2.535406649E-1
8.527713401E0,3.803110123E-1,-1.331621110E-1,2.844342887E-1
8.532846787E0,4.474247098E-1,-1.331621110E-1,3.089361191E-1
8.537803871E0,5.166690350E-1,-1.470109820E-1,3.185237944E-1
8.542965694E0,5.773909688E-1,-1.629904360E-1,3.078708053E-1
8.547941997E0,6.200028062E-1,-1.725780964E-1,2.737812996E-1
8.553109914E0,6.338516474E-1,-1.672516167E-1,2.205164731E-1
8.558125071E0,6.200028062E-1,-1.555333585E-1,1.619251370E-1
8.563064550E0,5.848480463E-1,-1.512721628E-1,1.086602882E-1
8.568134187E0,5.305178761E-1,-1.565986425E-1,6.285251677E-2
8.573444707E0,4.591429830E-1,-1.661863178E-1,3.728539124E-2
8.578318771E0,3.803110123E-1,-1.853616685E-1,2.343653329E-2
8.583310802E0,2.918913662E-1,-2.301041335E-1,1.917534508E-2
8.588307939E0,2.002758235E-1,-2.908260524E-1,3.089361079E-2
8.593436011E0,1.097255871E-1,-3.227849603E-1,5.752603337E-2
8.598548044E0,2.130593918E-2,-2.918913662E-1,1.139867753E-1
8.603549919E0,-4.900366068E-2,-2.833689749E-1,1.715128124E-1
8.608567837E0,-1.150520667E-1,-2.982831299E-1,2.396918088E-1
8.613782576E0,-1.864269674E-1,-2.524753809E-1,3.345032334E-1
8.618794035E0,-2.333000302E-1,-1.640557349E-1,4.250534773E-1
8.623902004E0,-2.439530045E-1,-5.646073818E-2,4.942977726E-1
8.628913360E0,-2.396918088E-1,2.769771963E-2,5.507585406E-1
8.634028047E0,-2.301041335E-1,6.711370498E-2,6.050886512E-1
8.638944402E0,-2.162552774E-1,6.924430281E-2,6.594188213E-1
8.644187579E0,-1.970799267E-1,6.391781569E-2,7.094877362E-1
8.649221539E0,-1.821657717E-1,7.776667923E-2,7.552955151E-1
8.654359455E0,-1.832310706E-1,1.107908785E-1,7.936462164E-1
8.659289717E0,-2.119940966E-1,1.384886056E-1,8.160174489E-1
8.664286695E0,-2.684548199E-1,1.395539045E-1,8.138868809E-1
8.669442895E0,-3.483521044E-1,1.097255871E-1,7.915156484E-1
8.674566332E0,-4.271840751E-1,7.350549102E-2,7.510343194E-1
8.679564510E0,-4.900365770E-1,5.006895587E-2,6.977695227E-1
8.684566489E0,-5.283873081E-1,4.048128426E-2,6.487658620E-1
8.689695188E0,-5.560849905E-1,3.728539124E-2,5.944356918E-1
8.694783417E0,-5.763256550E-1,3.408950195E-2,5.390402675E-1
8.699790919E0,-6.029580832E-1,1.278356276E-2,4.879060090E-1
8.704912168E0,-6.349169612E-1,-2.663242258E-2,4.346411526E-1
8.709895243E0,-6.828553081E-1,-8.948494494E-2,3.803110123E-1
8.715102586E0,-7.425119877E-1,-1.757739931E-1,3.281114697E-1
8.720029358E0,-8.106909394E-1,-2.812383771E-1,2.759118974E-1
8.725013316E0,-8.799352646E-1,-3.973557651E-1,2.226470560E-1
8.730155036E0,-9.353306890E-1,-5.156037211E-1,1.629904360E-1
8.735150661E0,-9.790078998E-1,-6.157416105E-1,1.012032107E-1
8.740257641E0,-1.009901524E0,-6.700717807E-1,3.835069016E-2
8.745339464E0,-1.028011560E0,-6.668758988E-1,-2.130593918E-2
8.750275924E0,-1.028011560E0,-6.263945699E-1,-7.670138031E-2
8.755481600E0,-1.018423915E0,-5.688685775E-1,-1.331621110E-1
8.760421029E0,-9.971179366E-1,-5.124078393E-1,-1.821657717E-1
8.765596029E0,-9.502448440E-1,-4.442288280E-1,-2.034717202E-1
8.770629415E0,-8.564987183E-1,-3.611356616E-1,-1.917534471E-1
8.775632904E0,-6.945735812E-1,-2.961525619E-1,-1.864269674E-1
8.780750562E0,-4.751224220E-1,-2.279735506E-1,-2.343653291E-1
8.785748999E0,-2.354306281E-1,-6.711370498E-2,-3.121320009E-1
8.790860094E0,1.065296936E-3,1.928187460E-1,-3.707233369E-1
8.796006188E0,2.237123549E-1,4.708612561E-1,-3.685927391E-1
8.800871450E0,4.101393223E-1,6.849859357E-1,-2.993484437E-1
8.805989001E0,5.411708355E-1,8.224092126E-1,-1.874922663E-1
8.811074940E0,6.029580832E-1,8.927188516E-1,-6.604841352E-2
8.816263481E0,5.891091824E-1,8.746087551E-1,4.580776766E-2
8.821209941E0,4.942977726E-1,7.244018912E-1,1.512721628E-1
8.826445097E0,3.249155581E-1,4.687306583E-1,2.546059787E-1
8.831423640E0,1.331621110E-1,2.205164731E-1,3.515479863E-1
8.836623744E0,-7.457078435E-3,1.012032107E-1,4.090740085E-1
8.841457808E0,-6.817900389E-2,1.001379117E-1,4.197269976E-1
8.846709787E0,-5.646073818E-2,1.171826646E-1,4.133352041E-1
8.851687809E0,-4.261187743E-3,5.859133229E-2,3.962904513E-1
8.856611298E0,6.178722158E-2,-9.587672353E-2,3.664621413E-1
8.861689164E0,1.278356314E-1,-3.163931966E-1,3.227849603E-1
8.866875674E0,1.832310706E-1,-5.454320312E-1,2.705854177E-1
8.871875519E0,2.226470560E-1,-7.489037514E-1,2.183858752E-1
8.876972654E0,2.354306281E-1,-9.268083572E-1,1.779045910E-1
8.881989739E0,2.194511741E-1,-1.069558144E0,1.480762810E-1
8.887130936E0,1.747086942E-1,-1.172891974E0,1.320968270E-1
8.892148334E0,1.043990999E-1,-1.222960830E0,1.246397421E-1
8.897092292E0,1.278356276E-2,-1.213373184E0,1.235744432E-1
8.902246616E0,-8.202786744E-2,-1.176087856E0,1.257050335E-1
8.907383855E0,-1.704475135E-1,-1.126018882E0,1.267703325E-1
8.912363127E0,-2.450182885E-1,-1.079145789E0,1.310315281E-1
8.917332294E0,-3.014790416E-1,-1.030142188E0,1.342274100E-1
8.922366149E0,-3.334379494E-1,-9.726160765E-1,1.310315281E-1
8.927457503E0,-3.526133001E-1,-8.820658922E-1,1.342274100E-1
8.932610629E0,-3.515479863E-1,-7.403813601E-1,1.416844875E-1
8.937663702E0,-3.270461559E-1,-5.816521049E-1,1.342274100E-1
8.942579589E0,-2.950872481E-1,-4.516859055E-1,1.150520667E-1
8.947852349E0,-2.705854177E-1,-3.515479863E-1,1.022685021E-1
8.952860110E0,-2.514100671E-1,-2.759118974E-1,9.374613315E-2
8.957822714E0,-2.418224066E-1,-2.258429527E-1,8.735434711E-2
8.962831101E0,-2.354306281E-1,-1.725780964E-1,8.202786744E-2
8.967969538E0,-2.279735506E-1,-9.800732136E-2,8.309315890E-2
8.973098029E0,-2.258429527E-1,-8.522375487E-3,8.522375673E-2
8.978086154E0,-2.290388346E-1,7.989726961E-2,8.735434711E-2
8.983316936E0,-2.428877056E-1,1.544680595E-1,9.481142461E-2
8.988193342E0,-2.716507316E-1,2.077329010E-1,1.097255871E-1
8.993323760E0,-3.014790416E-1,2.535406649E-1,1.161173657E-1
8.998444020E0,-3.281114697E-1,2.918913662E-1,1.203785539E-1
9.003440688E0,-3.440909088E-1,3.334379494E-1,1.235744432E-1
9.008431886E0,-3.494173884E-1,3.664621413E-1,1.214438528E-1
9.013562877E0,-3.440909088E-1,3.888333738E-1,1.150520667E-1
9.018691158E0,-3.259808719E-1,4.016169310E-1,1.107908785E-1
9.023569440E0,-2.972178459E-1,3.952251673E-1,1.022685021E-1
9.028854909E0,-2.641936541E-1,3.867027760E-1,9.055023640E-2
9.033805744E0,-2.333000302E-1,3.813762963E-1,8.415845782E-2
9.038921316E0,-2.045370042E-1,3.867027760E-1,7.457078248E-2
9.043956057E0,-1.779045910E-1,3.984210491E-1,5.965662748E-2
9.049058140E0,-1.597945392E-1,4.058781266E-1,4.687306657E-2
9.054033662E0,-1.438150853E-1,4.090740085E-1,3.728539124E-2
9.059040589E0,-1.289009303E-1,4.026822448E-1,2.450183034E-2
9.064137622E0,-1.193132550E-1,3.930945694E-1,1.278356276E-2
9.069180486E0,-1.161173657E-1,3.920292854E-1,2.130593872E-3
9.074325227E0,-1.118561774E-1,4.080087245E-1,-3.195890691E-3
9.079419185E0,-1.033338010E-1,4.314452708E-1,-4.261187743E-3
9.084301374E0,-9.161553532E-2,4.538165033E-1,-6.391781382E-3
9.089462311E0,-8.096256852E-2,4.751224220E-1,-5.326484796E-3
9.094634395E0,-6.817900389E-2,5.017548800E-1,-6.391781382E-3
9.099801947E0,-5.859133229E-2,5.294525623E-1,-7.457078435E-3
9.104793511E0,-4.687306657E-2,5.560849905E-1,-1.278356276E-2
9.109704969E0,-3.622009605E-2,5.827174187E-1,-2.663242258E-2
9.114658825E0,-3.195890784E-2,5.955010056E-1,-4.261187837E-2
9.119771220E0,-2.876301669E-2,5.848480463E-1,-6.072192639E-2
9.124778825E0,-3.089361079E-2,5.592808723E-1,-8.522375673E-2
9.129979711E0,-3.195890784E-2,5.177342892E-1,-1.129214764E-1
9.135137629E0,-3.089361079E-2,4.740571380E-1,-1.406191885E-1
9.140065753E0,-2.982831374E-2,4.250534773E-1,-1.651210189E-1
9.145133776E0,-2.663242258E-2,3.664621413E-1,-1.938840449E-1
9.150252213E0,-2.237123623E-2,3.025443256E-1,-2.205164731E-1
9.155271693E0,-1.597945392E-2,2.333000302E-1,-2.471488863E-1
9.160384089E0,-8.522375487E-3,1.597945392E-1,-2.695201337E-1
9.165394559E0,-2.130593872E-3,7.563608140E-2,-2.886954844E-1
9.170803881E0,6.391781382E-3,-1.065296936E-3,-3.025443256E-1
9.175503206E0,1.278356276E-2,-6.604841352E-2,-3.004137278E-1
9.180696747E0,1.597945392E-2,-1.161173657E-1,-2.865648866E-1
9.185645655E0,1.171826664E-2,-1.608598381E-1,-2.684548199E-1
9.190758206E0,3.195890691E-3,-1.949493438E-1,-2.407571077E-1
9.195728780E0,-1.384885982E-2,-2.141246796E-1,-1.981452256E-1
9.200890759E0,-3.515479714E-2,-2.183858752E-1,-1.512721628E-1
9.205825031E0,-6.072192639E-2,-2.396918088E-1,-1.075949892E-1
9.210991646E0,-9.587672353E-2,-2.780424953E-1,-6.924430281E-2
9.215877064E0,-1.278356314E-1,-3.313073516E-1,-3.728539124E-2
9.221150657E0,-1.587292403E-1,-3.962904513E-1,-9.587672539E-3
9.226088471E0,-1.800351888E-1,-4.495553076E-1,1.704475097E-2
9.231227481E0,-1.842963696E-1,-4.666000605E-1,4.261187837E-2
9.236221962E0,-1.789698899E-1,-4.506205916E-1,6.178722158E-2
9.241339930E0,-1.672516167E-1,-4.229228795E-1,7.350549102E-2
9.246367119E0,-1.565986425E-1,-3.952251673E-1,8.309315890E-2
9.251650608E0,-1.502068639E-1,-3.643315434E-1,9.694202244E-2
9.256591443E0,-1.512721628E-1,-3.131972849E-1,1.097255871E-1
9.261784932E0,-1.587292403E-1,-2.439530045E-1,1.161173657E-1
9.266568735E0,-1.693822145E-1,-1.640557349E-1,1.139867753E-1
9.271776704E0,-1.789698899E-1,-9.161553532E-2,1.118561774E-1
9.276723528E0,-1.928187460E-1,-3.195890784E-2,1.097255871E-1
9.281906184E0,-2.066676021E-1,-1.065296936E-3,1.139867753E-1
9.286926342E0,-2.194511741E-1,9.587672539E-3,1.118561774E-1
9.291992591E0,-2.279735506E-1,1.278356276E-2,1.043990999E-1
9.296856082E0,-2.343653291E-1,8.522375487E-3,8.948494494E-2
9.302187853E0,-2.375612110E-1,-2.130593872E-3,7.030959427E-2
9.307109260E0,-2.418224066E-1,-5.326484796E-3,4.900366068E-2
9.312211864E0,-2.428877056E-1,-4.261187743E-3,2.556712553E-2
9.317209418E0,-2.269082516E-1,9.587672539E-3,7.457078435E-3
9.322328376E0,-2.002758235E-1,3.835069016E-2,-9.587672539E-3
9.327327544E0,-1.661863178E-1,7.244019210E-2,-2.237123623E-2
9.332500043E0,-1.342274100E-1,1.107908785E-1,-3.195890784E-2
9.337551295E0,-1.033338010E-1,1.523374617E-1,-4.048128426E-2
9.342614107E0,-7.350549102E-2,1.853616685E-1,-4.793836176E-2
9.347628900E0,-5.113425106E-2,2.034717202E-1,-5.539543927E-2
9.352750618E0,-3.728539124E-2,2.056023031E-1,-6.072192639E-2
9.357732026E0,-2.769771963E-2,1.960146427E-1,-7.030959427E-2
9.362772755E0,-2.343653329E-2,1.757739931E-1,-8.522375673E-2
9.367860360E0,-2.556712553E-2,1.470109820E-1,-9.907261282E-2
9.372862026E0,-2.876301669E-2,1.139867753E-1,-1.150520667E-1
9.377961507E0,-3.089361079E-2,7.883197069E-2,-1.289009303E-1
9.382950100E0,-3.515479714E-2,4.154657945E-2,-1.416844875E-1
9.388104685E0,-4.154657945E-2,1.065296936E-3,-1.502068639E-1
9.393215675E0,-5.219954997E-2,-3.302420676E-2,-1.544680595E-1
9.398080311E0,-6.498311460E-2,-5.539543927E-2,-1.512721628E-1
9.403197394E0,-7.883197069E-2,-6.498311460E-2,-1.406191885E-1
9.408363229E0,-9.694202244E-2,-5.965662748E-2,-1.235744432E-1
9.413319218E0,-1.182479635E-1,-4.048128426E-2,-1.012032107E-1
9.418403021E0,-1.299662292E-1,-4.261187743E-3,-7.776667923E-2
9.423583021E0,-1.384886056E-1,4.048128426E-2,-4.793836176E-2
9.428548804E0,-1.416844875E-1,7.989726961E-2,-2.237123623E-2
9.433668855E0,-1.406191885E-1,1.065296903E-1,2.130593872E-3
9.438683076E0,-1.395539045E-1,1.214438528E-1,2.450183034E-2
9.443790575E0,-1.363580078E-1,1.320968270E-1,4.154657945E-2
9.448820941E0,-1.331621110E-1,1.374233067E-1,5.219954997E-2
9.453821149E0,-1.299662292E-1,1.384886056E-1,5.326484516E-2
9.458817765E0,-1.246397421E-1,1.342274100E-1,5.113425106E-2
9.464082192E0,-1.139867753E-1,1.257050335E-1,4.580776766E-2
9.468926568E0,-1.033338010E-1,1.171826646E-1,3.728539124E-2
9.474194901E0,-8.948494494E-2,1.075949892E-1,2.130593918E-2
9.479172767E0,-7.776667923E-2,9.268083423E-2,6.391781382E-3
9.484180475E0,-6.817900389E-2,7.350549102E-2,-1.171826664E-2
9.489365372E0,-5.965662748E-2,5.006895587E-2,-2.982831374E-2
9.494412039E0,-5.219954997E-2,2.024064213E-2,-5.006895587E-2
9.499307092E0,-5.006895587E-2,-8.522375487E-3,-7.030959427E-2
9.504461102E0,-4.900366068E-2,-3.515479714E-2,-8.841964602E-2
9.509586728E0,-4.474247247E-2,-5.646073818E-2,-1.022685021E-1
9.515407353E0,-3.941598535E-2,-7.563608140E-2,-1.182479635E-1
9.519662406E0,-3.302420676E-2,-9.481142461E-2,-1.267703325E-1
9.524762406E0,-2.769771963E-2,-1.107908785E-1,-1.257050335E-1
9.529795272E0,-2.130593918E-2,-1.214438528E-1,-1.171826646E-1
9.534811522E0,-1.597945392E-2,-1.310315281E-1,-1.043990999E-1
9.539959284E0,-9.587672539E-3,-1.363580078E-1,-9.055023640E-2
9.545108710E0,-3.195890691E-3,-1.320968270E-1,-7.030959427E-2
9.550051160E0,-3.195890691E-3,-1.203785539E-1,-4.580776766E-2
9.555140222E0,-2.130593872E-3,-1.107908785E-1,-2.237123623E-2
9.560160275E0,-7.457078435E-3,-9.587672353E-2,3.195890691E-3
9.565156837E0,-1.597945392E-2,-8.415845782E-2,2.556712553E-2
9.570309964E0,-2.343653329E-2,-7.030959427E-2,4.048128426E-2
9.575340901E0,-2.876301669E-2,-6.285251677E-2,5.219954997E-2
9.580272204E0,-3.622009605E-2,-6.817900389E-2,5.965662748E-2
9.585550329E0,-4.367717355E-2,-7.776667923E-2,6.072192639E-2
9.590625851E0,-4.793836176E-2,-8.415845782E-2,6.072192639E-2
9.595672049E0,-5.219954997E-2,-9.694202244E-2,5.646073818E-2
9.600665019E0,-5.113425106E-2,-1.086602882E-1,4.687306657E-2
9.605764966E0,-4.580776766E-2,-1.161173657E-1,4.261187837E-2
9.610761114E0,-3.941598535E-2,-1.203785539E-1,3.408950195E-2
9.615908353E0,-3.408950195E-2,-1.257050335E-1,2.663242258E-2
9.620882781E0,-2.876301669E-2,-1.363580078E-1,1.917534508E-2
9.626072052E0,-2.237123623E-2,-1.438150853E-1,1.491415687E-2
9.631130178E0,-1.704475097E-2,-1.512721628E-1,6.391781382E-3
9.636215230E0,-1.171826664E-2,-1.629904360E-1,0.000000000E0
9.641162523E0,-3.195890691E-3,-1.704475135E-1,-2.130593872E-3
9.646137418E0,3.195890691E-3,-1.747086942E-1,-3.195890691E-3
9.651126482E0,1.384885982E-2,-1.779045910E-1,-5.326484796E-3
9.656268200E0,2.343653329E-2,-1.736433953E-1,-3.195890691E-3
9.661368983E0,3.515479714E-2,-1.619251370E-1,1.065296936E-3
9.666512160E0,4.580776766E-2,-1.416844875E-1,8.522375487E-3
9.671504245E0,5.113425106E-2,-1.171826646E-1,1.491415687E-2
9.676607526E0,5.433014408E-2,-9.374613315E-2,2.343653329E-2
9.681616641E0,5.219954997E-2,-7.563608140E-2,3.302420676E-2
9.686748881E0,4.580776766E-2,-6.072192639E-2,4.261187837E-2
9.691754507E0,3.622009605E-2,-5.326484516E-2,5.326484516E-2
9.696734923E0,3.089361079E-2,-5.006895587E-2,6.072192639E-2
9.701752998E0,2.343653329E-2,-5.219954997E-2,6.604841352E-2
9.706923831E0,1.811004803E-2,-5.433014408E-2,6.924430281E-2
9.712071384E0,1.811004803E-2,-5.646073818E-2,6.924430281E-2
9.717149300E0,2.024064213E-2,-5.539543927E-2,6.924430281E-2
9.722139927E0,2.450183034E-2,-5.539543927E-2,6.817900389E-2
9.727214770E0,2.769771963E-2,-5.433014408E-2,6.924430281E-2
9.732228053E0,2.769771963E-2,-4.793836176E-2,7.030959427E-2
9.737258781E0,2.982831374E-2,-4.048128426E-2,6.817900389E-2
9.742404564E0,3.089361079E-2,-2.450183034E-2,6.711370498E-2
9.747511491E0,2.982831374E-2,-6.391781382E-3,7.030959427E-2
9.752349513E0,2.663242258E-2,7.457078435E-3,7.244019210E-2
9.757591127E0,2.876301669E-2,2.024064213E-2,7.776667923E-2
9.762480660E0,2.769771963E-2,2.982831374E-2,7.989726961E-2
9.767758003E0,2.663242258E-2,3.515479714E-2,8.415845782E-2
9.772591755E0,2.769771963E-2,3.515479714E-2,8.735434711E-2
9.777763473E0,3.195890784E-2,4.048128426E-2,9.055023640E-2
9.782727329E0,3.941598535E-2,4.474247247E-2,9.161553532E-2
9.787952120E0,4.793836176E-2,4.687306657E-2,9.161553532E-2
9.792967434E0,6.178722158E-2,5.113425106E-2,8.948494494E-2
9.798072017E0,7.457078248E-2,6.178722158E-2,8.841964602E-2
9.803076810E0,8.735434711E-2,7.457078248E-2,8.841964602E-2
9.808182434E0,9.694202244E-2,9.161553532E-2,8.841964602E-2
9.813230300E0,1.033338010E-1,1.033338010E-1,8.415845782E-2
9.818316498E0,1.043990999E-1,1.075949892E-1,8.522375673E-2
9.823203999E0,1.022685021E-1,1.086602882E-1,8.522375673E-2
9.828466603E0,9.800732136E-2,1.043990999E-1,8.415845782E-2
9.833442490E0,9.268083423E-2,1.043990999E-1,8.309315890E-2
9.838576917E0,8.948494494E-2,1.107908785E-1,8.522375673E-2
9.843568689E0,8.628904819E-2,1.225091442E-1,8.948494494E-2
9.848567855E0,8.309315890E-2,1.331621110E-1,8.948494494E-2
9.853642544E0,8.522375673E-2,1.438150853E-1,8.948494494E-2
9.858696971E0,8.841964602E-2,1.576639414E-1,9.055023640E-2
9.863872493E0,8.735434711E-2,1.725780964E-1,9.055023640E-2
9.868971920E0,8.628904819E-2,1.874922663E-1,9.374613315E-2
9.874007181E0,8.415845782E-2,1.981452256E-1,9.587672353E-2
9.878962754E0,8.096256852E-2,2.002758235E-1,9.481142461E-2
9.884071037E0,7.776667923E-2,2.013411224E-1,9.268083423E-2
9.889186817E0,7.670138031E-2,2.002758235E-1,9.268083423E-2
9.894219579E0,7.457078248E-2,1.928187460E-1,9.268083423E-2
9.899357548E0,7.457078248E-2,1.842963696E-1,8.948494494E-2
9.904380361E0,7.457078248E-2,1.779045910E-1,8.841964602E-2
9.909308070E0,7.670138031E-2,1.768392920E-1,8.415845782E-2
9.914375883E0,7.989726961E-2,1.736433953E-1,8.202786744E-2
9.919556300E0,8.735434711E-2,1.693822145E-1,7.883197069E-2
9.924570832E0,9.055023640E-2,1.661863178E-1,7.244019210E-2
9.929555311E0,9.374613315E-2,1.640557349E-1,6.498311460E-2
9.934608229E0,9.694202244E-2,1.672516167E-1,5.965662748E-2
9.939738645E0,1.033338010E-1,1.693822145E-1,5.433014408E-2
9.944668074E0,1.043990999E-1,1.683169156E-1,5.113425106E-2
9.949826407E0,1.033338010E-1,1.693822145E-1,4.793836176E-2
9.954795210E0,1.001379117E-1,1.651210189E-1,4.474247247E-2
9.960025575E0,9.694202244E-2,1.544680595E-1,4.261187837E-2
9.965062920E0,9.055023640E-2,1.459456831E-1,4.154657945E-2
9.970145888E0,8.096256852E-2,1.331621110E-1,4.048128426E-2
9.975160994E0,7.244019210E-2,1.225091442E-1,3.941598535E-2
9.980280368E0,6.604841352E-2,1.214438528E-1,3.728539124E-2
9.985157557E0,6.285251677E-2,1.257050335E-1,3.302420676E-2
9.990319900E0,5.965662748E-2,1.289009303E-1,3.302420676E-2
9.995312558E0,5.752603337E-2,1.342274100E-1,3.195890784E-2
1.000041959E1,5.539543927E-2,1.374233067E-1,2.982831374E-2
1.000551527E1,4.793836176E-2,1.416844875E-1,2.450183034E-2
1.001069782E1,4.367717355E-2,1.438150853E-1,2.237123623E-2
1.001571141E1,3.622009605E-2,1.416844875E-1,2.237123623E-2
1.002077714E1,2.876301669E-2,1.406191885E-1,1.704475097E-2
1.002577678E1,2.556712553E-2,1.384886056E-1,1.811004803E-2
1.003090563E1,2.450183034E-2,1.363580078E-1,1.704475097E-2
1.003592657E1,2.024064213E-2,1.320968270E-1,1.597945392E-2
1.004088162E1,1.811004803E-2,1.225091442E-1,1.384885982E-2
1.004589751E1,1.597945392E-2,1.097255871E-1,1.065296959E-2
1.005101876E1,1.065296959E-2,9.268083423E-2,5.326484796E-3
1.005601225E1,8.522375487E-3,7.563608140E-2,0.000000000E0
1.006114517E1,6.391781382E-3,5.965662748E-2,-4.261187743E-3
1.006632106E1,4.261187743E-3,4.687306657E-2,-1.278356276E-2
1.007141001E1,-2.130593872E-3,3.622009605E-2,-1.704475097E-2
