"Time (s)","Gyroscope x (rad/s)","Gyroscope y (rad/s)","Gyroscope z (rad/s)"
4.000000000E-3,2.224129736E-1,-2.859514952E-1,-2.817225158E-1
6.000000000E-3,2.224129736E-1,-3.018340170E-1,-2.731703818E-1
8.000000000E-3,2.248564512E-1,-3.109970093E-1,-2.731703818E-1
1.000000000E-2,2.242455781E-1,-3.256577551E-1,-2.713378072E-1
1.200000000E-2,2.236347049E-1,-3.342098594E-1,-2.658399940E-1
1.399480000E-2,2.211912572E-1,-3.574227691E-1,-2.609530985E-1
1.599446600E-2,2.211912572E-1,-3.641422689E-1,-2.566770315E-1
1.799446600E-2,2.218021154E-1,-3.702509105E-1,-2.554552853E-1
1.999446600E-2,2.187477946E-1,-3.800247908E-1,-2.511792183E-1
2.199446600E-2,2.138608694E-1,-3.891877532E-1,-2.475140393E-1
2.399446600E-2,2.156934589E-1,-3.934638202E-1,-2.475140393E-1
2.599455600E-2,2.089739591E-1,-4.026267827E-1,-2.456814349E-1
2.799463900E-2,2.071413547E-1,-4.081245661E-1,-2.438488454E-1
2.999471500E-2,2.077522129E-1,-4.105680287E-1,-2.462923080E-1
3.199478600E-2,2.028653026E-1,-4.197310209E-1,-2.487357855E-1
3.399311900E-2,1.979783773E-1,-4.264505208E-1,-2.603422105E-1
3.599143100E-2,1.979783773E-1,-4.264505208E-1,-2.603422105E-1
3.799148900E-2,1.912588477E-1,-4.350026250E-1,-2.646182775E-1
3.999154400E-2,1.918697208E-1,-4.362243712E-1,-2.701160610E-1
4.199154400E-2,1.900371313E-1,-4.447764754E-1,-2.774464488E-1
4.399154400E-2,1.833176166E-1,-4.514960051E-1,-2.866094410E-1
4.599154400E-2,1.820958704E-1,-4.569937885E-1,-2.933289409E-1
4.799154400E-2,1.796524227E-1,-4.655458927E-1,-3.018810451E-1
4.999154400E-2,1.778198183E-1,-4.704328179E-1,-3.159309328E-1
5.199154400E-2,1.759872288E-1,-4.747088850E-1,-3.208178580E-1
5.399050400E-2,1.741546392E-1,-4.783740938E-1,-3.379220963E-1
5.599000400E-2,1.753763556E-1,-4.863153100E-1,-3.421981633E-1
5.799000400E-2,1.704894453E-1,-4.979217649E-1,-3.574697971E-1
5.999000400E-2,1.692676991E-1,-5.150259733E-1,-3.739631772E-1
6.199000400E-2,1.680459678E-1,-5.229672194E-1,-3.825152516E-1
6.399000400E-2,1.668242514E-1,-5.290758610E-1,-3.990086317E-1
6.599000400E-2,1.680459678E-1,-5.351845026E-1,-4.142802358E-1
6.799000400E-2,1.674351096E-1,-5.357953906E-1,-4.252758324E-1
6.999000400E-2,1.668242514E-1,-5.364062786E-1,-4.448235035E-1
7.199000400E-2,1.711002886E-1,-5.394605994E-1,-4.655929208E-1
7.398997000E-2,1.741546392E-1,-5.382388830E-1,-4.881949425E-1
7.598960300E-2,1.759872288E-1,-5.388497114E-1,-4.967470765E-1
7.798960300E-2,1.802632809E-1,-5.376279950E-1,-5.065209270E-1
7.998960300E-2,1.833176166E-1,-5.364062786E-1,-5.242360234E-1
8.198960300E-2,1.857610643E-1,-5.321301818E-1,-5.407293439E-1
8.398960300E-2,1.906479895E-1,-5.302976370E-1,-5.480597615E-1
8.598956900E-2,1.937023103E-1,-5.260215402E-1,-5.602770448E-1
8.798956900E-2,1.949240416E-1,-5.247998238E-1,-5.712726712E-1
8.998956900E-2,1.967566311E-1,-5.205237269E-1,-5.755487084E-1
9.198956900E-2,1.992001086E-1,-5.125825405E-1,-5.847116709E-1
9.398956900E-2,2.034761608E-1,-4.960891604E-1,-5.871551633E-1
9.599096900E-2,2.034761608E-1,-4.960891604E-1,-5.871551633E-1
9.799096900E-2,2.059196234E-1,-4.802066684E-1,-5.865442753E-1
9.999096900E-2,2.059196234E-1,-4.710437059E-1,-5.816573501E-1
1.019910020E-1,2.089739591E-1,-4.545503259E-1,-5.743269920E-1
1.039910020E-1,2.114174068E-1,-4.368352294E-1,-5.663856864E-1
1.059911680E-1,2.120282799E-1,-4.264505208E-1,-5.608879328E-1
1.079924010E-1,2.132499963E-1,-4.075137079E-1,-5.492814779E-1
1.099924010E-1,2.169151902E-1,-3.916311860E-1,-5.333989859E-1
1.119924010E-1,2.181369215E-1,-3.830791116E-1,-5.279011726E-1
1.139924010E-1,2.205803841E-1,-3.635314107E-1,-5.059100389E-1
1.159925340E-1,2.193586528E-1,-3.592553437E-1,-4.973579347E-1
1.179925340E-1,2.224129736E-1,-3.537575603E-1,-4.930818677E-1
1.199925340E-1,2.224129736E-1,-3.464271724E-1,-4.790319800E-1
1.219925340E-1,2.205803841E-1,-3.464271724E-1,-4.747559130E-1
1.239925340E-1,2.218021154E-1,-3.452054560E-1,-4.668146670E-1
1.259925340E-1,2.236347049E-1,-3.513140976E-1,-4.600951672E-1
1.279925340E-1,2.236347049E-1,-3.543684483E-1,-4.564299583E-1
1.299925340E-1,2.242455781E-1,-3.641422689E-1,-4.521538913E-1
1.319925340E-1,2.279107720E-1,-3.812464774E-1,-4.497104585E-1
1.339925670E-1,2.285216302E-1,-4.032376409E-1,-4.466561377E-1
1.359930330E-1,2.279107720E-1,-4.148440957E-1,-4.429909289E-1
1.379930660E-1,2.315759510E-1,-4.441656172E-1,-4.442126453E-1
1.399930990E-1,2.334085554E-1,-4.649350345E-1,-4.417691827E-1
1.419931320E-1,2.334085554E-1,-5.040304065E-1,-4.393257499E-1
1.439931650E-1,2.364628762E-1,-5.498452783E-1,-4.368822575E-1
1.459931980E-1,2.364628762E-1,-5.730581880E-1,-4.362713993E-1
1.479931980E-1,2.395172119E-1,-6.304795146E-1,-4.399365783E-1
1.499931980E-1,2.389063388E-1,-6.567466855E-1,-4.399365783E-1
1.519931640E-1,2.407389432E-1,-7.135571837E-1,-4.423800707E-1
1.539931300E-1,2.431824058E-1,-8.009109497E-1,-4.484887123E-1
1.559923300E-1,2.431824058E-1,-8.009109497E-1,-4.484887123E-1
1.579922960E-1,2.450149953E-1,-8.595539331E-1,-4.527647793E-1
1.599922620E-1,2.437932640E-1,-9.298034906E-1,-4.558191001E-1
1.619922280E-1,2.462367266E-1,-9.658445716E-1,-4.558191001E-1
1.639922280E-1,2.450149953E-1,-1.031818032E0,-4.576517045E-1
1.659920610E-1,2.474584430E-1,-1.095348001E0,-4.607060254E-1
1.679908270E-1,2.499019206E-1,-1.128334761E0,-4.600951672E-1
1.699908270E-1,2.566214204E-1,-1.186366916E0,-4.607060254E-1
1.719908270E-1,2.596757412E-1,-1.214466691E0,-4.613168836E-1
1.739908270E-1,2.755582631E-1,-1.301209569E0,-4.594842792E-1
1.759911270E-1,2.816669047E-1,-1.328698516E0,-4.594842792E-1
1.779911270E-1,2.889972925E-1,-1.356798291E0,-4.594842792E-1
1.799911270E-1,3.030471802E-1,-1.411165237E0,-4.600951672E-1
1.819911600E-1,3.274818063E-1,-1.450871587E0,-4.649820924E-1
1.839911930E-1,3.390882611E-1,-1.462478042E0,-4.692581296E-1
1.859912260E-1,3.598576784E-1,-1.485080004E0,-4.747559130E-1
1.879912590E-1,3.916226625E-1,-1.511347175E0,-4.771993756E-1
1.899912920E-1,4.056725502E-1,-1.527840614E0,-4.808645546E-1
1.919913250E-1,4.331614971E-1,-1.557162166E0,-4.820863008E-1
1.939913580E-1,4.667590857E-1,-1.584650993E0,-4.826971889E-1
1.959910240E-1,4.808090031E-1,-1.601144433E0,-4.820863008E-1
1.979909900E-1,5.119631290E-1,-1.621913791E0,-4.839188755E-1
1.999909560E-1,5.266239047E-1,-1.629855156E0,-4.851406217E-1
2.019909220E-1,5.547236800E-1,-1.642072439E0,-4.906384349E-1
2.039908880E-1,5.828235149E-1,-1.648791909E0,-4.930818677E-1
2.059908540E-1,5.962625146E-1,-1.655511379E0,-4.924710095E-1
2.079908200E-1,6.170319319E-1,-1.662230968E0,-4.949144721E-1
2.099907860E-1,6.390230656E-1,-1.667117834E0,-4.912492633E-1
2.119907860E-1,6.487969160E-1,-1.668339610E0,-4.894166887E-1
2.139907860E-1,6.848379374E-1,-1.661620021E0,-4.790319800E-1
2.159901520E-1,6.848379374E-1,-1.661620021E0,-4.790319800E-1
2.179901520E-1,7.098834515E-1,-1.648181081E0,-4.704798460E-1
2.199901520E-1,7.312637568E-1,-1.628633261E0,-4.594842792E-1
2.219901520E-1,7.422592640E-1,-1.616415977E0,-4.582625329E-1
2.239901520E-1,7.666938901E-1,-1.599311709E0,-4.460452497E-1
2.259901520E-1,7.929611206E-1,-1.577320695E0,-4.387148619E-1
2.279901520E-1,8.076218963E-1,-1.561438084E0,-4.356605411E-1
2.299901520E-1,8.290022016E-1,-1.522953629E0,-4.271084368E-1
2.319901520E-1,8.534367681E-1,-1.489966869E0,-4.161128402E-1
2.339901520E-1,8.687084317E-1,-1.453314900E0,-4.020629525E-1
2.359896850E-1,8.803148866E-1,-1.441708565E0,-3.935108483E-1
2.379896850E-1,8.888669610E-1,-1.427047849E0,-3.837369978E-1
2.399896850E-1,8.992516398E-1,-1.395893693E0,-3.648001850E-1
2.419896510E-1,9.071929455E-1,-1.361685157E0,-3.421981633E-1
2.439896510E-1,9.096363783E-1,-1.347635388E0,-3.275373876E-1
2.459896510E-1,9.133015871E-1,-1.315259457E0,-3.043245375E-1
2.479896510E-1,9.151341319E-1,-1.276164055E0,-2.737812400E-1
2.499896510E-1,9.157450795E-1,-1.255394697E0,-2.591204941E-1
2.519896510E-1,9.126907587E-1,-1.214466691E0,-2.291880995E-1
2.539896510E-1,9.133015871E-1,-1.175982237E0,-2.016991526E-1
2.559899840E-1,9.133015871E-1,-1.157045364E0,-1.864275187E-1
2.579900170E-1,9.120798111E-1,-1.117339134E0,-1.619929075E-1
2.599900170E-1,9.139124155E-1,-1.100845695E0,-1.522190720E-1
2.619900170E-1,9.163559079E-1,-1.057474375E0,-1.314496398E-1
2.639900170E-1,9.206319451E-1,-1.020822406E0,-1.204540730E-1
2.659900170E-1,9.194102287E-1,-1.005550742E0,-1.173997521E-1
2.679900170E-1,9.236862659E-1,-9.756184220E-1,-1.119019613E-1
2.699900170E-1,9.273514748E-1,-9.566816092E-1,-1.222866699E-1
2.719900170E-1,9.291840792E-1,-9.493511915E-1,-1.308387965E-1
2.739900170E-1,9.468991756E-1,-9.096449614E-1,-1.699341536E-1
2.759912500E-1,9.627816677E-1,-8.913189769E-1,-1.894818395E-1
2.779912500E-1,9.817184806E-1,-8.693278432E-1,-2.102512717E-1
2.799912500E-1,1.020813823E0,-8.100739121E-1,-2.548444271E-1
2.819912500E-1,1.046470165E0,-7.685350180E-1,-2.847768366E-1
2.839912500E-1,1.100837111E0,-6.726292372E-1,-3.495285213E-1
2.859912500E-1,1.169865012E0,-5.504561663E-1,-4.228323698E-1
2.879912500E-1,1.208960295E0,-4.795957804E-1,-4.631494880E-1
2.899912500E-1,1.300590038E0,-3.409293890E-1,-5.346207023E-1
2.919912830E-1,1.390387297E0,-2.047064304E-1,-6.042593122E-1
2.939913160E-1,1.472854137E0,-8.436598629E-2,-6.653459072E-1
2.959918490E-1,1.508284330E0,-2.633379027E-2,-6.903913617E-1
2.979918820E-1,1.576701164E0,9.583925456E-2,-7.355954051E-1
2.999919150E-1,1.610298872E0,1.691430807E-1,-7.581973672E-1
3.019919480E-1,1.674439669E0,3.133072853E-1,-7.966818810E-1
3.039919480E-1,1.706204653E0,3.914980590E-1,-8.101209402E-1
3.059919480E-1,1.763625979E0,5.478795171E-1,-8.376098871E-1
3.079919140E-1,1.806997418E0,6.877676845E-1,-8.620445132E-1
3.099918800E-1,1.821658254E0,7.494651079E-1,-8.663205504E-1
3.119918460E-1,1.841816783E0,8.569773436E-1,-8.785378337E-1
3.139917790E-1,1.850979686E0,9.370006919E-1,-8.852573633E-1
3.159917120E-1,1.850368857E0,9.638788104E-1,-8.852573633E-1
3.179916780E-1,1.840595007E0,9.950329065E-1,-8.840356469E-1
3.199916780E-1,1.808830023E0,9.962546229E-1,-8.760943413E-1
3.219916780E-1,1.791115046E0,9.852590561E-1,-8.718183041E-1
3.239916780E-1,1.737358809E0,9.437202215E-1,-8.516597748E-1
3.259916780E-1,1.709259033E0,9.113443494E-1,-8.431076407E-1
3.279916780E-1,1.638398528E0,8.417057395E-1,-8.168404698E-1
3.299916780E-1,1.556542754E0,7.592388988E-1,-7.838537693E-1
3.319916780E-1,1.511949420E0,7.177000642E-1,-7.667495012E-1
3.339916780E-1,1.362898469E0,5.735358596E-1,-7.007760406E-1
3.359913780E-1,1.306087852E0,5.240557790E-1,-6.775631905E-1
3.379914110E-1,1.249277472E0,4.727430940E-1,-6.506851315E-1
3.399914440E-1,1.128937006E0,3.597330451E-1,-5.981506705E-1
3.419914770E-1,9.988226891E-1,2.424469143E-1,-5.407293439E-1
3.439915100E-1,9.297949076E-1,1.807495207E-1,-5.138513446E-1
3.459915430E-1,7.880741954E-1,4.819176719E-2,-4.490995705E-1
3.479915760E-1,7.141594887E-1,-1.533821598E-2,-4.179454446E-1
3.499916090E-1,5.632758141E-1,-1.485068351E-1,-3.538045883E-1
3.519916090E-1,4.117812216E-1,-2.828971744E-1,-2.884420156E-1
3.539915750E-1,2.615083754E-1,-4.130114913E-1,-2.224685699E-1
3.559910750E-1,1.888154000E-1,-4.765414596E-1,-1.949796230E-1
3.579910410E-1,5.014898255E-2,-5.883298516E-1,-1.363365650E-1
3.599910070E-1,-1.948965713E-2,-6.402533650E-1,-1.112910956E-1
3.619909730E-1,-1.459387690E-1,-7.312722802E-1,-5.875668302E-2
3.639909390E-1,-2.577271163E-1,-8.076304197E-1,-1.599611714E-2
3.659909050E-1,-3.114832342E-1,-8.381736875E-1,5.995031446E-3
3.679909050E-1,-4.110542834E-1,-8.888754845E-1,4.997732863E-2
3.699909050E-1,-4.550365806E-1,-9.090340734E-1,6.769242138E-2
3.719909050E-1,-5.344490409E-1,-9.377447367E-1,1.043443382E-1
3.739909380E-1,-6.053094268E-1,-9.530163407E-1,1.422179937E-1
3.759906040E-1,-6.334092617E-1,-9.591249824E-1,1.611548066E-1
3.779906040E-1,-6.859436631E-1,-9.634010792E-1,1.953632534E-1
3.799906040E-1,-7.305368185E-1,-9.597359300E-1,2.265173793E-1
3.819906040E-1,-7.500844598E-1,-9.548489451E-1,2.417890131E-1
3.839906040E-1,-7.794060111E-1,-9.530163407E-1,2.668344975E-1
3.859906040E-1,-8.081166744E-1,-9.444642067E-1,2.924908400E-1
3.879906040E-1,-8.191122413E-1,-9.389665127E-1,3.022646904E-1
3.899906370E-1,-8.331621885E-1,-9.285817742E-1,3.254775703E-1
3.919906370E-1,-8.466011882E-1,-9.181970358E-1,3.468578458E-1
3.939906370E-1,-8.557641506E-1,-9.096449614E-1,3.633511961E-1
3.959908700E-1,-8.600402474E-1,-9.004819393E-1,3.712924421E-1
3.979908360E-1,-8.594293594E-1,-8.980385065E-1,3.810662925E-1
3.999908020E-1,-8.618727922E-1,-8.888754845E-1,3.957270384E-1
4.019908020E-1,-8.612619638E-1,-8.754364848E-1,4.109987020E-1
4.039908020E-1,-8.575968146E-1,-8.674952388E-1,4.189399481E-1
4.059908020E-1,-8.569859266E-1,-8.485584259E-1,4.305463731E-1
4.079899020E-1,-8.478229642E-1,-8.283998370E-1,4.445962906E-1
4.099899020E-1,-8.447686434E-1,-8.161825538E-1,4.519266784E-1
4.119899020E-1,-8.349947333E-1,-7.893044949E-1,4.641439617E-1
4.139899350E-1,-8.221665621E-1,-7.599829435E-1,4.781938791E-1
4.159900680E-1,-8.148362041E-1,-7.422679067E-1,4.830807745E-1
4.179900680E-1,-7.977319956E-1,-7.129463553E-1,4.928546548E-1
4.199900680E-1,-7.910124660E-1,-6.964529157E-1,4.989632964E-1
4.219900680E-1,-7.757408619E-1,-6.665205956E-1,5.075154305E-1
4.239900680E-1,-7.592474818E-1,-6.359772682E-1,5.105697513E-1
4.259900680E-1,-7.494736314E-1,-6.200947762E-1,5.142349005E-1
4.279900680E-1,-7.335911393E-1,-5.895515680E-1,5.203435421E-1
4.299900680E-1,-7.183195353E-1,-5.681712627E-1,5.209544301E-1
4.319900680E-1,-7.085456252E-1,-5.577865839E-1,5.215653181E-1
4.339900680E-1,-6.920523047E-1,-5.345736742E-1,5.221761465E-1
4.359900010E-1,-6.828892827E-1,-5.284650326E-1,5.197327137E-1
4.379900010E-1,-6.761698127E-1,-5.217455029E-1,5.185109973E-1
4.399900010E-1,-6.657850742E-1,-5.064738989E-1,5.185109973E-1
4.419900010E-1,-6.590655446E-1,-4.997543693E-1,5.166783929E-1
4.439900010E-1,-6.444047689E-1,-4.820392728E-1,5.154566765E-1
4.459900010E-1,-6.291331649E-1,-4.624915719E-1,5.111805797E-1
4.479900340E-1,-6.187484860E-1,-4.496634007E-1,5.081262589E-1
4.499900340E-1,-5.985898972E-1,-4.191201329E-1,5.001850128E-1
4.519900670E-1,-5.735444427E-1,-3.879660070E-1,4.885785878E-1
4.539901000E-1,-5.472772121E-1,-3.427619934E-1,4.739178121E-1
4.559899000E-1,-5.344490409E-1,-3.189382255E-1,4.702526331E-1
4.579899330E-1,-4.965754151E-1,-2.639603615E-1,4.531483650E-1
4.599899660E-1,-4.819146395E-1,-2.321953773E-1,4.458180070E-1
4.619899660E-1,-4.495387971E-1,-1.741631776E-1,4.287137687E-1
4.639899320E-1,-4.299910963E-1,-1.436199248E-1,4.219942689E-1
4.659898980E-1,-3.951717913E-1,-7.947906852E-2,4.055009186E-1
4.679907640E-1,-3.627959192E-1,-1.961427368E-2,3.908401430E-1
4.699907300E-1,-3.450808525E-1,6.652933545E-3,3.828988969E-1
4.719906960E-1,-3.151484430E-1,6.285253167E-2,3.676272631E-1
4.739906620E-1,-2.870486379E-1,1.135543510E-1,3.615186214E-1
4.759909620E-1,-2.729987204E-1,1.355455071E-1,3.566316962E-1
4.779909620E-1,-2.485641241E-1,1.752517372E-1,3.505230546E-1
4.799909620E-1,-2.241295129E-1,2.100710571E-1,3.493013084E-1
4.819909620E-1,-2.131339461E-1,2.216775119E-1,3.480795622E-1
4.839909620E-1,-1.960297078E-1,2.479446977E-1,3.468578458E-1
4.859909620E-1,-1.874776036E-1,2.577185333E-1,3.529664874E-1
4.879909620E-1,-1.703733653E-1,2.717684507E-1,3.547990620E-1
4.899909620E-1,-1.587669402E-1,2.784879804E-1,3.602968752E-1
4.919909620E-1,-1.532691568E-1,2.803205550E-1,3.627403378E-1
4.939909950E-1,-1.410518289E-1,2.790988386E-1,3.786228299E-1
4.959914610E-1,-1.392192394E-1,2.766553760E-1,3.847314715E-1
4.979914940E-1,-1.367757916E-1,2.705467343E-1,3.883966804E-1
4.999915270E-1,-1.343323141E-1,2.619946003E-1,3.981705308E-1
5.019915600E-1,-1.355540454E-1,2.461121082E-1,4.091660976E-1
5.039915930E-1,-1.349431872E-1,2.406143248E-1,4.152747393E-1
5.059916260E-1,-1.337214559E-1,2.216775119E-1,4.250485897E-1
5.079916260E-1,-1.367757916E-1,2.125145197E-1,4.281029105E-1
5.099915920E-1,-1.416627020E-1,1.905233711E-1,4.378767610E-1
5.119915580E-1,-1.416627020E-1,1.703648269E-1,4.470397234E-1
5.139915240E-1,-1.459387690E-1,1.447084844E-1,4.574244320E-1
5.159910240E-1,-1.459387690E-1,1.331020296E-1,4.568135738E-1
5.179909900E-1,-1.483822167E-1,1.105000228E-1,4.653656781E-1
5.199909560E-1,-1.483822167E-1,9.461753070E-2,4.659765661E-1
5.219909220E-1,-1.477713585E-1,7.445897907E-2,4.714743495E-1
5.239909220E-1,-1.471604854E-1,4.635917395E-2,4.751395285E-1
5.259909220E-1,-1.471604854E-1,3.292014077E-2,4.745287001E-1
5.279909220E-1,-1.428844333E-1,6.042067893E-3,4.733069539E-1
5.299909220E-1,-1.398301125E-1,-4.342640750E-3,4.708634913E-1
5.319909220E-1,-1.318888515E-1,-2.572292462E-2,4.696417451E-1
5.339909220E-1,-1.190606952E-1,-4.588147625E-2,4.635331035E-1
5.359909220E-1,-1.123411730E-1,-5.015753582E-2,4.617004991E-1
5.379909220E-1,-9.768040478E-2,-6.115311012E-2,4.549809992E-1
5.399909220E-1,-7.630012184E-2,-7.153782248E-2,4.494831860E-1
5.419909220E-1,-6.286108494E-2,-7.459215075E-2,4.452071488E-1
5.439909220E-1,-3.781561181E-2,-8.131165802E-2,4.378767610E-1
5.459909220E-1,-6.050620228E-3,-9.047464281E-2,4.317680895E-1
5.479909220E-1,9.831875563E-3,-9.475069493E-2,4.293246567E-1
5.499909220E-1,4.526206106E-2,-1.033028141E-1,4.213833809E-1
5.519909220E-1,6.419888139E-2,-1.051354036E-1,4.146638811E-1
5.539908880E-1,1.234528124E-1,-1.069680005E-1,4.006139934E-1
5.559908540E-1,1.436113566E-1,-1.069680005E-1,3.938944638E-1
5.579908540E-1,1.656025052E-1,-1.020810753E-1,3.859532177E-1
5.599908540E-1,2.126391381E-1,-9.475069493E-2,3.725141883E-1
5.619908540E-1,2.529562414E-1,-8.131165802E-2,3.566316962E-1
5.639908540E-1,2.749473751E-1,-7.275955379E-2,3.474686742E-1
5.659908540E-1,3.158753514E-1,-5.687705055E-2,3.309753537E-1
5.679908540E-1,3.555816114E-1,-4.649234563E-2,3.126493692E-1
5.699908870E-1,3.726858199E-1,-4.282715172E-2,3.034864068E-1
5.719908870E-1,4.032290876E-1,-4.649234563E-2,2.863821685E-1
5.739908870E-1,4.441570640E-1,-6.115311012E-2,2.595041096E-1
5.759917870E-1,4.441570640E-1,-6.115311012E-2,2.595041096E-1
5.779917870E-1,4.655373394E-1,-8.314425498E-2,2.405672967E-1
5.799917870E-1,4.747003317E-1,-9.169637412E-2,2.307934463E-1
5.819917870E-1,4.875285029E-1,-1.173527166E-1,2.124674767E-1
5.839917870E-1,5.058544874E-1,-1.485068351E-1,1.941415220E-1
5.859917870E-1,5.101305246E-1,-1.637784690E-1,1.849785447E-1
5.879917870E-1,5.186825991E-1,-1.949325949E-1,1.654308587E-1
5.899917870E-1,5.217369199E-1,-2.279193252E-1,1.452723145E-1
5.919926870E-1,5.229586959E-1,-2.456344217E-1,1.391636431E-1
5.939926870E-1,5.235695243E-1,-2.767885327E-1,1.208377033E-1
5.959926870E-1,5.223478675E-1,-2.920601666E-1,1.128964499E-1
5.979926870E-1,5.174608827E-1,-3.158839047E-1,1.019008681E-1
5.999926870E-1,5.052435994E-1,-3.354316056E-1,8.846183866E-2
6.019926870E-1,5.021892786E-1,-3.415402472E-1,8.357492089E-2
6.039927200E-1,4.869176447E-1,-3.482597768E-1,7.196847349E-2
6.059927530E-1,4.679808021E-1,-3.513140976E-1,6.280550361E-2
6.079927860E-1,4.557635188E-1,-3.464271724E-1,6.280550361E-2
6.099928190E-1,4.313288927E-1,-3.415402472E-1,5.975117534E-2
6.119928520E-1,4.032290876E-1,-3.311555386E-1,6.341636181E-2
6.139928850E-1,3.677989244E-1,-3.262686133E-1,6.830328703E-2
6.159929180E-1,3.488620818E-1,-3.219925463E-1,7.441194355E-2
6.179929180E-1,3.305361271E-1,-3.219925463E-1,7.929886132E-2
6.199928840E-1,2.914407551E-1,-3.232142925E-1,9.395962209E-2
6.219928500E-1,2.511236370E-1,-3.262686133E-1,1.122855842E-1
6.239928160E-1,2.291324884E-1,-3.299338222E-1,1.232811585E-1
6.259927820E-1,1.857610643E-1,-3.384859264E-1,1.532135606E-1
6.279927480E-1,1.423896402E-1,-3.470380604E-1,1.843676716E-1
6.299927140E-1,1.216202155E-1,-3.525358140E-1,2.014719099E-1
6.319927140E-1,8.008138090E-2,-3.598662019E-1,2.369021028E-1
6.339927140E-1,2.510350756E-2,-3.549792767E-1,2.784409225E-1
6.359927800E-1,2.510350756E-2,-3.549792767E-1,2.784409225E-1
6.379927800E-1,-2.385428641E-3,-3.464271724E-1,2.973777354E-1
6.399924800E-1,-1.154840738E-2,-3.409293890E-1,3.053190112E-1
6.419924800E-1,-3.048522957E-2,-3.372641802E-1,3.205906451E-1
6.439924800E-1,-4.270253330E-2,-3.323772848E-1,3.352513909E-1
6.459924800E-1,-4.575686157E-2,-3.256577551E-1,3.438034952E-1
6.479924800E-1,-4.942205548E-2,-3.183273673E-1,3.615186214E-1
6.499924800E-1,-4.575686157E-2,-3.061100841E-1,3.792337179E-1
6.519916130E-1,-4.148080572E-2,-3.012231588E-1,3.890075386E-1
6.539916130E-1,-2.926350012E-2,-2.853406668E-1,4.067226350E-1
6.559916460E-1,-2.376571298E-2,-2.828971744E-1,4.134421349E-1
6.579916790E-1,-1.765706018E-2,-2.835080624E-1,4.171073437E-1
6.599917120E-1,5.803220120E-5,-2.865623832E-1,4.250485897E-1
6.619917450E-1,1.410793327E-2,-3.000014424E-1,4.281029105E-1
6.639917450E-1,1.960572042E-2,-3.122187257E-1,4.287137687E-1
6.659917110E-1,2.876869962E-2,-3.433728516E-1,4.262703359E-1
6.679916770E-1,2.937956341E-2,-3.665857315E-1,4.226051271E-1
6.699916430E-1,2.571437322E-2,-4.233961999E-1,4.140530229E-1
6.719916090E-1,1.471879799E-2,-4.942565560E-1,4.030574262E-1
6.739915750E-1,-4.828889854E-3,-5.730581880E-1,3.859532177E-1
6.759915410E-1,-1.826792583E-2,-6.182622313E-1,3.767902255E-1
6.779915070E-1,-4.942205548E-2,-7.062268257E-1,3.529664874E-1
6.799915070E-1,-6.713714451E-2,-7.538742423E-1,3.389165998E-1
6.819915070E-1,-1.098977104E-1,-8.430606127E-1,3.071516156E-1
6.839915070E-1,-1.575451940E-1,-9.212514162E-1,2.662236392E-1
6.859915070E-1,-1.862558722E-1,-9.579032660E-1,2.466759384E-1
6.879915070E-1,-2.387902886E-1,-1.011659384E0,1.971958429E-1
6.899915070E-1,-2.650575042E-1,-1.033039689E0,1.739829779E-1
6.919915070E-1,-3.206461966E-1,-1.062361240E0,1.183942333E-1
6.939915070E-1,-4.061673582E-1,-1.064193845E0,3.287310526E-2
6.959910070E-1,-4.061673582E-1,-1.064193845E0,3.287310526E-2
6.979910070E-1,-4.574800432E-1,-1.034872293E0,-2.576996014E-2
6.999913070E-1,-5.057383776E-1,-9.780618548E-1,-8.380216360E-2
7.019913070E-1,-5.277295709E-1,-9.395773411E-1,-1.186214760E-1
7.039913070E-1,-5.656031966E-1,-8.528344631E-1,-1.778754145E-1
7.059913070E-1,-5.985898972E-1,-7.538742423E-1,-2.414053977E-1
7.079913070E-1,-6.126398444E-1,-7.013399005E-1,-2.707269192E-1
7.099913070E-1,-6.376852989E-1,-5.968819857E-1,-3.287591338E-1
7.119912730E-1,-6.456265450E-1,-5.437366366E-1,-3.568589091E-1
7.139913060E-1,-6.627307534E-1,-3.971289992E-1,-4.307736158E-1
7.159913060E-1,-6.663959622E-1,-3.537575603E-1,-4.539865255E-1
7.179913060E-1,-6.712828875E-1,-3.128295839E-1,-4.735341668E-1
7.199913060E-1,-6.749480367E-1,-2.438018173E-1,-5.034666061E-1
7.219913060E-1,-6.743372083E-1,-1.906565428E-1,-5.217925310E-1
7.239913060E-1,-6.737263203E-1,-1.680545211E-1,-5.254576802E-1
7.259913390E-1,-6.749480367E-1,-1.338460743E-1,-5.199599862E-1
7.279913720E-1,-6.700611711E-1,-1.100223288E-1,-5.040774345E-1
7.299913720E-1,-6.670068502E-1,-9.841588885E-2,-4.894166887E-1
7.319913720E-1,-6.584547162E-1,-7.703560591E-2,-4.527647793E-1
7.339913720E-1,-6.444047689E-1,-6.787262857E-2,-4.100041986E-1
7.359913720E-1,-6.364635825E-1,-6.420743465E-2,-3.867913187E-1
7.379913720E-1,-6.144723892E-1,-6.665089726E-2,-3.489176631E-1
7.399913720E-1,-6.022551060E-1,-7.275955379E-2,-3.293699920E-1
7.419913720E-1,-5.765987635E-1,-8.619858325E-2,-2.976049781E-1
7.439913720E-1,-5.503315330E-1,-1.106331944E-1,-2.646182775E-1
7.459913720E-1,-5.375033617E-1,-1.197961718E-1,-2.493466288E-1
7.479913720E-1,-5.081818700E-1,-1.442307830E-1,-2.163599283E-1
7.499913720E-1,-4.788603187E-1,-1.723305881E-1,-1.815406084E-1
7.519913720E-1,-4.654212892E-1,-1.833261549E-1,-1.619929075E-1
7.539913720E-1,-4.257150590E-1,-2.407474965E-1,-1.064041778E-1
7.559909720E-1,-4.257150590E-1,-2.407474965E-1,-1.064041778E-1
7.579909720E-1,-4.031130373E-1,-2.767885327E-1,-5.875668302E-2
7.599910050E-1,-3.799001575E-1,-3.158839047E-1,-1.538525242E-2
7.619910380E-1,-3.713480234E-1,-3.317664266E-1,7.216762286E-3
7.639910710E-1,-3.542438149E-1,-3.610879481E-1,5.791857839E-2
7.659911040E-1,-3.395830393E-1,-3.867442906E-1,1.104529873E-1
7.679911370E-1,-3.328635395E-1,-3.989615738E-1,1.361093223E-1
7.699911700E-1,-3.218679428E-1,-4.172875285E-1,1.843676716E-1
7.719912030E-1,-3.157593012E-1,-4.319483042E-1,2.289608419E-1
7.739912030E-1,-3.151484430E-1,-4.447764754E-1,2.704997063E-1
7.759911690E-1,-3.157593012E-1,-4.478307962E-1,2.900473773E-1
7.779911350E-1,-3.169810176E-1,-4.551611841E-1,3.065407276E-1
7.799901680E-1,-3.224788308E-1,-4.624915719E-1,3.462469876E-1
7.819901340E-1,-3.285874724E-1,-4.686002135E-1,3.792337179E-1
7.839901000E-1,-3.322526515E-1,-4.716545343E-1,3.926727176E-1
7.859900660E-1,-3.438591063E-1,-4.734871387E-1,4.226051271E-1
7.879900320E-1,-3.524112105E-1,-4.698219597E-1,4.549809992E-1
7.899900320E-1,-3.554655313E-1,-4.710437059E-1,4.702526331E-1
7.919900320E-1,-3.597415984E-1,-4.569937885E-1,4.995741546E-1
7.939900320E-1,-3.634068072E-1,-4.490525424E-1,5.343934894E-1
7.959900320E-1,-3.658502400E-1,-4.447764754E-1,5.496650934E-1
7.979900320E-1,-3.676828444E-1,-4.417221546E-1,5.795974731E-1
7.999900650E-1,-3.682937026E-1,-4.459981918E-1,5.942582488E-1
8.019900650E-1,-3.799001575E-1,-4.514960051E-1,6.193037033E-1
8.039900650E-1,-3.847870827E-1,-4.637133181E-1,6.376296878E-1
8.059900650E-1,-3.927283287E-1,-4.716545343E-1,6.443492174E-1
8.079900980E-1,-4.079999328E-1,-4.954783022E-1,6.614534259E-1
8.099901310E-1,-4.196063876E-1,-5.101390481E-1,6.767250896E-1
8.119901640E-1,-4.214389920E-1,-5.003652573E-1,6.797794104E-1
8.139901970E-1,-4.128868580E-1,-4.374461174E-1,6.840555072E-1
8.159906630E-1,-4.037238955E-1,-4.050702453E-1,6.816120148E-1
8.179906960E-1,-3.927283287E-1,-3.610879481E-1,6.791685224E-1
8.199906960E-1,-3.566872478E-1,-2.468561381E-1,6.645077467E-1
8.219906620E-1,-3.328635395E-1,-1.808826923E-1,6.492361426E-1
8.239906280E-1,-2.846051753E-1,-3.610763699E-2,6.199145913E-1
8.259905940E-1,-2.363468111E-1,1.159978136E-1,5.844844580E-1
8.279905600E-1,-2.125230730E-1,1.874690354E-1,5.686019063E-1
8.299905260E-1,-1.709842384E-1,3.304114938E-1,5.301174521E-1
8.319904920E-1,-1.300562620E-1,4.635801315E-1,4.898003042E-1
8.339904580E-1,-9.218261391E-2,5.814771056E-1,4.427636862E-1
8.359904580E-1,-8.057618141E-2,6.401201487E-1,4.189399481E-1
8.379904580E-1,-5.430897698E-2,7.457998395E-1,3.700706959E-1
8.399913910E-1,-4.086993635E-2,7.916147709E-1,3.389165998E-1
8.419913910E-1,-2.498744242E-2,8.820227981E-1,2.839387059E-1
8.439913910E-1,-1.582446322E-2,9.198964834E-1,2.491194010E-1
8.459913910E-1,-5.528330221E-4,9.919785857E-1,1.807024777E-1
8.479913910E-1,1.349706762E-2,1.062228084E0,1.208377033E-1
8.499913910E-1,1.899485476E-2,1.098269224E0,9.762481600E-2
8.519909910E-1,2.510350756E-2,1.167296886E0,5.914030969E-2
8.539909910E-1,2.693610452E-2,1.241822481E0,2.859704569E-2
8.559909910E-1,2.449264191E-2,1.279695988E0,1.760147139E-2
8.579909910E-1,2.143831551E-2,1.355443358E0,1.718974789E-3
8.599909570E-1,1.899485476E-2,1.434855819E0,-9.887464345E-3
8.619909570E-1,1.838398911E-2,1.475783825E0,-1.294179168E-2
8.639909570E-1,1.227533724E-2,1.563748360E0,-2.210476995E-2
8.659909570E-1,1.044274122E-2,1.610785007E0,-2.149390429E-2
8.679909230E-1,1.044274122E-2,1.710356116E0,-2.332649939E-2
8.699909230E-1,1.105360687E-2,1.813592315E0,-2.882428654E-2
8.719909230E-1,1.349706762E-2,1.864294171E0,-2.760255709E-2
8.739909230E-1,3.060129285E-2,2.013956070E0,-2.699169144E-2
8.759908890E-1,4.159687087E-2,2.059160233E0,-2.882428654E-2
8.779908890E-1,5.320330709E-2,2.099477291E0,-2.638082765E-2
8.799908890E-1,7.702705264E-2,2.175224543E0,-2.027217485E-2
8.819909220E-1,1.057377160E-1,2.233867645E0,-1.294179168E-2
8.839909550E-1,1.228419468E-1,2.260134697E0,-8.054868318E-3
8.859909550E-1,1.442222297E-1,2.290678024E0,-1.335351495E-3
8.879909550E-1,1.607155949E-1,2.300451994E0,6.605897099E-3
8.899909550E-1,1.875936538E-1,2.312058449E0,1.882320270E-2
8.919909550E-1,2.126391381E-1,2.313280106E0,4.386867583E-2
8.939909550E-1,2.352411449E-1,2.296175718E0,6.769242138E-2
8.959909550E-1,2.480693161E-1,2.280904293E0,7.990972698E-2
8.979909550E-1,2.663953006E-1,2.241808891E0,1.055660620E-1
8.999909550E-1,2.737256587E-1,2.211265564E0,1.141181812E-1
9.019909550E-1,2.804451883E-1,2.120857716E0,1.416071206E-1
9.039909550E-1,2.718930542E-1,1.999295354E0,1.697069257E-1
9.059909550E-1,2.670061290E-1,1.927824140E0,1.807024777E-1
9.079909550E-1,2.511236370E-1,1.787936091E0,2.045262307E-1
9.099909550E-1,2.364628762E-1,1.649880528E0,2.197978646E-1
9.119913550E-1,2.260781676E-1,1.583907008E0,2.265173793E-1
9.139913550E-1,1.930914521E-1,1.395149708E0,2.350694984E-1
9.159913880E-1,1.930914521E-1,1.395149708E0,2.350694984E-1
9.179914210E-1,1.680459678E-1,1.281528711E0,2.405672967E-1
9.199914540E-1,1.448331028E-1,1.184401155E0,2.393455505E-1
9.219914870E-1,1.332266480E-1,1.143473148E0,2.387346923E-1
9.239915200E-1,1.087920442E-1,1.068947673E0,2.381238192E-1
9.259915530E-1,9.229868650E-2,1.012137175E0,2.356803566E-1
9.279915860E-1,8.435744047E-2,9.925894141E-1,2.344586402E-1
9.299915860E-1,6.847494096E-2,9.565483928E-1,2.289608419E-1
9.319915520E-1,5.381417647E-2,9.321137667E-1,2.320151627E-1
9.339915180E-1,3.487734869E-2,9.125661254E-1,2.338477671E-1
9.359910180E-1,2.571437322E-2,9.034031630E-1,2.332369089E-1
9.379909840E-1,1.716225781E-2,8.972944617E-1,2.344586402E-1
9.399909500E-1,5.555819720E-3,8.862988949E-1,2.338477671E-1
9.419909160E-1,-7.883216254E-3,8.838554025E-1,2.307934463E-1
9.439908820E-1,-1.154840738E-2,8.862988949E-1,2.289608419E-1
9.459908820E-1,-1.826792583E-2,8.856880665E-1,2.252956480E-1
9.479908820E-1,-2.193311602E-2,8.936292529E-1,2.191869915E-1
9.499908820E-1,-2.132225223E-2,9.009596705E-1,2.155217975E-1
9.519908820E-1,-2.254398167E-2,9.174529910E-1,2.088022977E-1
9.539908820E-1,-2.071138658E-2,9.437202215E-1,2.075805664E-1
9.559908820E-1,-1.765706018E-2,9.577701688E-1,2.039153725E-1
9.579908820E-1,-1.215927303E-2,9.864807725E-1,2.002501786E-1
9.599908820E-1,-9.715811349E-3,9.993089437E-1,1.984175891E-1
9.619908820E-1,-7.883216254E-3,1.027408838E0,2.020827830E-1
9.639909150E-1,-3.607159480E-3,1.066504121E0,2.094131559E-1
9.659909480E-1,-2.996294061E-3,1.086662769E0,2.088022977E-1
9.679909810E-1,5.803220120E-5,1.127590656E0,2.106348872E-1
9.699910140E-1,5.555819720E-3,1.172794700E0,2.143000811E-1
9.719910470E-1,7.388415281E-3,1.196007609E0,2.173544019E-1
9.739910800E-1,6.166684441E-3,1.272365689E0,2.240739316E-1
9.759910800E-1,7.388415281E-3,1.296800256E0,2.301825732E-1
9.779910800E-1,9.831875563E-3,1.323067546E0,2.338477671E-1
9.799910460E-1,7.388415281E-3,1.374380231E0,2.411781400E-1
9.819910120E-1,4.944954533E-3,1.400647402E0,2.485085279E-1
9.839909780E-1,7.388415281E-3,1.442186236E0,2.582823932E-1
9.859909440E-1,3.723223694E-3,1.477005601E0,2.698888183E-1
9.879909100E-1,2.501493320E-3,1.490444541E0,2.753866017E-1
9.899908760E-1,6.688974681E-4,1.508770585E0,2.888256609E-1
9.919908760E-1,-4.828889854E-3,1.522209644E0,3.034864068E-1
9.939908760E-1,-7.272350602E-3,1.523431420E0,3.150928319E-1
9.959912090E-1,-8.494081907E-3,1.522820473E0,3.224232197E-1
9.979912090E-1,-1.277013775E-2,1.521598697E0,3.321970701E-1
9.999912090E-1,-1.399186812E-2,1.522820473E0,3.383057117E-1
1.001991209E0,-1.399186812E-2,1.510603189E0,3.462469876E-1
1.003991209E0,-1.643532887E-2,1.503883719E0,3.505230546E-1
1.005991209E0,-1.765706018E-2,1.487390280E0,3.584642708E-1
1.007991209E0,-1.826792583E-2,1.458679557E0,3.676272631E-1
1.009991209E0,-2.132225223E-2,1.442186236E0,3.712924421E-1
1.011991209E0,-2.071138658E-2,1.401258349E0,3.804554045E-1
1.013991209E0,-2.926350012E-2,1.352999926E0,3.896183968E-1
1.015991209E0,-3.109609522E-2,1.333452225E0,3.920618594E-1
1.017991209E0,-3.353955597E-2,1.291302443E0,3.975596726E-1
1.019991209E0,-3.781561181E-2,1.252207160E0,3.963379264E-1
1.021991209E0,-4.148080572E-2,1.236324668E0,3.945053518E-1
1.023991175E0,-4.575686157E-2,1.200283527E0,3.945053518E-1
1.025990741E0,-4.514599591E-2,1.182568431E0,3.926727176E-1
1.027990741E0,-5.430897698E-2,1.144083977E0,3.926727176E-1
1.029990741E0,-6.102849171E-2,1.101323485E0,3.847314715E-1
1.031990741E0,-6.713714451E-2,1.076277971E0,3.841206133E-1
1.033990741E0,-8.240877837E-2,1.006028533E0,3.755685091E-1
1.035990741E0,-8.790656179E-2,9.852590561E-1,3.712924421E-1
1.037990741E0,-9.401521087E-2,9.644896388E-1,3.688490093E-1
1.039990774E0,-1.074542552E-1,9.272268414E-1,3.590751290E-1
1.041990774E0,-1.166172326E-1,8.850771189E-1,3.535773754E-1
1.043990774E0,-1.245584786E-1,8.679729104E-1,3.468578458E-1
1.045990774E0,-1.361649185E-1,8.300992846E-1,3.389165998E-1
1.047990774E0,-1.422735751E-1,8.105515838E-1,3.328079581E-1
1.049990774E0,-1.544908732E-1,7.793974876E-1,3.242558241E-1
1.051990774E0,-1.636538506E-1,7.488541603E-1,3.169254363E-1
1.053990774E0,-1.752603054E-1,7.256413102E-1,3.065407276E-1
1.055991440E0,-1.813689470E-1,7.122022510E-1,3.053190112E-1
1.057991440E0,-1.899210662E-1,6.871567965E-1,2.967668772E-1
1.059991440E0,-1.948079765E-1,6.767721176E-1,2.918799818E-1
1.061991440E0,-2.039709687E-1,6.529483795E-1,2.869930565E-1
1.063991440E0,-2.119121999E-1,6.321789622E-1,2.814952731E-1
1.065991440E0,-2.210751772E-1,6.224051118E-1,2.814952731E-1
1.067991440E0,-2.277947068E-1,5.998030901E-1,2.784409225E-1
1.069991440E0,-2.339033484E-1,5.912509561E-1,2.778300643E-1
1.071991473E0,-2.436771989E-1,5.759793520E-1,2.766083479E-1
1.073991506E0,-2.510075867E-1,5.662055016E-1,2.759974599E-1
1.075991539E0,-2.522293031E-1,5.625402927E-1,2.772192061E-1
1.077991572E0,-2.583379447E-1,5.607076883E-1,2.778300643E-1
1.079991605E0,-2.626140118E-1,5.649837852E-1,2.808843851E-1
1.081991638E0,-2.620031536E-1,5.668163300E-1,2.839387059E-1
1.083991671E0,-2.656683326E-1,5.790336728E-1,2.894364893E-1
1.085992104E0,-2.632248700E-1,5.918618441E-1,2.924908400E-1
1.087992070E0,-2.650575042E-1,6.034682393E-1,2.967668772E-1
1.089992036E0,-2.626140118E-1,6.181290150E-1,3.040972650E-1
1.091991802E0,-2.613922954E-1,6.285137534E-1,3.071516156E-1
1.093991768E0,-2.595596910E-1,6.553918719E-1,3.175363243E-1
1.095991734E0,-2.607814372E-1,6.645548344E-1,3.242558241E-1
1.097991700E0,-2.565053701E-1,6.724960208E-1,3.273101449E-1
1.099991666E0,-2.571162283E-1,6.847133636E-1,3.401383162E-1
1.101991666E0,-2.565053701E-1,6.914328337E-1,3.505230546E-1
1.103991666E0,-2.558945119E-1,6.963198185E-1,3.554099500E-1
1.105991666E0,-2.546727657E-1,7.048718929E-1,3.645729423E-1
1.107991666E0,-2.534510493E-1,7.146457434E-1,3.749576509E-1
1.109991666E0,-2.503966987E-1,7.231978774E-1,3.786228299E-1
1.111991666E0,-2.430663258E-1,7.384694815E-1,3.896183968E-1
1.113991666E0,-2.296273112E-1,7.738996744E-1,4.018357098E-1
1.115991166E0,-2.296273112E-1,7.738996744E-1,4.018357098E-1
1.117991166E0,-2.137447894E-1,7.983343005E-1,4.079443812E-1
1.119991199E0,-2.076361477E-1,8.117733002E-1,4.140530229E-1
1.121991232E0,-1.923645139E-1,8.417057395E-1,4.232160151E-1
1.123991265E0,-1.746494323E-1,8.667511940E-1,4.311572611E-1
1.125991298E0,-1.673190445E-1,8.765250444E-1,4.366550148E-1
1.127991331E0,-1.520474106E-1,8.899640441E-1,4.482614696E-1
1.129991364E0,-1.355540454E-1,9.064574838E-1,4.580353200E-1
1.131990430E0,-1.276127994E-1,9.095118046E-1,4.610896409E-1
1.133990396E0,-1.092868522E-1,9.284486175E-1,4.757503867E-1
1.135990362E0,-9.645868093E-2,9.308920503E-1,4.788047075E-1
1.137990328E0,-8.546310663E-2,9.376115799E-1,4.904111624E-1
1.139990294E0,-6.591541320E-2,9.394441247E-1,5.032393336E-1
1.141990260E0,-5.919589475E-2,9.370006919E-1,5.050719380E-1
1.143990226E0,-4.881118611E-2,9.296703339E-1,5.117914677E-1
1.145990192E0,-3.964820877E-2,9.186747670E-1,5.179001093E-1
1.147990192E0,-3.415042162E-2,9.143986702E-1,5.197327137E-1
1.149990192E0,-2.559830807E-2,9.040139914E-1,5.233978629E-1
1.151990392E0,-1.948965713E-2,8.954618573E-1,5.264521837E-1
1.153990392E0,-1.032667700E-2,8.862988949E-1,5.276739597E-1
1.155990392E0,-8.494081907E-3,8.808010817E-1,5.307282805E-1
1.157990392E0,1.279762713E-3,8.753032684E-1,5.288956761E-1
1.159990392E0,6.777549628E-3,8.753032684E-1,5.288956761E-1
1.161990392E0,1.044274122E-2,8.789684772E-1,5.270631313E-1
1.163990392E0,1.044274122E-2,8.801902533E-1,5.233978629E-1
1.165990425E0,1.471879799E-2,8.795793653E-1,5.179001093E-1
1.167990458E0,1.655139402E-2,8.832445741E-1,5.111805797E-1
1.169990491E0,1.716225781E-2,8.820227981E-1,5.069045424E-1
1.171990524E0,2.510350756E-2,8.844662905E-1,4.959089756E-1
1.173990557E0,2.999042906E-2,8.942401409E-1,4.794155955E-1
1.175990590E0,2.999042906E-2,8.942401409E-1,4.794155955E-1
1.177990623E0,3.854254261E-2,8.942401409E-1,4.653656781E-1
1.179990623E0,4.220773280E-2,8.997378945E-1,4.531483650E-1
1.181990589E0,4.770551994E-2,9.009596705E-1,4.452071488E-1
1.183990555E0,5.564676970E-2,9.095118046E-1,4.305463731E-1
1.185990088E0,5.992282555E-2,9.168421626E-1,4.219942689E-1
1.187990054E0,6.847494096E-2,9.290594459E-1,4.048900306E-1
1.189990020E0,7.580532134E-2,9.388332963E-1,3.896183968E-1
1.191990486E0,7.763791829E-2,9.437202215E-1,3.835097551E-1
1.193990486E0,8.863349259E-2,9.565483928E-1,3.560208082E-1
1.195990486E0,9.107694775E-2,9.589918256E-1,3.456360996E-1
1.197990486E0,9.474214166E-2,9.638788104E-1,3.358622789E-1
1.199990486E0,9.840733558E-2,9.705982804E-1,3.132602572E-1
1.201990486E0,1.014616638E-1,9.773178101E-1,2.906582355E-1
1.203990486E0,1.020725220E-1,9.803721309E-1,2.784409225E-1
1.205990486E0,1.026833951E-1,9.858699441E-1,2.558389008E-1
1.207990486E0,1.020725220E-1,9.895350933E-1,2.430107445E-1
1.209990486E0,9.657473862E-2,9.901459813E-1,2.197978646E-1
1.211990486E0,9.229868650E-2,9.907568097E-1,1.947523952E-1
1.213990486E0,8.435744047E-2,9.925894141E-1,1.721503735E-1
1.215990486E0,7.824878395E-2,9.901459813E-1,1.635982692E-1
1.217990486E0,6.786407530E-2,9.834264517E-1,1.391636431E-1
1.219990486E0,6.175542250E-2,9.779286385E-1,1.287789494E-1
1.221990486E0,4.587292299E-2,9.760960937E-1,1.073986590E-1
1.223990486E0,3.121216036E-2,9.718199968E-1,8.846183866E-2
1.225990452E0,2.449264191E-2,9.754852057E-1,7.685539871E-2
1.227990418E0,1.044274122E-2,9.693765640E-1,5.914030969E-2
1.229990418E0,-5.528330221E-4,9.675439596E-1,5.058819428E-2
1.231990418E0,-1.582446322E-2,9.651005268E-1,3.470569849E-2
1.233990418E0,-3.903734311E-2,9.626570344E-1,1.088195294E-2
1.235990484E0,-3.903734311E-2,9.626570344E-1,1.088195294E-2
1.237990484E0,-5.491984263E-2,9.651005268E-1,-7.244861918E-4
1.239990484E0,-6.591541320E-2,9.669331312E-1,-1.172006037E-2
1.241990517E0,-7.446753234E-2,9.699874520E-1,-1.477438677E-2
1.243990517E0,-8.240877837E-2,9.718199968E-1,-2.149390429E-2
1.245990950E0,-9.157175571E-2,9.736526012E-1,-2.576996014E-2
1.247990950E0,-9.645868093E-2,9.760960937E-1,-2.882428654E-2
1.249990950E0,-9.829127789E-2,9.870916605E-1,-3.126774728E-2
1.251991383E0,-9.829127789E-2,9.907568097E-1,-3.432207555E-2
1.253991383E0,-9.462608397E-2,1.010915399E0,-3.615467250E-2
1.255991383E0,-9.279348701E-2,1.018245816E0,-3.554380313E-2
1.257991383E0,-9.157175571E-2,1.026187062E0,-3.248947859E-2
1.259991383E0,-8.057618141E-2,1.036571741E0,-3.065688349E-2
1.261991383E0,-7.568925619E-2,1.043291211E0,-2.393736504E-2
1.263991383E0,-6.774801016E-2,1.046345592E0,-2.271563560E-2
1.265991383E0,-5.858502910E-2,1.050621629E0,-1.233092602E-2
1.267991383E0,-4.820032045E-2,1.045123935E0,1.108109602E-3
1.269991383E0,-4.086993635E-2,1.042680383E0,7.216762286E-3
1.271991383E0,-2.620917372E-2,1.034128308E0,2.126666345E-2
1.273991383E0,-1.154840738E-2,1.024965286E0,3.348396719E-2
1.275991216E0,-1.163698267E-3,1.019467473E0,4.142521694E-2
1.277991249E0,1.471879799E-2,1.004195809E0,5.303165317E-2
1.279991282E0,2.266004495E-2,9.932003021E-1,5.669684708E-2
1.281991315E0,3.976427391E-2,9.730417728E-1,7.013587654E-2
1.283991348E0,6.236628816E-2,9.492180347E-1,7.746626437E-2
1.285991381E0,7.030753046E-2,9.388332963E-1,8.174232394E-2
1.287991414E0,9.290954471E-2,9.143986702E-1,9.090530127E-2
1.289991414E0,1.149006933E-1,8.936292529E-1,9.701395780E-2
1.291991380E0,1.265071481E-1,8.826336861E-1,9.945741296E-2
1.293991346E0,1.607155949E-1,8.508687019E-1,1.080095321E-1
1.295991712E0,1.607155949E-1,8.508687019E-1,1.080095321E-1
1.297991678E0,1.833176166E-1,8.300992846E-1,1.110638529E-1
1.299991644E0,2.040870190E-1,8.081081510E-1,1.159507781E-1
1.301991610E0,2.132499963E-1,7.934473753E-1,1.159507781E-1
1.303991610E0,2.285216302E-1,7.671802044E-1,1.171725094E-1
1.305991610E0,2.419606596E-1,7.439672947E-1,1.171725094E-1
1.307991610E0,2.480693161E-1,7.366368771E-1,1.183942333E-1
1.309991610E0,2.615083754E-1,7.219761610E-1,1.159507781E-1
1.311991610E0,2.682278752E-1,7.152565718E-1,1.128964499E-1
1.313991576E0,2.773908377E-1,7.152565718E-1,1.055660620E-1
1.315991576E0,2.804451883E-1,7.152565718E-1,1.031226069E-1
1.317991576E0,2.816669047E-1,7.158675194E-1,1.012900099E-1
1.319991576E0,2.804451883E-1,7.207543850E-1,9.151616693E-2
1.321991576E0,2.737256587E-1,7.134240270E-1,8.296404779E-2
1.323991576E0,2.682278752E-1,7.073153853E-1,7.929886132E-2
1.325991576E0,2.541779876E-1,6.963198185E-1,6.830328703E-2
1.327991576E0,2.425715327E-1,6.841024756E-1,5.547511578E-2
1.329991576E0,2.340194285E-1,6.779938340E-1,4.936646298E-2
1.331991576E0,2.205803841E-1,6.688308716E-1,3.592742980E-2
1.333991576E0,2.065304816E-1,6.517266035E-1,1.515801065E-2
1.335991742E0,1.967566311E-1,6.462288499E-1,9.660222568E-3
1.337991742E0,1.839284599E-1,6.242376566E-1,-7.444004063E-3
1.339991742E0,1.765980870E-1,6.156855822E-1,-1.660698280E-2
1.341991742E0,1.656025052E-1,5.967487693E-1,-3.493294120E-2
1.343991742E0,1.539960802E-1,5.759793520E-1,-5.386976153E-2
1.345991742E0,1.466656923E-1,5.662055016E-1,-6.181101128E-2
1.347991742E0,1.393353045E-1,5.429925919E-1,-8.685648441E-2
1.349991742E0,1.283397377E-1,5.191689134E-1,-1.088476330E-1
1.351991775E0,1.265071481E-1,5.087841749E-1,-1.198432073E-1
1.353991775E0,1.136789694E-1,4.702996612E-1,-1.516081989E-1
1.355990841E0,1.112355068E-1,4.544171393E-1,-1.589385867E-1
1.357990841E0,1.100137755E-1,4.421998560E-1,-1.693232954E-1
1.359990841E0,1.075703129E-1,4.165435135E-1,-1.858166456E-1
1.361990841E0,1.026833951E-1,4.067696929E-1,-1.925361753E-1
1.363990841E0,1.026833951E-1,3.872219920E-1,-2.035317570E-1
1.365990841E0,1.039051190E-1,3.646199703E-1,-2.133055925E-1
1.367990841E0,1.026833951E-1,3.548461199E-1,-2.157490551E-1
1.369990841E0,1.051268503E-1,3.334658444E-1,-2.224685699E-1
1.371990841E0,1.081811860E-1,3.145290315E-1,-2.291880995E-1
1.373990874E0,1.112355068E-1,2.925378680E-1,-2.352967411E-1
1.375990874E0,1.167332903E-1,2.797096968E-1,-2.371293306E-1
1.377990874E0,1.258962750E-1,2.534424961E-1,-2.426271141E-1
1.379990874E0,1.289505959E-1,2.406143248E-1,-2.444597185E-1
1.381990874E0,1.417787671E-1,2.088493407E-1,-2.481249124E-1
1.383990874E0,1.454439610E-1,1.923559755E-1,-2.505683601E-1
1.385990907E0,1.552177966E-1,1.544823349E-1,-2.548444271E-1
1.387990940E0,1.674351096E-1,1.068348289E-1,-2.603422105E-1
1.389990973E0,1.747654825E-1,8.423282206E-2,-2.621748149E-1
1.391991006E0,1.894262582E-1,3.292014077E-2,-2.664508522E-1
1.393991039E0,2.077522129E-1,-2.694465406E-2,-2.719486654E-1
1.395991072E0,2.187477946E-1,-5.809878185E-2,-2.725595236E-1
1.397991072E0,2.395172119E-1,-1.234613657E-1,-2.798898816E-1
1.399991072E0,2.663953006E-1,-1.931000054E-1,-2.859985530E-1
1.401991038E0,2.804451883E-1,-2.315845191E-1,-2.884420156E-1
1.403991004E0,3.134319186E-1,-3.048883379E-1,-2.957724035E-1
1.405990970E0,3.287035227E-1,-3.427619934E-1,-2.988267243E-1
1.407991170E0,3.659663200E-1,-4.197310209E-1,-3.079897165E-1
1.409991136E0,4.032290876E-1,-4.991434813E-1,-3.177635372E-1
1.411991102E0,4.246093631E-1,-5.370171666E-1,-3.208178580E-1
1.413991102E0,4.930262864E-1,-6.573576331E-1,-3.379220963E-1
1.415991535E0,5.144065619E-1,-6.927877665E-1,-3.440307677E-1
1.417991535E0,5.394520164E-1,-7.343266010E-1,-3.507502675E-1
1.419991535E0,5.889321566E-1,-8.180151582E-1,-3.617458642E-1
1.421991535E0,6.353579164E-1,-8.986493349E-1,-3.721305430E-1
1.423991535E0,6.579598784E-1,-9.395773411E-1,-3.794609308E-1
1.425991535E0,7.092725635E-1,-1.025709391E0,-3.916782439E-1
1.427991535E0,7.556983829E-1,-1.110619664E0,-3.996194899E-1
1.429991535E0,7.776895165E-1,-1.153380156E0,-4.142802358E-1
1.431991568E0,8.265587091E-1,-1.238901258E0,-4.387148619E-1
1.433991601E0,8.687084317E-1,-1.327476859E0,-4.600951672E-1
1.435991634E0,8.906995654E-1,-1.374513388E0,-4.717015922E-1
1.437991667E0,9.310166836E-1,-1.462478042E0,-5.010231137E-1
1.439991700E0,9.523969889E-1,-1.506460309E0,-5.175164938E-1
1.441991733E0,9.896597266E-1,-1.590759635E0,-5.492814779E-1
1.443991766E0,1.029366016E0,-1.683000326E0,-5.859333873E-1
1.445991766E0,1.047691941E0,-1.727593541E0,-6.060919166E-1
1.447991732E0,1.077013373E0,-1.816168904E0,-6.421329975E-1
1.449991698E0,1.108778477E0,-1.901079178E0,-6.861153245E-1
1.451991664E0,1.122217536E0,-1.945672393E0,-7.074955702E-1
1.453991630E0,1.149095535E0,-2.033026218E0,-7.545322180E-1
1.455991596E0,1.159480214E0,-2.080062628E0,-7.753016353E-1
1.457991562E0,1.181471467E0,-2.170470715E0,-8.260034323E-1
1.459991528E0,1.195521355E0,-2.257213593E0,-8.797596097E-1
1.461991528E0,1.203462481E0,-2.303639412E0,-9.054158926E-1
1.463991528E0,1.213236451E0,-2.390382290E0,-9.652807117E-1
1.465991528E0,1.213236451E0,-2.476514339E0,-1.023923755E0
1.467991294E0,1.213236451E0,-2.516831398E0,-1.056299686E0
1.469991294E0,1.208960295E0,-2.599909067E0,-1.119218707E0
1.471991294E0,1.198575735E0,-2.676267385E0,-1.186413884E0
1.473991294E0,1.182693124E0,-2.745294809E0,-1.254220009E0
1.475990360E0,1.175362825E0,-2.781335831E0,-1.288428426E0
1.477990360E0,1.166810632E0,-2.811268568E0,-1.320193410E0
1.479990360E0,1.147873759E0,-2.870522499E0,-1.392275572E0
1.481990360E0,1.124660850E0,-2.913893700E0,-1.457027197E0
1.483990360E0,1.112443566E0,-2.929776430E0,-1.491235733E0
1.485990360E0,1.079456925E0,-2.945658684E0,-1.552322268E0
1.487990360E0,1.044637561E0,-2.945047855E0,-1.611576200E0
1.489990360E0,1.022646427E0,-2.932830572E0,-1.643341184E0
1.491990326E0,9.811075926E-1,-2.904730797E0,-1.694653749E0
1.493990326E0,9.297949076E-1,-2.858916044E0,-1.745966434E0
1.495990326E0,9.041386247E-1,-2.830816269E0,-1.767346859E0
1.497990326E0,8.479389548E-1,-2.766675234E0,-1.806442142E0
1.499990326E0,8.155630827E-1,-2.728801489E0,-1.825989842E0
1.501990326E0,7.508113980E-1,-2.648167372E0,-1.853478789E0
1.503990326E0,6.854488254E-1,-2.568754911E0,-1.865085244E0
1.505990326E0,6.512403488E-1,-2.525994301E0,-1.868139505E0
1.507990359E0,5.883212686E-1,-2.431921244E0,-1.853478789E0
1.509990359E0,5.333433747E-1,-2.329295635E0,-1.824157238E0
1.511990459E0,5.095196366E-1,-2.276150465E0,-1.800333500E0
1.513990459E0,4.514874518E-1,-2.114881992E0,-1.709925413E0
1.515990459E0,4.337723553E-1,-2.061736822E0,-1.670830131E0
1.517990459E0,4.172790051E-1,-2.006758928E0,-1.630512953E0
1.519990459E0,3.940660954E-1,-1.904744387E0,-1.538883209E0
1.521990459E0,3.818488121E-1,-1.857707739E0,-1.490624905E0
1.523990459E0,3.592467904E-1,-1.763023734E0,-1.388610363E0
1.525990459E0,3.519164026E-1,-1.676891685E0,-1.289039254E0
1.527990459E0,3.482512236E-1,-1.631076813E0,-1.238948345E0
1.529990459E0,3.488620818E-1,-1.551053524E0,-1.140599012E0
1.531990459E0,3.525272906E-1,-1.491799593E0,-1.037973642E0
1.533990459E0,3.690206409E-1,-1.426436901E0,-9.402352571E-1
1.535991392E0,3.861248791E-1,-1.382454634E0,-8.938094378E-1
1.537991392E0,4.343832135E-1,-1.277385831E0,-8.088992238E-1
1.539991392E0,4.649264812E-1,-1.216299295E0,-7.636951804E-1
1.541991425E0,5.339542627E-1,-1.077632904E0,-6.855044365E-1
1.543991458E0,5.693844557E-1,-1.007383347E0,-6.451873183E-1
1.545991491E0,6.487969160E-1,-8.607757092E-1,-5.816573501E-1
1.547991524E0,7.294311523E-1,-7.062268257E-1,-5.291229486E-1
1.549991557E0,7.715808153E-1,-6.317012310E-1,-5.144621730E-1
1.551991590E0,8.454955220E-1,-4.924239814E-1,-4.906384349E-1
1.553991590E0,9.126907587E-1,-3.788030446E-1,-4.869732261E-1
1.555991590E0,9.462882876E-1,-3.262686133E-1,-4.918601513E-1
1.557991556E0,1.009818316E0,-2.413583547E-1,-5.132403970E-1
1.559991522E0,1.073959112E0,-1.717197150E-1,-5.443945527E-1
1.561991488E0,1.103280663E0,-1.527829021E-1,-5.651640296E-1
1.563991454E0,1.168643236E0,-1.295700222E-1,-6.036484838E-1
1.565991420E0,1.196743011E0,-1.234613657E-1,-6.250287294E-1
1.567991386E0,1.255996943E0,-1.252939552E-1,-6.720653772E-1
1.569991386E0,1.314029217E0,-1.387329996E-1,-7.129933238E-1
1.571991286E0,1.340296388E0,-1.485068351E-1,-7.307084203E-1
1.573991286E0,1.418487191E0,-1.979869306E-1,-7.673603296E-1
1.575991286E0,1.441699982E0,-2.211997956E-1,-7.691929936E-1
1.577991286E0,1.464912891E0,-2.450235486E-1,-7.716364264E-1
1.579991286E0,1.500954032E0,-2.975579500E-1,-7.630842924E-1
1.581991286E0,1.526610255E0,-3.568118811E-1,-7.404822707E-1
1.583991286E0,1.536995053E0,-3.885768652E-1,-7.221562862E-1
1.585991286E0,1.548601389E0,-4.563829303E-1,-6.855044365E-1
1.587991319E0,1.552266598E0,-4.936456978E-1,-6.647349596E-1
1.589991352E0,1.546768785E0,-5.608409047E-1,-6.189200878E-1
1.591991385E0,1.535773277E0,-6.231490970E-1,-5.792138577E-1
1.593991418E0,1.511949420E0,-6.769052744E-1,-5.364533067E-1
1.595991284E0,1.501564860E0,-6.952312589E-1,-5.156838894E-1
1.597991317E0,1.474075913E0,-7.276071310E-1,-4.735341668E-1
1.599991350E0,1.456971645E0,-7.355483174E-1,-4.497104585E-1
1.601991350E0,1.423374057E0,-7.428787351E-1,-4.100041986E-1
1.603991316E0,1.386722207E0,-7.428787351E-1,-3.684653640E-1
1.605991282E0,1.368396282E0,-7.404352427E-1,-3.483068347E-1
1.607991248E0,1.328689933E0,-7.312722802E-1,-3.073788583E-1
1.609991214E0,1.306698680E0,-7.263853550E-1,-2.847768366E-1
1.611991180E0,1.260273099E0,-7.172223926E-1,-2.475140393E-1
1.613991146E0,1.210182071E0,-7.166115046E-1,-2.078077942E-1
1.615991112E0,1.186969280E0,-7.190549970E-1,-1.888709813E-1
1.617991112E0,1.129547834E0,-7.233310342E-1,-1.516081989E-1
1.619991112E0,1.074569941E0,-7.324939966E-1,-1.112910956E-1
1.621991112E0,1.048913717E0,-7.367700934E-1,-9.601946175E-2
1.623991112E0,9.914923310E-1,-7.416569591E-1,-6.120014563E-2
1.625991112E0,9.383470416E-1,-7.483765483E-1,-2.638082765E-2
1.627991112E0,9.108580947E-1,-7.495982647E-1,-6.833138410E-3
1.629991112E0,8.607671261E-1,-7.587612271E-1,2.004493214E-2
1.631991112E0,8.277804852E-1,-7.654806972E-1,2.981877513E-2
1.633991112E0,7.440919280E-1,-7.789198160E-1,4.386867583E-2
1.635991145E0,7.135486603E-1,-7.850284576E-1,4.814473167E-2
1.637991178E0,6.811727881E-1,-7.972457409E-1,5.058819428E-2
1.639991211E0,6.164211035E-1,-8.259564042E-1,5.852944031E-2
1.641991244E0,5.528910756E-1,-8.558887839E-1,6.524895877E-2
1.643991277E0,5.192935467E-1,-8.705495596E-1,7.074674964E-2
1.645991310E0,4.374375641E-1,-9.010928273E-1,7.441194355E-2
1.647991310E0,3.568033576E-1,-9.279708862E-1,6.585982442E-2
1.649991310E0,3.140427470E-1,-9.377447367E-1,6.402722746E-2
1.651991276E0,2.230238467E-1,-9.615684748E-1,5.364252254E-2
1.653991242E0,1.008507982E-1,-9.707314372E-1,3.653829172E-2
1.655990442E0,1.008507982E-1,-9.707314372E-1,3.653829172E-2
1.657990408E0,2.082744986E-2,-9.658445716E-1,2.920791134E-2
1.659990374E0,-1.704619452E-2,-9.579032660E-1,2.798618190E-2
1.661990340E0,-9.035002440E-2,-9.414098859E-1,2.309925854E-2
1.663990340E0,-1.679299176E-1,-9.236948490E-1,1.760147139E-2
1.665990340E0,-2.045818120E-1,-9.145318866E-1,1.821233518E-2
1.667990340E0,-2.760530710E-1,-8.839885592E-1,1.637974009E-2
1.669990340E0,-3.395830393E-1,-8.626083136E-1,1.637974009E-2
1.671990340E0,-3.701263070E-1,-8.473366499E-1,1.760147139E-2
1.673990340E0,-4.330454469E-1,-8.155717254E-1,1.393627934E-2
1.675990340E0,-4.629778266E-1,-7.996892333E-1,1.760147139E-2
1.677990340E0,-5.185666084E-1,-7.667024732E-1,1.943406649E-2
1.679990340E0,-5.729336143E-1,-7.373809218E-1,2.859704569E-2
1.681990340E0,-5.949247479E-1,-7.227201462E-1,3.165137023E-2
1.683990340E0,-6.437939405E-1,-6.879009008E-1,4.875560105E-2
1.685990340E0,-6.828892827E-1,-6.549141407E-1,7.441194355E-2
1.687990340E0,-7.036587596E-1,-6.378098726E-1,9.029443562E-2
1.689990340E0,-7.354236841E-1,-6.072666645E-1,1.165616363E-1
1.691990340E0,-7.732973695E-1,-5.645060539E-1,1.263354868E-1
1.693990340E0,-8.056732416E-1,-5.229672194E-1,1.306115389E-1
1.695990373E0,-8.215557337E-1,-4.991434813E-1,1.257246137E-1
1.697990373E0,-8.563750386E-1,-4.631024599E-1,1.202268302E-1
1.699990373E0,-8.710358143E-1,-4.459981918E-1,1.208377033E-1
1.701990373E0,-8.997464776E-1,-4.148440957E-1,1.269463450E-1
1.703990373E0,-9.101311564E-1,-4.062919617E-1,1.330550015E-1
1.705990373E0,-9.278462529E-1,-3.946855366E-1,1.513809711E-1
1.707990373E0,-9.400635958E-1,-3.843007982E-1,1.703177840E-1
1.709990373E0,-9.455613494E-1,-3.812464774E-1,1.831459552E-1
1.711990406E0,-9.516700506E-1,-3.763595819E-1,2.112457603E-1
1.713990406E0,-9.516700506E-1,-3.690291941E-1,2.564497590E-1
1.715991306E0,-9.516700506E-1,-3.690291941E-1,2.564497590E-1
1.717991306E0,-9.504482746E-1,-3.665857315E-1,2.967668772E-1
1.719991306E0,-9.418962002E-1,-3.665857315E-1,3.346405327E-1
1.721991306E0,-9.418962002E-1,-3.684183359E-1,3.554099500E-1
1.723991306E0,-9.357875586E-1,-3.849116862E-1,3.975596726E-1
1.725991306E0,-9.315114617E-1,-3.934638202E-1,4.201616943E-1
1.727991306E0,-9.223484993E-1,-4.197310209E-1,4.647548199E-1
1.729991306E0,-9.192941785E-1,-4.539394677E-1,5.069045424E-1
1.731990772E0,-9.131854773E-1,-4.716545343E-1,5.288956761E-1
1.733990772E0,-8.991356492E-1,-5.357953906E-1,5.924256444E-1
1.735990772E0,-8.942486644E-1,-5.571756363E-1,6.144168377E-1
1.737990772E0,-8.887509108E-1,-5.779451132E-1,6.382405162E-1
1.739990772E0,-8.759227395E-1,-6.158187389E-1,6.846663356E-1
1.741990772E0,-8.643162847E-1,-6.341447234E-1,7.280377746E-1
1.743990272E0,-8.582076430E-1,-6.396425366E-1,7.481963038E-1
1.745990305E0,-8.429360390E-1,-6.378098726E-1,7.897351980E-1
1.747990338E0,-8.349947333E-1,-6.323121190E-1,8.080611229E-1
1.749990371E0,-8.258317709E-1,-6.145970225E-1,8.508216739E-1
1.751990404E0,-8.142253160E-1,-5.852755308E-1,8.911387920E-1
1.753990437E0,-8.075057864E-1,-5.431258082E-1,9.296233058E-1
1.755990403E0,-8.044514656E-1,-5.168585777E-1,9.455057979E-1
1.757990403E0,-8.001754284E-1,-4.612698257E-1,9.754381776E-1
1.759990369E0,-8.013971448E-1,-4.276722372E-1,9.919314981E-1
1.761990335E0,-8.032297492E-1,-3.616988361E-1,1.013311863E0
1.763990301E0,-8.026189208E-1,-2.926710546E-1,1.026139975E0
1.765990267E0,-8.068949580E-1,-2.547973990E-1,1.029805183E0
1.767990233E0,-8.142253160E-1,-1.857696176E-1,1.033470392E0
1.769990199E0,-8.136144876E-1,-1.533937752E-1,1.030416012E0
1.771990165E0,-8.209449053E-1,-9.536156803E-2,1.027972579E0
1.773990165E0,-8.258317709E-1,-3.671849892E-2,1.010868311E0
1.775989765E0,-8.258317709E-1,-3.671849892E-2,1.010868311E0
1.777989765E0,-8.288860917E-1,-2.144686691E-2,9.949858189E-1
1.779989765E0,-8.282752633E-1,-1.717081107E-2,9.705512524E-1
1.781989765E0,-8.301078677E-1,-1.961427368E-2,9.571122527E-1
1.783989765E0,-8.301078677E-1,-3.610763699E-2,9.216820002E-1
1.785989765E0,-8.282752633E-1,-6.787262857E-2,8.838084340E-1
1.787989765E0,-8.307186961E-1,-8.619858325E-2,8.599846363E-1
1.789989765E0,-8.313295841E-1,-1.307917535E-1,8.129479885E-1
1.791990298E0,-8.288860917E-1,-1.558372229E-1,7.879025340E-1
1.793990298E0,-8.307186961E-1,-2.315845191E-1,7.023814321E-1
1.795990298E0,-8.313295841E-1,-2.596843243E-1,6.718381643E-1
1.797990298E0,-8.313295841E-1,-2.847298086E-1,6.400731802E-1
1.799990298E0,-8.282752633E-1,-3.360424936E-1,5.795974731E-1
1.801990298E0,-8.197231293E-1,-3.806356192E-1,5.197327137E-1
1.803990798E0,-8.178905249E-1,-3.995724618E-1,4.879676998E-1
1.805990764E0,-8.087275624E-1,-4.270614088E-1,4.274920523E-1
1.807990764E0,-7.891798615E-1,-4.411112964E-1,3.682381213E-1
1.809990764E0,-7.818495035E-1,-4.459981918E-1,3.395274580E-1
1.811990764E0,-7.568039894E-1,-4.374461174E-1,2.839387059E-1
1.813990764E0,-7.213738561E-1,-4.246179163E-1,2.277391255E-1
1.815990764E0,-7.036587596E-1,-4.142332077E-1,1.959741265E-1
1.817990764E0,-6.505134106E-1,-3.928529322E-1,1.300006658E-1
1.819990797E0,-6.199702024E-1,-3.818573654E-1,1.000682786E-1
1.821990797E0,-5.503315330E-1,-3.519249558E-1,3.653829172E-2
1.823990797E0,-4.623669386E-1,-3.152730465E-1,-2.882428654E-2
1.825990797E0,-4.141086042E-1,-2.914493084E-1,-6.058927998E-2
1.827990797E0,-3.102615178E-1,-2.419692278E-1,-1.283953190E-1
1.829990797E0,-1.893101931E-1,-1.900456697E-1,-1.943687797E-1
1.831990797E0,-1.251693368E-1,-1.643893272E-1,-2.279663533E-1
1.833990797E0,8.313570172E-2,-1.197961718E-1,-3.244830668E-1
1.835990330E0,8.313570172E-2,-1.197961718E-1,-3.244830668E-1
1.837990330E0,2.401280701E-1,-1.252939552E-1,-3.819043934E-1
1.839989830E0,4.013964832E-1,-1.540046185E-1,-4.264975488E-1
1.841989830E0,4.832524359E-1,-1.821044385E-1,-4.454343915E-1
1.843989830E0,6.542947292E-1,-2.474670112E-1,-4.747559130E-1
1.845989830E0,8.204500675E-1,-3.360424936E-1,-4.967470765E-1
1.847989863E0,9.010843039E-1,-3.794139028E-1,-5.052991509E-1
1.849989863E0,1.064185262E0,-4.673784971E-1,-5.217925310E-1
1.851989863E0,1.212625504E0,-5.394605994E-1,-5.315663815E-1
1.853989896E0,1.343350649E0,-6.084883213E-1,-5.413402319E-1
1.855989929E0,1.397106767E0,-6.457511783E-1,-5.443945527E-1
1.857989962E0,1.445976019E0,-6.909552217E-1,-5.474488735E-1
1.859989995E0,1.525999427E0,-7.972457409E-1,-5.413402319E-1
1.861990028E0,1.583420753E0,-9.133101106E-1,-5.248468518E-1
1.863990061E0,1.600525022E0,-9.750075340E-1,-5.132403970E-1
1.865990094E0,1.618850946E0,-1.095958829E0,-4.820863008E-1
1.867990094E0,1.607244492E0,-1.210801482E0,-4.423800707E-1
1.869990060E0,1.592583776E0,-1.257838130E0,-4.209997952E-1
1.871990026E0,1.540049314E0,-1.330531120E0,-3.684653640E-1
1.873989992E0,1.458193302E0,-1.360463500E0,-3.116548955E-1
1.875990192E0,1.403826475E0,-1.356187344E0,-2.792790532E-1
1.877990158E0,1.280431628E0,-1.308539867E0,-2.126947343E-1
1.879990124E0,1.204073429E0,-1.267001152E0,-1.729884744E-1
1.881990124E0,1.040361524E0,-1.156434417E0,-8.929994702E-2
1.883990124E0,8.564910889E-1,-1.025098562E0,1.108109602E-3
1.885990124E0,7.587527037E-1,-9.554598331E-1,4.936646298E-2
1.887990124E0,5.608323216E-1,-8.265672326E-1,1.428288370E-1
1.889990124E0,3.629119992E-1,-7.233310342E-1,2.350694984E-1
1.891990124E0,2.651735544E-1,-6.854574084E-1,2.772192061E-1
1.893990124E0,-9.104945697E-3,-6.268143058E-1,4.055009186E-1
1.895991024E0,-9.523694962E-2,-6.292577982E-1,4.421527982E-1
1.897991024E0,-1.777037531E-1,-6.433076859E-1,4.794155955E-1
1.899991524E0,-3.218679428E-1,-7.080593705E-1,5.405021310E-1
1.901991557E0,-3.878414035E-1,-7.502090931E-1,5.637150407E-1
1.903991590E0,-4.984080195E-1,-8.534452915E-1,6.046429276E-1
1.905991623E0,-5.827074051E-1,-9.860031009E-1,6.278558373E-1
1.907991623E0,-6.126398444E-1,-1.055030942E0,6.345753670E-1
1.909991656E0,-6.517351866E-1,-1.191864610E0,6.419057846E-1
1.911991689E0,-6.651741862E-1,-1.330531120E0,6.467926502E-1
1.913991689E0,-6.517351866E-1,-1.455147624E0,6.461818218E-1
1.915991189E0,-6.370744109E-1,-1.515012503E0,6.412948370E-1
1.917991155E0,-5.967573524E-1,-1.622524619E0,6.229689121E-1
1.919991121E0,-5.668249130E-1,-1.668950438E0,6.131950617E-1
1.921991087E0,-5.069600940E-1,-1.744086862E0,5.905930996E-1
1.923991053E0,-4.764168561E-1,-1.774630070E0,5.759323239E-1
1.925991019E0,-4.141086042E-1,-1.813725471E0,5.380586386E-1
1.927990985E0,-3.505786061E-1,-1.827164531E0,4.934654832E-1
1.929990985E0,-3.194245100E-1,-1.824110270E0,4.684199989E-1
1.931990985E0,-2.638357580E-1,-1.811282039E0,4.061117470E-1
1.933990985E0,-2.167991400E-1,-1.777073622E0,3.395274580E-1
1.935990385E0,-1.960297078E-1,-1.753860712E0,3.004320562E-1
1.937990385E0,-1.636538506E-1,-1.700715423E0,2.259065211E-1
1.939990385E0,-1.447170228E-1,-1.643294096E0,1.434397101E-1
1.941990385E0,-1.392192394E-1,-1.610918164E0,1.012900099E-1
1.943990385E0,-1.410518289E-1,-1.551664352E0,1.943406649E-2
1.945990385E0,-1.526582837E-1,-1.499740720E0,-1.966130920E-2
1.947990418E0,-1.648755819E-1,-1.480803967E0,-1.015172526E-1
1.949990451E0,-2.015274912E-1,-1.458201885E0,-1.711558849E-1
1.951990484E0,-2.265729606E-1,-1.452704072E0,-2.029208839E-1
1.953990517E0,-3.145375550E-1,-1.451482415E0,-3.012701869E-1
1.955991217E0,-3.456917107E-1,-1.448428154E0,-3.293699920E-1
1.957991250E0,-3.823435903E-1,-1.438043356E0,-3.580806553E-1
1.959991283E0,-4.544257224E-1,-1.400169730E0,-4.124476612E-1
1.961991283E0,-5.283403993E-1,-1.329920173E0,-4.631494880E-1
1.963991249E0,-5.637705922E-1,-1.279829264E0,-4.869732261E-1
1.965991215E0,-6.291331649E-1,-1.160099745E0,-5.260686278E-1
1.967991181E0,-6.883870959E-1,-1.009215951E0,-5.608879328E-1
1.969991147E0,-7.170977592E-1,-9.255273938E-1,-5.737160444E-1
1.971991113E0,-7.641344070E-1,-7.526525855E-1,-5.981506705E-1
1.973991079E0,-7.989537120E-1,-5.736690760E-1,-6.176983714E-1
1.975991112E0,-8.117818832E-1,-4.850935936E-1,-6.262505054E-1
1.977991112E0,-8.282752633E-1,-3.219925463E-1,-6.384677887E-1
1.979991112E0,-8.343839049E-1,-2.486887425E-1,-6.403003931E-1
1.981991112E0,-8.331621885E-1,-1.136875227E-1,-6.445764899E-1
1.983991112E0,-8.264425993E-1,5.442809197E-4,-6.427438259E-1
1.985991112E0,-8.172796369E-1,5.124609917E-2,-6.409112811E-1
1.987991112E0,-7.934559584E-1,1.343237758E-1,-6.329700351E-1
1.989991112E0,-7.629126310E-1,1.911342293E-1,-6.170875430E-1
1.991991112E0,-7.458084226E-1,2.143471241E-1,-6.073136330E-1
1.993991112E0,-7.067130804E-1,2.412251830E-1,-5.895985961E-1
1.995991045E0,-6.865544915E-1,2.473338544E-1,-5.779921412E-1
1.997991045E0,-6.382961273E-1,2.387817204E-1,-5.535575747E-1
1.999991045E0,-5.918703675E-1,2.204557657E-1,-5.224033594E-1
2.001991045E0,-5.674358010E-1,2.051841468E-1,-5.089643598E-1
2.003991045E0,-5.161231160E-1,1.648670286E-1,-4.753668010E-1
2.005991045E0,-4.666430056E-1,1.166086793E-1,-4.411583245E-1
2.007990378E0,-4.415975213E-1,8.911973983E-2,-4.228323698E-1
2.009990378E0,-3.921174705E-1,3.169840947E-2,-3.837369978E-1
2.011990378E0,-3.444699645E-1,-2.389032952E-2,-3.403655589E-1
2.013990378E0,-2.907138467E-1,-8.253339678E-2,-2.939397991E-1
2.015989711E0,-2.681118250E-1,-1.112440601E-1,-2.719486654E-1
2.017989711E0,-2.442880720E-1,-1.393438578E-1,-2.542335689E-1
2.019989711E0,-2.015274912E-1,-1.943217367E-1,-2.126947343E-1
2.021989711E0,-1.593777984E-1,-2.499104738E-1,-1.760428101E-1
2.023989744E0,-1.410518289E-1,-2.792319953E-1,-1.589385867E-1
2.025989744E0,-1.013455987E-1,-3.342098594E-1,-1.283953190E-1
2.027989744E0,-6.163935736E-2,-3.904094994E-1,-1.009063870E-1
2.029989744E0,-4.453513026E-2,-4.191201329E-1,-9.052167833E-2
2.031989744E0,-4.828889854E-3,-4.765414596E-1,-6.853052229E-2
2.033989744E0,3.548821807E-2,-5.309085250E-1,-4.653937742E-2
2.035990177E0,5.381417647E-2,-5.522887707E-1,-3.737640008E-2
2.037990177E0,8.863349259E-2,-5.938276052E-1,-1.110919565E-2
2.039990177E0,1.081811860E-1,-6.145970225E-1,2.940705279E-3
2.041990177E0,1.387244463E-1,-6.445294023E-1,3.837088868E-2
2.043990177E0,1.698785722E-1,-6.762944460E-1,7.502280176E-2
2.045990177E0,1.857610643E-1,-6.915660501E-1,9.457049519E-2
2.047989743E0,2.175260633E-1,-7.239419222E-1,1.373310536E-1
2.049989743E0,2.456258535E-1,-7.557069063E-1,1.758155674E-1
2.051989743E0,2.645626962E-1,-7.734220028E-1,1.959741265E-1
2.053989743E0,3.024363518E-1,-8.235129118E-1,2.540063262E-1
2.055989743E0,3.164862394E-1,-8.320650458E-1,2.753866017E-1
2.057989776E0,3.305361271E-1,-8.332868218E-1,2.924908400E-1
2.059989809E0,3.623011112E-1,-8.235129118E-1,3.230340779E-1
2.061989842E0,3.787944913E-1,-8.137390614E-1,3.425817788E-1
2.063989875E0,4.062834084E-1,-7.752546072E-1,3.883966804E-1
2.065989908E0,4.282745719E-1,-7.160006762E-1,4.439854026E-1
2.067990574E0,4.398810267E-1,-6.787378788E-1,4.720852077E-1
2.069990574E0,4.563743472E-1,-5.919950008E-1,5.301174521E-1
2.071990540E0,4.624830186E-1,-4.820392728E-1,5.942582488E-1
2.073990506E0,4.557635188E-1,-3.665857315E-1,6.529012918E-1
2.075990272E0,4.441570640E-1,-3.024448752E-1,6.803902388E-1
2.077990238E0,4.148355424E-1,-1.680545211E-1,7.317029238E-1
2.079990204E0,3.952878416E-1,-1.020810753E-1,7.536941171E-1
2.081990170E0,3.543598652E-1,4.208311811E-2,7.934003472E-1
2.083990136E0,3.280926943E-1,1.184412763E-1,8.062285185E-1
2.085990136E0,2.731148005E-1,2.754336596E-1,8.215001225E-1
2.087990136E0,2.138608694E-1,4.336477220E-1,8.282196522E-1
2.089990136E0,1.857610643E-1,5.075624585E-1,8.269979358E-1
2.091990136E0,1.252854019E-1,6.443962455E-1,8.208892941E-1
2.093990136E0,6.603147835E-2,7.616823912E-1,8.123371601E-1
2.095990136E0,3.854254261E-2,8.117733002E-1,8.037850261E-1
2.097990136E0,-2.193311602E-2,8.942401409E-1,7.854591012E-1
2.099990136E0,-7.385665923E-2,9.547158480E-1,7.610244751E-1
2.101990136E0,-1.025673300E-1,9.852590561E-1,7.530832291E-1
2.103990136E0,-1.532691568E-1,1.033517480E0,7.329246998E-1
2.105990136E0,-1.764820218E-1,1.052454233E0,7.249833941E-1
2.107990569E0,-2.210751772E-1,1.085440874E0,7.103226185E-1
2.109990569E0,-2.613922954E-1,1.108653784E0,6.981053352E-1
2.111990569E0,-2.772747874E-1,1.122092843E0,6.919966936E-1
2.113990569E0,-3.310309350E-1,1.137975335E0,6.864988804E-1
2.115990569E0,-3.463025391E-1,1.141640544E0,6.846663356E-1
2.117990535E0,-3.579089940E-1,1.141029716E0,6.828337312E-1
2.119990535E0,-3.811218739E-1,1.150192618E0,6.816120148E-1
2.121990535E0,-3.921174705E-1,1.168518662E0,6.742815971E-1
2.123990535E0,-3.957826495E-1,1.185011983E0,6.724490523E-1
2.125990535E0,-3.921174705E-1,1.217387795E0,6.657294631E-1
2.127990535E0,-3.902848363E-1,1.239379048E0,6.626751423E-1
2.129990535E0,-3.774566948E-1,1.290080786E0,6.559556127E-1
2.131990568E0,-3.609633148E-1,1.347502232E0,6.443492174E-1
2.133990568E0,-3.414156437E-1,1.407977819E0,6.333536506E-1
2.135990568E0,-3.310309350E-1,1.439742804E0,6.278558373E-1
2.137990568E0,-3.108723760E-1,1.502661824E0,6.193037033E-1
2.139990568E0,-3.017094135E-1,1.536870360E0,6.168602705E-1
2.141990568E0,-2.839942873E-1,1.598567724E0,6.058647037E-1
2.143990568E0,-2.638357580E-1,1.660265088E0,5.991451740E-1
2.145990568E0,-2.589488328E-1,1.693251848E0,5.924256444E-1
2.147990501E0,-2.479532659E-1,1.749451518E0,5.857061744E-1
2.149990501E0,-2.461206615E-1,1.772053480E0,5.857061744E-1
2.151991934E0,-2.485641241E-1,1.814203262E0,5.783758163E-1
2.153991934E0,-2.565053701E-1,1.852687716E0,5.759323239E-1
2.155992600E0,-2.601705492E-1,1.869791865E0,5.728780031E-1
2.157992600E0,-2.754422128E-1,1.897891760E0,5.710453987E-1
2.159992600E0,-2.913246751E-1,1.928434968E0,5.692127943E-1
2.161992600E0,-2.998768091E-1,1.941263199E0,5.673801899E-1
2.163992600E0,-3.127049804E-1,1.971195579E0,5.667693615E-1
2.165992633E0,-3.291983306E-1,1.990743279E0,5.673801899E-1
2.167992666E0,-3.395830393E-1,1.998073578E0,5.698236823E-1
2.169992699E0,-3.597415984E-1,1.993186712E0,5.740997195E-1
2.171992732E0,-3.701263070E-1,1.988299847E0,5.759323239E-1
2.173992765E0,-4.025021791E-1,1.962643385E0,5.850952864E-1
2.175993631E0,-4.116651416E-1,1.954091311E0,5.875387788E-1
2.177993664E0,-4.202172458E-1,1.947982669E0,5.930365324E-1
2.179993664E0,-4.312128425E-1,1.933932781E0,5.960908532E-1
2.181993630E0,-4.403758347E-1,1.926602364E0,6.040320992E-1
2.183993596E0,-4.440410137E-1,1.922937274E0,6.083081961E-1
2.185993562E0,-4.477061927E-1,1.910719872E0,6.168602705E-1
2.187993528E0,-4.525931180E-1,1.892393947E0,6.229689121E-1
2.189993494E0,-4.544257224E-1,1.881398320E0,6.260232329E-1
2.191993460E0,-4.580909014E-1,1.852076769E0,6.382405162E-1
2.193993460E0,-4.544257224E-1,1.808705449E0,6.504578590E-1
2.195994126E0,-4.544257224E-1,1.808705449E0,6.504578590E-1
2.197994126E0,-4.525931180E-1,1.793433666E0,6.620643139E-1
2.199994126E0,-4.483170509E-1,1.786714196E0,6.638969183E-1
2.201994126E0,-4.373214841E-1,1.779994726E0,6.681729555E-1
2.203994126E0,-4.251042008E-1,1.772664309E0,6.761142015E-1
2.205994126E0,-4.189954996E-1,1.766555667E0,6.773359179E-1
2.207994192E0,-4.073891044E-1,1.744564533E0,6.871098280E-1
2.209994192E0,-3.945609033E-1,1.728071213E0,6.968836188E-1
2.211992758E0,-3.890631497E-1,1.719519019E0,6.993271112E-1
2.213992791E0,-3.811218739E-1,1.673093319E0,7.103226185E-1
2.215992157E0,-3.811218739E-1,1.647436976E0,7.139878273E-1
2.217992190E0,-3.799001575E-1,1.624835014E0,7.158204317E-1
2.219992223E0,-3.878414035E-1,1.568635345E0,7.176530361E-1
2.221992256E0,-3.963935375E-1,1.544200778E0,7.152096033E-1
2.223992289E0,-4.043347538E-1,1.478838086E0,7.097117901E-1
2.225992289E0,-4.226607084E-1,1.405534267E0,7.066574693E-1
2.227992289E0,-4.342671633E-1,1.371325970E0,7.042139769E-1
2.229992255E0,-4.525931180E-1,1.310239434E0,6.895532012E-1
2.231992221E0,-4.703081846E-1,1.257094145E0,6.742815971E-1
2.233992187E0,-4.898558855E-1,1.202727079E0,6.596208215E-1
2.235991320E0,-5.002406240E-1,1.175238132E0,6.504578590E-1
2.237991286E0,-5.210099816E-1,1.116595149E0,6.370188594E-1
2.239991252E0,-5.332273841E-1,1.087884426E0,6.296885014E-1
2.241991252E0,-5.533858538E-1,1.039626122E0,6.150277257E-1
2.243991252E0,-5.631597042E-1,1.020078421E0,6.083081961E-1
2.245991252E0,-5.784313083E-1,9.864807725E-1,5.918148160E-1
2.247991252E0,-5.955355763E-1,9.718199968E-1,5.740997195E-1
2.249991252E0,-6.016442180E-1,9.644896388E-1,5.655475855E-1
2.251991252E0,-6.193593144E-1,9.516614676E-1,5.490542650E-1
2.253991252E0,-6.425722241E-1,9.296703339E-1,5.276739597E-1
2.255990985E0,-6.425722241E-1,9.296703339E-1,5.276739597E-1
2.257990985E0,-6.596764326E-1,9.174529910E-1,5.160675049E-1
2.259990985E0,-6.773915291E-1,9.052357078E-1,5.026285052E-1
2.261990985E0,-6.889979839E-1,8.948510289E-1,4.965198338E-1
2.263991518E0,-7.054913044E-1,8.850771189E-1,4.800264537E-1
2.265991518E0,-7.183195353E-1,8.808010817E-1,4.720852077E-1
2.267991518E0,-7.354236841E-1,8.667511940E-1,4.568135738E-1
2.269991518E0,-7.598583102E-1,8.539230227E-1,4.372659028E-1
2.271991518E0,-7.714647651E-1,8.441491723E-1,4.299355149E-1
2.273991484E0,-8.172796369E-1,8.056646585E-1,4.036683142E-1
2.275992784E0,-8.307186961E-1,7.928364873E-1,3.926727176E-1
2.277992784E0,-8.441576958E-1,7.781757116E-1,3.853423595E-1
2.279992784E0,-8.698140979E-1,7.512976527E-1,3.676272631E-1
2.281992784E0,-8.954703808E-1,7.213652730E-1,3.517447412E-1
2.283992784E0,-9.076877236E-1,7.079262137E-1,3.444143534E-1
2.285992784E0,-9.315114617E-1,6.779938340E-1,3.279210329E-1
2.287992784E0,-9.388418794E-1,6.657765508E-1,3.224232197E-1
2.289992817E0,-9.577786922E-1,6.395093203E-1,3.126493692E-1
2.291992817E0,-9.718285799E-1,6.132421494E-1,3.034864068E-1
2.293992817E0,-9.864892960E-1,5.949161649E-1,2.955451608E-1
2.295993250E0,-9.925979376E-1,5.845314264E-1,2.906582355E-1
2.297992916E0,-1.001760960E0,5.698706508E-1,2.863821685E-1
2.299992916E0,-1.004204392E0,5.637620091E-1,2.839387059E-1
2.301992916E0,-1.006036997E0,5.503230095E-1,2.759974599E-1
2.303992916E0,-1.011534810E0,5.387165546E-1,2.784409225E-1
2.305992916E0,-1.009702206E0,5.350514054E-1,2.753866017E-1
2.307992916E0,-1.007258773E0,5.289427042E-1,2.772192061E-1
2.309992916E0,-1.004815340E0,5.258883834E-1,2.784409225E-1
2.311992916E0,-1.000539303E0,5.252775550E-1,2.784409225E-1
2.313992882E0,-9.822132587E-1,5.362730622E-1,2.894364893E-1
2.315992682E0,-9.822132587E-1,5.362730622E-1,2.894364893E-1
2.317992682E0,-9.663308263E-1,5.552098751E-1,2.961560488E-1
2.319992682E0,-9.480048418E-1,5.717033148E-1,3.077624440E-1
2.321992715E0,-9.406744242E-1,5.857532024E-1,3.150928319E-1
2.323992215E0,-9.156289697E-1,6.059117317E-1,3.315862119E-1
2.325992248E0,-8.887509108E-1,6.334006786E-1,3.438034952E-1
2.327992281E0,-8.753119111E-1,6.480614543E-1,3.517447412E-1
2.329992314E0,-8.496555090E-1,6.718851924E-1,3.657946587E-1
2.331992347E0,-8.337730169E-1,6.828807592E-1,3.761793971E-1
2.333992380E0,-7.922341824E-1,7.115914226E-1,4.061117470E-1
2.335991080E0,-7.794060111E-1,7.213652730E-1,4.146638811E-1
2.337991046E0,-7.623018026E-1,7.299173474E-1,4.281029105E-1
2.339991012E0,-7.354236841E-1,7.360260487E-1,4.488723576E-1
2.341990978E0,-7.048804164E-1,7.421346903E-1,4.708634913E-1
2.343990944E0,-6.889979839E-1,7.415238023E-1,4.830807745E-1
2.345990910E0,-6.602873206E-1,7.415238023E-1,5.032393336E-1
2.347990876E0,-6.273006201E-1,7.396911979E-1,5.270631313E-1
2.349990842E0,-6.101963520E-1,7.372477651E-1,5.343934894E-1
2.351990842E0,-5.778204799E-1,7.323608398E-1,5.563846231E-1
2.353990842E0,-5.381142497E-1,7.293065190E-1,5.728780031E-1
2.355989908E0,-5.161231160E-1,7.231978774E-1,5.826517940E-1
2.357990241E0,-4.758059978E-1,7.060936093E-1,6.015886068E-1
2.359990241E0,-4.538148642E-1,6.920437813E-1,6.113625169E-1
2.361990241E0,-4.134977460E-1,6.645548344E-1,6.254124045E-1
2.363990241E0,-3.695154488E-1,6.382876039E-1,6.406840086E-1
2.365990241E0,-3.469134271E-1,6.260703206E-1,6.461818218E-1
2.367990241E0,-3.004876673E-1,6.028574109E-1,6.547339559E-1
2.369990274E0,-2.589488328E-1,5.802553892E-1,6.571773887E-1
2.371990307E0,-2.345142215E-1,5.710924268E-1,6.577882767E-1
2.373990373E0,-1.685407758E-1,5.405491590E-1,6.577882767E-1
2.375990006E0,-1.685407758E-1,5.405491590E-1,6.577882767E-1
2.377990039E0,-1.294454038E-1,5.264992714E-1,6.529012918E-1
2.379990072E0,-8.973915875E-2,5.100058913E-1,6.467926502E-1
2.381990072E0,-7.507839054E-2,5.051189661E-1,6.431275010E-1
2.383990072E0,-4.697859287E-2,4.867930412E-1,6.296885014E-1
2.385990038E0,-2.559830807E-2,4.715214074E-1,6.107516289E-1
2.387990004E0,-1.643532887E-2,4.666344523E-1,6.015886068E-1
2.389989970E0,-2.996294061E-3,4.495302439E-1,5.771540403E-1
2.391989936E0,1.105360687E-2,4.342586100E-1,5.496650934E-1
2.393989902E0,1.288620289E-2,4.171544015E-1,5.215653181E-1
2.395991035E0,1.349706762E-2,4.024936259E-1,5.075154305E-1
2.397991035E0,1.105360687E-2,3.902763128E-1,4.904111624E-1
2.399991035E0,3.112358274E-3,3.646199703E-1,4.562027156E-1
2.401991035E0,-6.661485881E-3,3.493483365E-1,4.171073437E-1
2.403991035E0,-1.399186812E-2,3.469048738E-1,3.981705308E-1
2.405991035E0,-2.620917372E-2,3.359093070E-1,3.566316962E-1
2.407991035E0,-4.453513026E-2,3.255245984E-1,3.169254363E-1
2.409991035E0,-5.369810760E-2,3.181942105E-1,2.967668772E-1
2.411991035E0,-7.202406228E-2,3.053660393E-1,2.552280724E-1
2.413991035E0,-8.973915875E-2,2.894835472E-1,2.167435437E-1
2.415991968E0,-1.007347330E-1,2.864292264E-1,1.990284473E-1
2.417991968E0,-1.227258816E-1,2.742119133E-1,1.629873961E-1
2.419991968E0,-1.294454038E-1,2.681032717E-1,1.446614414E-1
2.421991968E0,-1.477713585E-1,2.644380927E-1,1.141181812E-1
2.423991968E0,-1.624321342E-1,2.668815255E-1,8.174232394E-2
2.425991968E0,-1.642647237E-1,2.687141001E-1,6.524895877E-2
2.427991968E0,-1.703733653E-1,2.766553760E-1,3.592742980E-2
2.429991934E0,-1.770928949E-1,2.876509428E-1,8.438493125E-3
2.431991934E0,-1.807580888E-1,2.907052636E-1,-5.611408036E-3
2.433991934E0,-1.844232827E-1,3.096420765E-1,-4.348505288E-2
2.435992267E0,-1.899210662E-1,3.151398897E-1,-5.448062718E-2
2.437992267E0,-1.886993200E-1,3.218594193E-1,-6.730879843E-2
2.439992267E0,-1.893101931E-1,3.291897774E-1,-8.991081268E-2
2.441992267E0,-1.856449991E-1,3.352984190E-1,-9.785205871E-2
2.443992267E0,-1.874776036E-1,3.450722694E-1,-1.167888790E-1
2.445992300E0,-1.789254844E-1,3.505700827E-1,-1.320605129E-1
2.447992300E0,-1.746494323E-1,3.548461199E-1,-1.400017589E-1
2.449992300E0,-1.642647237E-1,3.609547615E-1,-1.540516615E-1
2.451992300E0,-1.514365524E-1,3.688960373E-1,-1.699341536E-1
2.453992300E0,-1.373866498E-1,3.743937910E-1,-1.864275187E-1
2.455991000E0,-1.294454038E-1,3.768372834E-1,-1.913144439E-1
2.457991000E0,-1.092868522E-1,3.792807460E-1,-2.041426152E-1
2.459991000E0,-1.013455987E-1,3.817241788E-1,-2.114729881E-1
2.461991000E0,-8.179791272E-2,3.890545666E-1,-2.230794430E-1
2.463991000E0,-6.163935736E-2,3.896654248E-1,-2.285772264E-1
2.465991000E0,-5.430897698E-2,3.945523798E-1,-2.389619350E-1
2.467991000E0,-3.353955597E-2,4.000501335E-1,-2.493466288E-1
2.469991000E0,-2.071138658E-2,4.018827379E-1,-2.524009645E-1
2.471990633E0,-1.163698267E-3,4.055479467E-1,-2.603422105E-1
2.473990633E0,1.960572042E-2,4.086022675E-1,-2.688943148E-1
2.475990333E0,2.937956341E-2,4.086022675E-1,-2.701160610E-1
2.477990333E0,4.709465802E-2,4.122674465E-1,-2.756138742E-1
2.479990366E0,6.542061269E-2,4.104348719E-1,-2.805007696E-1
2.481990399E0,7.641619444E-2,4.061588049E-1,-2.811116278E-1
2.483990432E0,9.229868650E-2,4.012718797E-1,-2.829442322E-1
2.485990465E0,1.075703129E-1,4.018827379E-1,-2.811116278E-1
2.487990498E0,1.173441634E-1,4.000501335E-1,-2.792790532E-1
2.489990531E0,1.326157898E-1,3.969958127E-1,-2.780573070E-1
2.491990531E0,1.399461627E-1,3.939414918E-1,-2.750029862E-1
2.493990497E0,1.643807888E-1,3.884437382E-1,-2.652291358E-1
2.495990230E0,1.692676991E-1,3.878328502E-1,-2.603422105E-1
2.497990196E0,1.759872288E-1,3.841676712E-1,-2.585096061E-1
2.499990162E0,1.937023103E-1,3.762263954E-1,-2.505683601E-1
2.501990128E0,2.053087652E-1,3.707286119E-1,-2.444597185E-1
2.503990094E0,2.132499963E-1,3.646199703E-1,-2.407945246E-1
2.505990060E0,2.285216302E-1,3.542352617E-1,-2.359076142E-1
2.507990060E0,2.389063388E-1,3.395744860E-1,-2.297989428E-1
2.509990060E0,2.444041222E-1,3.322440982E-1,-2.267446220E-1
2.511990060E0,2.584540546E-1,3.157507181E-1,-2.212468386E-1
2.513990060E0,2.682278752E-1,2.992573977E-1,-2.188033760E-1
2.515990193E0,2.725039423E-1,2.870400548E-1,-2.151381820E-1
2.517990193E0,2.822777629E-1,2.601620257E-1,-2.133055925E-1
2.519990193E0,2.828886509E-1,2.497773021E-1,-2.114729881E-1
2.521990193E0,2.883864045E-1,2.192340344E-1,-2.084186673E-1
2.523990193E0,2.938842177E-1,1.850255877E-1,-2.041426152E-1
2.525990226E0,2.969385386E-1,1.666996330E-1,-2.023100108E-1
2.527990259E0,2.999928594E-1,1.294368505E-1,-2.004774213E-1
2.529990292E0,3.061015308E-1,8.423282206E-2,-1.992556900E-1
2.531990692E0,3.042689264E-1,6.285253167E-2,-1.974231005E-1
2.533990725E0,3.061015308E-1,1.887023821E-2,-1.980339587E-1
2.535991625E0,3.085449934E-1,-6.786101963E-3,-1.980339587E-1
2.537991658E0,3.085449934E-1,-5.565532297E-2,-2.004774213E-1
2.539991658E0,3.091558516E-1,-1.045245454E-1,-1.998665631E-1
2.541991624E0,3.122101724E-1,-1.307917535E-1,-2.029208839E-1
2.543991590E0,3.115993142E-1,-1.772174984E-1,-2.023100108E-1
2.545991556E0,3.134319186E-1,-2.230324000E-1,-2.029208839E-1
2.547991522E0,3.146536350E-1,-2.468561381E-1,-2.053643465E-1
2.549991488E0,3.195405602E-1,-2.908384502E-1,-2.096403986E-1
2.551991454E0,3.238166273E-1,-3.360424936E-1,-2.108621299E-1
2.553991454E0,3.280926943E-1,-3.794139028E-1,-2.163599283E-1
2.555992254E0,3.299252689E-1,-4.038484991E-1,-2.145273238E-1
2.557992254E0,3.360339105E-1,-4.227853417E-1,-2.200251222E-1
2.559992254E0,3.482512236E-1,-4.649350345E-1,-2.243011594E-1
2.561992254E0,3.586359322E-1,-5.064738989E-1,-2.273554951E-1
2.563992254E0,3.659663200E-1,-5.290758610E-1,-2.328532934E-1
2.565992254E0,3.842922747E-1,-5.700038671E-1,-2.365184724E-1
2.567992254E0,3.989530206E-1,-6.139861345E-1,-2.432379872E-1
2.569992254E0,4.087268710E-1,-6.390315890E-1,-2.469031811E-1
2.571992287E0,4.313288927E-1,-6.811813116E-1,-2.566770315E-1
2.573992320E0,4.514874518E-1,-7.306614518E-1,-2.627856731E-1
2.575991920E0,4.618721604E-1,-7.544851899E-1,-2.701160610E-1
2.577991953E0,4.838633239E-1,-8.045760989E-1,-2.866094410E-1
2.579992386E0,4.954697490E-1,-8.265672326E-1,-2.914963365E-1
2.581992419E0,5.156282783E-1,-8.778799176E-1,-3.079897165E-1
2.583992452E0,5.400629044E-1,-9.304143786E-1,-3.269264996E-1
2.585992452E0,5.461715460E-1,-9.536272287E-1,-3.367003798E-1
2.587992418E0,5.693844557E-1,-1.006161571E0,-3.586915135E-1
2.589992384E0,5.925973058E-1,-1.058696032E0,-3.843478560E-1
2.591992350E0,6.035928726E-1,-1.083741546E0,-3.996194899E-1
2.593992316E0,6.390230656E-1,-1.166819215E0,-4.417691827E-1
2.595991282E0,6.475751996E-1,-1.197362423E0,-4.576517045E-1
2.597991248E0,6.561273336E-1,-1.224851489E0,-4.735341668E-1
2.599991214E0,6.781184673E-1,-1.278607488E0,-5.052991509E-1
2.601991214E0,6.891140342E-1,-1.308539867E0,-5.230143070E-1
2.603991214E0,7.049965262E-1,-1.365350485E0,-5.596662164E-1
2.605991214E0,7.221007943E-1,-1.421550035E0,-5.981506705E-1
2.607991214E0,7.282094359E-1,-1.449649811E0,-6.189200878E-1
2.609991214E0,7.392049432E-1,-1.505849361E0,-6.586263180E-1
2.611991214E0,7.514222860E-1,-1.564492464E0,-7.019978166E-1
2.613991214E0,7.569200397E-1,-1.623746514E0,-7.490344048E-1
2.615990714E0,7.636395693E-1,-1.652456999E0,-7.710255980E-1
2.617990714E0,7.715808153E-1,-1.716597915E0,-8.168404698E-1
2.619990714E0,7.740243077E-1,-1.750195503E0,-8.424967527E-1
2.621990714E0,7.825764418E-1,-1.820445061E0,-8.907551169E-1
2.623990714E0,7.856307626E-1,-1.854042649E0,-9.151897430E-1
2.625990714E0,7.923502922E-1,-1.923681259E0,-9.665024281E-1
2.627990714E0,7.978480458E-1,-2.004315376E0,-1.017815113E0
2.629990714E0,8.009023666E-1,-2.044632673E0,-1.044082284E0
2.631990680E0,8.100653887E-1,-2.124044895E0,-1.099060178E0
2.633990646E0,8.155630827E-1,-2.202235937E0,-1.158925056E0
2.635991079E0,8.198391795E-1,-2.246217966E0,-1.189468265E0
2.637991079E0,8.277804852E-1,-2.325019836E0,-1.252387285E0
2.639990679E0,8.308348060E-1,-2.404432058E0,-1.319582462E0
2.641990679E0,8.369434476E-1,-2.440473080E0,-1.354401827E0
2.643990679E0,8.357216716E-1,-2.516220570E0,-1.424040556E0
2.645990679E0,8.344999552E-1,-2.551039696E0,-1.457638025E0
2.647990712E0,8.296130300E-1,-2.624343634E0,-1.527887583E0
2.649990745E0,8.167848587E-1,-2.684819221E0,-1.596304536E0
2.651990745E0,8.137305379E-1,-2.711697578E0,-1.631734729E0
2.653990745E0,7.935719490E-1,-2.770951509E0,-1.728862286E0
2.655991078E0,7.850198746E-1,-2.787444592E0,-1.759405494E0
2.657991078E0,7.764678001E-1,-2.800272942E0,-1.787505388E0
2.659991078E0,7.556983829E-1,-2.816155195E0,-1.841872334E0
2.661991078E0,7.392049432E-1,-2.822263956E0,-1.888908982E0
2.663991078E0,7.251551151E-1,-2.818598986E0,-1.906013131E0
2.665991078E0,7.074400187E-1,-2.804548740E0,-1.931058764E0
2.667991078E0,6.958335638E-1,-2.791109800E0,-1.938389063E0
2.669991078E0,6.726206541E-1,-2.758734226E0,-1.940832496E0
2.671991078E0,6.408556700E-1,-2.728801489E0,-1.917008758E0
2.673991078E0,6.158101559E-1,-2.687262774E0,-1.868139505E0
2.675991611E0,6.011494398E-1,-2.665271759E0,-1.832709312E0
2.677991611E0,5.803800225E-1,-2.617624283E0,-1.752686024E0
2.679991611E0,5.663301349E-1,-2.583415747E0,-1.704427600E0
2.681991644E0,5.455606580E-1,-2.513166189E0,-1.592639327E0
2.683992210E0,5.217369199E-1,-2.441694975E0,-1.460692406E0
2.685992243E0,5.137957335E-1,-2.408708334E0,-1.386166811E0
2.687992276E0,4.942480028E-1,-2.336015463E0,-1.223676801E0
2.689992309E0,4.875285029E-1,-2.297530651E0,-1.136933804E0
2.691992342E0,4.808090031E-1,-2.227892160E0,-9.573394656E-1
2.693992375E0,4.863067567E-1,-2.164361954E0,-7.691929936E-1
2.695991475E0,4.942480028E-1,-2.133818865E0,-6.745088696E-1
2.697991441E0,5.290673375E-1,-2.064180136E0,-4.918601513E-1
2.699991407E0,5.803800225E-1,-1.982324362E0,-3.171526790E-1
2.701991373E0,6.054254770E-1,-1.943228841E0,-2.389619350E-1
2.703991339E0,6.616251469E-1,-1.850377440E0,-9.907379001E-2
2.705991305E0,7.190464735E-1,-1.758747697E0,1.149281859E-2
2.707991271E0,7.422592640E-1,-1.715376258E0,5.486425012E-2
2.709991237E0,7.825764418E-1,-1.643294096E0,1.141181812E-1
2.711991237E0,8.002914786E-1,-1.614583373E0,1.336658597E-1
2.713991237E0,8.308348060E-1,-1.561438084E0,1.464940310E-1
2.715991337E0,8.442738056E-1,-1.549831629E0,1.379419267E-1
2.717991337E0,8.534367681E-1,-1.542501330E0,1.245028898E-1
2.719991337E0,8.638214469E-1,-1.529673219E0,8.968356997E-2
2.721991337E0,8.766496778E-1,-1.532116532E0,5.119905993E-2
2.723991337E0,8.845908642E-1,-1.530284047E0,3.714915738E-2
2.725991337E0,9.023059607E-1,-1.537003517E0,4.162435886E-3
2.727991337E0,9.322384000E-1,-1.546777368E0,-1.172006037E-2
2.729991337E0,9.499534965E-1,-1.555329442E0,-1.294179168E-2
2.731991337E0,9.872162342E-1,-1.576709867E0,-3.778812476E-3
2.733991337E0,1.060520172E0,-1.615805149E0,3.226223588E-2
2.735991170E0,1.060520172E0,-1.615805149E0,3.226223588E-2
2.737991170E0,1.116108894E0,-1.651235342E0,6.585982442E-2
2.739991170E0,1.148484707E0,-1.670172095E0,8.113145083E-2
2.741991136E0,1.210182071E0,-1.717819691E0,1.141181812E-1
2.743990602E0,1.272490382E0,-1.772797465E0,1.440505832E-1
2.745990602E0,1.303644419E0,-1.805784345E0,1.532135606E-1
2.747990602E0,1.364120126E0,-1.877255440E0,1.727612466E-1
2.749990602E0,1.417876244E0,-1.956057072E0,1.831459552E-1
2.751990602E0,1.444754362E0,-1.996985078E0,1.916980594E-1
2.753990602E0,1.496067047E0,-2.078840971E0,1.941415220E-1
2.755991068E0,1.536384106E0,-2.153977633E0,1.941415220E-1
2.757991101E0,1.554710031E0,-2.191240311E0,1.929198056E-1
2.759991101E0,1.589529395E0,-2.259657145E0,1.959741265E-1
2.761991101E0,1.601746678E0,-2.290200472E0,1.984175891E-1
2.763991101E0,1.623126984E0,-2.354341269E0,2.039153725E-1
2.765991101E0,1.626792192E0,-2.409929991E0,2.124674767E-1
2.767991101E0,1.628013968E0,-2.436808109E0,2.197978646E-1
2.769991101E0,1.618240118E0,-2.481401205E0,2.344586402E-1
2.771991101E0,1.593194604E0,-2.518664122E0,2.521737218E-1
2.773991101E0,1.562651396E0,-2.552872658E0,2.723322809E-1
2.775991101E0,1.541270971E0,-2.564479113E0,2.814952731E-1
2.777991101E0,1.489958405E0,-2.577918053E0,2.979886234E-1
2.779991101E0,1.463080287E0,-2.585248232E0,3.089841902E-1
2.781991101E0,1.402604580E0,-2.588302851E0,3.297536075E-1
2.783991101E0,1.369007111E0,-2.587080717E0,3.376948535E-1
2.785991101E0,1.296314120E0,-2.581583023E0,3.529664874E-1
2.787990767E0,1.218734264E0,-2.578528881E0,3.749576509E-1
2.789990767E0,1.177195311E0,-2.573030949E0,3.810662925E-1
2.791990800E0,1.091674209E0,-2.562646151E0,3.981705308E-1
2.793990833E0,9.542295337E-1,-2.533324718E0,4.183290601E-1
2.795990099E0,9.542295337E-1,-2.533324718E0,4.183290601E-1
2.797990132E0,8.638214469E-1,-2.510722637E0,4.274920523E-1
2.799990165E0,7.673048377E-1,-2.486898899E0,4.336006939E-1
2.801990198E0,7.172138095E-1,-2.476514339E0,4.372659028E-1
2.803990198E0,6.231405735E-1,-2.454523087E0,4.397093654E-1
2.805990198E0,5.754930973E-1,-2.444749355E0,4.390984774E-1
2.807990164E0,4.814198315E-1,-2.435586452E0,4.403202236E-1
2.809990130E0,3.910117745E-1,-2.424590826E0,4.421527982E-1
2.811990096E0,3.458077610E-1,-2.420314789E0,4.403202236E-1
2.813990029E0,2.169151902E-1,-2.392214775E0,4.299355149E-1
2.815990429E0,1.747654825E-1,-2.376943350E0,4.244377017E-1
2.817990395E0,1.320049316E-1,-2.366558552E0,4.189399481E-1
2.819990395E0,5.809022859E-2,-2.330517530E0,4.146638811E-1
2.821990395E0,-1.338100340E-2,-2.292032957E0,4.036683142E-1
2.823990395E0,-4.575686157E-2,-2.274317980E0,4.018357098E-1
2.825990395E0,-1.037890613E-1,-2.228502989E0,3.951161802E-1
2.827990395E0,-1.324997246E-1,-2.201014042E0,3.920618594E-1
2.829990395E0,-1.850341409E-1,-2.146036148E0,3.896183968E-1
2.831990395E0,-2.339033484E-1,-2.088614702E0,3.865640759E-1
2.833990395E0,-2.784965336E-1,-2.020808935E0,3.841206133E-1
2.835991561E0,-2.986550629E-1,-1.982324362E0,3.822880387E-1
2.837991594E0,-3.279765844E-1,-1.896803260E0,3.786228299E-1
2.839991627E0,-3.383613229E-1,-1.850988269E0,3.761793971E-1
2.841991660E0,-3.585198522E-1,-1.759358525E0,3.639620543E-1
2.843991693E0,-3.725697696E-1,-1.663452625E0,3.584642708E-1
2.845991726E0,-3.768458366E-1,-1.607863903E0,3.529664874E-1
2.847992092E0,-3.756240904E-1,-1.502795100E0,3.444143534E-1
2.849992125E0,-3.756240904E-1,-1.447206259E0,3.419709206E-1
2.851992125E0,-3.627959192E-1,-1.341526628E0,3.370839953E-1
2.853992091E0,-3.383613229E-1,-1.189421296E0,3.279210329E-1
2.855992457E0,-3.383613229E-1,-1.189421296E0,3.279210329E-1
2.857992423E0,-3.237005472E-1,-1.100845695E0,3.279210329E-1
2.859992389E0,-3.010985553E-1,-1.026320219E0,3.321970701E-1
2.861992355E0,-2.919355333E-1,-9.951660633E-1,3.376948535E-1
2.863992321E0,-2.723878920E-1,-9.359121323E-1,3.572425544E-1
2.865992287E0,-2.571162283E-1,-8.815451264E-1,3.590751290E-1
2.867992287E0,-2.516184449E-1,-8.510019183E-1,3.547990620E-1
2.869992287E0,-2.412337363E-1,-7.996892333E-1,3.419709206E-1
2.871992287E0,-2.369576842E-1,-7.752546072E-1,3.346405327E-1
2.873992320E0,-2.241295129E-1,-7.221093178E-1,3.248667121E-1
2.875992386E0,-2.222969234E-1,-7.068376541E-1,3.291427493E-1
2.877992386E0,-2.192425877E-1,-6.958420873E-1,3.340296745E-1
2.879992386E0,-2.167991400E-1,-6.756835580E-1,3.480795622E-1
2.881992386E0,-2.149665356E-1,-6.646879911E-1,3.676272631E-1
2.883992386E0,-2.149665356E-1,-6.640771031E-1,3.755685091E-1
2.885992386E0,-2.143556625E-1,-6.659097075E-1,4.018357098E-1
2.887992386E0,-2.180208564E-1,-6.805704832E-1,4.323789775E-1
2.889992386E0,-2.222969234E-1,-6.927877665E-1,4.476506114E-1
2.891992019E0,-2.253512442E-1,-7.312722802E-1,4.861350954E-1
2.893992019E0,-2.320707589E-1,-7.874718904E-1,5.307282805E-1
2.895990419E0,-2.345142215E-1,-8.229020834E-1,5.508868694E-1
2.897990385E0,-2.455098033E-1,-8.980385065E-1,5.960908532E-1
2.899990351E0,-2.461206615E-1,-9.426316619E-1,6.217471957E-1
2.901990351E0,-2.571162283E-1,-1.036704898E0,6.718381643E-1
2.903990351E0,-2.662791908E-1,-1.142384648E0,7.249833941E-1
2.905990351E0,-2.699443996E-1,-1.197973371E0,7.488071918E-1
2.907990351E0,-2.809399664E-1,-1.315870404E0,7.995089889E-1
2.909990351E0,-2.882703543E-1,-1.433156490E0,8.514325619E-1
2.911990351E0,-2.974333465E-1,-1.492410421E0,8.758671284E-1
2.913990384E0,-3.139266968E-1,-1.668950438E0,9.473384023E-1
2.915989450E0,-3.139266968E-1,-1.668950438E0,9.473384023E-1
2.917989450E0,-3.322526515E-1,-1.784403920E0,9.968184829E-1
2.919989450E0,-3.487460315E-1,-1.893137932E0,1.048742056E0
2.921989450E0,-3.548546731E-1,-1.942618012E0,1.071344018E0
2.923989450E0,-3.744023740E-1,-2.039134741E0,1.123267531E0
2.925989450E0,-3.933391869E-1,-2.120990753E0,1.171525836E0
2.927989450E0,-4.025021791E-1,-2.150923014E0,1.191073656E0
2.929989450E0,-4.220498800E-1,-2.193683624E0,1.234445095E0
2.931989450E0,-4.422084093E-1,-2.213231564E0,1.271096945E0
2.933989450E0,-4.593126178E-1,-2.214453220E0,1.307748914E0
2.935989016E0,-4.709190726E-1,-2.208344460E0,1.321187854E0
2.937989016E0,-4.813037813E-1,-2.196127176E0,1.333405137E0
2.939989016E0,-5.032949448E-1,-2.160086155E0,1.357228994E0
2.941989016E0,-5.222317576E-1,-2.098388672E0,1.370667934E0
2.943989016E0,-5.338382125E-1,-2.057460785E0,1.372500658E0
2.945989016E0,-5.570510626E-1,-1.959111452E0,1.369446278E0
2.947989049E0,-5.778204799E-1,-1.828386188E0,1.355396390E0
2.949989082E0,-5.869834423E-1,-1.753860712E0,1.344400764E0
2.951989482E0,-6.101963520E-1,-1.579764128E0,1.317522764E0
2.953989515E0,-6.303549409E-1,-1.385508895E0,1.282092571E0
2.955990148E0,-6.419613361E-1,-1.283494473E0,1.260712266E0
2.957990181E0,-6.688393950E-1,-1.064193845E0,1.213064671E0
2.959990214E0,-6.835001707E-1,-9.438533783E-1,1.185575843E0
2.961990214E0,-7.146543264E-1,-7.092811465E-1,1.124489307E0
2.963990180E0,-7.543605566E-1,-4.802066684E-1,1.059126735E0
2.965990146E0,-7.763516903E-1,-3.733052313E-1,1.024307370E0
2.967990112E0,-8.227774501E-1,-1.827152818E-1,9.558904767E-1
2.969990078E0,-8.753119111E-1,-2.633379027E-2,8.801431656E-1
2.971990044E0,-9.003573656E-1,3.841792792E-2,8.404369354E-1
2.973990010E0,-9.846567512E-1,1.691430807E-1,7.274268866E-1
2.975990943E0,-1.007869601E0,1.911342293E-1,6.889423728E-1
2.977990943E0,-1.034747720E0,2.027406842E-1,6.516795754E-1
2.979990943E0,-1.081784248E0,1.990754902E-1,5.795974731E-1
2.981990943E0,-1.125766635E0,1.831929982E-1,5.472216010E-1
2.983990609E0,-1.145314336E0,1.355455071E-1,4.794155955E-1
2.985990609E0,-1.178300977E0,6.957205385E-2,4.103878140E-1
2.987990609E0,-1.192961812E0,3.169840947E-2,3.767902255E-1
2.989990609E0,-1.214341998E0,-4.527061060E-2,3.126493692E-1
2.991990609E0,-1.225337625E0,-1.295700222E-1,2.521737218E-1
2.993990642E0,-1.234500647E0,-2.077607661E-1,1.978067160E-1
2.995991042E0,-1.236944079E0,-2.419692278E-1,1.739829779E-1
2.997991075E0,-1.236333251E0,-3.079426587E-1,1.275572181E-1
2.999991108E0,-1.236333251E0,-3.372641802E-1,1.110638529E-1
3.001991141E0,-1.227170229E0,-3.922420740E-1,7.685539871E-2
3.003991174E0,-1.214341998E0,-4.380569756E-1,4.814473167E-2
3.005991207E0,-1.205789924E0,-4.557720721E-1,3.714915738E-2
3.007991207E0,-1.186853170E0,-4.912022352E-1,1.821233518E-2
3.009991173E0,-1.171581507E0,-5.028086901E-1,9.049357846E-3
3.011991139E0,-1.141649127E0,-5.284650326E-1,2.329839859E-3
3.013991105E0,-1.097055912E0,-5.553430915E-1,-6.222273223E-3
3.015990905E0,-1.068345308E0,-5.706147552E-1,-9.276599623E-3
3.017990871E0,-1.015810847E0,-6.029906273E-1,-1.599611714E-2
3.019990837E0,-9.443396330E-1,-6.494163275E-1,-2.271563560E-2
3.021990803E0,-9.028007984E-1,-6.769052744E-1,-2.515909635E-2
3.023990803E0,-8.136144876E-1,-7.373809218E-1,-3.493294120E-2
3.025990803E0,-7.091565132E-1,-8.125173450E-1,-5.142629892E-2
3.027990803E0,-6.554003954E-1,-8.503909707E-1,-5.997841805E-2
3.029990803E0,-5.375033617E-1,-9.322469234E-1,-7.952609658E-2
3.031990803E0,-4.709190726E-1,-9.768400788E-1,-8.868908137E-2
3.033990803E0,-2.558945119E-1,-1.115506411E0,-1.241192594E-1
3.035990803E0,-1.801472157E-1,-1.160710573E0,-1.406126320E-1
3.037990803E0,-1.007347330E-1,-1.209579706E0,-1.528299302E-1
3.039990803E0,6.419888139E-2,-1.311594248E0,-1.809297353E-1
3.041990803E0,2.358520180E-1,-1.415441394E0,-2.059752047E-1
3.043991136E0,3.207623065E-1,-1.469197512E0,-2.181925178E-1
3.045991136E0,4.960806072E-1,-1.579153180E0,-2.359076142E-1
3.047991136E0,6.616251469E-1,-1.690941572E0,-2.469031811E-1
3.049991136E0,7.447027564E-1,-1.742254257E0,-2.444597185E-1
3.051990302E0,9.023059607E-1,-1.844879627E0,-2.377402037E-1
3.053990268E0,1.048302770E0,-1.943839788E0,-2.230794430E-1
3.055990234E0,1.118552208E0,-1.990876436E0,-2.151381820E-1
3.057990234E0,1.243168831E0,-2.087393045E0,-1.925361753E-1
3.059990234E0,1.299368382E0,-2.130153894E0,-1.821514517E-1
3.061990234E0,1.401993752E0,-2.212009430E0,-1.522190720E-1
3.063990234E0,1.481406212E0,-2.272485256E0,-1.228975356E-1
3.065990234E0,1.516225576E0,-2.296308994E0,-1.094584987E-1
3.067990234E0,1.569981694E0,-2.317078352E0,-7.341744751E-2
3.069990267E0,1.602357507E0,-2.298752546E0,-3.737640008E-2
3.071990267E0,1.610298872E0,-2.272485256E0,-1.355265640E-2
3.073990267E0,1.609688044E0,-2.188185692E0,2.920791134E-2
3.075990267E0,1.598081589E0,-2.126488447E0,5.486425012E-2
3.077990267E0,1.563873053E0,-1.974993944E0,1.110638529E-1
3.079990267E0,1.502175689E0,-1.789290905E0,1.727612466E-1
3.081990267E0,1.460636854E0,-1.681778550E0,2.039153725E-1
3.083990267E0,1.353124499E0,-1.454536796E0,2.631693184E-1
3.085990267E0,1.222399473E0,-1.213855863E0,3.138711154E-1
3.087990267E0,1.145430446E0,-1.099013209E0,3.407491744E-1
3.089990267E0,9.749989510E-1,-8.821560144E-1,3.847314715E-1
3.091990267E0,7.868524790E-1,-7.056159377E-1,4.268811941E-1
3.093990267E0,5.913755894E-1,-5.852755308E-1,4.629222453E-1
3.095989333E0,4.893610775E-1,-5.419040322E-1,4.836916625E-1
3.097989333E0,3.916226625E-1,-5.144150853E-1,5.020176172E-1
3.099989333E0,1.937023103E-1,-4.850935936E-1,5.350043178E-1
3.101989333E0,5.803220120E-5,-4.930348396E-1,5.649366975E-1
3.103989366E0,-8.729570359E-2,-5.089173317E-1,5.795974731E-1
3.105989399E0,-2.485641241E-1,-5.565648079E-1,6.021994948E-1
3.107989432E0,-3.866196573E-1,-6.304795146E-1,6.199145913E-1
3.109989465E0,-4.470953345E-1,-6.744617820E-1,6.302993298E-1
3.111990331E0,-5.466663837E-1,-7.789198160E-1,6.382405162E-1
3.113990364E0,-6.187484860E-1,-9.053689241E-1,6.419057846E-1
3.115990397E0,-6.450156569E-1,-9.688988924E-1,6.394622922E-1
3.117990397E0,-6.816676259E-1,-1.114284754E0,6.302993298E-1
3.119990363E0,-6.951066256E-1,-1.188199520E0,6.193037033E-1
3.121990329E0,-7.018260956E-1,-1.340304971E0,5.948691368E-1
3.123990295E0,-6.944957376E-1,-1.482025623E0,5.594389439E-1
3.125990261E0,-6.896088123E-1,-1.551053524E0,5.429455638E-1
3.127990227E0,-6.657850742E-1,-1.671393871E0,5.032393336E-1
3.129990193E0,-6.389070153E-1,-1.774019241E0,4.555918574E-1
3.131990193E0,-6.248571277E-1,-1.816779733E0,4.336006939E-1
3.133990193E0,-5.765987635E-1,-1.908409715E0,3.529664874E-1
3.135990793E0,-5.594944954E-1,-1.925513744E0,3.248667121E-1
3.137990793E0,-5.417793989E-1,-1.936509371E0,2.973777354E-1
3.139990793E0,-5.118470192E-1,-1.939563751E0,2.369021028E-1
3.141990793E0,-4.971862733E-1,-1.928568125E0,2.081914246E-1
3.143990793E0,-4.690864980E-1,-1.896803260E0,1.477157772E-1
3.145990793E0,-4.458735883E-1,-1.851599097E0,9.151616693E-2
3.147990793E0,-4.342671633E-1,-1.822888374E0,6.524895877E-2
3.149990793E0,-4.171629250E-1,-1.763634562E0,1.088195294E-2
3.151990826E0,-4.079999328E-1,-1.702548027E0,-3.798726574E-2
3.153990826E0,-3.982261121E-1,-1.639628887E0,-8.624561876E-2
3.155991726E0,-3.982261121E-1,-1.602976918E0,-1.106802300E-1
3.157991759E0,-3.963935375E-1,-1.522342801E0,-1.601603031E-1
3.159991792E0,-3.921174705E-1,-1.475916982E0,-1.852058023E-1
3.161991825E0,-3.872305155E-1,-1.375124216E0,-2.340750098E-1
3.163991825E0,-3.817327619E-1,-1.316481233E0,-2.585096061E-1
3.165991791E0,-3.713480234E-1,-1.190032125E0,-3.043245375E-1
3.167991757E0,-3.548546731E-1,-1.048922300E0,-3.476959467E-1
3.169991723E0,-3.487460315E-1,-9.743966460E-1,-3.648001850E-1
3.171991689E0,-3.285874724E-1,-8.241237998E-1,-3.959542811E-1
3.173991655E0,-3.090398014E-1,-6.714074612E-1,-4.191671610E-1
3.175991621E0,-2.980442345E-1,-5.993253589E-1,-4.307736158E-1
3.177991587E0,-2.784965336E-1,-4.612698257E-1,-4.466561377E-1
3.179991587E0,-2.613922954E-1,-3.421511352E-1,-4.619277418E-1
3.181991587E0,-2.540619075E-1,-2.896167040E-1,-4.710907340E-1
3.183991587E0,-2.351250947E-1,-1.961543262E-1,-4.888058305E-1
3.185991587E0,-2.259621173E-1,-1.503394246E-1,-4.943036139E-1
3.187991587E0,-2.119121999E-1,-6.420743465E-2,-5.089643598E-1
3.189991587E0,-1.917536557E-1,6.652933545E-3,-5.126295686E-1
3.191991587E0,-1.801472157E-1,4.025052115E-2,-5.107969642E-1
3.193991587E0,-1.471604854E-1,1.172195449E-1,-4.998013973E-1
3.195990987E0,-1.373866498E-1,1.367672235E-1,-4.943036139E-1
3.197990987E0,-1.263910681E-1,1.471519470E-1,-4.857515097E-1
3.199990987E0,-1.031781957E-1,1.666996330E-1,-4.662038088E-1
3.201990987E0,-8.057618141E-2,1.697539538E-1,-4.423800707E-1
3.203990987E0,-7.141320407E-2,1.630344391E-1,-4.295518696E-1
3.205990987E0,-5.247638002E-2,1.428758800E-1,-4.002303481E-1
3.207990987E0,-4.209167138E-2,1.251607835E-1,-3.867913187E-1
3.209990987E0,-2.682003751E-2,8.240022510E-2,-3.507502675E-1
3.211990953E0,-1.215927303E-2,3.414186835E-2,-3.092114329E-1
3.213990986E0,1.279762713E-3,-2.572292462E-2,-2.633965313E-1
3.215991052E0,9.221010841E-3,-6.115311012E-2,-2.346858829E-1
3.217991052E0,2.021658607E-2,-1.344569325E-1,-1.821514517E-1
3.219991052E0,1.960572042E-2,-1.704979837E-1,-1.503864676E-1
3.221991052E0,2.937956341E-2,-2.541865110E-1,-8.929994702E-2
3.223991052E0,3.304475546E-2,-3.384859264E-1,-2.821342275E-2
3.225991085E0,3.365562111E-2,-3.788030446E-1,5.384166259E-3
3.227991118E0,3.548821807E-2,-4.594372511E-1,6.463809311E-2
3.229991118E0,3.854254261E-2,-4.967000484E-1,9.334876388E-2
3.231991118E0,3.854254261E-2,-5.651169419E-1,1.464940310E-1
3.233991118E0,3.670994565E-2,-6.237599850E-1,1.916980594E-1
3.235991118E0,3.182302415E-2,-6.500272155E-1,2.149109542E-1
3.237991118E0,3.182302415E-2,-6.946203709E-1,2.521737218E-1
3.239991118E0,2.937956341E-2,-7.263853550E-1,2.802735269E-1
3.241991118E0,2.510350756E-2,-7.404352427E-1,2.937125564E-1
3.243991118E0,1.960572042E-2,-7.550960183E-1,3.114276528E-1
3.245991118E0,1.166447159E-2,-7.520416975E-1,3.279210329E-1
3.247991118E0,5.555819720E-3,-7.471547723E-1,3.376948535E-1
3.249991118E0,2.501493320E-3,-7.337157726E-1,3.627403378E-1
3.251991118E0,-6.661485881E-3,-7.147789598E-1,3.896183968E-1
3.253991118E0,-8.494081907E-3,-6.976746917E-1,4.219942689E-1
3.255991118E0,-9.104945697E-3,-6.872899532E-1,4.409310818E-1
3.257991118E0,-1.215927303E-2,-6.781269908E-1,4.580353200E-1
3.259991151E0,-1.643532887E-2,-6.500272155E-1,4.934654832E-1
3.261991184E0,-1.460273378E-2,-6.164296269E-1,5.203435421E-1
3.263991217E0,-1.338100340E-2,-5.968819857E-1,5.343934894E-1
3.265991250E0,-1.521359943E-2,-5.528996587E-1,5.612715483E-1
3.267991283E0,-1.521359943E-2,-5.095282197E-1,5.832626820E-1
3.269991316E0,-1.765706018E-2,-4.918131232E-1,5.973125696E-1
3.271991349E0,-1.765706018E-2,-4.557720721E-1,6.199145913E-1
3.273991349E0,-1.887878962E-2,-4.007941782E-1,6.614534259E-1
3.275990382E0,-1.887878962E-2,-4.007941782E-1,6.614534259E-1
3.277990348E0,-1.826792583E-2,-3.623096645E-1,6.871098280E-1
3.279990314E0,-1.521359943E-2,-3.500923812E-1,7.017705441E-1
3.281990280E0,-1.460273378E-2,-3.287121058E-1,7.207074165E-1
3.283990246E0,-1.582446322E-2,-3.305446804E-1,7.378115654E-1
3.285989779E0,-2.010052092E-2,-3.354316056E-1,7.439202070E-1
3.287989745E0,-2.315484546E-2,-3.537575603E-1,7.494180202E-1
3.289989745E0,-3.598301858E-2,-3.794139028E-1,7.573592663E-1
3.291989745E0,-4.025907442E-2,-3.897986114E-1,7.549158335E-1
3.293989745E0,-5.491984263E-2,-4.087354541E-1,7.604136467E-1
3.295989745E0,-6.225022301E-2,-4.142332077E-1,7.653005123E-1
3.297989745E0,-6.591541320E-2,-4.136223495E-1,7.677440047E-1
3.299989745E0,-7.752185315E-2,-3.983507454E-1,7.683548331E-1
3.301989745E0,-8.363050967E-2,-3.818573654E-1,7.671331167E-1
3.303989745E0,-9.279348701E-2,-3.439837098E-1,7.659114003E-1
3.305989745E0,-1.056216583E-1,-2.932818830E-1,7.653005123E-1
3.307989778E0,-1.129520386E-1,-2.590734661E-1,7.640787959E-1
3.309989811E0,-1.294454038E-1,-1.833261549E-1,7.610244751E-1
3.311988911E0,-1.447170228E-1,-8.986377716E-2,7.567484379E-1
3.313988944E0,-1.630429775E-1,2.375715971E-2,7.506397963E-1
3.315988977E0,-1.709842384E-1,8.728715032E-2,7.451419830E-1
3.317989010E0,-1.844232827E-1,2.351165265E-1,7.353681922E-1
3.319989010E0,-1.886993200E-1,3.157507181E-1,7.298703790E-1
3.321988976E0,-1.966405809E-1,4.904582202E-1,7.158204317E-1
3.323988942E0,-2.015274912E-1,5.839205980E-1,7.103226185E-1
3.325988908E0,-2.009166330E-1,7.952799797E-1,6.938292980E-1
3.327988874E0,-1.935862601E-1,1.027408838E0,6.724490523E-1
3.329988840E0,-1.929753870E-1,1.145305753E0,6.614534259E-1
3.331988806E0,-1.954188496E-1,1.366438985E0,6.376296878E-1
3.333988772E0,-2.155773938E-1,1.635219693E0,5.960908532E-1
3.335989705E0,-2.155773938E-1,1.635219693E0,5.960908532E-1
3.337989705E0,-2.375685424E-1,1.771442652E0,5.716562271E-1
3.339989705E0,-2.736095786E-1,1.866737604E0,5.557737350E-1
3.341989705E0,-2.962116003E-1,1.898502588E0,5.514976978E-1
3.343989705E0,-3.475242853E-1,1.930878401E0,5.429455638E-1
3.345990138E0,-3.731806278E-1,1.935154557E0,5.405021310E-1
3.347990138E0,-4.318237007E-1,1.915606856E0,5.447782278E-1
3.349990138E0,-4.965754151E-1,1.872846365E0,5.576063395E-1
3.351990138E0,-5.265077949E-1,1.845357299E0,5.649366975E-1
3.353990171E0,-6.211919188E-1,1.747618914E0,5.979234576E-1
3.355990204E0,-6.523460746E-1,1.709745288E0,6.125842333E-1
3.357990237E0,-6.798349619E-1,1.661486983E0,6.260232329E-1
3.359990270E0,-7.390889525E-1,1.570468068E0,6.571773887E-1
3.361990303E0,-7.958993316E-1,1.461122990E0,6.871098280E-1
3.363990336E0,-8.191122413E-1,1.406756163E0,6.999379396E-1
3.365990369E0,-8.618727922E-1,1.296800256E0,7.329246998E-1
3.367990369E0,-8.832530975E-1,1.236935496E0,7.494180202E-1
3.369990335E0,-9.144072533E-1,1.132477522E0,7.793504000E-1
3.371991235E0,-9.333440661E-1,1.042680383E0,8.050068021E-1
3.373991201E0,-9.406744242E-1,9.553266764E-1,8.349391222E-1
3.375991167E0,-9.394527078E-1,9.198964834E-1,8.483782411E-1
3.377991133E0,-9.260136485E-1,8.533121347E-1,8.752563000E-1
3.379991099E0,-9.192941785E-1,8.209362626E-1,8.917496204E-1
3.381991099E0,-8.942486644E-1,7.567954659E-1,9.204603434E-1
3.383991099E0,-8.618727922E-1,7.024284601E-1,9.467275143E-1
3.385991099E0,-8.466011882E-1,6.761612296E-1,9.589447975E-1
3.387991099E0,-8.117818832E-1,6.382876039E-1,9.760490060E-1
3.389991099E0,-7.965102792E-1,6.217942238E-1,9.784924984E-1
3.391991099E0,-7.647452354E-1,5.943052769E-1,9.809359908E-1
3.393991099E0,-7.232064009E-1,5.588751435E-1,9.729946852E-1
3.395991099E0,-7.232064009E-1,5.588751435E-1,9.729946852E-1
3.397991099E0,-7.024369836E-1,5.405491590E-1,9.571122527E-1
3.399991099E0,-6.883870959E-1,5.130602121E-1,9.363427758E-1
3.401991099E0,-6.853327751E-1,4.941233993E-1,9.290124178E-1
3.403991099E0,-6.822784543E-1,4.599149525E-1,9.070212245E-1
3.405991099E0,-6.889979839E-1,4.159326553E-1,8.868627548E-1
3.407991099E0,-6.938849092E-1,3.908871710E-1,8.789214492E-1
3.409991099E0,-7.109891176E-1,3.377418816E-1,8.618172407E-1
3.411991099E0,-7.232064009E-1,3.071986437E-1,8.550977111E-1
3.413991065E0,-7.568039894E-1,2.149579823E-1,8.318848014E-1
3.415991065E0,-7.671887279E-1,1.856364459E-1,8.263871074E-1
3.417991065E0,-7.818495035E-1,1.612018496E-1,8.166131973E-1
3.419991065E0,-7.995646000E-1,1.159978136E-1,7.995089889E-1
3.421991065E0,-8.203339577E-1,7.079378515E-2,7.860699296E-1
3.423991065E0,-8.288860917E-1,4.697003961E-2,7.781287432E-1
3.425991065E0,-8.429360390E-1,1.215072069E-2,7.640787959E-1
3.427991065E0,-8.502663970E-1,-1.717081107E-2,7.512506247E-1
3.429991098E0,-8.551533222E-1,-2.999898233E-2,7.420876622E-1
3.431990664E0,-8.606511354E-1,-6.115311012E-2,7.298703790E-1
3.433990664E0,-8.661488891E-1,-9.047464281E-2,7.188747525E-1
3.435990664E0,-8.685923219E-1,-1.075788662E-1,7.097117901E-1
3.437990664E0,-8.759227395E-1,-1.369004101E-1,6.932184696E-1
3.439990664E0,-8.765335679E-1,-1.478959769E-1,6.858880520E-1
3.441990664E0,-8.777552843E-1,-1.643893272E-1,6.681729555E-1
3.443990664E0,-8.728684187E-1,-1.729414463E-1,6.553447843E-1
3.445990664E0,-8.679814935E-1,-1.735523045E-1,6.492361426E-1
3.447990664E0,-8.630945683E-1,-1.686653942E-1,6.419057846E-1
3.449990664E0,-8.520990014E-1,-1.564480960E-1,6.302993298E-1
3.451990664E0,-8.496555090E-1,-1.503394246E-1,6.278558373E-1
3.453990664E0,-8.331621885E-1,-1.252939552E-1,6.168602705E-1
3.455991197E0,-8.331621885E-1,-1.252939552E-1,6.168602705E-1
3.457991197E0,-8.221665621E-1,-1.026919484E-1,6.119733453E-1
3.459991197E0,-8.142253160E-1,-7.581387460E-2,6.009777784E-1
3.461991197E0,-8.099492788E-1,-6.604003161E-2,5.979234576E-1
3.463991230E0,-8.075057864E-1,-4.954667017E-2,5.869278312E-1
3.465991263E0,-8.123927712E-1,-4.099455476E-2,5.771540403E-1
3.467991296E0,-8.160579205E-1,-4.099455476E-2,5.747105479E-1
3.469991329E0,-8.215557337E-1,-4.588147625E-2,5.649366975E-1
3.471991362E0,-8.319404125E-1,-5.076839775E-2,5.569955111E-1
3.473991395E0,-8.411033750E-1,-6.237484142E-2,5.453890562E-1
3.475991395E0,-8.453794718E-1,-6.726176292E-2,5.441672802E-1
3.477991395E0,-8.502663970E-1,-7.398127764E-2,5.405021310E-1
3.479991361E0,-8.582076430E-1,-8.192252368E-2,5.350043178E-1
3.481991327E0,-8.685923219E-1,-9.352897108E-2,5.276739597E-1
3.483991293E0,-8.734792471E-1,-9.780502319E-2,5.227870345E-1
3.485991259E0,-8.789770603E-1,-1.039136723E-1,5.185109973E-1
3.487991225E0,-8.893617392E-1,-1.069680005E-1,5.130131841E-1
3.489991191E0,-8.893617392E-1,-1.112440601E-1,5.087371469E-1
3.491991624E0,-8.918052316E-1,-1.191853136E-1,5.050719380E-1
3.493991624E0,-8.966921568E-1,-1.210179031E-1,4.995741546E-1
3.495991624E0,-9.009681940E-1,-1.234613657E-1,4.971306622E-1
3.497991624E0,-9.052442908E-1,-1.259048283E-1,4.952980876E-1
3.499991624E0,-9.119638205E-1,-1.259048283E-1,4.922437668E-1
3.501991624E0,-9.113529325E-1,-1.246830970E-1,4.910220206E-1
3.503991624E0,-9.131854773E-1,-1.185744405E-1,4.928546548E-1
3.505992090E0,-9.144072533E-1,-1.155201197E-1,4.934654832E-1
3.507992090E0,-9.113529325E-1,-1.051354036E-1,4.952980876E-1
3.509992123E0,-9.119638205E-1,-8.803118020E-2,5.007958412E-1
3.511992156E0,-9.058551192E-1,-8.192252368E-2,5.026285052E-1
3.513992189E0,-8.997464776E-1,-5.687705055E-2,5.081262589E-1
3.515991689E0,-8.979138732E-1,-4.527061060E-2,5.099588633E-1
3.517991722E0,-8.942486644E-1,-3.305330500E-2,5.099588633E-1
3.519991755E0,-8.856965899E-1,-6.175236776E-3,5.117914677E-1
3.521991788E0,-8.685923219E-1,2.925494686E-2,5.111805797E-1
3.523991788E0,-8.618727922E-1,5.002436414E-2,5.069045424E-1
3.525991421E0,-8.453794718E-1,8.728715032E-2,5.050719380E-1
3.527991387E0,-8.411033750E-1,1.062239707E-1,5.044610500E-1
3.529991353E0,-8.203339577E-1,1.434867531E-1,5.026285052E-1
3.531991319E0,-8.007863164E-1,1.764734685E-1,4.983524084E-1
3.533991285E0,-7.812386155E-1,2.002972066E-1,4.995741546E-1
3.535991251E0,-7.720755935E-1,2.076275945E-1,4.965198338E-1
3.537991217E0,-7.488627434E-1,2.222883552E-1,4.946872294E-1
3.539991217E0,-7.384780049E-1,2.320622057E-1,4.916329086E-1
3.541991217E0,-7.115999460E-1,2.595511377E-1,4.861350954E-1
3.543991217E0,-6.835001707E-1,2.913161218E-1,4.781938791E-1
3.545991217E0,-6.676176786E-1,2.998682559E-1,4.781938791E-1
3.547991217E0,-6.389070153E-1,3.084203899E-1,4.751395285E-1
3.549991217E0,-6.236353517E-1,3.071986437E-1,4.720852077E-1
3.551991217E0,-5.961464047E-1,3.029225767E-1,4.696417451E-1
3.553991217E0,-5.698792338E-1,2.888726890E-1,4.647548199E-1
3.555991217E0,-5.564401746E-1,2.790988386E-1,4.623113573E-1
3.557991217E0,-5.265077949E-1,2.632163465E-1,4.574244320E-1
3.559991217E0,-4.916884899E-1,2.497773021E-1,4.470397234E-1
3.561991217E0,-4.727516770E-1,2.467229813E-1,4.403202236E-1
3.563991217E0,-4.324345589E-1,2.424469143E-1,4.238268733E-1
3.565990750E0,-3.939500451E-1,2.271752954E-1,4.109987020E-1
3.567990750E0,-3.731806278E-1,2.222883552E-1,4.055009186E-1
3.569990716E0,-3.310309350E-1,2.094601840E-1,3.908401430E-1
3.571990716E0,-3.133158386E-1,2.015189528E-1,3.841206133E-1
3.573990716E0,-2.491749823E-1,1.776951998E-1,3.602968752E-1
3.575990716E0,-2.247403711E-1,1.709756702E-1,3.554099500E-1
3.577990716E0,-2.027492225E-1,1.666996330E-1,3.444143534E-1
3.579990716E0,-1.544908732E-1,1.569257826E-1,3.242558241E-1
3.581990716E0,-1.147846356E-1,1.477628052E-1,3.065407276E-1
3.583990716E0,-9.096089005E-2,1.398215592E-1,2.961560488E-1
3.585991082E0,-4.881118611E-2,1.239390671E-1,2.759974599E-1
3.587991082E0,-1.887878962E-2,1.074457020E-1,2.552280724E-1
3.589991082E0,-2.385428641E-3,9.706098586E-2,2.442324758E-1
3.591991082E0,2.204918116E-2,7.018291950E-2,2.216304690E-1
3.593991082E0,3.915340826E-2,4.391571507E-2,2.033044994E-1
3.595991082E0,4.892725125E-2,3.353100643E-2,1.935306489E-1
3.597991082E0,6.175542250E-2,9.707259014E-3,1.764264405E-1
3.599991082E0,6.786407530E-2,-5.564371590E-3,1.666525900E-1
3.601991082E0,7.091840357E-2,-2.938811667E-2,1.501592249E-1
3.603991082E0,7.214012742E-2,-4.893580079E-2,1.324441433E-1
3.605991082E0,7.397272438E-2,-5.748791993E-2,1.232811585E-1
3.607991082E0,7.336185873E-2,-6.909435987E-2,1.067877933E-1
3.609991082E0,6.969667226E-2,-8.375512064E-2,9.090530127E-2
3.611991082E0,6.358801574E-2,-8.803118020E-2,8.540751785E-2
3.613991082E0,5.014898255E-2,-9.597242624E-2,7.196847349E-2
3.615991082E0,4.465119541E-2,-1.014702171E-1,6.463809311E-2
3.617991082E0,2.754696831E-2,-1.081897318E-1,5.547511578E-2
3.619991115E0,9.831875563E-3,-1.161309779E-1,4.997732863E-2
3.621991148E0,5.803220120E-5,-1.161309779E-1,4.753386602E-2
3.623991181E0,-1.826792583E-2,-1.277374178E-1,4.631213844E-2
3.625991214E0,-3.842648119E-2,-1.417873204E-1,4.692300409E-2
3.627991247E0,-5.064378306E-2,-1.558372229E-1,4.875560105E-2
3.629991280E0,-7.141320407E-2,-1.723305881E-1,4.997732863E-2
3.631991280E0,-9.279348701E-2,-1.863804758E-1,5.425338820E-2
3.633991246E0,-1.129520386E-1,-1.882130802E-1,5.730771273E-2
3.635991779E0,-1.184498295E-1,-1.857696176E-1,5.914030969E-2
3.637991745E0,-1.288345307E-1,-1.784392446E-1,6.219463423E-2
3.639991711E0,-1.471604854E-1,-1.570589393E-1,6.402722746E-2
3.641991677E0,-1.654864550E-1,-1.222396344E-1,7.135761529E-2
3.643991643E0,-1.752603054E-1,-1.039136723E-1,7.196847349E-2
3.645991609E0,-1.917536557E-1,-6.481830031E-2,7.685539871E-2
3.647992642E0,-2.137447894E-1,-1.961427368E-2,8.113145083E-2
3.649992642E0,-2.253512442E-1,4.820337985E-3,8.418578655E-2
3.651992642E0,-2.461206615E-1,5.246782675E-2,8.601837605E-2
3.653992642E0,-2.662791908E-1,1.001153216E-1,8.662924170E-2
3.655992642E0,-2.742204666E-1,1.214955971E-1,8.601837605E-2
3.657992642E0,-2.943790257E-1,1.679213494E-1,8.601837605E-2
3.659992642E0,-3.041528761E-1,1.893016398E-1,8.540751785E-2
3.661992642E0,-3.194245100E-1,2.332839370E-1,8.235318959E-2
3.663992642E0,-3.316417933E-1,2.723793089E-1,7.807713002E-2
3.665992675E0,-3.408047855E-1,2.913161218E-1,7.563366741E-2
3.667992708E0,-3.450808525E-1,3.249137402E-1,6.830328703E-2
3.669992741E0,-3.511894941E-1,3.566787243E-1,6.219463423E-2
3.671992774E0,-3.530220985E-1,3.731720746E-1,5.730771273E-2
3.673992807E0,-3.487460315E-1,4.098240137E-1,4.631213844E-2
3.675992840E0,-3.456917107E-1,4.183760881E-1,4.386867583E-2
3.677992873E0,-3.463025391E-1,4.299825430E-1,3.898175433E-2
3.679992873E0,-3.340852559E-1,4.434215724E-1,2.920791134E-2
3.681992839E0,-3.304200768E-1,4.507519603E-1,2.615358494E-2
3.683992805E0,-3.151484430E-1,4.599149525E-1,1.515801065E-2
3.685992771E0,-3.004876673E-1,4.660235941E-1,5.384166259E-3
3.687992737E0,-2.907138467E-1,4.672453403E-1,4.972442985E-4
3.689992703E0,-2.711661458E-1,4.641910195E-1,-1.110919565E-2
3.691992669E0,-2.436771989E-1,4.562497437E-1,-2.210476995E-2
3.693992669E0,-2.149665356E-1,4.513628185E-1,-3.371120989E-2
3.695992135E0,-1.990840286E-1,4.519737065E-1,-3.737640008E-2
3.697992135E0,-1.575451940E-1,4.770191610E-1,-5.081543699E-2
3.699992135E0,-1.337214559E-1,4.849604070E-1,-5.631322414E-2
3.701992135E0,-9.462608397E-2,4.831278324E-1,-6.486533582E-2
3.703992135E0,-7.630012184E-2,4.764083028E-1,-7.097399235E-2
3.705992135E0,-4.086993635E-2,4.470867515E-1,-7.891523838E-2
3.707991101E0,-1.215927303E-2,4.006610215E-1,-8.258043230E-2
3.709991101E0,1.890628017E-3,3.737829626E-1,-8.746735752E-2
3.711991101E0,3.060129285E-2,3.139181435E-1,-9.357600659E-2
3.713991101E0,5.809022859E-2,2.534424961E-1,-1.002955213E-1
3.715991501E0,7.091840357E-2,2.216775119E-1,-1.064041778E-1
3.717991501E0,9.962906688E-2,1.520388573E-1,-1.131236851E-1
3.719991501E0,1.216202155E-1,7.568071038E-2,-1.137345582E-1
3.721991501E0,1.307831854E-1,3.597446531E-2,-1.161780134E-1
3.723991501E0,1.570504010E-1,-4.588147625E-2,-1.216758043E-1
3.725991467E0,1.674351096E-1,-8.497685194E-2,-1.241192594E-1
3.727991433E0,1.894262582E-1,-1.729414463E-1,-1.283953190E-1
3.729991433E0,2.065304816E-1,-2.621277869E-1,-1.283953190E-1
3.731991433E0,2.163043320E-1,-3.061100841E-1,-1.314496398E-1
3.733991433E0,2.425715327E-1,-4.392786920E-1,-1.332822442E-1
3.735991433E0,2.505127788E-1,-4.850935936E-1,-1.326713860E-1
3.737990999E0,2.566214204E-1,-5.321301818E-1,-1.332822442E-1
3.739990999E0,2.725039423E-1,-6.249817610E-1,-1.326713860E-1
3.741991032E0,2.871647179E-1,-7.123354673E-1,-1.314496398E-1
3.743991032E0,2.987711430E-1,-7.489873767E-1,-1.332822442E-1
3.745991032E0,3.164862394E-1,-8.235129118E-1,-1.332822442E-1
3.747991032E0,3.268709481E-1,-8.577213883E-1,-1.308387965E-1
3.749991032E0,3.421425819E-1,-9.285817742E-1,-1.277844608E-1
3.751990665E0,3.604685366E-1,-9.969986677E-1,-1.253409982E-1
3.753990665E0,3.763509989E-1,-1.059306860E0,-1.247301325E-1
3.755990698E0,3.836813867E-1,-1.091071844E0,-1.204540730E-1
3.757990698E0,4.020073414E-1,-1.142384648E0,-1.180106103E-1
3.759990698E0,4.099486172E-1,-1.165597439E0,-1.173997521E-1
3.761990264E0,4.288854301E-1,-1.206525445E0,-1.143454239E-1
3.763990264E0,4.490439892E-1,-1.241955638E0,-1.149562821E-1
3.765990264E0,4.612613022E-1,-1.256616354E0,-1.155671552E-1
3.767990264E0,4.789763689E-1,-1.288381338E0,-1.143454239E-1
3.769990264E0,5.003566742E-1,-1.320146322E0,-1.173997521E-1
3.771990264E0,5.089088082E-1,-1.331141949E0,-1.198432073E-1
3.773990264E0,5.308998823E-1,-1.372069955E0,-1.247301325E-1
3.775989897E0,5.308998823E-1,-1.372069955E0,-1.247301325E-1
3.777989930E0,5.388411880E-1,-1.395282865E0,-1.332822442E-1
3.779989963E0,5.449498296E-1,-1.420328259E0,-1.436669528E-1
3.781989996E0,5.455606580E-1,-1.430713058E0,-1.522190720E-1
3.783989829E0,5.486150384E-1,-1.458812714E0,-1.699341536E-1
3.785989862E0,5.498367548E-1,-1.489966869E0,-1.913144439E-1
3.787989895E0,5.498367548E-1,-1.508292794E0,-2.041426152E-1
3.789989895E0,5.504476428E-1,-1.548609972E0,-2.279663533E-1
3.791989861E0,5.571671128E-1,-1.598700881E0,-2.542335689E-1
3.793989827E0,5.644974709E-1,-1.654289722E0,-2.786681950E-1
3.795989793E0,5.724387765E-1,-1.689108968E0,-2.951615155E-1
3.797990193E0,5.797691941E-1,-1.718430519E0,-3.086005449E-1
3.799990159E0,5.913755894E-1,-1.789901733E0,-3.397547007E-1
3.801990125E0,6.158101559E-1,-1.865038157E0,-3.739631772E-1
3.803990125E0,6.261948943E-1,-1.903522730E0,-3.922891319E-1
3.805990125E0,6.549055576E-1,-1.982935190E0,-4.295518696E-1
3.807990125E0,6.891140342E-1,-2.067845345E0,-4.717015922E-1
3.809990125E0,7.080508471E-1,-2.111216784E0,-4.943036139E-1
3.811990491E0,7.489787936E-1,-2.196127176E0,-5.413402319E-1
3.813990457E0,8.143414259E-1,-2.325630665E0,-6.189200878E-1
3.815989523E0,8.143414259E-1,-2.325630665E0,-6.189200878E-1
3.817989523E0,8.564910889E-1,-2.412984371E0,-6.745088696E-1
3.819989523E0,8.821474314E-1,-2.458188295E0,-7.013869286E-1
3.821989956E0,9.273514748E-1,-2.548596382E0,-7.612516880E-1
3.823989956E0,9.731664062E-1,-2.636560917E0,-8.205056190E-1
3.825989956E0,9.945466518E-1,-2.679321527E0,-8.504380584E-1
3.827989956E0,1.037918091E0,-2.765453577E0,-9.133571982E-1
3.829989956E0,1.079456925E0,-2.854640007E0,-9.768871665E-1
3.831989956E0,1.102059007E0,-2.896789551E0,-1.012928247E0
3.833989956E0,1.149706364E0,-3.012243271E0,-1.116775274E0
3.835989922E0,1.167421460E0,-3.045840502E0,-1.154648900E0
3.837989922E0,1.180860639E0,-3.078827381E0,-1.188857436E0
3.839989922E0,1.204073429E0,-3.139914036E0,-1.262772083E0
3.841989922E0,1.213847280E0,-3.168624401E0,-1.300645709E0
3.843990122E0,1.230340600E0,-3.216882944E0,-1.377003908E0
3.845990122E0,1.238281846E0,-3.252313137E0,-1.451529384E0
3.847990122E0,1.241336226E0,-3.268806458E0,-1.488792181E0
3.849990122E0,1.248055816E0,-3.284078121E0,-1.559652567E0
3.851990155E0,1.243779659E0,-3.281023979E0,-1.625015140E0
3.853990155E0,1.240725398E0,-3.259643555E0,-1.681825638E0
3.855990155E0,1.237671018E0,-3.241928577E0,-1.703205943E0
3.857990155E0,1.232784033E0,-3.185117960E0,-1.742301226E0
3.859990155E0,1.235227585E0,-3.151520252E0,-1.754518509E0
3.861990155E0,1.224231958E0,-3.069664478E0,-1.772233605E0
3.863990155E0,1.213847280E0,-3.026293039E0,-1.771622777E0
3.865899537E0,1.190634370E0,-2.932830572E0,-1.750242591E0
3.867899537E0,1.166810632E0,-2.844866037E0,-1.706260204E0
3.869899537E0,1.151539087E0,-2.803937912E0,-1.672051787E0
3.871899537E0,1.128326178E0,-2.723914862E0,-1.586530685E0
3.873899570E0,1.099615455E0,-2.601130962E0,-1.408157945E0
3.875900436E0,1.099615455E0,-2.601130962E0,-1.408157945E0
3.877900436E0,1.099004626E0,-2.502170563E0,-1.261550307E0
3.879900436E0,1.109389305E0,-2.386106253E0,-1.095394969E0
3.881900436E0,1.119163156E0,-2.325630665E0,-1.008041263E0
3.883900436E0,1.139321685E0,-2.218118429E0,-8.211165071E-1
3.885900469E0,1.152760744E0,-2.174135923E0,-7.337627411E-1
3.887900502E0,1.174141049E0,-2.097777843E0,-5.645530820E-1
3.889900535E0,1.201019168E0,-2.041578293E0,-4.142802358E-1
3.891900568E0,1.208960295E0,-2.018365383E0,-3.513611555E-1
3.893900601E0,1.235227585E0,-1.951170206E0,-2.188033760E-1
3.895900634E0,1.244390488E0,-1.929789901E0,-1.900927126E-1
3.897900634E0,1.249277472E0,-1.913296461E0,-1.699341536E-1
3.899900634E0,1.263327360E0,-1.875422835E0,-1.540516615E-1
3.901900600E0,1.273712039E0,-1.835105777E0,-1.613820493E-1
3.903900566E0,1.279209852E0,-1.815558076E0,-1.723776311E-1
3.905900532E0,1.287761927E0,-1.773408413E0,-2.041426152E-1
3.907900498E0,1.293259740E0,-1.752028108E0,-2.218577117E-1
3.909900464E0,1.297535777E0,-1.714765429E0,-2.524009645E-1
3.911900430E0,1.304255366E0,-1.684832931E0,-2.719486654E-1
3.913900430E0,1.310974836E0,-1.665896177E0,-2.786681950E-1
3.915900430E0,1.312807441E0,-1.659176588E0,-2.756138742E-1
3.917900430E0,1.317083478E0,-1.656733155E0,-2.542335689E-1
3.919900430E0,1.316472650E0,-1.656733155E0,-2.371293306E-1
3.921900430E0,1.320137858E0,-1.673837423E0,-1.974231005E-1
3.923900430E0,1.323192120E0,-1.706824064E0,-1.516081989E-1
3.925899496E0,1.324413896E0,-1.731869459E0,-1.247301325E-1
3.927899496E0,1.329911590E0,-1.787458301E0,-6.791966408E-2
3.929899496E0,1.333576918E0,-1.822277546E0,-4.287418723E-2
3.931899529E0,1.342128992E0,-1.895581365E0,6.605897099E-3
3.933899562E0,1.366563559E0,-2.018976212E0,6.585982442E-2
3.935899595E0,1.366563559E0,-2.018976212E0,6.585982442E-2
3.937899628E0,1.386722207E0,-2.113049507E0,9.884654731E-2
3.939899661E0,1.407491565E0,-2.218729258E0,1.251137555E-1
3.941899694E0,1.420319676E0,-2.271263599E0,1.342767328E-1
3.943899727E0,1.450252056E0,-2.381219149E0,1.562678814E-1
3.945899727E0,1.480795383E0,-2.485066414E0,1.733721197E-1
3.947899693E0,1.497288704E0,-2.533324718E0,1.825350821E-1
3.949899659E0,1.539438486E0,-2.630452394E0,1.965849847E-1
3.951899625E0,1.562040448E0,-2.676878214E0,2.033044994E-1
3.953899591E0,1.631679058E0,-2.816155195E0,2.149109542E-1
3.955899557E0,1.654281139E0,-2.860137701E0,2.185761482E-1
3.957899523E0,1.678715706E0,-2.900454760E0,2.204087377E-1
3.959899489E0,1.730028391E0,-2.970093489E0,2.167435437E-1
3.961899489E0,1.777065039E0,-3.020184278E0,2.149109542E-1
3.963899489E0,1.797834516E0,-3.044008017E0,2.130783498E-1
3.965899489E0,1.836318970E0,-3.081881762E0,2.039153725E-1
3.967899089E0,1.864418745E0,-3.104483604E0,1.916980594E-1
3.969899089E0,1.876636147E0,-3.108759880E0,1.813133508E-1
3.971899089E0,1.893129349E0,-3.103261948E0,1.605439484E-1
3.973899089E0,1.898627162E0,-3.080659866E0,1.403853893E-1
3.975899089E0,1.898016334E0,-3.062944889E0,1.275572181E-1
3.977899089E0,1.890075088E0,-3.021405935E0,1.025117412E-1
3.979899089E0,1.880301237E0,-2.994528055E0,9.151616693E-2
