"Time (s)","Acceleration x (m/s^2)","Acceleration y (m/s^2)","Acceleration z (m/s^2)"
0.000000000E0,-1.569656372E0,3.021453857E0,8.866729736E0
2.502442000E-3,-1.573242188E0,3.083709717E0,8.955322266E0
5.004883000E-3,-1.537338257E0,3.088500977E0,8.881103516E0
7.537842000E-3,-1.542129517E0,3.084899902E0,8.818847656E0
1.007080100E-2,-1.576843262E0,3.098068237E0,8.815261841E0
1.257324300E-2,-1.617538452E0,3.143554688E0,8.804489136E0
1.507568400E-2,-1.635498047E0,3.210601807E0,8.761383057E0
1.760864300E-2,-1.637893677E0,3.165115356E0,8.751815796E0
2.014160200E-2,-1.678588867E0,3.186660767E0,8.744628906E0
2.264404300E-2,-1.690567017E0,3.216583252E0,8.709915161E0
2.514648500E-2,-1.709716797E0,3.132781982E0,8.654846191E0
2.767944400E-2,-1.752807617E0,3.066940308E0,8.708709717E0
3.018188500E-2,-1.793518066E0,3.028640747E0,8.720687866E0
3.271484400E-2,-1.789916992E0,2.974777222E0,8.729064941E0
3.524780300E-2,-1.773162842E0,2.958007812E0,8.745819092E0
3.775024500E-2,-1.670211792E0,2.953216553E0,8.753005981E0
4.028320400E-2,-1.537338257E0,2.972381592E0,8.810470581E0
4.278564500E-2,-1.601974487E0,2.972381592E0,8.815261841E0
4.531860400E-2,-1.665420532E0,2.966384888E0,8.785324097E0
4.782104500E-2,-1.635498047E0,3.004699707E0,8.761383057E0
5.035400400E-2,-1.585220337E0,2.941253662E0,8.776947021E0
5.288696300E-2,-1.532546997E0,2.950836182E0,8.738647461E0
5.538940500E-2,-1.421218872E0,3.011886597E0,8.702728271E0
5.792236400E-2,-1.330230713E0,3.004699707E0,8.654846191E0
6.042480500E-2,-1.211715698E0,3.003494263E0,8.551895142E0
6.295776400E-2,-8.466033936E-1,3.035827637E0,8.589004517E0
6.546020600E-2,-8.130950928E-1,3.056167603E0,8.633300781E0
6.799316500E-2,-8.382263184E-1,3.069335938E0,8.547103882E0
7.049560600E-2,-7.352752686E-1,3.074127197E0,8.469299316E0
7.299804700E-2,-6.203613281E-1,3.086105347E0,8.432189941E0
7.553100600E-2,-7.256927490E-1,3.035827637E0,8.466903687E0
7.806396500E-2,-8.226623535E-1,2.995117188E0,8.425003052E0
8.056640700E-2,-8.645629883E-1,2.980758667E0,8.387893677E0
8.309936600E-2,-9.675140381E-1,2.978363037E0,8.407043457E0
8.560180700E-2,-1.059692383E0,2.996322632E0,8.438171387E0
8.813476600E-2,-1.103988647E0,2.932876587E0,8.440567017E0
9.063720700E-2,-1.177001953E0,2.930480957E0,8.548309326E0
9.317016600E-2,-1.253616333E0,2.932876587E0,8.589004517E0
9.570312500E-2,-1.261993408E0,2.895767212E0,8.587799072E0
9.820556700E-2,-1.247634888E0,2.910125732E0,8.630905151E0
1.007385260E-1,-1.227279663E0,2.843093872E0,8.701538086E0
1.032409670E-1,-1.211715698E0,2.773651123E0,8.725479126E0
1.057739260E-1,-1.181793213E0,2.770065308E0,8.653640747E0
1.082763680E-1,-1.130325317E0,2.741333008E0,8.676391602E0
1.108093270E-1,-1.032150269E0,2.692260742E0,8.657241821E0
1.133117680E-1,-9.567413330E-1,2.655151367E0,8.644073486E0
1.158447270E-1,-8.633728027E-1,2.644378662E0,8.647659302E0
1.183776860E-1,-7.508392334E-1,2.668319702E0,8.633300781E0
1.208801270E-1,-6.347198486E-1,2.606063843E0,8.630905151E0
1.234130860E-1,-5.652923584E-1,2.580917358E0,8.633300781E0
1.259460450E-1,-4.623413086E-1,2.560577393E0,8.594985962E0
1.284790040E-1,-3.797302246E-1,2.624023438E0,8.577026367E0
1.309814460E-1,-3.426208496E-1,2.607254028E0,8.584213257E0
1.335144050E-1,-3.234710693E-1,2.588104248E0,8.555480957E0
1.360168460E-1,-3.174896240E-1,2.633590698E0,8.589004517E0
1.385498050E-1,-2.959442139E-1,2.589309692E0,8.614135742E0
1.410522470E-1,-2.720031738E-1,2.603668213E0,8.659637451E0
1.435852060E-1,-2.229156494E-1,2.576141357E0,8.666809082E0
1.460876470E-1,-2.097473145E-1,2.530639648E0,8.665618896E0
1.486206060E-1,-2.133331299E-1,2.524658203E0,8.659637451E0
1.511535650E-1,-2.229156494E-1,2.491149902E0,8.620132446E0
1.536560060E-1,-2.408752441E-1,2.442062378E0,8.571044922E0
1.561889650E-1,-2.564392090E-1,2.488754272E0,8.572250366E0
1.586914070E-1,-2.995300293E-1,2.492340088E0,8.567459106E0
1.612243660E-1,-3.605804443E-1,2.495925903E0,8.547103882E0
1.637268070E-1,-3.821258545E-1,2.536636353E0,8.513580322E0
1.662597660E-1,-4.862823486E-1,2.530639648E0,8.489639282E0
1.687622070E-1,-5.114135742E-1,2.562973022E0,8.454925537E0
1.712951660E-1,-5.509185791E-1,2.545013428E0,8.404647827E0
1.737976080E-1,-5.473327637E-1,2.529449463E0,8.338806152E0
1.763305670E-1,-6.059875488E-1,2.523468018E0,8.336410522E0
1.788330080E-1,-6.933746338E-1,2.493530273E0,8.274169922E0
1.813659670E-1,-6.945800781E-1,2.480361938E0,8.300506592E0
1.838684090E-1,-7.388610840E-1,2.443252563E0,8.262191772E0
1.864013680E-1,-7.544250488E-1,2.408538818E0,8.287338257E0
1.889038090E-1,-8.059082031E-1,2.367843628E0,8.366348267E0
1.914367680E-1,-7.783660889E-1,2.321151733E0,8.395080566E0
1.939392090E-1,-7.197113037E-1,2.294815063E0,8.390289307E0
1.964721680E-1,-7.604217529E-1,2.245742798E0,8.344787598E0
1.990051270E-1,-7.316894531E-1,2.209823608E0,8.330429077E0
2.015075690E-1,-7.364807129E-1,2.163131714E0,8.249023438E0
2.040405280E-1,-7.687988281E-1,2.109268188E0,8.186782837E0
2.065429690E-1,-7.903442383E-1,2.048217773E0,8.142486572E0
2.090759280E-1,-8.190765381E-1,1.975189209E0,8.124526978E0
2.115783700E-1,-9.100494385E-1,1.894989014E0,8.043121338E0
2.141113290E-1,-9.830780029E-1,1.855484009E0,7.974884033E0
2.166137700E-1,-9.986419678E-1,1.878219604E0,7.922210693E0
2.191467290E-1,-1.026168823E0,1.851882935E0,7.905456543E0
2.216491700E-1,-1.092010498E0,1.831542969E0,7.808486938E0
2.241821290E-1,-1.102783203E0,1.859069824E0,7.797714233E0
2.266845710E-1,-1.159042358E0,1.891387939E0,7.689987183E0
2.292175300E-1,-1.247634888E0,1.944061279E0,7.667236328E0
2.317199710E-1,-1.344604492E0,1.922515869E0,7.631317139E0
2.342529300E-1,-1.467895508E0,1.912948608E0,7.637313843E0
2.367553720E-1,-1.511001587E0,1.960830688E0,7.565475464E0
2.392883310E-1,-1.511001587E0,1.982376099E0,7.598999023E0
2.418212900E-1,-1.513397217E0,2.044616699E0,7.587036133E0
2.443237310E-1,-1.436782837E0,2.002731323E0,7.528366089E0
2.468566900E-1,-1.391281128E0,1.966812134E0,7.510421753E0
2.493591310E-1,-1.350585938E0,2.005126953E0,7.476898193E0
2.518920900E-1,-1.253616333E0,2.026672363E0,7.424224854E0
2.543945320E-1,-1.166229248E0,1.958435059E0,7.405075073E0
2.569274910E-1,-1.075256348E0,1.936889648E0,7.364364624E0
2.594299320E-1,-9.675140381E-1,1.920120239E0,7.360778809E0
2.619628910E-1,-8.502044678E-1,1.897384644E0,7.306915283E0
2.644653320E-1,-7.376708984E-1,1.859069824E0,7.278182983E0
2.669982910E-1,-6.215515137E-1,1.753723145E0,7.238677979E0
2.695007330E-1,-5.281829834E-1,1.760910034E0,7.251846313E0
2.720336920E-1,-4.336090088E-1,1.733383179E0,7.251846313E0
2.745361330E-1,-4.012908936E-1,1.645996094E0,7.176422119E0
2.770690920E-1,-4.084625244E-1,1.639999390E0,7.218322754E0
2.795715340E-1,-3.964996338E-1,1.635208130E0,7.213531494E0
2.821044930E-1,-4.659271240E-1,1.605285645E0,7.226699829E0
2.846069340E-1,-5.437469482E-1,1.622039795E0,7.282958984E0
2.871398930E-1,-6.047973633E-1,1.571762085E0,7.322463989E0
2.896728520E-1,-6.933746338E-1,1.533462524E0,7.472106934E0
2.921752930E-1,-7.664031982E-1,1.468811035E0,7.575057983E0
2.947082520E-1,-8.897094727E-1,1.462829590E0,7.662445068E0
2.972106940E-1,-1.008209229E0,1.419738770E0,7.794128418E0
2.997436530E-1,-1.138702393E0,1.349105835E0,7.911437988E0
3.022460940E-1,-1.309890747E0,1.328750610E0,7.978485107E0
3.047790530E-1,-1.485855103E0,1.298828125E0,8.019180298E0
3.072814950E-1,-1.684570312E0,1.288055420E0,8.119735718E0
3.098144540E-1,-1.770767212E0,1.250946045E0,8.215515137E0
3.123168950E-1,-1.841400146E0,1.291641235E0,8.345993042E0
3.148498540E-1,-1.969482422E0,1.338333130E0,8.404647827E0
3.173522950E-1,-1.999420166E0,1.341918945E0,8.451339722E0
3.198852540E-1,-2.003005981E0,1.288055420E0,8.501617432E0
3.223876960E-1,-1.968292236E0,1.329956055E0,8.563858032E0
3.249206550E-1,-1.938369751E0,1.373046875E0,8.482467651E0
3.274230960E-1,-1.903640747E0,1.341918945E0,8.460906982E0
3.299560550E-1,-1.856964111E0,1.347915649E0,8.425003052E0
3.324584970E-1,-1.775558472E0,1.320373535E0,8.357955933E0
3.349914560E-1,-1.683380127E0,1.283264160E0,8.258605957E0
3.375244150E-1,-1.612747192E0,1.339538574E0,8.172409058E0
3.400268560E-1,-1.521774292E0,1.362274170E0,8.119735718E0
3.425598150E-1,-1.446350098E0,1.344314575E0,8.031158447E0
3.450622560E-1,-1.330230713E0,1.370651245E0,7.882720947E0
3.475952150E-1,-1.227279663E0,1.402984619E0,7.759414673E0
3.500976570E-1,-1.141098022E0,1.358688354E0,7.644485474E0
3.526306160E-1,-1.071655273E0,1.326370239E0,7.591812134E0
3.551330570E-1,-1.046524048E0,1.252136230E0,7.511611938E0
3.576660160E-1,-1.018981934E0,1.180313110E0,7.467315674E0
3.601684570E-1,-1.082427979E0,1.019912720E0,7.402679443E0
3.627014160E-1,-1.112365723E0,8.582916260E-1,7.355987549E0
3.652038580E-1,-1.149475098E0,7.098541260E-1,7.382324219E0
3.677368170E-1,-1.253616333E0,6.320495605E-1,7.451751709E0
3.702392580E-1,-1.362564087E0,5.243072510E-1,7.473312378E0
3.727722170E-1,-1.442764282E0,4.046020508E-1,7.448165894E0
3.752746590E-1,-1.519378662E0,3.519287109E-1,7.535552979E0
3.778076180E-1,-1.641479492E0,3.507232666E-1,7.616958618E0
3.803405770E-1,-1.744430542E0,3.627014160E-1,7.712722778E0
3.828430180E-1,-1.807876587E0,3.818511963E-1,7.758209229E0
3.853759770E-1,-1.867736816E0,3.986053467E-1,7.792938232E0
3.878784180E-1,-1.943145752E0,3.842468262E-1,7.865951538E0
3.904113770E-1,-1.973083496E0,3.231964111E-1,7.944961548E0
3.929138190E-1,-1.965896606E0,3.016510010E-1,8.034744263E0
3.954467780E-1,-2.035324097E0,2.585449219E-1,8.122131348E0
3.979492190E-1,-2.067642212E0,1.998901367E-1,8.195159912E0
4.004821780E-1,-2.073638916E0,1.196899414E-1,8.245437622E0
4.029846200E-1,-2.068847656E0,1.256713867E-1,8.357955933E0
4.055175790E-1,-2.086807251E0,1.292572021E-1,8.374725342E0
4.080505380E-1,-2.120315552E0,1.843261719E-1,8.416625977E0
4.105834970E-1,-2.067642212E0,2.693176270E-1,8.500411987E0
4.130859380E-1,-2.035324097E0,3.100280762E-1,8.511184692E0
4.156188970E-1,-2.007797241E0,4.189605713E-1,8.606964111E0
4.181213380E-1,-1.883300781E0,4.859924316E-1,8.617736816E0
4.206542970E-1,-1.770767212E0,5.422668457E-1,8.621322632E0
4.231567390E-1,-1.715698242E0,5.913391113E-1,8.761383057E0
4.256896980E-1,-1.593597412E0,6.356353760E-1,8.814056396E0
4.282226570E-1,-1.527755737E0,6.595764160E-1,8.810470581E0
4.307250980E-1,-1.437973022E0,6.942901611E-1,8.836807251E0
4.332580570E-1,-1.408050537E0,6.763305664E-1,8.855957031E0
4.357604990E-1,-1.378112793E0,6.248626709E-1,8.900253296E0
4.382934570E-1,-1.347000122E0,5.985260010E-1,8.889480591E0
4.407958990E-1,-1.284744263E0,6.033172607E-1,8.842788696E0
4.432983400E-1,-1.260803223E0,5.374755859E-1,8.744628906E0
4.458312990E-1,-1.251220703E0,5.302886963E-1,8.699142456E0
4.483642580E-1,-1.266784668E0,4.716339111E-1,8.650054932E0
4.508667000E-1,-1.393676758E0,3.124237061E-1,8.401062012E0
4.533996590E-1,-1.546905518E0,1.077117920E-1,8.116149902E0
4.559021000E-1,-1.738449097E0,-2.636718750E-2,7.778564453E0
4.584350590E-1,-1.792312622E0,-1.712036133E-1,7.521194458E0
4.609375000E-1,-1.692962646E0,-2.969055176E-1,7.305709839E0
4.634704590E-1,-1.615142822E0,-4.621124268E-1,7.175231934E0
4.659729010E-1,-1.520568848E0,-5.327301025E-1,7.304519653E0
4.685058600E-1,-1.512191772E0,-6.201171875E-1,7.400283813E0
4.710388190E-1,-1.544509888E0,-7.194824219E-1,7.454147339E0
4.735412600E-1,-1.648666382E0,-8.068695068E-1,7.385910034E0
4.760742190E-1,-1.803085327E0,-9.481353760E-1,7.318878174E0
4.785766610E-1,-1.989837646E0,-1.125305176E0,7.245849609E0
4.811096200E-1,-2.125106812E0,-1.290496826E0,7.261413574E0
4.836120610E-1,-2.242431641E0,-1.375488281E0,7.320083618E0
4.861450200E-1,-2.354949951E0,-1.502380371E0,7.470916748E0
4.886474610E-1,-2.431564331E0,-1.605331421E0,7.654067993E0
4.911804200E-1,-2.504592896E0,-1.745391846E0,7.950942993E0
4.936828620E-1,-2.559661865E0,-1.805252075E0,8.178390503E0
4.962158210E-1,-2.657821655E0,-1.850738525E0,8.401062012E0
4.987182620E-1,-2.714080811E0,-1.850738525E0,8.580627441E0
5.012512210E-1,-2.755981445E0,-1.856735229E0,8.749420166E0
5.037536630E-1,-2.755981445E0,-1.804061890E0,8.915817261E0
5.062866220E-1,-2.805068970E0,-1.646041870E0,9.061859131E0
5.087890630E-1,-2.869705200E0,-1.513153076E0,9.154037476E0
5.113220220E-1,-2.902023315E0,-1.375488281E0,9.332397461E0
5.138244630E-1,-2.948715210E0,-1.169586182E0,9.495208740E0
5.163574220E-1,-2.965469360E0,-1.016357422E0,9.613723755E0
5.188903810E-1,-2.931961060E0,-9.110107422E-1,9.774139404E0
5.213928230E-1,-2.842178345E0,-8.296203613E-1,9.982421875E0
5.239257820E-1,-2.783508301E0,-7.925109863E-1,1.016198730E1
5.264282230E-1,-2.651840210E0,-6.775817871E-1,1.030683899E1
5.289611820E-1,-2.572830200E0,-6.189270020E-1,1.039543152E1
5.314636240E-1,-2.532119751E0,-5.734405518E-1,1.052111816E1
5.339965820E-1,-2.386077881E0,-4.597167969E-1,1.062646484E1
5.364990240E-1,-2.175384521E0,-3.376007080E-1,1.071864319E1
5.390319830E-1,-2.008987427E0,-2.705688477E-1,1.085032654E1
5.415344240E-1,-1.775558472E0,-2.119140625E-1,1.094369507E1
5.440673830E-1,-1.591201782E0,-1.568450928E-1,1.098919678E1
5.465698250E-1,-1.388900757E0,-1.161499023E-1,1.106581116E1
5.491027840E-1,-1.162643433E0,-1.245269775E-1,1.119270325E1
5.516052250E-1,-9.890594482E-1,-1.269226074E-1,1.118312073E1
5.541381840E-1,-8.418121338E-1,-1.652221680E-1,1.120706177E1
5.566406250E-1,-7.197113037E-1,-1.783905029E-1,1.120587158E1
5.591735840E-1,-6.000061035E-1,-2.645874023E-1,1.110411072E1
5.616760260E-1,-5.640869141E-1,-3.399963379E-1,1.106341553E1
5.642089850E-1,-6.335296631E-1,-4.860534668E-1,1.094250488E1
5.667419440E-1,-6.622467041E-1,-5.231628418E-1,1.087547302E1
5.692443850E-1,-7.412567139E-1,-5.973815918E-1,1.085990906E1
5.717773440E-1,-8.154754639E-1,-6.775817871E-1,1.082040405E1
5.742797860E-1,-8.286437988E-1,-7.039184570E-1,1.080004883E1
5.768127450E-1,-8.753356934E-1,-7.482147217E-1,1.084793091E1
5.793151860E-1,-9.064636230E-1,-8.523559570E-1,1.084553528E1
5.818481450E-1,-9.998321533E-1,-9.744720459E-1,1.088624573E1
5.843505860E-1,-1.097991943E0,-1.041503906E0,1.093652344E1
5.868835450E-1,-1.138702393E0,-1.072631836E0,1.103347778E1
5.893859870E-1,-1.248825073E0,-1.070236206E0,1.110411072E1
5.919189460E-1,-1.429595947E0,-1.104949951E0,1.121783447E1
5.944213870E-1,-1.594787598E0,-1.048690796E0,1.130761719E1
5.969543460E-1,-1.721679688E0,-9.720764160E-1,1.140338135E1
5.994567880E-1,-1.812667847E0,-9.026336670E-1,1.160809326E1
6.019897470E-1,-1.849777222E0,-7.625732422E-1,1.177688599E1
6.044921880E-1,-1.896469116E0,-6.775817871E-1,1.191215515E1
6.070251470E-1,-1.981460571E0,-5.913848877E-1,1.204025269E1
6.095581060E-1,-2.001815796E0,-5.099945068E-1,1.218748474E1
6.120605470E-1,-2.061660767E0,-4.776611328E-1,1.233712769E1
6.145935060E-1,-2.080810547E0,-4.441528320E-1,1.240296936E1
6.170959480E-1,-2.137084961E0,-4.154205322E-1,1.240536499E1
6.196289070E-1,-2.147857666E0,-3.914794922E-1,1.241253662E1
6.221313480E-1,-2.169403076E0,-3.902740479E-1,1.238740540E1
6.246643070E-1,-2.210098267E0,-4.585113525E-1,1.233354187E1
6.271667490E-1,-2.257995605E0,-4.800567627E-1,1.227726746E1
6.296997070E-1,-2.280731201E0,-4.668884277E-1,1.218150330E1
6.322021490E-1,-2.353759766E0,-3.759155273E-1,1.204263306E1
6.347351080E-1,-2.363327026E0,-3.902740479E-1,1.194447327E1
6.372375490E-1,-2.342987061E0,-4.070434570E-1,1.186068726E1
6.397705080E-1,-2.381286621E0,-4.309844971E-1,1.173258972E1
6.422729500E-1,-2.366928101E0,-4.285888672E-1,1.165478516E1
6.448059090E-1,-2.348968506E0,-4.429473877E-1,1.160090637E1
6.473083500E-1,-2.327423096E0,-5.159759521E-1,1.157936096E1
6.498413090E-1,-2.286712646E0,-5.147705078E-1,1.158773804E1
6.523437500E-1,-2.321441650E0,-4.788665771E-1,1.165716553E1
6.548767090E-1,-2.314254761E0,-4.537200928E-1,1.170625305E1
6.574096680E-1,-2.328613281E0,-4.872436523E-1,1.176969910E1
6.599121100E-1,-2.394454956E0,-4.226074219E-1,1.184152222E1
6.624450690E-1,-2.413604736E0,-3.842926025E-1,1.187025452E1
6.649475100E-1,-2.439941406E0,-3.854980469E-1,1.191694641E1
6.674804690E-1,-2.443542480E0,-3.998565674E-1,1.201750183E1
6.699829110E-1,-2.441146851E0,-3.890838623E-1,1.202468872E1
6.725158700E-1,-2.442337036E0,-3.854980469E-1,1.206419373E1
6.750183110E-1,-2.466278076E0,-4.106292725E-1,1.206538391E1
6.775512700E-1,-2.436355591E0,-3.687286377E-1,1.201031494E1
6.800537110E-1,-2.429168701E0,-3.507690430E-1,1.198637390E1
6.825866700E-1,-2.451919556E0,-3.423919678E-1,1.196601868E1
6.850891120E-1,-2.410018921E0,-3.627471924E-1,1.191455078E1
6.876220710E-1,-2.327423096E0,-3.627471924E-1,1.180201721E1
6.901245120E-1,-2.265167236E0,-3.423919678E-1,1.169667053E1
6.926574710E-1,-2.199325562E0,-3.842926025E-1,1.158415222E1
6.951904300E-1,-2.134689331E0,-3.459930420E-1,1.141177368E1
6.977233890E-1,-2.066452026E0,-3.890838623E-1,1.132318115E1
7.002258310E-1,-2.018569946E0,-3.831024170E-1,1.114959717E1
7.027587900E-1,-2.010192871E0,-3.435974121E-1,1.101074219E1
7.052917490E-1,-1.933578491E0,-3.148651123E-1,1.086589050E1
7.077941900E-1,-1.861755371E0,-3.028869629E-1,1.073779297E1
7.103271490E-1,-1.791122437E0,-2.849273682E-1,1.061090088E1
7.128295900E-1,-1.794708252E0,-3.447875977E-1,1.051992798E1
7.153625490E-1,-1.776748657E0,-3.974609375E-1,1.044331360E1
7.178649910E-1,-1.722885132E0,-4.405517578E-1,1.036430359E1
7.203979500E-1,-1.713302612E0,-5.854034424E-1,1.040022278E1
7.229003910E-1,-1.715698242E0,-6.548461914E-1,1.033796692E1
7.254333500E-1,-1.749221802E0,-7.422332764E-1,1.030804443E1
7.279357910E-1,-1.780349731E0,-7.925109863E-1,1.036311340E1
7.304687500E-1,-1.782745361E0,-8.990478516E-1,1.037268066E1
7.329711920E-1,-1.827026367E0,-9.265747070E-1,1.029846191E1
7.355041510E-1,-1.787521362E0,-9.589080811E-1,1.026135254E1
7.380065920E-1,-1.865341187E0,-9.684753418E-1,1.022065735E1
7.405395510E-1,-1.896469116E0,-9.696807861E-1,1.021226501E1
7.430725100E-1,-1.970687866E0,-9.672851562E-1,1.021107483E1
7.455749520E-1,-2.025756836E0,-9.768524170E-1,1.024099731E1
7.481079110E-1,-2.066452026E0,-9.996032715E-1,1.023382568E1
7.506103520E-1,-2.151443481E0,-1.075027466E0,1.024699402E1
7.531433110E-1,-2.174194336E0,-1.069030762E0,1.027212524E1
7.556457520E-1,-2.208908081E0,-1.104949951E0,1.027931213E1
7.581787110E-1,-2.214889526E0,-1.085800171E0,1.037388611E1
7.606811530E-1,-2.204116821E0,-1.098968506E0,1.042895508E1
7.632141120E-1,-2.155044556E0,-1.073822021E0,1.045887756E1
7.657165530E-1,-2.156234741E0,-1.027130127E0,1.049240112E1
7.682495120E-1,-2.095184326E0,-9.828491211E-1,1.052711487E1
7.707519540E-1,-2.066452026E0,-9.577026367E-1,1.055105591E1
7.732849130E-1,-2.056869507E0,-9.050292969E-1,1.057020569E1
7.757873540E-1,-1.993423462E0,-8.356018066E-1,1.056541443E1
7.783203130E-1,-1.921600342E0,-7.685699463E-1,1.061689758E1
7.808227540E-1,-1.892868042E0,-6.835632324E-1,1.064921570E1
7.833557130E-1,-1.886886597E0,-6.285095215E-1,1.066477966E1
7.858581550E-1,-1.855758667E0,-6.129455566E-1,1.059773254E1
7.883911140E-1,-1.818649292E0,-5.554809570E-1,1.061689758E1
7.908935550E-1,-1.755203247E0,-5.291442871E-1,1.060133362E1
7.934265140E-1,-1.658233643E0,-5.458984375E-1,1.053668213E1
7.959594730E-1,-1.574447632E0,-6.320953369E-1,1.041697693E1
7.984619150E-1,-1.526565552E0,-6.512451172E-1,1.029008484E1
8.009948740E-1,-1.433181763E0,-6.979370117E-1,1.025416565E1
8.034973150E-1,-1.345794678E0,-7.781372070E-1,1.010093689E1
8.060302740E-1,-1.269180298E0,-8.918609619E-1,9.928558350E0
8.085327150E-1,-1.216506958E0,-9.277801514E-1,9.869903564E0
8.110656740E-1,-1.096801758E0,-9.924163818E-1,9.750198364E0
8.135681160E-1,-1.048919678E0,-1.066635132E0,9.634078979E0
8.161010750E-1,-9.758911133E-1,-1.142059326E0,9.523941040E0
8.186035160E-1,-8.825225830E-1,-1.237823486E0,9.455703735E0
8.211364750E-1,-7.879486084E-1,-1.282119751E0,9.403030396E0
8.236389160E-1,-7.783660889E-1,-1.382675171E0,9.383880615E0
8.261718750E-1,-7.340850830E-1,-1.453308105E0,9.315643311E0
8.286743170E-1,-7.340850830E-1,-1.565826416E0,9.255783081E0
8.312072760E-1,-7.340850830E-1,-1.611328125E0,9.251007080E0
8.337097170E-1,-7.807617188E-1,-1.765747070E0,9.195938110E0
8.362426760E-1,-8.645629883E-1,-1.811233521E0,9.164810181E0
8.387756350E-1,-9.076538086E-1,-1.881866455E0,9.067840576E0
8.412780770E-1,-9.411773682E-1,-1.981231689E0,9.083404541E0
8.438110360E-1,-1.020187378E0,-2.005172729E0,9.057067871E0
8.463134770E-1,-1.084823608E0,-2.012344360E0,9.019958496E0
8.488464360E-1,-1.205734253E0,-2.047073364E0,9.098968506E0
8.513488770E-1,-1.289535522E0,-2.039886475E0,9.145660400E0
8.538818360E-1,-1.350585938E0,-2.015945435E0,9.151641846E0
8.563842780E-1,-1.421218872E0,-2.025512695E0,9.192337036E0
8.588867190E-1,-1.472686768E0,-2.032699585E0,9.290512085E0
8.614196780E-1,-1.573242188E0,-2.063827515E0,9.309661865E0
8.639526370E-1,-1.628311157E0,-2.062622070E0,9.346771240E0
8.664550790E-1,-1.710906982E0,-2.038681030E0,9.394653320E0
8.689880380E-1,-1.829421997E0,-2.073410034E0,9.416198730E0
8.714904790E-1,-1.879699707E0,-2.140441895E0,9.505981445E0
8.740234380E-1,-1.913223267E0,-2.175155640E0,9.538299561E0
8.765258790E-1,-1.977859497E0,-2.157196045E0,9.655624390E0
8.790588380E-1,-2.068847656E0,-2.160797119E0,9.687942505E0
8.815612800E-1,-2.077224731E0,-2.211074829E0,9.725051880E0
8.840942390E-1,-2.093978882E0,-2.217056274E0,9.770538330E0
8.866271980E-1,-2.087997437E0,-2.199096680E0,9.816024780E0
8.891296390E-1,-2.083206177E0,-2.246978760E0,9.810043335E0
8.916625980E-1,-2.056869507E0,-2.215850830E0,9.792083740E0
8.941650400E-1,-1.976669312E0,-2.211074829E0,9.738220215E0
8.966979990E-1,-1.991027832E0,-2.266143799E0,9.732238770E0
8.992004400E-1,-2.000610352E0,-2.309234619E0,9.692733765E0
9.017333990E-1,-1.980255127E0,-2.337966919E0,9.654418945E0
9.042358400E-1,-1.943145752E0,-2.357116699E0,9.666397095E0
9.067687990E-1,-1.929977417E0,-2.367889404E0,9.667587280E0
9.092712410E-1,-1.884490967E0,-2.352325439E0,9.586181641E0
9.118042000E-1,-1.828231812E0,-2.369079590E0,9.456909180E0
9.143066410E-1,-1.744430542E0,-2.409790039E0,9.404235840E0
9.168396000E-1,-1.722885132E0,-2.468444824E0,9.320434570E0
9.193420410E-1,-1.709716797E0,-2.494781494E0,9.303665161E0
9.218750000E-1,-1.682189941E0,-2.574981689E0,9.272552490E0
9.243774420E-1,-1.710906982E0,-2.722229004E0,9.218673706E0
9.269104010E-1,-1.732467651E0,-2.815612793E0,9.201919556E0
9.294128420E-1,-1.722885132E0,-2.929336548E0,9.160018921E0
9.319458010E-1,-1.733657837E0,-3.019119263E0,9.119323730E0
9.344787600E-1,-1.775558472E0,-3.119674683E0,9.120513916E0
9.369812020E-1,-1.812667847E0,-3.141220093E0,9.130096436E0
9.395141610E-1,-1.919204712E0,-3.239379883E0,9.148056030E0
9.420166020E-1,-2.007797241E0,-3.222625732E0,9.204315186E0
9.445495610E-1,-2.123916626E0,-3.202270508E0,9.262969971E0
9.470520020E-1,-2.316650391E0,-3.274093628E0,9.245010376E0
9.495849610E-1,-2.438751221E0,-3.254943848E0,9.355148315E0
9.520874030E-1,-2.599166870E0,-3.238189697E0,9.450912476E0
9.546203620E-1,-2.795486450E0,-3.257339478E0,9.545486450E0
9.571228030E-1,-2.994201660E0,-3.332748413E0,9.677169800E0
9.596557620E-1,-3.183349609E0,-3.347122192E0,9.731033325E0
9.621582040E-1,-3.336578369E0,-3.363876343E0,9.868698120E0
9.646911630E-1,-3.516143799E0,-3.397399902E0,9.878280640E0
9.671936040E-1,-3.710067749E0,-3.445281982E0,9.953704834E0
9.697265630E-1,-3.912384033E0,-3.502746582E0,1.002432251E1
9.722290040E-1,-4.052444458E0,-3.505142212E0,1.005065918E1
9.747619630E-1,-4.174545288E0,-3.537460327E0,1.008897400E1
9.772949220E-1,-4.287078857E0,-3.597305298E0,1.013685608E1
9.797973640E-1,-4.413970947E0,-3.570983887E0,1.020867920E1
9.823303230E-1,-4.513320923E0,-3.574569702E0,1.021945190E1
9.848632820E-1,-4.554031372E0,-3.585342407E0,1.027452087E1
9.873962410E-1,-4.589935303E0,-3.539855957E0,1.022903442E1
9.898986820E-1,-4.630645752E0,-3.500350952E0,1.030683899E1
9.924316410E-1,-4.645004272E0,-3.515914917E0,1.037866211E1
9.949340820E-1,-4.636627197E0,-3.457244873E0,1.039064026E1
9.974670410E-1,-4.606704712E0,-3.454864502E0,1.037028503E1
9.999694830E-1,-4.594726562E0,-3.450073242E0,1.029367065E1
1.002502442E0,-4.510925293E0,-3.462036133E0,1.030444336E1
1.005004883E0,-4.516921997E0,-3.509918213E0,1.030683899E1
1.007537842E0,-4.445098877E0,-3.557815552E0,1.025416565E1
1.010040284E0,-4.344528198E0,-3.567382812E0,1.020867920E1
1.012573243E0,-4.301437378E0,-3.581756592E0,1.018713379E1
1.015075684E0,-4.228424072E0,-3.641601562E0,1.009616089E1
1.017608643E0,-4.182922363E0,-3.682312012E0,9.958480835E0
1.020111084E0,-4.132644653E0,-3.794830322E0,9.801666260E0
1.022644043E0,-4.143417358E0,-3.823562622E0,9.662796021E0
1.025177002E0,-4.167358398E0,-3.946868896E0,9.486831665E0
1.027679444E0,-4.142227173E0,-3.967224121E0,9.332397461E0
1.030212403E0,-4.190109253E0,-4.119247437E0,9.148056030E0
1.032714844E0,-4.269119263E0,-4.280853271E0,9.079818726E0
1.035247803E0,-4.305038452E0,-4.443664551E0,9.037918091E0
1.037750245E0,-4.419952393E0,-4.596893311E0,8.948135376E0
1.040283204E0,-4.548049927E0,-4.830322266E0,8.909820557E0
1.042785645E0,-4.639022827E0,-4.928482056E0,8.871520996E0
1.045318604E0,-4.780273438E0,-5.143966675E0,8.881103516E0
1.047821045E0,-4.877243042E0,-5.275650024E0,8.830810547E0
1.050354004E0,-5.049621582E0,-5.358245850E0,8.879898071E0
1.052856446E0,-5.253128052E0,-5.436065674E0,8.815261841E0
1.055389405E0,-5.397979736E0,-5.541397095E0,8.761383057E0
1.057891846E0,-5.578750610E0,-5.639572144E0,8.731460571E0
1.060424805E0,-5.812179565E0,-5.691040039E0,8.732650757E0
1.062927247E0,-6.040832520E0,-5.789199829E0,8.673995972E0
1.065460206E0,-6.250320435E0,-5.884979248E0,8.656036377E0
1.067962647E0,-6.523254395E0,-5.975952148E0,8.683578491E0
1.070495606E0,-6.841690063E0,-6.096862793E0,8.776947021E0
1.073028565E0,-7.084701538E0,-6.208190918E0,8.893066406E0
1.075531006E0,-7.290603638E0,-6.327896118E0,9.019958496E0
1.078063965E0,-7.464187622E0,-6.430847168E0,9.194732666E0
1.080566407E0,-7.622192383E0,-6.546966553E0,9.373107910E0
1.083099366E0,-7.761062622E0,-6.629562378E0,9.491622925E0
1.085601807E0,-7.962173462E0,-6.646331787E0,9.496398926E0
1.088134766E0,-8.026824951E0,-6.778015137E0,9.497604370E0
1.090637207E0,-8.063934326E0,-6.912078857E0,9.662796021E0
1.093139649E0,-8.153717041E0,-7.082077026E0,9.851943970E0
1.095672608E0,-8.256668091E0,-7.226928711E0,9.981231689E0
1.098175049E0,-8.335662842E0,-7.371765137E0,1.019551086E1
1.100708008E0,-8.450592041E0,-7.588439941E0,1.034754944E1
1.103240967E0,-8.543960571E0,-7.717727661E0,1.040979004E1
1.105743409E0,-8.593048096E0,-7.831451416E0,1.044091797E1
1.108245850E0,-8.646911621E0,-7.973907471E0,1.036788940E1
1.110778809E0,-8.676849365E0,-8.094818115E0,1.030564880E1
1.113281250E0,-8.745071411E0,-8.288757324E0,1.023980713E1
1.115814209E0,-8.840850830E0,-8.352203369E0,1.006024170E1
1.118316651E0,-8.857604980E0,-8.530563354E0,9.802856445E0
1.120849610E0,-8.880355835E0,-8.694564819E0,9.515563965E0
1.123382569E0,-8.904296875E0,-8.815475464E0,9.264175415E0
1.125915528E0,-8.910278320E0,-9.032150269E0,9.009185791E0
1.128417969E0,-8.924636841E0,-9.169815063E0,8.793701172E0
1.130950928E0,-8.942596436E0,-9.332626343E0,8.556686401E0
1.133453370E0,-8.954574585E0,-9.500213623E0,8.340011597E0
1.135986329E0,-8.995269775E0,-9.637878418E0,8.111358643E0
1.138488770E0,-8.998870850E0,-9.728866577E0,7.944961548E0
1.141021729E0,-8.990478516E0,-9.800689697E0,7.710327148E0
1.143524170E0,-8.989288330E0,-9.894058228E0,7.496047974E0
1.146057129E0,-9.040756226E0,-1.008320618E1,7.309295654E0
1.148559571E0,-9.086257935E0,-1.025679016E1,7.184799194E0
1.151092530E0,-9.118576050E0,-1.039205933E1,7.041152954E0
1.153594971E0,-9.179626465E0,-1.057041931E1,6.837646484E0
1.156097413E0,-9.246658325E0,-1.066859436E1,6.561111450E0
1.158630372E0,-9.332855225E0,-1.070091248E1,6.290573120E0
1.161132813E0,-9.419052124E0,-1.070689392E1,6.023620605E0
1.163665772E0,-9.484893799E0,-1.073802185E1,5.769836426E0
1.166198731E0,-9.549530029E0,-1.074639893E1,5.614212036E0
1.168731690E0,-9.578262329E0,-1.070689392E1,5.428649902E0
1.171234131E0,-9.565093994E0,-1.074520874E1,5.311340332E0
1.173767090E0,-9.590225220E0,-1.080625916E1,5.225143433E0
1.176269532E0,-9.476501465E0,-1.081463623E1,5.173675537E0
1.178802491E0,-9.354400635E0,-1.088406372E1,5.115020752E0
1.181304932E0,-9.287368774E0,-1.090560913E1,5.164093018E0
1.183837891E0,-9.203567505E0,-1.089244080E1,5.294586182E0
1.186340332E0,-9.098220825E0,-1.091398621E1,5.415481567E0
1.188873291E0,-9.008438110E0,-1.090081787E1,5.494491577E0
1.191375733E0,-8.927032471E0,-1.077752686E1,5.440628052E0
1.193908692E0,-8.836059570E0,-1.071887207E1,5.550765991E0
1.196411133E0,-8.857604980E0,-1.066978455E1,5.589065552E0
1.198944092E0,-8.875564575E0,-1.062069702E1,5.658493042E0
1.201446534E0,-8.846832275E0,-1.056204224E1,5.775817871E0
1.203979493E0,-8.780990601E0,-1.045790100E1,5.816513062E0
1.206481934E0,-8.780990601E0,-1.031065369E1,5.889541626E0
1.209014893E0,-8.707962036E0,-1.016700745E1,5.936233521E0
1.211547852E0,-8.569107056E0,-9.939559937E0,5.891937256E0
1.214050293E0,-8.455383301E0,-9.696548462E0,5.748275757E0
1.216583252E0,-8.316513062E0,-9.514587402E0,5.705184937E0
1.219085694E0,-8.272216797E0,-9.331420898E0,5.687225342E0
1.221618653E0,-8.288986206E0,-9.267974854E0,5.538787842E0
1.224121094E0,-8.134552002E0,-9.228469849E0,5.471755981E0
1.226654053E0,-7.940628052E0,-9.210525513E0,5.352035522E0
1.229156495E0,-7.622192383E0,-9.065673828E0,5.213180542E0
1.231689454E0,-7.336090088E0,-8.898071289E0,5.182052612E0
1.234191895E0,-7.067932129E0,-8.637100220E0,5.141357422E0
1.236724854E0,-6.829711914E0,-8.373748779E0,5.111419678E0
1.239227295E0,-6.592697144E0,-8.074462891E0,5.092269897E0
1.241760254E0,-6.419113159E0,-7.818283081E0,4.980941772E0
1.244262696E0,-6.172500610E0,-7.520217896E0,4.861236572E0
1.246795655E0,-5.980972290E0,-7.218536377E0,4.777435303E0
1.249298096E0,-5.824157715E0,-6.979125977E0,4.685256958E0
1.251831055E0,-5.675704956E0,-6.801956177E0,4.660125732E0
1.254364014E0,-5.514099121E0,-6.585281372E0,4.570343018E0
1.256866456E0,-5.323760986E0,-6.357833862E0,4.470977783E0
1.259399415E0,-5.127441406E0,-6.123199463E0,4.360839844E0
1.261901856E0,-4.968231201E0,-5.937637329E0,4.189651489E0
1.264434815E0,-4.852111816E0,-5.688644409E0,4.051986694E0
1.266967774E0,-4.787460327E0,-5.451614380E0,3.974182129E0
1.269500733E0,-4.743164062E0,-5.233749390E0,3.841308594E0
1.272003174E0,-4.703659058E0,-4.964401245E0,3.797012329E0
1.274536133E0,-4.731201172E0,-4.739349365E0,3.738357544E0
1.277038575E0,-4.727600098E0,-4.497528076E0,3.690460205E0
1.279571534E0,-4.731201172E0,-4.337127686E0,3.612655640E0
1.282073975E0,-4.721618652E0,-4.170730591E0,3.640182495E0
1.284606934E0,-4.706054688E0,-3.973205566E0,3.698852539E0
1.287109375E0,-4.735992432E0,-3.813995361E0,3.776657104E0
1.289642334E0,-4.653381348E0,-3.669143677E0,3.865249634E0
1.292144776E0,-4.589935303E0,-3.502746582E0,3.921508789E0
1.294677735E0,-4.565994263E0,-3.372253418E0,3.990936279E0
1.297210694E0,-4.560012817E0,-3.282470703E0,4.078323364E0
1.299713135E0,-4.494171143E0,-3.004745483E0,4.627792358E0
1.302246094E0,-4.372070312E0,-2.753356934E0,5.245498657E0
1.304748536E0,-4.372070312E0,-2.557037354E0,5.711166382E0
1.307281495E0,-4.466644287E0,-2.402603149E0,5.796173096E0
1.309783936E0,-4.551635742E0,-2.341552734E0,5.702789307E0
1.312316895E0,-4.732391357E0,-2.297256470E0,5.240707397E0
1.314819336E0,-4.999343872E0,-2.207473755E0,4.863632202E0
1.317352295E0,-5.120254517E0,-2.160797119E0,4.787017822E0
1.319854737E0,-5.262710571E0,-2.196701050E0,4.809753418E0
1.322387696E0,-5.390808105E0,-2.201492310E0,4.783416748E0
1.324890137E0,-5.447067261E0,-2.257751465E0,4.787017822E0
1.327423096E0,-5.547622681E0,-2.334365845E0,4.731948853E0
1.329925538E0,-5.680496216E0,-2.419372559E0,4.588287354E0
1.332458497E0,-5.855270386E0,-2.434921265E0,4.457809448E0
1.334960938E0,-5.907943726E0,-2.353530884E0,4.352462769E0
1.337493897E0,-5.898376465E0,-2.227828979E0,4.378799438E0
1.339996338E0,-5.996536255E0,-2.080581665E0,4.634979248E0
1.342529297E0,-6.065963745E0,-2.005172729E0,4.839691162E0
1.345062256E0,-6.203628540E0,-2.152404785E0,4.493728638E0
1.347564698E0,-6.391571045E0,-2.199096680E0,4.277038574E0
1.350097657E0,-6.567550659E0,-2.138046265E0,4.183670044E0
1.352600098E0,-6.540023804E0,-1.987213135E0,4.271057129E0
1.355133057E0,-6.380798340E0,-1.989608765E0,4.201629639E0
1.357635499E0,-6.192855835E0,-2.092559814E0,4.060363770E0
1.360168457E0,-6.155746460E0,-2.080581665E0,3.757507324E0
1.362670899E0,-6.216796875E0,-2.127273560E0,3.289443970E0
1.365203858E0,-6.340103149E0,-2.117691040E0,2.767501831E0
1.367706299E0,-6.305389404E0,-2.229019165E0,1.990585327E0
1.370239258E0,-6.371231079E0,-2.182342529E0,1.382461548E0
1.372741700E0,-6.355667114E0,-2.031509399E0,1.298660278E0
1.375274659E0,-6.282638550E0,-1.975234985E0,1.509353638E0
1.377777100E0,-6.257507324E0,-2.002777100E0,1.660186768E0
1.380310059E0,-6.340103149E0,-2.167968750E0,1.708068848E0
1.382812500E0,-6.401153564E0,-2.340362549E0,1.617080688E0
1.385345459E0,-6.490936279E0,-2.499572754E0,1.429138184E0
1.387847901E0,-6.579528809E0,-2.683929443E0,1.401611328E0
1.390380860E0,-6.628601074E0,-2.772506714E0,1.453079224E0
1.392913819E0,-6.559173584E0,-2.978408813E0,1.573989868E0
1.395416260E0,-6.640579224E0,-3.202270508E0,1.788269043E0
1.397949219E0,-6.789016724E0,-3.471618652E0,1.718841553E0
1.400451661E0,-6.917098999E0,-3.764907837E0,1.515335083E0
1.402984620E0,-7.059555054E0,-4.067779541E0,1.201690674E0
1.405487061E0,-7.304962158E0,-4.402954102E0,7.635498047E-1
1.408020020E0,-7.467773438E0,-4.747726440E0,1.278991699E-1
1.410522461E0,-7.609024048E0,-5.086502075E0,-5.317077637E-1
1.413055420E0,-7.672470093E0,-5.367828369E0,-1.164978027E0
1.415557862E0,-7.746688843E0,-5.647949219E0,-2.006530762E0
1.418090821E0,-7.812530518E0,-5.910110474E0,-2.820571899E0
1.420593262E0,-7.858032227E0,-6.149536133E0,-3.555587769E0
1.423126221E0,-7.960983276E0,-6.335083008E0,-4.285812378E0
1.425628663E0,-7.987319946E0,-6.508666992E0,-5.028015137E0
1.428161622E0,-8.053146362E0,-6.588867188E0,-5.758255005E0
1.430664063E0,-7.993301392E0,-6.557739258E0,-5.834869385E0
1.433197022E0,-7.861618042E0,-6.476333618E0,-5.199203491E0
1.435699463E0,-7.774230957E0,-6.454788208E0,-4.077514648E0
1.438232422E0,-7.668884277E0,-6.336273193E0,-2.632614136E0
1.440765381E0,-7.454605103E0,-6.105239868E0,-1.356506348E0
1.443267823E0,-7.356445312E0,-5.827514648E0,-3.222198486E-1
1.445800782E0,-7.291793823E0,-5.539016724E0,3.589324951E-1
1.448303223E0,-7.275039673E0,-5.212203979E0,6.605987549E-1
1.450836182E0,-7.316940308E0,-4.845886230E0,6.965179443E-1
1.453338624E0,-7.416290283E0,-4.411346436E0,4.750518799E-1
1.455871582E0,-7.478546143E0,-3.927719116E0,3.146362305E-1
1.458374024E0,-7.494110107E0,-3.482391357E0,2.128906250E-1
1.460906983E0,-7.553955078E0,-3.058624268E0,2.691497803E-1
1.463409424E0,-7.609024048E0,-2.630050659E0,5.708160400E-1
1.465942383E0,-7.625793457E0,-2.299652100E0,1.049667358E0
1.468444825E0,-7.668884277E0,-2.054244995E0,1.577590942E0
1.470977784E0,-7.779022217E0,-1.829193115E0,2.099517822E0
1.473480225E0,-7.951400757E0,-1.799270630E0,2.388015747E0
1.476013184E0,-8.132156372E0,-1.701110840E0,2.231201172E0
1.478515625E0,-8.292572021E0,-1.550277710E0,1.863693237E0
1.481048584E0,-8.469741821E0,-1.388656616E0,1.547653198E0
1.483581543E0,-8.555938721E0,-1.230651855E0,1.588363647E0
1.486083985E0,-8.660079956E0,-1.102554321E0,1.718841553E0
1.488616944E0,-8.741485596E0,-9.948120117E-1,1.789474487E0
1.491119385E0,-8.804931641E0,-8.906707764E-1,1.793060303E0
1.493652344E0,-8.933029175E0,-7.314605713E-1,1.825378418E0
1.496154786E0,-9.082656860E0,-5.925903320E-1,1.884048462E0
1.498687745E0,-9.182022095E0,-4.896392822E-1,2.131835938E0
1.501190186E0,-9.267013550E0,-3.699340820E-1,2.578353882E0
1.503723145E0,-9.366378784E0,-3.459930420E-1,3.081146240E0
1.506225586E0,-9.475311279E0,-4.226074219E-1,3.518081665E0
1.508758545E0,-9.624954224E0,-5.722351074E-1,3.794616699E0
1.511260987E0,-9.804519653E0,-6.955413818E-1,4.157333374E0
1.513793946E0,-9.963729858E0,-8.008880615E-1,4.540405273E0
1.516296387E0,-1.005590820E1,-9.648895264E-1,4.716384888E0
1.518829346E0,-1.012174988E1,-1.090576172E0,4.752288818E0
1.521331788E0,-1.015885925E1,-1.230651855E0,4.566741943E0
1.523864747E0,-1.009181213E1,-1.465270996E0,4.148956299E0
1.526367188E0,-9.988861084E0,-1.668777466E0,3.698852539E0
1.528900147E0,-9.885910034E0,-1.968063354E0,3.123046875E0
1.531433106E0,-9.800918579E0,-2.294860840E0,2.282669067E0
1.533935547E0,-9.743453979E0,-2.545059204E0,1.376464844E0
1.536468506E0,-9.664443970E0,-2.764129639E0,4.930114746E-1
1.538970948E0,-9.579452515E0,-3.052627563E0,-3.497467041E-1
1.541503907E0,-9.537551880E0,-3.354293823E0,-1.197296143E0
1.544006348E0,-9.452560425E0,-3.591323853E0,-2.023300171E0
1.546539307E0,-9.341232300E0,-3.770889282E0,-2.825347900E0
1.549041749E0,-9.283767700E0,-4.043838501E0,-3.566360474E0
1.551574707E0,-9.227508545E0,-4.268890381E0,-4.208007812E0
1.554107666E0,-9.134140015E0,-4.456832886E0,-4.785003662E0
1.556640625E0,-9.174835205E0,-4.678298950E0,-5.175262451E0
1.559143067E0,-9.205963135E0,-4.902145386E0,-5.394332886E0
1.561676026E0,-9.188003540E0,-5.094879150E0,-5.467361450E0
1.564178467E0,-9.208358765E0,-5.252899170E0,-5.475738525E0
1.566711426E0,-9.229904175E0,-5.430068970E0,-5.378768921E0
1.569213868E0,-9.246658325E0,-5.473175049E0,-5.215957642E0
1.571746827E0,-9.318496704E0,-5.470779419E0,-4.955001831E0
1.574279786E0,-9.241882324E0,-5.345077515E0,-4.619812012E0
1.576782227E0,-9.106597900E0,-5.013488770E0,-4.231948853E0
1.579315186E0,-8.986892700E0,-4.681884766E0,-3.882400513E0
1.581817627E0,-8.831268311E0,-4.484359741E0,-3.699234009E0
1.584350586E0,-8.694793701E0,-4.341903687E0,-3.530441284E0
1.586853028E0,-8.526000977E0,-4.131225586E0,-3.459823608E0
1.589385987E0,-8.344055176E0,-3.883422852E0,-3.271865845E0
1.591888428E0,-8.207580566E0,-3.693084717E0,-2.982177734E0
1.594421387E0,-8.107025146E0,-3.427322388E0,-2.743957520E0
1.596923829E0,-7.801757812E0,-3.099319458E0,-2.393203735E0
1.599456788E0,-7.386367798E0,-2.725830078E0,-2.035263062E0
1.601959229E0,-7.009277344E0,-2.389434814E0,-1.720428467E0
1.604492188E0,-6.635787964E0,-2.018341064E0,-1.288269043E0
1.606994629E0,-6.340103149E0,-1.634063721E0,-8.333740234E-1
1.609527588E0,-6.159347534E0,-1.414993286E0,-2.396087646E-1
1.612030030E0,-5.952239990E0,-1.295288086E0,3.780822754E-1
1.614562989E0,-5.740356445E0,-1.173187256E0,9.275512695E-1
1.617065430E0,-5.538040161E0,-1.163604736E0,1.494979858E0
1.619598389E0,-5.396789551E0,-1.185150146E0,1.953475952E0
1.622131348E0,-5.375244141E0,-1.283309937E0,2.213241577E0
1.624633790E0,-5.375244141E0,-1.352752686E0,2.372451782E0
1.627166749E0,-5.449462891E0,-1.533508301E0,2.421539307E0
1.629669190E0,-5.505722046E0,-1.807647705E0,2.354507446E0
1.632202149E0,-5.620651245E0,-2.026718140E0,2.125854492E0
1.634704590E0,-5.773880005E0,-2.257751465E0,1.927139282E0
1.637237549E0,-6.016891479E0,-2.624069214E0,1.781097412E0
1.639739991E0,-6.127014160E0,-2.923339844E0,1.599136353E0
1.642272950E0,-6.168914795E0,-3.119674683E0,1.496185303E0
1.644775391E0,-6.252716064E0,-3.274093628E0,1.378860474E0
1.647308350E0,-6.271865845E0,-3.390213013E0,1.244796753E0
1.649810791E0,-6.349685669E0,-3.509918213E0,1.200500488E0
1.652343750E0,-6.417907715E0,-3.664352417E0,1.225631714E0
1.654846192E0,-6.495727539E0,-3.879821777E0,1.338165283E0
1.657379151E0,-6.544799805E0,-4.084533691E0,1.336959839E0
1.659881592E0,-6.502914429E0,-4.265289307E0,1.380065918E0
1.662414551E0,-6.428680420E0,-4.437683105E0,1.449493408E0
1.664916993E0,-6.427490234E0,-4.571746826E0,1.469848633E0
1.667449952E0,-6.420303345E0,-4.657943726E0,1.506958008E0
1.669982911E0,-6.526855469E0,-4.769271851E0,1.587158203E0
1.672485352E0,-6.583114624E0,-4.861450195E0,1.693695068E0
1.675018311E0,-6.684860229E0,-4.914123535E0,1.866088867E0
1.677520752E0,-6.712402344E0,-4.902145386E0,2.115081787E0
1.680053711E0,-6.732757568E0,-4.862655640E0,2.348510742E0
1.682556153E0,-6.787811279E0,-4.833923340E0,2.507736206E0
1.685089112E0,-6.879989624E0,-4.746536255E0,2.677719116E0
1.687591553E0,-6.870422363E0,-4.677093506E0,2.767501831E0
1.690124512E0,-6.824920654E0,-4.547805786E0,2.777084351E0
1.692626954E0,-6.821334839E0,-4.454437256E0,2.807006836E0
1.695159913E0,-6.894363403E0,-4.379013062E0,2.889602661E0
1.697662354E0,-6.884780884E0,-4.289230347E0,2.993759155E0
1.700195313E0,-6.850067139E0,-4.175506592E0,3.072769165E0
1.702697754E0,-6.901535034E0,-3.992355347E0,3.126632690E0
1.705230713E0,-6.911117554E0,-3.849899292E0,3.348098755E0
1.707733155E0,-6.953018188E0,-3.731384277E0,3.583923340E0
1.710266114E0,-6.914703369E0,-3.547027588E0,3.763488770E0
1.712799073E0,-6.847671509E0,-3.355499268E0,4.043609619E0
1.715301514E0,-6.694442749E0,-2.924545288E0,4.419494629E0
1.717834473E0,-6.417907715E0,-2.156005859E0,4.190856934E0
1.720336915E0,-6.310180664E0,-1.686737061E0,2.403579712E0
1.722869874E0,-6.653747559E0,-2.391830444E0,1.764328003E0
1.725372315E0,-6.919494629E0,-3.325576782E0,2.368865967E0
1.727905274E0,-7.109832764E0,-4.074951172E0,2.824966431E0
1.730407715E0,-7.340881348E0,-4.763290405E0,3.108673096E0
1.732940674E0,-7.552764893E0,-5.313949585E0,3.217605591E0
1.735443116E0,-7.697616577E0,-5.756881714E0,3.066772461E0
1.737976075E0,-7.793380737E0,-6.113616943E0,2.807006836E0
1.740478516E0,-7.907104492E0,-6.379379272E0,2.419143677E0
1.743011475E0,-8.008865356E0,-6.527816772E0,1.885238647E0
1.745513916E0,-8.205184937E0,-6.715759277E0,1.210067749E0
1.748046875E0,-8.379959106E0,-6.781600952E0,4.714660645E-1
1.750549317E0,-8.584671021E0,-6.936019897E0,-2.108917236E-1
1.753082276E0,-8.927032471E0,-7.183822632E0,-9.339294434E-1
1.755584717E0,-9.173645020E0,-7.485488892E0,-1.607894897E0
1.758117676E0,-9.468124390E0,-7.787170410E0,-2.285461426E0
1.760620118E0,-9.778182983E0,-8.061294556E0,-2.954635620E0
1.763153077E0,-1.001400757E1,-8.281570435E0,-3.502914429E0
1.765655518E0,-1.027377319E1,-8.517395020E0,-3.947036743E0
1.768188477E0,-1.060896301E1,-8.650268555E0,-4.419891357E0
1.770721436E0,-1.095133972E1,-8.728088379E0,-4.738327026E0
1.773223877E0,-1.126377869E1,-8.834625244E0,-4.966964722E0
1.775756836E0,-1.157023621E1,-8.884902954E0,-5.134567261E0
1.778259278E0,-1.186592102E1,-8.926803589E0,-5.297363281E0
1.780792237E0,-1.213047791E1,-9.036941528E0,-5.466156006E0
1.783294678E0,-1.241059875E1,-9.186569214E0,-5.618194580E0
1.785827637E0,-1.268473816E1,-9.320648193E0,-5.846832275E0
1.788330079E0,-1.290620422E1,-9.556488037E0,-6.099426270E0
1.790863038E0,-1.308216858E1,-9.663024902E0,-6.429824829E0
1.793365479E0,-1.318272400E1,-9.789916992E0,-6.672836304E0
1.795898438E0,-1.324977112E1,-9.882095337E0,-7.027175903E0
1.798400879E0,-1.321624756E1,-9.931167603E0,-7.357574463E0
1.800933838E0,-1.321385193E1,-9.896453857E0,-7.617355347E0
1.803466797E0,-1.318511963E1,-9.817443848E0,-7.820861816E0
1.805969239E0,-1.321026611E1,-9.756393433E0,-8.067459106E0
1.808502198E0,-1.319828796E1,-9.641479492E0,-8.248214722E0
1.811004639E0,-1.316477966E1,-9.491836548E0,-8.315261841E0
1.813537598E0,-1.309294128E1,-9.376922607E0,-8.415817261E0
1.816040040E0,-1.306422424E1,-9.226074219E0,-8.334411621E0
1.818572999E0,-1.303549194E1,-9.065673828E0,-8.083023071E0
1.821075440E0,-1.302351379E1,-8.872940063E0,-7.740646362E0
1.823608399E0,-1.305703735E1,-8.740051270E0,-7.303710938E0
1.826110840E0,-1.309773254E1,-8.485076904E0,-6.871551514E0
1.828643799E0,-1.318872070E1,-8.197769165E0,-6.488479614E0
1.831146241E0,-1.321864319E1,-7.927230835E0,-6.178436279E0
1.833679200E0,-1.328208923E1,-7.644714355E0,-5.934219360E0
1.836181641E0,-1.323181152E1,-7.358596802E0,-5.627761841E0
1.838714600E0,-1.322583008E1,-7.059326172E0,-5.400314331E0
1.841247559E0,-1.317913818E1,-6.853424072E0,-5.190826416E0
1.843780518E0,-1.309533691E1,-6.615203857E0,-5.012451172E0
1.846282959E0,-1.304266357E1,-6.350646973E0,-4.793380737E0
1.848815918E0,-1.304266357E1,-6.068130493E0,-4.605438232E0
1.851348877E0,-1.316238403E1,-5.717376709E0,-4.370803833E0
1.853851319E0,-1.324737549E1,-5.400146484E0,-4.134979248E0
1.856384278E0,-1.333236694E1,-5.025451660E0,-3.838104248E0
1.858886719E0,-1.349636841E1,-4.681884766E0,-3.471786499E0
1.861419678E0,-1.350474548E1,-4.358673096E0,-3.085128784E0
1.863922120E0,-1.344848633E1,-3.993545532E0,-2.728393555E0
1.866455079E0,-1.335391235E1,-3.706253052E0,-2.402770996E0
1.868957520E0,-1.317434692E1,-3.338745117E0,-1.996963501E0
1.871490479E0,-1.300196838E1,-3.068191528E0,-1.589950562E0
1.873992920E0,-1.278529358E1,-2.697097778E0,-1.158981323E0
1.876525879E0,-1.256143188E1,-2.428939819E0,-7.447967529E-1
1.879028321E0,-1.233158875E1,-2.126068115E0,-2.575683594E-1
1.881561280E0,-1.208978271E1,-1.878280640E0,1.733856201E-1
1.884063721E0,-1.188867188E1,-1.602935791E0,6.222991943E-1
1.886596680E0,-1.168994141E1,-1.341979980E0,1.000579834E0
1.889099122E0,-1.152235413E1,-1.092971802E0,1.305847168E0
1.891632081E0,-1.127215576E1,-8.379974365E-1,1.629058838E0
1.894134522E0,-1.112251282E1,-5.255584717E-1,1.935516357E0
1.896667481E0,-1.092979431E1,-3.232421875E-1,2.165359497E0
1.899200440E0,-1.075141907E1,-1.772003174E-1,2.359283447E0
1.901702881E0,-1.060656738E1,-2.516174316E-2,2.540054321E0
1.904235840E0,-1.048207092E1,1.194763184E-2,2.611877441E0
1.906738282E0,-1.038032532E1,5.624389648E-2,2.567581177E0
1.909271241E0,-1.025341797E1,4.786682129E-2,2.524490356E0
1.911773682E0,-1.011216736E1,-2.516174316E-2,2.482589722E0
1.914306641E0,-1.005470276E1,-1.173400879E-1,2.342529297E0
1.916809082E0,-1.002717590E1,-1.113586426E-1,2.197677612E0
1.919342041E0,-9.966125488E0,-2.154998779E-1,2.037277222E0
1.921844483E0,-9.895492554E0,-2.047271729E-1,1.878051758E0
1.924377442E0,-9.855987549E0,-2.454376221E-1,1.716445923E0
1.926879883E0,-9.780563354E0,-2.154998779E-1,1.515335083E0
1.929412842E0,-9.413055420E0,-4.154205322E-1,2.579559326E0
1.931915284E0,-9.058715820E0,-5.782318115E-1,3.504913330E0
1.934448243E0,-8.776199341E0,-5.794219971E-1,3.921508789E0
1.936950684E0,-8.515228271E0,-5.866088867E-1,4.424285889E0
1.939483643E0,-8.338058472E0,-4.273834229E-1,4.530838013E0
1.941986084E0,-7.825698853E0,-2.933197021E-1,5.137756348E0
1.944519043E0,-7.320526123E0,-7.783508301E-2,5.895523071E0
1.947052002E0,-6.542419434E0,8.377075195E-2,7.361968994E0
1.949554444E0,-5.624237061E0,2.465820312E-1,8.958908081E0
1.952087403E0,-4.949066162E0,6.535949707E-1,9.616119385E0
1.954589844E0,-4.878448486E0,1.144409180E0,9.909408569E0
1.957122803E0,-4.920333862E0,1.886611938E0,9.927368164E0
1.959625245E0,-5.061599731E0,2.731765747E0,8.823638916E0
1.962158204E0,-4.898788452E0,3.532623291E0,6.376754761E0
1.964660645E0,-4.534881592E0,3.008285522E0,3.899963379E0
1.967193604E0,-4.197296143E0,1.953643799E0,3.182891846E0
1.969696045E0,-4.282287598E0,1.478393555E0,3.971786499E0
1.972229004E0,-4.378051758E0,9.325103760E-1,4.177688599E0
1.974731446E0,-4.206863403E0,2.836914062E-1,3.243942261E0
1.977264405E0,-4.003356934E0,2.322082520E-1,3.516891479E0
1.979766846E0,-3.876464844E0,-4.106292725E-1,3.284652710E0
1.982299805E0,-4.028503418E0,-4.932250977E-1,3.470199585E0
1.984802247E0,-3.797454834E0,-8.439788818E-1,3.358871460E0
1.987335206E0,-4.173355103E0,-9.445343018E-1,3.460617065E0
1.989868165E0,-5.380020142E0,5.434570312E-1,2.733978271E0
1.992370606E0,-5.946258545E0,1.671127319E0,1.390838623E0
1.994903565E0,-6.462203979E0,1.231796265E0,-7.220458984E-1
1.997406006E0,-6.077941895E0,5.290985107E-1,-2.717620850E0
1.999938965E0,-5.046035767E0,-6.692047119E-1,-2.917526245E0
2.002441407E0,-4.565994263E0,-1.940521240E0,-2.894790649E0
2.004974366E0,-3.901611328E0,-3.829544067E0,-4.229553223E0
2.007476807E0,-4.137435913E0,-4.396972656E0,-3.774658203E0
2.010009766E0,-4.939498901E0,-4.268890381E0,-3.293426514E0
2.012512207E0,-5.718811035E0,-4.145584106E0,-3.173706055E0
2.015045166E0,-6.478973389E0,-3.869049072E0,-3.146179199E0
2.017547608E0,-7.035614014E0,-3.643997192E0,-2.747543335E0
2.020080567E0,-7.345672607E0,-3.234588623E0,-1.888015747E0
2.022583008E0,-7.606628418E0,-2.778488159E0,-1.317001343E0
2.025115967E0,-7.783813477E0,-2.439712524E0,-1.938308716E0
2.027618409E0,-7.777816772E0,-2.134460449E0,-2.783447266E0
2.030151368E0,-7.646133423E0,-2.340362549E0,-3.086318970E0
2.032684327E0,-7.638961792E0,-3.027496338E0,-2.753524780E0
2.035186768E0,-7.806549072E0,-3.174743652E0,-2.832534790E0
2.037719727E0,-8.035202026E0,-3.281280518E0,-4.022460938E0
2.040222168E0,-8.273422241E0,-3.353103638E0,-5.280609131E0
2.042755127E0,-8.436233521E0,-3.266906738E0,-5.493698120E0
2.045257569E0,-8.530792236E0,-3.612869263E0,-4.880767822E0
2.047790528E0,-8.824081421E0,-3.484786987E0,-4.873596191E0
2.050292969E0,-8.818099976E0,-2.932922363E0,-5.413482666E0
2.052825928E0,-8.308135986E0,-3.149597168E0,-5.364410400E0
2.055328370E0,-7.853240967E0,-4.224594116E0,-4.510864258E0
2.057861329E0,-7.864013672E0,-4.580139160E0,-4.179275513E0
2.060363770E0,-7.814926147E0,-4.793212891E0,-4.088287354E0
2.062896729E0,-7.664093018E0,-5.358245850E0,-3.951828003E0
2.065399170E0,-7.902313232E0,-5.262481689E0,-4.115829468E0
2.067932129E0,-8.108215332E0,-5.209808350E0,-4.173294067E0
2.070434571E0,-8.352432251E0,-5.319946289E0,-3.729171753E0
2.072967530E0,-8.849227905E0,-5.312759399E0,-3.099487305E0
2.075469971E0,-9.076675415E0,-5.294799805E0,-2.669723511E0
2.078002930E0,-9.097030640E0,-5.252899170E0,-2.346511841E0
2.080535889E0,-9.037170410E0,-5.242126465E0,-1.953857422E0
2.083038331E0,-9.051528931E0,-5.172698975E0,-1.458267212E0
2.085571290E0,-9.026397705E0,-5.084106445E0,-8.896484375E-1
2.088073731E0,-9.015625000E0,-5.087707520E0,-1.234893799E-1
2.090606690E0,-9.180816650E0,-4.817153931E0,5.456848145E-1
2.093109131E0,-9.499252319E0,-4.393386841E0,8.545379639E-1
2.095642090E0,-9.483688354E0,-4.033050537E0,1.110717773E0
2.098144532E0,-9.459747314E0,-3.918136597E0,1.272323608E0
2.100677491E0,-9.803314209E0,-3.782867432E0,1.381256104E0
2.103179932E0,-9.776977539E0,-3.484786987E0,1.632644653E0
2.105712891E0,-9.481292725E0,-3.156784058E0,1.670959473E0
2.108215332E0,-9.270599365E0,-3.128051758E0,1.603927612E0
2.110748291E0,-8.909088135E0,-3.406967163E0,1.735595703E0
2.113250733E0,-8.587066650E0,-3.670333862E0,1.387237549E0
2.115783692E0,-8.245880127E0,-4.161148071E0,1.271133423E0
2.118286133E0,-8.195602417E0,-4.624420166E0,1.193313599E0
2.120819092E0,-8.122589111E0,-5.097274780E0,1.285491943E0
2.123321534E0,-7.880767822E0,-5.482742310E0,1.065231323E0
2.125854493E0,-7.999282837E0,-5.770050049E0,7.491912842E-1
2.128387452E0,-7.883163452E0,-6.089675903E0,1.007766724E0
2.130920411E0,-8.008865356E0,-6.153121948E0,9.120025635E-1
2.133453370E0,-8.278213501E0,-5.894546509E0,5.313110352E-1
2.135955811E0,-8.297363281E0,-5.614425659E0,2.703552246E-1
2.138488770E0,-8.417068481E0,-5.481552124E0,1.757812500E-1
2.140991211E0,-8.565505981E0,-5.288818359E0,-2.240600586E-1
2.143524170E0,-8.838455200E0,-5.066162109E0,-6.382446289E-1
2.146026612E0,-9.222717285E0,-5.074539185E0,-9.291381836E-1
2.148559571E0,-9.368774414E0,-5.209808350E0,-7.160644531E-1
2.151062012E0,-9.754226685E0,-5.876586914E0,-2.575683594E-1
2.153594971E0,-1.009420776E1,-6.277618408E0,-8.877563477E-2
2.156097413E0,-1.018280029E1,-6.111221313E0,-1.031494141E-1
2.158630372E0,-9.949356079E0,-5.452819824E0,-1.163177490E-1
2.161132813E0,-1.010258484E1,-4.707031250E0,4.592895508E-3
2.163665772E0,-1.073466492E1,-5.021865845E0,-5.017852783E-1
2.166168213E0,-1.047488403E1,-5.418106079E0,-9.279479980E-1
2.168701172E0,-9.974502563E0,-5.345077515E0,-8.764801025E-1
2.171234131E0,-9.848800659E0,-5.094879150E0,-7.244415283E-1
2.173736573E0,-9.765014648E0,-4.531051636E0,-6.514129639E-1
2.176269532E0,-9.634521484E0,-4.323959351E0,-6.298675537E-1
2.178771973E0,-9.336441040E0,-3.976791382E0,-5.317077637E-1
2.181304932E0,-9.101806641E0,-3.459640503E0,-3.748931885E-1
2.183807374E0,-9.313705444E0,-3.090942383E0,-3.090515137E-1
2.186340332E0,-9.651290894E0,-2.888626099E0,-5.328979492E-1
2.188842774E0,-9.395111084E0,-2.935317993E0,-6.490173340E-1
2.191375733E0,-9.112594604E0,-2.796447754E0,-7.172546387E-1
2.193878174E0,-9.043151855E0,-2.579772949E0,-6.466369629E-1
2.196411133E0,-9.022811890E0,-1.838775635E0,-1.641998291E-1
2.198913575E0,-1.004872131E1,8.137512207E-2,4.068145752E-1
2.201416016E0,-1.096928406E1,1.628036499E0,1.602172852E-1
2.203948975E0,-1.039587402E1,6.559906006E-1,-1.503753662E0
2.206451416E0,-8.130966187E0,-4.441528320E-1,-2.630218506E0
2.208984375E0,-8.130966187E0,-9.888305664E-1,-2.724792480E0
2.211517334E0,-8.447006226E0,-1.941726685E0,-2.488967896E0
2.214019776E0,-8.567901611E0,-2.794052124E0,-2.466217041E0
2.216552735E0,-8.596633911E0,-3.110092163E0,-2.334548950E0
2.219085694E0,-8.293777466E0,-2.936508179E0,-2.273483276E0
2.221588135E0,-7.893936157E0,-2.621673584E0,-2.351303101E0
2.224121094E0,-7.531219482E0,-2.225433350E0,-2.352493286E0
2.226623536E0,-8.072311401E0,-2.583374023E0,-2.417144775E0
2.229156495E0,-8.924636841E0,-3.153182983E0,-2.667343140E0
2.231658936E0,-8.984497070E0,-3.513519287E0,-2.145401001E0
2.234161377E0,-1.011335754E1,-4.068969727E0,-1.510940552E0
2.236694336E0,-1.085317993E1,-4.484359741E0,-1.306228638E0
2.239196778E0,-1.069276428E1,-4.450851440E0,-1.339752197E0
2.241729737E0,-1.133081055E1,-4.711807251E0,-1.258346558E0
2.244232178E0,-1.175817871E1,-4.950042725E0,-1.048858643E0
2.246765137E0,-1.159178162E1,-4.847091675E0,-6.478271484E-1
2.249298096E0,-1.188867188E1,-4.914123535E0,-7.747192383E-1
2.251800538E0,-1.220709229E1,-4.983551025E0,-1.241592407E0
2.254302979E0,-1.224659729E1,-4.723785400E0,-1.398406982E0
2.256835938E0,-1.207301331E1,-4.608856201E0,-1.306228638E0
2.259338379E0,-1.199281311E1,-4.549011230E0,-1.272720337E0
2.261871338E0,-1.189584351E1,-4.775253296E0,-1.133850098E0
2.264373780E0,-1.142419434E1,-4.900955200E0,-9.758300781E-1
2.266906739E0,-1.103633118E1,-5.218185425E0,-7.136688232E-1
2.269409180E0,-1.060298157E1,-5.329513550E0,-5.173492432E-1
2.271942139E0,-1.020674133E1,-5.206222534E0,-4.862213135E-1
2.274475098E0,-9.931411743E0,-5.228958130E0,-4.383392334E-1
2.277008057E0,-9.561508179E0,-5.172698975E0,-4.239654541E-1
2.279510499E0,-9.328063965E0,-4.786041260E0,-3.916473389E-1
2.282043457E0,-9.237091064E0,-4.746536255E0,-1.294860840E-1
2.284545899E0,-9.071884155E0,-4.981155396E0,2.140808105E-1
2.287078858E0,-8.724731445E0,-5.079330444E0,5.361022949E-1
2.289581299E0,-8.406295776E0,-5.031433105E0,6.079254150E-1
2.292114258E0,-8.041183472E0,-4.960815430E0,4.523162842E-1
2.294616700E0,-7.792190552E0,-5.054183960E0,3.517456055E-1
2.297149659E0,-7.610229492E0,-4.979965210E0,3.733062744E-1
2.299652100E0,-7.618606567E0,-4.809982300E0,1.733856201E-1
2.302185059E0,-7.853240967E0,-4.753707886E0,-9.237670898E-2
2.304718018E0,-7.944213867E0,-4.777648926E0,-8.638000488E-2
2.307220459E0,-7.910705566E0,-4.720199585E0,-4.927062988E-2
2.309753418E0,-7.877182007E0,-4.669921875E0,2.494812012E-2
2.312255860E0,-7.837677002E0,-4.674697876E0,1.099395752E-1
2.314758301E0,-7.835281372E0,-4.695053101E0,1.685943604E-1
2.317291260E0,-7.920272827E0,-4.654357910E0,1.207122803E-1
2.319824219E0,-8.099838257E0,-4.641189575E0,-1.354675293E-1
2.322326661E0,-8.121383667E0,-4.747726440E0,-1.318817139E-1
2.324859620E0,-7.998092651E0,-4.740539551E0,-3.377838135E-1
2.327362061E0,-8.048370361E0,-4.750122070E0,-5.652313232E-1
2.329895020E0,-8.218353271E0,-4.663925171E0,-7.268371582E-1
2.332397461E0,-8.312927246E0,-4.665130615E0,-8.417510986E-1
2.334930420E0,-8.328491211E0,-4.571746826E0,-1.002166748E0
2.337432862E0,-8.280609131E0,-4.428100586E0,-9.937896729E-1
2.339965821E0,-8.253067017E0,-4.229385376E0,-1.088363647E0
2.342468262E0,-8.249481201E0,-4.188674927E0,-9.040069580E-1
2.345001221E0,-8.218353271E0,-4.297622681E0,-7.184600830E-1
2.347503663E0,-8.150115967E0,-4.431686401E0,-7.256317139E-1
2.350036622E0,-8.107025146E0,-4.631607056E0,-6.190948486E-1
2.352539063E0,-7.904708862E0,-4.792022705E0,-6.023406982E-1
2.355072022E0,-7.728744507E0,-4.999114990E0,-5.065612793E-1
2.357604981E0,-7.604248047E0,-5.131988525E0,-6.693725586E-1
2.360107422E0,-7.470169067E0,-5.244522095E0,-1.042877197E0
2.362640381E0,-7.600646973E0,-5.203826904E0,-1.853302002E0
2.365142823E0,-8.364395142E0,-6.766036987E0,-2.933090210E0
2.367675782E0,-8.175262451E0,-7.304733276E0,-3.711212158E0
2.370178223E0,-7.306167603E0,-6.797164917E0,-3.195251465E0
2.372711182E0,-7.180465698E0,-7.092849731E0,-3.083923340E0
2.375213624E0,-7.102661133E0,-7.487884521E0,-3.283843994E0
2.377746582E0,-7.004486084E0,-7.782379150E0,-3.732757568E0
2.380249024E0,-6.877593994E0,-7.898498535E0,-4.079910278E0
2.382781983E0,-6.607055664E0,-7.812301636E0,-4.049987793E0
2.385284424E0,-6.263488770E0,-7.562103271E0,-3.555587769E0
2.387817383E0,-5.801406860E0,-7.064117432E0,-2.810989380E0
2.390319825E0,-5.382415771E0,-6.452392578E0,-2.046035767E0
2.392852784E0,-4.939498901E0,-5.875396729E0,-1.376861572E0
2.395355225E0,-4.616271973E0,-5.331909180E0,-1.056045532E0
2.397888184E0,-4.539657593E0,-4.953628540E0,-1.094345093E0
2.400421143E0,-4.832946777E0,-4.745330811E0,-9.973754883E-1
2.402923584E0,-5.329742432E0,-4.826736450E0,-8.166198730E-1
2.405456543E0,-5.450653076E0,-5.024261475E0,-3.629150391E-1
2.407958985E0,-5.371643066E0,-5.091293335E0,2.128906250E-1
2.410491944E0,-5.327362061E0,-5.564147949E0,9.706573486E-1
2.413024903E0,-5.573959351E0,-6.211776733E0,1.709259033E0
2.415557862E0,-6.258697510E0,-6.289596558E0,2.425125122E0
2.418060303E0,-7.117019653E0,-6.390151978E0,3.300216675E0
2.420593262E0,-7.922668457E0,-6.789978027E0,4.157333374E0
2.423095704E0,-8.515228271E0,-7.123977661E0,4.877990723E0
2.425628663E0,-9.153289795E0,-7.509445190E0,5.584274292E0
2.428131104E0,-9.658462524E0,-7.855407715E0,6.011642456E0
2.430664063E0,-1.002478027E1,-8.082855225E0,6.263031006E0
2.433166504E0,-1.010139465E1,-8.222915649E0,6.063125610E0
2.435699463E0,-9.836837769E0,-8.266006470E0,5.561538696E0
2.438201905E0,-9.486083984E0,-8.390502930E0,4.985733032E0
2.440734864E0,-9.088638306E0,-8.416839600E0,4.397949219E0
2.443237305E0,-8.766632080E0,-8.346206665E0,3.882003784E0
2.445770264E0,-8.304550171E0,-8.286361694E0,3.061996460E0
2.448303223E0,-7.941818237E0,-8.194183350E0,2.364074707E0
2.450805665E0,-7.702407837E0,-8.085250854E0,1.939102173E0
2.453338624E0,-7.540802002E0,-7.975112915E0,1.666168213E0
2.455841065E0,-7.478546143E0,-7.762023926E0,1.527297974E0
2.458374024E0,-7.294189453E0,-7.443603516E0,1.381256104E0
2.460876465E0,-7.034423828E0,-7.226928711E0,1.223236084E0
2.463409424E0,-6.912322998E0,-6.977920532E0,1.086776733E0
2.465911866E0,-6.755493164E0,-6.793579102E0,9.586791992E-1
2.468444825E0,-6.791412354E0,-6.693008423E0,7.851104736E-1
2.470947266E0,-6.871612549E0,-6.536193848E0,6.246948242E-1
2.473480225E0,-6.882385254E0,-6.398529053E0,4.618835449E-1
2.475982666E0,-6.874008179E0,-6.355438232E0,3.780822754E-1
2.478515625E0,-6.858444214E0,-6.296768188E0,3.194274902E-1
2.481018067E0,-6.834503174E0,-6.251281738E0,2.775268555E-1
2.483551026E0,-6.675292969E0,-6.284805298E0,2.595825195E-1
2.486053467E0,-6.634582520E0,-6.183044434E0,3.290100098E-1
2.488586426E0,-6.689651489E0,-6.127990723E0,3.218231201E-1
2.491088868E0,-6.664520264E0,-6.077713013E0,3.170318604E-1
2.493621827E0,-6.596282959E0,-6.119598389E0,4.427337646E-1
2.496154786E0,-6.419113159E0,-6.271636963E0,5.720214844E-1
2.498657227E0,-6.372421265E0,-6.212982178E0,7.001037598E-1
2.501190186E0,-6.510086060E0,-6.169876099E0,7.886962891E-1
2.503692627E0,-6.438262939E0,-6.181854248E0,9.323425293E-1
2.506225586E0,-6.353271484E0,-6.163894653E0,9.909973145E-1
2.508728028E0,-6.223983765E0,-6.144744873E0,1.135848999E0
2.511260987E0,-6.171310425E0,-6.154327393E0,1.234008789E0
2.513763428E0,-6.059982300E0,-6.142349243E0,1.353729248E0
2.516296387E0,-6.040832520E0,-6.136367798E0,1.404006958E0
2.518798829E0,-5.994140625E0,-6.184249878E0,1.426742554E0
2.521331788E0,-6.012100220E0,-6.104034424E0,1.447097778E0
2.523834229E0,-5.925903320E0,-6.037002563E0,1.435134888E0
2.526367188E0,-5.943862915E0,-6.025039673E0,1.448303223E0
2.528869629E0,-6.082733154E0,-6.045379639E0,1.414779663E0
2.531402588E0,-6.080337524E0,-5.977142334E0,1.339355469E0
2.533905030E0,-6.073150635E0,-5.936447144E0,1.309432983E0
2.536437989E0,-6.094696045E0,-5.952011108E0,1.212463379E0
2.538970948E0,-6.070755005E0,-5.907714844E0,1.200500488E0
2.541473389E0,-5.854080200E0,-5.906524658E0,1.119094849E0
2.544006348E0,-5.872039795E0,-5.918487549E0,1.125076294E0
2.546508790E0,-5.915130615E0,-5.877792358E0,1.104736328E0
2.549041749E0,-5.839721680E0,-5.966369629E0,1.152618408E0
2.551544190E0,-5.843307495E0,-5.935256958E0,1.048461914E0
2.554077149E0,-5.895980835E0,-6.025039673E0,1.044876099E0
2.556579590E0,-5.989349365E0,-6.124389648E0,1.028121948E0
2.559112549E0,-6.049209595E0,-6.089675903E0,9.838256836E-1
2.561614991E0,-6.173706055E0,-6.165100098E0,9.706573486E-1
2.564147950E0,-6.249130249E0,-6.201004028E0,1.042480469E0
2.566650391E0,-6.162933350E0,-6.234527588E0,9.778289795E-1
2.569183350E0,-6.127014160E0,-6.301559448E0,9.682617188E-1
2.571685791E0,-5.921112061E0,-6.269241333E0,9.802246094E-1
2.574218750E0,-5.740356445E0,-6.254882812E0,9.682617188E-1
2.576721192E0,-5.632614136E0,-6.251281738E0,1.080780029E0
2.579254151E0,-5.488967896E0,-6.239318848E0,1.052062988E0
2.581787110E0,-5.339324951E0,-6.153121948E0,8.712921143E-1
2.584289551E0,-5.156173706E0,-6.137557983E0,7.946777344E-1
2.586822510E0,-4.990966797E0,-6.065734863E0,8.988342285E-1
2.589324952E0,-4.849716187E0,-6.071716309E0,9.347381592E-1
2.591857911E0,-4.688110352E0,-6.057357788E0,9.251708984E-1
2.594360352E0,-4.643814087E0,-6.121994019E0,8.892517090E-1
2.596893311E0,-4.539657593E0,-6.190231323E0,1.060440063E0
2.599395752E0,-4.437911987E0,-6.257263184E0,1.125076294E0
2.601928711E0,-4.312210083E0,-6.222549438E0,1.123886108E0
2.604431153E0,-4.228424072E0,-6.196212769E0,1.123886108E0
2.606964112E0,-4.186523438E0,-6.205795288E0,1.096343994E0
2.609466553E0,-4.151794434E0,-6.297973633E0,1.010162354E0
2.611999512E0,-4.133850098E0,-6.320724487E0,9.538879395E-1
2.614501954E0,-4.107513428E0,-6.284805298E0,8.449554443E-1
2.617034913E0,-4.065612793E0,-6.296768188E0,7.551727295E-1
2.619537354E0,-3.985412598E0,-6.300369263E0,6.713714600E-1
2.622070313E0,-3.944702148E0,-6.215377808E0,6.510314941E-1
2.624572754E0,-3.854919434E0,-6.180648804E0,5.289306641E-1
2.627105713E0,-3.851333618E0,-6.066925049E0,4.762573242E-1
2.629638672E0,-3.790283203E0,-5.965179443E0,3.349914551E-1
2.632141114E0,-3.842956543E0,-5.925674438E0,3.002777100E-1
2.634674073E0,-3.716064453E0,-5.855041504E0,5.157623291E-1
2.637176514E0,-3.726837158E0,-5.778427124E0,4.271697998E-1
2.639709473E0,-3.710067749E0,-5.809555054E0,3.421783447E-1
2.642211915E0,-3.745986938E0,-5.894546509E0,3.541412354E-1
2.644744874E0,-3.756759644E0,-5.917297363E0,4.355468750E-1
2.647247315E0,-3.749572754E0,-6.042984009E0,6.546173096E-1
2.649780274E0,-3.810623169E0,-6.228546143E0,8.006591797E-1
2.652282715E0,-3.926742554E0,-6.282409668E0,7.755279541E-1
2.654815674E0,-3.841751099E0,-6.312332153E0,6.965179443E-1
2.657318116E0,-3.819015503E0,-6.262054443E0,6.486358643E-1
2.659851075E0,-3.792678833E0,-6.172271729E0,5.875854492E-1
2.662353516E0,-3.711273193E0,-6.204605103E0,5.313110352E-1
2.664886475E0,-3.701690674E0,-6.276428223E0,4.798431396E-1
2.667388916E0,-3.791473389E0,-6.212982178E0,1.937408447E-1
2.669921875E0,-3.829788208E0,-6.082489014E0,8.958435059E-2
2.672424317E0,-3.744781494E0,-6.003479004E0,1.745758057E-1
2.674957276E0,-3.657394409E0,-5.965179443E0,9.796142578E-2
2.677490235E0,-3.664581299E0,-5.873001099E0,-1.934814453E-2
2.679992676E0,-3.627471924E0,-5.689849854E0,-6.604003906E-2
2.682495118E0,-3.584381104E0,-5.530624390E0,-8.877563477E-2
2.685028077E0,-3.529312134E0,-5.317550659E0,-1.007537842E-1
2.687561036E0,-3.445510864E0,-5.149948120E0,-1.187133789E-1
2.690063477E0,-3.215667725E0,-4.824340820E0,9.384155273E-3
2.692596436E0,-3.231231689E0,-4.669921875E0,-6.843566895E-2
2.695098877E0,-3.367706299E0,-4.843490601E0,-5.173492432E-1
2.697631836E0,-3.458679199E0,-4.923706055E0,-3.305969238E-1
2.700164795E0,-3.443115234E0,-4.821945190E0,-2.635498047E-1
2.702697754E0,-3.519729614E0,-4.814758301E0,-3.665008545E-1
2.705200196E0,-3.628662109E0,-4.994323730E0,-4.096069336E-1
2.707733155E0,-3.666976929E0,-4.902145386E0,-3.724975586E-1
2.710235596E0,-3.654998779E0,-4.939270020E0,-3.078460693E-1
2.712768555E0,-3.581985474E0,-4.898559570E0,-2.623596191E-1
2.715270997E0,-3.542480469E0,-4.886596680E0,-3.796691895E-1
2.717803956E0,-3.585571289E0,-5.084106445E0,-3.988342285E-1
2.720336915E0,-3.571212769E0,-5.000320435E0,-2.982788086E-1
2.722839356E0,-3.508956909E0,-5.013488770E0,-2.192687988E-1
2.725372315E0,-3.421569824E0,-5.158325195E0,-3.521423340E-1
2.727874756E0,-3.441925049E0,-5.352264404E0,-4.167938232E-1
2.730407715E0,-3.504165649E0,-5.389373779E0,-6.490173340E-1
2.732910157E0,-3.455093384E0,-5.524642944E0,-8.585205078E-1
2.735443116E0,-3.468261719E0,-5.877792358E0,-7.064819336E-1
2.737945557E0,-4.502548218E0,-8.680206299E0,-6.945190430E-1
2.740478516E0,-6.590301514E0,-1.614651489E1,-7.244415283E-1
2.742980957E0,-8.792968750E0,-2.456213379E1,-1.267929077E0
2.745513916E0,-1.011097717E1,-3.074876404E1,-9.554748535E-1
2.748016358E0,-1.058502197E1,-3.411500549E1,-3.012084961E-2
2.750549317E0,-1.101118469E1,-3.589628601E1,5.301208496E-1
2.753051758E0,-1.156544495E1,-3.732562256E1,5.193481445E-1
2.755584717E0,-1.156425476E1,-3.851196289E1,7.168731689E-1
2.758087159E0,-1.101718140E1,-3.770631409E1,9.586791992E-1
2.760620118E0,-9.788955688E0,-3.480693054E1,1.011352539E0
2.763122559E0,-8.039978027E0,-3.099057007E1,1.187332153E0
2.765655518E0,-6.253906250E0,-2.711914062E1,1.669754028E0
2.768188477E0,-4.616271973E0,-2.345123291E1,2.063613892E0
2.770690918E0,-3.468261719E0,-2.024299622E1,2.036071777E0
2.773223877E0,-2.546493530E0,-1.779492188E1,2.167755127E0
2.775726319E0,-1.655853271E0,-1.579338074E1,2.189300537E0
2.778259278E0,-1.028564453E0,-1.400610352E1,2.204864502E0
2.780761719E0,-6.790161133E-1,-1.243789673E1,2.151000977E0
2.783294678E0,-5.221862793E-1,-1.112109375E1,2.207260132E0
2.785797120E0,-3.952941895E-1,-9.980255127E0,2.268310547E0
2.788330079E0,-4.060668945E-1,-8.966308594E0,2.261123657E0
2.790832520E0,-4.443817139E-1,-8.195373535E0,2.099517822E0
2.793334961E0,-4.060668945E-1,-7.572891235E0,1.969039917E0
2.795867920E0,-4.336090088E-1,-7.098831177E0,1.755950928E0
2.798400879E0,-4.994506836E-1,-6.776809692E0,1.529693604E0
2.800903321E0,-6.526794434E-1,-6.669067383E0,1.218460083E0
2.803436280E0,-9.507598877E-1,-6.647521973E0,7.467956543E-1
2.805938721E0,-1.119552612E0,-6.466766357E0,2.871093750E-1
2.808471680E0,-1.014205933E0,-6.269241333E0,9.078979492E-2
2.810974122E0,-1.008209229E0,-6.144744873E0,-1.450500488E-1
2.813507081E0,-1.035751343E0,-6.201004028E0,-4.251708984E-1
2.816040040E0,-1.087219238E0,-6.269241333E0,-5.855712891E-1
2.818542481E0,-1.160247803E0,-6.408111572E0,-5.233306885E-1
2.821075440E0,-1.256011963E0,-6.556549072E0,-5.173492432E-1
2.823577881E0,-1.289535522E0,-6.721740723E0,-4.670715332E-1
2.826110840E0,-1.478668213E0,-6.961166382E0,-4.251708984E-1
2.828613282E0,-1.768371582E0,-7.277206421E0,-3.569335938E-1
2.831146241E0,-2.141876221E0,-7.678222656E0,-2.875061035E-1
2.833648682E0,-2.438751221E0,-8.046936035E0,-2.276458740E-1
2.836181641E0,-2.717681885E0,-8.330642700E0,-2.001037598E-1
2.838684082E0,-2.896041870E0,-8.614364624E0,-1.629943848E-1
2.841217041E0,-3.032516479E0,-8.883712769E0,-9.237670898E-2
2.843719483E0,-3.249191284E0,-9.129119873E0,-7.560729980E-2
2.846252442E0,-3.382064819E0,-9.356567383E0,-3.491210938E-2
2.848754883E0,-3.502975464E0,-9.551696777E0,-4.687500000E-2
2.851287842E0,-3.683731079E0,-9.734848022E0,-7.083129883E-2
2.853820801E0,-3.826187134E0,-9.898849487E0,-2.593994141E-3
2.856323243E0,-3.924346924E0,-1.000300598E1,1.171264648E-1
2.858856202E0,-4.033294678E0,-1.003172302E1,2.835235596E-1
2.861358643E0,-4.004562378E0,-1.003411865E1,4.451293945E-1
2.863891602E0,-3.920761108E0,-1.009516907E1,6.474304199E-1
2.866394043E0,-3.781890869E0,-9.971878052E0,8.688964844E-1
2.868927002E0,-3.589157104E0,-9.891662598E0,9.227752686E-1
2.871429444E0,-3.465866089E0,-9.823440552E0,9.024200439E-1
2.873962403E0,-3.378479004E0,-9.797103882E0,8.712921143E-1
2.876464844E0,-3.255172729E0,-9.753997803E0,8.449554443E-1
2.878997803E0,-3.153427124E0,-9.713302612E0,8.581237793E-1
2.881500245E0,-3.061248779E0,-9.692947388E0,8.150329590E-1
2.884033204E0,-2.943923950E0,-9.631896973E0,7.372131348E-1
2.886535645E0,-2.850555420E0,-9.607955933E0,6.246948242E-1
2.889068604E0,-2.745208740E0,-9.539718628E0,5.097656250E-1
2.891571045E0,-2.673385620E0,-9.512191772E0,4.104156494E-1
2.894104004E0,-2.570434570E0,-9.487045288E0,2.607727051E-1
2.896606446E0,-2.552474976E0,-9.420013428E0,1.865539551E-1
2.899139405E0,-2.485443115E0,-9.420013428E0,4.649353027E-2
2.901641846E0,-2.402832031E0,-9.362548828E0,-9.477233887E-2
2.904174805E0,-2.375305176E0,-9.344589233E0,-1.989135742E-1
2.906707764E0,-2.393264771E0,-9.373321533E0,-2.803192139E-1
2.909210206E0,-2.370513916E0,-9.375717163E0,-3.856658936E-1
2.911743165E0,-2.366928101E0,-9.349380493E0,-3.701019287E-1
2.914245606E0,-2.417205811E0,-9.269180298E0,-3.437652588E-1
2.916778565E0,-2.449523926E0,-9.263183594E0,-3.114471436E-1
2.919281006E0,-2.445938110E0,-9.239242554E0,-1.965179443E-1
2.921813965E0,-2.524948120E0,-9.185379028E0,-8.998107910E-2
2.924316407E0,-2.565643311E0,-9.217697144E0,5.783081055E-3
2.926849366E0,-2.571624756E0,-9.244033813E0,1.518402100E-1
2.929351807E0,-2.659011841E0,-9.188964844E0,2.571868896E-1
2.931884766E0,-2.694931030E0,-9.223693848E0,3.625335693E-1
2.934387207E0,-2.757186890E0,-9.240447998E0,4.403381348E-1
2.936920166E0,-2.820632935E0,-9.260803223E0,5.552520752E-1
2.939422608E0,-2.868515015E0,-9.263183594E0,6.833496094E-1
2.941955567E0,-2.867309570E0,-9.278747559E0,7.611541748E-1
2.944458008E0,-2.891250610E0,-9.363754272E0,8.138275146E-1
2.946990967E0,-2.910415649E0,-9.410430908E0,9.096069336E-1
2.949523926E0,-2.929565430E0,-9.423599243E0,9.311523438E-1
2.952026368E0,-2.909210205E0,-9.386489868E0,9.407196045E-1
2.954559327E0,-2.910415649E0,-9.425994873E0,9.706573486E-1
2.957061768E0,-2.904418945E0,-9.455917358E0,9.670562744E-1
2.959594727E0,-2.912796021E0,-9.463104248E0,9.155883789E-1
2.962097168E0,-2.928359985E0,-9.465499878E0,8.677062988E-1
2.964630127E0,-2.890060425E0,-9.485855103E0,7.994689941E-1
2.967132569E0,-2.875686646E0,-9.488250732E0,7.264404297E-1
2.969665528E0,-2.878082275E0,-9.489440918E0,6.534271240E-1
2.972167969E0,-2.836181641E0,-9.481063843E0,5.672302246E-1
2.974700928E0,-2.796676636E0,-9.505004883E0,5.205383301E-1
2.977203370E0,-2.769149780E0,-9.491836548E0,4.415283203E-1
2.979736329E0,-2.794296265E0,-9.472686768E0,3.960418701E-1
2.982238770E0,-2.772735596E0,-9.441558838E0,3.840789795E-1
2.984771729E0,-2.740417480E0,-9.451141357E0,2.703552246E-1
2.987304688E0,-2.728454590E0,-9.415222168E0,2.476043701E-1
2.989837647E0,-2.728454590E0,-9.437973022E0,1.769714355E-1
2.992340088E0,-2.724853516E0,-9.385299683E0,1.530303955E-1
2.994873047E0,-2.751190186E0,-9.415222168E0,1.278991699E-1
2.997406006E0,-2.738021851E0,-9.361358643E0,9.796142578E-2
2.999908448E0,-2.706893921E0,-9.376922607E0,9.318542480E-2
3.002441407E0,-2.687744141E0,-9.326644897E0,1.242980957E-1
3.004943848E0,-2.690139771E0,-9.333816528E0,1.278991699E-1
3.007476807E0,-2.708099365E0,-9.323043823E0,1.661987305E-1
3.009979249E0,-2.660217285E0,-9.314666748E0,1.853485107E-1
3.012512207E0,-2.599166870E0,-9.382904053E0,2.248535156E-1
3.015014649E0,-2.581207275E0,-9.379302979E0,2.715454102E-1
3.017547608E0,-2.603958130E0,-9.386489868E0,2.667541504E-1
3.020050049E0,-2.568038940E0,-9.404449463E0,4.151916504E-1
3.022583008E0,-2.539306641E0,-9.393676758E0,3.924560547E-1
3.025085450E0,-2.495010376E0,-9.412826538E0,3.685150146E-1
3.027618409E0,-2.485443115E0,-9.406845093E0,4.295654297E-1
3.030120850E0,-2.477050781E0,-9.333816528E0,4.822387695E-1
3.032653809E0,-2.457901001E0,-9.337417603E0,4.978027344E-1
3.035156250E0,-2.421997070E0,-9.392471313E0,4.989929199E-1
3.037689209E0,-2.429168701E0,-9.351776123E0,4.678649902E-1
3.040191651E0,-2.465087891E0,-9.307479858E0,4.906158447E-1
3.042724610E0,-2.453109741E0,-9.386489868E0,5.408935547E-1
3.045257569E0,-2.437561035E0,-9.352966309E0,5.085754395E-1
3.047760010E0,-2.463882446E0,-9.342193604E0,5.253295898E-1
3.050292969E0,-2.472274780E0,-9.393676758E0,5.121612549E-1
3.052795411E0,-2.497406006E0,-9.305084229E0,5.289306641E-1
3.055328370E0,-2.551284790E0,-9.315856934E0,5.504760742E-1
3.057830811E0,-2.556060791E0,-9.305084229E0,5.229339600E-1
3.060363770E0,-2.580001831E0,-9.278747559E0,5.061798096E-1
3.062866211E0,-2.639862061E0,-9.288330078E0,4.786376953E-1
3.065399170E0,-2.700912476E0,-9.276351929E0,5.253295898E-1
3.067901612E0,-2.691345215E0,-9.263183594E0,5.600433350E-1
3.070434571E0,-2.738021851E0,-9.247634888E0,5.229339600E-1
3.072937012E0,-2.767959595E0,-9.212905884E0,4.750518799E-1
3.075469971E0,-2.784713745E0,-9.178192139E0,4.642791748E-1
3.077972413E0,-2.820632935E0,-9.159042358E0,4.726562500E-1
3.080505372E0,-2.864913940E0,-9.169815063E0,4.989929199E-1
3.083007813E0,-2.929565430E0,-9.171020508E0,4.906158447E-1
3.085540772E0,-2.933151245E0,-9.187774658E0,4.487152100E-1
3.088073731E0,-2.939132690E0,-9.178192139E0,4.415283203E-1
3.090576172E0,-2.993011475E0,-9.149459839E0,3.924560547E-1
3.093109131E0,-3.018142700E0,-9.102783203E0,3.541412354E-1
3.095611573E0,-3.031311035E0,-9.108764648E0,3.158416748E-1
3.098144532E0,-3.057647705E0,-9.118347168E0,3.218231201E-1
3.100646973E0,-3.098358154E0,-9.113555908E0,3.014678955E-1
3.103179932E0,-3.097152710E0,-9.108764648E0,3.062591553E-1
3.105682374E0,-3.119903564E0,-9.101577759E0,3.361968994E-1
3.108215332E0,-3.184539795E0,-9.112350464E0,2.751312256E-1
3.110717774E0,-3.167785645E0,-9.119537354E0,2.236633301E-1
3.113250733E0,-3.153427124E0,-9.123123169E0,2.260589600E-1
3.115753174E0,-3.224044800E0,-9.131515503E0,2.859191895E-1
3.118286133E0,-3.245590210E0,-9.143478394E0,2.272491455E-1
3.120788575E0,-3.213272095E0,-9.191360474E0,2.069091797E-1
3.123321534E0,-3.228836060E0,-9.173400879E0,2.392272949E-1
3.125823975E0,-3.249191284E0,-9.228469849E0,2.104949951E-1
3.128356934E0,-3.252777100E0,-9.204528809E0,1.661987305E-1
3.130859375E0,-3.267150879E0,-9.226074219E0,2.152862549E-1
3.133392334E0,-3.215667725E0,-9.300308228E0,2.428131104E-1
3.135925293E0,-3.263549805E0,-9.369735718E0,2.607727051E-1
3.138427735E0,-3.261154175E0,-9.314666748E0,2.128906250E-1
3.140960694E0,-3.237213135E0,-9.333816528E0,2.069091797E-1
3.143463135E0,-3.305450439E0,-9.345794678E0,2.487945557E-1
3.145996094E0,-3.337768555E0,-9.327835083E0,2.140808105E-1
3.148498536E0,-3.353332520E0,-9.283538818E0,2.260589600E-1
3.151031495E0,-3.394042969E0,-9.287139893E0,2.751312256E-1
3.153533936E0,-3.371292114E0,-9.293121338E0,3.146362305E-1
3.156066895E0,-3.379669189E0,-9.301498413E0,3.397827148E-1
3.158569336E0,-3.446716309E0,-9.236862183E0,3.074645996E-1
3.161102295E0,-3.477828979E0,-9.246429443E0,3.361968994E-1
3.163604737E0,-3.488601685E0,-9.267974854E0,3.972473145E-1
3.166137696E0,-3.542480469E0,-9.233261108E0,4.140014648E-1
3.168640137E0,-3.535293579E0,-9.208129883E0,4.559020996E-1
3.171173096E0,-3.548461914E0,-9.184188843E0,4.654846191E-1
3.173675538E0,-3.579589844E0,-9.169815063E0,4.247741699E-1
3.176208497E0,-3.548461914E0,-9.125518799E0,4.582977295E-1
3.178741456E0,-3.519729614E0,-9.101577759E0,4.546966553E-1
3.181243897E0,-3.530502319E0,-9.071655273E0,4.559020996E-1
3.183776856E0,-3.534103394E0,-9.084823608E0,4.032287598E-1
3.186279297E0,-3.459884644E0,-9.046508789E0,4.080200195E-1
3.188812256E0,-3.428756714E0,-9.080032349E0,3.852691650E-1
3.191314698E0,-3.397628784E0,-9.034545898E0,3.637237549E-1
3.193847657E0,-3.406005859E0,-9.032150269E0,3.577423096E-1
3.196350098E0,-3.362915039E0,-9.041732788E0,3.086547852E-1
3.198883057E0,-3.356933594E0,-9.071655273E0,3.026733398E-1
3.201385499E0,-3.353332520E0,-9.059677124E0,3.026733398E-1
3.203918457E0,-3.328201294E0,-9.042922974E0,2.500000000E-1
3.206420899E0,-3.326995850E0,-9.095596313E0,1.925354004E-1
3.208953858E0,-3.261154175E0,-9.132705688E0,1.829681396E-1
3.211456299E0,-3.227645874E0,-9.165023804E0,1.458587646E-1
3.213989258E0,-3.203704834E0,-9.148269653E0,1.721801758E-1
3.216491700E0,-3.195312500E0,-9.153060913E0,1.674041748E-1
3.219024659E0,-3.153427124E0,-9.235656738E0,2.021179199E-1
3.221527100E0,-3.100753784E0,-9.250015259E0,1.805725098E-1
3.224060059E0,-3.152221680E0,-9.246429443E0,1.709899902E-1
3.226593018E0,-3.107925415E0,-9.278747559E0,2.152862549E-1
3.229095459E0,-3.087585449E0,-9.245239258E0,2.093048096E-1
3.231628418E0,-3.092361450E0,-9.301498413E0,2.033081055E-1
3.234130860E0,-3.079193115E0,-9.275161743E0,2.176818848E-1
3.236663819E0,-3.078002930E0,-9.199737549E0,2.057037354E-1
3.239166260E0,-3.048080444E0,-9.185379028E0,2.152862549E-1
3.241699219E0,-3.038497925E0,-9.258407593E0,2.619628906E-1
3.244201661E0,-2.973861694E0,-9.278747559E0,2.787322998E-1
3.246734620E0,-2.959487915E0,-9.256011963E0,2.715454102E-1
3.249237061E0,-2.996597290E0,-9.283538818E0,2.595825195E-1
3.251770020E0,-2.965469360E0,-9.251220703E0,2.021179199E-1
3.254272461E0,-2.937942505E0,-9.264389038E0,2.428131104E-1
3.256805420E0,-2.911605835E0,-9.357757568E0,2.751312256E-1
3.259307862E0,-2.923583984E0,-9.314666748E0,1.961364746E-1
3.261840821E0,-2.917587280E0,-9.356567383E0,2.009124756E-1
3.264343262E0,-2.896041870E0,-9.355361938E0,2.057037354E-1
3.266876221E0,-2.875686646E0,-9.382904053E0,2.152862549E-1
3.269409180E0,-2.885269165E0,-9.396072388E0,1.578216553E-1
3.271942139E0,-2.887664795E0,-9.327835083E0,2.128906250E-1
3.274475098E0,-2.894851685E0,-9.214111328E0,1.494445801E-1
3.276977540E0,-2.909210205E0,-9.278747559E0,1.482391357E-1
3.279510499E0,-2.924774170E0,-9.346984863E0,1.362762451E-1
3.282012940E0,-2.969070435E0,-9.357757568E0,1.242980957E-1
3.284545899E0,-2.959487915E0,-9.305084229E0,9.078979492E-2
3.287048340E0,-2.904418945E0,-9.312271118E0,1.099395752E-1
3.289581299E0,-2.869705200E0,-9.373321533E0,1.733856201E-1
3.292083741E0,-2.825408936E0,-9.400863647E0,1.913452148E-1
3.294616700E0,-2.803863525E0,-9.403259277E0,1.829681396E-1
3.297119141E0,-2.791900635E0,-9.337417603E0,2.128906250E-1
3.299652100E0,-2.806259155E0,-9.284744263E0,2.104949951E-1
3.302154541E0,-2.808654785E0,-9.323043823E0,2.775268555E-1
3.304687500E0,-2.857742310E0,-9.420013428E0,-6.723022461E-2
3.307189942E0,-2.965469360E0,-9.442749023E0,-6.657867432E-1
3.309722901E0,-3.088775635E0,-9.246429443E0,-1.929321289E-1
3.312255860E0,-3.030120850E0,-9.147079468E0,4.582977295E-1
3.314758301E0,-3.085189819E0,-9.277557373E0,5.744171143E-1
3.317260743E0,-3.225250244E0,-9.265579224E0,4.116058350E-1
3.319793702E0,-3.230041504E0,-9.309875488E0,3.996429443E-1
3.322296143E0,-3.146240234E0,-9.281143188E0,4.630889893E-1
3.324829102E0,-3.034912109E0,-9.343399048E0,4.008331299E-1
3.327362061E0,-3.049270630E0,-9.325439453E0,3.433685303E-1
3.329864502E0,-3.043289185E0,-9.338607788E0,3.541412354E-1
3.332366944E0,-2.965469360E0,-9.295516968E0,2.643585205E-1
3.334899903E0,-2.995407104E0,-9.258407593E0,1.410675049E-1
3.337402344E0,-2.982238770E0,-9.229675293E0,8.178710938E-3
3.339935303E0,-2.985824585E0,-9.199737549E0,-6.243896484E-2
3.342437745E0,-3.004974365E0,-9.198547363E0,-1.749725342E-1
3.344970704E0,-2.963073730E0,-9.209320068E0,-2.863006592E-1
3.347503663E0,-2.924774170E0,-9.112350464E0,-2.755279541E-1
3.350006104E0,-2.887664795E0,-9.144683838E0,-2.491912842E-1
3.352508545E0,-2.894851685E0,-9.190170288E0,-2.946777344E-1
3.355041504E0,-2.875686646E0,-9.223693848E0,-3.940429688E-1
3.357543946E0,-2.928359985E0,-9.220092773E0,-4.084014893E-1
3.360076905E0,-2.885269165E0,-9.199737549E0,-3.425598145E-1
3.362609864E0,-2.963073730E0,-9.266784668E0,-3.138427734E-1
3.365142823E0,-2.943923950E0,-9.352966309E0,-3.102416992E-1
3.367645264E0,-2.929565430E0,-9.273971558E0,-3.066558838E-1
3.370178223E0,-2.958297729E0,-9.306289673E0,-2.946777344E-1
3.372680665E0,-2.981033325E0,-9.301498413E0,-2.539825439E-1
3.375213624E0,-3.034912109E0,-9.318252563E0,-2.587738037E-1
3.377716065E0,-3.057647705E0,-9.297912598E0,-1.881408691E-1
3.380249024E0,-3.125885010E0,-9.275161743E0,-2.013092041E-1
3.382751465E0,-3.131866455E0,-9.239242554E0,-1.761627197E-1
3.385253907E0,-3.125885010E0,-9.180587769E0,-1.282806396E-1
3.387786866E0,-3.145034790E0,-9.197357178E0,-1.199035645E-1
3.390289307E0,-3.154617310E0,-9.182983398E0,-1.594085693E-1
3.392822266E0,-3.118698120E0,-9.191360474E0,-1.019439697E-1
3.395355225E0,-3.100753784E0,-9.182983398E0,-1.151123047E-1
3.397857666E0,-3.062438965E0,-9.204528809E0,-8.758544922E-2
3.400390625E0,-3.074417114E0,-9.218902588E0,-1.007537842E-1
3.402923584E0,-2.981033325E0,-9.258407593E0,-1.079406738E-1
3.405426026E0,-2.997802734E0,-9.240447998E0,-9.835815430E-2
3.407958985E0,-2.959487915E0,-9.326644897E0,-5.885314941E-2
3.410461426E0,-2.905624390E0,-9.331420898E0,-1.031494141E-1
3.412994385E0,-2.878082275E0,-9.350585938E0,-1.234893799E-1
3.415496827E0,-2.866119385E0,-9.358963013E0,-9.835815430E-2
3.418029786E0,-2.863723755E0,-9.388885498E0,-8.160400391E-2
3.420532227E0,-2.821823120E0,-9.429580688E0,-4.328918457E-2
3.423065186E0,-2.747604370E0,-9.441558838E0,-4.449462891E-2
3.425567627E0,-2.703308105E0,-9.466705322E0,-9.477233887E-2
3.428100586E0,-2.711685181E0,-9.452331543E0,-1.055450439E-1
3.430603028E0,-2.657821655E0,-9.478668213E0,-7.800292969E-2
3.433135987E0,-2.657821655E0,-9.499023438E0,-9.356689453E-2
3.435638428E0,-2.651840210E0,-9.527755737E0,-8.758544922E-2
3.438171387E0,-2.601562500E0,-9.545700073E0,-7.441711426E-2
3.440673829E0,-2.633880615E0,-9.508590698E0,-1.007537842E-1
3.443206788E0,-2.651840210E0,-9.491836548E0,-6.604003906E-2
3.445709229E0,-2.603958130E0,-9.508590698E0,-4.687500000E-2
3.448242188E0,-2.623107910E0,-9.563659668E0,-1.007537842E-1
3.450775147E0,-2.559661865E0,-9.538528442E0,-4.927062988E-2
3.453277588E0,-2.606338501E0,-9.515777588E0,-3.491210938E-2
3.455810547E0,-2.619506836E0,-9.531341553E0,-6.843566895E-2
3.458312989E0,-2.599166870E0,-9.540924072E0,-5.766296387E-2
3.460845948E0,-2.580001831E0,-9.524154663E0,-2.174377441E-2
3.463348389E0,-2.576416016E0,-9.550491333E0,-7.202148438E-2
3.465881348E0,-2.542892456E0,-9.531341553E0,-8.638000488E-2
3.468383790E0,-2.517761230E0,-9.537322998E0,-9.237670898E-2
3.470916749E0,-2.487838745E0,-9.512191772E0,-8.399963379E-2
3.473419190E0,-2.455505371E0,-9.503814697E0,-1.019439697E-1
3.475952149E0,-2.423187256E0,-9.478668213E0,-1.570129395E-1
3.478454590E0,-2.395660400E0,-9.494232178E0,-1.426544189E-1
3.480987549E0,-2.351364136E0,-9.503814697E0,-1.725769043E-1
3.483489991E0,-2.311859131E0,-9.455917358E0,-1.594085693E-1
3.486022950E0,-2.304672241E0,-9.467895508E0,-2.156677246E-1
3.488525391E0,-2.214889526E0,-9.466705322E0,-1.977233887E-1
3.491058350E0,-2.211303711E0,-9.433181763E0,-2.491912842E-1
3.493560791E0,-2.200531006E0,-9.398468018E0,-2.360229492E-1
3.496093750E0,-2.181381226E0,-9.437973022E0,-1.857452393E-1
3.498596192E0,-2.211303711E0,-9.409240723E0,-2.240600586E-1
3.501129151E0,-2.158630371E0,-9.345794678E0,-2.635498047E-1
3.503631592E0,-2.144256592E0,-9.379302979E0,-2.300415039E-1
3.506164551E0,-2.201721191E0,-9.372131348E0,-2.659454346E-1
3.508697510E0,-2.207702637E0,-9.337417603E0,-2.288360596E-1
3.511199952E0,-2.225662231E0,-9.326644897E0,-1.438446045E-1
3.513732911E0,-2.254394531E0,-9.314666748E0,-1.510314941E-1
3.516235352E0,-2.268768311E0,-9.278747559E0,-1.330718994E-1
3.518768311E0,-2.311859131E0,-9.302688599E0,-1.091308594E-1
3.521270752E0,-2.332214355E0,-9.279953003E0,-7.083129883E-2
3.523803711E0,-2.407623291E0,-9.258407593E0,-8.575439453E-3
3.526306153E0,-2.439941406E0,-9.271575928E0,-1.388549805E-3
3.528839112E0,-2.479446411E0,-9.287139893E0,1.171264648E-1
3.531341553E0,-2.546493530E0,-9.272766113E0,1.434631348E-1
3.533874512E0,-2.576416016E0,-9.372131348E0,1.985168457E-1
3.536376954E0,-2.627899170E0,-9.370925903E0,2.595825195E-1
3.538909913E0,-2.730850220E0,-9.368530273E0,3.026733398E-1
3.541412354E0,-2.741622925E0,-9.349380493E0,3.709106445E-1
3.543945313E0,-2.805068970E0,-9.422409058E0,4.702606201E-1
3.546478272E0,-2.876892090E0,-9.460708618E0,4.714660645E-1
3.548980713E0,-2.904418945E0,-9.500213623E0,4.894256592E-1
3.551513672E0,-2.949905396E0,-9.530151367E0,5.815887451E-1
3.554016114E0,-2.979843140E0,-9.514587402E0,6.079254150E-1
3.556549073E0,-2.997802734E0,-9.497817993E0,6.713714600E-1
3.559082032E0,-3.042083740E0,-9.505004883E0,6.929321289E-1
3.561614991E0,-3.083984375E0,-9.564865112E0,7.180633545E-1
3.564117432E0,-3.093566895E0,-9.587600708E0,7.168731689E-1
3.566650391E0,-3.134262085E0,-9.526550293E0,6.989135742E-1
3.569152832E0,-3.075607300E0,-9.527755737E0,6.845397949E-1
3.571685791E0,-3.088775635E0,-9.539718628E0,6.558227539E-1
3.574188233E0,-3.031311035E0,-9.496627808E0,5.911712646E-1
3.576721192E0,-3.030120850E0,-9.427200317E0,5.432891846E-1
3.579223633E0,-3.033706665E0,-9.429580688E0,4.594879150E-1
3.581756592E0,-3.028915405E0,-9.408035278E0,4.247741699E-1
3.584259034E0,-2.989410400E0,-9.326644897E0,3.421783447E-1
3.586791993E0,-2.976242065E0,-9.318252563E0,2.799224854E-1
3.589294434E0,-2.917587280E0,-9.282348633E0,2.128906250E-1
3.591827393E0,-2.921188354E0,-9.239242554E0,1.602172852E-1
3.594360352E0,-2.866119385E0,-9.223693848E0,1.015625000E-1
3.596862793E0,-2.858932495E0,-9.226074219E0,-4.449462891E-2
3.599395752E0,-2.850555420E0,-9.161437988E0,-8.758544922E-2
3.601898194E0,-2.873291016E0,-9.175796509E0,-1.187133789E-1
3.604431153E0,-2.848159790E0,-9.149459839E0,-1.510314941E-1
3.606933594E0,-2.819427490E0,-9.142288208E0,-1.977233887E-1
3.609466553E0,-2.819427490E0,-9.130310059E0,-2.396087646E-1
3.611968995E0,-2.821823120E0,-9.142288208E0,-2.767181396E-1
3.614501954E0,-2.814636230E0,-9.156646729E0,-2.491912842E-1
3.617004395E0,-2.803863525E0,-9.150665283E0,-2.767181396E-1
3.619537354E0,-2.802673340E0,-9.100387573E0,-3.353881836E-1
3.622039795E0,-2.836181641E0,-9.131515503E0,-3.234100342E-1
3.624572754E0,-2.821823120E0,-9.093200684E0,-3.473510742E-1
3.627075196E0,-2.839782715E0,-9.123123169E0,-3.413696289E-1
3.629608155E0,-2.845764160E0,-9.174606323E0,-3.641204834E-1
3.632141114E0,-2.850555420E0,-9.156646729E0,-3.413696289E-1
3.634643555E0,-2.815841675E0,-9.131515503E0,-2.982788086E-1
3.637176514E0,-2.846969604E0,-9.133911133E0,-3.329925537E-1
3.639678956E0,-2.821823120E0,-9.162628174E0,-2.970733643E-1
3.642211915E0,-2.793090820E0,-9.240447998E0,-2.886962891E-1
3.644714356E0,-2.723663330E0,-9.200942993E0,-2.743377686E-1
3.647247315E0,-2.759567261E0,-9.239242554E0,-2.695465088E-1
3.649749756E0,-2.772735596E0,-9.250015259E0,-2.767181396E-1
3.652282715E0,-2.709289551E0,-9.285934448E0,-1.929321289E-1
3.654785157E0,-2.742813110E0,-9.330230713E0,-2.096862793E-1
3.657318116E0,-2.769149780E0,-9.323043823E0,-2.001037598E-1
3.659820557E0,-2.716476440E0,-9.373321533E0,-1.510314941E-1
3.662353516E0,-2.692535400E0,-9.412826538E0,-1.534271240E-1
3.664855957E0,-2.665008545E0,-9.453536987E0,-1.462402344E-1
3.667388916E0,-2.643447876E0,-9.452331543E0,-4.927062988E-2
3.669891358E0,-2.631484985E0,-9.489440918E0,-6.604003906E-2
3.672424317E0,-2.626693726E0,-9.512191772E0,-9.715270996E-2
3.674926758E0,-2.619506836E0,-9.527755737E0,-3.970336914E-2
3.677459717E0,-2.651840210E0,-9.508590698E0,-2.532958984E-2
3.679992676E0,-2.687744141E0,-9.549301147E0,-1.815795898E-2
3.682495118E0,-2.629089355E0,-9.550491333E0,6.445312500E-2
3.685028077E0,-2.698516846E0,-9.522964478E0,7.283020020E-2
3.687530518E0,-2.662612915E0,-9.550491333E0,1.302947998E-1
3.690063477E0,-2.647048950E0,-9.568450928E0,9.197998047E-2
3.692565918E0,-2.672180176E0,-9.506195068E0,1.183166504E-1
3.695098877E0,-2.656616211E0,-9.528945923E0,1.554260254E-1
3.697601319E0,-2.648239136E0,-9.482254028E0,1.913452148E-1
3.700134278E0,-2.706893921E0,-9.490646362E0,1.949310303E-1
3.702636719E0,-2.755981445E0,-9.454727173E0,2.260589600E-1
3.705169678E0,-2.742813110E0,-9.472686768E0,2.655639648E-1
3.707672120E0,-2.754791260E0,-9.440368652E0,2.332458496E-1
3.710205079E0,-2.753585815E0,-9.423599243E0,2.140808105E-1
3.712707520E0,-2.773941040E0,-9.417617798E0,2.631683350E-1
3.715240479E0,-2.815841675E0,-9.423599243E0,2.332458496E-1
3.717742920E0,-2.769149780E0,-9.370925903E0,2.069091797E-1
3.720275879E0,-2.777526855E0,-9.381698608E0,2.284545898E-1
3.722808838E0,-2.819427490E0,-9.326644897E0,1.661987305E-1
3.725311280E0,-2.846969604E0,-9.295516968E0,1.590118408E-1
3.727844239E0,-2.861328125E0,-9.336212158E0,1.422576904E-1
3.730346680E0,-2.880477905E0,-9.312271118E0,1.374664307E-1
3.732879639E0,-2.864913940E0,-9.239242554E0,1.183166504E-1
3.735382081E0,-2.870910645E0,-9.256011963E0,1.494445801E-1
3.737915040E0,-2.850555420E0,-9.256011963E0,1.159210205E-1
3.740417481E0,-2.826614380E0,-9.220092773E0,1.015625000E-1
3.742950440E0,-2.868515015E0,-9.233261108E0,7.641601562E-2
3.745452881E0,-2.858932495E0,-9.242843628E0,4.649353027E-2
3.747985840E0,-2.821823120E0,-9.282348633E0,2.853393555E-2
3.750488282E0,-2.802673340E0,-9.318252563E0,6.324768066E-2
3.753021241E0,-2.795486450E0,-9.270370483E0,2.374267578E-2
3.755523682E0,-2.759567261E0,-9.284744263E0,2.134704590E-2
3.758056641E0,-2.754791260E0,-9.287139893E0,5.783081055E-3
3.760559082E0,-2.803863525E0,-9.282348633E0,1.296997070E-2
3.763092041E0,-2.776336670E0,-9.329025269E0,4.592895508E-3
3.765594483E0,-2.787109375E0,-9.319458008E0,6.988525391E-3
3.768127442E0,-2.758377075E0,-9.324249268E0,2.494812012E-2
3.770660401E0,-2.726058960E0,-9.354171753E0,-1.983642578E-4
3.773162842E0,-2.747604370E0,-9.362548828E0,-3.251647949E-2
3.775695801E0,-2.761962891E0,-9.376922607E0,-1.815795898E-2
3.778198243E0,-2.763168335E0,-9.378112793E0,-5.406188965E-2
3.780731202E0,-2.757186890E0,-9.405639648E0,-2.772521973E-2
3.783233643E0,-2.759567261E0,-9.415222168E0,-4.989624023E-3
3.785736084E0,-2.766754150E0,-9.376922607E0,-2.413940430E-2
3.788269043E0,-2.763168335E0,-9.393676758E0,-4.328918457E-2
3.790802002E0,-2.732040405E0,-9.390090942E0,-3.370666504E-2
3.793304444E0,-2.751190186E0,-9.385299683E0,1.536560059E-2
3.795837403E0,-2.795486450E0,-9.442749023E0,3.930664062E-2
3.798339844E0,-2.784713745E0,-9.433181763E0,1.007080078E-3
3.800872803E0,-2.758377075E0,-9.442749023E0,3.332519531E-2
3.803375245E0,-2.761962891E0,-9.470291138E0,3.572082520E-2
3.805908204E0,-2.736831665E0,-9.469085693E0,3.092956543E-2
3.808410645E0,-2.771545410E0,-9.495422363E0,5.845642090E-2
3.810943604E0,-2.794296265E0,-9.472686768E0,9.197998047E-2
3.813446045E0,-2.770355225E0,-9.470291138E0,5.128479004E-2
3.815979004E0,-2.776336670E0,-9.475082397E0,1.410675049E-1
3.818511963E0,-2.765563965E0,-9.455917358E0,1.255035400E-1
3.821014405E0,-2.753585815E0,-9.463104248E0,1.015625000E-1
3.823547364E0,-2.787109375E0,-9.460708618E0,1.398620605E-1
3.826049805E0,-2.766754150E0,-9.427200317E0,1.350708008E-1
3.828582764E0,-2.763168335E0,-9.471481323E0,1.063537598E-1
3.831085206E0,-2.723663330E0,-9.435577393E0,8.718872070E-2
3.833618165E0,-2.738021851E0,-9.373321533E0,1.302947998E-1
3.836120606E0,-2.733230591E0,-9.411636353E0,5.966186523E-2
3.838653565E0,-2.755981445E0,-9.379302979E0,1.027526855E-1
3.841156006E0,-2.781127930E0,-9.373321533E0,1.099395752E-1
3.843688965E0,-2.770355225E0,-9.360153198E0,5.487060547E-2
3.846221924E0,-2.763168335E0,-9.379302979E0,8.718872070E-2
3.848754883E0,-2.775131226E0,-9.397262573E0,8.958435059E-2
3.851257325E0,-2.820632935E0,-9.294311523E0,5.247497559E-2
3.853790284E0,-2.795486450E0,-9.290725708E0,8.360290527E-2
3.856292725E0,-2.784713745E0,-9.295516968E0,4.170227051E-2
3.858825684E0,-2.844573975E0,-9.269180298E0,3.211975098E-2
3.861358643E0,-2.861328125E0,-9.259597778E0,1.296997070E-2
3.863861084E0,-2.839782715E0,-9.302688599E0,3.451538086E-2
3.866363526E0,-2.849349976E0,-9.246429443E0,-6.179809570E-3
3.868896485E0,-2.830200195E0,-9.289520264E0,6.988525391E-3
3.871429444E0,-2.884078979E0,-9.311080933E0,9.384155273E-3
3.873931885E0,-2.843368530E0,-9.282348633E0,-2.772521973E-2
3.876464844E0,-2.796676636E0,-9.267974854E0,-6.124877930E-2
3.878967286E0,-2.863723755E0,-9.290725708E0,1.007080078E-3
3.881500245E0,-2.858932495E0,-9.313476562E0,-4.449462891E-2
3.884002686E0,-2.823013306E0,-9.297912598E0,2.197265625E-3
3.886535645E0,-2.807464600E0,-9.303894043E0,-3.491210938E-2
3.889038086E0,-2.763168335E0,-9.296707153E0,-9.765625000E-3
3.891571045E0,-2.752395630E0,-9.332626343E0,2.613830566E-2
3.894073487E0,-2.772735596E0,-9.356567383E0,2.015686035E-2
3.896606446E0,-2.751190186E0,-9.338607788E0,3.572082520E-2
3.899108887E0,-2.732040405E0,-9.338607788E0,3.691101074E-2
3.901641846E0,-2.710494995E0,-9.373321533E0,6.324768066E-2
3.904144288E0,-2.680572510E0,-9.327835083E0,5.845642090E-2
3.906677247E0,-2.681762695E0,-9.358963013E0,4.170227051E-2
3.909210206E0,-2.667404175E0,-9.305084229E0,4.649353027E-2
3.911712647E0,-2.697326660E0,-9.331420898E0,6.205749512E-2
3.914245606E0,-2.679367065E0,-9.376922607E0,9.796142578E-2
3.916748047E0,-2.710494995E0,-9.311080933E0,5.007934570E-2
3.919281006E0,-2.692535400E0,-9.332626343E0,7.522583008E-2
3.921783448E0,-2.672180176E0,-9.331420898E0,1.398620605E-1
3.924316407E0,-2.720062256E0,-9.381698608E0,1.506347656E-1
3.926818848E0,-2.745208740E0,-9.324249268E0,9.318542480E-2
3.929351807E0,-2.742813110E0,-9.336212158E0,1.338806152E-1
3.931854249E0,-2.740417480E0,-9.406845093E0,1.889495850E-1
3.934387207E0,-2.728454590E0,-9.398468018E0,1.338806152E-1
3.936889649E0,-2.742813110E0,-9.378112793E0,1.733856201E-1
3.939422608E0,-2.767959595E0,-9.380508423E0,1.278991699E-1
3.941925049E0,-2.747604370E0,-9.372131348E0,2.021179199E-1
3.944458008E0,-2.820632935E0,-9.376922607E0,2.045135498E-1
3.946960450E0,-2.765563965E0,-9.318252563E0,1.434631348E-1
3.949493409E0,-2.764358521E0,-9.307479858E0,1.506347656E-1
3.952026368E0,-2.784713745E0,-9.309875488E0,1.685943604E-1
3.954528809E0,-2.763168335E0,-9.317062378E0,1.362762451E-1
3.957061768E0,-2.784713745E0,-9.287139893E0,1.530303955E-1
3.959564209E0,-2.783508301E0,-9.279953003E0,1.398620605E-1
3.962097168E0,-2.800277710E0,-9.278747559E0,8.599853516E-2
3.964599610E0,-2.815841675E0,-9.305084229E0,1.039581299E-1
3.967132569E0,-2.797882080E0,-9.283538818E0,1.386718750E-1
3.969635010E0,-2.796676636E0,-9.259597778E0,4.528808594E-2
3.972167969E0,-2.811050415E0,-9.223693848E0,7.762145996E-2
3.974670411E0,-2.813446045E0,-9.254806519E0,7.162475586E-2
3.977203370E0,-2.794296265E0,-9.272766113E0,6.988525391E-3
3.979705811E0,-2.808654785E0,-9.306289673E0,4.592895508E-3
3.982238770E0,-2.848159790E0,-9.282348633E0,-1.934814453E-2
3.984741211E0,-2.829010010E0,-9.272766113E0,-6.243896484E-2
3.987274170E0,-2.864913940E0,-9.266784668E0,-4.328918457E-2
3.989776612E0,-2.832595825E0,-9.241638184E0,-5.645751953E-2
3.992309571E0,-2.836181641E0,-9.222488403E0,-4.209899902E-2
3.994812012E0,-2.878082275E0,-9.270370483E0,-7.202148438E-2
3.997344971E0,-2.837387085E0,-9.260803223E0,-7.560729980E-2
3.999877930E0,-2.887664795E0,-9.238052368E0,-1.043395996E-1
4.002380372E0,-2.868515015E0,-9.269180298E0,-9.117126465E-2
4.004913331E0,-2.869705200E0,-9.278747559E0,-1.258850098E-1
4.007415772E0,-2.862518311E0,-9.261993408E0,-1.258850098E-1
4.009948731E0,-2.886459351E0,-9.258407593E0,-1.618041992E-1
4.012451172E0,-2.874496460E0,-9.233261108E0,-1.558227539E-1
4.014984131E0,-2.896041870E0,-9.302688599E0,-1.737823486E-1
4.017486573E0,-2.885269165E0,-9.287139893E0,-1.258850098E-1
4.020019532E0,-2.882873535E0,-9.308685303E0,-1.582183838E-1
4.022521973E0,-2.891250610E0,-9.272766113E0,-1.318817139E-1
4.025054932E0,-2.921188354E0,-9.267974854E0,-1.641998291E-1
4.027557374E0,-2.918792725E0,-9.325439453E0,-1.677856445E-1
4.030090332E0,-2.963073730E0,-9.314666748E0,-1.618041992E-1
4.032592774E0,-2.949905396E0,-9.337417603E0,-1.558227539E-1
4.035125733E0,-2.946319580E0,-9.344589233E0,-1.606140137E-1
4.037628174E0,-2.936737061E0,-9.352966309E0,-1.270904541E-1
4.040161133E0,-2.942733765E0,-9.333816528E0,-1.139221191E-1
4.042694092E0,-2.943923950E0,-9.369735718E0,-1.175079346E-1
4.045196534E0,-2.948715210E0,-9.348190308E0,-9.237670898E-2
4.047729493E0,-2.916397095E0,-9.346984863E0,-1.402587891E-1
4.050231934E0,-2.900833130E0,-9.356567383E0,-1.127166748E-1
4.052764893E0,-2.878082275E0,-9.337417603E0,-7.800292969E-2
4.055267334E0,-2.837387085E0,-9.366134644E0,-9.715270996E-2
4.057800293E0,-2.794296265E0,-9.349380493E0,-7.202148438E-2
4.060302735E0,-2.839782715E0,-9.346984863E0,-7.800292969E-2
4.062835694E0,-2.784713745E0,-9.367340088E0,-9.237670898E-2
4.065338135E0,-2.758377075E0,-9.342193604E0,-7.441711426E-2
4.067871094E0,-2.733230591E0,-9.336212158E0,-6.364440918E-2
4.070373536E0,-2.705703735E0,-9.369735718E0,-3.132629395E-2
4.072906495E0,-2.728454590E0,-9.351776123E0,-1.455688477E-2
4.075408936E0,-2.699722290E0,-9.318252563E0,-1.934814453E-2
4.077941895E0,-2.694931030E0,-9.375717163E0,-2.174377441E-2
4.080444336E0,-2.703308105E0,-9.380508423E0,-1.815795898E-2
4.082977295E0,-2.709289551E0,-9.375717163E0,-4.089355469E-2
4.085479737E0,-2.716476440E0,-9.416412354E0,-7.385253906E-3
4.088012696E0,-2.711685181E0,-9.417617798E0,2.613830566E-2
4.090545655E0,-2.706893921E0,-9.418807983E0,1.536560059E-2
4.093048096E0,-2.703308105E0,-9.454727173E0,-8.575439453E-3
4.095581055E0,-2.696121216E0,-9.412826538E0,-1.983642578E-4
4.098083497E0,-2.709289551E0,-9.398468018E0,-2.593994141E-3
4.100616456E0,-2.724853516E0,-9.429580688E0,5.845642090E-2
4.103118897E0,-2.735626221E0,-9.390090942E0,3.572082520E-2
4.105651856E0,-2.765563965E0,-9.357757568E0,3.930664062E-2
4.108154297E0,-2.697326660E0,-9.414031982E0,8.479309082E-2
4.110687256E0,-2.711685181E0,-9.391281128E0,-8.575439453E-3
4.113189698E0,-2.716476440E0,-9.330230713E0,4.409790039E-2
4.115722657E0,-2.702117920E0,-9.354171753E0,7.762145996E-2
4.118225098E0,-2.734436035E0,-9.372131348E0,4.528808594E-2
4.120758057E0,-2.748794556E0,-9.368530273E0,2.734375000E-2
4.123260499E0,-2.766754150E0,-9.400863647E0,3.402709961E-3
4.125793457E0,-2.748794556E0,-9.321853638E0,4.592895508E-3
4.128326416E0,-2.729644775E0,-9.360153198E0,-2.413940430E-2
4.130859375E0,-2.746398926E0,-9.374526978E0,-5.645751953E-2
4.133361817E0,-2.761962891E0,-9.332626343E0,1.895141602E-2
4.135894776E0,-2.742813110E0,-9.352966309E0,-3.970336914E-2
4.138427735E0,-2.696121216E0,-9.339797974E0,-9.715270996E-2
4.140930176E0,-2.732040405E0,-9.299102783E0,-8.518981934E-2
4.143432618E0,-2.716476440E0,-9.333816528E0,-8.638000488E-2
4.145965577E0,-2.746398926E0,-9.358963013E0,-6.124877930E-2
4.148498536E0,-2.750000000E0,-9.361358643E0,-1.294860840E-1
4.151000977E0,-2.717681885E0,-9.326644897E0,-1.043395996E-1
4.153533936E0,-2.721267700E0,-9.349380493E0,-4.449462891E-2
4.156036377E0,-2.755981445E0,-9.369735718E0,-2.653503418E-2
4.158569336E0,-2.746398926E0,-9.367340088E0,-5.166625977E-2
4.161071778E0,-2.733230591E0,-9.372131348E0,-8.039855957E-2
4.163604737E0,-2.710494995E0,-9.363754272E0,-9.596252441E-2
4.166107178E0,-2.787109375E0,-9.420013428E0,-5.526733398E-2
4.168640137E0,-2.763168335E0,-9.393676758E0,-3.970336914E-2
4.171142579E0,-2.770355225E0,-9.348190308E0,-2.893066406E-2
4.173675538E0,-2.800277710E0,-9.346984863E0,-1.934814453E-2
4.176177979E0,-2.758377075E0,-9.349380493E0,-6.004333496E-2
4.178710938E0,-2.772735596E0,-9.326644897E0,-4.687500000E-2
4.181243897E0,-2.754791260E0,-9.264389038E0,-1.097106934E-2
4.183746338E0,-2.796676636E0,-9.299102783E0,-2.174377441E-2
4.186279297E0,-2.785903931E0,-9.299102783E0,-4.328918457E-2
4.188781739E0,-2.797882080E0,-9.263183594E0,1.296997070E-2
4.191314698E0,-2.819427490E0,-9.294311523E0,-1.815795898E-2
4.193817139E0,-2.826614380E0,-9.284744263E0,-4.449462891E-2
4.196350098E0,-2.849349976E0,-9.296707153E0,-3.849792480E-2
4.198852540E0,-2.855346680E0,-9.284744263E0,-2.413940430E-2
4.201385499E0,-2.862518311E0,-9.242843628E0,3.402709961E-3
4.203887940E0,-2.900833130E0,-9.264389038E0,-1.388549805E-3
4.206420899E0,-2.918792725E0,-9.244033813E0,-3.730773926E-2
4.208923340E0,-2.924774170E0,-9.260803223E0,-2.293395996E-2
4.211456299E0,-2.917587280E0,-9.278747559E0,-1.576232910E-2
4.213958741E0,-2.924774170E0,-9.245239258E0,-4.089355469E-2
4.216491700E0,-2.943923950E0,-9.269180298E0,-1.388549805E-3
4.218994141E0,-2.958297729E0,-9.242843628E0,-5.645751953E-2
4.221527100E0,-2.967864990E0,-9.232070923E0,-6.843566895E-2
4.224029541E0,-2.933151245E0,-9.291915894E0,-4.209899902E-2
4.226562500E0,-2.946319580E0,-9.307479858E0,-3.251647949E-2
4.229095459E0,-2.959487915E0,-9.312271118E0,-8.877563477E-2
4.231597901E0,-2.979843140E0,-9.319458008E0,-1.019439697E-1
4.234130860E0,-2.930755615E0,-9.317062378E0,-5.406188965E-2
4.236633301E0,-2.874496460E0,-9.307479858E0,-7.681274414E-2
4.239166260E0,-2.884078979E0,-9.318252563E0,-6.843566895E-2
4.241668702E0,-2.900833130E0,-9.337417603E0,-7.202148438E-2
4.244201661E0,-2.857742310E0,-9.305084229E0,-6.364440918E-2
4.246704102E0,-2.812240601E0,-9.311080933E0,-6.483459473E-2
4.249237061E0,-2.767959595E0,-9.357757568E0,-7.920837402E-2
4.251739502E0,-2.806259155E0,-9.337417603E0,-6.723022461E-2
4.254272461E0,-2.757186890E0,-9.341003418E0,-7.441711426E-2
4.256774903E0,-2.716476440E0,-9.417617798E0,-9.237670898E-2
4.259307862E0,-2.706893921E0,-9.402053833E0,-2.053833008E-2
4.261810303E0,-2.667404175E0,-9.406845093E0,-3.610229492E-2
4.264343262E0,-2.625503540E0,-9.458312988E0,-3.012084961E-2
4.266845704E0,-2.594375610E0,-9.459518433E0,-6.004333496E-2
4.269378663E0,-2.607543945E0,-9.447540283E0,-9.477233887E-2
4.271911622E0,-2.569229126E0,-9.441558838E0,-8.160400391E-2
4.274414063E0,-2.515365601E0,-9.490646362E0,-4.568481445E-2
4.276947022E0,-2.508178711E0,-9.464309692E0,-8.758544922E-2
4.279449463E0,-2.465087891E0,-9.428390503E0,-8.518981934E-2
4.281982422E0,-2.444732666E0,-9.433181763E0,-3.610229492E-2
4.284484864E0,-2.445938110E0,-9.466705322E0,-4.808044434E-2
4.287017823E0,-2.449523926E0,-9.500213623E0,1.296997070E-2
4.289520264E0,-2.424392700E0,-9.482254028E0,3.402709961E-3
4.292053223E0,-2.372909546E0,-9.417617798E0,2.494812012E-2
4.294555665E0,-2.370513916E0,-9.440368652E0,5.128479004E-2
4.297088624E0,-2.362136841E0,-9.497817993E0,4.290771484E-2
4.299591065E0,-2.335800171E0,-9.515777588E0,2.853393555E-2
4.302124024E0,-2.307067871E0,-9.461914062E0,2.015686035E-2
4.304626465E0,-2.286712646E0,-9.435577393E0,5.487060547E-2
4.307159424E0,-2.274749756E0,-9.489440918E0,7.762145996E-2
4.309661866E0,-2.274749756E0,-9.455917358E0,7.762145996E-2
4.312194825E0,-2.251998901E0,-9.475082397E0,6.564331055E-2
4.314727784E0,-2.269958496E0,-9.490646362E0,7.881164551E-2
4.317230225E0,-2.286712646E0,-9.483459473E0,1.362762451E-1
4.319763184E0,-2.212493896E0,-9.469085693E0,1.195220947E-1
4.322265625E0,-2.253204346E0,-9.453536987E0,1.350708008E-1
4.324798584E0,-2.289108276E0,-9.439163208E0,1.386718750E-1
4.327301026E0,-2.214889526E0,-9.475082397E0,1.063537598E-1
4.329833985E0,-2.260375977E0,-9.453536987E0,1.614074707E-1
4.332336426E0,-2.234039307E0,-9.460708618E0,1.650085449E-1
4.334869385E0,-2.231658936E0,-9.447540283E0,1.147308350E-1
4.337371827E0,-2.214889526E0,-9.420013428E0,1.877441406E-1
4.339904786E0,-2.257995605E0,-9.448745728E0,1.685943604E-1
4.342407227E0,-2.257995605E0,-9.435577393E0,1.458587646E-1
4.344940186E0,-2.231658936E0,-9.440368652E0,1.386718750E-1
4.347442627E0,-2.220870972E0,-9.469085693E0,1.542358398E-1
4.349975586E0,-2.242431641E0,-9.467895508E0,1.195220947E-1
4.352478028E0,-2.277145386E0,-9.464309692E0,7.162475586E-2
4.355010987E0,-2.347778320E0,-9.469085693E0,3.691101074E-2
4.357513428E0,-2.392059326E0,-9.485855103E0,-1.815795898E-2
4.360046387E0,-2.380096436E0,-9.496627808E0,-3.370666504E-2
4.362579346E0,-2.384887695E0,-9.481063843E0,2.197265625E-3
4.365081788E0,-2.377700806E0,-9.458312988E0,2.134704590E-2
4.367614747E0,-2.384887695E0,-9.453536987E0,-1.097106934E-2
4.370117188E0,-2.381286621E0,-9.477478027E0,4.528808594E-2
4.372650147E0,-2.336990356E0,-9.469085693E0,4.051208496E-2
4.375152588E0,-2.363327026E0,-9.502609253E0,-2.174377441E-2
4.377685547E0,-2.419601440E0,-9.479873657E0,4.592895508E-3
4.380187989E0,-2.410018921E0,-9.454727173E0,-2.772521973E-2
4.382720948E0,-2.437561035E0,-9.460708618E0,2.853393555E-2
4.385223389E0,-2.459106445E0,-9.461914062E0,5.128479004E-2
4.387756348E0,-2.465087891E0,-9.453536987E0,3.092956543E-2
4.390258790E0,-2.481842041E0,-9.448745728E0,9.384155273E-3
4.392791749E0,-2.538116455E0,-9.469085693E0,9.437561035E-2
4.395294190E0,-2.589584351E0,-9.418807983E0,1.536560059E-2
4.397827149E0,-2.574020386E0,-9.446350098E0,5.247497559E-2
4.400329590E0,-2.583602905E0,-9.402053833E0,7.043457031E-2
4.402862549E0,-2.560852051E0,-9.398468018E0,2.134704590E-2
4.405364991E0,-2.581207275E0,-9.405639648E0,1.007080078E-3
4.407897950E0,-2.607543945E0,-9.366134644E0,3.451538086E-2
4.410400391E0,-2.613525391E0,-9.342193604E0,8.718872070E-2
4.412933350E0,-2.617111206E0,-9.369735718E0,7.402038574E-2
4.415466309E0,-2.649444580E0,-9.387695312E0,6.922912598E-2
4.417999268E0,-2.680572510E0,-9.391281128E0,4.290771484E-2
4.420501709E0,-2.697326660E0,-9.374526978E0,1.111297607E-1
4.423034668E0,-2.681762695E0,-9.399658203E0,6.324768066E-2
4.425537110E0,-2.751190186E0,-9.355361938E0,7.762145996E-2
4.428070069E0,-2.747604370E0,-9.362548828E0,2.255249023E-2
4.430572510E0,-2.755981445E0,-9.393676758E0,-8.575439453E-3
4.433105469E0,-2.733230591E0,-9.406845093E0,-5.885314941E-2
4.435607911E0,-2.765563965E0,-9.418807983E0,-1.216125488E-2
4.438140870E0,-2.748794556E0,-9.380508423E0,1.177978516E-2
4.440673829E0,-2.746398926E0,-9.400863647E0,-2.893066406E-2
4.443176270E0,-2.753585815E0,-9.380508423E0,-3.730773926E-2
4.445709229E0,-2.733230591E0,-9.354171753E0,-3.370666504E-2
4.448211670E0,-2.767959595E0,-9.425994873E0,-1.695251465E-2
4.450744629E0,-2.727249146E0,-9.434371948E0,-9.765625000E-3
4.453277588E0,-2.708099365E0,-9.364944458E0,-8.575439453E-3
4.455780030E0,-2.715286255E0,-9.418807983E0,8.178710938E-3
4.458312989E0,-2.692535400E0,-9.388885498E0,-2.593994141E-3
4.460815430E0,-2.676971436E0,-9.367340088E0,-2.653503418E-2
4.463317872E0,-2.704513550E0,-9.451141357E0,1.657104492E-2
4.465850831E0,-2.653030396E0,-9.451141357E0,2.134704590E-2
4.468353272E0,-2.682952881E0,-9.447540283E0,5.783081055E-3
4.470886231E0,-2.661407471E0,-9.466705322E0,4.888916016E-2
4.473388672E0,-2.656616211E0,-9.441558838E0,8.360290527E-2
4.475921631E0,-2.608734131E0,-9.434371948E0,6.684875488E-2
4.478424073E0,-2.631484985E0,-9.417617798E0,1.482391357E-1
4.480957032E0,-2.655426025E0,-9.448745728E0,1.566314697E-1
4.483459473E0,-2.644653320E0,-9.451141357E0,1.709899902E-1
4.485992432E0,-2.636276245E0,-9.476272583E0,1.614074707E-1
4.488494874E0,-2.684158325E0,-9.448745728E0,1.638031006E-1
4.491027832E0,-2.641067505E0,-9.467895508E0,1.817626953E-1
4.493560791E0,-2.625503540E0,-9.487045288E0,1.889495850E-1
4.496093750E0,-2.644653320E0,-9.463104248E0,2.272491455E-1
4.498596192E0,-2.619506836E0,-9.489440918E0,2.464141846E-1
4.501129151E0,-2.606338501E0,-9.508590698E0,2.069091797E-1
4.503631592E0,-2.602752686E0,-9.483459473E0,2.248535156E-1
4.506164551E0,-2.577621460E0,-9.477478027E0,2.607727051E-1
4.508666993E0,-2.596771240E0,-9.491836548E0,2.332458496E-1
4.511199952E0,-2.590789795E0,-9.482254028E0,2.547912598E-1
4.513702393E0,-2.571624756E0,-9.505004883E0,2.775268555E-1
4.516235352E0,-2.577621460E0,-9.475082397E0,2.188720703E-1
4.518737793E0,-2.560852051E0,-9.477478027E0,2.284545898E-1
4.521270752E0,-2.564453125E0,-9.493026733E0,2.464141846E-1
4.523773194E0,-2.541702271E0,-9.527755737E0,2.500000000E-1
4.526306153E0,-2.541702271E0,-9.494232178E0,2.823181152E-1
4.528808594E0,-2.527343750E0,-9.532531738E0,2.715454102E-1
4.531341553E0,-2.495010376E0,-9.537322998E0,2.416229248E-1
4.533843995E0,-2.441146851E0,-9.521759033E0,2.236633301E-1
4.536376954E0,-2.448333740E0,-9.574432373E0,2.859191895E-1
4.538909913E0,-2.454315186E0,-9.558868408E0,2.895050049E-1
4.541412354E0,-2.425582886E0,-9.513381958E0,2.248535156E-1
4.543945313E0,-2.444732666E0,-9.556488037E0,2.332458496E-1
4.546447754E0,-2.424392700E0,-9.599578857E0,2.500000000E-1
4.548980713E0,-2.382492065E0,-9.540924072E0,2.380218506E-1
4.551483155E0,-2.376495361E0,-9.546905518E0,2.045135498E-1
4.554016114E0,-2.335800171E0,-9.578033447E0,1.661987305E-1
4.556518555E0,-2.353759766E0,-9.566055298E0,1.721801758E-1
4.559051514E0,-2.322631836E0,-9.568450928E0,1.685943604E-1
4.561553956E0,-2.293899536E0,-9.618728638E0,2.152862549E-1
4.564086915E0,-2.251998901E0,-9.631896973E0,1.602172852E-1
4.566589356E0,-2.212493896E0,-9.631896973E0,1.063537598E-1
4.569122315E0,-2.225662231E0,-9.642669678E0,1.446533203E-1
4.571624756E0,-2.223266602E0,-9.655838013E0,2.128906250E-1
4.574157715E0,-2.219680786E0,-9.655838013E0,1.638031006E-1
4.576660157E0,-2.189758301E0,-9.674987793E0,2.045135498E-1
4.579193116E0,-2.210098267E0,-9.663024902E0,2.140808105E-1
4.581695557E0,-2.171798706E0,-9.636688232E0,2.476043701E-1
4.584228516E0,-2.217285156E0,-9.636688232E0,2.344360352E-1
4.586761475E0,-2.202926636E0,-9.659423828E0,2.511901855E-1
4.589263916E0,-2.184967041E0,-9.688156128E0,3.170318604E-1
4.591796875E0,-2.273544312E0,-9.676193237E0,3.122406006E-1
4.594299317E0,-2.260375977E0,-9.713302612E0,3.230285645E-1
4.596832276E0,-2.289108276E0,-9.740829468E0,3.062591553E-1
4.599334717E0,-2.364532471E0,-9.739639282E0,2.895050049E-1
4.601867676E0,-2.405227661E0,-9.783935547E0,3.062591553E-1
4.604370118E0,-2.439941406E0,-9.779144287E0,3.493652344E-1
4.606903077E0,-2.489028931E0,-9.791107178E0,3.302001953E-1
4.609405518E0,-2.532119751E0,-9.734848022E0,3.110504150E-1
4.611938477E0,-2.551284790E0,-9.710906982E0,3.697052002E-1
4.614440918E0,-2.563247681E0,-9.698928833E0,4.092102051E-1
4.616943360E0,-2.626693726E0,-9.720489502E0,3.685150146E-1
4.619476319E0,-2.615921021E0,-9.700134277E0,3.948516846E-1
4.622009278E0,-2.651840210E0,-9.637878418E0,3.709106445E-1
4.624511719E0,-2.639862061E0,-9.617538452E0,4.008331299E-1
4.627044678E0,-2.681762695E0,-9.616333008E0,4.307556152E-1
4.629547120E0,-2.750000000E0,-9.594787598E0,4.104156494E-1
4.632080079E0,-2.784713745E0,-9.561264038E0,3.673095703E-1
4.634613038E0,-2.836181641E0,-9.550491333E0,3.541412354E-1
4.637115479E0,-2.884078979E0,-9.542114258E0,3.601379395E-1
4.639648438E0,-2.915191650E0,-9.585205078E0,3.409729004E-1
4.642150879E0,-2.937942505E0,-9.581619263E0,3.278045654E-1
4.644683838E0,-2.994201660E0,-9.528945923E0,3.002777100E-1
4.647186280E0,-3.009765625E0,-9.562469482E0,2.763366699E-1
4.649719239E0,-3.014556885E0,-9.560073853E0,2.919006348E-1
4.652221680E0,-3.009765625E0,-9.531341553E0,2.583770752E-1
4.654754639E0,-2.979843140E0,-9.526550293E0,2.966918945E-1
4.657257081E0,-2.940338135E0,-9.525360107E0,3.086547852E-1
4.659790040E0,-2.825408936E0,-9.478668213E0,3.697052002E-1
4.662292481E0,-2.766754150E0,-9.455917358E0,3.517456055E-1
4.664825440E0,-2.682952881E0,-9.411636353E0,3.661193848E-1
4.667327881E0,-2.620712280E0,-9.396072388E0,4.175872803E-1
4.669860840E0,-2.552474976E0,-9.411636353E0,4.427337646E-1
4.672363282E0,-2.545288086E0,-9.387695312E0,4.511108398E-1
4.674896241E0,-2.475860596E0,-9.345794678E0,4.211883545E-1
4.677398682E0,-2.329818726E0,-9.333816528E0,4.128112793E-1
4.679931641E0,-2.299880981E0,-9.269180298E0,4.738616943E-1
4.682464600E0,-2.256790161E0,-9.277557373E0,4.463195801E-1
4.684967041E0,-2.170593262E0,-9.217697144E0,4.247741699E-1
4.687500000E0,-2.129898071E0,-9.305084229E0,4.978027344E-1
4.690002442E0,-2.055679321E0,-9.329025269E0,4.774475098E-1
4.692535401E0,-2.005401611E0,-9.293121338E0,5.157623291E-1
4.695037842E0,-1.986251831E0,-9.335021973E0,5.097656250E-1
4.697570801E0,-1.927581787E0,-9.321853638E0,4.930114746E-1
4.700103760E0,-1.882095337E0,-9.303894043E0,5.301208496E-1
4.702636719E0,-1.831817627E0,-9.362548828E0,5.588531494E-1
4.705139161E0,-1.771972656E0,-9.336212158E0,4.954071045E-1
4.707672120E0,-1.811462402E0,-9.162628174E0,4.726562500E-1
4.710174561E0,-1.879699707E0,-9.145874023E0,4.499206543E-1
4.712707520E0,-1.941955566E0,-9.084823608E0,4.032287598E-1
4.715209961E0,-1.983856201E0,-9.053695679E0,4.582977295E-1
4.717742920E0,-2.003005981E0,-9.068069458E0,4.618835449E-1
4.720245362E0,-2.030532837E0,-9.063278198E0,3.721008301E-1
4.722778321E0,-2.011383057E0,-9.035736084E0,3.266143799E-1
4.725311280E0,-2.029342651E0,-8.991455078E0,3.804779053E-1
4.727813721E0,-2.043701172E0,-8.975891113E0,3.062591553E-1
4.730346680E0,-2.091598511E0,-8.928009033E0,2.511901855E-1
4.732849122E0,-2.135879517E0,-8.905258179E0,2.272491455E-1
4.735382081E0,-2.196929932E0,-8.826248169E0,1.674041748E-1
4.737884522E0,-2.308273315E0,-8.734069824E0,1.051483154E-1
4.740417481E0,-2.425582886E0,-8.747238159E0,1.039581299E-1
4.742919922E0,-2.506988525E0,-8.741256714E0,5.007934570E-2
4.745452881E0,-2.574020386E0,-8.707733154E0,-3.491210938E-2
4.747955323E0,-2.724853516E0,-8.632324219E0,-8.877563477E-2
4.750488282E0,-2.869705200E0,-8.680206299E0,-1.199035645E-1
4.752990723E0,-2.891250610E0,-8.676605225E0,-1.845550537E-1
4.755523682E0,-2.964279175E0,-8.641891479E0,-2.587738037E-1
4.758026124E0,-3.079193115E0,-8.647888184E0,-2.024993896E-1
4.760559082E0,-3.171371460E0,-8.602386475E0,-2.982788086E-1
4.763061524E0,-3.297073364E0,-8.601196289E0,-2.623596191E-1
4.765594483E0,-3.384460449E0,-8.536544800E0,-2.408142090E-1
4.768127442E0,-3.475433350E0,-8.564086914E0,-2.396087646E-1
4.770629883E0,-3.565216064E0,-8.576049805E0,-2.072906494E-1
4.773162842E0,-3.688522339E0,-8.574859619E0,-2.372283936E-1
4.775665284E0,-3.775909424E0,-8.688583374E0,-1.965179443E-1
4.778198243E0,-3.870483398E0,-8.725692749E0,-1.629943848E-1
4.780700684E0,-3.938720703E0,-8.744842529E0,-2.300415039E-1
4.783233643E0,-3.975830078E0,-8.789138794E0,-2.144775391E-1
4.785736084E0,-4.003356934E0,-8.801116943E0,-2.240600586E-1
4.788269043E0,-4.071594238E0,-8.801116943E0,-2.707366943E-1
4.790771485E0,-4.099136353E0,-8.821456909E0,-3.114471436E-1
4.793304444E0,-4.129058838E0,-8.911239624E0,-2.994689941E-1
4.795806885E0,-4.170959473E0,-8.912445068E0,-3.796691895E-1
4.798339844E0,-4.168563843E0,-8.959121704E0,-4.287567139E-1
4.800842286E0,-4.221237183E0,-9.005813599E0,-4.778442383E-1
4.803375245E0,-4.226028442E0,-8.995040894E0,-4.670715332E-1
4.805877686E0,-4.211654663E0,-8.996231079E0,-5.376892090E-1
4.808410645E0,-4.175750732E0,-8.969894409E0,-5.616302490E-1
4.810913086E0,-4.162582397E0,-9.068069458E0,-5.628356934E-1
4.813446045E0,-4.169754028E0,-9.109954834E0,-5.927581787E-1
4.815979004E0,-4.111099243E0,-9.127914429E0,-5.879669189E-1
4.818481446E0,-4.078781128E0,-9.148269653E0,-6.214904785E-1
4.821014405E0,-4.068008423E0,-9.168624878E0,-6.166992188E-1
4.823516846E0,-4.038070679E0,-9.118347168E0,-5.819854736E-1
4.826049805E0,-4.021316528E0,-9.160247803E0,-5.939636230E-1
4.828552247E0,-4.022521973E0,-9.206924438E0,-6.478271484E-1
4.831085206E0,-3.987792969E0,-9.248825073E0,-5.963439941E-1
4.833587647E0,-3.979415894E0,-9.289520264E0,-5.688171387E-1
4.836120606E0,-4.011734009E0,-9.281143188E0,-5.867767334E-1
4.838623047E0,-3.992584229E0,-9.300308228E0,-5.975494385E-1
4.841156006E0,-4.023712158E0,-9.251220703E0,-5.580444336E-1
4.843658448E0,-4.009353638E0,-9.192565918E0,-5.185394287E-1
4.846191407E0,-4.035690308E0,-9.145874023E0,-5.089569092E-1
4.848693848E0,-4.041671753E0,-9.132705688E0,-5.197296143E-1
4.851226807E0,-4.032089233E0,-9.069259644E0,-5.197296143E-1
4.853729249E0,-4.068008423E0,-9.066864014E0,-4.179840088E-1
4.856262207E0,-4.072799683E0,-9.062072754E0,-3.724975586E-1
4.858795166E0,-4.070404053E0,-8.978286743E0,-3.150329590E-1
4.861297608E0,-4.095535278E0,-8.926803589E0,-2.755279541E-1
4.863830567E0,-4.126663208E0,-8.924407959E0,-2.743377686E-1
4.866333008E0,-4.138641357E0,-8.887298584E0,-2.503967285E-1
4.868865967E0,-4.123077393E0,-8.837020874E0,-2.216644287E-1
4.871368409E0,-4.132644653E0,-8.793930054E0,-1.785583496E-1
4.873901368E0,-4.160186768E0,-8.809494019E0,-1.462402344E-1
4.876403809E0,-4.152999878E0,-8.817871094E0,-1.007537842E-1
4.878936768E0,-4.114685059E0,-8.841812134E0,-1.222991943E-1
4.881439209E0,-4.090744019E0,-8.859771729E0,-7.681274414E-2
4.883972168E0,-4.005752563E0,-8.920822144E0,-6.843566895E-2
4.886474610E0,-3.875274658E0,-8.938781738E0,-8.518981934E-2
4.889007569E0,-3.858505249E0,-8.999832153E0,-1.294860840E-1
4.891510010E0,-3.804641724E0,-9.044128418E0,-1.378631592E-1
4.894042969E0,-3.678939819E0,-9.069259644E0,-2.204589844E-1
4.896545411E0,-3.627471924E0,-9.174606323E0,-1.989135742E-1
4.899078370E0,-3.537689209E0,-9.143478394E0,-2.803192139E-1
4.901580811E0,-3.449096680E0,-9.177001953E0,-3.054504395E-1
4.904113770E0,-3.338973999E0,-9.151855469E0,-3.210144043E-1
4.906646729E0,-3.309036255E0,-9.115951538E0,-2.755279541E-1
4.909149170E0,-3.219253540E0,-9.181793213E0,-2.695465088E-1
4.911682129E0,-3.178558350E0,-9.203338623E0,-2.503967285E-1
4.914184571E0,-3.170181274E0,-9.196151733E0,-2.288360596E-1
4.916717530E0,-3.173767090E0,-9.238052368E0,-1.821594238E-1
4.919219971E0,-3.159408569E0,-9.367340088E0,-6.483459473E-2
4.921752930E0,-3.107925415E0,-9.436767578E0,-3.370666504E-2
4.924255372E0,-3.094757080E0,-9.431976318E0,2.015686035E-2
4.926788331E0,-3.119903564E0,-9.469085693E0,9.437561035E-2
4.929290772E0,-3.158203125E0,-9.524154663E0,2.116851807E-1
4.931823731E0,-3.158203125E0,-9.549301147E0,2.260589600E-1
4.934326172E0,-3.145034790E0,-9.546905518E0,2.344360352E-1
4.936859131E0,-3.131866455E0,-9.539718628E0,2.847137451E-1
4.939361573E0,-3.213272095E0,-9.521759033E0,3.924560547E-1
4.941894532E0,-3.228836060E0,-9.503814697E0,4.044189453E-1
4.944396973E0,-3.247985840E0,-9.489440918E0,4.080200195E-1
4.946929932E0,-3.271926880E0,-9.461914062E0,4.391479492E-1
4.949462891E0,-3.306655884E0,-9.470291138E0,3.768920898E-1
4.951965332E0,-3.298263550E0,-9.494232178E0,4.283599854E-1
4.954498291E0,-3.311431885E0,-9.427200317E0,3.960418701E-1
4.957000733E0,-3.303054810E0,-9.412826538E0,3.840789795E-1
4.959533692E0,-3.303054810E0,-9.471481323E0,3.218231201E-1
4.962036133E0,-3.332992554E0,-9.472686768E0,3.074645996E-1
4.964569092E0,-3.334182739E0,-9.485855103E0,2.260589600E-1
4.967071534E0,-3.324600220E0,-9.459518433E0,2.045135498E-1
4.969604493E0,-3.315032959E0,-9.440368652E0,1.434631348E-1
4.972106934E0,-3.249191284E0,-9.422409058E0,1.482391357E-1
4.974639893E0,-3.200103760E0,-9.362548828E0,2.734375000E-2
4.977142334E0,-3.136657715E0,-9.329025269E0,-7.681274414E-2
4.979644776E0,-3.202499390E0,-9.260803223E0,-7.441711426E-2
4.982177735E0,-3.179748535E0,-9.248825073E0,-1.618041992E-1
4.984710694E0,-3.157012939E0,-9.252410889E0,-2.001037598E-1
4.987243653E0,-3.167785645E0,-9.220092773E0,-1.953277588E-1
4.989776612E0,-3.188140869E0,-9.235656738E0,-3.042602539E-1
4.992279053E0,-3.219253540E0,-9.240447998E0,-2.767181396E-1
4.994812012E0,-3.160598755E0,-9.212905884E0,-2.132720947E-1
4.997344971E0,-3.101943970E0,-9.210525513E0,-2.120819092E-1
4.999847413E0,-3.034912109E0,-9.194961548E0,-1.857452393E-1
5.002380372E0,-3.003784180E0,-9.131515503E0,-1.103210449E-1
5.004882813E0,-2.954696655E0,-9.166229248E0,-7.321166992E-2
5.007415772E0,-2.899627686E0,-9.130310059E0,-2.174377441E-2
5.009918213E0,-2.866119385E0,-9.148269653E0,-3.132629395E-2
5.012451172E0,-2.872100830E0,-9.211715698E0,4.170227051E-2
5.014953614E0,-2.829010010E0,-9.182983398E0,1.111297607E-1
5.017486573E0,-2.687744141E0,-9.166229248E0,1.925354004E-1
5.019989014E0,-2.654235840E0,-9.136291504E0,2.332458496E-1
5.022521973E0,-2.576416016E0,-9.135101318E0,2.547912598E-1
5.025024415E0,-2.512969971E0,-9.126724243E0,2.248535156E-1
5.027557374E0,-2.456710815E0,-9.150665283E0,2.511901855E-1
5.030059815E0,-2.405227661E0,-9.192565918E0,2.823181152E-1
5.032592774E0,-2.424392700E0,-9.132705688E0,2.069091797E-1
5.035095215E0,-2.443542480E0,-9.220092773E0,2.140808105E-1
5.037628174E0,-2.484237671E0,-9.357757568E0,2.308502197E-1
5.040161133E0,-2.542892456E0,-9.435577393E0,2.523956299E-1
5.042663575E0,-2.582397461E0,-9.415222168E0,3.158416748E-1
5.045196534E0,-2.585998535E0,-9.369735718E0,2.607727051E-1
5.047698975E0,-2.554870605E0,-9.342193604E0,2.452087402E-1
5.050231934E0,-2.529724121E0,-9.267974854E0,2.080993652E-1
5.052734375E0,-2.509384155E0,-9.324249268E0,1.757812500E-1
5.055267334E0,-2.443542480E0,-9.368530273E0,1.925354004E-1
5.057769776E0,-2.453109741E0,-9.446350098E0,1.530303955E-1
5.060302735E0,-2.447128296E0,-9.427200317E0,9.796142578E-2
5.062805176E0,-2.327423096E0,-9.439163208E0,1.338806152E-1
5.065338135E0,-2.261581421E0,-9.459518433E0,1.434631348E-1
5.067840577E0,-2.287918091E0,-9.447540283E0,1.159210205E-1
5.070373536E0,-2.339385986E0,-9.524154663E0,1.386718750E-1
5.072875977E0,-2.420791626E0,-9.539718628E0,1.386718750E-1
5.075408936E0,-2.441146851E0,-9.563659668E0,1.195220947E-1
5.077911377E0,-2.437561035E0,-9.545700073E0,6.684875488E-2
5.080444336E0,-2.521347046E0,-9.550491333E0,7.762145996E-2
5.082946778E0,-2.528533936E0,-9.443954468E0,1.542358398E-1
5.085479737E0,-2.443542480E0,-9.256011963E0,1.446533203E-1
5.088012696E0,-2.328613281E0,-9.117141724E0,8.239746094E-2
5.090515137E0,-2.278335571E0,-9.244033813E0,6.085205078E-2
5.093048096E0,-2.392059326E0,-9.522964478E0,-4.328918457E-2
5.095550538E0,-2.577621460E0,-9.676193237E0,-8.399963379E-2
5.098083497E0,-2.772735596E0,-9.712097168E0,-7.681274414E-2
5.100585938E0,-2.927169800E0,-9.696548462E0,-8.518981934E-2
5.103118897E0,-2.903228760E0,-9.534927368E0,-1.222991943E-1
5.105621338E0,-2.757186890E0,-9.475082397E0,-1.582183838E-1
5.108154297E0,-2.776336670E0,-9.572036743E0,-1.917266846E-1
