"Time (s)","Gyroscope x (rad/s)","Gyroscope y (rad/s)","Gyroscope z (rad/s)"
0.000000000E0,1.632138848E0,-1.814337015E0,8.131678104E-1
2.349323000E-3,1.632138848E0,-1.814337015E0,8.131678104E-1
4.698646000E-3,1.632138848E0,-1.814337015E0,8.131678104E-1
7.047969000E-3,1.632138848E0,-1.814337015E0,8.131678104E-1
9.397292000E-3,1.632138848E0,-1.814337015E0,8.131678104E-1
1.174661500E-2,1.632138848E0,-1.814337015E0,8.131678104E-1
1.409593800E-2,1.632138848E0,-1.814337015E0,8.131678104E-1
1.644526100E-2,1.632138848E0,-1.814337015E0,8.131678104E-1
1.875578100E-2,1.632138848E0,-1.814337015E0,8.131678104E-1
2.110796900E-2,1.632138848E0,-1.814337015E0,8.131678104E-1
2.347005200E-2,1.632138848E0,-1.814337015E0,8.131678104E-1
2.581708300E-2,1.632138848E0,-1.814337015E0,8.131678104E-1
2.816484400E-2,1.632138848E0,-1.814337015E0,8.131678104E-1
3.051182300E-2,1.632138848E0,-1.814337015E0,8.131678104E-1
3.285807300E-2,1.632138848E0,-1.814337015E0,8.131678104E-1
3.520510400E-2,1.632138848E0,-1.814337015E0,8.131678104E-1
3.755286500E-2,1.632138848E0,-1.814337015E0,8.131678104E-1
3.989984400E-2,1.632138848E0,-1.814337015E0,8.131678104E-1
4.224609400E-2,1.632138848E0,-1.814337015E0,8.131678104E-1
4.459307300E-2,1.632138848E0,-1.814337015E0,8.131678104E-1
4.694083300E-2,1.632138848E0,-1.814337015E0,8.131678104E-1
4.928786500E-2,1.632138848E0,-1.814337015E0,8.131678104E-1
5.163411500E-2,1.632138848E0,-1.814337015E0,8.131678104E-1
5.398109400E-2,1.632138848E0,-1.814337015E0,8.131678104E-1
5.632885400E-2,1.632138848E0,-1.814337015E0,8.131678104E-1
5.867588600E-2,1.632138848E0,-1.814337015E0,8.131678104E-1
6.102208300E-2,1.632138848E0,-1.814337015E0,8.131678104E-1
6.336911500E-2,1.632138848E0,-1.814337015E0,8.131678104E-1
6.571687500E-2,1.632138848E0,-1.814337015E0,8.131678104E-1
6.806385400E-2,1.632138848E0,-1.814337015E0,8.131678104E-1
7.041010400E-2,1.632138848E0,-1.814337015E0,8.131678104E-1
7.275713600E-2,1.632138848E0,-1.814337015E0,8.131678104E-1
7.510489600E-2,1.632138848E0,-1.814337015E0,8.131678104E-1
7.745187500E-2,1.632138848E0,-1.814337015E0,8.131678104E-1
7.979812500E-2,1.632138848E0,-1.814337015E0,8.131678104E-1
8.214510400E-2,1.632138848E0,-1.814337015E0,8.131678104E-1
8.449286500E-2,1.632138848E0,-1.814337015E0,8.131678104E-1
8.683989600E-2,1.632138848E0,-1.814337015E0,8.131678104E-1
8.918614600E-2,1.632138848E0,-1.814337015E0,8.131678104E-1
9.153312500E-2,1.632138848E0,-1.814337015E0,8.131678104E-1
9.388088600E-2,-1.690965295E0,-6.726384163E-2,-4.586524963E-1
9.622791700E-2,-1.692186952E0,-6.482037902E-2,-4.183354080E-1
9.857416700E-2,-1.676304460E0,-5.993346870E-2,-3.596923947E-1
1.009211460E-1,-1.642096043E0,-5.138135701E-2,-2.839451730E-1
1.032689060E-1,-1.587118268E0,-4.527271539E-2,-1.923154891E-1
1.056159380E-1,-1.510149240E0,-4.282925278E-2,-8.235983551E-2
1.079621360E-1,-1.405080557E0,-4.649443924E-2,3.859137744E-2
1.103091670E-1,-1.271912098E0,-4.771617055E-2,1.680946946E-1
1.126569270E-1,-1.108200312E0,-5.871173739E-2,3.024849594E-1
1.150039060E-1,-9.224973321E-1,-9.414188564E-2,4.368751943E-1
1.173501560E-1,-7.416813374E-1,-1.698891073E-1,5.614915490E-1
1.196971880E-1,-5.816348195E-1,-3.055011034E-1,6.677820086E-1
1.220449480E-1,-4.753444195E-1,-5.021995306E-1,7.557465434E-1
1.243919270E-1,-4.289186895E-1,-7.624279261E-1,8.266068697E-1
1.267381770E-1,-4.289186895E-1,-1.062973380E0,8.828064203E-1
1.290851560E-1,-4.496880770E-1,-1.364740491E0,9.231234789E-1
1.314329170E-1,-4.619053602E-1,-1.610308170E0,9.390059710E-1
1.337799480E-1,-4.484663606E-1,-1.769132972E0,9.304538369E-1
1.361261460E-1,-3.922668099E-1,-1.824110746E0,9.084627032E-1
1.384731770E-1,-2.920849919E-1,-1.770354748E0,8.779194951E-1
1.408209380E-1,-1.491426080E-1,-1.632299304E0,8.485980034E-1
1.431679690E-1,2.312123217E-2,-1.435600877E0,8.204982281E-1
1.455141150E-1,2.088241130E-1,-1.219354749E0,7.985070944E-1
1.478611980E-1,3.981921673E-1,-1.005552053E0,7.850680351E-1
1.502089580E-1,5.790081620E-1,-8.198491931E-1,7.752942443E-1
1.525559380E-1,7.476068139E-1,-6.536939740E-1,7.728507519E-1
1.549021360E-1,9.064316750E-1,-5.168602467E-1,7.728507519E-1
1.572492190E-1,1.053039074E0,-4.044611752E-1,7.752942443E-1
1.595969790E-1,1.184985876E0,-3.018358946E-1,7.789593935E-1
1.619439580E-1,1.310824037E0,-2.089844495E-1,7.850680351E-1
1.642901560E-1,1.424444795E0,-1.210199445E-1,7.911766768E-1
1.666371880E-1,1.522183180E0,-4.527271539E-2,7.936201692E-1
1.689850000E-1,1.602817297E0,1.459203102E-2,7.923984528E-1
1.713319790E-1,1.663903832E0,5.613083392E-2,7.899549603E-1
1.736781770E-1,1.694447041E0,8.545233309E-2,7.826246023E-1
1.760252080E-1,1.696890473E0,9.522616863E-2,7.716290355E-1
1.783729690E-1,1.667569041E0,8.056542277E-2,7.606334686E-1
1.807200000E-1,1.604039073E0,3.536143154E-2,7.520813346E-1
1.830661980E-1,1.502635479E0,-3.427714854E-2,7.484161854E-1
1.854132290E-1,1.370688677E0,-1.197982132E-1,7.471944690E-1
1.877609900E-1,1.219194293E0,-2.199800164E-1,7.447509766E-1
1.901079690E-1,1.049373865E0,-3.213835657E-1,7.398640513E-1
1.924541670E-1,8.710014820E-1,-4.252305925E-1,7.288684845E-1
1.948012500E-1,6.962941885E-1,-5.217471719E-1,7.166512012E-1
1.971490110E-1,5.252520442E-1,-6.072682738E-1,6.995469928E-1
1.994959900E-1,3.664271832E-1,-6.769068241E-1,6.812210679E-1
2.018421880E-1,2.210413963E-1,-7.233325839E-1,6.580082178E-1
2.041892710E-1,9.275981039E-2,-7.489888668E-1,6.323518753E-1
2.065370310E-1,-1.108719222E-2,-7.538757920E-1,6.042521000E-1
2.088840110E-1,-9.172134101E-2,-7.379933000E-1,5.724871159E-1
2.112302080E-1,-1.430339664E-1,-7.037848830E-1,5.395004153E-1
2.135772400E-1,-1.686902791E-1,-6.390332580E-1,5.040702820E-1
2.159250000E-1,-1.735772043E-1,-5.327427983E-1,4.661966860E-1
2.182720310E-1,-1.552512497E-1,-3.800265789E-1,4.258796275E-1
2.206182290E-1,-1.149341911E-1,-1.857715994E-1,3.916712105E-1
2.229652610E-1,-5.506945401E-2,3.169624507E-2,3.672366142E-1
2.253130210E-1,2.067776956E-2,2.650465667E-1,3.562410474E-1
2.276600520E-1,1.135292128E-1,5.093924403E-1,3.550193310E-1
2.300061980E-1,2.124892920E-1,7.574034929E-1,3.672366142E-1
2.323532810E-1,3.151145577E-1,9.907538891E-1,3.831191063E-1
2.347010420E-1,4.189615548E-1,1.196004391E0,3.977798522E-1
2.370480210E-1,5.093695521E-1,1.353607535E0,4.173275232E-1
2.393942190E-1,5.851168036E-1,1.434241652E0,4.258796275E-1
2.417413020E-1,6.449815631E-1,1.440350294E0,4.161057770E-1
2.440890630E-1,6.901855469E-1,1.390259385E0,3.843408227E-1
2.464360420E-1,7.280591726E-1,1.304738283E0,3.354716599E-1
2.487822400E-1,7.610458732E-1,1.198447824E0,2.743851840E-1
2.511292710E-1,7.928107977E-1,1.078718305E0,2.059683055E-1
2.534770310E-1,8.343496323E-1,9.516584873E-1,1.351080090E-1
2.558240630E-1,8.734449744E-1,8.417028785E-1,5.936077982E-2
2.581702610E-1,9.039881825E-1,7.427427769E-1,-1.882990636E-2
2.605172920E-1,9.064316750E-1,6.450043917E-1,-1.019075066E-1
2.628650520E-1,8.710014820E-1,5.326052904E-1,-1.874285638E-1
2.652120830E-1,7.928107977E-1,4.165410101E-1,-2.741713524E-1
2.675582290E-1,6.743030548E-1,3.016984463E-1,-3.609141409E-1
2.699053130E-1,5.313606858E-1,1.990731806E-1,-4.488786459E-1
2.722530730E-1,3.737575710E-1,1.477605402E-1,-5.405083895E-1
2.746001040E-1,2.210413963E-1,1.428736299E-1,-6.370249987E-1
2.769462500E-1,1.013119146E-1,1.941862553E-1,-7.482023835E-1
2.792933330E-1,2.556468733E-2,2.992549837E-1,-8.740405440E-1
2.816410940E-1,3.573561087E-3,4.299800396E-1,-1.016982913E0
2.839880730E-1,2.678641863E-2,5.582616329E-1,-1.175807714E0
2.863342710E-1,8.054251224E-2,6.523348093E-1,-1.343184710E0
2.886813540E-1,1.355203539E-1,7.060908675E-1,-1.508118153E0
2.910291150E-1,1.660635918E-1,7.305254936E-1,-1.668164730E0
2.933760940E-1,1.440724581E-1,7.415210605E-1,-1.813550472E0
2.957222920E-1,5.977310985E-2,7.512948513E-1,-1.939388633E0
2.980693230E-1,-1.027169079E-1,7.867250443E-1,-2.039570332E0
3.004170830E-1,-3.421759009E-1,8.685808778E-1,-2.114095688E0
3.027641150E-1,-6.378343701E-1,9.968625307E-1,-2.154412746E0
3.051103130E-1,-9.835838079E-1,1.178900123E0,-2.160521507E0
3.074573440E-1,-1.342772365E0,1.381707311E0,-2.132421732E0
3.098051040E-1,-1.699517369E0,1.621166229E0,-2.062783003E0
3.121521360E-1,-2.051375389E0,1.900942326E0,-1.961379766E0
3.144982810E-1,-2.387350798E0,2.201487780E0,-1.837985158E0
3.168453650E-1,-2.703778744E0,2.511806965E0,-1.695042729E0
3.191931250E-1,-2.994550467E0,2.789139509E0,-1.543548346E0
3.215401040E-1,-3.256000519E0,3.006607533E0,-1.398162484E0
3.238863020E-1,-3.494237900E0,3.162988901E0,-1.285763383E0
3.262333860E-1,-3.695823193E0,3.237514257E0,-1.222233534E0
3.285811460E-1,-3.864421844E0,3.230183840E0,-1.203907490E0
3.309281250E-1,-3.991481543E0,3.154436588E0,-1.217346549E0
3.332743230E-1,-4.080667496E0,3.032263756E0,-1.255220175E0
3.356213540E-1,-4.125871658E0,2.881990910E0,-1.304089308E0
3.379691150E-1,-4.133202076E0,2.732939959E0,-1.350515127E0
3.403161460E-1,-4.101437092E0,2.613210440E0,-1.378614902E0
3.426623440E-1,-4.012250900E0,2.526467800E0,-1.384723544E0
3.450093750E-1,-3.883969545E0,2.491037607E0,-1.372506142E0
3.473571360E-1,-3.706818819E0,2.509363651E0,-1.339519501E0
3.497041670E-1,-3.488129139E0,2.565563202E0,-1.283319950E0
3.520503130E-1,-3.238896370E0,2.643753767E0,-1.210016131E0
3.543973960E-1,-2.953011751E0,2.704840183E0,-1.123273373E0
3.567451560E-1,-2.646357536E0,2.729274750E0,-1.038974047E0
3.590921360E-1,-2.340925217E0,2.710948944E0,-9.607833028E-1
3.614383330E-1,-2.051375389E0,2.622984409E0,-8.850361109E-1
3.637854170E-1,-1.798477411E0,2.456829071E0,-8.092888594E-1
3.661331770E-1,-1.604222417E0,2.217370272E0,-7.433154583E-1
3.684801560E-1,-1.472275734E0,1.909494400E0,-6.907811165E-1
3.708263540E-1,-1.403858781E0,1.540532112E0,-6.443554163E-1
3.731733860E-1,-1.389198065E0,1.119035482E0,-6.003731489E-1
3.755211980E-1,-1.420963049E0,6.804345846E-1,-5.588343143E-1
3.778681770E-1,-1.483271241E0,2.662682831E-1,-5.221824646E-1
3.802143750E-1,-1.561461926E0,-1.088026464E-1,-4.928609133E-1
3.825614060E-1,-1.643317819E0,-4.386695921E-1,-4.733132422E-1
3.849091670E-1,-1.730060577E0,-7.123370171E-1,-4.672046006E-1
3.872561980E-1,-1.807029605E0,-9.298048615E-1,-4.708697796E-1
3.896023960E-1,-1.875446439E0,-1.094738364E0,-4.904174507E-1
3.919494270E-1,-1.934089422E0,-1.198585272E0,-5.197389722E-1
3.942971880E-1,-1.985401988E0,-1.252341390E0,-5.576125979E-1
3.966442190E-1,-2.029384136E0,-1.265780449E0,-6.028165817E-1
3.989903650E-1,-2.067257881E0,-1.251119733E0,-6.516857743E-1
4.013374480E-1,-2.108796597E0,-1.204693913E0,-7.042201161E-1
4.036852080E-1,-2.146670103E0,-1.152159572E0,-7.604196668E-1
4.060321880E-1,-2.184543848E0,-1.097181797E0,-8.190627098E-1
4.083783860E-1,-2.223639250E0,-1.040982246E0,-8.789274693E-1
4.107254690E-1,-2.265177965E0,-9.896695614E-1,-9.375704527E-1
4.130732290E-1,-2.305495024E0,-9.408004284E-1,-9.949917197E-1
4.154202080E-1,-2.349477291E0,-8.955964446E-1,-1.048747897E0
4.177664060E-1,-2.395903111E0,-8.455055356E-1,-1.102504015E0
4.201134380E-1,-2.436220169E0,-7.978580594E-1,-1.151373148E0
4.224611980E-1,-2.477758884E0,-7.489888668E-1,-1.205129266E0
4.248082290E-1,-2.514410734E0,-6.915675998E-1,-1.257663608E0
4.271544270E-1,-2.543732405E0,-6.243724823E-1,-1.311419725E0
4.295014580E-1,-2.571832180E0,-5.486252308E-1,-1.363954067E0
4.318492190E-1,-2.590157986E0,-4.692128301E-1,-1.416488409E0
4.341962500E-1,-2.601153612E0,-3.800265789E-1,-1.464135885E0
4.365423960E-1,-2.608484030E0,-2.774013281E-1,-1.510561585E0
4.388894790E-1,-2.613370895E0,-1.711108387E-1,-1.549656987E0
4.412372400E-1,-2.610927343E0,-6.482037902E-2,-1.578978419E0
4.435842190E-1,-2.610927343E0,4.513526708E-2,-1.599747896E0
4.459304170E-1,-2.610927343E0,1.550909132E-1,-1.608299971E0
4.482775000E-1,-2.607262135E0,2.577162087E-1,-1.602191329E0
4.506252610E-1,-2.604818821E0,3.591197133E-1,-1.580200195E0
4.529722400E-1,-2.601153612E0,4.507494271E-1,-1.545991778E0
4.553184380E-1,-2.596266747E0,5.338270068E-1,-1.502009511E0
4.576654690E-1,-2.586492777E0,5.998004079E-1,-1.448253393E0
4.600132810E-1,-2.573053837E0,6.511130333E-1,-1.385945201E0
4.623602610E-1,-2.551062584E0,6.828780174E-1,-1.313863158E0
4.647064580E-1,-2.529071569E0,6.975387931E-1,-1.238115907E0
4.670534900E-1,-2.502193451E0,6.938735843E-1,-1.164812207E0
4.694012500E-1,-2.474093676E0,6.621086001E-1,-1.089064956E0
4.717482810E-1,-2.447215557E0,5.949134827E-1,-1.009652615E0
4.740944270E-1,-2.421559334E0,4.947316647E-1,-9.229096770E-1
4.764415110E-1,-2.397124767E0,3.664501011E-1,-8.276147842E-1
4.787892710E-1,-2.370246649E0,2.051818222E-1,-7.274330258E-1
4.811362500E-1,-2.336038351E0,2.803105675E-2,-6.284729242E-1
4.834824480E-1,-2.285947323E0,-1.674456596E-1,-5.368431807E-1
4.858295310E-1,-2.228526115E0,-3.580354750E-1,-4.647611380E-1
4.881772920E-1,-2.168661356E0,-5.510687232E-1,-4.146702290E-1
4.905242710E-1,-2.111240149E0,-7.318846583E-1,-3.767966032E-1
4.928704690E-1,-2.058705807E0,-8.931529522E-1,-3.523620367E-1
4.952175000E-1,-2.017166853E0,-1.029986620E0,-3.450316489E-1
4.975653130E-1,-1.985401988E0,-1.135055423E0,-3.462533653E-1
4.999122920E-1,-1.960967422E0,-1.209580898E0,-3.535837531E-1
5.022584900E-1,-1.951193571E0,-1.245011091E0,-3.645793200E-1
5.046055210E-1,-1.935311198E0,-1.252341390E0,-3.792400658E-1
5.069532810E-1,-1.921872139E0,-1.229128599E0,-3.963442743E-1
5.093003130E-1,-1.915763497E0,-1.153381348E0,-4.232223332E-1
5.116465110E-1,-1.907211423E0,-1.028764963E0,-4.525438547E-1
5.139935420E-1,-1.899881005E0,-8.809356689E-1,-4.769784212E-1
5.163413020E-1,-1.883998513E0,-7.575410008E-1,-4.953044057E-1
5.186882810E-1,-1.866894245E0,-6.524722576E-1,-5.111868978E-1
5.210344790E-1,-1.840016246E0,-5.718381405E-1,-5.209607482E-1
5.233815630E-1,-1.814359903E0,-5.119733810E-1,-5.246258974E-1
5.257293230E-1,-1.792368770E0,-4.667693973E-1,-5.209607482E-1
5.280763020E-1,-1.776486278E0,-4.337826967E-1,-5.087434053E-1
5.304225000E-1,-1.763047338E0,-4.081263542E-1,-4.940826297E-1
5.327695830E-1,-1.748386502E0,-3.836917877E-1,-4.720915258E-1
5.351173440E-1,-1.745943069E0,-3.592571914E-1,-4.513221085E-1
5.374643230E-1,-1.755716920E0,-3.409312367E-1,-4.317744374E-1
5.398105210E-1,-1.766712427E0,-3.311574161E-1,-4.146702290E-1
5.421575520E-1,-1.777708054E0,-3.348225951E-1,-4.012311995E-1
5.445053130E-1,-1.789925337E0,-3.433746994E-1,-3.926790953E-1
5.468523440E-1,-1.793590546E0,-3.739179373E-1,-3.890139163E-1
5.491985420E-1,-1.799699187E0,-4.105698168E-1,-3.890139163E-1
5.515455730E-1,-1.802142620E0,-4.618824720E-1,-3.902356327E-1
5.538933330E-1,-1.804586053E0,-5.168602467E-1,-3.963442743E-1
5.562403650E-1,-1.808251262E0,-5.779467821E-1,-4.061181247E-1
5.585865110E-1,-1.810694695E0,-6.353680491E-1,-4.122267663E-1
5.609335940E-1,-1.818025112E0,-6.879023910E-1,-4.183354080E-1
5.632813540E-1,-1.826577187E0,-7.343281507E-1,-4.256657958E-1
5.656283330E-1,-1.835129380E0,-7.709800005E-1,-4.281092584E-1
5.679745310E-1,-1.838794470E0,-8.088536263E-1,-4.305527210E-1
5.703216150E-1,-1.841238022E0,-8.467272520E-1,-4.354396164E-1
5.726693750E-1,-1.842459679E0,-8.784921765E-1,-4.464351833E-1
5.750163540E-1,-1.840016246E0,-9.127006531E-1,-4.586524963E-1
5.773625520E-1,-1.835129380E0,-9.456872940E-1,-4.769784212E-1
5.797095830E-1,-1.831464171E0,-9.823392034E-1,-4.977478385E-1
5.820573440E-1,-1.831464171E0,-1.014104128E0,-5.197389722E-1
5.844043750E-1,-1.827798963E0,-1.043425679E0,-5.417301059E-1
5.867505730E-1,-1.824133754E0,-1.072747231E0,-5.624995232E-1
5.890976040E-1,-1.822911978E0,-1.095960021E0,-5.857123733E-1
5.914453650E-1,-1.813138247E0,-1.116729498E0,-6.052600741E-1
5.937923960E-1,-1.800920844E0,-1.128946781E0,-6.272512078E-1
5.961385940E-1,-1.785038471E0,-1.124059796E0,-6.492423415E-1
5.984856250E-1,-1.761825562E0,-1.104512095E0,-6.700116992E-1
6.008333860E-1,-1.738612652E0,-1.066638589E0,-6.907811165E-1
6.031803650E-1,-1.716621518E0,-1.020212770E0,-7.115505338E-1
6.055265630E-1,-1.701960802E0,-9.591263533E-1,-7.310981750E-1
6.078736460E-1,-1.684856653E0,-8.980398774E-1,-7.457589507E-1
6.102214060E-1,-1.673861027E0,-8.345099688E-1,-7.591979504E-1
6.125683860E-1,-1.662865520E0,-7.734234929E-1,-7.726370096E-1
6.149145830E-1,-1.648204684E0,-7.208890915E-1,-7.824108005E-1
6.172616150E-1,-1.634765744E0,-6.646895409E-1,-7.921846509E-1
6.196094270E-1,-1.613996267E0,-6.133769155E-1,-8.007367849E-1
6.219564060E-1,-1.588339925E0,-5.645077229E-1,-8.044019341E-1
6.243026040E-1,-1.557796717E0,-5.266340971E-1,-8.068454266E-1
6.266496360E-1,-1.522366643E0,-4.863170385E-1,-8.044019341E-1
6.289973960E-1,-1.486936450E0,-4.472216964E-1,-7.995150089E-1
6.313444270E-1,-1.446619391E0,-4.142350256E-1,-7.885194421E-1
6.336905730E-1,-1.406302333E0,-3.836917877E-1,-7.714152336E-1
6.360376560E-1,-1.365985274E0,-3.580354750E-1,-7.530893087E-1
6.383854170E-1,-1.330555081E0,-3.336008787E-1,-7.298764586E-1
6.407323960E-1,-1.298790097E0,-3.079445660E-1,-7.054418921E-1
6.430785940E-1,-1.265803456E0,-2.871751487E-1,-6.797855496E-1
6.454256770E-1,-1.236481905E0,-2.737361193E-1,-6.480205655E-1
6.477734380E-1,-1.201051712E0,-2.541884482E-1,-6.186990738E-1
6.501204170E-1,-1.155847788E0,-2.431928813E-1,-5.844906569E-1
6.524666150E-1,-1.104535103E0,-2.346407771E-1,-5.478387475E-1
6.548136460E-1,-1.037340045E0,-2.321973145E-1,-5.124086142E-1
6.571614580E-1,-9.603708982E-1,-2.297538519E-1,-4.769784212E-1
6.595084380E-1,-8.772933483E-1,-2.407494187E-1,-4.415482879E-1
6.618546360E-1,-7.929940224E-1,-2.566319108E-1,-4.048964083E-1
6.642016670E-1,-7.062512040E-1,-2.835099697E-1,-3.658010662E-1
6.665494270E-1,-6.292822361E-1,-3.128314614E-1,-3.303709030E-1
6.688964580E-1,-5.572001934E-1,-3.592571914E-1,-2.937190235E-1
6.712426560E-1,-4.997789860E-1,-3.971308172E-1,-2.607323229E-1
6.735896880E-1,-4.484663606E-1,-4.411130548E-1,-2.314108312E-1
6.759374480E-1,-4.081492722E-1,-4.802083969E-1,-2.020893246E-1
6.782844790E-1,-3.788277805E-1,-5.144168139E-1,-1.800981909E-1
6.806306250E-1,-3.592801094E-1,-5.339645147E-1,-1.629939824E-1
6.829777080E-1,-3.507280052E-1,-5.437383652E-1,-1.507766843E-1
6.853254690E-1,-3.458410800E-1,-5.425165892E-1,-1.446680427E-1
6.876724480E-1,-3.421759009E-1,-5.412948728E-1,-1.446680427E-1
6.900186460E-1,-3.421759009E-1,-5.266340971E-1,-1.507766843E-1
6.923657290E-1,-3.372889757E-1,-5.070864558E-1,-1.617722511E-1
6.947134900E-1,-3.287368715E-1,-4.765432179E-1,-1.788764596E-1
6.970604690E-1,-3.165195584E-1,-4.423348010E-1,-1.947589368E-1
6.994066670E-1,-2.945284545E-1,-4.032394588E-1,-2.143066078E-1
7.017536980E-1,-2.688721120E-1,-3.580354750E-1,-2.314108312E-1
7.041014580E-1,-2.395506054E-1,-3.042793572E-1,-2.509585023E-1
7.064484900E-1,-2.090073675E-1,-2.468580902E-1,-2.680626810E-1
7.087946880E-1,-1.772423834E-1,-1.869933307E-1,-2.863886356E-1
7.111417190E-1,-1.418122500E-1,-1.271285862E-1,-3.010493815E-1
7.134894790E-1,-1.076038182E-1,-6.726384163E-2,-3.169318736E-1
7.158365110E-1,-8.072577417E-2,-9.842557833E-3,-3.340360820E-1
7.181826560E-1,-5.262599885E-2,4.269181192E-2,-3.486968279E-1
7.205297400E-1,-2.452621795E-2,9.522616863E-2,-3.633576035E-1
7.228775000E-1,-1.108719222E-2,1.587561071E-1,-3.804618120E-1
7.252244790E-1,1.212566532E-2,2.076252848E-1,-3.914573789E-1
7.275706770E-1,3.411679715E-2,2.516075671E-1,-4.036746621E-1
7.299177610E-1,5.366446823E-2,2.980332375E-1,-4.146702290E-1
7.322655210E-1,7.443386316E-2,3.469024301E-1,-4.256657958E-1
7.346125000E-1,9.764672071E-2,3.969933391E-1,-4.354396164E-1
7.369586980E-1,1.220813170E-1,4.495277107E-1,-4.476569295E-1
7.393057290E-1,1.477376372E-1,5.081707239E-1,-4.623176754E-1
7.416534900E-1,1.831678003E-1,5.631485581E-1,-4.782001674E-1
7.440005210E-1,2.271500379E-1,6.107959747E-1,-4.965261221E-1
7.463467190E-1,2.711322904E-1,6.596651673E-1,-5.185172558E-1
7.486937500E-1,3.248883784E-1,7.036474347E-1,-5.429518223E-1
7.510415110E-1,3.896400332E-1,7.402992845E-1,-5.710516572E-1
7.533885420E-1,4.617220759E-1,7.586252689E-1,-5.979296565E-1
7.557346880E-1,5.362476110E-1,7.806164026E-1,-6.260294318E-1
7.580817710E-1,6.229904294E-1,7.903901935E-1,-6.431336403E-1
7.604295310E-1,7.072897553E-1,7.891684771E-1,-6.492423415E-1
7.627765110E-1,7.940325737E-1,7.708425522E-1,-6.419119239E-1
7.651227080E-1,8.685580492E-1,7.427427769E-1,-6.199207902E-1
7.674697920E-1,9.406400919E-1,6.926518679E-1,-5.857123733E-1
7.698175520E-1,1.006613374E0,6.242350340E-1,-5.417301059E-1
7.721645310E-1,1.065256357E0,5.448225737E-1,-4.916391969E-1
7.745107290E-1,1.116569042E0,4.580798149E-1,-4.354396164E-1
7.768577610E-1,1.166659951E0,3.627849221E-1,-3.731314242E-1
7.792055210E-1,1.214307308E0,2.589378953E-1,-3.132666945E-1
7.815525520E-1,1.264398217E0,1.465388089E-1,-2.582888603E-1
7.838987500E-1,1.318154335E0,3.536143154E-2,-2.069762349E-1
7.862457810E-1,1.378019094E0,-7.215076685E-2,-1.654374450E-1
7.885935420E-1,1.446435928E0,-1.906585097E-1,-1.263420880E-1
7.909405730E-1,1.518517971E0,-2.859534323E-1,-9.091193974E-2
7.932867190E-1,1.591821790E0,-3.714744747E-1,-5.670351535E-2
7.956338020E-1,1.665125489E0,-4.398913383E-1,-1.882990636E-2
7.979815630E-1,1.744537950E0,-4.899822474E-1,2.270889468E-2
8.003285420E-1,1.826393843E0,-5.119733810E-1,6.791288406E-2
8.026747400E-1,1.905806184E0,-5.083081722E-1,1.204472482E-1
8.050218230E-1,1.986440420E0,-4.789866805E-1,1.754250824E-1
8.073695830E-1,2.073183298E0,-4.386695921E-1,2.328463644E-1
8.097165630E-1,2.157482624E0,-3.885787129E-1,2.890459299E-1
8.120627610E-1,2.249112368E0,-3.397095203E-1,3.513541222E-1
8.144097920E-1,2.339520216E0,-2.859534323E-1,4.038884938E-1
8.167576040E-1,2.431149960E0,-2.285321206E-1,4.393186569E-1
8.191045830E-1,2.515449286E0,-1.772194952E-1,4.613097906E-1
8.214507810E-1,2.597305298E0,-1.442327946E-1,4.833009243E-1
8.237978130E-1,2.675495863E0,-1.393458843E-1,5.089572072E-1
8.261455730E-1,2.746356249E0,-1.405676156E-1,5.358352661E-1
8.284926040E-1,2.814773083E0,-1.442327946E-1,5.602698326E-1
8.308388020E-1,2.874637842E0,-1.417893320E-1,5.834826827E-1
8.331856250E-1,2.929615736E0,-1.369024217E-1,6.103607416E-1
8.355335940E-1,2.977262974E0,-1.112461090E-1,6.384605169E-1
8.378805730E-1,3.017580032E0,-7.825940847E-2,6.714472175E-1
8.402267710E-1,3.048123360E0,-2.939022891E-2,7.117642760E-1
8.425738540E-1,3.082331896E0,1.581375860E-2,7.606334686E-1
8.449216150E-1,3.112874985E0,5.002218485E-2,8.131678104E-1
8.472685940E-1,3.143418312E0,7.445676625E-2,8.644804955E-1
8.496147920E-1,3.167852879E0,8.667406440E-2,9.170148373E-1
8.519618230E-1,3.188622236E0,8.056542277E-2,9.683274627E-1
8.543096360E-1,3.197174311E0,6.223948300E-2,1.011087894E0
8.566566150E-1,3.198396206E0,3.780489415E-2,1.046518087E0
8.590028130E-1,3.194730997E0,-6.177369505E-3,1.075839639E0
8.613498440E-1,3.181291819E0,-4.282925278E-2,1.097830772E0
8.636976040E-1,3.160522461E0,-6.726384163E-2,1.110048056E0
8.660446360E-1,3.133644342E0,-6.848557293E-2,1.121043563E0
8.683908330E-1,3.103101254E0,-3.549887985E-2,1.133260846E0
8.707378650E-1,3.071336269E0,3.536143154E-2,1.147921681E0
8.730856250E-1,3.040792942E0,1.404301673E-1,1.166247606E0
8.754326040E-1,3.011471510E0,2.711552083E-1,1.185795307E0
8.777788020E-1,2.988258600E0,4.202061892E-1,1.212673306E0
8.801258860E-1,2.969932795E0,5.912483335E-1,1.237107873E0
8.824736460E-1,2.956493616E0,7.781729102E-1,1.256655574E0
8.848206250E-1,2.939389467E0,9.724279046E-1,1.267651081E0
8.871668230E-1,2.917398214E0,1.138583064E0,1.273759723E0
8.895138540E-1,2.884411573E0,1.296186209E0,1.266429424E0
8.918616670E-1,2.842872858E0,1.457454443E0,1.252990365E0
8.942086460E-1,2.795225382E0,1.635826945E0,1.238329649E0
8.965548440E-1,2.743912697E0,1.817864656E0,1.224890590E0
8.989018750E-1,2.686491489E0,2.008454561E0,1.213895082E0
9.012496360E-1,2.627848387E0,2.202709436E0,1.202899456E0
9.035966670E-1,2.567983627E0,2.411625147E0,1.191903949E0
9.059428650E-1,2.505675554E0,2.626649618E0,1.177243114E0
9.082898960E-1,2.442145586E0,2.847782612E0,1.161360621E0
9.106376560E-1,2.384724379E0,3.061585188E0,1.139369488E0
9.129846360E-1,2.324859619E0,3.265614033E0,1.111269712E0
9.153308330E-1,2.269881725E0,3.463534117E0,1.072174430E0
9.176779170E-1,2.213682175E0,3.649237156E0,1.023305178E0
9.200256770E-1,2.162369490E0,3.812948942E0,9.781013131E-1
9.223726560E-1,2.114722013E0,3.955891132E0,9.402276874E-1
9.247188540E-1,2.069518089E0,4.087838173E0,9.072409868E-1
9.270658860E-1,2.034087896E0,4.188020229E0,8.864715695E-1
9.294136980E-1,1.994992614E0,4.262545586E0,8.779194951E-1
9.317606770E-1,1.957118869E0,4.304084301E0,8.815847039E-1
9.341068750E-1,1.911914825E0,4.315079689E0,8.950237036E-1
9.364539060E-1,1.869154334E0,4.291867256E0,9.182365537E-1
9.388016670E-1,1.830059052E0,4.224671841E0,9.512232542E-1
9.411486980E-1,1.801959276E0,4.136707306E0,9.866533875E-1
9.434948960E-1,1.771415949E0,4.046299458E0,1.017196536E0
9.458419270E-1,1.742094517E0,3.948560715E0,1.039187670E0
9.481896880E-1,1.718881607E0,3.844713926E0,1.053848505E0
9.505367190E-1,1.704220891E0,3.724984407E0,1.070952654E0
9.528828650E-1,1.690781832E0,3.595480919E0,1.089278579E0
9.552299480E-1,1.683451414E0,3.450095177E0,1.112491488E0
9.575777080E-1,1.681007981E0,3.298600674E0,1.143034697E0
9.599246880E-1,1.682229757E0,3.137332439E0,1.174799681E0
9.622708860E-1,1.685894966E0,2.973620653E0,1.209008098E0
9.646179690E-1,1.683451414E0,2.811130762E0,1.241994858E0
9.669657290E-1,1.673677683E0,2.648640633E0,1.281090140E0
9.693127080E-1,1.655351639E0,2.491037607E0,1.321407199E0
9.716589060E-1,1.626030207E0,2.356647253E0,1.364167690E0
9.740059380E-1,1.596708655E0,2.239361286E0,1.404484868E0
9.763536980E-1,1.567387223E0,2.117188454E0,1.442358494E0
9.787007290E-1,1.539287448E0,1.973024368E0,1.477788568E0
9.810469270E-1,1.512409329E0,1.823973298E0,1.508331776E0
9.833939580E-1,1.494083405E0,1.679809213E0,1.533988118E0
9.857417190E-1,1.468427062E0,1.522206187E0,1.558422685E0
9.880886980E-1,1.441549063E0,1.336503267E0,1.592631102E0
9.904348960E-1,1.411005855E0,1.121478915E0,1.631726503E0
9.927819790E-1,1.374353886E0,8.832416534E-1,1.675708771E0
9.951297400E-1,1.336480260E0,6.193481088E-1,1.725799680E0
9.974767190E-1,1.305937052E0,3.517893553E-1,1.777112246E0
9.998229170E-1,1.286389351E0,9.400443733E-2,1.830868363E0
1.002169948E0,1.265619993E0,-1.356806904E-1,1.880959272E0
1.004517761E0,1.257067919E0,-3.433746994E-1,1.923719883E0
1.006864740E0,1.254624486E0,-5.266340971E-1,1.961593390E0
1.009210938E0,1.253402710E0,-6.879023910E-1,1.999467134E0
1.011557969E0,1.261954784E0,-8.125188351E-1,2.025123596E0
1.013905729E0,1.285167694E0,-9.236962199E-1,2.041006088E0
1.016252761E0,1.312045693E0,-1.007995486E0,2.048336506E0
1.018598958E0,1.347475886E0,-1.081299305E0,2.042227745E0
1.020945990E0,1.387792945E0,-1.144829273E0,2.027567148E0
1.023293750E0,1.429331779E0,-1.210802555E0,2.001910448E0
1.025640781E0,1.481866121E0,-1.279219508E0,1.962815166E0
1.027986927E0,1.546617746E0,-1.348857999E0,1.910280824E0
1.030334011E0,1.613812923E0,-1.419718385E0,1.847972631E0
1.032681771E0,1.690781832E0,-1.491800427E0,1.777112246E0
1.035028750E0,1.765307307E0,-1.549221635E0,1.697699904E0
1.037374948E0,1.836167693E0,-1.590760469E0,1.613400578E0
1.039722031E0,1.898475885E0,-1.638407946E0,1.532766461E0
1.042069792E0,1.943679810E0,-1.688498855E0,1.470458269E0
1.044416771E0,1.977888227E0,-1.744698405E0,1.416702151E0
1.046762969E0,2.001101255E0,-1.796010971E0,1.370276451E0
1.049110000E0,2.013318539E0,-1.853432298E0,1.329959273E0
1.051457761E0,2.013318539E0,-1.903523207E0,1.292085767E0
1.053804792E0,1.999879479E0,-1.962166190E0,1.265207648E0
1.056150990E0,1.982775211E0,-2.041578531E0,1.243216515E0
1.058498021E0,1.965670943E0,-2.130764961E0,1.222447157E0
1.060845781E0,1.947345018E0,-2.213842392E0,1.199234247E0
1.063192813E0,1.933905959E0,-2.303028822E0,1.174799681E0
1.065538958E0,1.921688676E0,-2.382441044E0,1.150365114E0
1.067886042E0,1.915580034E0,-2.460631847E0,1.121043563E0
1.070233802E0,1.908249736E0,-2.531492233E0,1.092943788E0
1.072580781E0,1.902141094E0,-2.593800306E0,1.067287445E0
1.074926979E0,1.891145468E0,-2.647556543E0,1.042852879E0
1.077274011E0,1.871597767E0,-2.675656319E0,1.019640088E0
1.079621823E0,1.844719768E0,-2.684208393E0,1.000092387E0
1.081968802E0,1.812954783E0,-2.680543184E0,9.805447459E-1
1.084315000E0,1.768972516E0,-2.656108618E0,9.585536122E-1
1.086662031E0,1.705442548E0,-2.607239485E0,9.316756129E-1
1.089009792E0,1.649242997E0,-2.553483248E0,8.938019872E-1
1.091356823E0,1.599152088E0,-2.511944532E0,8.510414362E-1
1.093703021E0,1.555169821E0,-2.491175175E0,8.046157360E-1
1.096050052E0,1.507522464E0,-2.475292683E0,7.545248270E-1
1.098397813E0,1.459874988E0,-2.461853504E0,7.068773508E-1
1.100744844E0,1.412227511E0,-2.450857878E0,6.604516506E-1
1.103090990E0,1.364580035E0,-2.430088520E0,6.152476668E-1
1.105438073E0,1.305937052E0,-2.397101879E0,5.737088323E-1
1.107785833E0,1.243628860E0,-2.356784821E0,5.309483409E-1
1.110132813E0,1.177655458E0,-2.309137344E0,4.918530285E-1
1.112479011E0,1.111682057E0,-2.265155077E0,4.564228654E-1
1.114826042E0,1.038378358E0,-2.217507601E0,4.185492396E-1
1.117173854E0,9.626312256E-1,-2.166195154E0,3.843408227E-1
1.119520833E0,8.868839741E-1,-2.109995365E0,3.489106596E-1
1.121867031E0,8.111367822E-1,-2.053795815E0,3.147022426E-1
1.124214063E0,7.292808890E-1,-1.993931055E0,2.768286467E-1
1.126561823E0,6.462032795E-1,-1.934066415E0,2.413984686E-1
1.128908854E0,5.606822371E-1,-1.875423431E0,2.010813951E-1
1.131255052E0,4.727176428E-1,-1.824110746E0,1.619860530E-1
1.133602083E0,3.871966004E-1,-1.772798181E0,1.241124421E-1
1.135949844E0,2.955668867E-1,-1.717820287E0,8.379536867E-2
1.138296875E0,2.002720088E-1,-1.661620736E0,4.470002651E-2
1.140643021E0,1.025336385E-1,-1.600534320E0,3.161224537E-3
1.142990104E0,6.017018110E-3,-1.540669560E0,-4.326449335E-2
1.145337865E0,-8.805614710E-2,-1.491800427E0,-8.969020844E-2
1.147684844E0,-1.870162338E-1,-1.442931175E0,-1.422245800E-1
1.150031042E0,-2.749807835E-1,-1.400170684E0,-1.923154891E-1
1.152378073E0,-3.666104674E-1,-1.353744984E0,-2.411846668E-1
1.154725886E0,-4.606836438E-1,-1.308540940E0,-2.888320982E-1
1.157072865E0,-5.413177013E-1,-1.260893464E0,-3.328143656E-1
1.159419063E0,-6.207301617E-1,-1.204693913E0,-3.755748868E-1
1.161766094E0,-7.050294876E-1,-1.136277080E0,-4.220006168E-1
1.164113854E0,-7.795549631E-1,-1.078855872E0,-4.647611380E-1
1.166460886E0,-8.553022146E-1,-1.031208396E0,-5.062999725E-1
1.168807083E0,-9.347146153E-1,-9.921129942E-1,-5.478387475E-1
1.171154115E0,-1.011683583E0,-9.627915621E-1,-5.844906569E-1
1.173501875E0,-1.092317820E0,-9.383569360E-1,-6.186990738E-1
1.175848906E0,-1.179060578E0,-9.090354443E-1,-6.480205655E-1
1.178195052E0,-1.264581680E0,-8.882660270E-1,-6.736769080E-1
1.180542136E0,-1.352546215E0,-8.626097441E-1,-6.944463253E-1
1.182889896E0,-1.436845541E0,-8.406186104E-1,-7.054418921E-1
1.185236875E0,-1.521144867E0,-8.210709095E-1,-7.066636086E-1
1.187583073E0,-1.595670342E0,-8.076319098E-1,-6.956680417E-1
1.189930104E0,-1.659200311E0,-8.003014922E-1,-6.712334156E-1
1.192277917E0,-1.711734653E0,-7.893059254E-1,-6.370249987E-1
1.194624896E0,-1.736169219E0,-7.856407762E-1,-5.881558657E-1
1.196971094E0,-1.733725786E0,-7.783104181E-1,-5.234041810E-1
1.199318125E0,-1.701960802E0,-7.722017169E-1,-4.488786459E-1
1.201665886E0,-1.643317819E0,-7.599844337E-1,-3.682444990E-1
1.204012917E0,-1.550466418E0,-7.465454340E-1,-2.839451730E-1
1.206359115E0,-1.425849915E0,-7.331063747E-1,-1.996458620E-1
1.208706146E0,-1.260916471E0,-7.221108079E-1,-1.116813421E-1
1.211053906E0,-1.073991895E0,-7.001197338E-1,-2.860374190E-2
1.213400938E0,-8.650760055E-1,-7.001197338E-1,5.447386205E-2
1.215747083E0,-6.671558619E-1,-7.343281507E-1,1.338862777E-1
1.218094167E0,-4.961137772E-1,-8.222926259E-1,2.169638723E-1
1.220441927E0,-3.690539300E-1,-9.762305617E-1,3.012632132E-1
1.222788906E0,-2.957501709E-1,-1.182702780E0,3.806756437E-1
1.225135104E0,-2.529896498E-1,-1.417274833E0,4.503142238E-1
1.227482136E0,-2.236681134E-1,-1.629855871E0,5.101789236E-1
1.229829948E0,-1.882379502E-1,-1.769132972E0,5.578263998E-1
1.232176927E0,-1.247080415E-1,-1.828997731E0,5.969217420E-1
1.234523125E0,-1.475238241E-2,-1.791124105E0,6.299084425E-1
1.236870156E0,1.391855329E-1,-1.664064288E0,6.567864418E-1
1.239217917E0,3.261101246E-1,-1.477139592E0,6.848862171E-1
1.241564948E0,5.166999698E-1,-1.264558673E0,7.093208432E-1
1.243911094E0,6.987376809E-1,-1.061751604E0,7.313119769E-1
1.246258177E0,8.612276912E-1,-8.809356689E-1,7.398640513E-1
1.248605938E0,1.001726508E0,-7.233325839E-1,7.374206185E-1
1.250952917E0,1.121455908E0,-5.889423490E-1,7.276467681E-1
1.253299115E0,1.230189800E0,-4.728780389E-1,7.105425596E-1
1.255646198E0,1.331593394E0,-3.714744747E-1,6.922166348E-1
1.257993958E0,1.420779586E0,-2.725144029E-1,6.738906503E-1
1.260340938E0,1.505078912E0,-1.796629429E-1,6.604516506E-1
1.262687136E0,1.584491372E0,-9.169843793E-2,6.518995166E-1
1.265034167E0,1.645577908E0,-9.842557833E-3,6.433474422E-1
1.267381927E0,1.687116623E0,5.368737876E-2,6.396822333E-1
1.269728958E0,1.702999115E0,9.400443733E-2,6.360170841E-1
1.272075156E0,1.689560056E0,1.123303920E-1,6.311301589E-1
1.274422188E0,1.652908206E0,1.098869294E-1,6.213563085E-1
1.276769948E0,1.600373864E0,7.934369147E-2,6.091390252E-1
1.279116979E0,1.525848389E0,4.147008061E-2,5.908131003E-1
1.281463125E0,1.435440421E0,-1.717293449E-2,5.676001906E-1
1.283810208E0,1.336480260E0,-9.780707955E-2,5.456090569E-1
1.286157969E0,1.226524711E0,-1.808846742E-1,5.260614157E-1
1.288504948E0,1.117790699E0,-2.774013281E-1,5.126224160E-1
1.290851146E0,9.956179261E-1,-3.617006540E-1,5.077354908E-1
1.293198229E0,8.538972735E-1,-4.240088463E-1,5.114006400E-1
1.295545990E0,6.914072633E-1,-4.521086216E-1,5.248396993E-1
1.297892969E0,5.142564774E-1,-4.362261593E-1,5.333917737E-1
1.300239167E0,3.163362741E-1,-3.702527583E-1,5.346134901E-1
1.302586198E0,1.123074740E-1,-2.651840150E-1,5.248396993E-1
1.304934011E0,-8.927787840E-2,-1.442327946E-1,5.028485656E-1
1.307280990E0,-2.749807835E-1,-1.472947560E-2,4.747488201E-1
1.309627188E0,-4.252534807E-1,1.025565565E-1,4.393186569E-1
1.311974219E0,-5.266569853E-1,2.112904787E-1,3.977798522E-1
1.314321979E0,-5.816348195E-1,3.236895800E-1,3.562410474E-1
1.316669011E0,-5.889651775E-1,4.495277107E-1,3.098153174E-1
1.319015156E0,-5.559784770E-1,6.120176911E-1,2.670547962E-1
1.321362240E0,-4.985572696E-1,8.038292527E-1,2.206290662E-1
1.323710000E0,-4.289186895E-1,1.020075321E0,1.729816198E-1
1.326056979E0,-3.372889757E-1,1.246095300E0,1.302210838E-1
1.328403177E0,-2.273332924E-1,1.452567577E0,9.356920421E-2
1.330750261E0,-1.027169079E-1,1.629718304E0,5.325213075E-2
1.333098021E0,2.312123217E-2,1.738452315E0,1.293506008E-2
1.335445000E0,1.257465035E-1,1.755556464E0,-3.226892650E-2
1.337791198E0,2.039371878E-1,1.660261631E0,-7.502946258E-2
1.340138229E0,2.491411716E-1,1.453789353E0,-1.202334464E-1
1.342485990E0,2.589150071E-1,1.180121899E0,-1.605505198E-1
1.344833021E0,2.613584697E-1,8.930155039E-1,-1.959806681E-1
1.347179219E0,2.845713198E-1,6.474478841E-1,-2.253021747E-1
1.349526250E0,3.542098999E-1,4.678536355E-1,-2.497367561E-1
1.351874011E0,4.812697470E-1,3.517893553E-1,-2.753930688E-1
1.354221042E0,6.584205627E-1,2.626031041E-1,-3.059363067E-1
1.356567188E0,8.819970489E-1,1.783037782E-1,-3.364795446E-1
1.358914271E0,1.132451534E0,1.184390336E-1,-3.670227826E-1
1.361262031E0,1.378019094E0,9.766963124E-2,-4.036746621E-1
1.363609011E0,1.580826163E0,1.147738546E-1,-4.415482879E-1
1.365955208E0,1.710329533E0,1.685299426E-1,-4.830870926E-1
1.368302292E0,1.748203158E0,2.687117457E-1,-5.258476138E-1
1.370650052E0,1.711551189E0,3.945498765E-1,-5.759385228E-1
1.372997031E0,1.624808431E0,5.338270068E-1,-6.394684911E-1
1.375343229E0,1.512409329E0,6.645520926E-1,-7.213243246E-1
1.377690261E0,1.373132229E0,7.757294774E-1,-8.288365602E-1
1.380038021E0,1.215529084E0,8.404811025E-1,-9.620050788E-1
1.382385052E0,1.035934925E0,8.453680277E-1,-1.123273373E0
1.384731250E0,8.465669155E-1,7.806164026E-1,-1.294315577E0
1.387078281E0,6.498684883E-1,6.657738090E-1,-1.459249020E0
1.389426042E0,4.311788380E-1,5.423791409E-1,-1.607078314E0
1.391773073E0,1.856112629E-1,4.605232775E-1,-1.725586057E0
1.394119219E0,-9.049960971E-2,4.593015313E-1,-1.817215681E0
1.396466302E0,-3.861581385E-1,5.301618576E-1,-1.874637008E0
1.398814063E0,-7.135815620E-1,6.706607342E-1,-1.903958559E0
1.401161042E0,-1.055665970E0,8.502549529E-1,-1.902736783E0
1.403507240E0,-1.402637124E0,1.026183963E0,-1.868528366E0
1.405854271E0,-1.766712427E0,1.220438957E0,-1.796446323E0
1.408202083E0,-2.141783237E0,1.439128518E0,-1.696264505E0
1.410549063E0,-2.516854286E0,1.673700571E0,-1.566761136E0
1.412895261E0,-2.887038231E0,1.920489907E0,-1.425040603E0
1.415242292E0,-3.246226788E0,2.148953438E0,-1.283319950E0
1.417590052E0,-3.577315331E0,2.339543104E0,-1.158703566E0
1.419937083E0,-3.872973919E0,2.480041981E0,-1.059743404E0
1.422283281E0,-4.113654613E0,2.553345919E0,-9.949917197E-1
1.424630313E0,-4.299357414E0,2.565563202E0,-9.632267952E-1
1.426978073E0,-4.432525635E0,2.533798218E0,-9.620050788E-1
1.429325104E0,-4.518046856E0,2.483707190E0,-9.803310037E-1
1.431671250E0,-4.565694332E0,2.433616400E0,-1.012096047E0
1.434018333E0,-4.573024750E0,2.398186207E0,-1.048747897E0
1.436366094E0,-4.538816452E0,2.379860163E0,-1.081734538E0
1.438713073E0,-4.470399380E0,2.396964312E0,-1.107390881E0
1.441059271E0,-4.364109039E0,2.449498892E0,-1.124495149E0
1.443406354E0,-4.219944954E0,2.552124023E0,-1.131825447E0
1.445754063E0,-4.029355049E0,2.682849169E0,-1.129382014E0
1.448101094E0,-3.800891876E0,2.831900120E0,-1.118386507E0
1.450447292E0,-3.544328690E0,2.968733788E0,-1.101282239E0
1.452794323E0,-3.256000519E0,3.070137262E0,-1.076847672E0
1.455142083E0,-2.949346542E0,3.116563082E0,-1.052413106E0
1.457489115E0,-2.646357536E0,3.100680590E0,-1.023091555E0
1.459835261E0,-2.354364157E0,3.010272503E0,-9.913265705E-1
1.462182344E0,-2.078253269E0,2.842895746E0,-9.607833028E-1
1.464530104E0,-1.832685828E0,2.605880260E0,-9.216879606E-1
1.466877083E0,-1.629878759E0,2.307778120E0,-8.789274693E-1
1.469223281E0,-1.466167092E0,1.954698324E0,-8.263930678E-1
1.471570365E0,-1.347659230E0,1.569853544E0,-7.714152336E-1
1.473918125E0,-1.264581680E0,1.148356915E0,-7.164374590E-1
1.476265104E0,-1.220599413E0,7.170864344E-1,-6.651247740E-1
1.478611302E0,-1.204716921E0,2.992549837E-1,-6.272512078E-1
1.480958333E0,-1.209603906E0,-9.414188564E-2,-6.015948653E-1
1.483306094E0,-1.236481905E0,-4.533303678E-1,-5.918210149E-1
1.485653125E0,-1.280464172E0,-7.648713589E-1,-5.942645073E-1
1.487999323E0,-1.332998514E0,-1.027543187E0,-6.101469398E-1
1.490346354E0,-1.396528482E0,-1.245011091E0,-6.333598495E-1
1.492694115E0,-1.472275734E0,-1.413609743E0,-6.663465500E-1
1.495041146E0,-1.546801209E0,-1.550443411E0,-7.054418921E-1
1.497387292E0,-1.623770118E0,-1.646960020E0,-7.518675923E-1
1.499734375E0,-1.703182578E0,-1.716598630E0,-8.019585013E-1
1.502082136E0,-1.785038471E0,-1.755693913E0,-8.569363356E-1
1.504429115E0,-1.868116021E0,-1.760580897E0,-9.155793190E-1
1.506775313E0,-1.954858780E0,-1.733702779E0,-9.742223620E-1
1.509122396E0,-2.036714554E0,-1.695829153E0,-1.027978539E0
1.511470156E0,-2.121013880E0,-1.637186170E0,-1.081734538E0
1.513817136E0,-2.212643623E0,-1.567547560E0,-1.130603790E0
1.516163333E0,-2.301829815E0,-1.483248234E0,-1.173364282E0
1.518510365E0,-2.394681215E0,-1.391618609E0,-1.203907490E0
1.520858125E0,-2.491197824E0,-1.293880224E0,-1.221011758E0
1.523205156E0,-2.590157986E0,-1.185146332E0,-1.217346549E0
1.525551354E0,-2.691561460E0,-1.070303679E0,-1.196577191E0
1.527898386E0,-2.794186831E0,-9.395786524E-1,-1.174586058E0
1.530246146E0,-2.880929708E0,-7.990797758E-1,-1.150151491E0
1.532593177E0,-2.959120274E0,-6.439201236E-1,-1.125716805E0
1.534939323E0,-3.026315451E0,-4.765432179E-1,-1.098838806E0
1.537286406E0,-3.077628136E0,-2.969489992E-1,-1.068295598E0
1.539634167E0,-3.119166851E0,-1.100243777E-1,-1.037752390E0
1.541981146E0,-3.148488283E0,8.545233309E-2,-1.002322197E0
1.544327344E0,-3.161927462E0,2.772638500E-1,-9.656702280E-1
1.546674427E0,-3.161927462E0,4.690753818E-1,-9.339052439E-1
1.549022188E0,-3.149710178E0,6.523348093E-1,-9.033620358E-1
1.551369167E0,-3.125275612E0,8.123813272E-1,-8.691536188E-1
1.553715365E0,-3.097175837E0,9.431064129E-1,-8.300582767E-1
1.556062396E0,-3.061745644E0,1.042066455E0,-7.872977257E-1
1.558410156E0,-3.027537107E0,1.110483289E0,-7.396503091E-1
1.560757188E0,-2.994550467E0,1.152022123E0,-6.895594001E-1
1.563103386E0,-2.957898617E0,1.153243899E0,-6.394684911E-1
1.565450417E0,-2.926133633E0,1.126365781E0,-5.918210149E-1
1.567798177E0,-2.895590305E0,1.070166230E0,-5.453953147E-1
1.570145156E0,-2.860160112E0,9.736496210E-1,-4.904174507E-1
1.572491354E0,-2.816177845E0,8.380376697E-1,-4.329961836E-1
1.574838438E0,-2.778304338E0,6.792128086E-1,-3.804618120E-1
1.577186198E0,-2.726991653E0,4.874013066E-1,-3.377012610E-1
1.579533177E0,-2.665905237E0,2.613813579E-1,-3.071580231E-1
1.581879375E0,-2.595044851E0,3.596466035E-3,-2.888320982E-1
1.584226406E0,-2.518075943E0,-2.749578655E-1,-2.876103818E-1
1.586574219E0,-2.434998274E0,-5.498470068E-1,-3.022711277E-1
1.588921198E0,-2.358029366E0,-8.015232682E-1,-3.218187988E-1
1.591267396E0,-2.290834188E0,-1.000665069E0,-3.450316489E-1
1.593614427E0,-2.218752146E0,-1.158268213E0,-3.633576035E-1
1.595962188E0,-2.160109282E0,-1.265780449E0,-3.767966032E-1
1.598309219E0,-2.105131388E0,-1.336640716E0,-3.853487074E-1
1.600655365E0,-2.050153494E0,-1.374514341E0,-3.975660205E-1
1.603002448E0,-2.008614779E0,-1.373292685E0,-4.146702290E-1
1.605350208E0,-1.970741391E0,-1.315871358E0,-4.378830791E-1
1.607697188E0,-1.934089422E0,-1.208359122E0,-4.708697796E-1
1.610043386E0,-1.897437572E0,-1.082520962E0,-5.001913309E-1
1.612390417E0,-1.864450812E0,-9.774522781E-1,-5.185172558E-1
1.614738229E0,-1.846124887E0,-8.748270273E-1,-5.246258974E-1
1.617085208E0,-1.844903111E0,-7.538757920E-1,-5.197389722E-1
1.619431406E0,-1.857120514E0,-6.194855571E-1,-5.038564801E-1
1.621778438E0,-1.875446439E0,-5.009778142E-1,-4.769784212E-1
1.624126250E0,-1.901102662E0,-4.093481004E-1,-4.439917505E-1
1.626473229E0,-1.923093796E0,-3.458181620E-1,-4.061181247E-1
1.628819427E0,-1.952415347E0,-3.091662824E-1,-3.719097078E-1
1.631166458E0,-1.985401988E0,-2.835099697E-1,-3.425881863E-1
1.633514219E0,-2.022053719E0,-2.627405524E-1,-3.181535900E-1
1.635861250E0,-2.055040598E0,-2.554101944E-1,-2.986059189E-1
1.638207396E0,-2.089248896E0,-2.688491940E-1,-2.815017104E-1
1.640554479E0,-2.121013880E0,-2.932837903E-1,-2.680626810E-1
1.642902240E0,-2.138118029E0,-3.397095203E-1,-2.595105767E-1
1.645249219E0,-2.146670103E0,-4.117915630E-1,-2.497367561E-1
1.647595417E0,-2.154000521E0,-4.826518595E-1,-2.485150397E-1
1.649942500E0,-2.149113655E0,-5.559556484E-1,-2.485150397E-1
1.652290261E0,-2.135674715E0,-6.280376911E-1,-2.534019351E-1
1.654637240E0,-2.121013880E0,-7.037848830E-1,-2.570671439E-1
1.656983438E0,-2.105131388E0,-7.685365677E-1,-2.668409646E-1
1.659330469E0,-2.083140373E0,-8.308447599E-1,-2.815017104E-1
1.661678229E0,-2.063592672E0,-8.846008778E-1,-2.998276651E-1
1.664025261E0,-2.045266628E0,-9.261396527E-1,-3.230405152E-1
1.666371458E0,-2.026940823E0,-9.566828609E-1,-3.548054993E-1
1.668718490E0,-2.006171227E0,-9.786739945E-1,-3.902356327E-1
1.671066250E0,-1.987845540E0,-9.921129942E-1,-4.268875122E-1
1.673413281E0,-1.969519496E0,-9.945564270E-1,-4.635393918E-1
1.675759427E0,-1.942641497E0,-9.884478450E-1,-4.977478385E-1
1.678106511E0,-1.910876513E0,-9.701219201E-1,-5.270693898E-1
1.680454271E0,-1.879111648E0,-9.298048615E-1,-5.588343143E-1
1.682801250E0,-1.832685828E0,-8.797139525E-1,-5.857123733E-1
1.685147448E0,-1.786260128E0,-8.088536263E-1,-6.077035069E-1
1.687494479E0,-1.737390995E0,-7.184456587E-1,-6.284729242E-1
1.689842240E0,-1.687300086E0,-6.304811239E-1,-6.394684911E-1
1.692189271E0,-1.644539475E0,-5.412948728E-1,-6.467988491E-1
1.694535469E0,-1.613996267E0,-4.508869052E-1,-6.480205655E-1
1.696882500E0,-1.593226910E0,-3.629223704E-1,-6.455771327E-1
1.699230261E0,-1.576122642E0,-2.810665071E-1,-6.431336403E-1
1.701577292E0,-1.557796717E0,-2.077627331E-1,-6.406902075E-1
1.703923438E0,-1.535805583E0,-1.417893320E-1,-6.419119239E-1
1.706270521E0,-1.507705808E0,-7.948113978E-2,-6.467988491E-1
1.708618281E0,-1.472275734E0,-3.183368593E-2,-6.541292071E-1
1.710965261E0,-1.435623765E0,1.092684083E-2,-6.626813412E-1
1.713311458E0,-1.400193691E0,4.880045354E-2,-6.724551916E-1
1.715658542E0,-1.358654857E0,6.346121430E-2,-6.785638332E-1
1.718006302E0,-1.322003007E0,6.590466946E-2,-6.822289824E-1
1.720353281E0,-1.280464172E0,4.269181192E-2,-6.785638332E-1
1.722699479E0,-1.259694815E0,2.558759414E-2,-6.761203408E-1
1.725046511E0,-1.241368771E0,-1.106428728E-2,-6.675682664E-1
1.727394271E0,-1.235260129E0,-5.138135701E-2,-6.577944160E-1
1.729741302E0,-1.237703681E0,-1.039157212E-1,-6.443554163E-1
1.732087500E0,-1.248699188E0,-1.613370031E-1,-6.284729242E-1
1.734434531E0,-1.262138247E0,-2.224234790E-1,-6.125904322E-1
1.736782292E0,-1.276798964E0,-2.822882235E-1,-5.979296565E-1
1.739129271E0,-1.290238023E0,-3.433746994E-1,-5.808254480E-1
1.741475469E0,-1.286572814E0,-3.922438920E-1,-5.624995232E-1
1.743822552E0,-1.267025113E0,-4.203436673E-1,-5.417301059E-1
1.746170313E0,-1.224264622E0,-4.313392341E-1,-5.209607482E-1
1.748517292E0,-1.160734653E0,-4.093481004E-1,-5.001913309E-1
1.750863490E0,-1.067883253E0,-3.739179373E-1,-4.769784212E-1
1.753210573E0,-9.628143907E-1,-3.164966702E-1,-4.537655711E-1
1.755558333E0,-8.455283642E-1,-2.578536272E-1,-4.305527210E-1
1.757905313E0,-7.245771289E-1,-2.089844495E-1,-4.073398411E-1
1.760251511E0,-6.072911024E-1,-1.759977639E-1,-3.841269910E-1
1.762598542E0,-4.997789860E-1,-1.662239283E-1,-3.572489321E-1
1.764946302E0,-4.191448390E-1,-1.576718241E-1,-3.377012610E-1
1.767293333E0,-3.531714678E-1,-1.698891073E-1,-3.144884109E-1
1.769639479E0,-3.079674542E-1,-1.979888827E-1,-2.900538146E-1
1.771986563E0,-2.835328877E-1,-2.285321206E-1,-2.680626810E-1
1.774334323E0,-2.688721120E-1,-2.664057612E-1,-2.472932935E-1
1.776681302E0,-2.713155746E-1,-2.993924618E-1,-2.253021747E-1
1.779027500E0,-2.786459625E-1,-3.201618493E-1,-2.069762349E-1
1.781374583E0,-2.933067083E-1,-3.348225951E-1,-1.910937577E-1
1.783722344E0,-3.104109168E-1,-3.372660577E-1,-1.788764596E-1
1.786069323E0,-3.238499463E-1,-3.348225951E-1,-1.703243554E-1
1.788415521E0,-3.299585879E-1,-3.262704909E-1,-1.605505198E-1
1.790762552E0,-3.336237967E-1,-3.079445660E-1,-1.556635946E-1
1.793110313E0,-3.311803341E-1,-2.871751487E-1,-1.532201469E-1
1.795457344E0,-3.214064837E-1,-2.541884482E-1,-1.532201469E-1
1.797803542E0,-3.067457378E-1,-2.212017477E-1,-1.556635946E-1
1.800150573E0,-2.884197831E-1,-1.772194952E-1,-1.605505198E-1
1.802498333E0,-2.590982914E-1,-1.307937801E-1,-1.654374450E-1
1.804845365E0,-2.309985012E-1,-7.581594586E-2,-1.739895493E-1
1.807191511E0,-1.943465918E-1,-1.717293449E-2,-1.849851161E-1
1.809538594E0,-1.552512497E-1,3.658316284E-2,-1.923154891E-1
1.811886354E0,-1.076038182E-1,9.033925831E-2,-2.045327872E-1
1.814233333E0,-6.239983439E-2,1.502040029E-1,-2.155283391E-1
1.816579531E0,-1.353065483E-2,2.076252848E-1,-2.289673686E-1
1.818926563E0,3.289506584E-2,2.650465667E-1,-2.424063981E-1
1.821274323E0,8.542943001E-2,3.114722669E-1,-2.558453977E-1
1.823621354E0,1.318551451E-1,3.615631759E-1,-2.680626810E-1
1.825967552E0,1.733939499E-1,4.140975475E-1,-2.827234566E-1
1.828314583E0,2.161545008E-1,4.593015313E-1,-2.937190235E-1
1.830662344E0,2.613584697E-1,4.959534407E-1,-3.059363067E-1
1.833009375E0,3.004537821E-1,5.399357080E-1,-3.218187988E-1
1.835355573E0,3.517664373E-1,5.753658414E-1,-3.425881863E-1
1.837702604E0,4.152963758E-1,5.985786915E-1,-3.694662452E-1
1.840050365E0,4.873783886E-1,6.205698252E-1,-3.975660205E-1
1.842397344E0,5.619039536E-1,6.376740336E-1,-4.293309748E-1
1.844743542E0,6.425380707E-1,6.645520926E-1,-4.635393918E-1
1.847090625E0,7.280591726E-1,6.853215098E-1,-4.928609133E-1
1.849438386E0,8.221323490E-1,7.134212852E-1,-5.209607482E-1
1.851785365E0,9.174272418E-1,7.415210605E-1,-5.417301059E-1
1.854131563E0,1.007835150E0,7.647339106E-1,-5.576125979E-1
1.856478594E0,1.097021341E0,7.855032682E-1,-5.661647320E-1
1.858826354E0,1.183764100E0,7.989423275E-1,-5.624995232E-1
1.861173386E0,1.258289576E0,7.964988351E-1,-5.515039563E-1
1.863519583E0,1.326706529E0,7.696208358E-1,-5.246258974E-1
1.865866615E0,1.387792945E0,7.244168520E-1,-4.916391969E-1
1.868214375E0,1.450101137E0,6.462261677E-1,-4.525438547E-1
1.870561354E0,1.508744121E0,5.472660661E-1,-4.122267663E-1
1.872907552E0,1.577160954E0,4.250931144E-1,-3.767966032E-1
1.875254636E0,1.652908206E0,2.894811332E-1,-3.462533653E-1
1.877602396E0,1.722546816E0,1.611995697E-1,-3.181535900E-1
1.879949375E0,1.801959276E0,3.780489415E-2,-2.888320982E-1
1.882295573E0,1.883815050E0,-6.604211032E-2,-2.534019351E-1
1.884642604E0,1.962005734E0,-1.344589591E-1,-2.081979662E-1
1.886990365E0,2.045083523E0,-1.772194952E-1,-1.556635946E-1
1.889337396E0,2.124495983E0,-1.833281368E-1,-9.946404397E-2
1.891683594E0,2.212460518E0,-1.662239283E-1,-4.082103819E-2
1.894030625E0,2.302868366E0,-1.246851236E-1,1.660024747E-2
1.896378386E0,2.393276453E0,-6.726384163E-2,7.279980183E-2
1.898725417E0,2.488571405E0,-3.733910620E-3,1.302210838E-1
1.901071563E0,2.587531328E0,6.712640077E-2,1.827554554E-1
1.903418646E0,2.682826281E0,1.367649734E-1,2.316246331E-1
1.905766406E0,2.778121233E0,2.027383596E-1,2.768286467E-1
1.908113386E0,2.873415947E0,2.467206270E-1,3.147022426E-1
1.910459583E0,2.967489243E0,2.687117457E-1,3.550193310E-1
1.912806667E0,3.040792942E0,2.907028794E-1,3.904494643E-1
1.915154427E0,3.122648954E0,2.735986710E-1,4.344317317E-1
1.917501406E0,3.192287445E0,2.516075671E-1,4.796357155E-1
1.919847604E0,3.252152205E0,2.296164185E-1,5.285048485E-1
1.922194636E0,3.298578024E0,2.125122100E-1,5.785957575E-1
1.924542396E0,3.332786322E0,1.990731806E-1,6.311301589E-1
1.926889427E0,3.360886097E0,1.905210763E-1,6.861079931E-1
1.929235573E0,3.385320663E0,1.795255095E-1,7.435292602E-1
1.931582656E0,3.402424812E0,1.734168679E-1,7.997288108E-1
1.933930417E0,3.417085648E0,1.477605402E-1,8.547066450E-1
1.936277448E0,3.417085648E0,1.001130939E-1,9.145713449E-1
1.938623594E0,3.404868364E0,3.291797638E-2,9.732143879E-1
1.940970677E0,3.382877350E0,-5.626827478E-2,1.026970387E0
1.943318438E0,3.349890471E0,-1.637804657E-1,1.075839639E0
1.945665417E0,3.312016964E0,-2.664057612E-1,1.116156697E0
1.948011615E0,3.276586771E0,-3.678092957E-1,1.144256473E0
1.950358646E0,3.246043444E0,-4.484434426E-1,1.161360621E0
1.952706406E0,3.214278460E0,-4.924256802E-1,1.161360621E0
1.955053438E0,3.186178684E0,-4.912039638E-1,1.155251980E0
1.957399636E0,3.159300804E0,-4.276740551E-1,1.149143338E0
1.959746667E0,3.139753103E0,-3.274922371E-1,1.152808547E0
1.962094427E0,3.125092268E0,-1.808846742E-1,1.160138965E0
1.964441458E0,3.117761850E0,7.261654362E-3,1.168691039E0
1.966787604E0,3.110431671E0,2.112904787E-1,1.177243114E0
1.969134688E0,3.101879358E0,4.116540849E-1,1.184573531E0
1.971482448E0,3.087218761E0,5.998004079E-1,1.185795307E0
1.973829427E0,3.056675434E0,7.903901935E-1,1.178464890E0
1.976175625E0,3.024910450E0,9.834234715E-1,1.168691039E0
1.978522656E0,2.988258600E0,1.185008764E0,1.155251980E0
1.980870469E0,2.940611124E0,1.396368027E0,1.143034697E0
1.983217448E0,2.895407200E0,1.612614155E0,1.129595757E0
1.985563646E0,2.844094515E0,1.842299223E0,1.111269712E0
1.987910677E0,2.781786442E0,2.087866783E0,1.091722131E0
1.990258438E0,2.717034578E0,2.339543104E0,1.067287445E0
1.992605469E0,2.657170057E0,2.591219425E0,1.045296311E0
1.994951615E0,2.585088015E0,2.849004269E0,1.017196536E0
1.997298698E0,2.517892838E0,3.097015381E0,9.890968800E-1
1.999646458E0,2.459249735E0,3.325478792E0,9.634405375E-1
2.001993438E0,2.409158945E0,3.533172846E0,9.390059710E-1
2.004339636E0,2.361511469E0,3.727427721E0,9.145713449E-1
2.006686719E0,2.323637724E0,3.897248268E0,8.876933455E-1
2.009034479E0,2.300425053E0,4.029195309E0,8.620370030E-1
2.011381458E0,2.272325277E0,4.145259380E0,8.290503025E-1
2.013727656E0,2.255220890E0,4.222228527E0,8.033940196E-1
2.016074688E0,2.255220890E0,4.277206421E0,7.826246023E-1
2.018422448E0,2.240560293E0,4.312636375E0,7.679638267E-1
2.020769479E0,2.243003607E0,4.297975540E0,7.655203938E-1
2.023115677E0,2.262551308E0,4.246663094E0,7.691855431E-1
2.025462708E0,2.267438173E0,4.190463543E0,7.630769014E-1
2.027810469E0,2.262551308E0,4.124490261E0,7.520813346E-1
2.030157448E0,2.264994860E0,4.036525726E0,7.447509766E-1
2.032503646E0,2.260107994E0,3.911908865E0,7.386423349E-1
2.034850729E0,2.236895084E0,3.762857914E0,7.398640513E-1
2.037198490E0,2.230786324E0,3.568603039E0,7.557465434E-1
2.039545469E0,2.222234249E0,3.338917732E0,7.826246023E-1
2.041891667E0,2.208795309E0,3.094571829E0,8.204982281E-1
2.044238750E0,2.199021339E0,2.852669477E0,8.632587194E-1
2.046586458E0,2.199021339E0,2.609545469E0,9.157931209E-1
2.048933490E0,2.190469265E0,2.379860163E0,9.683274627E-1
2.051279688E0,2.179473639E0,2.172166109E0,1.025748730E0
2.053626719E0,2.166034698E0,1.988906860E0,1.084391713E0
2.055974479E0,2.135491371E0,1.822751641E0,1.143034697E0
2.058321511E0,2.087844133E0,1.689583063E0,1.195569038E0
2.060667656E0,2.037753105E0,1.561301470E0,1.248103499E0
2.063014740E0,1.983996868E0,1.423246026E0,1.300637841E0
2.065362500E0,1.915580034E0,1.264421225E0,1.359280825E0
2.067709479E0,1.838611126E0,1.084827065E0,1.424032450E0
2.070055677E0,1.760420442E0,9.003458619E-1,1.490005851E0
2.072402761E0,1.688338399E0,7.293037176E-1,1.553535819E0
2.074750521E0,1.621143222E0,5.668137074E-1,1.610957146E0
2.077097500E0,1.550282955E0,4.226496518E-1,1.661048055E0
2.079443698E0,1.491639972E0,2.760421038E-1,1.708695412E0
2.081790729E0,1.435440421E0,1.318780631E-1,1.750234246E0
2.084138490E0,1.381684303E0,-2.450331114E-2,1.792994738E0
2.086485521E0,1.327928185E0,-1.821064055E-1,1.838198781E0
2.088831719E0,1.281502485E0,-3.519268036E-1,1.880959272E0
2.091178750E0,1.238741994E0,-5.119733810E-1,1.920054674E0
2.093526511E0,1.210642219E0,-6.378114820E-1,1.948154449E0
2.095873542E0,1.193537951E0,-7.245543003E-1,1.955484748E0
2.098219688E0,1.204533577E0,-7.868624926E-1,1.945711017E0
2.100566771E0,1.209420443E0,-7.880842090E-1,1.913946033E0
2.102914531E0,1.241185427E0,-7.941928506E-1,1.873628974E0
2.105261511E0,1.265619993E0,-7.990797758E-1,1.832090139E0
2.107607708E0,1.299828410E0,-8.332881927E-1,1.795438290E0
2.109954740E0,1.335258603E0,-8.858225942E-1,1.760008097E0
2.112302552E0,1.363358378E0,-9.481307864E-1,1.723356247E0
2.114649531E0,1.391458154E0,-1.015325904E0,1.684260845E0
2.116995729E0,1.425666571E0,-1.097181797E0,1.647608995E0
2.119342761E0,1.458653212E0,-1.172929049E0,1.606070161E0
2.121690521E0,1.492861629E0,-1.248676181E0,1.565753102E0
2.124037552E0,1.528291821E0,-1.328088641E0,1.519327402E0
2.126383698E0,1.564943671E0,-1.397727251E0,1.465571284E0
2.128730781E0,1.611369371E0,-1.474696159E0,1.410593510E0
2.131078542E0,1.650464773E0,-1.534560919E0,1.355615616E0
2.133425521E0,1.676121116E0,-1.568769336E0,1.304303050E0
2.135771719E0,1.700555682E0,-1.589538693E0,1.257877231E0
2.138118802E0,1.711551189E0,-1.595647335E0,1.211451530E0
2.140466511E0,1.712772965E0,-1.584651828E0,1.166247606E0
2.142813542E0,1.717659831E0,-1.591982245E0,1.128373981E0
2.145159740E0,1.695668817E0,-1.579764962E0,1.089278579E0
2.147506771E0,1.678564548E0,-1.588317037E0,1.063622355E0
2.149854531E0,1.644356132E0,-1.591982245E0,1.036744237E0
2.152201563E0,1.617478132E0,-1.622525454E0,1.015974879E0
2.154547708E0,1.579604506E0,-1.661620736E0,9.915403128E-1
2.156894792E0,1.556391597E0,-1.736146331E0,9.695491791E-1
2.159242552E0,1.545396090E0,-1.824110746E0,9.426711798E-1
2.161589531E0,1.545396090E0,-1.915740490E0,9.145713449E-1
2.163935729E0,1.556391597E0,-2.030583143E0,8.913584948E-1
2.166282813E0,1.582047939E0,-2.205290318E0,8.754760623E-1
2.168630573E0,1.617478132E0,-2.389771461E0,8.620370030E-1
2.170977552E0,1.640690923E0,-2.542487621E0,8.485980034E-1
2.173323750E0,1.659016848E0,-2.648778200E0,8.351589441E-1
2.175670781E0,1.676121116E0,-2.722081900E0,8.192764521E-1
2.178018542E0,1.671234131E0,-2.745294809E0,7.960636020E-1
2.180365573E0,1.671234131E0,-2.750181675E0,7.728507519E-1
2.182711771E0,1.657795191E0,-2.718416691E0,7.410857677E-1
2.185058802E0,1.641912699E0,-2.676877975E0,7.093208432E-1
2.187406563E0,1.610147715E0,-2.618234873E0,6.714472175E-1
2.189753542E0,1.560056806E0,-2.525383472E0,6.262432337E-1
2.192099740E0,1.495305181E0,-2.422758102E0,5.651567578E-1
2.194446823E0,1.422001362E0,-2.328685045E0,4.967399538E-1
2.196794583E0,1.343810678E0,-2.239498854E0,4.283230901E-1
2.199141563E0,1.271728635E0,-2.166195154E0,3.672366142E-1
2.201487761E0,1.200868368E0,-2.098999977E0,3.098153174E-1
2.203834792E0,1.141003609E0,-2.037913561E0,2.560592294E-1
2.206182552E0,1.086025715E0,-1.982935667E0,2.071900368E-1
2.208529583E0,1.038378358E0,-1.938953400E0,1.607643217E-1
2.210875781E0,9.882875085E-1,-1.894971132E0,1.155603379E-1
2.213222813E0,9.357531667E-1,-1.855875731E0,7.646499574E-2
2.215570573E0,8.856622577E-1,-1.836328030E0,4.347829521E-2
2.217917604E0,8.319061399E-1,-1.818002105E0,1.293506008E-2
2.220263750E0,7.757065892E-1,-1.798454523E0,-1.760817505E-2
2.222610833E0,7.182853222E-1,-1.777685046E0,-4.937314242E-2
2.224958594E0,6.474249959E-1,-1.743476629E0,-8.235983551E-2
2.227305573E0,5.826733708E-1,-1.714155197E0,-1.165682599E-1
2.229651771E0,5.093695521E-1,-1.681168437E0,-1.544418782E-1
2.231998802E0,4.348440468E-1,-1.661620736E0,-1.910937577E-1
2.234346615E0,3.542098999E-1,-1.634742737E0,-2.277456373E-1
2.236693594E0,2.699105740E-1,-1.613973379E0,-2.607323229E-1
2.239039792E0,1.782808751E-1,-1.593203902E0,-2.900538146E-1
2.241386823E0,8.298597485E-2,-1.567547560E0,-3.181535900E-1
2.243734583E0,-1.963930018E-2,-1.540669560E0,-3.401447237E-1
2.246081615E0,-1.271514893E-1,-1.516234994E0,-3.609141409E-1
2.248427761E0,-2.432157844E-1,-1.474696159E0,-3.804618120E-1
2.250774844E0,-3.568366468E-1,-1.435600877E0,-4.036746621E-1
2.253122604E0,-4.729009271E-1,-1.384288192E0,-4.305527210E-1
2.255469583E0,-5.840782523E-1,-1.334197283E0,-4.647611380E-1
2.257815781E0,-6.891469955E-1,-1.292658448E0,-4.989695549E-1
2.260162865E0,-8.076547384E-1,-1.243789315E0,-5.405083895E-1
2.262510625E0,-9.298276901E-1,-1.181481123E0,-5.808254480E-1
2.264857604E0,-1.047113895E0,-1.124059796E0,-6.113687158E-1
2.267203802E0,-1.179060578E0,-1.054421186E0,-6.406902075E-1
2.269550833E0,-1.314672589E0,-9.896695614E-1,-6.639030576E-1
2.271898594E0,-1.445397615E0,-9.261396527E-1,-6.736769080E-1
2.274245625E0,-1.576122642E0,-8.748270273E-1,-6.761203408E-1
2.276591823E0,-1.695852160E0,-8.247361183E-1,-6.675682664E-1
2.278938854E0,-1.798477411E0,-7.758669257E-1,-6.467988491E-1
2.281286615E0,-1.887663722E0,-7.257760167E-1,-6.186990738E-1
2.283633594E0,-1.959745765E0,-6.646895409E-1,-5.820471644E-1
2.285979792E0,-2.001284361E0,-5.987161398E-1,-5.380649567E-1
2.288326875E0,-2.013501644E0,-5.095298886E-1,-4.891957343E-1
2.290674636E0,-1.985401988E0,-4.081263542E-1,-4.305527210E-1
2.293021615E0,-1.920650363E0,-2.871751487E-1,-3.694662452E-1
2.295367813E0,-1.809473038E0,-1.540066302E-1,-3.034928441E-1
2.297714844E0,-1.643317819E0,-2.816849761E-2,-2.326325625E-1
2.300062604E0,-1.442954183E0,1.062217355E-1,-1.691026241E-1
2.302409636E0,-1.213268995E0,2.039600909E-1,-1.043509692E-1
2.304755833E0,-9.933576584E-1,2.528292835E-1,-4.448622465E-2
2.307102865E0,-8.198720217E-1,2.283946723E-1,1.171333063E-2
2.309450625E0,-7.221336961E-1,1.111086607E-1,7.279980183E-2
2.311797656E0,-6.891469955E-1,-1.124678254E-1,1.363297403E-1
2.314143802E0,-6.952556372E-1,-4.117915630E-1,2.059683055E-1
2.316490886E0,-7.184684873E-1,-7.001197338E-1,2.768286467E-1
2.318838646E0,-7.074729204E-1,-9.469090700E-1,3.452454805E-1
2.321185625E0,-6.329474449E-1,-1.142385721E0,4.014450312E-1
2.323531823E0,-4.997789860E-1,-1.245011091E0,4.332100153E-1
2.325878854E0,-2.957501709E-1,-1.267002225E0,4.490924776E-1
2.328226615E0,-4.407389462E-2,-1.223019958E0,4.552011192E-1
2.330573646E0,2.393673509E-1,-1.128946781E0,4.613097906E-1
2.332919844E0,5.301389694E-1,-1.027543187E0,4.759705365E-1
2.335266875E0,7.989194393E-1,-9.505742192E-1,4.979616702E-1
2.337614636E0,1.028604507E0,-8.784921765E-1,5.260614157E-1
2.339961667E0,1.222859502E0,-8.247361183E-1,5.639350414E-1
2.342307813E0,1.398788452E0,-7.917494178E-1,6.115824580E-1
2.344654896E0,1.549061179E0,-7.489888668E-1,6.616733670E-1
2.347002656E0,1.683451414E0,-7.037848830E-1,7.154294848E-1
2.349349636E0,1.793407083E0,-6.133769155E-1,7.630769014E-1
2.351695833E0,1.896032333E0,-5.144168139E-1,8.082808852E-1
2.354042865E0,1.976666570E0,-3.934656084E-1,8.461545110E-1
2.356390625E0,2.036531448E0,-2.676274776E-1,8.754760623E-1
2.358737656E0,2.064631224E0,-1.369024217E-1,8.938019872E-1
2.361083854E0,2.069518089E0,-2.205985226E-2,9.060192704E-1
2.363430886E0,2.043861866E0,6.468293816E-2,9.096844792E-1
2.365778646E0,1.983996868E0,1.233259588E-1,9.035758376E-1
2.368125677E0,1.898475885E0,1.355432421E-1,8.901367784E-1
2.370471823E0,1.789741874E0,1.098869294E-1,8.705891371E-1
2.372818906E0,1.657795191E0,4.635699838E-2,8.498197198E-1
2.375166667E0,1.524626613E0,-7.337249070E-2,8.278285861E-1
2.377513646E0,1.378019094E0,-2.077627331E-1,7.972853780E-1
2.379859844E0,1.236298442E0,-3.604789078E-1,7.630769014E-1
2.382206875E0,1.104351759E0,-5.364079475E-1,7.276467681E-1
2.384554688E0,9.626312256E-1,-7.098935246E-1,6.873297095E-1
2.386901667E0,7.964760065E-1,-8.528358936E-1,6.543430090E-1
2.389247865E0,6.009992957E-1,-9.627915621E-1,6.396822333E-1
2.391594896E0,3.725358248E-1,-1.004330277E0,6.396822333E-1
2.393942656E0,1.294116974E-1,-9.676784277E-1,6.433474422E-1
2.396289688E0,-1.234863102E-1,-8.503924012E-1,6.421257257E-1
2.398635833E0,-3.666104674E-1,-6.854589581E-1,6.347953081E-1
2.400982917E0,-5.889651775E-1,-4.960908890E-1,6.201345921E-1
2.403330677E0,-7.832201719E-1,-3.103880286E-1,6.054738164E-1
2.405677656E0,-9.493753910E-1,-1.369024217E-1,5.944782495E-1
2.408023854E0,-1.082543969E0,2.680932544E-2,5.956999660E-1
2.410370886E0,-1.179060578E0,1.892993450E-1,6.091390252E-1
2.412718698E0,-1.243812323E0,3.676718175E-1,6.286866665E-1
2.415065677E0,-1.275577188E0,5.680354834E-1,6.433474422E-1
2.417411875E0,-1.285351038E0,7.928336859E-1,6.531212926E-1
2.419758906E0,-1.287794590E0,1.018853664E0,6.470126510E-1
2.422106667E0,-1.281685948E0,1.215552092E0,6.286866665E-1
2.424453698E0,-1.292681456E0,1.381707311E0,6.005868912E-1
2.426799844E0,-1.307342172E0,1.485554218E0,5.663784742E-1
2.429146927E0,-1.334220290E0,1.536866903E0,5.236179233E-1
2.431494688E0,-1.369650364E0,1.522206187E0,4.686401486E-1
2.433841667E0,-1.425849915E0,1.451345801E0,4.075536728E-1
2.436187865E0,-1.508927584E0,1.320620775E0,3.428020179E-1
2.438534948E0,-1.622548461E0,1.142248273E0,2.707199752E-1
2.440882708E0,-1.744721293E0,9.137848616E-1,1.986379325E-1
2.443229688E0,-1.882776737E0,6.718824506E-1,1.326645464E-1
2.445575886E0,-1.992732406E0,4.421973228E-1,8.501709998E-2
2.447922917E0,-2.039158106E0,2.735986710E-1,4.714348167E-2
2.450270677E0,-1.986623883E0,2.051818222E-1,8.048142307E-3
2.452617708E0,-1.798477411E0,2.955898046E-1,-3.715584427E-2
2.454963854E0,-1.420963049E0,6.034656167E-1,-8.724675328E-2
2.457310938E0,-8.076547384E-1,1.138583064E0,-1.410028487E-1
2.459658698E0,1.701258309E-2,1.839855790E0,-2.130848914E-1
2.462005677E0,1.001726508E0,2.445833683E0,-2.924972773E-1
2.464351875E0,1.991327405E0,2.816017628E0,-3.719097078E-1
2.466698958E0,2.834320784E0,2.855113029E0,-4.366613626E-1
2.469046719E0,3.412198782E0,2.577780485E0,-4.879739881E-1
2.471393698E0,3.693196535E0,2.060988903E0,-5.282911062E-1
2.473739896E0,3.717631102E0,1.409807086E0,-5.796037316E-1
2.476086927E0,3.539258718E0,7.256385684E-1,-6.553509831E-1
2.478434688E0,3.202061176E0,1.086651981E-1,-7.677500844E-1
2.480781719E0,2.763460398E0,-3.775831461E-1,-9.070272446E-1
2.483127917E0,2.266216516E0,-7.001197338E-1,-1.043861032E0
2.485474948E0,1.734764099E0,-8.198491931E-1,-1.170920849E0
2.487822708E0,1.230189800E0,-7.868624926E-1,-1.275989532E0
2.490169688E0,7.695979476E-1,-6.304811239E-1,-1.368841052E0
2.492515886E0,3.603185415E-1,-4.093481004E-1,-1.460470676E0
2.494862969E0,1.823431253E-2,-1.894367784E-1,-1.545991778E0
2.497210729E0,-2.859763503E-1,3.596466035E-3,-1.632734537E0
2.499557708E0,-5.620871186E-1,1.465388089E-1,-1.702373147E0
2.501903906E0,-8.210937977E-1,2.943680584E-1,-1.751242280E0
2.504250938E0,-1.087430954E0,4.898447990E-1,-1.787894249E0
2.506598698E0,-1.368428707E0,7.317472100E-1,-1.804998398E0
2.508945729E0,-1.676304460E0,1.017631888E0,-1.806220174E0
2.511291927E0,-2.023275614E0,1.332838058E0,-1.785450697E0
2.513638958E0,-2.415450811E0,1.648044229E0,-1.739024997E0
2.515986719E0,-2.833282232E0,1.944924593E0,-1.662056088E0
2.518333698E0,-3.247448444E0,2.172166109E0,-1.558209062E0
2.520679896E0,-3.648175716E0,2.324882507E0,-1.442144752E0
2.523026979E0,-3.990259886E0,2.387190580E0,-1.329745650E0
2.525374740E0,-4.255374908E0,2.365199566E0,-1.236894250E0
2.527721719E0,-4.436191082E0,2.272347927E0,-1.172142625E0
2.530067917E0,-4.552255154E0,2.170944452E0,-1.141599298E0
2.532414948E0,-4.610898495E0,2.076871395E0,-1.131825447E0
2.534762708E0,-4.623115540E0,2.010897875E0,-1.136712432E0
2.537109740E0,-4.607233047E0,1.997458935E0,-1.156260133E0
2.539455938E0,-4.569359303E0,2.030445576E0,-1.188024998E0
2.541802969E0,-4.511938095E0,2.097640753E0,-1.230785608E0
2.544150729E0,-4.428860664E0,2.162392378E0,-1.277211308E0
2.546497708E0,-4.353113174E0,2.269904613E0,-1.330967426E0
2.548843906E0,-4.260262012E0,2.370086432E0,-1.379836559E0
2.551190990E0,-4.166188717E0,2.476376772E0,-1.426262259E0
2.553538750E0,-4.069672108E0,2.577780485E0,-1.469022870E0
2.555885729E0,-3.964603662E0,2.663301468E0,-1.504452944E0
2.558231927E0,-3.843652487E0,2.732939959E0,-1.526444077E0
2.560578958E0,-3.699488401E0,2.796469927E0,-1.537439704E0
2.562926719E0,-3.524780989E0,2.834343672E0,-1.533774495E0
2.565273750E0,-3.324417353E0,2.875882387E0,-1.524000645E0
2.567619948E0,-3.076406240E0,2.874660730E0,-1.498344302E0
2.569966979E0,-2.795408487E0,2.834343672E0,-1.462914228E0
2.572314740E0,-2.492419720E0,2.747600794E0,-1.418931961E0
2.574661719E0,-2.186987400E0,2.629092932E0,-1.370062709E0
2.577007917E0,-1.871781230E0,2.445833683E0,-1.317528367E0
2.579355000E0,-1.567570567E0,2.212483168E0,-1.260107040E0
2.581702761E0,-1.296346664E0,1.953476667E0,-1.214903116E0
2.584049740E0,-1.044670343E0,1.648044229E0,-1.170920849E0
2.586395938E0,-8.357545137E-1,1.324285984E0,-1.133047223E0
2.588742969E0,-6.769297123E-1,9.699844122E-1,-1.107390881E0
2.591090729E0,-5.694174767E-1,5.545964241E-1,-1.084178090E0
2.593437761E0,-5.242134929E-1,1.221042275E-1,-1.069517255E0
2.595783958E0,-5.168831348E-1,-3.629223704E-1,-1.059743404E0
2.598130990E0,-5.498698354E-1,-8.931529522E-1,-1.052413106E0
2.600478750E0,-6.463864446E-1,-1.397727251E0,-1.054856539E0
2.602825729E0,-7.746680379E-1,-1.875423431E0,-1.053634763E0
2.605171927E0,-9.286059737E-1,-2.305472136E0,-1.047526121E0
2.607519011E0,-1.093539596E0,-2.664660692E0,-1.034087181E0
2.609866771E0,-1.256029606E0,-2.946880102E0,-1.008430839E0
2.612213750E0,-1.425849915E0,-3.155795813E0,-9.730005860E-1
2.614559948E0,-1.585896492E0,-3.296294689E0,-9.241314530E-1
2.616906979E0,-1.736169219E0,-3.363489866E0,-8.703753352E-1
2.619254740E0,-1.883998513E0,-3.362268209E0,-8.141757846E-1
2.621601771E0,-2.025718927E0,-3.293851376E0,-7.604196668E-1
2.623947917E0,-2.160109282E0,-3.165569782E0,-7.054418921E-1
2.626295000E0,-2.299386501E0,-2.988419056E0,-6.553509831E-1
2.628642761E0,-2.428889751E0,-2.784390211E0,-6.052600741E-1
2.630989792E0,-2.544954062E0,-2.557148457E0,-5.612778068E-1
2.633335938E0,-2.661018372E0,-2.299363613E0,-5.209607482E-1
2.635683021E0,-2.761200190E0,-2.034248352E0,-4.818653464E-1
2.638030781E0,-2.852829933E0,-1.745920062E0,-4.525438547E-1
2.640377761E0,-2.927355289E0,-1.450261593E0,-4.293309748E-1
2.642723958E0,-2.971337557E0,-1.169263840E0,-4.036746621E-1
2.645070990E0,-3.003102541E0,-8.772704601E-1,-3.792400658E-1
2.647418750E0,-3.025093794E0,-5.901640654E-1,-3.572489321E-1
2.649765781E0,-3.033645868E0,-3.091662824E-1,-3.340360820E-1
2.652111979E0,-3.031202316E0,-3.794233501E-2,-3.083797693E-1
2.654459011E0,-3.028758764E0,2.198425829E-1,-2.827234566E-1
2.656806771E0,-3.006767750E0,4.593015313E-1,-2.595105767E-1
2.659153750E0,-2.977446318E0,6.645520926E-1,-2.411846668E-1
2.661499948E0,-2.948124647E0,8.429245949E-1,-2.350760102E-1
2.663847031E0,-2.902920723E0,9.895321131E-1,-2.399629354E-1
2.666194792E0,-2.855273247E0,1.098266006E0,-2.595105767E-1
2.668541771E0,-2.810069323E0,1.141026616E0,-2.790582478E-1
2.670887969E0,-2.764865398E0,1.133696198E0,-2.973842025E-1
2.673235000E0,-2.719661236E0,1.051840305E0,-3.120449483E-1
2.675582761E0,-2.686674595E0,9.308891296E-1,-3.279274404E-1
2.677929792E0,-2.639027119E0,7.500731349E-1,-3.438099325E-1
2.680275990E0,-2.582827568E0,5.362704992E-1,-3.645793200E-1
2.682623021E0,-2.533958435E0,3.224678338E-1,-3.939008415E-1
2.684970781E0,-2.470428467E0,1.147738546E-1,-4.293309748E-1
2.687317761E0,-2.415450811E0,-6.848557293E-2,-4.696480632E-1
2.689663958E0,-2.356807709E0,-2.370842248E-1,-5.026347637E-1
2.692011042E0,-2.295721292E0,-3.775831461E-1,-5.282911062E-1
2.694358802E0,-2.229747772E0,-4.960908890E-1,-5.490605235E-1
2.696705781E0,-2.157665730E0,-6.097117066E-1,-5.637212396E-1
2.699051979E0,-2.089248896E0,-6.854589581E-1,-5.820471644E-1
2.701399011E0,-2.017166853E0,-7.673148513E-1,-5.954862237E-1
2.703746771E0,-1.962189198E0,-8.528358936E-1,-6.064817905E-1
2.706093802E0,-1.920650363E0,-9.432438612E-1,-6.174773574E-1
2.708440000E0,-1.896215796E0,-1.020212770E0,-6.235859990E-1
2.710787031E0,-1.897437572E0,-1.076412320E0,-6.235859990E-1
2.713134792E0,-1.930424213E0,-1.084964514E0,-6.199207902E-1
2.715481771E0,-1.971963048E0,-1.077634096E0,-6.052600741E-1
2.717827969E0,-2.022053719E0,-1.067860246E0,-5.783820152E-1
2.720175052E0,-2.085583687E0,-1.049534321E0,-5.441735983E-1
2.722522813E0,-2.156444073E0,-1.029986620E0,-5.099651814E-1
2.724869792E0,-2.226082563E0,-1.020212770E0,-4.769784212E-1
2.727215990E0,-2.293277740E0,-1.010438919E0,-4.476569295E-1
2.729563021E0,-2.349477291E0,-9.945564270E-1,-4.220006168E-1
2.731910781E0,-2.386129141E0,-9.860044122E-1,-4.036746621E-1
2.734257813E0,-2.414228916E0,-9.664567113E-1,-4.012311995E-1
2.736604011E0,-2.416672468E0,-9.652349949E-1,-4.036746621E-1
2.738951042E0,-2.408120394E0,-9.737871289E-1,-4.146702290E-1
2.741298802E0,-2.392237902E0,-9.884478450E-1,-4.329961836E-1
2.743645781E0,-2.370246649E0,-1.003108621E0,-4.586524963E-1
2.745991979E0,-2.333594799E0,-1.038538814E0,-4.843088090E-1
2.748339063E0,-2.288390875E0,-1.092294812E0,-5.124086142E-1
2.750686823E0,-2.250517130E0,-1.124059796E0,-5.466170311E-1
2.753033802E0,-2.218752146E0,-1.150937915E0,-5.832689404E-1
2.755380000E0,-2.167439699E0,-1.198585272E0,-6.113687158E-1
2.757727031E0,-2.117348671E0,-1.231572032E0,-6.394684911E-1
2.760074792E0,-2.066035986E0,-1.248676181E0,-6.626813412E-1
2.762421823E0,-2.002506256E0,-1.254784822E0,-6.810072660E-1
2.764767969E0,-1.929202437E0,-1.242567539E0,-6.932245493E-1
2.767115052E0,-1.838794470E0,-1.213246107E0,-7.017766833E-1
2.769462813E0,-1.744721293E0,-1.148494363E0,-7.066636086E-1
2.771809792E0,-1.650648236E0,-1.066638589E0,-6.993331909E-1
2.774155990E0,-1.559018493E0,-9.517959952E-1,-6.907811165E-1
2.776503073E0,-1.469832182E0,-8.186274767E-1,-6.736769080E-1
2.778850833E0,-1.406302333E0,-6.720199585E-1,-6.577944160E-1
2.781197813E0,-1.363541722E0,-5.217471719E-1,-6.443554163E-1
2.783544011E0,-1.337885499E0,-3.751396835E-1,-6.321380734E-1
2.785891042E0,-1.319559455E0,-2.346407771E-1,-6.223642826E-1
2.788238802E0,-1.317116022E0,-8.070287108E-2,-6.150338650E-1
2.790585833E0,-1.306120515E0,6.712640077E-2,-6.077035069E-1
2.792932031E0,-1.291459680E0,2.100687474E-1,-6.040382981E-1
2.795279063E0,-1.268246889E0,3.383503258E-1,-6.003731489E-1
2.797626823E0,-1.236481905E0,4.556363523E-1,-5.991514325E-1
2.799973802E0,-1.187612772E0,5.399357080E-1,-5.942645073E-1
2.802320000E0,-1.139965296E0,6.022439003E-1,-5.905992985E-1
2.804667083E0,-1.088652611E0,6.291218996E-1,-5.796037316E-1
2.807014792E0,-1.041005135E0,6.279001832E-1,-5.673864484E-1
2.809361823E0,-1.012905359E0,6.046873331E-1,-5.563908815E-1
2.811708021E0,-9.909141064E-1,5.484877825E-1,-5.453953147E-1
2.814055052E0,-9.786968231E-1,4.556363523E-1,-5.356214643E-1
2.816402813E0,-9.811403751E-1,3.407937884E-1,-5.282911062E-1
2.818749844E0,-9.958010912E-1,2.161773890E-1,-5.185172558E-1
2.821095990E0,-1.027566195E0,9.033925831E-2,-5.148520470E-1
2.823443073E0,-1.059331179E0,-5.015963316E-2,-5.087434053E-1
2.825790833E0,-1.088652611E0,-1.894367784E-1,-5.026347637E-1
2.828137813E0,-1.110643744E0,-3.103880286E-1,-4.977478385E-1
2.830484011E0,-1.115530729E0,-4.166784883E-1,-4.904174507E-1
2.832831042E0,-1.100869894E0,-4.887605011E-1,-4.806436300E-1
2.835178854E0,-1.064218044E0,-5.180820227E-1,-4.733132422E-1
2.837525833E0,-9.896924496E-1,-5.229689479E-1,-4.610959589E-1
2.839872031E0,-8.943975568E-1,-4.716562927E-1,-4.525438547E-1
2.842219063E0,-7.771115303E-1,-4.007959962E-1,-4.452134669E-1
2.844566823E0,-6.476081610E-1,-3.103880286E-1,-4.391048253E-1
2.846913854E0,-5.107745528E-1,-2.224234790E-1,-4.305527210E-1
2.849260000E0,-3.849364221E-1,-1.393458843E-1,-4.220006168E-1
2.851607083E0,-2.749807835E-1,-8.314632624E-2,-4.073398411E-1
2.853954844E0,-1.882379502E-1,-4.893790185E-2,-3.939008415E-1
2.856301823E0,-1.271514893E-1,-3.672060370E-2,-3.792400658E-1
2.858648021E0,-8.927787840E-2,-5.138135701E-2,-3.609141409E-1
2.860995052E0,-7.339540124E-2,-8.070287108E-2,-3.438099325E-1
2.863342813E0,-6.239983439E-2,-1.381241530E-1,-3.218187988E-1
2.865689844E0,-6.728675216E-2,-1.931019723E-1,-3.059363067E-1
2.868036042E0,-7.339540124E-2,-2.505232692E-1,-2.888320982E-1
2.870383073E0,-9.049960971E-2,-2.981707156E-1,-2.766148150E-1
2.872730833E0,-1.002734452E-1,-3.458181620E-1,-2.619540393E-1
2.875077813E0,-1.173776537E-1,-3.775831461E-1,-2.558453977E-1
2.877424011E0,-1.381470412E-1,-3.898004293E-1,-2.546236813E-1
2.879771094E0,-1.589164585E-1,-3.983525336E-1,-2.546236813E-1
2.882118854E0,-1.809075922E-1,-3.836917877E-1,-2.595105767E-1
2.884465833E0,-1.955683380E-1,-3.739179373E-1,-2.607323229E-1
2.886812031E0,-2.102290839E-1,-3.445964456E-1,-2.631757855E-1
2.889159063E0,-2.138942927E-1,-3.079445660E-1,-2.656192482E-1
2.891506823E0,-2.114508301E-1,-2.590753734E-1,-2.668409646E-1
2.893853854E0,-2.004552633E-1,-1.979888827E-1,-2.680626810E-1
2.896200052E0,-1.760206670E-1,-1.381241530E-1,-2.717278898E-1
2.898547083E0,-1.405905038E-1,-8.192460239E-2,-2.753930688E-1
2.900894844E0,-1.051603705E-1,-1.106428728E-2,-2.851669192E-1
2.903241823E0,-6.362156570E-2,4.391354322E-2,-2.912755609E-1
2.905588021E0,-1.719584130E-2,8.667406440E-2,-2.986059189E-1
2.907935104E0,3.778198361E-2,1.147738546E-1,-3.059363067E-1
2.910282865E0,8.420769870E-2,1.330997944E-1,-3.120449483E-1
2.912629844E0,1.318551451E-1,1.379867047E-1,-3.181535900E-1
2.914976042E0,1.782808751E-1,1.379867047E-1,-3.230405152E-1
2.917323073E0,2.271500379E-1,1.221042275E-1,-3.254839778E-1
2.919670833E0,2.699105740E-1,1.098869294E-1,-3.267057240E-1
2.922017865E0,3.175580204E-1,1.050000042E-1,-3.291491568E-1
2.924364011E0,3.725358248E-1,9.766963124E-2,-3.279274404E-1
2.926711094E0,4.324005842E-1,9.522616863E-2,-3.254839778E-1
2.929058854E0,5.057044029E-1,9.644789994E-2,-3.181535900E-1
2.931405833E0,5.875602961E-1,9.400443733E-2,-3.059363067E-1
2.933752031E0,6.779682636E-1,9.033925831E-2,-2.900538146E-1
2.936099115E0,7.781500816E-1,7.934369147E-2,-2.717278898E-1
2.938446875E0,8.807753325E-1,7.445676625E-2,-2.509585023E-1
2.940793854E0,9.809571505E-1,5.246564746E-2,-2.265239060E-1
2.943140052E0,1.082360625E0,2.192240767E-2,-2.008675933E-1
2.945487083E0,1.178877234E0,-1.961639337E-2,-1.715460867E-1
2.947834844E0,1.271728635E0,-7.948113978E-2,-1.410028487E-1
2.950181875E0,1.354806304E0,-1.637804657E-1,-1.043509692E-1
2.952528021E0,1.426888227E0,-2.602970898E-1,-6.159043312E-2
2.954875104E0,1.492861629E0,-3.763613999E-1,-1.394298859E-2
2.957222865E0,1.553948164E0,-5.058647394E-1,3.859137744E-2
2.959569844E0,1.610147715E0,-6.451418996E-1,9.112574160E-2
2.961916042E0,1.662682056E0,-7.844190598E-1,1.412166506E-1
2.964263073E0,1.717659831E0,-9.261396527E-1,1.913075596E-1
2.966610833E0,1.770194292E0,-1.053199530E0,2.328463644E-1
2.968957865E0,1.825172067E0,-1.166820407E0,2.682765424E-1
2.971304063E0,1.881371617E0,-1.274332523E0,3.024849594E-1
2.973651094E0,1.938792944E0,-1.353744984E0,3.440237641E-1
2.975998854E0,2.001101255E0,-1.398948908E0,3.892277479E-1
2.978345886E0,2.064631224E0,-1.394062042E0,4.368751943E-1
2.980692031E0,2.140378475E0,-1.343971133E0,4.820791781E-1
2.983039115E0,2.232008219E0,-1.256006598E0,5.175092816E-1
2.985386875E0,2.323637724E0,-1.128946781E0,5.431656241E-1
2.987733854E0,2.420154333E0,-9.689002037E-1,5.553829074E-1
2.990080052E0,2.519114494E0,-7.880842090E-1,5.639350414E-1
2.992427083E0,2.618074656E0,-6.048247814E-1,5.639350414E-1
2.994774844E0,2.710926056E0,-4.142350256E-1,5.590481162E-1
2.997121875E0,2.807442665E0,-2.334190458E-1,5.529394746E-1
2.999468021E0,2.885633469E0,-4.771617055E-2,5.419439077E-1
3.001815104E0,2.958937168E0,1.282128692E-1,5.297266245E-1
3.004162865E0,3.026132345E0,2.992549837E-1,5.162875652E-1
3.006509844E0,3.077444792E0,4.483059645E-1,5.077354908E-1
3.008856042E0,3.125092268E0,5.680354834E-1,5.101789236E-1
3.011203125E0,3.166631222E0,6.633303761E-1,5.272831321E-1
3.013550886E0,3.198396206E0,7.231950760E-1,5.590481162E-1
3.015897865E0,3.227717638E0,7.500731349E-1,6.005868912E-1
3.018244063E0,3.241156578E0,7.671773434E-1,6.433474422E-1
3.020591094E0,3.250930548E0,7.549600601E-1,6.897731423E-1
3.022938854E0,3.250930548E0,7.366341352E-1,7.361989021E-1
3.025285886E0,3.243600130E0,7.121995091E-1,7.826246023E-1
3.027632031E0,3.236269712E0,6.731041670E-1,8.290503025E-1
3.029979115E0,3.225274086E0,6.266784668E-1,8.730325699E-1
3.032326875E0,3.209391594E0,5.814744830E-1,9.145713449E-1
3.034673854E0,3.198396206E0,5.362704992E-1,9.609971046E-1
3.037020052E0,3.176404953E0,5.118358731E-1,1.008644462E0
3.039367083E0,3.159300804E0,5.155010819E-1,1.061178803E0
3.041714844E0,3.150748730E0,5.558181405E-1,1.121043563E0
3.044061875E0,3.143418312E0,6.462261677E-1,1.179686546E0
3.046408073E0,3.134866238E0,7.952771187E-1,1.235886216E0
3.048755104E0,3.122648954E0,9.895321131E-1,1.281090140E0
3.051102865E0,3.106766462E0,1.220438957E0,1.318963766E0
3.053449896E0,3.090883970E0,1.496549845E0,1.345841765E0
3.055796042E0,3.059118986E0,1.792208314E0,1.354393959E0
3.058143125E0,3.011471510E0,2.040219545E0,1.350728750E0
3.060490886E0,2.955271959E0,2.243026495E0,1.336067915E0
3.062837865E0,2.888076782E0,2.429951191E0,1.305524707E0
3.065184063E0,2.820881605E0,2.609545469E0,1.261542439E0
3.067531094E0,2.754908323E0,2.774478912E0,1.209008098E0
3.069878854E0,2.690156698E0,2.930860281E0,1.151586771E0
3.072225886E0,2.641287565E0,3.060363531E0,1.094165564E0
3.074572083E0,2.594861746E0,3.203305960E0,1.033079028E0
3.076919115E0,2.561875105E0,3.345026493E0,9.756578207E-1
3.079266875E0,2.542327404E0,3.465977669E0,9.243451953E-1
3.081613854E0,2.536218643E0,3.564937830E0,8.803629279E-1
3.083960052E0,2.531331778E0,3.635797977E0,8.388241529E-1
3.086307136E0,2.533775330E0,3.674893379E0,7.960636020E-1
3.088654896E0,2.545992613E0,3.689554214E0,7.508596182E-1
3.091001875E0,2.566761971E0,3.681002140E0,7.129859924E-1
3.093348073E0,2.588752985E0,3.662676096E0,6.812210679E-1
3.095695104E0,2.616852999E0,3.624802589E0,6.580082178E-1
3.098042865E0,2.640065670E0,3.583263636E0,6.409040093E-1
3.100389896E0,2.665722132E0,3.513625145E0,6.299084425E-1
3.102736042E0,2.685269833E0,3.430547476E0,6.335735917E-1
3.105083125E0,2.691378355E0,3.331587553E0,6.396822333E-1
3.107430886E0,2.682826281E0,3.228962183E0,6.494560838E-1
3.109777865E0,2.671830654E0,3.104345798E0,6.665602922E-1
3.112124063E0,2.666943789E0,2.962625265E0,6.897731423E-1
3.114471094E0,2.640065670E0,2.833121777E0,7.105425596E-1
3.116818854E0,2.627848387E0,2.682849169E0,7.361989021E-1
3.119165886E0,2.604635477E0,2.550902367E0,7.557465434E-1
3.121512083E0,2.580200911E0,2.421399117E0,7.691855431E-1
3.123859115E0,2.552101135E0,2.309000015E0,7.826246023E-1
3.126206875E0,2.515449286E0,2.205152988E0,7.985070944E-1
3.128553906E0,2.481240988E0,2.080536604E0,8.266068697E-1
3.130900052E0,2.447032452E0,1.958363533E0,8.620370030E-1
3.133247136E0,2.415267467E0,1.823973298E0,9.060192704E-1
3.135594896E0,2.399384975E0,1.656596422E0,9.597753882E-1
3.137941875E0,2.381059170E0,1.462341428E0,1.019640088E0
3.140288073E0,2.348072290E0,1.265643001E0,1.078283072E0
3.142635104E0,2.315085649E0,1.059170723E0,1.144256473E0
3.144982865E0,2.273546934E0,8.233768940E-1,1.224890590E0
3.147329896E0,2.200243235E0,6.034656167E-1,1.315298557E0
3.149676042E0,2.130604506E0,3.933281302E-1,1.417923808E0
3.152023125E0,2.047527075E0,2.271729559E-1,1.527879477E0
3.154370886E0,1.969336152E0,8.789579570E-2,1.632948279E0
3.156717865E0,1.897254109E0,-1.350774616E-2,1.724577904E0
3.159064063E0,1.830059052E0,-8.314632624E-2,1.795438290E0
3.161411146E0,1.771415949E0,-1.430110633E-1,1.849194288E0
3.163758906E0,1.712772965E0,-2.004323453E-1,1.885846257E0
3.166105886E0,1.656573415E0,-2.578536272E-1,1.909059048E0
3.168452083E0,1.615034580E0,-3.213835657E-1,1.920054674E0
3.170799115E0,1.577160954E0,-3.849135041E-1,1.926163316E0
3.173146875E0,1.544174314E0,-4.508869052E-1,1.926163316E0
3.175493906E0,1.524626613E0,-5.217471719E-1,1.924941540E0
3.177840052E0,1.516074538E0,-6.084899902E-1,1.920054674E0
3.180187136E0,1.512409329E0,-6.976762414E-1,1.909059048E0
3.182534896E0,1.525848389E0,-7.954146266E-1,1.899285197E0
3.184881875E0,1.531957030E0,-8.784921765E-1,1.884624481E0
3.187228073E0,1.545396090E0,-9.554611444E-1,1.867520332E0
3.189575104E0,1.567387223E0,-1.029986620E0,1.851637840E0
3.191922865E0,1.601595640E0,-1.119172931E0,1.840642214E0
3.194269896E0,1.632138848E0,-1.196141839E0,1.824759722E0
3.196616094E0,1.643134356E0,-1.253563166E0,1.802768588E0
3.198963125E0,1.660238624E0,-1.326866865E0,1.780777454E0
3.201310886E0,1.684673190E0,-1.408722758E0,1.762451530E0
3.203657865E0,1.701777458E0,-1.482026577E0,1.738016963E0
3.206004063E0,1.721325040E0,-1.551665068E0,1.709917188E0
3.208351094E0,1.743316174E0,-1.611529827E0,1.681817412E0
3.210698906E0,1.757977009E0,-1.648181796E0,1.653717637E0
3.213045886E0,1.766529083E0,-1.668951154E0,1.625617862E0
3.215392083E0,1.772637725E0,-1.672616363E0,1.595074654E0
3.217739115E0,1.775081158E0,-1.659177303E0,1.558422685E0
3.220086875E0,1.768972516E0,-1.650625229E0,1.526657820E0
3.222433906E0,1.759198666E0,-1.640851378E0,1.493671060E0
3.224780052E0,1.740872741E0,-1.624968886E0,1.461906075E0
3.227127136E0,1.717659831E0,-1.618860245E0,1.430141091E0
3.229474896E0,1.689560056E0,-1.616416812E0,1.399597883E0
3.231821875E0,1.663903832E0,-1.633520961E0,1.370276451E0
3.234168073E0,1.635804057E0,-1.657955647E0,1.339733124E0
3.236515104E0,1.615034580E0,-1.701937795E0,1.311633348E0
3.238862865E0,1.601595640E0,-1.769132972E0,1.284755349E0
3.241209896E0,1.583269596E0,-1.839993238E0,1.255433798E0
3.243556094E0,1.567387223E0,-1.912075281E0,1.228555799E0
3.245903125E0,1.556391597E0,-1.981713891E0,1.204121232E0
3.248250886E0,1.541730881E0,-2.048908949E0,1.178464890E0
3.250597865E0,1.524626613E0,-2.102665186E0,1.147921681E0
3.252944063E0,1.513631105E0,-2.157642841E0,1.114934921E0
3.255291146E0,1.502635479E0,-2.213842392E0,1.075839639E0
3.257638906E0,1.483087897E0,-2.255381346E0,1.034300804E0
3.259985886E0,1.459874988E0,-2.287146330E0,9.890968800E-1
3.262332083E0,1.442770720E0,-2.316467762E0,9.463363290E-1
3.264679115E0,1.411005855E0,-2.321354628E0,9.035758376E-1
3.267026875E0,1.376797318E0,-2.310359001E0,8.657022119E-1
3.269373906E0,1.329149961E0,-2.277372360E0,8.339372277E-1
3.271720052E0,1.269285202E0,-2.237055302E0,8.021722436E-1
3.274067136E0,1.209420443E0,-2.190629721E0,7.655203938E-1
3.276414896E0,1.150777459E0,-2.135651827E0,7.325336933E-1
3.278761875E0,1.087247491E0,-2.086782694E0,7.019904256E-1
3.281108073E0,1.004169941E0,-2.012257099E0,6.628950834E-1
3.283455104E0,9.198706746E-1,-1.929179549E0,6.091390252E-1
3.285802865E0,8.355713487E-1,-1.849767089E0,5.517177582E-1
3.288149896E0,7.390547395E-1,-1.745920062E0,4.918530285E-1
3.290496094E0,6.584205627E-1,-1.661620736E0,4.380969107E-1
3.292843125E0,5.728995204E-1,-1.579764962E0,3.880060017E-1
3.295190886E0,4.995957315E-1,-1.507682920E0,3.464672267E-1
3.297537865E0,4.250701964E-1,-1.434379101E0,3.061501384E-1
3.299884063E0,3.481012583E-1,-1.370849133E0,2.670547962E-1
3.302231146E0,2.747974992E-1,-1.328088641E0,2.304029018E-1
3.304578906E0,2.088241130E-1,-1.296323657E0,1.900858283E-1
3.306925886E0,1.440724581E-1,-1.279219508E0,1.558774114E-1
3.309272083E0,7.321213931E-2,-1.264558673E0,1.143386066E-1
3.311619115E0,7.238747552E-3,-1.251119733E0,7.279980183E-2
3.313966875E0,-5.262599885E-2,-1.247454524E0,3.126100451E-2
3.316313906E0,-1.149341911E-1,-1.257228374E0,-9.056069888E-3
3.318660052E0,-1.833510548E-1,-1.262115240E0,-4.815141112E-2
3.321007136E0,-2.456592470E-1,-1.275554299E0,-8.724675328E-2
3.323354896E0,-3.140761256E-1,-1.275554299E0,-1.238986403E-1
3.325701875E0,-3.812712431E-1,-1.270667315E0,-1.581070572E-1
3.328048073E0,-4.521315396E-1,-1.249897957E0,-1.947589368E-1
3.330395104E0,-5.266569853E-1,-1.229128599E0,-2.289673686E-1
3.332742865E0,-6.097345948E-1,-1.197363615E0,-2.631757855E-1
3.335089896E0,-6.903687119E-1,-1.163155198E0,-2.986059189E-1
3.337436094E0,-7.746680379E-1,-1.126503229E0,-3.340360820E-1
3.339783125E0,-8.601891398E-1,-1.087407947E0,-3.719097078E-1
3.342130886E0,-9.261624813E-1,-1.050756097E0,-4.048964083E-1
3.344477865E0,-9.933576584E-1,-1.007995486E0,-4.415482879E-1
3.346824063E0,-1.060552835E0,-9.591263533E-1,-4.818653464E-1
3.349171146E0,-1.111865520E0,-9.346917868E-1,-5.185172558E-1
3.351518906E0,-1.179060578E0,-8.943746686E-1,-5.612778068E-1
3.353865886E0,-1.245033979E0,-8.528358936E-1,-6.028165817E-1
3.356212083E0,-1.315894365E0,-8.015232682E-1,-6.419119239E-1
3.358559115E0,-1.378202558E0,-7.734234929E-1,-6.736769080E-1
3.360906875E0,-1.451506257E0,-7.221108079E-1,-7.017766833E-1
3.363253906E0,-1.518701434E0,-6.817937493E-1,-7.188808918E-1
3.365600052E0,-1.582231283E0,-6.341463327E-1,-7.262112498E-1
3.367947136E0,-1.626213551E0,-6.036030650E-1,-7.176591754E-1
3.370294896E0,-1.666530609E0,-5.657294393E-1,-6.993331909E-1
3.372641875E0,-1.676304460E0,-5.437383652E-1,-6.626813412E-1
3.374988073E0,-1.670195818E0,-5.193037391E-1,-6.162556410E-1
3.377335104E0,-1.644539475E0,-4.863170385E-1,-5.624995232E-1
3.379682865E0,-1.593226910E0,-4.496651590E-1,-4.977478385E-1
3.382029896E0,-1.507705808E0,-4.020177126E-1,-4.256657958E-1
3.384376042E0,-1.385532856E0,-3.421529830E-1,-3.499185741E-1
3.386723125E0,-1.216934204E0,-2.578536272E-1,-2.643975019E-1
3.389070886E0,-1.000687957E0,-1.686673909E-1,-1.752112657E-1
3.391417865E0,-7.636724710E-1,-8.070287108E-2,-8.358156681E-2
3.393764063E0,-5.291004181E-1,-3.183368593E-2,4.382953979E-3
3.396111146E0,-3.348455131E-1,-5.015963316E-2,9.112574160E-2
3.398458854E0,-2.114508301E-1,-1.772194952E-1,1.778685302E-1
3.400805886E0,-1.772423834E-1,-4.117915630E-1,2.658330798E-1
3.403152083E0,-2.187811881E-1,-7.526540756E-1,3.562410474E-1
3.405499115E0,-3.030805588E-1,-1.117951155E0,4.380969107E-1
3.407846875E0,-3.983754516E-1,-1.427048683E0,5.150658488E-1
3.410193854E0,-4.667922854E-1,-1.638407946E0,5.834826827E-1
3.412540052E0,-4.912268519E-1,-1.719042063E0,6.323518753E-1
3.414887136E0,-4.496880770E-1,-1.693385720E0,6.616733670E-1
3.417234896E0,-3.482845426E-1,-1.612751603E0,6.702255011E-1
3.419581875E0,-1.967900544E-1,-1.486913443E0,6.628950834E-1
3.421928073E0,-7.422005758E-3,-1.339084148E0,6.445691586E-1
3.424275104E0,2.051589340E-1,-1.207137465E0,6.213563085E-1
3.426622865E0,4.226267338E-1,-1.099625230E0,5.932565331E-1
3.428969896E0,6.400946379E-1,-1.014104128E0,5.614915490E-1
3.431316042E0,8.367930651E-1,-9.383569360E-1,5.333917737E-1
3.433663125E0,1.009056807E0,-8.626097441E-1,5.028485656E-1
3.436010886E0,1.166659951E0,-7.905277014E-1,4.808574617E-1
3.438357865E0,1.305937052E0,-6.866806746E-1,4.613097906E-1
3.440704063E0,1.432996988E0,-5.877205729E-1,4.527576864E-1
3.443051094E0,1.539287448E0,-4.692128301E-1,4.490924776E-1
3.445398854E0,1.628473639E0,-3.555920124E-1,4.503142238E-1
3.447745886E0,1.700555682E0,-2.541884482E-1,4.552011192E-1
3.450092083E0,1.745759726E0,-1.723325700E-1,4.637532532E-1
3.452439115E0,1.759198666E0,-1.026939899E-1,4.674184322E-1
3.454786875E0,1.737207532E0,-4.649443924E-2,4.735270739E-1
3.457133854E0,1.684673190E0,-2.816849761E-2,4.845226407E-1
3.459480052E0,1.584491372E0,3.596466035E-3,4.967399538E-1
3.461827083E0,1.453766346E0,2.436586656E-2,5.114006400E-1
3.464174844E0,1.286389351E0,2.314413898E-2,5.333917737E-1
3.466521875E0,1.098243117E0,-3.733910620E-3,5.566046238E-1
3.468868073E0,8.856622577E-1,-2.572504245E-2,5.737088323E-1
3.471215104E0,6.767465472E-1,-9.047670662E-2,5.883696079E-1
3.473562865E0,4.702741802E-1,-1.674456596E-1,5.932565331E-1
3.475909896E0,2.528063655E-1,-2.456363440E-1,5.883696079E-1
3.478256042E0,4.633408785E-2,-3.409312367E-1,5.822609663E-1
3.480603125E0,-1.357035935E-1,-4.496651590E-1,5.737088323E-1
3.482950886E0,-2.762024999E-1,-5.571773648E-1,5.566046238E-1
3.485297865E0,-3.886016011E-1,-6.426984072E-1,5.236179233E-1
3.487644063E0,-4.435794353E-1,-7.245543003E-1,4.845226407E-1
3.489991094E0,-4.619053602E-1,-7.575410008E-1,4.356534779E-1
3.492338854E0,-4.374707937E-1,-7.441019416E-1,3.843408227E-1
3.494685886E0,-3.922668099E-1,-6.500288248E-1,3.269195557E-1
3.497032031E0,-3.165195584E-1,-4.960908890E-1,2.694982588E-1
3.499379115E0,-2.224463969E-1,-2.700709403E-1,2.181856036E-1
3.501726875E0,-1.234863102E-1,2.070067637E-2,1.754250824E-1
3.504073854E0,-8.643737063E-3,3.432372510E-1,1.412166506E-1
3.506420052E0,1.049771011E-1,6.657738090E-1,1.241124421E-1
3.508767083E0,2.283717841E-1,9.663192630E-1,1.216689795E-1
3.511114844E0,3.505446911E-1,1.221660733E0,1.363297403E-1
3.513461875E0,4.617220759E-1,1.412250519E0,1.742033511E-1
3.515808073E0,5.582387447E-1,1.523427844E0,2.365115434E-1
3.518155104E0,6.266556382E-1,1.557636261E0,3.159239888E-1
3.520502865E0,6.535336375E-1,1.558858037E0,3.941146731E-1
3.522849844E0,6.694161296E-1,1.528314829E0,4.600880444E-1
3.525196042E0,6.706379056E-1,1.512432337E0,4.918530285E-1
3.527543073E0,6.914072633E-1,1.492884636E0,4.833009243E-1
3.529890886E0,7.549372315E-1,1.479445577E0,4.503142238E-1
3.532237865E0,8.514538407E-1,1.457454443E0,4.099971354E-1
3.534584063E0,9.724050760E-1,1.398811460E0,3.770104349E-1
3.536931094E0,1.099464774E0,1.307181716E0,3.513541222E-1
3.539278854E0,1.226524711E0,1.150800347E0,3.256978095E-1
3.541625886E0,1.329149961E0,9.443281293E-1,2.804938257E-1
3.543972031E0,1.379240870E0,6.828780174E-1,2.120769620E-1
3.546319115E0,1.375575662E0,3.884412348E-1,1.155603379E-1
3.548666875E0,1.334036827E0,1.025565565E-1,-7.834340446E-3
3.551013854E0,1.271728635E0,-9.780707955E-2,-1.593287885E-1
3.553360052E0,1.226524711E0,-1.821064055E-1,-3.267057240E-1
3.555707083E0,1.205755234E0,-1.283503175E-1,-5.099651814E-1
3.558054844E0,1.206977010E0,3.596466035E-3,-7.127722502E-1
3.560401875E0,1.221637726E0,1.233259588E-1,-9.339052439E-1
3.562748021E0,1.216750860E0,1.844124198E-1,-1.175807714E0
3.565095104E0,1.166659951E0,1.550909132E-1,-1.416488409E0
3.567442865E0,1.049373865E0,7.079158723E-2,-1.632734537E0
3.569789844E0,8.624494076E-1,-1.350774616E-2,-1.812328815E0
3.572136042E0,6.107731462E-1,-6.604211032E-2,-1.954049468E0
3.574483073E0,2.686888278E-1,-1.595120504E-2,-2.060339689E0
3.576830833E0,-1.320384145E-1,1.184390336E-1,-2.117760897E0
3.579177865E0,-5.779696107E-1,3.395720422E-1,-2.132421732E0
3.581524011E0,-1.045892119E0,6.071308255E-1,-2.105543613E0
3.583871094E0,-1.515036225E0,9.052327871E-1,-2.035905123E0
3.586218854E0,-1.981736779E0,1.228991032E0,-1.925949693E0
3.588565833E0,-2.433776617E0,1.589401245E0,-1.772011757E0
3.590912031E0,-2.865047216E0,1.974246025E0,-1.580200195E0
3.593259063E0,-3.277991772E0,2.371308088E0,-1.367619276E0
3.595606823E0,-3.660393000E0,2.739048719E0,-1.163590431E0
3.597953854E0,-4.006142616E0,3.023711681E0,-9.949917197E-1
3.600300052E0,-4.298135757E0,3.178871393E0,-8.789274693E-1
3.602647083E0,-4.541259766E0,3.203305960E0,-8.202844262E-1
3.604994844E0,-4.748953819E0,3.147106409E0,-8.178409934E-1
3.607341823E0,-4.896782875E0,3.039594173E0,-8.606014848E-1
3.609688021E0,-4.983525753E0,2.896651745E0,-9.290183783E-1
3.612035104E0,-5.014069080E0,2.748822451E0,-1.010874271E0
3.614382865E0,-5.000629902E0,2.643753767E0,-1.097617030E0
3.616729844E0,-4.916330814E0,2.549680710E0,-1.167255640E0
3.619076042E0,-4.797822952E0,2.521580935E0,-1.225898623E0
3.621423073E0,-4.632889271E0,2.554567575E0,-1.258885384E0
3.623770833E0,-4.406869411E0,2.665745020E0,-1.261328816E0
3.626117865E0,-4.129536629E0,2.870995522E0,-1.240559459E0
3.628464011E0,-3.803335428E0,3.122671604E0,-1.203907490E0
3.630811094E0,-3.430707932E0,3.382900000E0,-1.158703566E0
3.633158854E0,-3.017763376E0,3.628467798E0,-1.104947448E0
3.635505833E0,-2.614592552E0,3.850822449E0,-1.057299972E0
3.637852031E0,-2.217530489E0,3.987656355E0,-1.016982913E0
3.640199063E0,-1.846124887E0,4.018199444E0,-9.815527201E-1
3.642546823E0,-1.526031733E0,3.918017626E0,-9.485660195E-1
3.644893854E0,-1.267025113E0,3.687110662E0,-9.119141698E-1
3.647240000E0,-1.070326686E0,3.353578568E0,-8.679319024E-1
3.649587083E0,-9.396015406E-1,2.923529863E0,-8.215061426E-1
3.651934844E0,-8.809584975E-1,2.422620773E0,-7.689718008E-1
3.654281823E0,-8.760715723E-1,1.872842550E0,-7.139939666E-1
3.656628021E0,-9.127234817E-1,1.279081941E0,-6.565726995E-1
3.658975052E0,-9.945793152E-1,6.926518679E-1,-6.138121486E-1
3.661322813E0,-1.088652611E0,1.245476753E-1,-5.783820152E-1
3.663669844E0,-1.192499638E0,-3.910221457E-1,-5.612778068E-1
3.666016042E0,-1.300011873E0,-8.442837596E-1,-5.612778068E-1
3.668363073E0,-1.407523990E0,-1.231572032E0,-5.747168064E-1
3.670710833E0,-1.510149240E0,-1.547999978E0,-5.991514325E-1
3.673057813E0,-1.610331059E0,-1.786237240E0,-6.333598495E-1
3.675404011E0,-1.698295593E0,-1.946283698E0,-6.785638332E-1
3.677751042E0,-1.781373262E0,-2.040356874E0,-7.323198915E-1
3.680098854E0,-1.855898738E0,-2.079452276E0,-7.934063673E-1
3.682445833E0,-1.925537348E0,-2.063569784E0,-8.581580520E-1
3.684792031E0,-1.986623883E0,-2.029361248E0,-9.155793190E-1
3.687139063E0,-2.053818703E0,-1.959722757E0,-9.730005860E-1
3.689486823E0,-2.121013880E0,-1.870536566E0,-1.031643629E0
3.691833802E0,-2.193095922E0,-1.752028704E0,-1.084178090E0
3.694180000E0,-2.263956308E0,-1.616416812E0,-1.133047223E0
3.696527083E0,-2.333594799E0,-1.467365742E0,-1.174586058E0
3.698874844E0,-2.408120394E0,-1.297545433E0,-1.212459683E0
3.701221823E0,-2.482645750E0,-1.119172931E0,-1.243002892E0
3.703568021E0,-2.562058210E0,-9.261396527E-1,-1.268659234E0
3.705915052E0,-2.632918596E0,-7.282195091E-1,-1.280876517E0
3.708262813E0,-2.713552713E0,-5.021995306E-1,-1.283319950E0
3.710609844E0,-2.779525995E0,-2.810665071E-1,-1.272324443E0
3.712955990E0,-2.839390755E0,-4.649443924E-2,-1.255220175E0
3.715303073E0,-2.893146992E0,1.929645389E-1,-1.235672474E0
3.717650833E0,-2.912694693E0,4.018802643E-1,-1.201464057E0
3.719997813E0,-2.935907364E0,6.340088248E-1,-1.170920849E0
3.722344011E0,-2.937129259E0,8.514766693E-1,-1.139155865E0
3.724691042E0,-2.929798841E0,1.045731664E0,-1.108612657E0
3.727038802E0,-2.912694693E0,1.215552092E0,-1.081734538E0
3.729385833E0,-2.883373022E0,1.356050968E0,-1.056078315E0
3.731731979E0,-2.850386381E0,1.468450069E0,-1.027978539E0
3.734079063E0,-2.814956188E0,1.551527619E0,-1.001100421E0
3.736426823E0,-2.763643503E0,1.589401245E0,-9.668919444E-1
3.738773802E0,-2.709887505E0,1.585736036E0,-9.302400947E-1
3.741120000E0,-2.653687954E0,1.542975545E0,-8.935881853E-1
3.743467031E0,-2.602375269E0,1.462341428E0,-8.544928432E-1
3.745814792E0,-2.548619270E0,1.353607535E0,-8.153975010E-1
3.748161823E0,-2.500971794E0,1.222882390E0,-7.750804424E-1
3.750507969E0,-2.460654736E0,1.067722797E0,-7.335416675E-1
3.752855052E0,-2.415450811E0,8.795764446E-1,-6.920028329E-1
3.755202813E0,-2.388572693E0,6.755476594E-1,-6.492423415E-1
3.757549792E0,-2.367803335E0,4.654101729E-1,-6.089252234E-1
3.759895990E0,-2.339703560E0,2.516075671E-1,-5.686081648E-1
3.762243021E0,-2.306716681E0,1.092684083E-2,-5.258476138E-1
3.764590781E0,-2.265177965E0,-2.346407771E-1,-4.794218838E-1
3.766937813E0,-2.221195698E0,-4.655476511E-1,-4.403265417E-1
3.769283958E0,-2.174769878E0,-7.037848830E-1,-4.048964083E-1
3.771631042E0,-2.139339924E0,-9.041485190E-1,-3.792400658E-1
3.773978802E0,-2.100244522E0,-1.069082022E0,-3.596923947E-1
3.776325781E0,-2.059927464E0,-1.202250481E0,-3.450316489E-1
3.778671979E0,-2.035492897E0,-1.290215015E0,-3.352578282E-1
3.781019011E0,-2.012279987E0,-1.348857999E0,-3.328143656E-1
3.783366771E0,-1.991510749E0,-1.374514341E0,-3.377012610E-1
3.785713802E0,-1.982958674E0,-1.350079775E0,-3.499185741E-1
3.788060000E0,-1.971963048E0,-1.259671807E0,-3.719097078E-1
3.790407031E0,-1.952415347E0,-1.142385721E0,-3.963442743E-1
3.792754792E0,-1.937754631E0,-1.007995486E0,-4.244440496E-1
3.795101771E0,-1.925537348E0,-8.540576100E-1,-4.525438547E-1
3.797447969E0,-1.916985154E0,-6.903458834E-1,-4.769784212E-1
3.799795052E0,-1.918206930E0,-5.193037391E-1,-4.928609133E-1
3.802142813E0,-1.909654856E0,-3.885787129E-1,-4.977478385E-1
3.804489792E0,-1.899881005E0,-2.859534323E-1,-5.014130473E-1
3.806835990E0,-1.885220289E0,-2.199800164E-1,-5.050782561E-1
3.809183021E0,-1.859563947E0,-2.102061808E-1,-5.087434053E-1
3.811530781E0,-1.833907604E0,-2.285321206E-1,-5.087434053E-1
3.813877761E0,-1.803364396E0,-2.651840150E-1,-5.050782561E-1
3.816223958E0,-1.770377636E0,-3.323791325E-1,-4.916391969E-1
3.818571042E0,-1.745943069E0,-4.105698168E-1,-4.733132422E-1
3.820918802E0,-1.731282353E0,-4.789866805E-1,-4.586524963E-1
3.823265781E0,-1.721508503E0,-5.547338724E-1,-4.427700043E-1
3.825611979E0,-1.728838921E0,-6.207072735E-1,-4.256657958E-1
3.827959011E0,-1.741056204E0,-6.842372417E-1,-4.110050499E-1
3.830306771E0,-1.759382129E0,-7.379933000E-1,-3.975660205E-1
3.832653750E0,-1.777708054E0,-7.978580594E-1,-3.865704536E-1
3.834999948E0,-1.789925337E0,-8.662748933E-1,-3.804618120E-1
3.837347031E0,-1.794812202E0,-9.322482944E-1,-3.755748868E-1
3.839694792E0,-1.798477411E0,-9.884478450E-1,-3.780183494E-1
3.842041771E0,-1.805807829E0,-1.023877978E0,-3.865704536E-1
3.844387969E0,-1.810694695E0,-1.042203903E0,-3.926790953E-1
3.846735000E0,-1.809473038E0,-1.047090888E0,-4.048964083E-1
3.849082761E0,-1.813138247E0,-1.031208396E0,-4.220006168E-1
3.851429792E0,-1.814359903E0,-1.000665069E0,-4.415482879E-1
3.853775938E0,-1.807029605E0,-9.627915621E-1,-4.623176754E-1
3.856123021E0,-1.794812202E0,-9.322482944E-1,-4.879739881E-1
3.858470781E0,-1.781373262E0,-8.894877434E-1,-5.136303306E-1
3.860817761E0,-1.758160353E0,-8.528358936E-1,-5.417301059E-1
3.863163958E0,-1.737390995E0,-8.088536263E-1,-5.710516572E-1
3.865510990E0,-1.711734653E0,-7.795321345E-1,-6.003731489E-1
3.867858750E0,-1.687300086E0,-7.526540756E-1,-6.284729242E-1
3.870205781E0,-1.660421968E0,-7.441019416E-1,-6.541292071E-1
3.872551927E0,-1.635987401E0,-7.306629419E-1,-6.761203408E-1
3.874899011E0,-1.621326685E0,-7.208890915E-1,-6.956680417E-1
3.877246771E0,-1.613996267E0,-7.147804499E-1,-7.078853250E-1
3.879593750E0,-1.609109402E0,-7.098935246E-1,-7.188808918E-1
3.881939948E0,-1.606665969E0,-7.098935246E-1,-7.237678170E-1
3.884286979E0,-1.600557327E0,-7.050065994E-1,-7.237678170E-1
3.886634740E0,-1.593226910E0,-6.805720329E-1,-7.201026082E-1
3.888981771E0,-1.585896492E0,-6.439201236E-1,-7.176591754E-1
3.891327917E0,-1.566348910E0,-6.011596322E-1,-7.152156830E-1
3.893675000E0,-1.543136001E0,-5.510687232E-1,-7.127722502E-1
3.896022761E0,-1.517479658E0,-5.009778142E-1,-7.139939666E-1
3.898369740E0,-1.493045092E0,-4.447782636E-1,-7.164374590E-1
3.900715938E0,-1.462501884E0,-4.020177126E-1,-7.176591754E-1
3.903062969E0,-1.439288974E0,-3.592571914E-1,-7.225461006E-1
3.905410729E0,-1.422184825E0,-3.226053119E-1,-7.213243246E-1
3.907757761E0,-1.401415348E0,-3.067228198E-1,-7.164374590E-1
3.910103906E0,-1.398971915E0,-2.798447907E-1,-7.078853250E-1
3.912450990E0,-1.397750139E0,-2.712926567E-1,-6.944463253E-1
3.914798750E0,-1.396528482E0,-2.737361193E-1,-6.748986244E-1
3.917145729E0,-1.395306706E0,-2.835099697E-1,-6.541292071E-1
3.919491927E0,-1.389198065E0,-2.896186113E-1,-6.333598495E-1
3.921838958E0,-1.370872140E0,-3.006141782E-1,-6.077035069E-1
3.924186719E0,-1.342772365E0,-3.055011034E-1,-5.844906569E-1
3.926533750E0,-1.300011873E0,-2.957272530E-1,-5.588343143E-1
3.928879896E0,-1.240147114E0,-2.761795819E-1,-5.380649567E-1
3.931226979E0,-1.161956429E0,-2.529667318E-1,-5.136303306E-1
3.933574740E0,-1.069104910E0,-2.260886729E-1,-4.891957343E-1
3.935921719E0,-9.615926743E-1,-1.955454350E-1,-4.672046006E-1
3.938267917E0,-8.516370058E-1,-1.747760326E-1,-4.427700043E-1
3.940614948E0,-7.477899790E-1,-1.674456596E-1,-4.207788706E-1
3.942962708E0,-6.463864446E-1,-1.698891073E-1,-3.975660205E-1
3.945309740E0,-5.572001934E-1,-1.784412116E-1,-3.755748868E-1
3.947655886E0,-4.875617027E-1,-1.955454350E-1,-3.511402905E-1
3.950002969E0,-4.338055849E-1,-2.089844495E-1,-3.315926194E-1
3.952350729E0,-3.947102427E-1,-2.309755832E-1,-3.120449483E-1
3.954697708E0,-3.751625717E-1,-2.480798066E-1,-2.949407399E-1
3.957043906E0,-3.714973927E-1,-2.590753734E-1,-2.802799940E-1
3.959390938E0,-3.727191389E-1,-2.664057612E-1,-2.656192482E-1
3.961738698E0,-3.751625717E-1,-2.786230445E-1,-2.509585023E-1
3.964085729E0,-3.873798847E-1,-2.847316861E-1,-2.411846668E-1
3.966431927E0,-3.947102427E-1,-2.847316861E-1,-2.362977415E-1
3.968778958E0,-4.008189142E-1,-2.786230445E-1,-2.326325625E-1
3.971126719E0,-3.995971680E-1,-2.749578655E-1,-2.314108312E-1
3.973473698E0,-3.910450637E-1,-2.700709403E-1,-2.338542789E-1
3.975819896E0,-3.800494969E-1,-2.566319108E-1,-2.375194728E-1
3.978166927E0,-3.653887510E-1,-2.370842248E-1,-2.448498309E-1
3.980514688E0,-3.409541547E-1,-2.102061808E-1,-2.497367561E-1
3.982861719E0,-3.128543794E-1,-1.772194952E-1,-2.582888603E-1
3.985207865E0,-2.847546041E-1,-1.271285862E-1,-2.692844272E-1
3.987554948E0,-2.529896498E-1,-6.482037902E-2,-2.778365314E-1
3.989902708E0,-2.126725465E-1,-3.733910620E-3,-2.863886356E-1
3.992249688E0,-1.772423834E-1,7.079158723E-2,-2.937190235E-1
3.994595886E0,-1.332601458E-1,1.538691968E-1,-3.010493815E-1
3.996942917E0,-9.294307232E-2,2.320598811E-1,-3.071580231E-1
3.999290677E0,-5.018253624E-2,3.016984463E-1,-3.132666945E-1
4.001637708E0,-8.643737063E-3,3.664501011E-1,-3.230405152E-1
4.003983854E0,4.266890138E-2,4.116540849E-1,-3.267057240E-1
4.006330938E0,8.787288517E-2,4.544146061E-1,-3.340360820E-1
4.008678698E0,1.269682497E-1,4.971751571E-1,-3.438099325E-1
4.011025677E0,1.660635918E-1,5.350487828E-1,-3.535837531E-1
4.013371875E0,2.039371878E-1,5.680354834E-1,-3.658010662E-1
4.015718906E0,2.442542762E-1,6.010221243E-1,-3.804618120E-1
4.018066667E0,2.833496034E-1,6.376740336E-1,-4.000094831E-1
4.020413698E0,3.334404826E-1,6.584434509E-1,-4.183354080E-1
4.022759844E0,3.749792874E-1,7.012039423E-1,-4.476569295E-1
4.025106927E0,4.409526885E-1,7.231950760E-1,-4.782001674E-1
4.027454688E0,5.032609105E-1,7.488514185E-1,-5.160738230E-1
4.029801667E0,5.826733708E-1,7.622904181E-1,-5.551691651E-1
4.032147865E0,6.681944132E-1,7.745077610E-1,-5.954862237E-1
4.034494896E0,7.500503063E-1,7.818381190E-1,-6.309163570E-1
4.036842656E0,8.319061399E-1,7.793946266E-1,-6.541292071E-1
4.039189688E0,9.113186002E-1,7.720642686E-1,-6.687899828E-1
4.041535886E0,9.858440757E-1,7.390775681E-1,-6.687899828E-1
4.043882917E0,1.048152208E0,6.987605095E-1,-6.577944160E-1
4.046230677E0,1.108016849E0,6.388957500E-1,-6.296946406E-1
4.048577656E0,1.160551310E0,5.631485581E-1,-5.893775821E-1
4.050923854E0,1.204533577E0,4.849578738E-1,-5.368431807E-1
4.053270886E0,1.249737501E0,3.908846974E-1,-4.769784212E-1
4.055618646E0,1.298606634E0,2.845942378E-1,-4.134485126E-1
4.057965677E0,1.347475886E0,1.770820469E-1,-3.572489321E-1
4.060311875E0,1.403675437E0,5.857428908E-2,-3.059363067E-1
4.062658906E0,1.469648838E0,-5.749000609E-2,-2.619540393E-1
4.065006667E0,1.538065672E0,-1.735543013E-1,-2.240804583E-1
4.067353646E0,1.608925939E0,-2.786230445E-1,-1.874285638E-1
4.069699844E0,1.683451414E0,-3.665875793E-1,-1.495549530E-1
4.072046875E0,1.761642098E0,-4.313392341E-1,-1.067944244E-1
4.074394636E0,1.842276335E0,-4.667693973E-1,-6.403389573E-2
4.076741667E0,1.930240870E0,-4.692128301E-1,-1.638644747E-2
4.079087865E0,2.016983747E0,-4.435565174E-1,3.126100451E-2
4.081434896E0,2.102504730E0,-3.898004293E-1,8.746055514E-2
4.083782656E0,2.189247608E0,-3.128314614E-1,1.485470235E-1
4.086129636E0,2.273546934E0,-2.285321206E-1,2.120769620E-1
4.088475833E0,2.354181051E0,-1.369024217E-1,2.719417214E-1
4.090822865E0,2.428706646E0,-4.527271539E-2,3.208108842E-1
4.093170625E0,2.503232002E0,2.803105675E-2,3.611279726E-1
4.095517656E0,2.571648836E0,8.178715408E-2,3.953363895E-1
4.097863802E0,2.642509222E0,1.086651981E-1,4.295448065E-1
4.100210886E0,2.719478130E0,9.889136255E-2,4.625315070E-1
4.102558646E0,2.784229755E0,7.323504984E-2,4.918530285E-1
4.104905625E0,2.846538067E0,3.291797638E-2,5.199527740E-1
4.107251823E0,2.901515722E0,-2.083812281E-2,5.456090569E-1
4.109598854E0,2.935724258E0,-6.482037902E-2,5.724871159E-1
4.111946615E0,2.961380482E0,-9.414188564E-2,5.981434584E-1
4.114293646E0,2.979706526E0,-1.088026464E-1,6.274649501E-1
4.116639844E0,2.990702152E0,-1.197982132E-1,6.604516506E-1
4.118986875E0,3.004141092E0,-1.259068549E-1,6.983252764E-1
4.121334636E0,3.007806301E0,-1.259068549E-1,7.410857677E-1
4.123681615E0,3.016358376E0,-1.356806904E-1,7.875115275E-1
4.126027813E0,3.027354002E0,-1.613370031E-1,8.412675858E-1
4.128374844E0,3.035906076E0,-1.992106140E-1,8.938019872E-1
4.130722604E0,3.039571285E0,-2.383059561E-1,9.402276874E-1
4.133069636E0,3.045679808E0,-2.871751487E-1,9.829882383E-1
4.135415781E0,3.049345016E0,-3.348225951E-1,1.025748730E0
4.137762865E0,3.046901703E0,-3.714744747E-1,1.062400579E0
4.140110625E0,3.032240868E0,-3.836917877E-1,1.091722131E0
4.142457604E0,3.034684420E0,-4.069046378E-1,1.128373981E0
4.144803802E0,3.018801928E0,-3.800265789E-1,1.157695532E0
4.147150833E0,2.996810675E0,-3.177183867E-1,1.189460397E0
4.149498594E0,2.979706526E0,-2.321973145E-1,1.224890590E0
4.151845625E0,2.963824034E0,-1.161330193E-1,1.261542439E0
4.154191771E0,2.951606750E0,1.947894879E-2,1.294529200E0
4.156538854E0,2.935724258E0,1.868558824E-1,1.323850632E0
4.158886615E0,2.918620110E0,3.713370264E-1,1.347063541E0
4.161233594E0,2.901515722E0,5.631485581E-1,1.365389466E0
4.163579792E0,2.880746365E0,7.512948513E-1,1.373941541E0
4.165926823E0,2.845316172E0,9.406629205E-1,1.371498108E0
4.168274583E0,2.802555799E0,1.121478915E0,1.358059049E0
4.170621615E0,2.761016846E0,1.309625268E0,1.340954900E0
4.172967761E0,2.715812922E0,1.509988904E0,1.316520333E0
4.175314844E0,2.665722132E0,1.717682838E0,1.290863991E0
4.177662604E0,2.616852999E0,1.938815832E0,1.265207648E0
4.180009583E0,2.565540314E0,2.179496527E0,1.239551306E0
4.182355781E0,2.508118868E0,2.421399117E0,1.213895082E0
4.184702813E0,2.450697660E0,2.664523125E0,1.191903949E0
4.187050573E0,2.399384975E0,2.901538610E0,1.173577905E0
4.189397604E0,2.340742111E0,3.117784739E0,1.155251980E0
4.191743750E0,2.283320665E0,3.318148375E0,1.134482622E0
4.194090833E0,2.230786324E0,3.492855787E0,1.108826280E0
4.196438594E0,2.184360743E0,3.657789230E0,1.074617863E0
4.198785573E0,2.151373863E0,3.805618525E0,1.046518087E0
4.201131771E0,2.119608879E0,3.943673849E0,1.017196536E0
4.203478802E0,2.097617865E0,4.058516502E0,9.976490140E-1
4.205826563E0,2.080513716E0,4.146481037E0,9.878751636E-1
4.208173594E0,2.062187672E0,4.199015617E0,9.854316711E-1
4.210519740E0,2.041418314E0,4.218563080E0,9.903185964E-1
4.212866823E0,2.027979374E0,4.203902721E0,9.988706708E-1
4.215214583E0,2.013318539E0,4.148924828E0,1.013531446E0
4.217561563E0,1.992549062E0,4.079286098E0,1.018418312E0
4.219907761E0,1.974223018E0,3.994986773E0,1.017196536E0
4.222254792E0,1.960784078E0,3.898469925E0,1.009866238E0
4.224602552E0,1.943679810E0,3.801953316E0,1.001314163E0
4.226949531E0,1.931462526E0,3.678558588E0,9.976490140E-1
4.229295729E0,1.926575661E0,3.529507637E0,1.001314163E0
4.231642813E0,1.921688676E0,3.358465433E0,1.013531446E0
4.233990521E0,1.916801810E0,3.169097424E0,1.031857371E0
4.236337552E0,1.911914825E0,2.972398996E0,1.051404953E0
4.238683750E0,1.909471393E0,2.769591808E0,1.077061296E0
4.241030781E0,1.899697542E0,2.572893381E0,1.101495862E0
4.243378542E0,1.892367244E0,2.388412237E0,1.128373981E0
4.245725521E0,1.877706409E0,2.225922346E0,1.154030323E0
4.248071719E0,1.853271842E0,2.075649500E0,1.178464890E0
4.250418750E0,1.823950410E0,1.920489907E0,1.212673306E0
4.252766563E0,1.784855008E0,1.743339181E0,1.251768589E0
4.255113542E0,1.742094517E0,1.552749395E0,1.298194408E0
4.257459740E0,1.689560056E0,1.346277118E0,1.344620109E0
4.259806771E0,1.640690923E0,1.122700572E0,1.398376226E0
4.262154531E0,1.599152088E0,8.698026538E-1,1.454575777E0
4.264501511E0,1.555169821E0,6.120176911E-1,1.515662193E0
4.266847708E0,1.517296314E0,3.554545343E-1,1.574305177E0
4.269194740E0,1.479422688E0,1.257694066E-1,1.630504727E0
4.271542500E0,1.442770720E0,-7.825940847E-2,1.686704278E0
4.273889531E0,1.397566795E0,-2.578536272E-1,1.740460396E0
4.276235729E0,1.356027961E0,-4.130132794E-1,1.795438290E0
4.278582761E0,1.313267469E0,-5.327427983E-1,1.846750855E0
4.280930521E0,1.272950411E0,-6.329245567E-1,1.898063540E0
4.283277500E0,1.244850636E0,-7.221108079E-1,1.945711017E0
4.285623698E0,1.227746367E0,-7.844190598E-1,1.983584523E0
4.287970729E0,1.221637726E0,-8.271795511E-1,2.014127970E0
4.290318490E0,1.231411576E0,-8.528358936E-1,2.032454014E0
4.292665521E0,1.253402710E0,-8.858225942E-1,2.042227745E0
4.295011667E0,1.280280709E0,-9.139223695E-1,2.039784431E0
4.297358750E0,1.318154335E0,-9.627915621E-1,2.027567148E0
4.299706511E0,1.357249737E0,-1.022656202E0,2.009241104E0
4.302053490E0,1.407340646E0,-1.110620856E0,1.986028075E0
4.304399688E0,1.453766346E0,-1.207137465E0,1.956706524E0
4.306746719E0,1.513631105E0,-1.320758224E0,1.920054674E0
4.309094479E0,1.569830656E0,-1.427048683E0,1.874850631E0
4.311441511E0,1.627251863E0,-1.534560919E0,1.825981498E0
4.313787656E0,1.689560056E0,-1.633520961E0,1.769781947E0
4.316134740E0,1.755533457E0,-1.725150704E0,1.713582397E0
4.318482500E0,1.812954783E0,-1.804563165E0,1.656161070E0
4.320829479E0,1.864267468E0,-1.859540939E0,1.595074654E0
4.323175677E0,1.908249736E0,-1.893749356E0,1.533988118E0
4.325522708E0,1.946123242E0,-1.915740490E0,1.477788568E0
4.327870469E0,1.974223018E0,-1.935288191E0,1.422810793E0
4.330217500E0,1.983996868E0,-1.952392340E0,1.373941541E0
4.332563646E0,1.987662077E0,-1.985379100E0,1.334846258E0
4.334910729E0,1.988883853E0,-2.039135218E0,1.298194408E0
4.337258490E0,1.982775211E0,-2.123434544E0,1.270094633E0
4.339605469E0,1.969336152E0,-2.216285944E0,1.248103499E0
4.341951667E0,1.951010227E0,-2.312802553E0,1.224890590E0
4.344298698E0,1.943679810E0,-2.434975624E0,1.209008098E0
4.346646458E0,1.935127735E0,-2.551039696E0,1.185795307E0
4.348993490E0,1.927797318E0,-2.667104006E0,1.163804173E0
4.351339636E0,1.924132109E0,-2.784390211E0,1.139369488E0
4.353686719E0,1.919245243E0,-2.873576403E0,1.112491488E0
4.356034479E0,1.910693169E0,-2.941993237E0,1.086835146E0
4.358381458E0,1.899697542E0,-2.989640713E0,1.061178803E0
4.360727656E0,1.875262976E0,-2.999414444E0,1.030635595E0
4.363074688E0,1.854493618E0,-2.990862370E0,9.976490140E-1
4.365422448E0,1.823950410E0,-2.962762594E0,9.609971046E-1
4.367769427E0,1.786076784E0,-2.918780327E0,9.206800461E-1
4.370115625E0,1.727433681E0,-2.832037687E0,8.632587194E-1
4.372462708E0,1.671234131E0,-2.746516466E0,7.960636020E-1
4.374810469E0,1.608925939E0,-2.670769215E0,7.288684845E-1
4.377157448E0,1.545396090E0,-2.602352381E0,6.653385758E-1
4.379503646E0,1.480644345E0,-2.535157442E0,6.054738164E-1
4.381850677E0,1.415892720E0,-2.469183922E0,5.517177582E-1
4.384198438E0,1.352362752E0,-2.408097506E0,5.040702820E-1
4.386545417E0,1.283945918E0,-2.340902328E0,4.637532532E-1
4.388891615E0,1.217972517E0,-2.277372360E0,4.295448065E-1
4.391238646E0,1.160551310E0,-2.226059675E0,3.977798522E-1
4.393586406E0,1.095799565E0,-2.173525333E0,3.709017932E-1
4.395933438E0,1.022495866E0,-2.105108500E0,3.440237641E-1
4.398279636E0,9.528573751E-1,-2.041578531E0,3.208108842E-1
4.400626667E0,8.758884072E-1,-1.970718384E0,2.927111089E-1
4.402974427E0,8.074715734E-1,-1.901079774E0,2.609461546E-1
4.405321406E0,7.317243218E-1,-1.821667314E0,2.206290662E-1
4.407667604E0,6.584205627E-1,-1.748363614E0,1.790902615E-1
4.410014636E0,5.838950872E-1,-1.675059795E0,1.363297403E-1
4.412362396E0,5.130347610E-1,-1.604199529E0,9.356920421E-2
4.414709427E0,4.372875094E-1,-1.535782695E0,4.836521298E-2
4.417055573E0,3.566533625E-1,-1.472252727E0,4.382953979E-3
4.419402656E0,2.784626782E-1,-1.411166191E0,-3.959930688E-2
4.421750417E0,1.978285462E-1,-1.363518834E0,-7.747291774E-2
4.424097396E0,1.098640189E-1,-1.302432299E0,-1.190117151E-1
4.426443594E0,1.823431253E-2,-1.242567539E0,-1.605505198E-1
4.428790625E0,-6.606502086E-2,-1.198585272E0,-1.959806681E-1
4.431138386E0,-1.613599211E-1,-1.154603004E0,-2.314108312E-1
4.433485417E0,-2.529896498E-1,-1.121616364E0,-2.643975019E-1
4.435831563E0,-3.470627964E-1,-1.089851379E0,-2.961624861E-1
4.438178646E0,-4.411359727E-1,-1.059308171E0,-3.279274404E-1
4.440526406E0,-5.352090597E-1,-1.023877978E0,-3.609141409E-1
4.442873386E0,-6.182866693E-1,-9.872261286E-1,-3.939008415E-1
4.445219583E0,-7.074729204E-1,-9.383569360E-1,-4.317744374E-1
4.447566615E0,-8.003243804E-1,-9.004833102E-1,-4.659828544E-1
4.449914375E0,-8.870671391E-1,-8.674966097E-1,-4.989695549E-1
4.452261354E0,-9.762533903E-1,-8.345099688E-1,-5.295128226E-1
4.454607552E0,-1.073991895E0,-8.076319098E-1,-5.637212396E-1
4.456954636E0,-1.165621638E0,-7.893059254E-1,-5.918210149E-1
4.459302344E0,-1.259694815E0,-7.697582841E-1,-6.186990738E-1
4.461649375E0,-1.359876633E0,-7.392150760E-1,-6.455771327E-1
4.463995573E0,-1.449062824E0,-7.221108079E-1,-6.651247740E-1
4.466342604E0,-1.538249016E0,-7.025631666E-1,-6.773421168E-1
4.468690365E0,-1.616439700E0,-6.903458834E-1,-6.810072660E-1
4.471037344E0,-1.688521743E0,-6.830154657E-1,-6.712334156E-1
4.473383542E0,-1.739834428E0,-6.805720329E-1,-6.504640579E-1
4.475730573E0,-1.780151486E0,-6.707981825E-1,-6.186990738E-1
4.478078333E0,-1.802142620E0,-6.512505412E-1,-5.734950900E-1
4.480425365E0,-1.797255754E0,-6.304811239E-1,-5.185172558E-1
4.482771563E0,-1.763047338E0,-6.084899902E-1,-4.562090337E-1
4.485118594E0,-1.697073936E0,-5.767250061E-1,-3.939008415E-1
4.487466354E0,-1.598113775E0,-5.388514400E-1,-3.315926194E-1
4.489813333E0,-1.449062824E0,-4.985343218E-1,-2.619540393E-1
4.492159531E0,-1.264581680E0,-4.264523089E-1,-1.984241307E-1
4.494506563E0,-1.034896493E0,-3.726962209E-1,-1.324507445E-1
4.496854323E0,-8.027678132E-1,-3.348225951E-1,-6.892081350E-2
4.499201354E0,-6.072911024E-1,-3.494833708E-1,-1.725693233E-3
4.501547500E0,-4.729009271E-1,-4.508869052E-1,6.546942890E-2
4.503894583E0,-4.191448390E-1,-6.451418996E-1,1.363297403E-1
4.506242344E0,-4.374707937E-1,-9.200310111E-1,2.096334994E-1
4.508589323E0,-4.973355532E-1,-1.227906823E0,2.866024673E-1
4.510935521E0,-5.633088350E-1,-1.516234994E0,3.696800768E-1
4.513282552E0,-6.121780276E-1,-1.726372480E0,4.515359402E-1
4.515630313E0,-6.109563112E-1,-1.828997731E0,5.260614157E-1
4.517977344E0,-5.486481190E-1,-1.818002105E0,5.822609663E-1
4.520323490E0,-4.276969433E-1,-1.706824780E0,6.201345921E-1
4.522670573E0,-2.542113662E-1,-1.538226128E0,6.384605169E-1
4.525018333E0,-5.018253624E-2,-1.347636342E0,6.372388005E-1
4.527365313E0,1.636201292E-1,-1.175372481E0,6.250215173E-1
4.529711511E0,3.749792874E-1,-1.033651829E0,6.018086076E-1
4.532058542E0,5.704560876E-1,-9.334700108E-1,5.785957575E-1
4.534406302E0,7.402764559E-1,-8.589445353E-1,5.553829074E-1
4.536753281E0,8.905491829E-1,-7.917494178E-1,5.346134901E-1
4.539099479E0,1.034713149E0,-7.343281507E-1,5.211744905E-1
4.541446511E0,1.162994742E0,-6.488070488E-1,5.040702820E-1
4.543794271E0,1.297384977E0,-5.718381405E-1,4.955182076E-1
4.546141302E0,1.424444795E0,-4.789866805E-1,4.869661033E-1
4.548487500E0,1.547839522E0,-3.898004293E-1,4.881878197E-1
4.550834531E0,1.650464773E0,-2.993924618E-1,4.955182076E-1
4.553182292E0,1.732320666E0,-2.163148373E-1,5.065137148E-1
4.555529271E0,1.793407083E0,-1.491197199E-1,5.187310576E-1
4.557875469E0,1.820285201E0,-1.075809151E-1,5.309483409E-1
4.560222500E0,1.821506858E0,-1.026939899E-1,5.382786989E-1
4.562570261E0,1.786076784E0,-1.210199445E-1,5.443873405E-1
4.564917292E0,1.710329533E0,-1.576718241E-1,5.492742658E-1
4.567263438E0,1.595486999E0,-2.187582850E-1,5.566046238E-1
4.569610521E0,1.447657704E0,-2.908403277E-1,5.663784742E-1
4.571958281E0,1.265619993E0,-3.494833708E-1,5.761523247E-1
4.574305261E0,1.059147716E0,-3.983525336E-1,5.895913243E-1
4.576651458E0,8.270192742E-1,-4.240088463E-1,6.005868912E-1
4.578998490E0,5.936689377E-1,-4.386695921E-1,6.066955328E-1
4.581346250E0,3.505446911E-1,-4.301174879E-1,6.054738164E-1
4.583693281E0,1.171943918E-1,-4.117915630E-1,5.932565331E-1
4.586039427E0,-8.927787840E-2,-3.702527583E-1,5.749306083E-1
4.588386511E0,-2.713155746E-1,-3.006141782E-1,5.456090569E-1
4.590734271E0,-4.093710184E-1,-2.212017477E-1,5.114006400E-1
4.593081250E0,-5.071093440E-1,-1.173547506E-1,4.747488201E-1
4.595427448E0,-5.791913271E-1,2.070067637E-2,4.356534779E-1
4.597774479E0,-6.146215200E-1,1.892993450E-1,4.026667774E-1
4.600122240E0,-6.182866693E-1,3.933281302E-1,3.733452559E-1
4.602469219E0,-5.889651775E-1,6.266784668E-1,3.440237641E-1
4.604815417E0,-5.303221941E-1,8.832416534E-1,3.110370636E-1
4.607162448E0,-4.411359727E-1,1.130030990E0,2.756069005E-1
4.609510208E0,-3.311803341E-1,1.368268251E0,2.389550060E-1
4.611857240E0,-2.016769797E-1,1.564966679E0,2.059683055E-1
4.614203438E0,-5.384773016E-2,1.715239406E0,1.827554554E-1
4.616550469E0,9.031634778E-2,1.804425597E0,1.778685302E-1
4.618898229E0,2.076023668E-1,1.810534239E0,1.974162012E-1
4.621245208E0,2.882364988E-1,1.742117405E0,2.255159765E-1
4.623591406E0,3.407708704E-1,1.623609662E0,2.389550060E-1
4.625938438E0,3.847531378E-1,1.491662860E0,2.352898270E-1
4.628286198E0,4.409526885E-1,1.395146251E0,2.132986933E-1
4.630633229E0,5.533518791E-1,1.348720551E0,1.680946946E-1
4.632979375E0,7.243939638E-1,1.326729417E0,9.845612198E-2
4.635326458E0,9.381965995E-1,1.291299343E0,3.248272836E-2
4.637674219E0,1.177655458E0,1.203334808E0,-1.638644747E-2
4.640021198E0,1.423223138E0,1.073831439E0,-3.715584427E-2
4.642367396E0,1.644356132E0,9.467715621E-1,-3.471238911E-2
4.644714427E0,1.825172067E0,7.977206111E-1,-4.204276204E-2
4.647062188E0,1.941236377E0,6.071308255E-1,-7.991637290E-2
4.649409219E0,1.970557928E0,4.079889059E-1,-1.568853259E-1
4.651755365E0,1.929019094E0,2.442771643E-1,-2.595105767E-1
4.654102396E0,1.841054559E0,1.306563318E-1,-3.816835284E-1
4.656450156E0,1.726212025E0,7.567849755E-2,-5.160738230E-1
4.658797188E0,1.594265223E0,7.445676625E-2,-6.626813412E-1
4.661143386E0,1.445214272E0,9.156098962E-2,-8.251713514E-1
4.663490417E0,1.264398217E0,9.400443733E-2,-1.003543854E0
4.665838177E0,1.056704283E0,5.857428908E-2,-1.191690207E0
4.668185156E0,8.209105730E-1,4.818195477E-3,-1.376171350E0
4.670531354E0,5.692343116E-1,-4.893790185E-2,-1.544770002E0
4.672878386E0,2.967886031E-1,-7.337249070E-2,-1.688934088E0
4.675226146E0,1.701258309E-2,-3.794233501E-2,-1.797668099E0
4.677573177E0,-2.871980667E-1,7.323504984E-2,-1.878302217E0
4.679919323E0,-6.219518781E-1,2.540510297E-1,-1.925949693E0
4.682266406E0,-9.689230919E-1,4.874013066E-1,-1.938166976E0
4.684614167E0,-1.335441947E0,7.622904181E-1,-1.906401992E0
4.686961146E0,-1.726395369E0,1.068944573E0,-1.824546099E0
4.689307344E0,-2.138118029E0,1.397589803E0,-1.696264505E0
4.691654375E0,-2.565723419E0,1.736008763E0,-1.532552719E0
4.694002136E0,-3.006767750E0,2.084201574E0,-1.346849918E0
4.696349115E0,-3.427042723E0,2.388412237E0,-1.147707939E0
4.698695313E0,-3.817996025E0,2.633980036E0,-9.558963776E-1
4.701042396E0,-4.168632030E0,2.803800344E0,-7.970715761E-1
4.703390156E0,-4.454516888E0,2.872217178E0,-6.895594001E-1
4.705737136E0,-4.673206329E0,2.858778238E0,-6.419119239E-1
4.708083333E0,-4.817370415E0,2.786696196E0,-6.467988491E-1
4.710430365E0,-4.900448322E0,2.691401243E0,-6.895594001E-1
4.712778125E0,-4.923661232E0,2.594884634E0,-7.555328012E-1
4.715125104E0,-4.900448322E0,2.514250517E0,-8.263930678E-1
4.717471302E0,-4.829587936E0,2.460494280E0,-8.984751105E-1
4.719818333E0,-4.722075462E0,2.451942205E0,-9.607833028E-1
4.722166094E0,-4.585241795E0,2.494702816E0,-1.010874271E0
4.724513125E0,-4.410534859E0,2.586332560E0,-1.047526121E0
4.726859271E0,-4.197953701E0,2.731718302E0,-1.067073822E0
4.729206354E0,-3.941390753E0,2.900316954E0,-1.070739031E0
4.731554115E0,-3.646954060E0,3.068915606E0,-1.064630389E0
4.733901094E0,-3.329304218E0,3.233849049E0,-1.053634763E0
