"Time (s)","Gyroscope x (rad/s)","Gyroscope y (rad/s)","Gyroscope z (rad/s)"
1.572468700E-2,-1.501772739E-2,9.531399235E-3,6.777925789E-2
1.814375000E-2,-1.501772739E-2,9.531399235E-3,6.777925789E-2
2.056281200E-2,-1.501772739E-2,9.531399235E-3,6.777925789E-2
2.298125000E-2,-1.501772739E-2,9.531399235E-3,6.777925789E-2
2.540114600E-2,-1.501772739E-2,9.531399235E-3,6.777925789E-2
2.782026000E-2,-1.501772739E-2,9.531399235E-3,6.777925789E-2
3.023859300E-2,-1.501772739E-2,9.531399235E-3,6.777925789E-2
3.265770800E-2,-1.501772739E-2,9.531399235E-3,6.777925789E-2
3.507765600E-2,-1.501772739E-2,9.531399235E-3,6.777925789E-2
3.749677100E-2,-1.501772739E-2,9.531399235E-3,6.777925789E-2
3.991510400E-2,-1.501772739E-2,9.531399235E-3,6.777925789E-2
4.233421800E-2,-1.501772739E-2,9.531399235E-3,6.777925789E-2
4.475411400E-2,-1.501772739E-2,9.531399235E-3,6.777925789E-2
4.717322900E-2,-1.501772739E-2,9.531399235E-3,6.777925789E-2
4.959156200E-2,-1.501772739E-2,9.531399235E-3,6.777925789E-2
5.201072900E-2,-1.501772739E-2,9.531399235E-3,6.777925789E-2
5.443062500E-2,-1.501772739E-2,9.531399235E-3,6.777925789E-2
5.684973900E-2,-1.501772739E-2,9.531399235E-3,6.777925789E-2
5.926807300E-2,-1.501772739E-2,9.531399235E-3,6.777925789E-2
6.168718700E-2,-1.501772739E-2,9.531399235E-3,6.777925789E-2
6.410708300E-2,-1.501772739E-2,9.531399235E-3,6.777925789E-2
6.652619800E-2,-1.501772739E-2,9.531399235E-3,6.777925789E-2
6.894453100E-2,-1.501772739E-2,-5.766372010E-2,6.716839969E-2
7.136369800E-2,-1.868291385E-2,-5.583113059E-2,6.533579528E-2
7.378359300E-2,-1.990464516E-2,-5.705285445E-2,6.472493708E-2
7.620270800E-2,-2.112637274E-2,-5.644198880E-2,6.350320578E-2
7.862104100E-2,-2.295896783E-2,-5.522026494E-2,6.228147447E-2
8.104015600E-2,-2.479156293E-2,-5.338766798E-2,6.044888496E-2
8.346005200E-2,-2.601329051E-2,-5.155507103E-2,5.922715366E-2
8.587916600E-2,-2.784588560E-2,-4.544642940E-2,5.861628801E-2
8.829750000E-2,-2.906761505E-2,-4.239210114E-2,5.678369105E-2
9.071666600E-2,-3.028934449E-2,-3.994864598E-2,5.372937024E-2
9.313656200E-2,-3.151107579E-2,-3.567259386E-2,5.372937024E-2
9.555567700E-2,-3.395453468E-2,-3.078567237E-2,5.434023589E-2
9.797401000E-2,-3.456539661E-2,-3.017481044E-2,5.434023589E-2
1.003931250E-1,-3.517626226E-2,-2.650962025E-2,5.495109409E-2
1.028130210E-1,-3.823059052E-2,-2.528789081E-2,5.495109409E-2
1.052321350E-1,-4.067404568E-2,-2.223356813E-2,5.434023589E-2
1.076504680E-1,-4.311750829E-2,-1.979010925E-2,5.311850458E-2
1.100696350E-1,-4.556096345E-2,-1.979010925E-2,5.434023589E-2
1.124895310E-1,-4.800442606E-2,-1.856837794E-2,5.372937024E-2
1.149086460E-1,-5.166961253E-2,-1.734665036E-2,5.372937024E-2
1.173269790E-1,-5.533479899E-2,-1.979010925E-2,5.434023589E-2
1.197460930E-1,-5.533479899E-2,-2.223356813E-2,5.311850458E-2
1.221659890E-1,-5.716739595E-2,-2.284443192E-2,5.311850458E-2
1.245851040E-1,-6.022171676E-2,-2.406616136E-2,5.250763893E-2
1.270034370E-1,-6.266517937E-2,-2.712048590E-2,5.311850458E-2
1.294226040E-1,-6.694123149E-2,-2.895307913E-2,5.434023589E-2
1.318425000E-1,-6.877382100E-2,-3.261826560E-2,5.372937024E-2
1.342616140E-1,-7.182814926E-2,-3.445086256E-2,5.128590763E-2
1.366799480E-1,-7.549333572E-2,-3.689431772E-2,5.128590763E-2
1.390990620E-1,-7.915852219E-2,-3.872691467E-2,4.945331812E-2
1.415189580E-1,-8.099111915E-2,-4.422469810E-2,5.006418377E-2
1.439380730E-1,-8.343457431E-2,-4.422469810E-2,4.823158681E-2
1.463564060E-1,-8.587803692E-2,-4.850075021E-2,4.762072116E-2
1.487755210E-1,-8.893235773E-2,-5.094421282E-2,4.578812420E-2
1.511954680E-1,-9.198667854E-2,-5.399853364E-2,4.456640035E-2
1.536145830E-1,-9.565187246E-2,-5.460939929E-2,4.151207209E-2
1.560329160E-1,-9.931705892E-2,-5.827458575E-2,4.151207209E-2
1.584520310E-1,-1.023713797E-1,-6.193977222E-2,3.906861693E-2
1.608719270E-1,-1.054257080E-1,-6.621582061E-2,3.906861693E-2
1.632910410E-1,-1.090908945E-1,-6.865928322E-2,3.723601997E-2
1.657093750E-1,-1.127560809E-1,-7.232446969E-2,3.723601997E-2
1.681284890E-1,-1.151995435E-1,-7.660052180E-2,3.845775127E-2
1.705484370E-1,-1.170321330E-1,-8.270917088E-2,3.662515432E-2
1.729675520E-1,-1.200864613E-1,-8.698522300E-2,3.662515432E-2
1.753858850E-1,-1.219190508E-1,-9.370473772E-2,3.418169916E-2
1.778050000E-1,-1.237516478E-1,-9.859165549E-2,3.479256481E-2
1.802248960E-1,-1.274168342E-1,-1.040894389E-1,3.479256481E-2
1.826440100E-1,-1.298602968E-1,-1.089763567E-1,3.418169916E-2
1.850623430E-1,-1.335254759E-1,-1.126415431E-1,3.418169916E-2
1.874814580E-1,-1.365797967E-1,-1.181393266E-1,3.601429611E-2
1.899014060E-1,-1.378015280E-1,-1.248588413E-1,3.418169916E-2
1.923205210E-1,-1.426884383E-1,-1.297457516E-1,3.295996785E-2
1.947388540E-1,-1.469645053E-1,-1.334109455E-1,3.357083350E-2
1.971579680E-1,-1.518514156E-1,-1.382978559E-1,3.112737648E-2
1.995778640E-1,-1.555166095E-1,-1.437956393E-1,2.990564518E-2
2.019969790E-1,-1.610143930E-1,-1.468499601E-1,2.868391760E-2
2.044153120E-1,-1.677338928E-1,-1.535694748E-1,2.685132064E-2
2.068344270E-1,-1.781186014E-1,-1.602889895E-1,2.379699983E-2
2.092543750E-1,-1.854489744E-1,-1.676193625E-1,2.074267529E-2
2.116734890E-1,-1.952228099E-1,-1.731171459E-1,1.768835075E-2
2.140918230E-1,-2.074401081E-1,-1.804475188E-1,1.341229863E-2
2.165109370E-1,-2.208791226E-1,-1.871670336E-1,1.157970540E-2
2.189308330E-1,-2.343181521E-1,-1.951082796E-1,3.638463095E-3
2.213499480E-1,-2.489789128E-1,-2.048821151E-1,-6.375890225E-4
2.237682810E-1,-2.654722631E-1,-2.146559507E-1,-6.135372445E-3
2.261873960E-1,-2.813547552E-1,-2.256515026E-1,-1.224401966E-2
2.286073430E-1,-2.972372472E-1,-2.354253531E-1,-1.835266687E-2
2.310264580E-1,-3.131197095E-1,-2.421448529E-1,-2.446131408E-2
2.334447910E-1,-3.308348060E-1,-2.482535094E-1,-3.179169074E-2
2.358639060E-1,-3.454955518E-1,-2.555839121E-1,-3.790033609E-2
2.382838020E-1,-3.589345813E-1,-2.598599494E-1,-4.400898516E-2
2.407029160E-1,-3.711518645E-1,-2.610816956E-1,-5.011763424E-2
2.431212500E-1,-3.821474314E-1,-2.635251582E-1,-5.622628331E-2
2.455403640E-1,-3.961973190E-1,-2.629142702E-1,-6.233492494E-2
2.479603120E-1,-4.071928859E-1,-2.592490911E-1,-6.844356656E-2
2.503794270E-1,-4.200210571E-1,-2.531404495E-1,-7.394134998E-2
2.527977600E-1,-4.346818030E-1,-2.384796739E-1,-8.127173036E-2
2.552168750E-1,-4.505642951E-1,-2.317601591E-1,-8.799123764E-2
2.576367710E-1,-4.652250409E-1,-2.366470695E-1,-9.532162547E-2
2.600558850E-1,-4.798857868E-1,-2.421448529E-1,-1.026519984E-1
2.624742180E-1,-4.957682788E-1,-2.476426512E-1,-1.093715131E-1
2.648933330E-1,-5.104290247E-1,-2.525295913E-1,-1.173127443E-1
2.673132810E-1,-5.257006288E-1,-2.568056285E-1,-1.234214008E-1
2.697323960E-1,-5.415831208E-1,-2.629142702E-1,-1.319735050E-1
2.721507290E-1,-5.592981577E-1,-2.702446580E-1,-1.411364675E-1
2.745698430E-1,-5.757915378E-1,-2.763532996E-1,-1.484668404E-1
2.769897390E-1,-5.916740298E-1,-2.849054039E-1,-1.588515490E-1
2.794088540E-1,-6.057239175E-1,-2.946792543E-1,-1.680145115E-1
2.818271870E-1,-6.191629171E-1,-3.044530749E-1,-1.771774888E-1
2.842463020E-1,-6.301584840E-1,-3.136160672E-1,-1.845078617E-1
2.866662500E-1,-6.399323344E-1,-3.209464252E-1,-1.924491078E-1
2.890853640E-1,-6.472626925E-1,-3.264442086E-1,-2.003903538E-1
2.915036980E-1,-6.521496177E-1,-3.294985294E-1,-2.077207267E-1
2.939228120E-1,-6.545930505E-1,-3.325528800E-1,-2.156619728E-1
2.963427080E-1,-6.570365429E-1,-3.343854547E-1,-2.236032039E-1
2.987618230E-1,-6.570365429E-1,-3.362180591E-1,-2.291009873E-1
3.011801560E-1,-6.570365429E-1,-3.368289173E-1,-2.364313602E-1
3.035992710E-1,-6.576473713E-1,-3.392723799E-1,-2.400965542E-1
3.060191660E-1,-6.570365429E-1,-3.417158425E-1,-2.449834794E-1
3.084383330E-1,-6.564256549E-1,-3.423267007E-1,-2.498703897E-1
3.108566660E-1,-6.570365429E-1,-3.417158425E-1,-2.529247105E-1
3.132757810E-1,-6.582582593E-1,-3.435484171E-1,-2.596442401E-1
3.156956770E-1,-6.594799757E-1,-3.435484171E-1,-2.651420236E-1
3.181147910E-1,-6.607016921E-1,-3.423267007E-1,-2.706398070E-1
3.205331250E-1,-6.625342965E-1,-3.429375589E-1,-2.736941278E-1
3.229522390E-1,-6.643669009E-1,-3.453810215E-1,-2.816353440E-1
3.253721350E-1,-6.637560129E-1,-3.472136259E-1,-2.865222692E-1
3.277913020E-1,-6.637560129E-1,-3.508788049E-1,-2.926309109E-1
3.302096350E-1,-6.637560129E-1,-3.539331257E-1,-2.975178361E-1
3.326287500E-1,-6.619234681E-1,-3.569874465E-1,-3.030156195E-1
3.350486460E-1,-6.600908637E-1,-3.630960882E-1,-3.060699403E-1
3.374677600E-1,-6.582582593E-1,-3.649286926E-1,-3.103460073E-1
3.398860930E-1,-6.552039385E-1,-3.722590804E-1,-3.121785820E-1
3.423052080E-1,-6.527604461E-1,-3.759242594E-1,-3.121785820E-1
3.447251040E-1,-6.503170133E-1,-3.832546473E-1,-3.152329028E-1
3.471442710E-1,-6.497061253E-1,-3.887524307E-1,-3.164546490E-1
3.495626040E-1,-6.503170133E-1,-3.954719305E-1,-3.188981116E-1
3.519817180E-1,-6.515387297E-1,-4.021914303E-1,-3.182872534E-1
3.544016140E-1,-6.521496177E-1,-4.070783556E-1,-3.213415742E-1
3.568207290E-1,-6.521496177E-1,-4.119652808E-1,-3.231741488E-1
3.592390620E-1,-6.552039385E-1,-4.168522060E-1,-3.262284696E-1
3.616581770E-1,-6.588691473E-1,-4.217391014E-1,-3.292827904E-1
3.640780730E-1,-6.631451845E-1,-4.260151684E-1,-3.298936784E-1
3.664972390E-1,-6.686429381E-1,-4.284586310E-1,-3.341697156E-1
3.689155730E-1,-6.741407514E-1,-4.290694892E-1,-3.402783573E-1
3.713346870E-1,-6.808602214E-1,-4.266260266E-1,-3.469978869E-1
3.737545830E-1,-6.869689226E-1,-4.235717058E-1,-3.549391329E-1
3.761736980E-1,-6.942992806E-1,-4.186847806E-1,-3.628803492E-1
3.785920310E-1,-6.997970343E-1,-4.144087434E-1,-3.732650578E-1
3.810111460E-1,-7.052948475E-1,-4.089109600E-1,-3.830389082E-1
3.834310410E-1,-7.101817727E-1,-4.028023183E-1,-3.928127289E-1
3.858501560E-1,-7.144578099E-1,-3.966936469E-1,-4.038082957E-1
3.882684890E-1,-7.144578099E-1,-3.881415427E-1,-4.160256088E-1
3.906876560E-1,-7.144578099E-1,-3.814220428E-1,-4.276320338E-1
3.931075520E-1,-7.144578099E-1,-3.759242594E-1,-4.380167127E-1
3.955266660E-1,-7.144578099E-1,-3.698156178E-1,-4.484014213E-1
3.979450000E-1,-7.120143771E-1,-3.637069762E-1,-4.600078464E-1
4.003641140E-1,-7.083491683E-1,-3.618743718E-1,-4.685599506E-1
4.027840100E-1,-7.052948475E-1,-3.588200510E-1,-4.795555174E-1
4.052031250E-1,-7.004079223E-1,-3.582091928E-1,-4.899402261E-1
4.076214580E-1,-6.961318851E-1,-3.582091928E-1,-4.972706139E-1
4.100406250E-1,-6.906340718E-1,-3.582091928E-1,-5.046010017E-1
4.124605210E-1,-6.845254302E-1,-3.600417674E-1,-5.107096434E-1
4.148796350E-1,-6.820819974E-1,-3.594309092E-1,-5.174291730E-1
4.172979680E-1,-6.796385050E-1,-3.575983047E-1,-5.229269862E-1
4.197170830E-1,-6.735298634E-1,-3.588200510E-1,-5.278139114E-1
4.221369790E-1,-6.692538261E-1,-3.563765883E-1,-5.314790606E-1
4.245560930E-1,-6.668103337E-1,-3.521005511E-1,-5.363659859E-1
4.269744270E-1,-6.607016921E-1,-3.502679467E-1,-5.406420827E-1
4.293935930E-1,-6.558148265E-1,-3.484353423E-1,-5.479724407E-1
4.318134890E-1,-6.503170133E-1,-3.459918797E-1,-5.571354032E-1
4.342326040E-1,-6.448192596E-1,-3.472136259E-1,-5.681309700E-1
4.366509370E-1,-6.356562376E-1,-3.466027677E-1,-5.779048204E-1
4.390700520E-1,-6.271041632E-1,-3.472136259E-1,-5.876786709E-1
4.414899480E-1,-6.173303127E-1,-3.466027677E-1,-5.962307453E-1
4.439090620E-1,-6.069456339E-1,-3.466027677E-1,-6.035611033E-1
4.463273960E-1,-5.965608954E-1,-3.466027677E-1,-6.108915210E-1
4.487465100E-1,-5.849545002E-1,-3.514896631E-1,-6.145566702E-1
4.511664580E-1,-5.751806498E-1,-3.533222675E-1,-6.115023494E-1
4.535855730E-1,-5.654067993E-1,-3.551548719E-1,-6.139458418E-1
4.560039060E-1,-5.592981577E-1,-3.594309092E-1,-6.194435954E-1
4.584230210E-1,-5.550221205E-1,-3.643178344E-1,-6.273848414E-1
4.608429160E-1,-5.501351953E-1,-3.679830134E-1,-6.334934831E-1
4.632620310E-1,-5.458591580E-1,-3.734807968E-1,-6.371586919E-1
4.656803640E-1,-5.421939492E-1,-3.777568638E-1,-6.420456171E-1
4.680994790E-1,-5.397505164E-1,-3.856981099E-1,-6.438782215E-1
4.705194270E-1,-5.379179120E-1,-3.973045349E-1,-6.457107663E-1
4.729385410E-1,-5.342527032E-1,-4.070783556E-1,-6.450999379E-1
4.753568750E-1,-5.318092704E-1,-4.217391014E-1,-6.438782215E-1
4.777759890E-1,-5.305875540E-1,-4.388433397E-1,-6.432673335E-1
4.801958850E-1,-5.287549496E-1,-4.528932273E-1,-6.408239007E-1
4.826150000E-1,-5.238680243E-1,-4.706082940E-1,-6.377695203E-1
4.850333330E-1,-5.202028155E-1,-4.877125025E-1,-6.353260875E-1
4.874524480E-1,-5.159267783E-1,-5.066492558E-1,-6.286065578E-1
4.898723960E-1,-5.092072487E-1,-5.280295014E-1,-6.218870878E-1
4.922915100E-1,-5.018768907E-1,-5.530749559E-1,-6.163892746E-1
4.947098430E-1,-4.951573908E-1,-5.683465600E-1,-6.115023494E-1
4.971289580E-1,-4.878270328E-1,-5.768986940E-1,-6.078372002E-1
4.995488540E-1,-4.774423242E-1,-5.842290521E-1,-6.035611033E-1
5.019679680E-1,-4.688902199E-1,-5.903376937E-1,-5.992850661E-1
5.043863020E-1,-4.572837949E-1,-5.988898277E-1,-5.943981409E-1
5.068054160E-1,-4.450665116E-1,-6.056093574E-1,-5.889003873E-1
5.092253120E-1,-4.346818030E-1,-6.159940362E-1,-5.827917457E-1
5.116444790E-1,-4.249079525E-1,-6.245461702E-1,-5.748504996E-1
5.140628120E-1,-4.120798111E-1,-6.324873567E-1,-5.669092536E-1
5.164819270E-1,-4.016951025E-1,-6.447046995E-1,-5.614114404E-1
5.189018230E-1,-3.864234984E-1,-6.813565493E-1,-5.699635744E-1
5.213209370E-1,-3.735953271E-1,-7.210627794E-1,-5.913438201E-1
5.237392710E-1,-3.632106185E-1,-7.118998170E-1,-5.937873125E-1
5.261583850E-1,-3.497715890E-1,-6.838000417E-1,-5.772939324E-1
5.285782810E-1,-3.320565224E-1,-6.673066616E-1,-5.565245152E-1
5.309974480E-1,-3.076219261E-1,-6.618089080E-1,-5.381985903E-1
5.334157810E-1,-2.837982178E-1,-6.593654156E-1,-5.235378742E-1
5.358348960E-1,-2.581419051E-1,-6.599763036E-1,-5.107096434E-1
5.382547910E-1,-2.337072939E-1,-6.557002664E-1,-4.997140765E-1
5.406739060E-1,-2.135487497E-1,-6.483698487E-1,-4.826098382E-1
5.430922390E-1,-1.891141683E-1,-6.416503787E-1,-4.593969882E-1
5.455113540E-1,-1.732316762E-1,-6.300439239E-1,-4.477905631E-1
5.479312500E-1,-1.646795720E-1,-6.092745066E-1,-4.551209509E-1
5.503504160E-1,-1.518514156E-1,-5.830073357E-1,-4.716142714E-1
5.527687500E-1,-1.384123862E-1,-5.567401648E-1,-4.838315845E-1
5.551878640E-1,-1.274168342E-1,-5.292512178E-1,-4.936054051E-1
5.576077600E-1,-1.176429987E-1,-5.029841065E-1,-4.984923303E-1
5.600268750E-1,-1.048148423E-1,-4.779386818E-1,-5.027683973E-1
5.624452080E-1,-9.626273066E-2,-4.559475482E-1,-5.070444942E-1
5.648643230E-1,-8.648889512E-2,-4.412867725E-1,-5.143748522E-1
5.672842180E-1,-7.854765654E-2,-4.522823393E-1,-5.272030234E-1
5.697033330E-1,-6.755209714E-2,-5.035949349E-1,-5.669092536E-1
5.721216660E-1,-7.121728361E-2,-4.919885695E-1,-6.047828794E-1
5.745408330E-1,-6.938468665E-2,-4.657213688E-1,-6.450999379E-1
5.769607290E-1,-6.510863453E-2,-4.596127272E-1,-6.780866385E-1
5.793798430E-1,-6.694123149E-2,-4.083001018E-1,-6.670910716E-1
5.817981770E-1,-6.877382100E-2,-3.459918797E-1,-6.231088042E-1
5.842172910E-1,-6.510863453E-2,-3.154486418E-1,-5.724070072E-1
5.866371870E-1,-5.716739595E-2,-3.166703880E-1,-5.333116651E-1
5.890563020E-1,-4.678269476E-2,-3.276659548E-1,-5.119314194E-1
5.914746350E-1,-3.700885922E-2,-3.386615217E-1,-5.015466809E-1
5.938938020E-1,-2.662415616E-2,-3.490462005E-1,-4.978814721E-1
5.963136980E-1,-1.562859118E-2,-3.514896631E-1,-4.942162931E-1
5.987328120E-1,-4.633027129E-3,-3.478244841E-1,-4.905510843E-1
6.011511460E-1,5.751672201E-3,-3.417158425E-1,-4.856641591E-1
6.035702600E-1,1.430378016E-2,-3.349963129E-1,-4.752794802E-1
6.059901560E-1,2.285588533E-2,-3.356072009E-1,-4.587861300E-1
6.084092710E-1,2.713193744E-2,-3.325528800E-1,-4.441253841E-1
6.108276040E-1,2.896453440E-2,-3.337745965E-1,-4.221342504E-1
6.132467710E-1,3.079712577E-2,-3.331637383E-1,-4.129712582E-1
6.156666660E-1,2.407761663E-2,-3.276659548E-1,-4.288537502E-1
6.180857810E-1,2.163415775E-2,-3.148377836E-1,-4.569535255E-1
6.205041140E-1,2.163415775E-2,-2.940683961E-1,-4.807772636E-1
6.229232290E-1,2.407761663E-2,-2.745207250E-1,-4.954380095E-1
6.253431250E-1,2.652107552E-2,-2.506969869E-1,-5.033792853E-1
6.277622390E-1,3.201885521E-2,-2.317601591E-1,-5.076553226E-1
6.301805730E-1,3.507317603E-2,-2.195428610E-1,-5.064336061E-1
6.325997390E-1,3.812750429E-2,-2.073255628E-1,-5.039901733E-1
6.350196350E-1,3.996009380E-2,-2.024386525E-1,-5.039901733E-1
6.374387500E-1,4.484701157E-2,-2.488643676E-1,-5.168183446E-1
6.398570830E-1,5.462085456E-2,-3.032313585E-1,-5.473615527E-1
6.422761980E-1,4.729047418E-2,-2.592490911E-1,-5.540810823E-1
6.446960930E-1,4.057095945E-2,-1.902213544E-1,-5.375877619E-1
6.471152080E-1,3.873836994E-2,-1.456282288E-1,-5.149857402E-1
6.495335410E-1,3.873836994E-2,-1.273022890E-1,-4.936054051E-1
6.519526560E-1,4.301442206E-2,-1.266914308E-1,-4.746686220E-1
6.543726040E-1,4.729047418E-2,-1.346326768E-1,-4.600078464E-1
6.567917180E-1,5.217739195E-2,-1.382978559E-1,-4.484014213E-1
6.592100520E-1,5.584257841E-2,-1.389087290E-1,-4.404601753E-1
6.616291660E-1,6.072949618E-2,-1.468499601E-1,-4.361841381E-1
6.640490620E-1,6.622727960E-2,-1.541803330E-1,-4.312972128E-1
6.664681770E-1,6.989247352E-2,-1.584563851E-1,-4.251885712E-1
6.688865100E-1,6.928160787E-2,-1.645650417E-1,-4.221342504E-1
6.713056250E-1,7.172506303E-2,-1.749497354E-1,-4.160256088E-1
6.737255730E-1,6.989247352E-2,-1.786149293E-1,-4.123604000E-1
6.761446870E-1,6.622727960E-2,-1.810583919E-1,-4.111386836E-1
6.785630210E-1,6.378382444E-2,-1.828909814E-1,-4.093060791E-1
6.809821350E-1,6.072949618E-2,-1.859453022E-1,-4.050300419E-1
6.834020310E-1,5.889690667E-2,-1.877778918E-1,-4.013648331E-1
6.858211460E-1,5.645344406E-2,-1.914430857E-1,-3.964779377E-1
6.882394790E-1,5.462085456E-2,-1.969408691E-1,-3.915910125E-1
6.906585930E-1,5.095566064E-2,-1.987734586E-1,-3.854823709E-1
6.930785410E-1,5.156652629E-2,-1.999951899E-1,-3.799845874E-1
6.954976560E-1,5.400998890E-2,-1.975517273E-1,-3.757085204E-1
6.979159890E-1,5.462085456E-2,-1.957191378E-1,-3.732650578E-1
7.003351040E-1,5.706430972E-2,-1.938865483E-1,-3.714324832E-1
7.027550000E-1,5.767517537E-2,-1.883887649E-1,-3.671564162E-1
7.051741140E-1,5.462085456E-2,-1.743388772E-1,-3.616586328E-1
7.075924480E-1,5.400998890E-2,-1.786149293E-1,-3.592151701E-1
7.100115620E-1,5.706430972E-2,-1.847235709E-1,-3.598260283E-1
7.124315100E-1,5.828604102E-2,-1.908322275E-1,-3.579934537E-1
7.148506250E-1,5.706430972E-2,-1.957191378E-1,-3.567717075E-1
7.172689580E-1,5.767517537E-2,-1.993843317E-1,-3.543282449E-1
7.196880730E-1,5.706430972E-2,-2.061038315E-1,-3.549391329E-1
7.221079680E-1,5.828604102E-2,-2.158776820E-1,-3.561608493E-1
7.245270830E-1,6.011863798E-2,-2.158776820E-1,-3.543282449E-1
7.269454160E-1,6.011863798E-2,-2.103798985E-1,-3.549391329E-1
7.293645310E-1,6.072949618E-2,-2.054929733E-1,-3.555499911E-1
7.317844790E-1,6.072949618E-2,-2.024386525E-1,-3.561608493E-1
7.342035930E-1,5.950777233E-2,-1.999951899E-1,-3.543282449E-1
7.366219270E-1,5.950777233E-2,-2.012169212E-1,-3.518848121E-1
7.390410410E-1,5.767517537E-2,-1.975517273E-1,-3.476087451E-1
7.414609370E-1,5.217739195E-2,-1.810583919E-1,-3.408892453E-1
7.438800520E-1,5.462085456E-2,-1.859453022E-1,-3.390566409E-1
7.462983850E-1,5.767517537E-2,-2.012169212E-1,-3.384457827E-1
7.487175000E-1,6.317295879E-2,-2.158776820E-1,-3.323371410E-1
7.511374480E-1,6.744901091E-2,-2.280949652E-1,-3.250067532E-1
7.535565620E-1,7.050333172E-2,-2.372579426E-1,-3.231741488E-1
7.559748960E-1,6.989247352E-2,-2.482535094E-1,-3.231741488E-1
7.583940100E-1,7.172506303E-2,-2.519187033E-1,-3.231741488E-1
7.608139060E-1,7.355765998E-2,-2.494752556E-1,-3.219524324E-1
7.632330210E-1,7.416852564E-2,-2.482535094E-1,-3.207306862E-1
7.656513540E-1,8.088803291E-2,-3.203355670E-1,-3.341697156E-1
7.680704680E-1,1.212050989E-1,-4.046348929E-1,-4.025865793E-1
7.704903640E-1,1.340332776E-1,-3.710373342E-1,-4.459579587E-1
7.729095310E-1,1.224268302E-1,-2.213754505E-1,-4.282428920E-1
7.753278640E-1,1.089878157E-1,-1.370761245E-1,-3.738759160E-1
7.777469790E-1,9.921398014E-2,-1.358543932E-1,-3.231741488E-1
7.801668750E-1,8.333149552E-2,-1.505151540E-1,-2.853005528E-1
7.825859890E-1,7.844457775E-2,-1.908322275E-1,-2.724723816E-1
7.850043230E-1,8.149889857E-2,-2.390905321E-1,-2.749158442E-1
7.874234370E-1,8.516408503E-2,-2.647468746E-1,-2.798027694E-1
7.898433330E-1,8.882927895E-2,-2.751315832E-1,-2.791919112E-1
7.922625000E-1,9.188359976E-2,-2.769641876E-1,-2.755267024E-1
7.946808330E-1,9.677051753E-2,-2.751315832E-1,-2.706398070E-1
7.970999480E-1,1.016574353E-1,-2.708555162E-1,-2.681963444E-1
7.995198430E-1,1.028791666E-1,-2.690229416E-1,-2.639202774E-1
8.019389580E-1,1.010465696E-1,-2.671903372E-1,-2.614768147E-1
8.043572910E-1,9.982483834E-2,-2.690229416E-1,-2.596442401E-1
8.067764060E-1,9.860311449E-2,-2.739098668E-1,-2.547573149E-1
8.091963540E-1,1.004357040E-1,-2.794076204E-1,-2.529247105E-1
8.116154680E-1,9.921398014E-2,-2.824619710E-1,-2.498703897E-1
8.140338020E-1,9.921398014E-2,-2.849054039E-1,-2.449834794E-1
8.164529160E-1,1.004357040E-1,-2.897923291E-1,-2.419291437E-1
8.188728120E-1,1.010465696E-1,-3.020096421E-1,-2.370422333E-1
8.212919270E-1,1.004357040E-1,-3.062856793E-1,-2.321553081E-1
8.237102600E-1,9.982483834E-2,-3.050639629E-1,-2.278792560E-1
8.261293750E-1,9.921398014E-2,-3.001770377E-1,-2.254358083E-1
8.285493230E-1,1.010465696E-1,-2.983444333E-1,-2.217706144E-1
8.309684370E-1,1.016574353E-1,-2.959009707E-1,-2.168836892E-1
8.333867710E-1,1.028791666E-1,-2.952901125E-1,-2.119967788E-1
8.358058850E-1,1.065443531E-1,-2.922357917E-1,-2.083315849E-1
8.382257810E-1,1.083769500E-1,-2.928466499E-1,-2.040555328E-1
8.406448960E-1,1.102095395E-1,-2.910140753E-1,-2.022229433E-1
8.430632290E-1,1.126530021E-1,-2.916249335E-1,-2.010012120E-1
8.454823430E-1,1.169290468E-1,-2.904031873E-1,-1.991686225E-1
8.479022910E-1,1.205942407E-1,-2.904031873E-1,-1.979468912E-1
8.503214060E-1,1.236485615E-1,-2.904031873E-1,-1.961143017E-1
8.527397390E-1,1.260920316E-1,-2.922357917E-1,-1.948925704E-1
8.551588540E-1,1.303680837E-1,-2.916249335E-1,-1.961143017E-1
8.575787500E-1,1.346441358E-1,-2.934575379E-1,-1.942816973E-1
8.599978640E-1,1.376984566E-1,-2.940683961E-1,-1.948925704E-1
8.624161980E-1,1.419745088E-1,-2.959009707E-1,-1.961143017E-1
8.648353120E-1,1.456397027E-1,-2.983444333E-1,-1.979468912E-1
8.672552080E-1,1.505266279E-1,-3.038422167E-1,-1.973360181E-1
8.696743750E-1,1.548026800E-1,-3.087291420E-1,-1.979468912E-1
8.720927080E-1,1.603004485E-1,-3.154486418E-1,-1.985577494E-1
8.745118230E-1,1.657982320E-1,-3.209464252E-1,-1.991686225E-1
8.769317180E-1,1.700742990E-1,-3.258333504E-1,-2.010012120E-1
8.793508330E-1,1.743503511E-1,-3.301094174E-1,-1.997794807E-1
8.817691660E-1,1.780155301E-1,-3.362180591E-1,-2.003903538E-1
8.841882810E-1,1.847350448E-1,-3.417158425E-1,-1.997794807E-1
8.866081770E-1,1.890110970E-1,-3.490462005E-1,-2.022229433E-1
8.890273430E-1,1.963414699E-1,-3.551548719E-1,-2.040555328E-1
8.914456770E-1,2.024501264E-1,-3.569874465E-1,-2.028338015E-1
8.938647910E-1,2.048935741E-1,-3.472136259E-1,-1.936708391E-1
8.962846870E-1,2.042827159E-1,-3.001770377E-1,-1.747340262E-1
8.987038020E-1,2.171108723E-1,-2.794076204E-1,-1.612950116E-1
9.011221350E-1,2.439889163E-1,-3.362180591E-1,-1.710688472E-1
9.035412500E-1,2.635365725E-1,-3.777568638E-1,-1.875621825E-1
9.059611980E-1,2.769756019E-1,-3.905850053E-1,-2.003903538E-1
9.083803120E-1,2.861385643E-1,-3.936393261E-1,-2.071098536E-1
9.107986460E-1,2.953015566E-1,-3.911958933E-1,-2.064989954E-1
9.132177600E-1,3.062971234E-1,-3.942502141E-1,-2.052772641E-1
9.156376560E-1,3.172926605E-1,-3.985262513E-1,-1.997794807E-1
9.180567710E-1,3.295099735E-1,-4.052457809E-1,-1.961143017E-1
9.204751040E-1,3.417272568E-1,-4.101326764E-1,-1.906165183E-1
9.228942180E-1,3.539445698E-1,-4.156304598E-1,-1.838970035E-1
9.253141660E-1,3.643292487E-1,-4.205173850E-1,-1.771774888E-1
9.277332810E-1,3.753248155E-1,-4.266260266E-1,-1.704579741E-1
9.301516140E-1,3.881529868E-1,-4.351781309E-1,-1.631276011E-1
9.325707290E-1,3.991485536E-1,-4.425085187E-1,-1.539646238E-1
9.349906250E-1,4.101441205E-1,-4.492280185E-1,-1.484668404E-1
9.374097390E-1,4.199179411E-1,-4.583910108E-1,-1.405256093E-1
9.398280730E-1,4.266374707E-1,-4.675539732E-1,-1.319735050E-1
9.422471870E-1,4.327461123E-1,-4.748843312E-1,-1.215887964E-1
9.446671350E-1,4.364112914E-1,-4.809930027E-1,-1.124258339E-1
9.470862500E-1,4.376330376E-1,-4.871016443E-1,-1.032628566E-1
9.495045830E-1,4.364112914E-1,-4.895451069E-1,-9.287816286E-2
9.519236980E-1,4.351895750E-1,-4.883233607E-1,-8.310432732E-2
9.543435930E-1,4.327461123E-1,-4.901559651E-1,-7.577395439E-2
9.567627080E-1,4.284700453E-1,-4.871016443E-1,-6.966529787E-2
9.591810410E-1,4.241940081E-1,-4.828255773E-1,-6.477838755E-2
9.616001560E-1,4.186962247E-1,-4.791603982E-1,-6.111320108E-2
9.640201040E-1,4.131984413E-1,-4.754952192E-1,-5.561541766E-2
9.664392180E-1,4.083115160E-1,-4.718300104E-1,-5.256108940E-2
9.688575520E-1,4.046463370E-1,-4.693865776E-1,-4.645244032E-2
9.712766660E-1,4.009811282E-1,-4.644996524E-1,-4.095466435E-2
9.736965620E-1,3.991485536E-1,-4.614453316E-1,-3.545688093E-2
9.761156770E-1,3.960942328E-1,-4.577801228E-1,-3.118082695E-2
9.785340100E-1,3.948724866E-1,-4.547258019E-1,-2.507217787E-2
9.809531250E-1,3.930399120E-1,-4.528932273E-1,-2.140699141E-2
9.833730730E-1,3.905964494E-1,-4.528932273E-1,-1.529834326E-2
9.857921870E-1,3.887638450E-1,-4.522823393E-1,-1.163315494E-2
9.882105210E-1,3.863203824E-1,-4.535040855E-1,-7.967966609E-3
9.906296350E-1,3.875421286E-1,-4.541149437E-1,-4.302779213E-3
9.930495310E-1,3.844878078E-1,-4.522823393E-1,-1.859320328E-3
9.954686460E-1,3.844878078E-1,-4.516714811E-1,1.805869862E-3
9.978869790E-1,3.869312406E-1,-4.522823393E-1,5.471056327E-3
1.000306093E0,3.893747032E-1,-4.480063021E-1,7.914515212E-3
1.002726041E0,3.918181658E-1,-4.443411231E-1,1.096883975E-2
1.005145156E0,3.973159492E-1,-4.406759143E-1,1.341229863E-2
1.007563489E0,3.997594118E-1,-4.363998771E-1,1.585575752E-2
1.009982604E0,4.046463370E-1,-4.278477728E-1,1.891008206E-2
1.012402500E0,4.077006578E-1,-4.223499894E-1,2.013180964E-2
1.014821614E0,4.125875831E-1,-4.168522060E-1,2.257526852E-2
1.017239948E0,4.144201577E-1,-4.107435644E-1,2.685132064E-2
1.019659114E0,4.174744785E-1,-4.064674973E-1,2.868391760E-2
1.022079010E0,4.223614037E-1,-4.046348929E-1,2.929478325E-2
1.024498125E0,4.241940081E-1,-3.991371095E-1,3.112737648E-2
1.026916458E0,4.290809333E-1,-3.954719305E-1,3.234910220E-2
1.029335573E0,4.327461123E-1,-3.893632889E-1,3.357083350E-2
1.031755468E0,4.345786870E-1,-3.863089681E-1,3.479256481E-2
1.034174583E0,4.364112914E-1,-3.814220428E-1,3.723601997E-2
1.036592916E0,4.388547540E-1,-3.771460056E-1,3.784688562E-2
1.039012083E0,4.382438958E-1,-3.740916550E-1,4.151207209E-2
1.041431979E0,4.400764704E-1,-3.722590804E-1,4.395553470E-2
1.043851093E0,4.394656122E-1,-3.698156178E-1,4.700985551E-2
1.046269427E0,4.412982166E-1,-3.685938716E-1,5.006418377E-2
1.048688541E0,4.406873584E-1,-3.679830134E-1,5.372937024E-2
1.051108437E0,4.419090748E-1,-3.698156178E-1,5.739455670E-2
1.053527604E0,4.437416792E-1,-3.685938716E-1,6.044888496E-2
1.055945937E0,4.461851418E-1,-3.704264760E-1,6.472493708E-2
1.058365052E0,4.480177164E-1,-3.698156178E-1,6.839013100E-2
1.060784948E0,4.467960000E-1,-3.692047596E-1,7.266618311E-2
1.063204062E0,4.492394626E-1,-3.722590804E-1,7.633136213E-2
1.065622396E0,4.516829252E-1,-3.716482222E-1,7.938569784E-2
1.068041510E0,4.547372460E-1,-3.722590804E-1,8.366174996E-2
1.070461406E0,4.565698206E-1,-3.734807968E-1,8.732692897E-2
1.072880573E0,4.602350295E-1,-3.740916550E-1,8.854866028E-2
1.075298906E0,4.632893503E-1,-3.759242594E-1,9.038124979E-2
1.077718021E0,4.645110667E-1,-3.753134012E-1,9.160298109E-2
1.080137916E0,4.669545293E-1,-3.753134012E-1,9.404644370E-2
1.082557031E0,4.669545293E-1,-3.759242594E-1,9.587903321E-2
1.084975364E0,4.700088501E-1,-3.795894384E-1,9.710076451E-2
1.087394479E0,4.748957753E-1,-3.802003264E-1,9.587903321E-2
1.089814427E0,4.803935587E-1,-3.789785802E-1,9.648990631E-2
1.092233541E0,4.852804840E-1,-3.771460056E-1,9.526817501E-2
1.094651875E0,4.913891256E-1,-3.753134012E-1,9.404644370E-2
1.097070989E0,4.987194836E-1,-3.740916550E-1,9.526817501E-2
1.099490885E0,5.072716475E-1,-3.753134012E-1,9.832249582E-2
1.101910000E0,5.139911175E-1,-3.759242594E-1,1.019876897E-1
1.104328333E0,5.182672143E-1,-3.777568638E-1,1.050420105E-1
1.106747448E0,5.219323635E-1,-3.771460056E-1,1.080963314E-1
1.109167396E0,5.262084603E-1,-3.753134012E-1,1.111506522E-1
1.111586510E0,5.292627811E-1,-3.710373342E-1,1.105397940E-1
1.114004843E0,5.298736095E-1,-3.649286926E-1,1.105397940E-1
1.116423958E0,5.323171020E-1,-3.588200510E-1,1.105397940E-1
1.118843854E0,5.329279304E-1,-3.502679467E-1,1.105397940E-1
1.121262968E0,5.341497064E-1,-3.404940963E-1,1.080963314E-1
1.123681302E0,5.347605348E-1,-3.325528800E-1,1.050420105E-1
1.126100468E0,5.347605348E-1,-3.227790296E-1,1.025985479E-1
1.128520364E0,5.353714228E-1,-3.130052090E-1,9.771163762E-2
1.130939479E0,5.341497064E-1,-3.032313585E-1,8.915953338E-2
1.133357812E0,5.304844975E-1,-2.940683961E-1,8.060741425E-2
1.135776927E0,5.262084603E-1,-2.873488665E-1,6.961186230E-2
1.138196823E0,5.200998187E-1,-2.818510830E-1,5.617282540E-2
1.140615989E0,5.146020055E-1,-2.745207250E-1,3.967948258E-2
1.143034323E0,5.072716475E-1,-2.671903372E-1,2.318613417E-2
1.145453437E0,4.987194836E-1,-2.610816956E-1,7.303651422E-3
1.147873333E0,4.907782376E-1,-2.543621659E-1,-9.800560772E-3
1.150292448E0,4.822261631E-1,-2.464209050E-1,-2.507217787E-2
1.152710781E0,4.712305963E-1,-2.427557260E-1,-3.851120174E-2
1.155129896E0,4.602350295E-1,-2.390905321E-1,-5.011763424E-2
1.157549843E0,4.504611790E-1,-2.378688008E-1,-6.050233543E-2
1.159968958E0,4.388547540E-1,-2.323710173E-1,-7.027617097E-2
1.162387291E0,4.254157245E-1,-2.250406444E-1,-7.821740210E-2
1.164806406E0,4.107549787E-1,-2.201537341E-1,-8.738037944E-2
1.167226302E0,3.954833448E-1,-2.158776820E-1,-9.409989417E-2
1.169645416E0,3.808225989E-1,-2.128233463E-1,-1.002085358E-1
1.172063750E0,3.649401367E-1,-2.152668089E-1,-1.026519984E-1
1.174482864E0,3.496685028E-1,-2.146559507E-1,-1.050954610E-1
1.176902812E0,3.362294734E-1,-2.158776820E-1,-1.057063192E-1
1.179321927E0,3.215687275E-1,-2.195428610E-1,-1.057063192E-1
1.181740260E0,3.081296980E-1,-2.250406444E-1,-1.038737297E-1
1.184159375E0,2.934689522E-1,-2.305384278E-1,-1.008194089E-1
1.186579271E0,2.806407809E-1,-2.427557260E-1,-9.471075237E-2
1.188998385E0,2.653691769E-1,-2.519187033E-1,-8.921296895E-2
1.191416718E0,2.500975430E-1,-2.629142702E-1,-8.188259602E-2
1.193835885E0,2.360476851E-1,-2.739098668E-1,-7.333049178E-2
1.196255781E0,2.213869244E-1,-2.842945457E-1,-6.111320108E-2
1.198674896E0,2.073370367E-1,-2.946792543E-1,-4.767417163E-2
1.201093229E0,1.920654178E-1,-3.020096421E-1,-3.179169074E-2
1.203512343E0,1.749612093E-1,-3.068965375E-1,-1.774180308E-2
1.205932239E0,1.584678590E-1,-3.099508584E-1,-6.375890225E-4
1.208351406E0,1.438071132E-1,-3.099508584E-1,1.707748510E-2
1.210769739E0,1.285354942E-1,-3.081182837E-1,3.234910220E-2
1.213188854E0,1.132638678E-1,-3.062856793E-1,4.823158681E-2
1.215608750E0,9.738138318E-2,-2.989553213E-1,6.350320578E-2
1.218027864E0,8.272062987E-2,-2.916249335E-1,7.572050393E-2
1.220446198E0,6.989247352E-2,-2.867380083E-1,8.793780208E-2
1.222865312E0,5.706430972E-2,-2.806293666E-1,9.465730190E-2
1.225285260E0,4.606874287E-2,-2.763532996E-1,1.007659584E-1
1.227704375E0,3.690577298E-2,-2.684120834E-1,1.032094210E-1
1.230122708E0,2.835366875E-2,-2.641360164E-1,1.044311523E-1
1.232541823E0,2.163415775E-2,-2.610816956E-1,1.032094210E-1
1.234961718E0,1.674723998E-2,-2.580273747E-1,9.954422712E-2
1.237380833E0,1.491464395E-2,-2.568056285E-1,9.771163762E-2
1.239799166E0,1.491464395E-2,-2.561947703E-1,9.710076451E-2
1.242218333E0,1.674723998E-2,-2.543621659E-1,9.893336892E-2
1.244638229E0,2.285588533E-2,-2.531404495E-1,1.001550853E-1
1.247057343E0,3.262972087E-2,-2.537513077E-1,1.007659584E-1
1.249475677E0,4.362528771E-2,-2.549730539E-1,9.771163762E-2
1.251894791E0,5.889690667E-2,-2.549730539E-1,9.404644370E-2
1.254314739E0,7.600111514E-2,-2.574164867E-1,8.854866028E-2
1.256733854E0,9.615965188E-2,-2.586382329E-1,8.121828735E-2
1.259152187E0,1.193725094E-1,-2.598599494E-1,7.327704132E-2
1.261571302E0,1.425853819E-1,-2.604708076E-1,6.411407888E-2
1.263991198E0,1.645765156E-1,-2.580273747E-1,5.372937024E-2
1.266410312E0,1.871785074E-1,-2.561947703E-1,4.090121388E-2
1.268828646E0,2.110022306E-1,-2.519187033E-1,3.051651083E-2
1.271247760E0,2.317716330E-1,-2.488643676E-1,1.768835075E-2
1.273667708E0,2.513192892E-1,-2.451991886E-1,1.805869862E-3
1.276086823E0,2.720886767E-1,-2.427557260E-1,-1.346574910E-2
1.278505156E0,2.867494524E-1,-2.378688008E-1,-3.118082695E-2
1.280924271E0,3.007993400E-1,-2.348144799E-1,-4.889590293E-2
1.283344166E0,3.124057651E-1,-2.293166965E-1,-6.844356656E-2
1.285763281E0,3.227904439E-1,-2.250406444E-1,-8.799123764E-2
1.288181666E0,3.319534361E-1,-2.219863236E-1,-1.069280505E-1
1.290600781E0,3.417272568E-1,-2.158776820E-1,-1.264757216E-1
1.293020677E0,3.478358984E-1,-2.091581672E-1,-1.454125196E-1
1.295439791E0,3.533336818E-1,-2.006060630E-1,-1.637384593E-1
1.297858125E0,3.576097488E-1,-1.938865483E-1,-1.796209514E-1
1.300277239E0,3.637183905E-1,-1.828909814E-1,-1.930599660E-1
1.302697187E0,3.673835695E-1,-1.688410938E-1,-2.058881372E-1
1.305116302E0,3.722704947E-1,-1.529586017E-1,-2.144402415E-1
1.307534635E0,3.753248155E-1,-1.376869977E-1,-2.205488831E-1
1.309953750E0,3.783791363E-1,-1.205827743E-1,-2.223814726E-1
1.312373646E0,3.863203824E-1,-1.059220359E-1,-2.229923457E-1
1.314792760E0,3.912073076E-1,-9.431560338E-2,-2.205488831E-1
1.317211146E0,3.979268074E-1,-8.637436479E-2,-2.162728310E-1
1.319630260E0,4.009811282E-1,-8.148743957E-2,-2.095533162E-1
1.322050156E0,4.052571952E-1,-8.026571572E-2,-2.003903538E-1
1.324469271E0,4.070897996E-1,-7.965485007E-2,-1.869513243E-1
1.326887604E0,4.070897996E-1,-8.332003653E-2,-1.716797054E-1
1.329306718E0,4.040354788E-1,-9.431560338E-2,-1.521320343E-1
1.331726666E0,3.991485536E-1,-1.059220359E-1,-1.344169676E-1
1.334145781E0,3.936507702E-1,-1.236371100E-1,-1.105932444E-1
1.336564114E0,3.838769197E-1,-1.444064975E-1,-8.921296895E-2
1.338983229E0,3.747139573E-1,-1.682302207E-1,-6.722184271E-2
1.341403125E0,3.637183905E-1,-1.951082796E-1,-4.339811951E-2
1.343822239E0,3.527228236E-1,-2.244297862E-1,-2.018526010E-2
1.346240573E0,3.423381150E-1,-2.543621659E-1,3.027597442E-3
1.348659739E0,3.301208317E-1,-2.824619710E-1,2.257526852E-2
1.351079635E0,3.191252649E-1,-3.111726046E-1,4.334466904E-2
1.353498750E0,3.075188398E-1,-3.380506635E-1,6.289234757E-2
1.355917083E0,2.965232730E-1,-3.594309092E-1,7.938569784E-2
1.358336198E0,2.861385643E-1,-3.765351176E-1,9.404644370E-2
1.360756093E0,2.757538855E-1,-3.905850053E-1,1.056528836E-1
1.363175260E0,2.678126395E-1,-3.985262513E-1,1.166484356E-1
1.365593593E0,2.604822516E-1,-4.028023183E-1,1.270331442E-1
1.368012708E0,2.549844682E-1,-4.028023183E-1,1.331417859E-1
1.370432604E0,2.482649833E-1,-3.997479975E-1,1.386395693E-1
1.372851718E0,2.427671999E-1,-3.899741471E-1,1.447482258E-1
1.375270052E0,2.366585433E-1,-3.777568638E-1,1.484134048E-1
1.377689166E0,2.329933643E-1,-3.643178344E-1,1.545220613E-1
1.380109114E0,2.281064391E-1,-3.490462005E-1,1.581872404E-1
1.382528229E0,2.232195288E-1,-3.301094174E-1,1.606307030E-1
1.384946562E0,2.195543349E-1,-3.099508584E-1,1.649067551E-1
1.387365677E0,2.165000141E-1,-2.885706127E-1,1.691828072E-1
1.389785573E0,2.134456933E-1,-2.653577328E-1,1.685719490E-1
1.392204739E0,2.122239619E-1,-2.445883304E-1,1.667393446E-1
1.394623073E0,2.116130888E-1,-2.268732339E-1,1.630741656E-1
1.397042187E0,2.085587680E-1,-2.042712420E-1,1.587981135E-1
1.399462083E0,2.079479098E-1,-1.847235709E-1,1.526894569E-1
1.401881198E0,2.079479098E-1,-1.663976312E-1,1.484134048E-1
1.404299531E0,2.085587680E-1,-1.499042809E-1,1.423047632E-1
1.406718698E0,2.085587680E-1,-1.328000724E-1,1.355852485E-1
1.409138593E0,2.091696411E-1,-1.193610579E-1,1.276440024E-1
1.411557708E0,2.122239619E-1,-1.071437597E-1,1.172593087E-1
1.413976041E0,2.140565515E-1,-9.248300642E-2,1.068746001E-1
1.416395156E0,2.183326036E-1,-8.148743957E-2,9.832249582E-2
1.418815052E0,2.213869244E-1,-6.865928322E-2,8.854866028E-2
1.421234218E0,2.256629765E-1,-5.766372010E-2,7.816396654E-2
1.423652552E0,2.311607599E-1,-4.544642940E-2,6.777925789E-2
1.426071666E0,2.372694165E-1,-3.506172821E-2,5.861628801E-2
1.428491562E0,2.415454537E-1,-2.467702702E-2,4.700985551E-2
1.430910677E0,2.488758415E-1,-2.162270248E-2,3.601429611E-2
1.433329010E0,2.549844682E-1,-1.612491906E-2,2.562959306E-2
1.435748177E0,2.610931098E-1,-1.307059638E-2,1.463402994E-2
1.438168073E0,2.678126395E-1,-1.001627184E-2,1.805869862E-3
1.440587187E0,2.733104229E-1,-1.001627184E-2,-7.357101887E-3
1.443005521E0,2.769756019E-1,-1.184886694E-2,-1.957439631E-2
1.445424635E0,2.794190645E-1,-1.307059638E-2,-2.507217787E-2
1.447844583E0,2.818625271E-1,-2.223356813E-2,-3.362428397E-2
1.450263698E0,2.824733853E-1,-3.139653802E-2,-4.034379870E-2
1.452682031E0,2.794190645E-1,-4.055951163E-2,-4.767417163E-2
1.455101146E0,2.775864601E-1,-5.155507103E-2,-5.256108940E-2
1.457521041E0,2.775864601E-1,-6.682668626E-2,-5.928060412E-2
1.459940156E0,2.726995647E-1,-7.904398441E-2,-6.538925320E-2
1.462358489E0,2.690343559E-1,-9.126127511E-2,-6.905443966E-2
1.464777656E0,2.653691769E-1,-1.022568420E-1,-7.271962613E-2
1.467197552E0,2.653691769E-1,-1.095872223E-1,-7.271962613E-2
1.469616666E0,2.635365725E-1,-1.156958714E-1,-7.699567825E-2
1.472035000E0,2.610931098E-1,-1.175284609E-1,-7.821740210E-2
1.474454114E0,2.586496472E-1,-1.163067296E-1,-8.127173036E-2
1.476874062E0,2.562062144E-1,-1.156958714E-1,-8.188259602E-2
1.479293177E0,2.543736100E-1,-1.114198118E-1,-8.127173036E-2
1.481711510E0,2.537627518E-1,-1.077546254E-1,-7.943913341E-2
1.484130625E0,2.531518638E-1,-1.010351107E-1,-8.005000651E-2
1.486550521E0,2.519301474E-1,-9.431560338E-2,-8.005000651E-2
1.488969687E0,2.507084310E-1,-8.759608865E-2,-7.943913341E-2
1.491388021E0,2.482649833E-1,-7.965485007E-2,-7.760654390E-2
1.493807135E0,2.464323789E-1,-7.171360403E-2,-7.455222309E-2
1.496227031E0,2.445997745E-1,-6.499409676E-2,-7.210876048E-2
1.498646146E0,2.415454537E-1,-5.583113059E-2,-7.088702917E-2
1.501064479E0,2.378802747E-1,-4.605729133E-2,-6.905443966E-2
1.503483646E0,2.354368120E-1,-3.567259386E-2,-6.600011885E-2
1.505903541E0,2.323824912E-1,-2.528789081E-2,-6.294579059E-2
1.508322656E0,2.274955809E-1,-1.673578471E-2,-6.050233543E-2
1.510740989E0,2.219977975E-1,-7.572813425E-3,-5.805887282E-2
1.513160104E0,2.146674097E-1,3.422750626E-3,-5.500455201E-2
1.515580052E0,2.048935741E-1,1.625091024E-2,-5.072849989E-2
1.517999166E0,1.951197386E-1,3.152253106E-2,-4.523071647E-2
1.520417500E0,1.853459030E-1,4.862673953E-2,-4.034379870E-2
1.522836614E0,1.761829406E-1,6.206576154E-2,-3.545688093E-2
1.525256510E0,1.688525677E-1,7.611565292E-2,-3.118082695E-2
1.527675625E0,1.609113216E-1,9.016554058E-2,-2.934823185E-2
1.530094010E0,1.541918069E-1,1.048262939E-1,-2.446131408E-2
1.532513125E0,1.499157548E-1,1.200979128E-1,-2.079612575E-2
1.534933021E0,1.462505609E-1,1.384238601E-1,-1.835266687E-2
1.537352135E0,1.438071132E-1,1.561389416E-1,-1.590920798E-2
1.539770468E0,1.413636506E-1,1.750757396E-1,-1.529834326E-2
1.542189635E0,1.407527775E-1,1.921799630E-1,-1.713093743E-2
1.544609531E0,1.383093297E-1,2.105059028E-1,-1.652007177E-2
1.547028646E0,1.395310611E-1,2.282209843E-1,-1.774180308E-2
1.549446979E0,1.407527775E-1,2.447143197E-1,-2.201785520E-2
1.551866093E0,1.425853819E-1,2.593750358E-1,-2.446131408E-2
1.554286041E0,1.438071132E-1,2.722032070E-1,-2.995909564E-2
1.556705156E0,1.450288445E-1,2.783118486E-1,-3.545688093E-2
1.559123489E0,1.456397027E-1,2.874748111E-1,-3.851120174E-2
1.561542604E0,1.474722922E-1,2.929725945E-1,-4.461985081E-2
1.563962500E0,1.474722922E-1,2.978595197E-1,-5.011763424E-2
1.566381614E0,1.474722922E-1,3.027464449E-1,-5.683714151E-2
1.568800000E0,1.511374861E-1,3.070225120E-1,-6.172405928E-2
1.571219114E0,1.517483443E-1,3.112985492E-1,-6.477838755E-2
1.573639010E0,1.511374861E-1,3.149637282E-1,-6.783270836E-2
1.576058125E0,1.517483443E-1,3.192397952E-1,-7.210876048E-2
1.578476458E0,1.517483443E-1,3.216832578E-1,-7.394134998E-2
1.580895625E0,1.505266279E-1,3.253484368E-1,-7.333049178E-2
1.583315521E0,1.505266279E-1,3.277918994E-1,-7.333049178E-2
1.585734635E0,1.511374861E-1,3.320679367E-1,-7.271962613E-2
1.588152968E0,1.505266279E-1,3.375657201E-1,-7.149789482E-2
1.590572083E0,1.486940235E-1,3.424526453E-1,-6.905443966E-2
1.592992031E0,1.493048966E-1,3.473395705E-1,-6.661097705E-2
1.595411146E0,1.474722922E-1,3.552808166E-1,-6.600011885E-2
1.597829479E0,1.468614340E-1,3.613894582E-1,-6.477838755E-2
1.600248593E0,1.456397027E-1,3.674980998E-1,-6.233492494E-2
1.602668489E0,1.444179714E-1,3.687198460E-1,-5.989146978E-2
1.605087656E0,1.444179714E-1,3.729958832E-1,-5.683714151E-2
1.607505989E0,1.401419193E-1,3.815479875E-1,-5.317195505E-2
1.609925104E0,1.376984566E-1,3.870457709E-1,-5.133935809E-2
1.612345000E0,1.364767253E-1,3.901000917E-1,-5.011763424E-2
1.614764114E0,1.358658671E-1,3.913218379E-1,-4.645244032E-2
1.617182500E0,1.340332776E-1,3.937653005E-1,-4.400898516E-2
1.619601614E0,1.303680837E-1,3.962087333E-1,-4.156552255E-2
1.622021510E0,1.279246211E-1,4.004848003E-1,-3.912206739E-2
1.624440625E0,1.273137629E-1,4.053717256E-1,-3.790033609E-2
1.626858958E0,1.236485615E-1,4.145346880E-1,-3.606774658E-2
1.629278125E0,1.236485615E-1,4.224759340E-1,-3.484601527E-2
1.631698021E0,1.242594346E-1,4.328606427E-1,-3.423514962E-2
1.634117135E0,1.260920316E-1,4.438561797E-1,-3.179169074E-2
1.636535468E0,1.297572255E-1,4.530191720E-1,-3.118082695E-2
1.638954583E0,1.328115463E-1,4.591278136E-1,-2.934823185E-2
1.641374531E0,1.370875984E-1,4.658473134E-1,-2.812650241E-2
1.643793646E0,1.407527775E-1,4.670690596E-1,-2.812650241E-2
1.646211979E0,1.425853819E-1,4.701233804E-1,-2.568304352E-2
1.648631093E0,1.450288445E-1,4.719559848E-1,-2.385045029E-2
1.651050989E0,1.450288445E-1,4.725668430E-1,-2.079612575E-2
1.653470156E0,1.456397027E-1,4.756211638E-1,-1.835266687E-2
1.655888489E0,1.456397027E-1,4.737885594E-1,-1.468747854E-2
1.658307604E0,1.438071132E-1,4.731777012E-1,-9.800560772E-3
1.660727500E0,1.413636506E-1,4.737885594E-1,-7.967966609E-3
1.663146614E0,1.413636506E-1,4.731777012E-1,-3.081047907E-3
1.665565000E0,1.376984566E-1,4.756211638E-1,-1.248454675E-3
1.667984114E0,1.358658671E-1,4.743994176E-1,-6.375890225E-4
1.670404010E0,1.322006732E-1,4.750103056E-1,1.805869862E-3
1.672823125E0,1.315898150E-1,4.737885594E-1,1.805869862E-3
1.675241458E0,1.297572255E-1,4.707342386E-1,3.638463095E-3
1.677660625E0,1.279246211E-1,4.676799178E-1,4.860192537E-3
1.680080521E0,1.254811734E-1,4.646255970E-1,5.471056327E-3
1.682499635E0,1.260920316E-1,4.621821344E-1,4.249328747E-3
1.684917968E0,1.267028898E-1,4.566843510E-1,4.860192537E-3
1.687337083E0,1.279246211E-1,4.524083138E-1,6.081921980E-3
1.689757031E0,1.285354942E-1,4.487431049E-1,7.303651422E-3
1.692176146E0,1.303680837E-1,4.438561797E-1,8.525380865E-3
1.694594479E0,1.315898150E-1,4.383584261E-1,1.096883975E-2
1.697013593E0,1.352550089E-1,4.365258217E-1,1.341229863E-2
1.699433541E0,1.358658671E-1,4.316388965E-1,1.463402994E-2
1.701852656E0,1.370875984E-1,4.267519712E-1,1.829921640E-2
1.704270989E0,1.389201880E-1,4.230867922E-1,2.196440287E-2
1.706690104E0,1.383093297E-1,4.194216132E-1,2.562959306E-2
1.709110000E0,1.383093297E-1,4.151455462E-1,3.051651083E-2
1.711529166E0,1.383093297E-1,4.096477628E-1,3.601429611E-2
1.713947500E0,1.376984566E-1,4.072043002E-1,3.967948258E-2
1.716366614E0,1.389201880E-1,4.004848003E-1,4.517725855E-2
1.718786510E0,1.383093297E-1,3.943761587E-1,4.823158681E-2
1.721205625E0,1.407527775E-1,3.888783753E-1,5.311850458E-2
1.723624010E0,1.413636506E-1,3.839914501E-1,5.922715366E-2
1.726043125E0,1.431962401E-1,3.791045249E-1,6.228147447E-2
1.728463021E0,1.444179714E-1,3.723850250E-1,6.655752659E-2
1.730882135E0,1.450288445E-1,3.644437790E-1,7.022272050E-2
1.733300468E0,1.474722922E-1,3.558916748E-1,7.449877262E-2
1.735719635E0,1.480831653E-1,3.485612869E-1,7.755309343E-2
1.738139531E0,1.499157548E-1,3.400091827E-1,8.121828735E-2
1.740558646E0,1.486940235E-1,3.326788247E-1,8.427260816E-2
1.742976979E0,1.493048966E-1,3.229049742E-1,8.793780208E-2
1.745396146E0,1.499157548E-1,3.167963326E-1,9.160298109E-2
1.747816041E0,1.505266279E-1,3.082442284E-1,9.526817501E-2
1.750235156E0,1.486940235E-1,2.996921241E-1,9.710076451E-2
1.752653489E0,1.474722922E-1,2.911400199E-1,9.771163762E-2
1.755072604E0,1.468614340E-1,2.813661695E-1,9.832249582E-2
1.757492552E0,1.462505609E-1,2.764792740E-1,9.526817501E-2
1.759911666E0,1.444179714E-1,2.703706026E-1,9.710076451E-2
1.762330000E0,1.456397027E-1,2.667054236E-1,9.343558550E-2
1.764749114E0,1.462505609E-1,2.618184984E-1,9.343558550E-2
1.767169062E0,1.468614340E-1,2.557098567E-1,9.099212289E-2
1.769588177E0,1.450288445E-1,2.538772821E-1,9.099212289E-2
1.772006510E0,1.438071132E-1,2.496012449E-1,9.038124979E-2
1.774425625E0,1.413636506E-1,2.471577823E-1,8.732692897E-2
1.776845573E0,1.389201880E-1,2.434926033E-1,8.549433947E-2
1.779264687E0,1.376984566E-1,2.441034615E-1,8.366174996E-2
1.781683021E0,1.346441358E-1,2.428817451E-1,8.182914555E-2
1.784102135E0,1.315898150E-1,2.422708571E-1,8.060741425E-2
1.786522031E0,1.297572255E-1,2.410491407E-1,7.999655604E-2
1.788941198E0,1.260920316E-1,2.398273945E-1,7.816396654E-2
1.791359531E0,1.218159720E-1,2.404382825E-1,7.816396654E-2
1.793778646E0,1.205942407E-1,2.422708571E-1,7.755309343E-2
1.796198541E0,1.193725094E-1,2.447143197E-1,7.755309343E-2
1.798617708E0,1.181507781E-1,2.471577823E-1,7.938569784E-2
1.801036041E0,1.169290468E-1,2.465469241E-1,7.816396654E-2
1.803455156E0,1.175399199E-1,2.477686405E-1,7.755309343E-2
1.805875052E0,1.187616512E-1,2.459360659E-1,7.877482474E-2
1.808294166E0,1.193725094E-1,2.465469241E-1,7.877482474E-2
1.810712552E0,1.187616512E-1,2.489903867E-1,7.694223523E-2
1.813131666E0,1.199833825E-1,2.514338493E-1,7.938569784E-2
1.815551562E0,1.199833825E-1,2.532664239E-1,7.877482474E-2
1.817970677E0,1.218159720E-1,2.538772821E-1,7.938569784E-2
1.820389062E0,1.224268302E-1,2.557098567E-1,7.938569784E-2
1.822808177E0,1.230377033E-1,2.599859238E-1,7.999655604E-2
1.825228073E0,1.248702928E-1,2.618184984E-1,7.877482474E-2
1.827647187E0,1.260920316E-1,2.642619610E-1,7.816396654E-2
1.830065521E0,1.303680837E-1,2.648728192E-1,7.694223523E-2
1.832484687E0,1.340332776E-1,2.605967820E-1,7.755309343E-2
1.834904583E0,1.383093297E-1,2.575424612E-1,7.694223523E-2
1.837323698E0,1.425853819E-1,2.557098567E-1,7.694223523E-2
1.839742031E0,1.425853819E-1,2.581533194E-1,7.755309343E-2
1.842161198E0,1.444179714E-1,2.569316030E-1,7.999655604E-2
1.844581093E0,1.468614340E-1,2.563207150E-1,8.305087686E-2
1.847000208E0,1.474722922E-1,2.550990283E-1,8.488346636E-2
1.849418541E0,1.480831653E-1,2.538772821E-1,8.793780208E-2
1.851837708E0,1.493048966E-1,2.508229613E-1,9.099212289E-2
1.854257604E0,1.505266279E-1,2.477686405E-1,9.343558550E-2
1.856676718E0,1.523592174E-1,2.483794987E-1,9.587903321E-2
1.859095052E0,1.535809487E-1,2.465469241E-1,9.710076451E-2
1.861514218E0,1.548026800E-1,2.441034615E-1,9.832249582E-2
1.863934114E0,1.578570008E-1,2.447143197E-1,9.954422712E-2
1.866353229E0,1.590787321E-1,2.434926033E-1,1.013768166E-1
1.868771562E0,1.609113216E-1,2.416599989E-1,1.007659584E-1
1.871190677E0,1.627439111E-1,2.404382825E-1,1.019876897E-1
1.873610625E0,1.664091051E-1,2.386056781E-1,1.007659584E-1
1.876029739E0,1.670199633E-1,2.386056781E-1,1.013768166E-1
1.878448073E0,1.682416946E-1,2.367730737E-1,1.032094210E-1
1.880867187E0,1.688525677E-1,2.367730737E-1,1.044311523E-1
1.883287135E0,1.688525677E-1,2.373839617E-1,9.893336892E-2
1.885706250E0,1.676308364E-1,2.398273945E-1,9.771163762E-2
1.888124583E0,1.694634259E-1,2.398273945E-1,1.013768166E-1
1.890543698E0,1.725177467E-1,2.361622155E-1,1.068746001E-1
1.892963646E0,1.725177467E-1,2.343296260E-1,1.135941148E-1
1.895382760E0,1.731286198E-1,2.294427007E-1,1.160375774E-1
1.897801093E0,1.719068885E-1,2.245557904E-1,1.203136295E-1
1.900220208E0,1.694634259E-1,2.208905965E-1,1.245896816E-1
1.902640156E0,1.676308364E-1,2.172254175E-1,1.252005547E-1
1.905059271E0,1.651873738E-1,2.172254175E-1,1.264222711E-1
1.907477604E0,1.621330529E-1,2.190580070E-1,1.282548755E-1
1.909896718E0,1.609113216E-1,2.215014696E-1,1.300874650E-1
1.912316666E0,1.603004485E-1,2.306644320E-1,1.306983232E-1
1.914735781E0,1.603004485E-1,2.379948199E-1,1.288657337E-1
1.917154114E0,1.609113216E-1,2.483794987E-1,1.313091964E-1
1.919573229E0,1.603004485E-1,2.575424612E-1,1.325309277E-1
1.921993177E0,1.603004485E-1,2.691488862E-1,1.331417859E-1
1.924412291E0,1.603004485E-1,2.777009904E-1,1.337526590E-1
1.926830625E0,1.578570008E-1,2.899182737E-1,1.337526590E-1
1.929249739E0,1.584678590E-1,3.009138405E-1,1.343635172E-1
1.931669687E0,1.578570008E-1,3.106876910E-1,1.331417859E-1
1.934088802E0,1.560243964E-1,3.235158324E-1,1.349743903E-1
1.936507135E0,1.541918069E-1,3.339005411E-1,1.355852485E-1
1.938926250E0,1.517483443E-1,3.455069661E-1,1.386395693E-1
1.941346198E0,1.505266279E-1,3.546699584E-1,1.386395693E-1
1.943765312E0,1.474722922E-1,3.650546372E-1,1.398613006E-1
1.946183646E0,1.444179714E-1,3.742176294E-1,1.392504424E-1
1.948602760E0,1.425853819E-1,3.821588457E-1,1.435264945E-1
1.951022708E0,1.407527775E-1,3.931544125E-1,1.453590840E-1
1.953441823E0,1.370875984E-1,4.023174047E-1,1.484134048E-1
1.955860156E0,1.346441358E-1,4.090369046E-1,1.545220613E-1
1.958279271E0,1.340332776E-1,4.151455462E-1,1.581872404E-1
1.960699218E0,1.315898150E-1,4.218650758E-1,1.636850238E-1
1.963118333E0,1.297572255E-1,4.261411130E-1,1.685719490E-1
1.965536666E0,1.279246211E-1,4.310280383E-1,1.704045385E-1
1.967955781E0,1.273137629E-1,4.359149635E-1,1.771240532E-1
1.970375729E0,1.260920316E-1,4.395801425E-1,1.832326949E-1
1.972794843E0,1.230377033E-1,4.438561797E-1,1.881196201E-1
1.975213177E0,1.199833825E-1,4.493539631E-1,1.942282617E-1
1.977632291E0,1.181507781E-1,4.536300302E-1,1.978934556E-1
1.980052239E0,1.163181886E-1,4.554626346E-1,2.009477764E-1
1.982471354E0,1.126530021E-1,4.591278136E-1,2.040020972E-1
1.984889687E0,1.083769500E-1,4.609604180E-1,2.070564181E-1
1.987308802E0,1.071552187E-1,4.640147388E-1,2.119433433E-1
1.989728750E0,1.041008905E-1,4.695125222E-1,2.137759328E-1
1.992147864E0,1.016574353E-1,4.743994176E-1,2.156085223E-1
1.994566198E0,9.921398014E-2,4.756211638E-1,2.162193954E-1
1.996985364E0,9.677051753E-2,4.798972011E-1,2.186628580E-1
1.999405260E0,9.615965188E-2,4.817298055E-1,2.211063057E-1
2.001824375E0,9.371619672E-2,4.829515219E-1,2.241606265E-1
2.004242708E0,8.944014460E-2,4.884493351E-1,2.259932309E-1
2.006661875E0,8.577495068E-2,4.890601635E-1,2.278258204E-1
2.009081771E0,8.394236118E-2,4.921144843E-1,2.302692831E-1
2.011500885E0,8.027716726E-2,4.933362603E-1,2.333236039E-1
2.013919218E0,7.600111514E-2,4.945579767E-1,2.369887829E-1
2.016338385E0,7.172506303E-2,4.951688051E-1,2.382105291E-1
2.018758281E0,6.683814526E-2,4.976122975E-1,2.406539917E-1
2.021177396E0,6.317295879E-2,4.994449019E-1,2.430974245E-1
2.023595729E0,5.828604102E-2,5.012775064E-1,2.479843497E-1
2.026014896E0,5.462085456E-2,5.043318272E-1,2.504278123E-1
2.028434791E0,5.217739195E-2,5.086079240E-1,2.528712749E-1
2.030853906E0,4.790133983E-2,5.098296404E-1,2.528712749E-1
2.033272239E0,4.484701157E-2,5.110513568E-1,2.577582002E-1
2.035691406E0,3.934923559E-2,5.153274536E-1,2.589799166E-1
2.038111302E0,3.812750429E-2,5.177708864E-1,2.614233792E-1
2.040530416E0,3.446231782E-2,5.214360952E-1,2.650885582E-1
2.042948750E0,3.201885521E-2,5.238795280E-1,2.650885582E-1
2.045367916E0,2.835366875E-2,5.287664533E-1,2.663103044E-1
2.047787812E0,2.529934421E-2,5.330424905E-1,2.693646252E-1
2.050206927E0,2.346675098E-2,5.348750949E-1,2.705863416E-1
2.052625312E0,2.041242644E-2,5.373185277E-1,2.724189460E-1
2.055044427E0,1.796896756E-2,5.379294157E-1,2.748624086E-1
2.057464323E0,1.552550774E-2,5.385403037E-1,2.742515504E-1
2.059883437E0,1.430378016E-2,5.367076993E-1,2.766950130E-1
2.062301823E0,1.186032128E-2,5.373185277E-1,2.785275877E-1
2.064720937E0,1.186032128E-2,5.379294157E-1,2.785275877E-1
2.067140833E0,1.124945562E-2,5.403729081E-1,2.773058712E-1
2.069560000E0,1.308204886E-2,5.434272289E-1,2.779167295E-1
2.071978333E0,1.430378016E-2,5.446489453E-1,2.797493339E-1
2.074397448E0,1.674723998E-2,5.452597737E-1,2.815819085E-1
2.076817343E0,1.919069886E-2,5.464815497E-1,2.815819085E-1
2.079236510E0,2.407761663E-2,5.446489453E-1,2.821927667E-1
2.081654843E0,2.713193744E-2,5.440380573E-1,2.834145129E-1
2.084073958E0,3.018626012E-2,5.422054529E-1,2.870796919E-1
2.086493906E0,3.262972087E-2,5.403729081E-1,2.895231545E-1
2.088913021E0,3.446231782E-2,5.367076993E-1,2.931883335E-1
2.091331354E0,3.629490733E-2,5.336533785E-1,2.968535423E-1
2.093750468E0,3.751663864E-2,5.312098861E-1,3.017404675E-1
2.096170416E0,3.751663864E-2,5.299881697E-1,3.035730422E-1
2.098589531E0,3.690577298E-2,5.269338489E-1,3.072382212E-1
2.101007864E0,3.629490733E-2,5.244904160E-1,3.102925718E-1
2.103427031E0,3.629490733E-2,5.232686400E-1,3.133468926E-1
2.105846927E0,3.446231782E-2,5.232686400E-1,3.145686090E-1
2.108266041E0,3.507317603E-2,5.232686400E-1,3.164012134E-1
2.110684375E0,3.446231782E-2,5.244904160E-1,3.182337880E-1
2.113103541E0,3.324058652E-2,5.226578116E-1,3.176229298E-1
2.115523437E0,3.446231782E-2,5.208252072E-1,3.182337880E-1
2.117942552E0,3.446231782E-2,5.251012444E-1,3.182337880E-1
2.120360885E0,3.568404168E-2,5.251012444E-1,3.194555342E-1
2.122780052E0,3.629490733E-2,5.244904160E-1,3.200663924E-1
2.125199948E0,3.812750429E-2,5.244904160E-1,3.206772506E-1
2.127619062E0,3.996009380E-2,5.269338489E-1,3.218989968E-1
2.130037396E0,4.057095945E-2,5.251012444E-1,3.225098550E-1
2.132456562E0,4.118182510E-2,5.251012444E-1,3.212881088E-1
2.134876458E0,4.240355641E-2,5.251012444E-1,3.231207132E-1
2.137295573E0,4.179269075E-2,5.238795280E-1,3.237315714E-1
2.139713958E0,4.118182510E-2,5.238795280E-1,3.218989968E-1
2.142133073E0,4.240355641E-2,5.208252072E-1,3.212881088E-1
2.144552968E0,4.118182510E-2,5.189926028E-1,3.218989968E-1
2.146972135E0,3.996009380E-2,5.171599984E-1,3.218989968E-1
2.149390468E0,4.057095945E-2,5.147165656E-1,3.231207132E-1
2.151809583E0,4.118182510E-2,5.110513568E-1,3.200663924E-1
2.154229479E0,4.057095945E-2,5.116622448E-1,3.182337880E-1
2.156648646E0,3.934923559E-2,5.079970360E-1,3.182337880E-1
2.159066979E0,3.934923559E-2,5.086079240E-1,3.164012134E-1
2.161486093E0,3.873836994E-2,5.079970360E-1,3.164012134E-1
2.163906041E0,3.812750429E-2,5.061644316E-1,3.151794672E-1
2.166325156E0,3.629490733E-2,5.055536032E-1,3.133468926E-1
2.168743489E0,3.507317603E-2,5.055536032E-1,3.133468926E-1
2.171162604E0,3.262972087E-2,5.067753196E-1,3.115142882E-1
2.173582552E0,2.896453440E-2,5.067753196E-1,3.096816838E-1
2.176001666E0,2.529934421E-2,5.043318272E-1,3.072382212E-1
2.178420000E0,2.285588533E-2,5.024992228E-1,3.054056466E-1
2.180839166E0,2.224501967E-2,4.963905811E-1,3.029621840E-1
2.183259062E0,2.285588533E-2,4.933362603E-1,3.017404675E-1
2.185678177E0,2.468848228E-2,4.866167307E-1,2.999078631E-1
2.188096562E0,2.652107552E-2,4.841732681E-1,2.986861169E-1
2.190515677E0,2.896453440E-2,4.811189473E-1,2.999078631E-1
2.192935573E0,3.018626012E-2,4.805080891E-1,2.992970049E-1
2.195354739E0,3.201885521E-2,4.811189473E-1,2.980752587E-1
2.197773073E0,2.835366875E-2,4.805080891E-1,2.968535423E-1
2.200192187E0,2.713193744E-2,4.798972011E-1,2.950209379E-1
2.202612083E0,2.346675098E-2,4.823406637E-1,2.944100797E-1
2.205031250E0,2.041242644E-2,4.811189473E-1,2.919666171E-1
2.207449583E0,1.674723998E-2,4.798972011E-1,2.895231545E-1
2.209868698E0,1.369291451E-2,4.756211638E-1,2.858579755E-1
2.212288646E0,1.002772618E-2,4.701233804E-1,2.809710503E-1
2.214707760E0,5.751672201E-3,4.609604180E-1,2.766950130E-1
2.217126093E0,5.140808411E-3,4.536300302E-1,2.718080878E-1
2.219545208E0,3.919078968E-3,4.414127469E-1,2.632559836E-1
2.221965156E0,3.919078968E-3,4.298062921E-1,2.553147376E-1
2.224384271E0,6.362537853E-3,4.175890088E-1,2.473734915E-1
2.226802604E0,1.186032128E-2,4.059825838E-1,2.388213873E-1
2.229221771E0,1.552550774E-2,3.974304795E-1,2.302692831E-1
2.231641666E0,1.980156265E-2,3.955978751E-1,2.247714996E-1
2.234060781E0,2.896453440E-2,4.035391212E-1,2.259932309E-1
2.236479166E0,3.201885521E-2,3.937653005E-1,2.247714996E-1
2.238898281E0,3.140798956E-2,3.668872416E-1,2.156085223E-1
2.241318177E0,3.140798956E-2,3.387874663E-1,2.027803659E-1
2.243737291E0,3.262972087E-2,3.149637282E-1,1.905630678E-1
2.246155677E0,3.690577298E-2,2.954160571E-1,1.807892323E-1
2.248574791E0,4.484701157E-2,2.758683860E-1,1.746805906E-1
2.250994739E0,5.645344406E-2,2.587641776E-1,1.716262698E-1
2.253413854E0,6.683814526E-2,2.422708571E-1,1.704045385E-1
2.255832187E0,7.600111514E-2,2.294427007E-1,1.716262698E-1
2.258251302E0,8.821841329E-2,2.141710818E-1,1.716262698E-1
2.260671250E0,9.738138318E-2,1.976777464E-1,1.716262698E-1
2.263090364E0,1.034900323E-1,1.781300753E-1,1.685719490E-1
2.265508698E0,1.089878157E-1,1.512520164E-1,1.661284864E-1
2.267927812E0,1.132638678E-1,1.310934871E-1,1.630741656E-1
2.270347760E0,1.169290468E-1,1.103240773E-1,1.575763822E-1
2.272766875E0,1.199833825E-1,8.955467492E-2,1.502459943E-1
2.275185208E0,1.236485615E-1,7.122873515E-2,1.392504424E-1
2.277604375E0,1.297572255E-1,5.473538861E-2,1.300874650E-1
2.280024271E0,1.376984566E-1,4.007463530E-2,1.184810400E-1
2.282443385E0,1.468614340E-1,2.602474578E-2,1.080963314E-1
2.284861771E0,1.523592174E-1,1.686177589E-2,9.771163762E-2
2.287280885E0,1.694634259E-1,4.801587388E-2,9.648990631E-2
2.289700781E0,1.908436865E-1,7.916998118E-2,1.001550853E-1
2.292119948E0,1.987849325E-1,5.656797811E-2,9.710076451E-2
2.294538281E0,1.993957907E-1,1.686177589E-2,8.488346636E-2
2.296957396E0,2.000066638E-1,-1.979010925E-2,6.716839969E-2
2.299377343E0,1.969523430E-1,-4.300296679E-2,5.128590763E-2
2.301796458E0,1.963414699E-1,-5.583113059E-2,3.295996785E-2
2.304214791E0,2.000066638E-1,-5.644198880E-2,2.318613417E-2
2.306633958E0,2.061153054E-1,-5.033334717E-2,1.524489187E-2
2.309053854E0,2.140565515E-1,-4.055951163E-2,1.157970540E-2
2.311472968E0,2.201651931E-1,-2.650962025E-2,1.280143298E-2
2.313891302E0,2.268847078E-1,-5.740219261E-3,1.280143298E-2
2.316310468E0,2.348259538E-1,7.698804606E-3,1.463402994E-2
2.318730364E0,2.397128791E-1,1.808350347E-2,1.768835075E-2
2.321149531E0,2.421563417E-1,2.419215254E-2,2.440786548E-2
2.323567864E0,2.415454537E-1,3.640944883E-2,3.112737648E-2
2.325986979E0,2.525410056E-1,9.138727188E-2,5.983802676E-2
2.328406875E0,2.629257143E-1,1.286500096E-1,8.427260816E-2
2.330826041E0,2.562062144E-1,1.060480252E-1,8.977039158E-2
2.333244375E0,2.421563417E-1,7.122873515E-2,8.671607077E-2
2.335663489E0,2.238303870E-1,4.068550095E-2,8.121828735E-2
2.338083437E0,2.048935741E-1,1.930523477E-2,7.266618311E-2
2.340502552E0,1.865676343E-1,1.197485812E-2,6.350320578E-2
2.342920885E0,1.682416946E-1,7.698804606E-3,5.372937024E-2
2.345340052E0,1.523592174E-1,2.113782801E-2,5.434023589E-2
2.347759948E0,1.413636506E-1,4.557241872E-2,5.678369105E-2
2.350179062E0,1.334224045E-1,7.367219776E-2,6.350320578E-2
2.352597448E0,1.212050989E-1,9.932851046E-2,7.572050393E-2
2.355016562E0,1.102095395E-1,1.243739650E-1,8.610519767E-2
2.357436458E0,9.799224883E-2,1.604149938E-1,1.001550853E-1
2.359855625E0,9.677051753E-2,2.233340591E-1,1.294766068E-1
2.362273958E0,9.127273411E-2,2.685380280E-1,1.618524343E-1
2.364693073E0,6.500554830E-2,2.679271698E-1,1.704045385E-1
2.367113021E0,3.568404168E-2,2.471577823E-1,1.691828072E-1
2.369532135E0,2.086484805E-3,2.288318425E-1,1.642958969E-1
2.371950468E0,-2.356983162E-2,2.233340591E-1,1.581872404E-1
2.374369635E0,-4.800442606E-2,2.239449322E-1,1.526894569E-1
2.376789531E0,-6.449776888E-2,2.343296260E-1,1.502459943E-1
2.379208646E0,-7.671505958E-2,2.520447075E-1,1.563546509E-1
2.381627031E0,-8.709976077E-2,2.703706026E-1,1.642958969E-1
2.384046146E0,-9.443014115E-2,2.868639529E-1,1.740697324E-1
2.386466041E0,-1.023713797E-1,2.972486615E-1,1.862870157E-1
2.388885208E0,-1.090908945E-1,3.106876910E-1,1.930065304E-1
2.391303541E0,-1.145886779E-1,3.174071908E-1,2.003369033E-1
2.393722656E0,-1.164212674E-1,3.125202656E-1,2.131650746E-1
2.396142604E0,-1.103126258E-1,3.259592950E-1,2.296584249E-1
2.398561718E0,-9.809532762E-2,3.503938913E-1,2.553147376E-1
2.400980052E0,-1.121452153E-1,3.534482121E-1,2.614233792E-1
2.403399218E0,-1.261951029E-1,3.241267204E-1,2.449300289E-1
2.405819114E0,-1.402449906E-1,2.844204903E-1,2.211063057E-1
2.408238229E0,-1.494079530E-1,2.569316030E-1,2.027803659E-1
2.410656614E0,-1.475753635E-1,2.434926033E-1,1.862870157E-1
2.413075729E0,-1.457427740E-1,2.416599989E-1,1.734588593E-1
2.415495625E0,-1.445210427E-1,2.392165363E-1,1.612415612E-1
2.417914791E0,-1.475753635E-1,2.379948199E-1,1.508568674E-1
2.420333125E0,-1.536840051E-1,2.392165363E-1,1.441373527E-1
2.422752239E0,-1.665121764E-1,2.367730737E-1,1.355852485E-1
2.425172187E0,-1.793403327E-1,2.312753052E-1,1.288657337E-1
2.427591302E0,-1.970553994E-1,2.251666486E-1,1.203136295E-1
2.430009635E0,-2.184356749E-1,2.190580070E-1,1.129832566E-1
2.432428750E0,-2.367616147E-1,2.092841715E-1,1.129832566E-1
2.434848698E0,-2.508115172E-1,1.817952543E-1,1.258114129E-1
2.437267812E0,-2.569201589E-1,2.251666486E-1,1.673502177E-1
2.439686146E0,-2.673048675E-1,2.532664239E-1,2.009477764E-1
2.442105312E0,-2.990698218E-1,2.483794987E-1,2.149976641E-1
2.444525208E0,-3.222827017E-1,2.318861634E-1,2.272149622E-1
2.446944375E0,-3.534367979E-1,1.995103359E-1,2.253823578E-1
2.449362708E0,-3.894778192E-1,1.598041356E-1,1.978934556E-1
2.451781823E0,-4.224644899E-1,1.317043453E-1,1.575763822E-1
2.454201771E0,-4.481208324E-1,1.219305024E-1,1.203136295E-1
2.456620885E0,-4.731662869E-1,1.268174201E-1,9.648990631E-2
2.459039218E0,-5.006551743E-1,1.402564645E-1,8.549433947E-2
2.461458385E0,-5.287549496E-1,1.506411582E-1,8.427260816E-2
2.463878281E0,-5.605198741E-1,1.616367251E-1,8.977039158E-2
2.466297396E0,-5.959500670E-1,1.726322919E-1,9.954422712E-2
2.468715781E0,-6.319910884E-1,1.836278588E-1,1.093180627E-1
2.471134896E0,-6.692538261E-1,1.927908212E-1,1.172593087E-1
2.473554843E0,-7.028513551E-1,2.037863880E-1,1.227570921E-1
2.475973958E0,-7.340055108E-1,2.117276341E-1,1.252005547E-1
2.478392291E0,-7.627161145E-1,2.178362757E-1,1.221462190E-1
2.480811406E0,-7.889832854E-1,2.221123278E-1,1.203136295E-1
2.483231354E0,-8.091418147E-1,2.227232009E-1,1.178701669E-1
2.485650468E0,-8.299112320E-1,2.215014696E-1,1.166484356E-1
2.488068802E0,-8.519023657E-1,2.196688652E-1,1.123723835E-1
2.490487968E0,-8.708391786E-1,2.117276341E-1,1.093180627E-1
2.492907864E0,-8.885542750E-1,2.037863880E-1,1.032094210E-1
2.495327031E0,-9.081019163E-1,1.909582317E-1,9.648990631E-2
2.497745364E0,-9.252061248E-1,1.762974709E-1,8.854866028E-2
2.500164479E0,-9.423103333E-1,1.591932625E-1,7.877482474E-2
2.502584427E0,-9.563602209E-1,1.359803975E-1,7.510963082E-2
2.505003541E0,-9.624688625E-1,1.011611074E-1,1.056528836E-1
2.507421875E0,-9.820165634E-1,9.016554058E-2,1.398613006E-1
2.509841041E0,-1.008894682E0,7.855911553E-2,1.319200546E-1
2.512260937E0,-1.031496644E0,5.656797811E-2,8.549433947E-2
2.514680052E0,-1.047379136E0,2.846820466E-2,3.418169916E-2
2.517098437E0,-1.058374763E0,7.087940816E-3,-4.913643003E-3
2.519517552E0,-1.066315889E0,-3.296760377E-3,-3.118082695E-2
2.521937500E0,-1.069370270E0,-8.794542402E-3,-4.523071647E-2
2.524356614E0,-1.068148494E0,-1.368146017E-2,-5.133935809E-2
2.526774948E0,-1.068148494E0,-1.917924359E-2,-5.622628331E-2
2.529194114E0,-1.068148494E0,-2.834221348E-2,-6.172405928E-2
2.531614010E0,-1.066315889E0,-3.872691467E-2,-7.088702917E-2
2.534033125E0,-1.067537665E0,-4.788988456E-2,-8.005000651E-2
2.536451510E0,-1.068759441E0,-5.583113059E-2,-9.165643156E-2
2.538870625E0,-1.071813703E0,-6.377236545E-2,-1.026519984E-1
2.541290521E0,-1.074868083E0,-7.049188018E-2,-1.136475652E-1
2.543709687E0,-1.077922344E0,-7.660052180E-2,-1.258648485E-1
2.546128021E0,-1.079754949E0,-8.270917088E-2,-1.338060945E-1
2.548547135E0,-1.084030986E0,-9.309387207E-2,-1.435799301E-1
2.550967083E0,-1.087696195E0,-9.920252115E-2,-1.539646238E-1
2.553386198E0,-1.090750575E0,-1.095872223E-1,-1.637384593E-1
2.555804531E0,-1.095026612E0,-1.175284609E-1,-1.735122949E-1
2.558223698E0,-1.095026612E0,-1.303566098E-1,-1.771774888E-1
2.560643593E0,-1.085252762E0,-1.596781164E-1,-1.625167429E-1
2.563062760E0,-1.077922344E0,-1.608998477E-1,-1.557972282E-1
2.565481093E0,-1.080365896E0,-1.657867730E-1,-1.502994448E-1
2.567900208E0,-1.087085366E0,-1.627324373E-1,-1.637384593E-1
2.570320156E0,-1.089528799E0,-1.718954146E-1,-1.900056452E-1
2.572739271E0,-1.087085366E0,-1.841127127E-1,-2.156619728E-1
2.575157604E0,-1.081587553E0,-1.902213544E-1,-2.364313602E-1
2.577576771E0,-1.074257135E0,-1.951082796E-1,-2.480378002E-1
2.579996666E0,-1.063872457E0,-1.969408691E-1,-2.553681731E-1
2.582415833E0,-1.051044345E0,-1.987734586E-1,-2.584224939E-1
2.584834166E0,-1.038827062E0,-1.999951899E-1,-2.565899193E-1
2.587253281E0,-1.024777174E0,-2.067147046E-1,-2.584224939E-1
2.589673229E0,-1.010727286E0,-2.122124881E-1,-2.596442401E-1
2.592092343E0,-9.972881675E-1,-2.238189131E-1,-2.602550983E-1
2.594510677E0,-9.850708842E-1,-2.335927486E-1,-2.657528818E-1
2.596929843E0,-9.752970338E-1,-2.494752556E-1,-2.700289190E-1
2.599349739E0,-9.673557878E-1,-2.684120834E-1,-2.773593068E-1
2.601768854E0,-9.612471461E-1,-2.836836874E-1,-2.840788066E-1
2.604187239E0,-9.533059001E-1,-3.013987541E-1,-2.889657319E-1
2.606606354E0,-9.478081465E-1,-3.209464252E-1,-2.962961197E-1
2.609026250E0,-9.416995049E-1,-3.398832381E-1,-3.030156195E-1
2.611445416E0,-9.331473708E-1,-3.582091928E-1,-3.079025447E-1
2.613863750E0,-9.215409756E-1,-3.771460056E-1,-3.127894700E-1
2.616282864E0,-9.123779535E-1,-3.942502141E-1,-3.201198280E-1
2.618702812E0,-9.007715583E-1,-4.089109600E-1,-3.243958950E-1
2.621121927E0,-8.909977078E-1,-4.217391014E-1,-3.311153948E-1
2.623540312E0,-8.806130290E-1,-4.315129519E-1,-3.390566409E-1
2.625959427E0,-8.726717830E-1,-4.412867725E-1,-3.451652825E-1
2.628379375E0,-8.635088205E-1,-4.455628395E-1,-3.531065285E-1
2.630798489E0,-8.574001789E-1,-4.504497647E-1,-3.641020954E-1
2.633216823E0,-8.500697613E-1,-4.510606229E-1,-3.738759160E-1
2.635635989E0,-8.439611197E-1,-4.480063021E-1,-3.842606246E-1
2.638055885E0,-8.360198736E-1,-4.449519813E-1,-3.958670497E-1
2.640475000E0,-8.262460828E-1,-4.382324517E-1,-4.080843627E-1
2.642893385E0,-8.176939487E-1,-4.284586310E-1,-4.172473252E-1
2.645312500E0,-8.066983819E-1,-4.119652808E-1,-4.288537502E-1
2.647732448E0,-7.920376062E-1,-3.936393261E-1,-4.386276007E-1
2.650151562E0,-7.761551738E-1,-3.728699386E-1,-4.502340257E-1
2.652569896E0,-7.553857565E-1,-3.490462005E-1,-4.624513090E-1
2.654989062E0,-7.327837348E-1,-3.288876712E-1,-4.703925550E-1
2.657408958E0,-7.107926011E-1,-3.056748211E-1,-4.819989800E-1
2.659828073E0,-6.875797510E-1,-2.781859040E-1,-4.917728305E-1
2.662246458E0,-6.619234681E-1,-2.549730539E-1,-5.009357929E-1
2.664665573E0,-6.362671256E-1,-2.305384278E-1,-5.082662106E-1
2.667085521E0,-6.087782383E-1,-2.091581672E-1,-5.131531358E-1
2.669504635E0,-5.812892914E-1,-1.938865483E-1,-5.162074566E-1
2.671922968E0,-5.562438369E-1,-1.792257875E-1,-5.247595906E-1
2.674342135E0,-5.342527032E-1,-1.651758999E-1,-5.302573442E-1
2.676762031E0,-5.098181367E-1,-1.566237956E-1,-5.351442695E-1
2.679181146E0,-4.835509658E-1,-1.505151540E-1,-5.333116651E-1
2.681599531E0,-4.585055113E-1,-1.535694748E-1,-5.259813070E-1
2.684018646E0,-4.401795864E-1,-1.560129374E-1,-5.229269862E-1
2.686438593E0,-4.236862361E-1,-1.584563851E-1,-5.253704190E-1
2.688857708E0,-4.084146023E-1,-1.633433104E-1,-5.265921950E-1
2.691276041E0,-3.937538564E-1,-1.688410938E-1,-5.217052698E-1
2.693695208E0,-3.803148270E-1,-1.786149293E-1,-5.174291730E-1
2.696115104E0,-3.699301481E-1,-1.902213544E-1,-5.058227777E-1
2.698534271E0,-3.632106185E-1,-1.999951899E-1,-4.874967635E-1
2.700952604E0,-3.601562977E-1,-2.067147046E-1,-4.813881218E-1
2.703371718E0,-3.607671559E-1,-2.073255628E-1,-4.783338010E-1
2.705791666E0,-3.601562977E-1,-2.073255628E-1,-4.746686220E-1
2.708210781E0,-3.577128351E-1,-2.054929733E-1,-4.685599506E-1
2.710629114E0,-3.540476561E-1,-2.024386525E-1,-4.618404508E-1
2.713048281E0,-3.522150517E-1,-1.993843317E-1,-4.545100629E-1
2.715468177E0,-3.503824770E-1,-1.963300109E-1,-4.429036379E-1
2.717887343E0,-3.473281562E-1,-1.981626004E-1,-4.209125042E-1
2.720305677E0,-3.448846936E-1,-1.975517273E-1,-4.038082957E-1
2.722724791E0,-3.467172682E-1,-1.944974065E-1,-3.976996541E-1
2.725144739E0,-3.509933352E-1,-1.871670336E-1,-3.976996541E-1
2.727563854E0,-3.528259099E-1,-1.761714667E-1,-3.989213705E-1
2.729982239E0,-3.546585143E-1,-1.694519520E-1,-3.952561915E-1
2.732401354E0,-3.564911187E-1,-1.621215791E-1,-3.879258037E-1
2.734821250E0,-3.595454395E-1,-1.578455269E-1,-3.763193786E-1
2.737240416E0,-3.613780439E-1,-1.529586017E-1,-3.653238118E-1
2.739658750E0,-3.656540811E-1,-1.523477435E-1,-3.537173867E-1
2.742077916E0,-3.668758273E-1,-1.547912061E-1,-3.427218199E-1
2.744497812E0,-3.705410063E-1,-1.572346687E-1,-3.329479992E-1
2.746916927E0,-3.742061853E-1,-1.590672582E-1,-3.225632906E-1
2.749335312E0,-3.784822524E-1,-1.608998477E-1,-3.152329028E-1
2.751754427E0,-3.815365732E-1,-1.645650417E-1,-3.072916865E-1
2.754174375E0,-3.858126104E-1,-1.657867730E-1,-3.005721569E-1
2.756593489E0,-3.882560730E-1,-1.694519520E-1,-2.938526571E-1
2.759011823E0,-3.906995356E-1,-1.712845564E-1,-2.889657319E-1
2.761430989E0,-3.925321400E-1,-1.755606085E-1,-2.834679484E-1
2.763850885E0,-3.913103938E-1,-1.773931980E-1,-2.804136276E-1
2.766270052E0,-3.919212520E-1,-1.810583919E-1,-2.767484486E-1
2.768688385E0,-3.925321400E-1,-1.828909814E-1,-2.749158442E-1
2.771107500E0,-3.925321400E-1,-1.841127127E-1,-2.736941278E-1
2.773527448E0,-3.913103938E-1,-1.822801083E-1,-2.706398070E-1
2.775946562E0,-3.906995356E-1,-1.755606085E-1,-2.651420236E-1
2.778364948E0,-3.894778192E-1,-1.700628251E-1,-2.602550983E-1
2.780784062E0,-3.894778192E-1,-1.670084894E-1,-2.547573149E-1
2.783203958E0,-3.894778192E-1,-1.627324373E-1,-2.504812479E-1
2.785623125E0,-3.894778192E-1,-1.590672582E-1,-2.455943376E-1
2.788041458E0,-3.876452148E-1,-1.578455269E-1,-2.394856960E-1
2.790460625E0,-3.894778192E-1,-1.517368853E-1,-2.352096438E-1
2.792880521E0,-3.900886774E-1,-1.468499601E-1,-2.272683978E-1
2.795299635E0,-3.913103938E-1,-1.413521767E-1,-2.223814726E-1
2.797718021E0,-3.906995356E-1,-1.395195872E-1,-2.156619728E-1
2.800137135E0,-3.913103938E-1,-1.352435350E-1,-2.101641893E-1
2.802557083E0,-3.913103938E-1,-1.346326768E-1,-2.034446746E-1
2.804976198E0,-3.913103938E-1,-1.346326768E-1,-1.955034286E-1
2.807394531E0,-3.906995356E-1,-1.376869977E-1,-1.857295930E-1
2.809813698E0,-3.900886774E-1,-1.425739080E-1,-1.729014367E-1
2.812233593E0,-3.919212520E-1,-1.492934227E-1,-1.582406759E-1
2.814652760E0,-3.937538564E-1,-1.523477435E-1,-1.490777135E-1
2.817071093E0,-3.968081772E-1,-1.523477435E-1,-1.490777135E-1
2.819490208E0,-3.998624980E-1,-1.584563851E-1,-1.533537656E-1
2.821910156E0,-4.004733860E-1,-1.578455269E-1,-1.521320343E-1
2.824329271E0,-4.004733860E-1,-1.517368853E-1,-1.478559822E-1
2.826747656E0,-3.980299234E-1,-1.468499601E-1,-1.405256093E-1
2.829166771E0,-3.949756026E-1,-1.437956393E-1,-1.331952363E-1
2.831586666E0,-3.925321400E-1,-1.444064975E-1,-1.276974529E-1
2.834005833E0,-3.906995356E-1,-1.468499601E-1,-1.185344756E-1
2.836424166E0,-3.876452148E-1,-1.492934227E-1,-1.105932444E-1
2.838843333E0,-3.858126104E-1,-1.505151540E-1,-1.044845879E-1
2.841263229E0,-3.827582896E-1,-1.517368853E-1,-9.959767759E-2
2.843682396E0,-3.790931106E-1,-1.523477435E-1,-9.593248367E-2
2.846100729E0,-3.748170435E-1,-1.505151540E-1,-9.165643156E-2
2.848519843E0,-3.687084019E-1,-1.517368853E-1,-8.921296895E-2
2.850939791E0,-3.632106185E-1,-1.560129374E-1,-8.738037944E-2
2.853358906E0,-3.583236933E-1,-1.578455269E-1,-8.493691683E-2
2.855777291E0,-3.497715890E-1,-1.621215791E-1,-8.371518552E-2
2.858196406E0,-3.418303728E-1,-1.627324373E-1,-8.310432732E-2
2.860616302E0,-3.314456642E-1,-1.639541686E-1,-8.249346167E-2
2.863035468E0,-3.210609555E-1,-1.633433104E-1,-8.615864813E-2
2.865453802E0,-3.112871349E-1,-1.651758999E-1,-8.860211074E-2
2.867872968E0,-2.990698218E-1,-1.682302207E-1,-9.104557335E-2
2.870292864E0,-2.862416804E-1,-1.700628251E-1,-9.593248367E-2
2.872711979E0,-2.734135091E-1,-1.725062728E-1,-1.008194089E-1
2.875130364E0,-2.624179423E-1,-1.706736833E-1,-1.069280505E-1
2.877549479E0,-2.489789128E-1,-1.706736833E-1,-1.118149608E-1
2.879969427E0,-2.361507416E-1,-1.651758999E-1,-1.167018861E-1
2.882388541E0,-2.239334583E-1,-1.621215791E-1,-1.197562069E-1
2.884806875E0,-2.111053020E-1,-1.621215791E-1,-1.240322590E-1
2.887226041E0,-2.007205933E-1,-1.596781164E-1,-1.252539903E-1
2.889645937E0,-1.897250265E-1,-1.584563851E-1,-1.270865798E-1
2.892065104E0,-1.805620641E-1,-1.566237956E-1,-1.331952363E-1
2.894483437E0,-1.683447659E-1,-1.523477435E-1,-1.356386840E-1
2.896902604E0,-1.585709304E-1,-1.468499601E-1,-1.399147511E-1
2.899322500E0,-1.481862217E-1,-1.401304454E-1,-1.411364675E-1
2.901741666E0,-1.408558488E-1,-1.358543932E-1,-1.441908032E-1
2.904160000E0,-1.329146177E-1,-1.328000724E-1,-1.472451240E-1
2.906579114E0,-1.255842298E-1,-1.285240203E-1,-1.490777135E-1
2.908999062E0,-1.194755957E-1,-1.254696995E-1,-1.515211761E-1
2.911418177E0,-1.133669466E-1,-1.218045056E-1,-1.557972282E-1
2.913836562E0,-1.066474319E-1,-1.181393266E-1,-1.588515490E-1
2.916255677E0,-9.809532762E-2,-1.169175953E-1,-1.643493325E-1
2.918675625E0,-9.015408903E-2,-1.169175953E-1,-1.698471159E-1
2.921094739E0,-8.038025349E-2,-1.163067296E-1,-1.771774888E-1
2.923513073E0,-7.243901491E-2,-1.144741401E-1,-1.838970035E-1
2.925932239E0,-5.411306769E-2,-9.859165549E-2,-1.967251599E-1
2.928352135E0,-4.250664264E-2,-1.077546254E-1,-2.064989954E-1
2.930771302E0,-3.639799356E-2,-1.101980880E-1,-2.022229433E-1
2.933189635E0,-3.212193772E-2,-1.059220359E-1,-1.942816973E-1
2.935608750E0,-2.662415616E-2,-1.022568420E-1,-1.906165183E-1
2.938028698E0,-1.868291385E-2,-9.981338680E-2,-1.900056452E-1
2.940447812E0,-1.013080962E-2,-9.920252115E-2,-1.906165183E-1
2.942866198E0,-1.578703406E-3,-1.022568420E-1,-1.826752722E-1
2.945285312E0,8.195131086E-3,-1.120306775E-1,-1.680145115E-1
2.947705260E0,1.613637432E-2,-1.163067296E-1,-1.655710638E-1
2.950124375E0,2.407761663E-2,-1.163067296E-1,-1.796209514E-1
2.952542708E0,3.262972087E-2,-1.114198118E-1,-1.942816973E-1
2.954961875E0,4.057095945E-2,-1.059220359E-1,-2.034446746E-1
2.957381771E0,4.912307113E-2,-9.859165549E-2,-2.077207267E-1
2.959800937E0,5.462085456E-2,-9.248300642E-2,-2.107750475E-1
2.962219271E0,6.011863798E-2,-9.126127511E-2,-2.119967788E-1
2.964638437E0,6.439469010E-2,-9.003955126E-2,-2.132185102E-1
2.967058333E0,6.867074221E-2,-9.065041691E-2,-2.168836892E-1
2.969477500E0,7.233592868E-2,-9.431560338E-2,-2.205488831E-1
2.971895833E0,7.600111514E-2,-1.010351107E-1,-2.205488831E-1
2.974314948E0,7.844457775E-2,-1.071437597E-1,-2.205488831E-1
2.976734896E0,8.333149552E-2,-1.120306775E-1,-2.205488831E-1
2.979154010E0,9.432705492E-2,-1.040894389E-1,-2.199380249E-1
2.981572396E0,9.921398014E-2,-1.089763567E-1,-2.187162936E-1
2.983991510E0,1.028791666E-1,-1.260805577E-1,-2.181054205E-1
2.986411458E0,1.065443531E-1,-1.401304454E-1,-2.156619728E-1
2.988830573E0,1.077660844E-1,-1.480716914E-1,-2.107750475E-1
2.991248906E0,1.089878157E-1,-1.523477435E-1,-2.083315849E-1
2.993668073E0,1.095986739E-1,-1.560129374E-1,-2.040555328E-1
2.996087968E0,1.114312708E-1,-1.602889895E-1,-1.967251599E-1
2.998507135E0,1.095986739E-1,-1.712845564E-1,-1.857295930E-1
3.000925468E0,1.102095395E-1,-1.828909814E-1,-1.747340262E-1
3.003344635E0,1.126530021E-1,-1.951082796E-1,-1.667927951E-1
3.005764531E0,1.157073304E-1,-2.054929733E-1,-1.674036533E-1
3.008183698E0,1.181507781E-1,-2.128233463E-1,-1.741231680E-1
3.010602031E0,1.236485615E-1,-2.177102715E-1,-1.783992201E-1
3.013021146E0,1.291463524E-1,-2.189320028E-1,-1.796209514E-1
3.015441093E0,1.352550089E-1,-2.238189131E-1,-1.777883470E-1
3.017860208E0,1.419745088E-1,-2.299275696E-1,-1.777883470E-1
3.020278593E0,1.462505609E-1,-2.354253531E-1,-1.759557575E-1
3.022697708E0,1.480831653E-1,-2.427557260E-1,-1.753448993E-1
3.025117656E0,1.517483443E-1,-2.513078451E-1,-1.735122949E-1
3.027536771E0,1.517483443E-1,-2.598599494E-1,-1.704579741E-1
3.029955104E0,1.517483443E-1,-2.671903372E-1,-1.674036533E-1
3.032374271E0,1.535809487E-1,-2.586382329E-1,-1.619058698E-1
3.034794166E0,1.468614340E-1,-2.671903372E-1,-1.576298177E-1
3.037213333E0,1.407527775E-1,-2.916249335E-1,-1.619058698E-1
3.039631666E0,1.315898150E-1,-3.160595298E-1,-1.643493325E-1
3.042050833E0,1.224268302E-1,-3.349963129E-1,-1.655710638E-1
3.044470729E0,1.144855991E-1,-3.521005511E-1,-1.649601907E-1
3.046889896E0,1.047117561E-1,-3.667612970E-1,-1.637384593E-1
3.049308229E0,9.554878622E-2,-3.808111846E-1,-1.606841385E-1
3.051727343E0,8.577495068E-2,-3.942502141E-1,-1.570189595E-1
3.054147291E0,7.783371210E-2,-4.058566391E-1,-1.570189595E-1
3.056566406E0,7.355765998E-2,-4.131869972E-1,-1.582406759E-1
3.058984791E0,6.683814526E-2,-4.260151684E-1,-1.594624072E-1
3.061403906E0,6.500554830E-2,-4.388433397E-1,-1.631276011E-1
3.063823854E0,6.072949618E-2,-4.510606229E-1,-1.667927951E-1
3.066242968E0,5.584257841E-2,-4.614453316E-1,-1.710688472E-1
3.068661354E0,5.339912325E-2,-4.663322270E-1,-1.735122949E-1
3.071080468E0,4.912307113E-2,-4.663322270E-1,-1.783992201E-1
3.073500416E0,4.301442206E-2,-4.632779062E-1,-1.808426827E-1
3.075919531E0,3.629490733E-2,-4.596127272E-1,-1.783992201E-1
3.078337864E0,2.835366875E-2,-4.535040855E-1,-1.777883470E-1
3.080757031E0,2.346675098E-2,-4.461736977E-1,-1.777883470E-1
3.083176979E0,1.796896756E-2,-4.327346683E-1,-1.851187348E-1
3.085596093E0,1.430378016E-2,-4.205173850E-1,-1.991686225E-1
3.088014427E0,8.805996738E-3,-4.052457809E-1,-2.077207267E-1
3.090433593E0,1.475620200E-3,-3.753134012E-1,-2.113859057E-1
3.092853489E0,3.919078968E-3,-3.569874465E-1,-2.156619728E-1
3.095272656E0,2.538907574E-4,-3.533222675E-1,-2.266575247E-1
3.097690989E0,-5.243891850E-3,-3.563765883E-1,-2.394856960E-1
3.100110104E0,-9.519944899E-3,-3.594309092E-1,-2.523138523E-1
3.102530052E0,-1.318513323E-2,-3.637069762E-1,-2.620877028E-1
3.104949218E0,-1.685032062E-2,-3.649286926E-1,-2.730832398E-1
3.107367552E0,-1.929377951E-2,-3.667612970E-1,-2.828570902E-1
3.109786666E0,-2.051550895E-2,-3.698156178E-1,-2.877440155E-1
3.112206614E0,-2.234810404E-2,-3.734807968E-1,-2.914091945E-1
3.114625729E0,-2.418069728E-2,-3.759242594E-1,-2.926309109E-1
3.117044114E0,-2.662415616E-2,-3.802003264E-1,-2.907983363E-1
3.119463229E0,-2.906761505E-2,-3.881415427E-1,-2.889657319E-1
3.121883177E0,-3.395453468E-2,-3.948610723E-1,-2.883548737E-1
3.124302291E0,-4.189577699E-2,-4.021914303E-1,-2.816353440E-1
3.126720625E0,-5.228047818E-2,-4.089109600E-1,-2.761375606E-1
3.129139791E0,-6.388690323E-2,-4.168522060E-1,-2.724723816E-1
3.131559739E0,-7.427160442E-2,-4.266260266E-1,-2.675854862E-1
3.133978854E0,-8.587803692E-2,-4.351781309E-1,-2.645311654E-1
3.136397187E0,-9.748446196E-2,-4.437302351E-1,-2.614768147E-1
3.138816354E0,-1.084800288E-1,-4.535040855E-1,-2.608659565E-1
3.141236250E0,-1.170321330E-1,-4.657213688E-1,-2.626985610E-1
3.143655416E0,-1.249733791E-1,-4.779386818E-1,-2.614768147E-1
3.146073750E0,-1.304711550E-1,-4.895451069E-1,-2.620877028E-1
3.148492916E0,-1.347472072E-1,-4.987080395E-1,-2.602550983E-1
3.150912812E0,-1.378015280E-1,-5.042058229E-1,-2.608659565E-1
3.153331979E0,-1.420775801E-1,-5.115361810E-1,-2.596442401E-1
3.155750312E0,-1.420775801E-1,-5.176448226E-1,-2.596442401E-1
3.158169479E0,-1.469645053E-1,-5.127578974E-1,-2.517029941E-1
3.160589375E0,-1.494079530E-1,-4.907668233E-1,-2.407074273E-1
3.163008541E0,-1.390232593E-1,-4.828255773E-1,-2.382639647E-1
3.165426875E0,-1.280276924E-1,-4.993189275E-1,-2.431508750E-1
3.167845989E0,-1.200864613E-1,-5.310838223E-1,-2.492595315E-1
3.170265937E0,-1.103126258E-1,-5.494098067E-1,-2.529247105E-1
3.172685104E0,-1.023713797E-1,-5.524641275E-1,-2.541464567E-1
3.175103437E0,-9.504100680E-2,-5.512423515E-1,-2.541464567E-1
3.177522552E0,-8.587803692E-2,-5.481880307E-1,-2.523138523E-1
3.179942500E0,-7.488247007E-2,-5.457445979E-1,-2.510921359E-1
3.182361614E0,-6.388690323E-2,-5.426902771E-1,-2.492595315E-1
3.184780000E0,-5.105874687E-2,-5.371924639E-1,-2.486486584E-1
3.187199114E0,-3.823059052E-2,-5.353599191E-1,-2.462051958E-1
3.189619062E0,-2.784588560E-2,-5.298621058E-1,-2.443726063E-1
3.192038177E0,-1.868291385E-2,-5.261968970E-1,-2.407074273E-1
3.194456562E0,-8.909080178E-3,-5.213100314E-1,-2.382639647E-1
3.196875677E0,-3.569739638E-4,-5.170339346E-1,-2.358205020E-1
3.199295625E0,8.805996738E-3,-5.115361810E-1,-2.339879125E-1
3.201714739E0,1.674723998E-2,-5.066492558E-1,-2.321553081E-1
3.204133073E0,2.285588533E-2,-5.005406141E-1,-2.303227186E-1
3.206552239E0,2.835366875E-2,-4.968754351E-1,-2.284901291E-1
3.208972135E0,3.507317603E-2,-4.956537187E-1,-2.291009873E-1
3.211391302E0,4.667960852E-2,-4.932102859E-1,-2.339879125E-1
3.213809635E0,5.584257841E-2,-4.901559651E-1,-2.376530915E-1
3.216228802E0,6.683814526E-2,-4.864907861E-1,-2.364313602E-1
3.218648698E0,7.722284645E-2,-4.852690399E-1,-2.339879125E-1
3.221067864E0,9.188359976E-2,-4.864907861E-1,-2.297118604E-1
3.223486198E0,1.065443531E-1,-4.858798981E-1,-2.229923457E-1
3.225905364E0,1.205942407E-1,-4.889342487E-1,-2.144402415E-1
3.228325260E0,1.376984566E-1,-4.913776815E-1,-2.058881372E-1
3.230744427E0,1.511374861E-1,-4.980972111E-1,-1.961143017E-1
3.233162760E0,1.682416946E-1,-5.042058229E-1,-1.869513243E-1
3.235581927E0,1.835133135E-1,-5.121470690E-1,-1.777883470E-1
3.238001823E0,1.969523430E-1,-5.206991434E-1,-1.674036533E-1
3.240420989E0,2.097804993E-1,-5.298621058E-1,-1.539646238E-1
3.242839323E0,2.238303870E-1,-5.402467847E-1,-1.435799301E-1
3.245258489E0,2.391020060E-1,-5.500206351E-1,-1.313626319E-1
3.247678385E0,2.519301474E-1,-5.616270900E-1,-1.179236174E-1
3.250097552E0,2.659800351E-1,-5.701791644E-1,-1.063171774E-1
3.252515885E0,2.830842435E-1,-5.799530149E-1,-9.409989417E-2
3.254935052E0,2.983558774E-1,-5.872833729E-1,-8.371518552E-2
3.257354948E0,3.142383397E-1,-5.964463949E-1,-7.088702917E-2
3.259774114E0,3.282882273E-1,-6.037767529E-1,-6.050233543E-2
3.262192448E0,3.429490030E-1,-6.104962826E-1,-4.950676858E-2
3.264611562E0,3.594423532E-1,-6.166049242E-1,-3.728947043E-2
3.267031510E0,3.716596365E-1,-6.214917898E-1,-2.507217787E-2
3.269450625E0,3.863203824E-1,-6.257678866E-1,-1.590920798E-2
3.271869010E0,4.009811282E-1,-6.282113194E-1,-6.746237166E-3
3.274288125E0,4.156419039E-1,-6.324873567E-1,3.027597442E-3
3.276708073E0,4.315243661E-1,-6.367634535E-1,1.280143298E-2
3.279127187E0,4.461851418E-1,-6.379851699E-1,2.257526852E-2
3.281545573E0,4.608458877E-1,-6.392068863E-1,3.234910220E-2
3.283964687E0,4.736740291E-1,-6.404286027E-1,3.845775127E-2
3.286384635E0,4.858913422E-1,-6.422612071E-1,4.700985551E-2
3.288803750E0,4.968868792E-1,-6.428720951E-1,5.556195974E-2
3.291222135E0,5.084933639E-1,-6.416503787E-1,6.105974317E-2
3.293641250E0,5.176563263E-1,-6.416503787E-1,6.594666839E-2
3.296061198E0,5.262084603E-1,-6.392068863E-1,6.900098920E-2
3.298480312E0,5.347605348E-1,-6.349308491E-1,7.388791442E-2
3.300898698E0,5.427017808E-1,-6.306548119E-1,7.694223523E-2
3.303317812E0,5.506430268E-1,-6.251569986E-1,7.694223523E-2
3.305737760E0,5.567516685E-1,-6.159940362E-1,7.694223523E-2
3.308156875E0,5.646929145E-1,-6.056093574E-1,7.694223523E-2
3.310575260E0,5.714124441E-1,-5.933920145E-1,7.449877262E-2
3.312994375E0,5.799645185E-1,-5.811747313E-1,7.327704132E-2
3.315414323E0,5.879057646E-1,-5.677357316E-1,6.839013100E-2
3.317833437E0,5.952361226E-1,-5.512423515E-1,6.472493708E-2
3.320251823E0,6.019556522E-1,-5.347490311E-1,6.044888496E-2
3.322670937E0,6.111186147E-1,-5.182557106E-1,5.556195974E-2
3.325090885E0,6.202815771E-1,-5.029841065E-1,5.189677328E-2
3.327510000E0,6.312771440E-1,-4.871016443E-1,5.067504197E-2
3.329928385E0,6.398292780E-1,-4.730517566E-1,4.823158681E-2
3.332347500E0,6.520465612E-1,-4.614453316E-1,4.762072116E-2
3.334767448E0,6.612095237E-1,-4.522823393E-1,4.945331812E-2
3.337186562E0,6.703724861E-1,-4.431193769E-1,5.128590763E-2
3.339604896E0,6.789246202E-1,-4.357889891E-1,5.311850458E-2
3.342024062E0,6.856441498E-1,-4.302912354E-1,5.739455670E-2
3.344444010E0,6.917527914E-1,-4.254043102E-1,5.861628801E-2
3.346863125E0,6.941962242E-1,-4.229608476E-1,6.228147447E-2
3.349281458E0,6.960288286E-1,-4.211282432E-1,6.594666839E-2
3.351700625E0,6.960288286E-1,-4.199065268E-1,7.144445181E-2
3.354120573E0,6.941962242E-1,-4.205173850E-1,7.266618311E-2
3.356539687E0,6.899201870E-1,-4.223499894E-1,7.755309343E-2
3.358958021E0,6.856441498E-1,-4.229608476E-1,7.999655604E-2
3.361377187E0,6.807572246E-1,-4.266260266E-1,8.182914555E-2
3.363797135E0,6.758702993E-1,-4.290694892E-1,8.244001865E-2
3.366216250E0,6.722050905E-1,-4.309020936E-1,8.244001865E-2
3.368634583E0,6.660964489E-1,-4.315129519E-1,8.244001865E-2
3.371053750E0,6.581552029E-1,-4.345672727E-1,8.244001865E-2
3.373473698E0,6.526574492E-1,-4.382324517E-1,8.060741425E-2
3.375892812E0,6.459379196E-1,-4.412867725E-1,7.633136213E-2
3.378311146E0,6.404401660E-1,-4.473954439E-1,7.388791442E-2
3.380730312E0,6.367749572E-1,-4.516714811E-1,7.144445181E-2
3.383150260E0,6.355532408E-1,-4.510606229E-1,6.777925789E-2
3.385569375E0,6.361640692E-1,-4.498389065E-1,6.350320578E-2
3.387987708E0,6.392183900E-1,-4.455628395E-1,5.983802676E-2
3.390406875E0,6.453270316E-1,-4.400650561E-1,5.800542235E-2
3.392826823E0,6.551008821E-1,-4.394541979E-1,5.739455670E-2
3.395245937E0,6.642638445E-1,-4.345672727E-1,5.861628801E-2
3.397664271E0,6.740376949E-1,-4.296803474E-1,6.105974317E-2
3.400083437E0,6.838115454E-1,-4.241825640E-1,6.411407888E-2
3.402503333E0,6.935853958E-1,-4.156304598E-1,6.961186230E-2
3.404922500E0,6.996940374E-1,-4.095218182E-1,7.449877262E-2
3.407340885E0,7.051917911E-1,-4.003588557E-1,7.938569784E-2
3.409760000E0,7.064135075E-1,-3.887524307E-1,8.366174996E-2
3.412179948E0,7.015266418E-1,-3.789785802E-1,8.732692897E-2
3.414599062E0,6.880875826E-1,-3.679830134E-1,8.915953338E-2
3.417017448E0,6.715942621E-1,-3.582091928E-1,9.160298109E-2
3.419436562E0,6.459379196E-1,-3.453810215E-1,9.038124979E-2
3.421856510E0,6.117295027E-1,-3.331637383E-1,9.038124979E-2
3.424275625E0,5.720232725E-1,-3.197247088E-1,8.915953338E-2
3.426694010E0,5.243758559E-1,-3.099508584E-1,8.854866028E-2
3.429113125E0,4.736740291E-1,-2.959009707E-1,8.488346636E-2
3.431533073E0,4.223614037E-1,-2.849054039E-1,8.366174996E-2
3.433952187E0,3.673835695E-1,-2.745207250E-1,8.244001865E-2
3.436370573E0,3.154600859E-1,-2.678011954E-1,7.999655604E-2
3.438789687E0,2.696452141E-1,-2.629142702E-1,7.633136213E-2
3.441209635E0,2.262738496E-1,-2.592490911E-1,7.388791442E-2
3.443628750E0,1.896219701E-1,-2.543621659E-1,7.144445181E-2
3.446047135E0,1.572461277E-1,-2.506969869E-1,6.655752659E-2
3.448466250E0,1.279246211E-1,-2.458100468E-1,6.716839969E-2
3.450886198E0,1.034900323E-1,-2.427557260E-1,6.716839969E-2
3.453305312E0,7.966630906E-2,-2.409231216E-1,6.655752659E-2
3.455723698E0,5.706430972E-2,-2.458100468E-1,6.716839969E-2
3.458142812E0,3.934923559E-2,-2.500861287E-1,6.961186230E-2
3.460562760E0,2.163415775E-2,-2.580273747E-1,6.839013100E-2
3.462981875E0,5.140808411E-3,-2.690229416E-1,6.716839969E-2
3.465400260E0,-1.074167434E-2,-2.794076204E-1,6.411407888E-2
3.467819375E0,-2.540242672E-2,-2.873488665E-1,5.861628801E-2
3.470239323E0,-3.823059052E-2,-2.965118587E-1,5.189677328E-2
3.472658437E0,-5.289134383E-2,-3.062856793E-1,4.639898986E-2
3.475076823E0,-6.510863453E-2,-3.123943210E-1,4.151207209E-2
3.477495937E0,-7.732592523E-2,-3.215573132E-1,3.601429611E-2
3.479915885E0,-9.076495469E-2,-3.282768130E-1,2.929478325E-2
3.482335000E0,-1.042039767E-1,-3.337745965E-1,2.624045871E-2
3.484753385E0,-1.164212674E-1,-3.392723799E-1,2.013180964E-2
3.487172500E0,-1.274168342E-1,-3.447701633E-1,1.219056733E-2
3.489592448E0,-1.371906698E-1,-3.490462005E-1,4.249328747E-3
3.492011562E0,-1.463536322E-1,-3.527114093E-1,-6.375890225E-4
3.494429948E0,-1.506296843E-1,-3.594309092E-1,-7.967966609E-3
3.496849062E0,-1.542948782E-1,-3.612635136E-1,-1.468747854E-2
3.499269010E0,-1.561274678E-1,-3.575983047E-1,-2.140699141E-2
3.501688125E0,-1.567383409E-1,-3.521005511E-1,-2.873736806E-2
3.504106510E0,-1.555166095E-1,-3.478244841E-1,-3.484601527E-2
3.506525625E0,-1.494079530E-1,-3.380506635E-1,-4.278725386E-2
3.508945573E0,-1.414667219E-1,-3.282768130E-1,-5.011763424E-2
3.511364739E0,-1.304711550E-1,-3.154486418E-1,-5.561541766E-2
3.513783073E0,-1.188647300E-1,-3.032313585E-1,-5.989146978E-2
3.516202187E0,-1.048148423E-1,-2.965118587E-1,-6.538925320E-2
3.518622135E0,-8.954322338E-2,-2.885706127E-1,-6.966529787E-2
3.521041250E0,-7.366073877E-2,-2.812402248E-1,-7.149789482E-2
3.523459635E0,-5.838911980E-2,-2.745207250E-1,-7.149789482E-2
3.525878750E0,-4.250664264E-2,-2.696337998E-1,-7.088702917E-2
3.528298698E0,-2.418069728E-2,-2.647468746E-1,-7.027617097E-2
3.530717864E0,-6.465621293E-3,-2.647468746E-1,-6.844356656E-2
3.533136198E0,1.247118507E-2,-2.641360164E-1,-6.905443966E-2
3.535555364E0,3.140798956E-2,-2.623034120E-1,-6.416752189E-2
3.537975260E0,5.217739195E-2,-2.616925538E-1,-6.416752189E-2
3.540394427E0,7.233592868E-2,-2.659686208E-1,-6.355665624E-2
3.542812760E0,9.493792057E-2,-2.739098668E-1,-6.416752189E-2
3.545231927E0,1.163181886E-1,-2.873488665E-1,-6.600011885E-2
3.547651823E0,1.395310611E-1,-2.995661795E-1,-7.149789482E-2
3.550070989E0,1.627439111E-1,-3.105617464E-1,-7.699567825E-2
3.552489323E0,1.865676343E-1,-3.252224922E-1,-8.432605863E-2
3.554908489E0,2.116130888E-1,-3.423267007E-1,-9.043470025E-2
3.557328385E0,2.366585433E-1,-3.624852300E-1,-1.002085358E-1
3.559747552E0,2.598713934E-1,-3.838655055E-1,-1.093715131E-1
3.562165885E0,2.800299227E-1,-3.997479975E-1,-1.197562069E-1
3.564585052E0,2.983558774E-1,-4.131869972E-1,-1.307517737E-1
3.567004948E0,3.148492277E-1,-4.290694892E-1,-1.441908032E-1
3.569424114E0,3.264556527E-1,-4.437302351E-1,-1.545754969E-1
3.571842448E0,3.362294734E-1,-4.565584064E-1,-1.667927951E-1
3.574261614E0,3.417272568E-1,-4.693865776E-1,-1.771774888E-1
3.576681562E0,3.435598612E-1,-4.791603982E-1,-1.906165183E-1
3.579100677E0,3.441707194E-1,-4.901559651E-1,-2.052772641E-1
3.581519062E0,3.411163986E-1,-5.005406141E-1,-2.187162936E-1
3.583938177E0,3.362294734E-1,-5.109252930E-1,-2.321553081E-1
3.586358125E0,3.258447945E-1,-5.213100314E-1,-2.449834794E-1
3.588777239E0,3.148492277E-1,-5.286403894E-1,-2.547573149E-1
3.591195625E0,2.959124148E-1,-5.280295014E-1,-2.626985610E-1
3.593614739E0,2.775864601E-1,-5.243643522E-1,-2.688072026E-1
3.596034687E0,2.562062144E-1,-5.182557106E-1,-2.688072026E-1
3.598453802E0,2.354368120E-1,-5.097035766E-1,-2.675854862E-1
3.600872187E0,2.134456933E-1,-5.017623305E-1,-2.626985610E-1
3.603291302E0,1.902328283E-1,-4.919885695E-1,-2.541464567E-1
3.605711250E0,1.700742990E-1,-4.803821146E-1,-2.474269271E-1
3.608130364E0,1.517483443E-1,-4.681648314E-1,-2.388748229E-1
3.610548750E0,1.340332776E-1,-4.553366899E-1,-2.297118604E-1
3.612967864E0,1.181507781E-1,-4.431193769E-1,-2.199380249E-1
3.615387812E0,1.053226218E-1,-4.315129519E-1,-2.071098536E-1
3.617806979E0,9.493792057E-2,-4.235717058E-1,-1.942816973E-1
3.620225312E0,8.455321938E-2,-4.205173850E-1,-1.814535409E-1
3.622644479E0,7.722284645E-2,-4.174630642E-1,-1.661819220E-1
3.625064375E0,7.111419737E-2,-4.168522060E-1,-1.496885717E-1
3.627483541E0,6.500554830E-2,-4.174630642E-1,-1.331952363E-1
3.629901875E0,6.256209314E-2,-4.180739224E-1,-1.167018861E-1
3.632321041E0,6.011863798E-2,-4.199065268E-1,-1.008194089E-1
3.634740937E0,6.072949618E-2,-4.217391014E-1,-8.249346167E-2
3.637160104E0,6.011863798E-2,-4.254043102E-1,-6.661097705E-2
3.639578437E0,6.195122749E-2,-4.296803474E-1,-5.072849989E-2
3.641997604E0,6.500554830E-2,-4.345672727E-1,-3.851120174E-2
3.644417552E0,6.500554830E-2,-4.363998771E-1,-2.507217787E-2
3.646836666E0,6.683814526E-2,-4.412867725E-1,-1.224401966E-2
3.649255000E0,6.561641395E-2,-4.431193769E-1,-3.081047907E-3
3.651674166E0,6.805987656E-2,-4.467845559E-1,4.249328747E-3
3.654094114E0,6.928160787E-2,-4.431193769E-1,1.096883975E-2
3.656513229E0,6.867074221E-2,-4.406759143E-1,1.463402994E-2
3.658931614E0,6.744901091E-2,-4.339564145E-1,1.952094771E-2
3.661350729E0,6.622727960E-2,-4.260151684E-1,2.379699983E-2
3.663770677E0,6.439469010E-2,-4.150196016E-1,2.501872741E-2
3.666189791E0,6.195122749E-2,-4.003588557E-1,2.562959306E-2
3.668608177E0,5.828604102E-2,-3.850872219E-1,2.562959306E-2
3.671027291E0,5.584257841E-2,-3.679830134E-1,2.624045871E-2
3.673447239E0,5.278825760E-2,-3.490462005E-1,2.440786548E-2
3.675866354E0,4.851220548E-2,-3.270550966E-1,2.196440287E-2
3.678284739E0,4.606874287E-2,-3.050639629E-1,1.952094771E-2
3.680703854E0,4.484701157E-2,-2.824619710E-1,1.402316429E-2
3.683123802E0,4.667960852E-2,-2.568056285E-1,7.303651422E-3
3.685542968E0,4.851220548E-2,-2.305384278E-1,5.841385573E-4
3.687961302E0,5.339912325E-2,-2.054929733E-1,-8.578831330E-3
3.690380468E0,6.011863798E-2,-1.780040562E-1,-2.201785520E-2
3.692800364E0,6.683814526E-2,-1.541803330E-1,-3.362428397E-2
3.695219531E0,7.355765998E-2,-1.291348934E-1,-4.645244032E-2
3.697637864E0,7.905544341E-2,-1.053111702E-1,-5.866973847E-2
3.700057031E0,8.272062987E-2,-8.759608865E-2,-7.394134998E-2
3.702476927E0,9.188359976E-2,-7.782225311E-2,-9.165643156E-2
3.704896093E0,9.738138318E-2,-6.804841757E-2,-1.112041026E-1
3.707314427E0,1.041008905E-1,-5.888545141E-2,-1.283083111E-1
3.709733593E0,1.089878157E-1,-4.666815326E-2,-1.435799301E-1
3.712153489E0,1.169290468E-1,-3.628345579E-2,-1.594624072E-1
3.714572656E0,1.236485615E-1,-2.589875460E-2,-1.735122949E-1
3.716990989E0,1.328115463E-1,-2.040097304E-2,-1.893947870E-1
3.719410156E0,1.401419193E-1,-1.551405527E-2,-2.071098536E-1
3.721830104E0,1.505266279E-1,-1.368146017E-2,-2.229923457E-1
3.724249218E0,1.615221798E-1,-1.307059638E-2,-2.370422333E-1
3.726667604E0,1.731286198E-1,-8.794542402E-3,-2.486486584E-1
3.729086718E0,1.847350448E-1,-3.296760377E-3,-2.559790313E-1
3.731506666E0,1.920654178E-1,2.174869366E-2,-2.529247105E-1
3.733925781E0,2.079479098E-1,2.907907031E-2,-2.541464567E-1
3.736344166E0,2.317716330E-1,9.531399235E-3,-2.626985610E-1
3.738763281E0,2.531518638E-1,-1.245973259E-2,-2.712506652E-1
3.741183229E0,2.751429975E-1,-2.895307913E-2,-2.749158442E-1
3.743602396E0,2.946906686E-1,-4.544642940E-2,-2.743049860E-1
3.746020729E0,3.203470111E-1,-9.553733468E-2,-2.694180608E-1
3.748439896E0,3.350077569E-1,-1.010351107E-1,-2.626985610E-1
3.750859791E0,3.417272568E-1,-7.293533534E-2,-2.517029941E-1
3.753278958E0,3.447815776E-1,-5.583113059E-2,-2.376530915E-1
3.755697291E0,3.423381150E-1,-5.033334717E-2,-2.242140770E-1
3.758116458E0,3.405055404E-1,-5.644198880E-2,-2.089424580E-1
3.760536406E0,3.362294734E-1,-6.621582061E-2,-1.906165183E-1
3.762955521E0,3.301208317E-1,-7.598965615E-2,-1.735122949E-1
3.765373854E0,3.203470111E-1,-8.209830523E-2,-1.551863551E-1
3.767793021E0,3.081296980E-1,-8.515263349E-2,-1.344169676E-1
3.770212968E0,2.977449894E-1,-8.209830523E-2,-1.148692966E-1
3.772632083E0,2.849168479E-1,-7.537879795E-2,-9.471075237E-2
3.775050468E0,2.714778185E-1,-6.010718271E-2,-7.577395439E-2
3.777469583E0,2.617039979E-1,-4.666815326E-2,-5.744800717E-2
3.779889531E0,2.500975430E-1,-2.956394479E-2,-4.217638820E-2
3.782308646E0,2.409345955E-1,-1.184886694E-2,-2.995909564E-2
3.784727031E0,2.360476851E-1,6.477075163E-3,-1.896353066E-2
3.787146198E0,2.317716330E-1,2.235955559E-2,-9.800560772E-3
3.789566093E0,2.256629765E-1,3.885290399E-2,-1.859320328E-3
3.791985260E0,2.244412452E-1,5.656797811E-2,4.860192537E-3
3.794403593E0,2.207760662E-1,7.428306341E-2,1.157970540E-2
3.796822760E0,2.195543349E-1,8.955467492E-2,1.585575752E-2
3.799242656E0,2.177217454E-1,1.048262939E-1,2.074267529E-2
3.801661823E0,2.152782828E-1,1.207087860E-1,2.318613417E-2
3.804080156E0,2.140565515E-1,1.359803975E-1,2.562959306E-2
3.806499323E0,2.128348202E-1,1.530846208E-1,2.868391760E-2
3.808919271E0,2.097804993E-1,1.689670980E-1,2.868391760E-2
3.811338385E0,2.079479098E-1,1.860713065E-1,2.929478325E-2
3.813756771E0,2.067261785E-1,2.056189775E-1,2.929478325E-2
3.816175885E0,2.079479098E-1,2.257775217E-1,2.685132064E-2
3.818595833E0,2.085587680E-1,2.471577823E-1,2.746218629E-2
3.821014948E0,2.091696411E-1,2.697597444E-1,2.501872741E-2
3.823433333E0,2.103913575E-1,2.941943407E-1,2.318613417E-2
3.825852448E0,2.146674097E-1,3.174071908E-1,2.074267529E-2
3.828272396E0,2.183326036E-1,3.381766081E-1,1.463402994E-2
3.830691562E0,2.268847078E-1,3.565025330E-1,1.096883975E-2
3.833109896E0,2.323824912E-1,3.754393458E-1,7.303651422E-3
3.835529010E0,2.409345955E-1,3.913218379E-1,1.805869862E-3
3.837948958E0,2.476541251E-1,4.047608376E-1,-4.302779213E-3
3.840368125E0,2.562062144E-1,4.194216132E-1,-7.967966609E-3
3.842786458E0,2.659800351E-1,4.310280383E-1,-9.189696051E-3
3.845205625E0,2.745321393E-1,4.395801425E-1,-1.163315494E-2
3.847625573E0,2.824733853E-1,4.487431049E-1,-1.529834326E-2
3.850044687E0,2.910254896E-1,4.579060972E-1,-1.774180308E-2
3.852463073E0,2.977449894E-1,4.634038806E-1,-2.140699141E-2
3.854882187E0,3.050753772E-1,4.707342386E-1,-2.446131408E-2
3.857302135E0,3.117949069E-1,4.756211638E-1,-2.507217787E-2
3.859721250E0,3.166818023E-1,4.817298055E-1,-2.140699141E-2
3.862139635E0,3.209578693E-1,4.884493351E-1,-2.079612575E-2
3.864558750E0,3.246230483E-1,4.939470887E-1,-2.079612575E-2
3.866978698E0,3.258447945E-1,4.988340139E-1,-2.079612575E-2
3.869397812E0,3.282882273E-1,5.031100512E-1,-1.957439631E-2
3.871816198E0,3.288991153E-1,5.079970360E-1,-1.957439631E-2
3.874235312E0,3.295099735E-1,5.141056776E-1,-1.835266687E-2
3.876655260E0,3.282882273E-1,5.220469236E-1,-1.896353066E-2
3.879074427E0,3.252339065E-1,5.299881697E-1,-2.018526010E-2
3.881492760E0,3.234013319E-1,5.348750949E-1,-1.896353066E-2
3.883911927E0,3.221795857E-1,5.415946245E-1,-1.713093743E-2
3.886331823E0,3.179035485E-1,5.458706617E-1,-1.652007177E-2
3.888750989E0,3.142383397E-1,5.532010198E-1,-1.529834326E-2
3.891169323E0,3.087405562E-1,5.586988330E-1,-1.285488438E-2
3.893588489E0,3.032427728E-1,5.635857582E-1,-1.041142549E-2
3.896008437E0,2.983558774E-1,5.709161162E-1,-9.800560772E-3
3.898427552E0,2.928580940E-1,5.776356459E-1,-6.135372445E-3
3.900845937E0,2.867494524E-1,5.837442875E-1,-4.913643003E-3
3.903265052E0,2.812516689E-1,5.916855335E-1,-3.691913560E-3
3.905685000E0,2.775864601E-1,6.002376080E-1,-3.081047907E-3
3.908104114E0,2.714778185E-1,6.118440628E-1,-1.248454675E-3
3.910522500E0,2.678126395E-1,6.240613461E-1,-6.375890225E-4
3.912941666E0,2.635365725E-1,6.411655545E-1,5.841385573E-4
3.915361562E0,2.580387890E-1,6.607132554E-1,1.805869862E-3
3.917780729E0,2.519301474E-1,6.827043891E-1,3.638463095E-3
3.920199062E0,2.476541251E-1,6.991977096E-1,4.249328747E-3
3.922618229E0,2.439889163E-1,7.132475972E-1,4.249328747E-3
3.925038125E0,2.427671999E-1,7.266865969E-1,4.249328747E-3
3.927457291E0,2.403237373E-1,7.389039397E-1,4.249328747E-3
3.929875677E0,2.391020060E-1,7.517320514E-1,4.249328747E-3
3.932294791E0,2.384911329E-1,7.621167898E-1,1.805869862E-3
3.934714739E0,2.384911329E-1,7.731123567E-1,1.195004210E-3
3.937133854E0,2.378802747E-1,7.859405279E-1,5.841385573E-4
3.939552239E0,2.391020060E-1,7.957143188E-1,5.841385573E-4
3.941971354E0,2.378802747E-1,8.048772812E-1,-1.248454675E-3
3.944391302E0,2.372694165E-1,8.128185272E-1,-1.859320328E-3
3.946810468E0,2.391020060E-1,8.219814897E-1,-1.248454675E-3
3.949228802E0,2.403237373E-1,8.287010193E-1,-3.081047907E-3
3.951647968E0,2.397128791E-1,8.366422653E-1,-3.081047907E-3
3.954067864E0,2.421563417E-1,8.470269442E-1,-3.691913560E-3
3.956487031E0,2.427671999E-1,8.555790782E-1,-3.691913560E-3
3.958905364E0,2.458215207E-1,8.610768318E-1,5.841385573E-4
3.961324531E0,2.476541251E-1,8.641312122E-1,4.860192537E-3
3.963744479E0,2.482649833E-1,8.665746450E-1,6.081921980E-3
3.966163593E0,2.488758415E-1,8.708506823E-1,6.081921980E-3
3.968581979E0,2.494866997E-1,8.732941747E-1,5.471056327E-3
3.971001093E0,2.500975430E-1,8.739050031E-1,4.249328747E-3
3.973421041E0,2.519301474E-1,8.739050031E-1,6.081921980E-3
3.975840208E0,2.513192892E-1,8.751267195E-1,6.081921980E-3
3.978258541E0,2.507084310E-1,8.745158911E-1,4.249328747E-3
3.980677708E0,2.507084310E-1,8.696289659E-1,1.805869862E-3
3.983097604E0,2.507084310E-1,8.671855330E-1,3.027597442E-3
3.985516771E0,2.507084310E-1,8.653529286E-1,7.914515212E-3
3.987935104E0,2.519301474E-1,8.622986078E-1,1.341229863E-2
3.990354271E0,2.513192892E-1,8.555790782E-1,1.646662317E-2
3.992774218E0,2.494866997E-1,8.519138694E-1,1.952094771E-2
3.995193333E0,2.507084310E-1,8.482487202E-1,2.013180964E-2
3.997611718E0,2.525410056E-1,8.415291905E-1,2.135354094E-2
4.000030833E0,2.549844682E-1,8.348096609E-1,2.318613417E-2
4.002450781E0,2.580387890E-1,8.293119073E-1,2.318613417E-2
4.004869948E0,2.641474307E-1,8.201489449E-1,2.501872741E-2
4.007288281E0,2.702561021E-1,8.140403032E-1,2.685132064E-2
4.009707448E0,2.745321393E-1,8.085424900E-1,2.746218629E-2
4.012127343E0,2.818625271E-1,7.999904156E-1,3.051651083E-2
4.014546510E0,2.910254896E-1,7.920491695E-1,3.357083350E-2
4.016964843E0,2.965232730E-1,7.816644311E-1,3.540343046E-2
4.019384010E0,3.044645190E-1,7.731123567E-1,3.723601997E-2
4.021803906E0,3.117949069E-1,7.645602226E-1,3.845775127E-2
4.024223073E0,3.203470111E-1,7.560081482E-1,3.723601997E-2
4.026641406E0,3.258447945E-1,7.474560142E-1,3.234910220E-2
4.029060573E0,3.362294734E-1,7.364604473E-1,3.051651083E-2
4.031480521E0,3.466141820E-1,7.279083729E-1,3.173823655E-2
4.033899635E0,3.582206070E-1,7.199671268E-1,3.967948258E-2
4.036318021E0,3.704378903E-1,7.089715600E-1,4.762072116E-2
4.038737135E0,3.783791363E-1,6.973651052E-1,5.556195974E-2
4.041157083E0,3.887638450E-1,6.827043891E-1,6.167061627E-2
4.043576250E0,3.967050910E-1,6.704870462E-1,6.839013100E-2
4.045994583E0,4.046463370E-1,6.576589346E-1,7.449877262E-2
4.048413750E0,4.070897996E-1,6.460524797E-1,7.999655604E-2
4.050833646E0,4.125875831E-1,6.320025921E-1,8.977039158E-2
4.053252812E0,4.131984413E-1,6.216179132E-1,9.954422712E-2
4.055671198E0,4.138092995E-1,6.100114584E-1,1.099289358E-1
4.058090312E0,4.162527621E-1,5.990158916E-1,1.221462190E-1
4.060510260E0,4.168636203E-1,5.880203247E-1,1.306983232E-1
4.062929375E0,4.174744785E-1,5.806899667E-1,1.374178380E-1
4.065347760E0,4.186962247E-1,5.690835118E-1,1.459699422E-1
4.067766875E0,4.180853665E-1,5.593096614E-1,1.533003300E-1
4.070186823E0,4.211396873E-1,5.495358706E-1,1.624632925E-1
4.072605989E0,4.229722619E-1,5.409837365E-1,1.704045385E-1
4.075024323E0,4.241940081E-1,5.324316621E-1,1.752914488E-1
4.077443489E0,4.248048663E-1,5.257121325E-1,1.783457845E-1
4.079863385E0,4.272483289E-1,5.177708864E-1,1.844544262E-1
4.082282552E0,4.278591871E-1,5.110513568E-1,1.868978888E-1
4.084700937E0,4.284700453E-1,5.067753196E-1,1.881196201E-1
4.087120052E0,4.296917915E-1,5.018883348E-1,1.911739409E-1
4.089540000E0,4.290809333E-1,4.976122975E-1,1.911739409E-1
4.091959114E0,4.290809333E-1,4.939470887E-1,1.923956722E-1
4.094377500E0,4.260265827E-1,4.908927679E-1,1.917847991E-1
4.096796666E0,4.254157245E-1,4.872276187E-1,1.930065304E-1
4.099216562E0,4.217505455E-1,4.872276187E-1,1.917847991E-1
4.101635729E0,4.186962247E-1,4.872276187E-1,1.917847991E-1
4.104054062E0,4.138092995E-1,4.884493351E-1,1.917847991E-1
4.106473229E0,4.101441205E-1,4.884493351E-1,1.899522096E-1
4.108893125E0,4.064789116E-1,4.908927679E-1,1.893413365E-1
4.111312291E0,4.028137326E-1,4.921144843E-1,1.875087470E-1
4.113730677E0,3.985376954E-1,4.945579767E-1,1.862870157E-1
4.116149791E0,3.942616284E-1,4.945579767E-1,1.862870157E-1
4.118569739E0,3.899855912E-1,4.927253723E-1,1.862870157E-1
4.120988854E0,3.863203824E-1,4.908927679E-1,1.868978888E-1
4.123407239E0,3.826552033E-1,4.902819395E-1,1.838435680E-1
4.125826406E0,3.747139573E-1,4.939470887E-1,1.752914488E-1
4.128246302E0,3.710487783E-1,4.933362603E-1,1.734588593E-1
4.130665468E0,3.710487783E-1,4.872276187E-1,1.777349114E-1
4.133083802E0,3.734922409E-1,4.829515219E-1,1.807892323E-1
4.135502968E0,3.759356737E-1,4.774537683E-1,1.838435680E-1
4.137922864E0,3.789900243E-1,4.750103056E-1,1.868978888E-1
4.140342031E0,3.802117407E-1,4.743994176E-1,1.899522096E-1
4.142760416E0,3.802117407E-1,4.756211638E-1,1.905630678E-1
4.145179531E0,3.802117407E-1,4.762320220E-1,1.942282617E-1
4.147599479E0,3.777682781E-1,4.762320220E-1,1.966717243E-1
4.150018646E0,3.759356737E-1,4.768428802E-1,1.991151869E-1
4.152436979E0,3.747139573E-1,4.780646265E-1,1.985043138E-1
4.154856146E0,3.734922409E-1,4.786754847E-1,1.972825825E-1
4.157276041E0,3.741030991E-1,4.780646265E-1,1.972825825E-1
4.159695208E0,3.741030991E-1,4.786754847E-1,1.954499930E-1
4.162113541E0,3.741030991E-1,4.786754847E-1,1.954499930E-1
4.164532708E0,3.747139573E-1,4.762320220E-1,1.972825825E-1
4.166952656E0,3.753248155E-1,4.731777012E-1,1.972825825E-1
4.169371771E0,3.753248155E-1,4.731777012E-1,1.960608512E-1
4.171790156E0,3.759356737E-1,4.719559848E-1,1.985043138E-1
4.174209271E0,3.734922409E-1,4.725668430E-1,1.997260451E-1
4.176629218E0,3.741030991E-1,4.713450968E-1,2.009477764E-1
4.179048385E0,3.747139573E-1,4.719559848E-1,2.021695077E-1
4.181466718E0,3.765465617E-1,4.725668430E-1,2.021695077E-1
4.183885885E0,3.789900243E-1,4.725668430E-1,2.015586346E-1
4.186305781E0,3.814334571E-1,4.713450968E-1,2.015586346E-1
4.188724948E0,3.820443451E-1,4.713450968E-1,2.009477764E-1
4.191143333E0,3.857095242E-1,4.676799178E-1,2.009477764E-1
4.193562448E0,3.899855912E-1,4.689016342E-1,1.991151869E-1
4.195982396E0,3.918181658E-1,4.689016342E-1,2.015586346E-1
4.198401562E0,3.930399120E-1,4.701233804E-1,2.009477764E-1
4.200819896E0,3.844878078E-1,4.860058427E-1,1.923956722E-1
4.203239062E0,3.808225989E-1,4.945579767E-1,1.875087470E-1
4.205658958E0,3.875421286E-1,4.847841263E-1,1.905630678E-1
4.208078125E0,3.954833448E-1,4.737885594E-1,2.009477764E-1
4.210496458E0,4.022028744E-1,4.719559848E-1,2.058346868E-1
4.212915625E0,4.077006578E-1,4.682907760E-1,2.107216120E-1
4.215335573E0,4.113658369E-1,4.682907760E-1,2.156085223E-1
4.217754687E0,4.119766951E-1,4.670690596E-1,2.186628580E-1
4.220173073E0,4.131984413E-1,4.664582014E-1,2.211063057E-1
4.222592187E0,4.101441205E-1,4.664582014E-1,2.229389101E-1
4.225012135E0,4.089223742E-1,4.676799178E-1,2.259932309E-1
4.227431302E0,4.058680534E-1,4.695125222E-1,2.272149622E-1
4.229849635E0,4.022028744E-1,4.737885594E-1,2.302692831E-1
4.232268802E0,3.997594118E-1,4.780646265E-1,2.321018875E-1
4.234688750E0,3.973159492E-1,4.847841263E-1,2.357670665E-1
4.237107864E0,3.960942328E-1,4.878384471E-1,2.369887829E-1
4.239526250E0,3.967050910E-1,4.951688051E-1,2.418757081E-1
4.241945364E0,3.960942328E-1,5.031100512E-1,2.449300289E-1
4.244365312E0,3.973159492E-1,5.061644316E-1,2.473734915E-1
4.246784427E0,3.991485536E-1,5.122730732E-1,2.498169541E-1
4.249202812E0,4.009811282E-1,5.171599984E-1,2.534821332E-1
4.251621979E0,4.022028744E-1,5.189926028E-1,2.571473420E-1
4.254041875E0,4.052571952E-1,5.226578116E-1,2.602016628E-1
4.256461041E0,4.089223742E-1,5.177708864E-1,2.626451254E-1
4.258879375E0,4.113658369E-1,5.159382820E-1,2.675320208E-1
4.261298541E0,4.058680534E-1,5.244904160E-1,2.760841250E-1
4.263718489E0,4.028137326E-1,5.312098861E-1,2.840253711E-1
4.266137604E0,3.979268074E-1,5.360968113E-1,2.919666171E-1
4.268555989E0,3.918181658E-1,5.385403037E-1,2.974644005E-1
4.270975156E0,3.844878078E-1,5.458706617E-1,3.054056466E-1
4.273395052E0,3.747139573E-1,5.574771166E-1,3.121251464E-1
4.275814218E0,3.667727113E-1,5.660291910E-1,3.194555342E-1
4.278232552E0,3.576097488E-1,5.709161162E-1,3.255641758E-1
4.280651718E0,3.502793610E-1,5.758030415E-1,3.310619593E-1
4.283071666E0,3.447815776E-1,5.800790787E-1,3.371706009E-1
4.285490781E0,3.368403316E-1,5.861877203E-1,3.438901305E-1
4.287909166E0,3.185144067E-1,6.118440628E-1,3.377814591E-1
4.290328281E0,3.081296980E-1,6.258939505E-1,3.396140635E-1
4.292748229E0,3.111840189E-1,6.167309880E-1,3.530530930E-1
4.295167396E0,3.136274815E-1,6.142874956E-1,3.695464432E-1
4.297585729E0,3.142383397E-1,6.197853088E-1,3.842071891E-1
4.300004896E0,3.124057651E-1,6.252830625E-1,3.964244723E-1
4.302424843E0,3.117949069E-1,6.295591593E-1,4.068091810E-1
4.304843958E0,3.062971234E-1,6.332243085E-1,4.171938896E-1
4.307262343E0,3.026319146E-1,6.362786293E-1,4.251351357E-1
4.309681458E0,2.977449894E-1,6.381112337E-1,4.330763817E-1
4.312101406E0,2.922472060E-1,6.423872709E-1,4.397958815E-1
4.314520573E0,2.843059897E-1,6.454415917E-1,4.446828067E-1
4.316938906E0,2.818625271E-1,6.484959126E-1,4.526240528E-1
4.319358073E0,2.775864601E-1,6.515502334E-1,4.556783736E-1
4.321777968E0,2.745321393E-1,6.539937258E-1,4.569000900E-1
4.324197135E0,2.702561021E-1,6.656001210E-1,4.569000900E-1
4.326615468E0,2.659800351E-1,6.741522551E-1,4.538457692E-1
4.329034635E0,2.653691769E-1,6.839261055E-1,4.489588439E-1
4.331454583E0,2.647583187E-1,6.967542768E-1,4.440719187E-1
4.333873698E0,2.629257143E-1,7.089715600E-1,4.397958815E-1
4.336292083E0,2.610931098E-1,7.211888433E-1,4.336872399E-1
4.338711250E0,2.580387890E-1,7.370713353E-1,4.257459939E-1
4.341131146E0,2.574279308E-1,7.456234097E-1,4.208590686E-1
4.343550312E0,2.555953264E-1,7.547863722E-1,4.129178226E-1
4.345968646E0,2.537627518E-1,7.639493942E-1,4.086417854E-1
4.348387812E0,2.507084310E-1,7.743340731E-1,4.043657184E-1
4.350807760E0,2.452106625E-1,7.865513563E-1,3.970353603E-1
4.353226875E0,2.421563417E-1,7.951034904E-1,3.897049725E-1
4.355645260E0,2.372694165E-1,8.048772812E-1,3.823745847E-1
4.358064427E0,2.336042225E-1,8.134294152E-1,3.756550848E-1
4.360484323E0,2.293281704E-1,8.207597733E-1,3.683246970E-1
4.362903489E0,2.250521183E-1,8.268684149E-1,3.628269136E-1
4.365321823E0,2.207760662E-1,8.335879445E-1,3.579400182E-1
4.367740989E0,2.183326036E-1,8.384748697E-1,3.536639512E-1
4.370160937E0,2.140565515E-1,8.439726233E-1,3.512204885E-1
4.372580052E0,2.116130888E-1,8.476378322E-1,3.481661677E-1
4.374998437E0,2.079479098E-1,8.464161158E-1,3.475553095E-1
4.377417552E0,2.036718577E-1,8.458052278E-1,3.432792425E-1
4.379837500E0,1.993957907E-1,8.464161158E-1,3.402249217E-1
4.382256666E0,1.932871491E-1,8.451943994E-1,3.365597427E-1
4.384675000E0,1.877893656E-1,8.396965861E-1,3.328945637E-1
4.387094166E0,1.829024553E-1,8.329770565E-1,3.292293549E-1
4.389514114E0,1.774046719E-1,8.287010193E-1,3.273967803E-1
4.391933229E0,1.706851572E-1,8.262575865E-1,3.249533176E-1
4.394351614E0,1.609113216E-1,8.213706613E-1,3.225098550E-1
4.396770729E0,1.541918069E-1,8.177054524E-1,3.206772506E-1
4.399190677E0,1.431962401E-1,8.183163404E-1,3.164012134E-1
4.401609843E0,1.334224045E-1,8.189271688E-1,3.121251464E-1
4.404028177E0,1.230377033E-1,8.164837360E-1,3.054056466E-1
4.406447343E0,1.138747260E-1,8.177054524E-1,3.011295795E-1
4.408867239E0,1.071552187E-1,8.152620196E-1,2.950209379E-1
4.411286406E0,9.799224883E-2,8.128185272E-1,2.883014381E-1
4.413704791E0,9.188359976E-2,8.079316020E-1,2.834145129E-1
4.416123906E0,8.821841329E-2,8.030447364E-1,2.779167295E-1
4.418543854E0,8.516408503E-2,7.993795276E-1,2.711972296E-1
4.420963021E0,8.272062987E-2,7.944926023E-1,2.638668418E-1
4.423381354E0,8.149889857E-2,7.902165651E-1,2.608125210E-1
4.425800521E0,8.088803291E-2,7.871622443E-1,2.583690584E-1
4.428220468E0,7.966630906E-2,7.841079235E-1,2.553147376E-1
4.430639583E0,7.661198080E-2,7.847187519E-1,2.522604167E-1
4.433057968E0,7.477938384E-2,7.822753191E-1,2.504278123E-1
4.435477083E0,7.233592868E-2,7.798318267E-1,2.516495585E-1
4.437897031E0,6.867074221E-2,7.779992819E-1,2.522604167E-1
4.440316198E0,6.744901091E-2,7.773883939E-1,2.528712749E-1
4.442734531E0,6.439469010E-2,7.761666775E-1,2.540929914E-1
4.445153698E0,6.195122749E-2,7.737231851E-1,2.577582002E-1
4.447573593E0,5.889690667E-2,7.688362598E-1,2.583690584E-1
4.449992760E0,5.706430972E-2,7.615059018E-1,2.589799166E-1
4.452411146E0,5.767517537E-2,7.529538274E-1,2.602016628E-1
4.454830260E0,5.645344406E-2,7.450125813E-1,2.608125210E-1
4.457250208E0,5.767517537E-2,7.358496189E-1,2.608125210E-1
4.459669375E0,6.011863798E-2,7.279083729E-1,2.620342374E-1
4.462087708E0,6.011863798E-2,7.217997313E-1,2.614233792E-1
4.464506875E0,6.134036183E-2,7.114149928E-1,2.614233792E-1
4.466926771E0,6.439469010E-2,7.004194260E-1,2.608125210E-1
4.469345937E0,6.500554830E-2,6.869804263E-1,2.571473420E-1
4.471764323E0,6.683814526E-2,6.723196507E-1,2.547038794E-1
4.474183437E0,7.172506303E-2,6.533828378E-1,2.473734915E-1
4.476603385E0,7.600111514E-2,6.332243085E-1,2.369887829E-1
4.479022552E0,8.394236118E-2,6.087897420E-1,2.241606265E-1
4.481440885E0,9.066186845E-2,5.843551159E-1,2.107216120E-1
4.483860052E0,9.982483834E-2,5.611422658E-1,1.954499930E-1
4.486279948E0,1.089878157E-1,5.391511321E-1,1.771240532E-1
4.488699114E0,1.169290468E-1,5.183817744E-1,1.581872404E-1
4.491117500E0,1.254811734E-1,4.976122975E-1,1.386395693E-1
4.493536614E0,1.322006732E-1,4.792863429E-1,1.221462190E-1
4.495956562E0,1.383093297E-1,4.640147388E-1,1.080963314E-1
4.498375729E0,1.438071132E-1,4.487431049E-1,9.465730190E-2
4.500794062E0,1.474722922E-1,4.359149635E-1,8.305087686E-2
4.503213229E0,1.499157548E-1,4.243085384E-1,7.388791442E-2
4.505633125E0,1.511374861E-1,4.108695090E-1,6.472493708E-2
4.508052291E0,1.517483443E-1,3.949870169E-1,5.250763893E-2
4.510470677E0,1.523592174E-1,3.772719502E-1,4.578812420E-2
4.512889791E0,1.541918069E-1,3.552808166E-1,3.540343046E-2
4.515309739E0,1.523592174E-1,3.339005411E-1,2.562959306E-2
4.517728906E0,1.517483443E-1,3.076333702E-1,1.646662317E-2
4.520147239E0,1.486940235E-1,2.813661695E-1,6.081921980E-3
4.522566406E0,1.462505609E-1,2.532664239E-1,-4.302779213E-3
4.524986302E0,1.425853819E-1,2.282209843E-1,-1.285488438E-2
4.527405468E0,1.358658671E-1,2.068407089E-1,-2.140699141E-2
4.529823854E0,1.285354942E-1,1.842387170E-1,-2.934823185E-2
4.532242968E0,1.187616512E-1,1.653019190E-1,-3.545688093E-2
4.534662916E0,1.083769500E-1,1.494194269E-1,-4.217638820E-2
4.537082083E0,9.493792057E-2,1.280391514E-1,-4.767417163E-2
4.539500416E0,8.088803291E-2,1.109349504E-1,-5.072849989E-2
4.541919583E0,6.928160787E-2,1.042154357E-1,-5.133935809E-2
4.544339531E0,5.889690667E-2,1.023828387E-1,-4.889590293E-2
4.546758646E0,4.729047418E-2,9.993937612E-2,-4.400898516E-2
4.549177031E0,3.140798956E-2,8.344603330E-2,-4.523071647E-2
4.551596146E0,1.613637432E-2,7.855911553E-2,-4.339811951E-2
4.554016093E0,2.697349526E-3,8.894381672E-2,-3.118082695E-2
4.556435260E0,-7.076486014E-3,9.688505530E-2,-1.835266687E-2
4.558853593E0,-1.440686267E-2,1.036045700E-1,-3.081047907E-3
4.561272760E0,-2.173723839E-2,1.078806221E-1,8.525380865E-3
4.563692708E0,-3.456539661E-2,1.054371595E-1,1.157970540E-2
4.566111823E0,-4.861528426E-2,1.207087860E-1,2.135354094E-2
4.568530208E0,-4.495009780E-2,1.854604483E-1,5.006418377E-2
4.570949375E0,-6.205431372E-2,2.050081193E-1,7.449877262E-2
4.573369271E0,-9.198667854E-2,1.946234107E-1,8.854866028E-2
4.575788437E0,-1.280276924E-1,1.817952543E-1,9.954422712E-2
4.578206771E0,-1.677338928E-1,1.799626648E-1,1.093180627E-1
4.580625937E0,-2.068292350E-1,1.885147691E-1,1.166484356E-1
4.583045885E0,-2.434811294E-1,2.043972611E-1,1.264222711E-1
4.585465000E0,-2.758569717E-1,2.269992530E-1,1.368069798E-1
4.587883385E0,-3.039567471E-1,2.532664239E-1,1.490242779E-1
4.590302552E0,-3.265587389E-1,2.831987739E-1,1.685719490E-1
4.592722448E0,-3.479390144E-1,3.137420118E-1,1.954499930E-1
4.595141614E0,-3.748170435E-1,3.436743915E-1,2.070564181E-1
4.597560000E0,-3.998624980E-1,3.754393458E-1,2.204954475E-1
4.599979114E0,-4.181884527E-1,4.163672924E-1,2.418757081E-1
4.602399062E0,-4.359035194E-1,4.511865675E-1,2.675320208E-1
4.604818229E0,-4.511751533E-1,4.798972011E-1,2.931883335E-1
4.607236562E0,-4.682793617E-1,5.037209392E-1,3.200663924E-1
4.609655729E0,-4.878270328E-1,5.244904160E-1,3.445009887E-1
4.612075677E0,-5.079855323E-1,5.422054529E-1,3.640486598E-1
4.614494791E0,-5.275332332E-1,5.525901914E-1,3.787094057E-1
4.616913177E0,-5.476917624E-1,5.623639822E-1,3.872615099E-1
4.619332291E0,-5.696828961E-1,5.696943998E-1,3.921484351E-1
4.621752239E0,-5.873979330E-1,5.776356459E-1,3.958136141E-1
4.624171406E0,-5.904522538E-1,6.069571376E-1,4.202482104E-1
4.626589739E0,-5.696828961E-1,6.863695383E-1,4.672847986E-1
4.629008906E0,-5.776241422E-1,6.833152175E-1,4.776694775E-1
4.631428854E0,-6.154977083E-1,6.313917041E-1,4.562892318E-1
4.633847968E0,-6.472626925E-1,6.008484960E-1,4.275785983E-1
4.636266354E0,-6.600908637E-1,6.026811004E-1,4.123069644E-1
4.638685468E0,-6.735298634E-1,5.929072499E-1,3.817637265E-1
4.641105416E0,-6.845254302E-1,5.709161162E-1,3.292293549E-1
4.643524583E0,-6.881906390E-1,5.562553406E-1,2.748624086E-1
4.645942916E0,-6.851363182E-1,5.538119078E-1,2.266040891E-1
4.648362083E0,-6.808602214E-1,5.556445122E-1,1.875087470E-1
4.650782031E0,-6.771950722E-1,5.568662286E-1,1.557437778E-1
4.653201146E0,-6.735298634E-1,5.562553406E-1,1.282548755E-1
4.655619531E0,-6.759733558E-1,5.483140945E-1,1.019876897E-1
4.658038698E0,-6.808602214E-1,5.391511321E-1,7.510963082E-2
4.660458593E0,-6.900232434E-1,5.299881697E-1,5.128590763E-2
4.662877760E0,-6.991862059E-1,5.202143192E-1,2.746218629E-2
4.665296093E0,-7.114034891E-1,5.086079240E-1,6.692787632E-3
4.667715260E0,-7.248424888E-1,4.970014095E-1,-1.285488438E-2
4.670135208E0,-7.395032644E-1,4.853950143E-1,-3.362428397E-2
4.672554323E0,-7.578291893E-1,4.743994176E-1,-5.378282070E-2
4.674972708E0,-7.749333978E-1,4.627929926E-1,-7.027617097E-2
4.677391875E0,-7.981462479E-1,4.517974257E-1,-8.554778993E-2
4.679811771E0,-8.201373816E-1,4.450779259E-1,-9.837594628E-2
4.682230937E0,-8.451828361E-1,4.359149635E-1,-1.014302671E-1
4.684649323E0,-8.610653281E-1,4.139238298E-1,-6.050233543E-2
4.687068437E0,-8.952737451E-1,4.139238298E-1,-2.690477297E-2
4.689488385E0,-9.221518040E-1,4.365258217E-1,-1.652007177E-2
4.691907552E0,-9.319256544E-1,4.658473134E-1,1.035797410E-2
4.694325885E0,-9.545276165E-1,4.792863429E-1,1.829921640E-2
4.696745052E0,-9.838491678E-1,4.566843510E-1,1.280143298E-2
4.699165000E0,-1.020501137E0,4.139238298E-1,-5.524507724E-3
4.701584114E0,-1.053487778E0,3.766610622E-1,-3.240255266E-2
4.704002500E0,-1.082809329E0,3.467287123E-1,-6.966529787E-2
4.706421666E0,-1.107243896E0,3.290136158E-1,-1.069280505E-1
4.708841562E0,-1.128013253E0,3.222941160E-1,-1.331952363E-1
4.711260729E0,-1.152447820E0,3.210723996E-1,-1.429690719E-1
4.713679114E0,-1.177493334E0,3.155746162E-1,-1.460233927E-1
4.716098229E0,-1.205593109E0,3.076333702E-1,-1.429690719E-1
4.718518177E0,-1.235525489E0,2.935834825E-1,-1.380821466E-1
4.720937343E0,-1.264847040E0,2.783118486E-1,-1.362495571E-1
4.723355677E0,-1.295390248E0,2.612076402E-1,-1.386930197E-1
4.725774843E0,-1.324100852E0,2.477686405E-1,-1.472451240E-1
4.728194739E0,-1.347313762E0,2.355513573E-1,-1.612950116E-1
4.730613906E0,-1.366861343E0,2.257775217E-1,-1.729014367E-1
4.733032291E0,-1.383354783E0,2.172254175E-1,-1.875621825E-1
4.735451406E0,-1.394350290E0,2.092841715E-1,-2.010012120E-1
4.737871354E0,-1.401069760E0,1.988994777E-1,-2.132185102E-1
4.740290521E0,-1.401680708E0,1.915690899E-1,-2.388748229E-1
4.742708854E0,-1.401680708E0,1.872930378E-1,-2.608659565E-1
4.745128021E0,-1.404734969E0,1.738540232E-1,-2.663637400E-1
4.747547968E0,-1.407789350E0,1.598041356E-1,-2.743049860E-1
4.749967083E0,-1.407178521E0,1.426999122E-1,-2.865222692E-1
4.752385468E0,-1.406567574E0,1.231522337E-1,-2.987395823E-1
4.754804583E0,-1.404734969E0,1.036045700E-1,-3.158437908E-1
4.757224531E0,-1.402291536E0,8.588948846E-2,-3.305045366E-1
4.759643698E0,-1.398015499E0,7.061786950E-2,-3.476087451E-1
4.762062083E0,-1.391906857E0,5.717884377E-2,-3.628803492E-1
4.764481198E0,-1.385187387E0,4.435068741E-2,-3.775411248E-1
4.766901146E0,-1.377246141E0,3.030079789E-2,-3.922018707E-1
4.769320312E0,-1.370526552E0,1.869436912E-2,-4.074734747E-1
4.771738646E0,-1.363196254E0,8.309667930E-3,-4.178581834E-1
4.774157812E0,-1.351589799E0,-5.740219261E-3,-4.288537502E-1
4.776577760E0,-1.341815948E0,-1.551405527E-2,-4.367949963E-1
4.778996875E0,-1.333263874E0,-2.956394479E-2,-4.453471005E-1
4.781415260E0,-1.323490024E0,-3.322913125E-2,-4.569535255E-1
4.783834375E0,-1.311883569E0,-3.628345579E-2,-4.673382342E-1
4.786254323E0,-1.305164099E0,-4.911161587E-2,-4.673382342E-1
4.788673489E0,-1.289281607E0,-7.232446969E-2,-4.380167127E-1
4.791091823E0,-1.282562017E0,-8.759608865E-2,-4.154147208E-1
4.793510989E0,-1.274620771E0,-7.904398441E-2,-4.276320338E-1
4.795930937E0,-1.270955682E0,-8.270917088E-2,-4.538992047E-1
4.798350052E0,-1.263625264E0,-9.126127511E-2,-4.746686220E-1
4.800768437E0,-1.256294847E0,-9.798078984E-2,-4.905510843E-1
