"Time (s)","Acceleration x (m/s^2)","Acceleration y (m/s^2)","Acceleration z (m/s^2)"
0.000000000E0,-2.328811169E0,-1.715455627E1,-3.295282125E0
2.402969000E-3,-2.328811169E0,-1.715455627E1,-3.295282125E0
4.860313000E-3,-2.213894367E0,-1.734369087E1,-2.536352873E0
7.372084000E-3,-2.213894367E0,-1.734369087E1,-2.536352873E0
9.883855000E-3,-2.213894367E0,-1.734369087E1,-2.536352873E0
1.239593800E-2,-2.213894367E0,-1.734369087E1,-2.536352873E0
1.490833400E-2,-2.213894367E0,-1.734369087E1,-2.536352873E0
1.742062500E-2,-2.678349733E0,-1.889027596E1,9.374842644E-1
1.994296900E-2,-2.970429659E0,-1.922066307E1,1.825694919E0
2.247520900E-2,-3.315180063E0,-1.950795364E1,2.785728455E0
2.500677100E-2,-3.633595228E0,-1.971623993E1,3.764914751E0
2.753765700E-2,-3.944827795E0,-1.984552193E1,4.818318367E0
3.006817700E-2,-4.272819519E0,-1.986946487E1,5.883691788E0
3.259843800E-2,-4.730092525E0,-1.982876396E1,6.803025723E0
3.512854200E-2,-5.151453972E0,-1.970427132E1,7.542802334E0
3.765843800E-2,-5.319040775E0,-1.941219139E1,8.055140495E0
4.018817700E-2,-5.374104977E0,-1.890703583E1,8.457347870E0
4.271786500E-2,-5.340587616E0,-1.828217697E1,8.656059265E0
4.524744800E-2,-5.266370773E0,-1.750888252E1,8.646482468E0
4.777692700E-2,-5.127513409E0,-1.661109543E1,8.481288910E0
5.030630200E-2,-4.902467728E0,-1.563190746E1,8.251456261E0
5.283567700E-2,-4.574476242E0,-1.469102764E1,7.832488060E0
5.534692700E-2,-4.045380116E0,-1.377887535E1,7.073559284E0
5.783224000E-2,-3.434885025E0,-1.286193562E1,6.312235832E0
6.031026100E-2,-2.910577297E0,-1.204076004E1,5.639493942E0
6.278911500E-2,-2.450910568E0,-1.133210659E1,5.043363094E0
6.526791700E-2,-1.881114960E0,-1.074076462E1,4.487932205E0
6.774593800E-2,-1.337654471E0,-1.033137321E1,3.989960194E0
7.022395900E-2,-9.833278656E-1,-9.969864845E0,3.508746147E0
7.270281300E-2,-5.954838991E-1,-9.694543839E0,3.274124622E0
7.518161500E-2,-2.243985534E-1,-9.366551399E0,2.895857096E0
7.765958400E-2,-2.090017498E-2,-9.076865196E0,2.821640015E0
8.013760500E-2,-2.808246017E-2,-9.081653595E0,2.704329014E0
8.261645900E-2,-8.314675093E-2,-9.170235634E0,2.491254330E0
8.509526100E-2,-3.560740054E-1,-9.325851440E0,2.215933084E0
8.757328200E-2,-6.601245403E-1,-9.294728279E0,1.808936119E0
9.005130200E-2,-5.667546988E-1,-9.280364037E0,1.188864589E0
9.253010500E-2,2.951208651E-1,-9.548503876E0,2.623483837E-1
9.500890700E-2,1.228819370E0,-9.742425919E0,-6.952911019E-1
9.748692700E-2,1.894378901E0,-1.004647541E1,-1.597866416E0
9.996494800E-2,2.227158546E0,-1.025955105E1,-1.868399501E0
1.024438020E-1,2.332499027E0,-1.041037846E1,-1.684053898E0
1.049226050E-1,2.686825514E0,-1.038643742E1,-1.365638733E0
1.074006250E-1,3.227891684E0,-1.038643742E1,-1.257904410E0
1.098786460E-1,3.881480694E0,-1.035052681E1,-1.418308973E0
1.123574480E-1,4.740962029E0,-1.021166897E1,-1.514072895E0
1.148362500E-1,5.492708683E0,-1.010393333E1,-1.478161335E0
1.173142710E-1,6.009834290E0,-9.914800644E0,-1.394367933E0
1.197922920E-1,6.392890453E0,-9.749608040E0,-1.494920135E0
1.222711460E-1,6.507806778E0,-9.548503876E0,-1.765453219E0
1.247499480E-1,6.510200977E0,-9.261211395E0,-2.265820026E0
1.272279690E-1,6.371343136E0,-8.961948395E0,-2.907438278E0
1.297059900E-1,5.796759605E0,-8.756056786E0,-3.532298326E0
1.321847920E-1,5.037830353E0,-8.550164223E0,-4.051817894E0
1.346635940E-1,4.290871620E0,-8.382576942E0,-4.461208820E0
1.371416150E-1,3.534336567E0,-8.267660141E0,-4.707800865E0
1.396196360E-1,2.801742315E0,-8.255689621E0,-4.846658707E0
1.420984900E-1,2.129000425E0,-8.186261177E0,-4.674283028E0
1.445772920E-1,1.573569655E0,-8.013885498E0,-4.279257298E0
1.470553130E-1,1.183331490E0,-7.894181728E0,-3.831560373E0
1.495333340E-1,8.409754038E-1,-7.719412327E0,-3.259371042E0
1.520121360E-1,5.369248390E-1,-7.573371887E0,-2.598599434E0
1.544909380E-1,1.921746135E-1,-7.547037125E0,-1.942616582E0
1.569689590E-1,-1.286346316E-1,-7.446485043E0,-1.198051810E0
1.594469800E-1,-3.512857854E-1,-7.343538761E0,-7.623258829E-1
1.619258340E-1,-5.260549784E-1,-7.080187798E0,-2.859002054E-1
1.644046360E-1,-5.906957388E-1,-6.852748394E0,5.645588785E-2
1.668826570E-1,-6.481540203E-1,-6.615732670E0,2.431955934E-1
1.693606770E-1,-6.361835003E-1,-6.306894302E0,4.371176064E-1
1.718394800E-1,-5.404195786E-1,-6.053119659E0,5.927340388E-1
1.743182820E-1,-4.805671275E-1,-5.789768696E0,6.262513995E-1
1.767963020E-1,-4.207147062E-1,-5.502476692E0,7.675032020E-1
1.792743230E-1,-3.249506652E-1,-5.253490448E0,8.800258636E-1
1.817531770E-1,-2.196103632E-1,-5.164908409E0,9.470606446E-1
1.842319800E-1,-3.765887022E-2,-5.033233643E0,1.033248186E0
1.867099480E-1,7.725787163E-2,-4.968592644E0,1.016489506E0
1.891879690E-1,1.740540564E-2,-5.002110004E0,1.030853987E0
1.916668230E-1,-3.047657013E-2,-5.057174683E0,9.662134647E-1
1.941456250E-1,-3.047657013E-2,-5.100267887E0,9.255137444E-1
1.966236460E-1,-4.141479731E-3,-5.196032047E0,9.039669037E-1
1.991016670E-1,-4.723525047E-2,-5.310949326E0,9.279078245E-1
2.015804690E-1,-8.314675093E-2,-5.318130970E0,1.076341987E0
2.040593230E-1,-1.046936214E-1,-5.413895130E0,1.210411549E0
2.065372920E-1,-3.526476026E-2,-5.588664055E0,1.327722430E0
2.090153130E-1,-1.611196995E-2,-5.806527138E0,1.366027832E0
2.114941670E-1,-5.681166053E-2,-6.005237579E0,1.346875191E0
2.139729690E-1,-3.526476026E-2,-6.122548103E0,1.289416790E0
2.164509900E-1,-2.808246017E-2,-6.254223824E0,1.284628510E0
2.189290110E-1,7.829025388E-3,-6.412234306E0,1.356451511E0
2.214078130E-1,1.754159331E-1,-6.735437393E0,1.411515713E0
2.238866670E-1,4.852868617E-2,-6.749802113E0,1.488126993E0
2.263646360E-1,-4.141479731E-3,-6.711496353E0,1.880759120E0
2.288426570E-1,-7.117626071E-2,-6.891054153E0,2.211144686E0
2.313215110E-1,-2.243985534E-1,-7.123281479E0,2.445766449E0
2.338003130E-1,-3.704385459E-1,-7.350720882E0,2.560683250E0
2.362783340E-1,-5.332373381E-1,-7.556613445E0,2.594200611E0
2.387563550E-1,-6.768832207E-1,-7.803205490E0,2.543924570E0
2.412352090E-1,-7.702530622E-1,-8.006703377E0,2.436190128E0
2.437140110E-1,-8.205291033E-1,-8.308360100E0,2.215933084E0
2.461919800E-1,-8.636227846E-1,-8.667474747E0,1.794571638E0
2.486700000E-1,-1.170067549E0,-8.504675865E0,1.962158561E0
2.511488550E-1,-1.392718673E0,-8.562134743E0,2.036375523E0
2.536276570E-1,-1.490876675E0,-8.655504227E0,1.947793841E0
2.561056770E-1,-1.620158076E0,-8.722538948E0,1.763448238E0
2.585836980E-1,-1.691981077E0,-8.770421028E0,1.500097394E0
2.610625520E-1,-1.703951597E0,-9.002648354E0,9.350901246E-1
2.635413550E-1,-1.964908123E0,-8.825485229E0,8.201733828E-1
2.660193230E-1,-2.091795444E0,-8.681839943E0,7.962324023E-1
2.684973440E-1,-2.027154922E0,-8.657898903E0,4.778172970E-1
2.709761980E-1,-2.180377245E0,-8.499888420E0,3.126244843E-1
2.734550000E-1,-2.290505648E0,-8.284419060E0,3.389595449E-1
2.759330210E-1,-2.338387728E0,-8.126408577E0,2.072841078E-1
2.784110420E-1,-2.314446688E0,-8.097679138E0,-1.470424980E-1
2.808898960E-1,-2.347964287E0,-8.064162254E0,-3.936346769E-1
2.833686980E-1,-2.438940048E0,-7.793629169E0,-3.002648056E-1
2.858466670E-1,-2.307264566E0,-7.690682888E0,-4.367284477E-1
2.883246880E-1,-2.321629047E0,-7.582948685E0,-4.750339985E-1
2.908035420E-1,-2.295294046E0,-7.499155045E0,-4.965808988E-1
2.932823440E-1,-2.189953804E0,-7.633224487E0,-7.240203023E-1
2.957603650E-1,-2.130101204E0,-7.611677647E0,-8.030255437E-1
2.982383860E-1,-2.075037003E0,-7.539854527E0,-7.024734020E-1
3.007172400E-1,-1.926602602E0,-7.518308163E0,-7.144439220E-1
3.031960420E-1,-1.818868399E0,-7.611677647E0,-7.982373834E-1
3.056740110E-1,-1.742257118E0,-7.673923969E0,-8.963954449E-1
3.081520320E-1,-1.615369797E0,-7.688289165E0,-9.921593666E-1
3.106308860E-1,-1.502847195E0,-7.645195007E0,-1.097499728E0
3.131096880E-1,-1.383142352E0,-7.709835529E0,-1.231569290E0
3.155877090E-1,-1.014451146E0,-7.961215973E0,-1.614624977E0
3.180657300E-1,-9.929041862E-1,-7.688289165E0,-1.571531296E0
3.205445840E-1,-8.684110641E-1,-7.494367123E0,-1.365638733E0
3.230233860E-1,-6.529422998E-1,-7.355509281E0,-1.356062412E0
3.255013550E-1,-5.212668180E-1,-7.295656681E0,-1.382397532E0
3.279793750E-1,-3.297389448E-1,-7.286079884E0,-1.487737775E0
3.304582300E-1,-8.554083109E-2,-7.300445080E0,-1.626595497E0
3.329370320E-1,9.880477190E-2,-7.319597721E0,-1.758270979E0
3.354150520E-1,3.430028558E-1,-7.360297680E0,-1.973739862E0
3.378930730E-1,6.135360003E-1,-7.439302444E0,-2.114991665E0
3.403719270E-1,9.367393255E-1,-7.503942966E0,-2.328066587E0
3.428507300E-1,1.212060690E0,-7.649982929E0,-2.560293913E0
3.453287500E-1,1.549628615E0,-7.925304413E0,-2.830827236E0
3.478067710E-1,2.054783583E0,-8.480734825E0,-3.312041044E0
3.502855730E-1,2.366016388E0,-8.440035820E0,-3.735796452E0
3.527643750E-1,2.710766554E0,-8.574105263E0,-4.082941055E0
3.552423960E-1,3.165645361E0,-8.815909386E0,-4.245739937E0
3.577204170E-1,3.704317570E0,-9.182205200E0,-4.573731422E0
3.601992710E-1,4.238201141E0,-9.603568077E0,-4.961575031E0
3.626780730E-1,4.755326748E0,-1.007041645E1,-5.303931236E0
3.651560940E-1,5.076135635E0,-1.061148262E1,-5.631922722E0
3.676341150E-1,5.588472843E0,-1.113100243E1,-6.115530491E0
3.701129170E-1,6.203756332E0,-1.177022648E1,-6.599138737E0
3.725917190E-1,6.874104023E0,-1.227298737E1,-7.113870144E0
3.750697400E-1,7.221248150E0,-1.255070305E1,-7.269486904E0
3.775477610E-1,7.661762238E0,-1.296727657E1,-7.408344269E0
3.800266150E-1,8.080730438E0,-1.341497231E1,-7.408344269E0
3.825054170E-1,8.487727165E0,-1.377648163E1,-7.470590591E0
3.849834380E-1,8.731925011E0,-1.409968472E1,-7.444255829E0
3.874614590E-1,8.818111420E0,-1.431994152E1,-7.298215866E0
3.899402610E-1,8.865993500E0,-1.442767620E1,-7.168934345E0
3.924190630E-1,8.889934540E0,-1.459765720E1,-7.013317585E0
3.948970840E-1,8.494908333E0,-1.435345936E1,-6.840942860E0
3.973751050E-1,7.786255836E0,-1.415714359E1,-6.608715057E0
3.998539590E-1,7.190125465E0,-1.390815639E1,-6.290300369E0
4.023327610E-1,6.582023621E0,-1.358495331E1,-5.938367844E0
4.048107820E-1,5.981105328E0,-1.311331654E1,-5.689381123E0
4.072888020E-1,5.454403400E0,-1.258661461E1,-5.399695396E0
4.097676050E-1,4.944460392E0,-1.200724220E1,-5.131556034E0
4.122464590E-1,4.458458424E0,-1.147814655E1,-4.901722908E0
4.147244270E-1,4.005973816E0,-1.096820354E1,-4.714983463E0
4.172024480E-1,3.558277607E0,-1.054444885E1,-4.521061420E0
4.196813020E-1,3.151280880E0,-1.006084061E1,-4.281651020E0
4.221601050E-1,2.739495754E0,-9.653843880E0,-3.972812414E0
4.246381250E-1,2.351651669E0,-9.275575638E0,-3.642426729E0
4.271161460E-1,1.997325182E0,-8.904490471E0,-3.474839687E0
4.295949480E-1,1.626239777E0,-8.557346344E0,-3.314435244E0
4.320738020E-1,1.317401052E0,-8.222172737E0,-3.125301123E0
4.345517710E-1,1.042079687E0,-7.937274933E0,-2.945744038E0
4.370297920E-1,8.385812044E-1,-7.678712368E0,-2.773368835E0
4.395086460E-1,6.518415809E-1,-7.396209240E0,-2.577052832E0
4.419874480E-1,5.010133386E-1,-7.152010441E0,-2.356795788E0
4.444654690E-1,4.674959779E-1,-6.931753635E0,-2.158085585E0
4.469434900E-1,4.244022071E-1,-6.776136875E0,-1.973739862E0
4.494223440E-1,4.674959779E-1,-6.644462109E0,-1.822911620E0
4.519011460E-1,5.345307589E-1,-6.563062668E0,-1.696024418E0
4.543791670E-1,6.302946806E-1,-6.515180588E0,-1.662506938E0
4.568571880E-1,8.218225241E-1,-6.486451149E0,-1.626595497E0
4.593359900E-1,1.032503247E0,-6.433781147E0,-1.612231016E0
4.618147920E-1,1.245578051E0,-6.467298508E0,-1.595472217E0
4.642928130E-1,1.528081775E0,-6.527151108E0,-1.547590256E0
4.667708340E-1,1.741156578E0,-6.589397430E0,-1.447038174E0
4.692496880E-1,1.973384142E0,-6.701920033E0,-1.353668213E0
4.717284900E-1,2.169700146E0,-6.809654713E0,-1.217204571E0
4.742065110E-1,2.363622189E0,-6.917388916E0,-1.008918047E0
4.766845320E-1,2.480932951E0,-6.993999958E0,-8.197842240E-1
4.791633340E-1,2.571908712E0,-7.061035156E0,-6.450150609E-1
4.816421880E-1,2.615002632E0,-7.120887756E0,-5.707979798E-1
4.841201570E-1,2.624578953E0,-7.161587238E0,-4.606694281E-1
4.865981770E-1,2.626973152E0,-7.180739880E0,-3.577231765E-1
4.890770320E-1,2.617396832E0,-7.238198280E0,-1.973185837E-1
4.915558340E-1,2.579091072E0,-7.329174042E0,-9.197823703E-2
4.940338550E-1,2.559938192E0,-7.432120323E0,2.054440603E-2
4.965118750E-1,2.574302673E0,-7.594919205E0,2.144664079E-1
4.989907300E-1,2.617396832E0,-7.817570210E0,3.868415356E-1
5.014695320E-1,2.689219475E0,-8.147955894E0,5.424579382E-1
5.039475520E-1,2.825683355E0,-8.614804268E0,6.430100799E-1
5.064255730E-1,3.065093040E0,-9.172629356E0,7.148330808E-1
5.089043750E-1,3.531942368E0,-9.792701721E0,6.382218599E-1
5.113831770E-1,4.108920097E0,-1.059472466E1,4.754231572E-1
5.138611980E-1,4.810390949E0,-1.148293495E1,1.689785272E-1
5.163392190E-1,5.497497082E0,-1.263928509E1,-2.260477692E-1
5.188180730E-1,6.189391613E0,-1.398476887E1,-7.527495027E-1
5.212968750E-1,6.852557182E0,-1.536616230E1,-1.348880172E0
5.237748960E-1,7.496569633E0,-1.685050583E1,-2.079080343E0
5.262529170E-1,7.944266319E0,-1.838990974E1,-2.960108519E0
5.287317190E-1,8.162129402E0,-1.986227989E1,-3.836348772E0
5.312105730E-1,7.982571602E0,-2.102102470E1,-4.580913544E0
5.336885420E-1,7.357711792E0,-2.176559067E1,-5.167467594E0
5.361665630E-1,6.455136776E0,-2.200021172E1,-5.737263203E0
5.386454170E-1,5.480738640E0,-2.173446655E1,-6.086801529E0
5.411242190E-1,4.597316265E0,-2.099708366E1,-6.378881931E0
5.436022400E-1,3.745017290E0,-1.994128609E1,-6.486616135E0
5.460802610E-1,2.868777037E0,-1.863410950E1,-6.414793015E0
5.485591150E-1,2.126606464E0,-1.689120483E1,-5.691775322E0
5.510379170E-1,1.252760410E0,-1.506929493E1,-4.501908302E0
5.535159380E-1,2.065392137E-1,-1.324499130E1,-3.029537439E0
5.559939590E-1,-9.426282644E-1,-1.143265820E1,-1.351274133E0
5.584727610E-1,-2.108554125E0,-9.771154404E0,1.306729466E-1
5.609515630E-1,-3.207445383E0,-8.334695816E0,1.243928909E0
5.634295840E-1,-4.167479038E0,-7.185528278E0,1.990887642E0
5.659076050E-1,-4.940773010E0,-6.275770664E0,2.376337528E0
5.683864590E-1,-5.539298058E0,-5.653305054E0,2.417037249E0
5.708652610E-1,-6.022905827E0,-5.332495689E0,2.218327045E0
5.733432820E-1,-6.384414673E0,-5.231943607E0,1.847241759E0
5.758213020E-1,-6.552001476E0,-5.315737247E0,1.354057431E0
5.783001050E-1,-6.724376678E0,-5.514447212E0,8.369320631E-1
5.807789590E-1,-6.870416641E0,-5.765827656E0,4.227530062E-1
5.832569270E-1,-6.958998680E0,-6.053119659E0,2.533260360E-2
5.857349480E-1,-7.026033401E0,-6.381111145E0,-2.116831839E-1
5.882138020E-1,-7.198408127E0,-6.701920033E0,-1.350720227E-1
5.906926050E-1,-7.315719128E0,-7.027517796E0,1.330670416E-1
5.931706250E-1,-7.258260727E0,-7.288474560E0,4.754231572E-1
5.956486460E-1,-7.133767605E0,-7.530278683E0,8.800258636E-1
5.981275000E-1,-6.918298721E0,-7.760112286E0,1.303781390E0
6.006063020E-1,-6.748317719E0,-7.997127533E0,1.773024797E0
6.030843230E-1,-6.458631516E0,-8.229354858E0,2.196780205E0
6.055623440E-1,-6.168946266E0,-8.444823265E0,2.481678009E0
6.080411460E-1,-5.821801662E0,-8.677051544E0,2.725876093E0
6.105199480E-1,-5.421987057E0,-8.923644066E0,2.893462896E0
6.129979690E-1,-4.983867168E0,-9.215723991E0,2.998803377E0
6.154759900E-1,-4.526594162E0,-9.567655563E0,3.041897058E0
6.179548440E-1,-4.054956913E0,-9.967470169E0,3.003591537E0
6.204336460E-1,-3.590501547E0,-1.035531425E1,2.891068697E0
6.229116670E-1,-3.135622740E0,-1.075512886E1,2.783334255E0
6.253896880E-1,-2.716655254E0,-1.114057827E1,2.630111933E0
6.278684900E-1,-2.259382486E0,-1.150208759E1,2.440978289E0
6.303473440E-1,-1.754227638E0,-1.183247375E1,2.247056246E0
6.328253130E-1,-1.277801991E0,-1.213412952E1,2.019616842E0
6.353033340E-1,-7.415238619E-1,-1.237353992E1,1.765842438E0
6.377821880E-1,-2.004575729E-1,-1.257224941E1,1.550373554E0
6.402609900E-1,3.406087458E-1,-1.269195461E1,1.392362952E0
6.427390110E-1,8.050638437E-1,-1.271350193E1,1.306175351E0
6.452170320E-1,1.269519091E0,-1.272068405E1,1.284628510E0
6.476958860E-1,1.695668697E0,-1.270153141E1,1.234352469E0
6.501746880E-1,2.143365145E0,-1.263689041E1,1.246322989E0
6.526527090E-1,2.581485271E0,-1.260576725E1,1.224776149E0
6.551307300E-1,3.057910681E0,-1.251239777E1,1.224776149E0
6.576095320E-1,3.469695807E0,-1.234720421E1,1.263081670E0
6.600883860E-1,3.802475452E0,-1.216525269E1,1.339692831E0
6.625663550E-1,4.005973816E0,-1.201442432E1,1.459397793E0
6.650443750E-1,4.154407978E0,-1.185641479E1,1.591073155E0
6.675232300E-1,4.312418461E0,-1.166967487E1,1.708384037E0
6.700020320E-1,4.465641022E0,-1.136801815E1,1.808936119E0
6.724800520E-1,4.599710464E0,-1.107593822E1,1.959764361E0
6.749580730E-1,4.717020988E0,-1.082216358E1,2.170444965E0
6.774369270E-1,4.745750427E0,-1.061148262E1,2.345214367E0
6.799157300E-1,4.714626789E0,-1.048459530E1,2.500830650E0
6.823937500E-1,4.549434185E0,-1.041995430E1,2.637294292E0
6.848717710E-1,4.357906342E0,-1.038164997E1,2.701935053E0
6.873505730E-1,3.996397495E0,-1.036728477E1,2.713905573E0
6.898293750E-1,3.591794729E0,-1.041277218E1,2.632506371E0
6.923073960E-1,3.235074282E0,-1.044868469E1,2.426613808E0
6.947854170E-1,2.878353596E0,-1.045107841E1,2.225509167E0
6.972642710E-1,2.521632671E0,-1.044868469E1,2.072287083E0
6.997430730E-1,2.131394625E0,-1.037925529E1,1.861606359E0
7.022210940E-1,1.880014300E0,-1.031222057E1,1.557555795E0
7.046991150E-1,1.695668697E0,-1.022842789E1,1.203229308E0
7.071779170E-1,1.590328336E0,-1.010632896E1,9.087550640E-1
7.096567710E-1,1.408376813E0,-9.986623764E0,7.028625607E-1
7.121347920E-1,1.156996489E0,-9.912406921E0,5.520343781E-1
7.146128130E-1,8.912514448E-1,-9.842977524E0,3.940238357E-1
7.170916150E-1,7.691524029E-1,-9.852553368E0,4.107825160E-1
7.195704170E-1,9.702566862E-1,-9.924376488E0,7.100448608E-1
7.220484380E-1,5.441071391E-1,-9.957893372E0,5.233051777E-1
7.245264590E-1,1.203516573E-1,-9.945923805E0,1.498257369E-1
7.270053130E-1,-1.094818115E-1,-9.989017487E0,-1.853480786E-1
7.294841150E-1,-1.262405217E-1,-9.989017487E0,-4.510930181E-1
7.319621360E-1,-1.190582216E-1,-9.943530083E0,-6.881088018E-1
7.344401570E-1,-2.483395636E-1,-9.842977524E0,-5.564333797E-1
7.369189590E-1,-3.393153250E-1,-9.831007004E0,-4.391225576E-1
7.393978130E-1,-3.728326857E-1,-9.866918564E0,-3.768759966E-1
7.418758340E-1,-3.800149858E-1,-9.859735489E0,-1.063428372E-1
7.443538550E-1,-4.853552878E-1,-9.845371246E0,1.474316418E-1
7.468326570E-1,-5.045081377E-1,-9.838188171E0,1.498257369E-1
7.493114590E-1,-6.529422998E-1,-9.835794449E0,8.518507332E-2
7.517894800E-1,-8.851698637E-1,-9.797489166E0,1.474316418E-1
7.542675000E-1,-1.119791508E0,-9.768760681E0,3.126244843E-1
7.567463550E-1,-1.289772511E0,-9.747213364E0,5.855516791E-1
7.592251570E-1,-1.320895672E0,-9.749608040E0,9.159373045E-1
7.617031770E-1,-1.287378311E0,-9.833400726E0,1.275052190E0
7.641811980E-1,-1.208373070E0,-9.890859604E0,1.670078516E0
7.666600000E-1,-1.155702949E0,-9.823824883E0,2.177627563E0
7.691388550E-1,-1.100638747E0,-9.809459686E0,2.670811653E0
7.716168230E-1,-8.779875040E-1,-9.773549080E0,2.938950777E0
7.740948440E-1,-6.361835003E-1,-9.704119682E0,3.154419661E0
7.765736980E-1,-3.129802048E-1,-9.663419724E0,3.195119143E0
7.790525000E-1,-4.005295038E-2,-9.646661758E0,3.061049700E0
7.815305210E-1,1.203516573E-1,-9.687360764E0,3.154419661E0
7.840085420E-1,3.142736554E-1,-9.613143921E0,3.245395422E0
7.864873960E-1,6.709944010E-1,-9.613143921E0,2.941344976E0
7.889661980E-1,9.678626060E-1,-9.663419724E0,2.704329014E0
7.914442190E-1,1.159390450E0,-9.773549080E0,2.845581055E0
7.939222400E-1,1.379647613E0,-9.850159645E0,2.958103418E0
7.964010420E-1,1.540052295E0,-9.850159645E0,3.125690460E0
7.988798440E-1,1.700456858E0,-9.890859604E0,3.214272261E0
8.013578650E-1,1.760309339E0,-9.890859604E0,3.240607262E0
8.038358860E-1,1.884802461E0,-9.917194366E0,3.068232059E0
8.063147400E-1,1.975778103E0,-9.950711250E0,2.754605293E0
8.087935420E-1,2.085906744E0,-9.962682724E0,2.431401730E0
8.112715630E-1,2.169700146E0,-1.001295853E1,1.995675921E0
8.137495840E-1,2.196035147E0,-1.010872269E1,1.483338714E0
8.162284380E-1,2.129000425E0,-1.024039745E1,1.097888827E0
8.187072400E-1,2.059571505E0,-1.044389534E1,7.794737220E-1
8.211852610E-1,1.923107982E0,-1.061148262E1,5.089405775E-1
8.236632820E-1,1.798614860E0,-1.076709938E1,2.623483837E-1
8.261420840E-1,1.729186058E0,-1.092032146E1,-6.564314663E-2
8.286208860E-1,1.626239777E0,-1.096580982E1,-3.457526863E-1
8.310989070E-1,1.487382054E0,-1.099214458E1,-5.133396387E-1
8.335769270E-1,1.370071292E0,-1.101369190E1,-6.545914412E-1
8.360557820E-1,1.291066051E0,-1.105917931E1,-8.054196835E-1
8.385345840E-1,1.168966889E0,-1.100411606E1,-8.820307851E-1
8.410126050E-1,9.941977262E-1,-1.088680458E1,-8.772426248E-1
8.434906250E-1,8.529459238E-1,-1.075273418E1,-8.700603247E-1
8.459694800E-1,6.662061214E-1,-1.063542366E1,-8.628779650E-1
8.484482820E-1,4.794664681E-1,-1.057796574E1,-8.652721047E-1
8.509263020E-1,2.520270944E-1,-1.056599522E1,-9.155482054E-1
8.534043230E-1,2.698180079E-2,-1.053247738E1,-8.628779650E-1
8.558831250E-1,-1.621519923E-1,-1.052050781E1,-8.844249249E-1
8.583619270E-1,-4.135323465E-1,-1.048698997E1,-9.035776854E-1
8.608399480E-1,-7.702530622E-1,-1.018054581E1,-4.510930181E-1
8.633179690E-1,-7.247651815E-1,-1.042474365E1,-4.415166378E-1
8.657968230E-1,-6.026661396E-1,-1.044629097E1,-6.498032212E-1
8.682756250E-1,-4.733848274E-1,-1.040319633E1,-8.269665241E-1
8.707536460E-1,-3.057979047E-1,-1.030503845E1,-8.149960637E-1
8.732316670E-1,-1.525755823E-1,-1.022124481E1,-7.623258829E-1
8.757105210E-1,4.613459110E-2,-1.016857433E1,-6.665619016E-1
8.781893230E-1,2.807562649E-1,-1.013266373E1,-6.593796015E-1
8.806673440E-1,5.297425389E-1,-1.004408169E1,-5.875566602E-1
8.831453650E-1,7.499996424E-1,-9.933952332E0,-4.893985987E-1
8.856241670E-1,9.534980059E-1,-9.792701721E0,-2.787179351E-1
8.881029690E-1,1.113902688E0,-9.677784920E0,-9.916053712E-2
8.905809900E-1,1.315006852E0,-9.598779678E0,8.518507332E-2
8.930590110E-1,1.482593894E0,-9.498226166E0,2.503778934E-1
8.955378650E-1,1.671727657E0,-9.400068283E0,3.844474256E-1
8.980166670E-1,1.863255501E0,-9.368946075E0,4.562703967E-1
9.004946880E-1,2.018872023E0,-9.313881874E0,4.849995673E-1
9.029727090E-1,2.061965704E0,-9.105594635E0,6.454042196E-1
9.054515630E-1,1.899167061E0,-8.880549431E0,1.184076428E0
9.079303650E-1,2.210399866E0,-9.237270355E0,7.339858413E-1
9.104083860E-1,2.562332630E0,-9.275575638E0,3.365654349E-1
9.128864070E-1,2.832865477E0,-9.225299835E0,2.772670239E-2
9.153652090E-1,3.036364079E0,-9.177417755E0,-1.350720227E-1
9.178440110E-1,3.223103762E0,-9.191782951E0,-3.409644961E-1
9.203220320E-1,3.383508205E0,-9.189388275E0,-4.319402277E-1
9.228000520E-1,3.486454487E0,-9.203752518E0,-5.707979798E-1
9.252789070E-1,3.555883169E0,-9.112777710E0,-5.851625800E-1
9.277577090E-1,3.615735769E0,-9.086441994E0,-6.162858605E-1
9.302357300E-1,3.661223888E0,-9.026589394E0,-6.306504011E-1
9.327137500E-1,3.701923609E0,-8.961948395E0,-6.593796015E-1
9.351926050E-1,3.740229130E0,-8.899703026E0,-6.761382818E-1
9.376714070E-1,3.761775732E0,-8.770421028E0,-7.359908223E-1
9.401494270E-1,3.776140451E0,-8.662686348E0,-8.006314039E-1
9.426274480E-1,3.773746252E0,-8.540587425E0,-8.102078438E-1
9.451062500E-1,3.517577887E0,-8.162320137E0,-5.229160190E-1
9.475850520E-1,3.476877928E0,-8.358635902E0,-7.264143825E-1
9.500630730E-1,3.713893890E0,-8.332301140E0,-1.162140369E0
9.525410940E-1,3.898239613E0,-8.200625420E0,-1.540408015E0
9.550199480E-1,4.005973816E0,-8.054585457E0,-1.822911620E0
9.574987500E-1,4.037096977E0,-7.934881210E0,-2.098232985E0
9.599767710E-1,4.065826416E0,-7.836723328E0,-2.304125547E0
9.624547920E-1,4.046673298E0,-7.714623928E0,-2.481288671E0
9.649336460E-1,4.020338535E0,-7.635618687E0,-2.620146513E0
9.674124480E-1,4.020338535E0,-7.611677647E0,-2.809280157E0
9.698904690E-1,3.991609335E0,-7.630830765E0,-2.998414040E0
9.723684900E-1,3.989215374E0,-7.683500767E0,-3.218671322E0
9.748472920E-1,3.941333294E0,-7.822358608E0,-3.441322565E0
9.773261460E-1,3.936545134E0,-7.937274933E0,-3.613697529E0
9.798041150E-1,3.864722013E0,-8.159926414E0,-3.783678532E0
9.822821360E-1,3.725864172E0,-8.387365341E0,-3.912959814E0
9.847609900E-1,3.587006807E0,-8.612410545E0,-4.023088932E0
9.872397920E-1,3.409843206E0,-8.842243195E0,-4.032664776E0
9.897178130E-1,3.000452518E0,-8.921249390E0,-3.733402491E0
9.921958340E-1,2.813712835E0,-9.361763954E0,-3.723825932E0
9.946746880E-1,2.895112038E0,-9.627508163E0,-3.826772213E0
9.971534900E-1,2.856806517E0,-9.804671288E0,-3.821984053E0
9.996315110E-1,2.763436794E0,-9.962682724E0,-3.714249849E0
1.002109532E0,2.624578953E0,-1.004887009E1,-3.482022047E0
1.004588334E0,2.471356630E0,-1.010153961E1,-3.142060041E0
1.007067188E0,2.406716108E0,-1.012308693E1,-2.902650356E0
1.009545157E0,2.330104828E0,-1.013266373E1,-2.682393074E0
1.012023177E0,2.310951948E0,-1.008957005E1,-2.526776791E0
1.014502032E0,2.303769827E0,-1.001535225E1,-2.478894711E0
1.016980834E0,2.330104828E0,-9.912406921E0,-2.481288671E0
1.019458855E0,2.349257469E0,-9.787912369E0,-2.591417313E0
1.021936875E0,2.418686628E0,-9.665813446E0,-2.747033834E0
1.024415730E0,2.445021629E0,-9.503015518E0,-3.000808239E0
1.026894532E0,2.538391590E0,-9.397674561E0,-3.333587885E0
1.029372552E0,2.612608433E0,-9.318669319E0,-3.697490931E0
1.031850573E0,2.672461033E0,-9.275575638E0,-4.111670017E0
1.034329427E0,2.768224716E0,-9.191782951E0,-4.530637741E0
1.036808230E0,2.832865477E0,-9.208541870E0,-4.894540787E0
1.039286198E0,2.830471516E0,-9.285152435E0,-5.232108116E0
1.041764219E0,2.895112038E0,-9.364157677E0,-5.394906998E0
1.044243073E0,2.787377834E0,-9.390492439E0,-5.229714394E0
1.046721875E0,2.897506237E0,-9.759183884E0,-5.174650192E0
1.049199896E0,3.148886442E0,-1.021166897E1,-5.442789078E0
1.051677917E0,3.278167963E0,-1.060669422E1,-5.361389637E0
1.054156771E0,3.290138483E0,-1.100172043E1,-4.805958748E0
1.056635573E0,3.539124727E0,-1.165291595E1,-4.461208820E0
1.059113594E0,3.733046770E0,-1.228016949E1,-3.910565853E0
1.061591615E0,3.946121454E0,-1.291939449E1,-3.187547922E0
1.064070469E0,4.207077980E0,-1.350594902E1,-2.299337149E0
1.066549271E0,4.403394222E0,-1.405898571E1,-1.310574532E0
1.069027292E0,4.642803669E0,-1.466708660E1,-4.103933573E-1
1.071505313E0,4.810390949E0,-1.525124645E1,3.820533156E-1
1.073984115E0,4.961219311E0,-1.583301258E1,9.662134647E-1
1.076462917E0,5.114441395E0,-1.637407875E1,1.392362952E0
1.078940938E0,5.179082394E0,-1.680262375E1,1.536008835E0
1.081418959E0,5.291604996E0,-1.718089104E1,1.401939392E0
1.083897813E0,5.341880798E0,-1.738917732E1,9.710016251E-1
1.086376615E0,5.270057678E0,-1.741311836E1,4.706349671E-1
1.088854636E0,5.150352955E0,-1.725271416E1,-1.039487422E-1
1.091332657E0,4.889396191E0,-1.689359856E1,-5.420687795E-1
1.093811511E0,4.389029503E0,-1.637168503E1,-8.173901439E-1
1.096290313E0,3.598977327E0,-1.588089466E1,-1.001735687E0
1.098768334E0,2.694007874E0,-1.550262642E1,-1.181293130E0
1.101246355E0,1.808191299E0,-1.528476334E1,-1.418308973E0
1.103725157E0,1.092355728E0,-1.515548229E1,-1.628989577E0
1.106204011E0,4.555254877E-1,-1.510760021E1,-1.705600739E0
1.108681980E0,-5.202347040E-2,-1.513872337E1,-1.782212019E0
1.111160000E0,-4.087441862E-1,-1.522970009E1,-1.842064381E0
1.113638855E0,-6.481540203E-1,-1.534461689E1,-1.830093861E0
1.116117657E0,-8.037704229E-1,-1.547389793E1,-1.751088619E0
1.118595677E0,-9.450222254E-1,-1.577076530E1,-1.545196056E0
1.121073698E0,-1.129367828E0,-1.604608727E1,-1.207628250E0
1.123552552E0,-1.325683951E0,-1.636689758E1,-7.024734020E-1
1.126031355E0,-1.560305595E0,-1.669488907E1,-2.140772641E-1
1.128509375E0,-1.802109480E0,-1.705400276E1,2.360132933E-1
1.130987396E0,-2.106160164E0,-1.748973083E1,6.861038804E-1
1.133466250E0,-2.374299288E0,-1.791348457E1,1.172105908E0
1.135945052E0,-2.699896812E0,-1.839230537E1,1.634166956E0
1.138423073E0,-3.082952499E0,-1.883042526E1,2.163262844E0
1.140901094E0,-3.494737387E0,-1.919432831E1,2.666023493E0
1.143379896E0,-3.932857275E0,-1.957259369E1,3.087384939E0
1.145858698E0,-4.375766277E0,-1.980242920E1,3.515928507E0
1.148336719E0,-4.782762527E0,-1.992692184E1,3.803220510E0
1.150814740E0,-5.127513409E0,-1.988143539E1,3.918137312E0
1.153293594E0,-5.417198658E0,-1.968751335E1,3.970807314E0
1.155772396E0,-5.656608582E0,-1.938346291E1,3.949260473E0
1.158250417E0,-5.838560104E0,-1.894534302E1,3.898984432E0
1.160728438E0,-5.975024223E0,-1.839709282E1,3.819978952E0
1.163207292E0,-6.006147385E0,-1.779617500E1,3.599721909E0
1.165686094E0,-5.888836384E0,-1.701809311E1,3.398617744E0
1.168164063E0,-5.627879620E0,-1.627592087E1,3.041897058E0
1.170642084E0,-5.340587616E0,-1.554572105E1,2.697146654E0
1.173120938E0,-5.000625610E0,-1.488016033E1,2.381125689E0
1.175599740E0,-4.655875683E0,-1.428881836E1,2.199174166E0
1.178077761E0,-4.308731079E0,-1.375972271E1,2.005252123E0
1.180555782E0,-3.834699392E0,-1.328090286E1,1.768236518E0
1.183034636E0,-3.341515303E0,-1.288827038E1,1.571920395E0
1.185513438E0,-2.673561573E0,-1.247887993E1,1.485732913E0
1.187991459E0,-1.919420481E0,-1.215328217E1,1.576708674E0
1.190469480E0,-1.232314110E0,-1.200724220E1,1.636561036E0
1.192948334E0,-6.984301805E-1,-1.187077904E1,1.634166956E0
1.195427136E0,-2.890392244E-1,-1.164573383E1,1.799359798E0
1.197905157E0,-1.549696922E-1,-1.140871716E1,2.110592604E0
1.200383177E0,-1.884870827E-1,-1.134168243E1,2.213538647E0
1.202861980E0,1.778100282E-1,-1.140153599E1,1.938217521E0
1.205340834E0,5.943832397E-1,-1.140632343E1,1.660501957E0
1.207818802E0,9.271628857E-1,-1.137759495E1,1.325328231E0
1.210296823E0,1.286277771E0,-1.126507187E1,8.345379829E-1
1.212775677E0,1.923107982E0,-1.116212559E1,2.001018077E-1
1.215254480E0,2.514450550E0,-1.119803715E1,-3.912405670E-1
1.217732500E0,2.658096313E0,-1.148532867E1,-6.378327608E-1
1.220210521E0,2.852018356E0,-1.155236340E1,-4.702458382E-1
1.222689375E0,3.328444004E0,-1.128422451E1,-1.015546322E-1
1.225168177E0,3.965274334E0,-1.098496246E1,-1.297297701E-2
1.227646198E0,4.616468906E0,-1.068809414E1,-7.043135166E-2
1.230124219E0,5.260481358E0,-1.025476265E1,-1.398602128E-1
1.232603073E0,5.590867519E0,-9.869312286E0,-3.098412156E-1
1.235081875E0,5.973922729E0,-9.414433479E0,-5.540392995E-1
1.237559896E0,6.325855255E0,-9.026589394E0,-6.713501215E-1
1.240037917E0,6.534142017E0,-8.665081024E0,-6.905029416E-1
1.242516719E0,6.438377857E0,-8.401729584E0,-8.963954449E-1
1.244995521E0,6.280367374E0,-8.284419060E0,-1.449432254E0
1.247473542E0,6.043351650E0,-8.186261177E0,-2.158085585E0
1.249951563E0,5.717754364E0,-8.121620178E0,-2.826039076E0
1.252430417E0,5.234146118E0,-8.100073814E0,-3.268947124E0
1.254909219E0,4.712232590E0,-8.100073814E0,-3.534692287E0
1.257387240E0,4.178349018E0,-8.052191734E0,-3.515539408E0
1.259865261E0,3.577430248E0,-8.078526497E0,-3.335982084E0
1.262344115E0,3.038758039E0,-8.128803253E0,-3.218671322E0
1.264822917E0,2.684431553E0,-8.116832733E0,-3.118119001E0
1.267300938E0,2.332499027E0,-8.085708618E0,-3.256976843E0
1.269778959E0,1.994930983E0,-7.985157013E0,-3.309647083E0
1.272257761E0,1.669333577E0,-7.908545971E0,-3.245006323E0
1.274736615E0,1.391618133E0,-7.807993412E0,-2.976867199E0
1.277214584E0,1.113902688E0,-7.707441807E0,-2.548323393E0
1.279692605E0,8.505517244E-1,-7.563795567E0,-2.052745104E0
1.282171459E0,6.614179611E-1,-7.439302444E0,-1.363244653E0
1.284650261E0,4.435549974E-1,-7.329174042E0,-7.288084626E-1
1.287128282E0,4.124317169E-1,-7.226228237E0,-1.566189080E-1
1.289606302E0,4.651018977E-1,-7.195104599E0,3.006539643E-1
1.292085157E0,1.131693646E-1,-7.099340439E0,6.956802607E-1
1.294563959E0,-7.117626071E-2,-7.058640957E0,8.345379829E-1
1.297041980E0,-1.860930026E-1,-7.056246758E0,7.315917611E-1
1.299520000E0,-3.225566447E-1,-7.087369919E0,4.754231572E-1
1.301998855E0,-5.595723391E-1,-6.953300476E0,4.131765962E-1
1.304477657E0,-6.098483801E-1,-6.704314232E0,6.142808795E-1
1.306955677E0,-7.582825422E-1,-6.608550549E0,6.980744004E-1
1.309433698E0,-9.067167044E-1,-6.443357468E0,8.800258636E-1
1.311912500E0,-1.095850468E0,-6.349987507E0,1.059583306E0
1.314391302E0,-1.186826229E0,-6.366746426E0,1.152953148E0
1.316869323E0,-1.241890430E0,-6.457722187E0,1.083524227E0
1.319347344E0,-1.385536432E0,-6.227888584E0,1.287022591E0
1.321826198E0,-1.344836712E0,-6.096212864E0,1.483338714E0
1.324305000E0,-1.316107631E0,-6.000449181E0,1.717960358E0
1.326783021E0,-1.325683951E0,-5.966932297E0,1.931035280E0
1.329261042E0,-1.282590270E0,-5.983690739E0,2.079469442E0
1.331739896E0,-1.251466870E0,-5.976508141E0,2.180021524E0
1.334218698E0,-1.289772511E0,-6.007631779E0,2.309302807E0
1.336696719E0,-1.246678710E0,-6.132124424E0,2.347608566E0
1.339174740E0,-1.232314110E0,-6.304499626E0,2.311697006E0
1.341653594E0,-1.419053793E0,-6.060301781E0,2.467313290E0
1.344132396E0,-1.522000074E0,-5.962143421E0,2.589412212E0
1.346610365E0,-1.591428995E0,-5.976508141E0,2.610959291E0
1.349088386E0,-1.689586997E0,-6.002843380E0,2.565471411E0
1.351567240E0,-1.814080000E0,-6.012419701E0,2.582230091E0
1.354046042E0,-1.945755482E0,-6.024390221E0,2.572653770E0
1.356524063E0,-2.000819683E0,-5.988478661E0,2.500830650E0
1.359002084E0,-2.082219124E0,-5.978902817E0,2.412249088E0
1.361480938E0,-2.218682766E0,-5.940596581E0,2.366761208E0
1.363959740E0,-2.216288805E0,-6.127336502E0,2.112986803E0
1.366437761E0,-2.314446688E0,-6.151277542E0,1.945399761E0
1.368915782E0,-2.654408693E0,-5.907079697E0,1.976523161E0
1.371394636E0,-2.802842855E0,-5.753857136E0,1.962158561E0
1.373873438E0,-2.941700697E0,-5.768221378E0,1.832877159E0
1.376351459E0,-3.054223299E0,-5.732310295E0,1.655713916E0
1.378829480E0,-3.243356943E0,-5.605422974E0,1.605437756E0
1.381308282E0,-3.391791105E0,-5.533599854E0,1.638955116E0
1.383787136E0,-3.437278986E0,-5.468959808E0,1.490520954E0
1.386265105E0,-3.458826065E0,-5.449806690E0,1.306175351E0
1.388743125E0,-3.439673185E0,-5.454594612E0,1.073947906E0
1.391221980E0,-3.307997704E0,-5.555147171E0,7.196212411E-1
1.393700782E0,-3.248145103E0,-5.557540894E0,6.573746800E-1
1.396178802E0,-3.396579504E0,-5.385166168E0,7.052566409E-1
1.398656823E0,-3.434885025E0,-5.308554649E0,7.627149820E-1
1.401135677E0,-3.334332705E0,-5.267855167E0,6.932861209E-1
1.403614480E0,-3.205051422E0,-5.287008286E0,5.520343781E-1
1.406092500E0,-3.061405420E0,-5.330101490E0,3.509300351E-1
1.408570521E0,-2.807631016E0,-5.437836170E0,4.209129512E-2
1.411049375E0,-2.551462412E0,-5.567117691E0,-1.853480786E-1
1.413528177E0,-2.544280291E0,-5.454594612E0,-2.092890888E-1
1.416006198E0,-2.491610050E0,-5.468959808E0,-1.207074225E-1
1.418484219E0,-2.307264566E0,-5.528811455E0,-1.470424980E-1
1.420963021E0,-2.101372004E0,-5.591058731E0,-2.739297450E-1
1.423441823E0,-1.950543642E0,-5.612605095E0,-3.840582669E-1
1.425919844E0,-1.823656559E0,-5.665275574E0,-4.989749789E-1
1.428397865E0,-1.675222397E0,-5.741886616E0,-5.923448801E-1
1.430876719E0,-1.533970594E0,-5.796951294E0,-7.000793219E-1
1.433355521E0,-1.375959992E0,-5.842438698E0,-8.341488838E-1
1.435833542E0,-1.189220309E0,-5.916655540E0,-8.844249249E-1
1.438311563E0,-1.047968507E0,-6.005237579E0,-1.004129887E0
1.440790417E0,-8.851698637E-1,-6.103395462E0,-1.154958129E0
1.443269219E0,-6.313953400E-1,-6.203947544E0,-1.310574532E0
1.445747240E0,-4.039559662E-1,-6.357170105E0,-1.437461734E0
1.448225261E0,-1.525755823E-1,-6.515180588E0,-1.614624977E0
1.450704115E0,1.323221624E-1,-6.723466873E0,-1.861217260E0
1.453182917E0,4.267963171E-1,-6.970058918E0,-2.189208746E0
1.455660938E0,7.356350422E-1,-7.276504040E0,-2.521988392E0
1.458138959E0,1.104326248E0,-7.597312927E0,-2.960108519E0
1.460617761E0,1.453864694E0,-7.834329128E0,-3.362317085E0
1.463096563E0,1.796220779E0,-8.191049576E0,-3.774101973E0
1.465574584E0,2.239129066E0,-8.557346344E0,-4.257710457E0
1.468052605E0,2.682037354E0,-9.028984070E0,-4.796382904E0
1.470531459E0,2.981299877E0,-9.531744957E0,-5.351813316E0
1.473010261E0,3.373931885E0,-1.007759857E1,-5.957520008E0
1.475488282E0,3.768958330E0,-1.064260674E1,-6.694902897E0
1.477966302E0,4.245383739E0,-1.119564247E1,-7.532837391E0
1.480445157E0,4.882213593E0,-1.170798016E1,-8.456958771E0
1.482923959E0,5.428068161E0,-1.235917473E1,-9.371504784E0
1.485401980E0,5.938011169E0,-1.305825138E1,-1.038420868E1
1.487880000E0,6.799886703E0,-1.360650063E1,-1.123411369E1
1.490358802E0,7.855684280E0,-1.424333096E1,-1.189967251E1
1.492837657E0,8.916270256E0,-1.490649700E1,-1.237609863E1
1.495315677E0,1.002952576E1,-1.539249897E1,-1.238806915E1
1.497793698E0,1.110687065E1,-1.584258842E1,-1.202895451E1
1.500272500E0,1.206211567E1,-1.623522186E1,-1.159801674E1
1.502751302E0,1.280907440E1,-1.652969551E1,-1.103779793E1
1.505229323E0,1.336689949E1,-1.664940071E1,-1.029562664E1
1.507707344E0,1.366137409E1,-1.659194183E1,-9.524726868E0
1.510186198E0,1.358236885E1,-1.651772499E1,-8.820861816E0
1.512665000E0,1.310594273E1,-1.638365555E1,-8.076296806E0
1.515143021E0,1.217463875E1,-1.614903450E1,-7.446649551E0
1.517621042E0,1.095604324E1,-1.577794743E1,-6.934312820E0
1.520099896E0,9.627317429E0,-1.530152225E1,-6.527315617E0
1.522578698E0,8.389568329E0,-1.461920452E1,-6.199324131E0
1.525056719E0,7.664156914E0,-1.375254059E1,-5.835421085E0
1.527534740E0,7.072814465E0,-1.292178822E1,-5.560100079E0
1.530013542E0,6.373737335E0,-1.238551044E1,-5.047762871E0
1.532492396E0,5.583684921E0,-1.174628544E1,-4.714983463E0
1.534970365E0,4.798420429E0,-1.109269619E1,-4.391779900E0
1.537448386E0,4.075402737E0,-1.054923630E1,-3.948871136E0
1.539927240E0,3.426602125E0,-1.001535225E1,-3.474839687E0
1.542406042E0,2.871170998E0,-9.481468201E0,-3.010384560E0
1.544884063E0,2.282222986E0,-9.017013550E0,-2.560293913E0
1.547362084E0,1.791432619E0,-8.559741020E0,-2.117385626E0
1.549840938E0,1.449076533E0,-8.234143257E0,-1.571531296E0
1.552319740E0,1.085173488E0,-7.812782288E0,-1.255510211E0
1.554797761E0,5.584716797E-1,-7.448879242E0,-1.178899169E0
1.557275782E0,2.113274038E-1,-7.140039921E0,-8.365429044E-1
1.559754636E0,-1.611196995E-2,-6.852748394E0,-4.151815474E-1
1.562233438E0,-1.597579122E-1,-6.680373192E0,9.236736596E-2
1.564711459E0,-2.722805142E-1,-6.610944748E0,6.334336996E-1
1.567189480E0,-2.986156046E-1,-6.627703190E0,1.255899429E0
1.569668282E0,-2.459454536E-1,-6.692343712E0,1.808936119E0
1.572147136E0,-1.429992020E-1,-6.821625233E0,2.366761208E0
1.574625105E0,1.227457523E-1,-6.953300476E0,2.869522095E0
1.577103125E0,4.842546880E-1,-7.195104599E0,3.276518822E0
1.579581980E0,8.002756834E-1,-7.465637684E0,3.618874788E0
1.582060782E0,1.101932168E0,-7.848693371E0,3.851102591E0
1.584538802E0,1.343736172E0,-8.358635902E0,4.061782837E0
1.587016823E0,1.513717175E0,-8.976313591E0,4.315557480E0
1.589495677E0,1.609481215E0,-9.701725960E0,4.423291683E0
1.591974480E0,1.678910017E0,-1.050135422E1,4.399350643E0
1.594452500E0,1.789038539E0,-1.137280655E1,4.322739601E0
1.596930521E0,1.877620101E0,-1.226341152E1,4.078541756E0
1.599409375E0,1.942260742E0,-1.321626282E1,3.520716667E0
1.601888177E0,2.117029905E0,-1.419544888E1,2.649264812E0
1.604366198E0,2.349257469E0,-1.520097065E1,1.500097394E0
1.606844219E0,2.710766554E0,-1.618973351E1,1.115201563E-1
1.609323021E0,3.160856962E0,-1.716173935E1,-1.667295218E0
1.611801823E0,3.735440731E0,-1.811219406E1,-3.549056768E0
1.614279844E0,4.336359501E0,-1.889506721E1,-5.514612198E0
1.616757865E0,4.949248791E0,-1.946964836E1,-7.190481186E0
1.619236719E0,5.483132839E0,-1.980242920E1,-8.473717690E0
1.621715521E0,5.818306446E0,-1.980721664E1,-9.206312180E0
1.624193542E0,5.892523289E0,-1.942895126E1,-9.328411102E0
1.626671563E0,5.724936962E0,-1.877775383E1,-8.902261734E0
1.629150417E0,5.238934994E0,-1.789433289E1,-8.045174599E0
1.631629219E0,4.436911106E0,-1.693190384E1,-6.879248142E0
1.634107240E0,3.455331326E0,-1.592638302E1,-5.643893242E0
1.636585261E0,2.368410587E0,-1.495916653E1,-4.506696701E0
1.639064115E0,1.324583411E0,-1.393449116E1,-3.455687046E0
1.641542917E0,8.204607666E-2,-1.305106926E1,-2.569870472E0
1.644020938E0,-1.088668227E0,-1.212934208E1,-1.734329939E0
1.646498959E0,-1.778168678E0,-1.079104042E1,-4.295461476E-1
1.648977761E0,-2.788478136E0,-9.656237602E0,9.063609242E-1
1.651456563E0,-4.011863232E0,-8.799150467E0,1.799359798E0
1.653934584E0,-5.093995571E0,-8.078526497E0,2.323667526E0
1.656412605E0,-6.044452667E0,-7.563795567E0,2.493648529E0
1.658891459E0,-6.899146080E0,-7.245380402E0,2.347608566E0
1.661370261E0,-7.492882729E0,-7.056246758E0,1.976523161E0
1.663848282E0,-7.885514259E0,-6.982029438E0,1.495309234E0
1.666326302E0,-8.139288902E0,-7.013153076E0,1.042824626E0
1.668805157E0,-8.311664581E0,-7.096946716E0,5.735812187E-1
1.671283959E0,-8.285328865E0,-7.178346157E0,1.450375319E-1
1.673761980E0,-8.148865700E0,-7.254957199E0,-1.901362836E-1
1.676240000E0,-7.983673096E0,-7.345932484E0,-4.726399183E-1
1.678718855E0,-7.847208977E0,-7.451272964E0,-6.833206415E-1
1.681197657E0,-7.677227974E0,-7.618860245E0,-8.604839444E-1
1.683675677E0,-7.488094330E0,-7.791234970E0,-9.562478662E-1
1.686153698E0,-7.339660168E0,-7.951639652E0,-8.269665241E-1
1.688632500E0,-7.042792320E0,-7.992339611E0,-5.444628596E-1
1.691111302E0,-6.616641998E0,-8.064162254E0,-2.811120152E-1
1.693589323E0,-6.178522110E0,-8.226961136E0,-1.278897226E-1
1.696067344E0,-5.800254822E0,-8.411306381E0,-3.451986983E-2
1.698546198E0,-5.381287575E0,-8.662686348E0,-3.396578133E-3
1.701025000E0,-4.940773010E0,-8.906884193E0,7.321457565E-2
1.703503021E0,-4.473924160E0,-9.115171432E0,2.360132933E-1
1.705981042E0,-3.925675154E0,-9.316275597E0,3.700828254E-1
1.708459896E0,-3.310391665E0,-9.582020760E0,4.131765962E-1
1.710938698E0,-2.721443415E0,-9.840583801E0,3.030480742E-1
1.713416719E0,-2.206712246E0,-1.015181541E1,1.474316418E-1
1.715894740E0,-1.687192798E0,-1.041037846E1,-7.761363685E-2
1.718373594E0,-1.150914669E0,-1.066654778E1,-2.332300693E-1
1.720852396E0,-6.457599401E-1,-1.088680458E1,-3.840582669E-1
1.723330417E0,-2.028516829E-1,-1.107354355E1,-5.372806191E-1
1.725808438E0,1.442926526E-1,-1.124831390E1,-7.024734020E-1
1.728287240E0,4.315845072E-1,-1.137280655E1,-7.312026024E-1
1.730766042E0,7.595759630E-1,-1.140871716E1,-5.348864794E-1
1.733244063E0,1.147420049E0,-1.143505287E1,-6.019212604E-1
1.735722084E0,1.585540175E0,-1.143505287E1,-6.809265018E-1
1.738200938E0,1.994930983E0,-1.143505287E1,-5.995271802E-1
1.740679740E0,2.401927710E0,-1.142547703E1,-4.367284477E-1
1.743157761E0,2.842442036E0,-1.138717079E1,-1.901362836E-1
1.745635782E0,3.256621122E0,-1.137280655E1,8.518507332E-2
1.748114636E0,3.697135210E0,-1.128901291E1,4.826054871E-1
1.750593438E0,4.242989540E0,-1.109269619E1,9.422724247E-1
1.753071459E0,4.745750427E0,-1.087722778E1,1.380392551E0
1.755549480E0,5.152746677E0,-1.073597622E1,1.732324958E0
1.758028334E0,5.468768120E0,-1.064260674E1,2.089045763E0
1.760507136E0,5.605231762E0,-1.050135422E1,2.546318531E0
1.762985157E0,5.784789085E0,-1.040798473E1,2.922192097E0
1.765463177E0,5.964346409E0,-1.029546165E1,3.269336462E0
1.767941980E0,5.966740608E0,-1.007999229E1,3.729003191E0
1.770420834E0,5.942799568E0,-9.929164886E0,4.191064358E0
1.772898802E0,5.981105328E0,-9.850159645E0,4.370621681E0
1.775376823E0,5.981105328E0,-9.797489166E0,4.428079605E0
1.777855677E0,5.863794327E0,-9.835794449E0,4.277251720E0
1.780334480E0,5.514256001E0,-9.876494408E0,4.033053875E0
1.782812500E0,5.119229794E0,-9.902829170E0,3.700274229E0
1.785290521E0,4.752932072E0,-9.924376488E0,3.422558784E0
1.787769375E0,4.381847382E0,-9.912406921E0,3.061049700E0
1.790248177E0,4.027520657E0,-9.969864845E0,2.697146654E0
1.792726198E0,3.637282848E0,-1.000816917E1,2.352396488E0
1.795204219E0,3.263803244E0,-1.004408169E1,2.115380764E0
1.797683073E0,2.892718077E0,-1.009914589E1,1.864000559E0
1.800161875E0,2.538391590E0,-1.021166897E1,1.464185953E0
1.802639896E0,2.131394625E0,-1.018533325E1,1.188864589E0
1.805117917E0,1.863255501E0,-1.008717537E1,1.143376708E0
1.807596719E0,1.592722416E0,-9.989017487E0,1.035642266E0
1.810075573E0,1.317401052E0,-9.962682724E0,8.105970025E-1
1.812553542E0,1.042079687E0,-9.895648003E0,5.592166185E-1
1.815031563E0,7.476055622E-1,-9.864524841E0,3.844474256E-1
1.817510417E0,5.297425389E-1,-9.799883842E0,2.982598841E-1
1.819989219E0,3.310323358E-1,-9.725667000E0,3.461418450E-1
1.822467240E0,1.706277430E-1,-9.639478683E0,4.969700873E-1
1.824945261E0,1.155634671E-1,-9.538927078E0,7.722914219E-1
1.827424115E0,7.246969640E-2,-9.385704994E0,1.004518986E0
1.829902917E0,-4.962933064E-2,-9.309093475E0,9.374842644E-1
1.832380938E0,-2.363690734E-1,-9.186994553E0,5.209110379E-1
1.834858959E0,-4.446556270E-1,-9.057712555E0,1.617962271E-1
1.837337813E0,-6.960359812E-1,-9.119959831E0,-1.614070982E-1
1.839816615E0,-9.857219458E-1,-9.184600830E0,-3.265998960E-1
1.842294636E0,-1.342442632E0,-9.239665031E0,-2.404123396E-1
1.844772657E0,-1.620158076E0,-9.280364037E0,-1.350720227E-1
1.847251459E0,-1.818868399E0,-9.366551399E0,-1.776117459E-2
1.849730261E0,-2.010396242E0,-9.447950363E0,2.575601935E-1
1.852208282E0,-2.204318285E0,-9.534138680E0,7.387740612E-1
1.854686302E0,-2.288111687E0,-9.644267082E0,1.114647508E0
1.857165157E0,-2.367116928E0,-9.680178642E0,1.483338714E0
1.859643959E0,-2.395846128E0,-9.613143921E0,1.679654837E0
1.862121980E0,-2.391057968E0,-9.634690285E0,1.792177558E0
1.864600000E0,-2.280929565E0,-9.701725960E0,1.715566397E0
1.867078855E0,-2.154042244E0,-9.665813446E0,1.626984596E0
1.869557657E0,-1.979273081E0,-9.570049286E0,1.720354557E0
1.872035677E0,-1.849991560E0,-9.536532402E0,1.763448238E0
1.874513698E0,-1.694375157E0,-9.486256599E0,1.746689677E0
1.876992552E0,-1.512423754E0,-9.378522873E0,1.631772876E0
1.879471355E0,-1.383142352E0,-9.268393517E0,1.536008835E0
1.881949375E0,-1.275407791E0,-9.263606071E0,1.342086911E0
1.884427396E0,-1.100638747E0,-9.318669319E0,1.026065826E0
1.886906198E0,-9.689632654E-1,-9.421615601E0,7.028625607E-1
1.889385052E0,-8.444701433E-1,-9.488650322E0,4.155707061E-1
1.891863021E0,-7.104005814E-1,-9.610749245E0,1.617962271E-1
1.894341042E0,-4.398674071E-1,-9.859735489E0,-3.026589155E-1
1.896819896E0,-1.908811927E-1,-1.005605125E1,-7.264143825E-1
1.899298698E0,-4.005295038E-2,-1.028109741E1,-9.658242464E-1
1.901776719E0,-5.202347040E-2,-1.041516685E1,-8.556957245E-1
1.904254740E0,1.979950070E-2,-1.073837090E1,-8.389370441E-1
1.906733594E0,1.442926526E-1,-1.098975086E1,-1.126228809E0
1.909212396E0,2.544211745E-1,-1.118846035E1,-1.322544932E0
1.911690417E0,2.663916945E-1,-1.126746559E1,-1.425491214E0
1.914168438E0,3.190618455E-1,-1.130816555E1,-1.456614494E0
1.916647292E0,3.621556163E-1,-1.131774235E1,-1.456614494E0
1.919126094E0,3.980671167E-1,-1.125070763E1,-1.296209812E0
1.921604115E0,4.770723879E-1,-1.119564247E1,-1.181293130E0
1.924082136E0,5.058015585E-1,-1.106157398E1,-1.056800008E0
1.926560938E0,6.302946806E-1,-1.094426250E1,-9.370950460E-1
1.929039792E0,7.428174019E-1,-1.085568047E1,-7.312026024E-1
1.931517761E0,8.529459238E-1,-1.077667522E1,-5.731920600E-1
1.933995782E0,9.774390459E-1,-1.068809414E1,-3.649054766E-1
1.936474636E0,1.073202968E0,-1.061627197E1,-2.188654691E-1
1.938953438E0,1.197696090E0,-1.050853634E1,-3.451986983E-2
1.941431459E0,1.295854211E0,-1.042234993E1,1.641903371E-1
1.943909480E0,1.185725570E0,-1.016139221E1,6.262513995E-1
1.946388334E0,1.190513849E0,-1.021645641E1,9.853662252E-1
1.948867136E0,1.559205055E0,-1.034334373E1,7.890501618E-1
1.951345157E0,1.803403139E0,-1.031222057E1,6.861038804E-1
1.953823177E0,1.966201782E0,-1.026194477E1,7.794737220E-1
1.956302032E0,2.023660183E0,-1.025236893E1,9.518488050E-1
1.958780834E0,2.049995184E0,-1.027152061E1,1.150559068E0
1.961258855E0,2.028448343E0,-1.027391434E1,1.368422031E0
1.963736875E0,1.992536902E0,-1.026673222E1,1.514461994E0
1.966215677E0,1.930290341E0,-1.027630997E1,1.607831836E0
1.968694532E0,1.880014300E0,-1.021166897E1,1.634166956E0
1.971172552E0,1.820161819E0,-1.016618061E1,1.581496716E0
1.973650573E0,1.736368299E0,-1.011829853E1,1.495309234E0
1.976129375E0,1.621451616E0,-1.005605125E1,1.394757152E0
1.978608177E0,1.520899415E0,-1.003450584E1,1.265475750E0
1.981086198E0,1.444288254E0,-1.004408169E1,1.066765547E0
1.983564219E0,1.334159732E0,-1.007281017E1,8.800258636E-1
1.986043073E0,1.269519091E0,-1.012308693E1,6.980744004E-1
1.988521875E0,1.104326248E0,-9.977046967E0,7.220153213E-1
1.990999896E0,8.218225241E-1,-9.962682724E0,8.943904638E-1
1.993477917E0,9.271628857E-1,-1.016139221E1,5.256992579E-1
1.995956771E0,1.121084929E0,-1.019012165E1,2.575601935E-1
1.998435573E0,1.240789890E0,-1.020688057E1,1.139142513E-1
2.000913594E0,1.324583411E0,-1.021645641E1,4.687949270E-2
2.003391615E0,1.410770893E0,-1.020688057E1,-1.297297701E-2
2.005870417E0,1.554416776E0,-1.016139221E1,-4.409625754E-2
2.008349271E0,1.626239777E0,-1.013745117E1,-5.846085027E-2
2.010827292E0,1.693274498E0,-1.006084061E1,-2.733756602E-2
2.013305313E0,1.717215538E0,-9.938741684E0,-1.536707580E-2
2.015784115E0,1.789038539E0,-9.799883842E0,2.533260360E-2
2.018262917E0,1.836920500E0,-9.637084961E0,7.800278068E-2
2.020740938E0,1.906349421E0,-9.462315559E0,7.800278068E-2
2.023218959E0,1.987748623E0,-9.251634598E0,3.730309755E-2
2.025697813E0,1.932684422E0,-8.866184235E0,2.360132933E-1
2.028176615E0,1.863255501E0,-8.724932671E0,3.964179158E-1
2.030654636E0,2.071542025E0,-8.686627388E0,2.024959028E-1
2.033132657E0,2.377986670E0,-8.531011581E0,1.096801087E-2
2.035611511E0,2.591061592E0,-8.341877937E0,-1.733776033E-1
2.038090313E0,2.775407314E0,-8.191049576E0,-3.385703862E-1
2.040568334E0,2.981299877E0,-8.040221214E0,-4.750339985E-1
2.043046355E0,3.153674841E0,-7.834329128E0,-5.755861998E-1
2.045525157E0,3.330837965E0,-7.695471287E0,-7.742963433E-1
2.048004011E0,3.486454487E0,-7.590131283E0,-8.892131448E-1
2.050482032E0,3.630100489E0,-7.480001926E0,-1.032858968E0
2.052960052E0,3.723470211E0,-7.384238720E0,-1.135805249E0
2.055438855E0,3.814445972E0,-7.353115082E0,-1.159746289E0
2.057917657E0,3.895845652E0,-7.317203522E0,-1.188475490E0
2.060395677E0,3.960485935E0,-7.341144562E0,-1.272268891E0
2.062873698E0,4.025126457E0,-7.319597721E0,-1.296209812E0
2.065352552E0,4.008368015E0,-7.329174042E0,-1.317756772E0
2.067831355E0,3.929362774E0,-7.379450321E0,-1.293815732E0
2.070309375E0,3.764169931E0,-7.441696644E0,-1.241145611E0
2.072787396E0,3.620523930E0,-7.590131283E0,-1.193263650E0
2.075266250E0,3.299714804E0,-7.705047607E0,-1.023282647E0
2.077745052E0,3.144098282E0,-8.068950653E0,-1.107076168E0
2.080223073E0,3.098610640E0,-8.286813736E0,-1.272268891E0
2.082701094E0,2.978905439E0,-8.461582184E0,-1.365638733E0
2.085179948E0,2.830471516E0,-8.648322105E0,-1.451826334E0
2.087658750E0,2.648519993E0,-8.775209427E0,-1.459008574E0
2.090136771E0,2.473750830E0,-8.930825233E0,-1.451826334E0
2.092614792E0,2.361227989E0,-9.091230392E0,-1.487737775E0
2.095093594E0,2.243917227E0,-9.206146240E0,-1.511678696E0
2.097572396E0,2.217581987E0,-9.342610359E0,-1.583501697E0
2.100050417E0,2.203217506E0,-9.512591362E0,-1.643354297E0
2.102528438E0,2.227158546E0,-9.634690285E0,-1.772635460E0
2.105007292E0,2.287011147E0,-9.754395485E0,-1.889946342E0
2.107486094E0,2.368410587E0,-9.807065964E0,-2.004863024E0
2.109964115E0,2.162517786E0,-9.601173401E0,-1.746300459E0
2.112442136E0,2.251099586E0,-9.905223846E0,-1.863611221E0
2.114920990E0,2.569514751E0,-9.996199608E0,-2.454953671E0
2.117399792E0,2.808924437E0,-9.936347961E0,-2.893073797E0
2.119877813E0,2.966934919E0,-9.888465881E0,-3.297676563E0
2.122355834E0,3.005240679E0,-9.783124924E0,-3.661579609E0
2.124834688E0,2.935811758E0,-9.742425919E0,-3.970418215E0
2.127313490E0,2.938205957E0,-9.720878601E0,-4.303198338E0
2.129791511E0,2.904688597E0,-9.749608040E0,-4.547396183E0
2.132269532E0,2.878353596E0,-9.852553368E0,-4.815535069E0
2.134748334E0,2.811318874E0,-9.948317528E0,-5.026216030E0
2.137227136E0,2.744283915E0,-1.000098801E1,-5.162679672E0
2.139705157E0,2.682037354E0,-1.012308693E1,-5.248867035E0
2.142183177E0,2.660490513E0,-1.017575645E1,-5.256049156E0
2.144662032E0,2.694007874E0,-1.023800373E1,-5.150709152E0
2.147140834E0,2.823289394E0,-1.034813309E1,-5.019033909E0
2.149618855E0,3.026787519E0,-1.053726578E1,-4.784412384E0
2.152096875E0,3.254226923E0,-1.074076462E1,-4.580913544E0
2.154575730E0,3.548701048E0,-1.103763294E1,-4.346291542E0
2.157054532E0,3.740229130E0,-1.120282555E1,-3.831560373E0
2.159532552E0,4.092161179E0,-1.157869816E1,-3.505963087E0
2.162010573E0,4.618862629E0,-1.195217896E1,-3.414987326E0
2.164489427E0,5.016283512E0,-1.221074104E1,-3.266553164E0
2.166968230E0,5.384974957E0,-1.238790417E1,-3.024749279E0
2.169446250E0,5.732118607E0,-1.253873253E1,-2.665634394E0
2.171924271E0,6.045745850E0,-1.269434834E1,-2.205967426E0
2.174403073E0,6.354584694E0,-1.292418289E1,-1.758270979E0
2.176881927E0,6.665817261E0,-1.317077446E1,-1.466190815E0
2.179359948E0,6.929168224E0,-1.352749538E1,-1.284239411E0
2.181837969E0,7.228430748E0,-1.394885635E1,-1.265086651E0
2.184316771E0,7.439111233E0,-1.437021732E1,-1.444643974E0
2.186795573E0,7.577969074E0,-1.478918552E1,-1.755876899E0
2.189273594E0,7.645003796E0,-1.515308857E1,-2.131750345E0
2.191751615E0,7.520510674E0,-1.543319798E1,-2.493259192E0
2.194230469E0,7.281100750E0,-1.561036205E1,-2.893073797E0
2.196709271E0,6.847768784E0,-1.568457890E1,-3.266553164E0
2.199187292E0,6.232485771E0,-1.567260742E1,-3.601727009E0
2.201665313E0,5.502285480E0,-1.569176102E1,-3.826772213E0
2.204144167E0,4.645198345E0,-1.573485470E1,-3.979994535E0
2.206622969E0,3.735440731E0,-1.582822418E1,-4.087729454E0
2.209100990E0,2.916659117E0,-1.598384094E1,-4.075758934E0
2.211579011E0,2.169700146E0,-1.618255043E1,-3.977600336E0
2.214057813E0,1.504140735E0,-1.644111443E1,-3.786072493E0
2.216536667E0,9.319511652E-1,-1.670685959E1,-3.522721767E0
2.219014636E0,4.746782780E-1,-1.702527428E1,-3.245006323E0
2.221492657E0,9.880477190E-2,-1.742748260E1,-2.869132757E0
2.223971511E0,-2.674923539E-1,-1.798052025E1,-2.512412071E0
2.226450313E0,-5.954838991E-1,-1.857904434E1,-2.124567986E0
2.228928334E0,-9.881161451E-1,-1.925896835E1,-1.669689298E0
2.231406355E0,-1.481300354E0,-2.004423332E1,-1.166928649E0
2.233885209E0,-2.046307802E0,-2.094680786E1,-5.372806191E-1
2.236364011E0,-2.707078934E0,-2.184220123E1,1.713726223E-1
2.238842032E0,-3.422914505E0,-2.267055893E1,1.002124906E0
2.241320052E0,-4.133962154E0,-2.341033745E1,1.823300719E0
2.243798907E0,-4.935985088E0,-2.396816063E1,2.649264812E0
2.246277709E0,-5.781102180E0,-2.435361099E1,3.393829584E0
2.248755730E0,-6.638189316E0,-2.458823204E1,4.083329678E0
2.251233750E0,-7.413877010E0,-2.444937515E1,4.849441051E0
2.253712552E0,-8.077042580E0,-2.398491859E1,5.455148220E0
2.256191407E0,-8.575015068E0,-2.320204926E1,5.684981823E0
2.258669427E0,-8.948493958E0,-2.218216324E1,5.874115944E0
2.261147448E0,-9.166357040E0,-2.124846458E1,5.763987064E0
2.263626250E0,-9.319580078E0,-2.016154480E1,5.747228146E0
2.266105052E0,-9.350703239E0,-1.911292839E1,5.553306103E0
2.268583073E0,-9.331550598E0,-1.803797913E1,5.292349815E0
2.271061094E0,-9.132840157E0,-1.702527428E1,5.040969372E0
2.273539948E0,-8.709085464E0,-1.596468735E1,4.681854248E0
2.276018750E0,-8.122530937E0,-1.495198345E1,4.272463799E0
2.278496771E0,-7.445000648E0,-1.398476887E1,3.805614471E0
2.280974792E0,-6.738741875E0,-1.315162182E1,3.482411146E0
2.283453646E0,-5.654214859E0,-1.241184521E1,3.542263746E0
2.285932448E0,-4.655875683E0,-1.177022648E1,3.707456589E0
2.288410469E0,-3.786817312E0,-1.129140663E1,3.843919992E0
2.290888490E0,-3.267297983E0,-1.088441086E1,3.860678673E0
2.293367344E0,-2.575403452E0,-1.061148262E1,3.573386908E0
2.295846146E0,-1.344836712E0,-1.060669422E1,3.058655739E0
2.298324167E0,-6.122425795E-1,-1.067133522E1,2.764181614E0
2.300802188E0,-3.249506652E-1,-1.062824154E1,2.417037249E0
2.303280990E0,-6.535574794E-3,-1.059711838E1,2.105804443E0
2.305759792E0,3.645497561E-1,-1.084849834E1,1.626984596E0
2.308237813E0,1.054050207E0,-1.100650978E1,1.112253428E0
2.310715834E0,2.131394625E0,-1.103763294E1,8.752377033E-1
2.313194688E0,3.405055285E0,-1.100650978E1,5.233051777E-1
2.315673490E0,4.685897827E0,-1.092989826E1,3.485359550E-1
2.318151511E0,6.270791531E0,-1.069048882E1,2.288309932E-1
2.320629532E0,8.133399963E0,-1.045107841E1,-4.271520674E-1
2.323108386E0,9.756598473E0,-1.007281017E1,-1.413520694E0
2.325587188E0,1.079803181E1,-9.651449203E0,-2.280184507E0
2.328065209E0,1.159766102E1,-9.289940834E0,-2.952926159E0
2.330543230E0,1.197832298E1,-8.985889435E0,-3.805225372E0
2.333022084E0,1.195677567E1,-8.650715828E0,-4.521061420E0
2.335500886E0,1.111165905E1,-8.437641144E0,-5.038186073E0
2.337978907E0,9.612953186E0,-8.480734825E0,-5.631922722E0
2.340456927E0,8.214799881E0,-8.554951668E0,-5.809086323E0
2.342935730E0,6.900439262E0,-8.751268387E0,-5.576858521E0
2.345414584E0,5.837459087E0,-9.000254631E0,-5.136344910E0
2.347892552E0,4.963613510E0,-9.107988358E0,-4.571337223E0
2.350370573E0,4.307630062E0,-9.107988358E0,-3.927324533E0
2.352849427E0,3.606159449E0,-9.127141953E0,-3.405411005E0
2.355328230E0,2.919053078E0,-9.151082993E0,-2.998414040E0
2.357806250E0,2.416292191E0,-9.119959831E0,-2.835615396E0
2.360284271E0,2.097877264E0,-9.019407272E0,-2.756610155E0
2.362763125E0,1.987748623E0,-8.926037788E0,-2.620146513E0
2.365241927E0,1.812979579E0,-8.779997826E0,-2.296943188E0
2.367719948E0,1.781856179E0,-8.617198944E0,-1.988104582E0
2.370197969E0,1.767491698E0,-8.423276901E0,-1.686447978E0
2.372676823E0,1.607087016E0,-8.219778061E0,-1.229175091E0
2.375155625E0,1.331765652E0,-7.989945412E0,-7.024734020E-1
2.377633646E0,9.008278847E-1,-7.793629169E0,-2.811120152E-1
2.380111667E0,5.512894392E-1,-7.544642925E0,-9.197823703E-2
2.382590469E0,3.597615361E-1,-7.254957199E0,-1.776117459E-2
2.385069323E0,9.162247181E-2,-6.922177315E0,9.476146847E-2
2.387547292E0,-1.669401824E-1,-6.603762150E0,3.748710454E-1
2.390025313E0,-4.111382663E-1,-6.299711704E0,6.717392802E-1
2.392504167E0,-6.337894201E-1,-5.990872860E0,8.584790230E-1
2.394982969E0,-8.301054239E-1,-5.624575615E0,1.085918427E0
2.397460990E0,-9.713573456E-1,-5.380377769E0,1.251111150E0
2.399939011E0,-1.153308868E0,-5.136179447E0,1.373210311E0
2.402417865E0,-1.196402550E0,-4.872828484E0,1.579102755E0
2.404896667E0,-1.273013830E0,-4.719606400E0,1.629378796E0
2.407374688E0,-1.416659713E0,-4.554413795E0,1.751477718E0
2.409852709E0,-1.601005316E0,-4.413161755E0,1.875970840E0
2.412331563E0,-1.696769238E0,-4.425132275E0,1.954976201E0
2.414810365E0,-1.933784962E0,-4.317397594E0,2.148898363E0
2.417288386E0,-2.168406725E0,-4.204874992E0,2.402672768E0
2.419766407E0,-2.345569849E0,-4.109111309E0,2.560683250E0
2.422245209E0,-2.462880850E0,-4.051652908E0,2.673205853E0
2.424724063E0,-2.582585812E0,-4.056440830E0,2.689964533E0
2.427202084E0,-2.575403452E0,-4.080381870E0,2.675600052E0
2.429680105E0,-2.541886330E0,-4.075593948E0,2.622929811E0
2.432158907E0,-2.484427691E0,-4.099534512E0,2.642082453E0
2.434637709E0,-2.391057968E0,-4.288668633E0,2.615747452E0
2.437115730E0,-2.240229607E0,-4.690876961E0,2.235085726E0
2.439593750E0,-2.381481409E0,-4.374855995E0,2.610959291E0
2.442072605E0,-2.316840649E0,-4.142628670E0,3.087384939E0
2.444551407E0,-2.235441446E0,-4.264727592E0,3.104143620E0
2.447029427E0,-2.118130684E0,-4.463438034E0,3.029926538E0
2.449507448E0,-2.089401484E0,-4.674118519E0,3.123296499E0
2.451986302E0,-2.189953804E0,-4.858464241E0,3.175966501E0
2.454465105E0,-2.247411966E0,-4.990139484E0,3.161602020E0
2.456943125E0,-2.194741726E0,-5.064356804E0,3.171178341E0
2.459421146E0,-2.175589085E0,-5.169697285E0,3.044291258E0
2.461900000E0,-2.096583605E0,-5.459383011E0,2.589412212E0
2.464378802E0,-2.340781689E0,-5.421077728E0,2.761787415E0
2.466856823E0,-2.647226572E0,-5.179273605E0,3.300459862E0
2.469334844E0,-2.869877815E0,-5.093086243E0,3.489593506E0
2.471813646E0,-3.102105141E0,-5.107450485E0,3.422558784E0
2.474292448E0,-3.291239023E0,-5.126603127E0,3.154419661E0
2.476770469E0,-3.461220026E0,-5.090691566E0,2.795304775E0
2.479248490E0,-3.585713148E0,-5.090691566E0,2.407460690E0
2.481727344E0,-3.786817312E0,-5.126603127E0,2.134533405E0
2.484206146E0,-4.014257431E0,-5.143362045E0,1.847241759E0
2.486684167E0,-4.189026356E0,-5.162514687E0,1.567132235E0
2.489162188E0,-4.370977879E0,-5.212790489E0,1.287022591E0
2.491641042E0,-4.555323124E0,-5.272643089E0,1.004518986E0
2.494119844E0,-4.631934643E0,-5.313343048E0,7.339858413E-1
2.496597865E0,-4.617570400E0,-5.459383011E0,3.892356455E-1
2.499075886E0,-4.694181442E0,-5.516840935E0,1.522198319E-1
2.501554688E0,-4.773186207E0,-5.483324051E0,2.264368981E-1
2.504033542E0,-4.658269882E0,-5.500082493E0,3.251489997E-2
2.506511563E0,-4.478712082E0,-5.574299812E0,-3.074471056E-1
2.508989584E0,-4.232120037E0,-5.648516655E0,-6.641678214E-1
2.511468386E0,-3.944827795E0,-5.737098694E0,-1.008918047E0
2.513947188E0,-3.631201029E0,-5.859197617E0,-1.356062412E0
2.516425209E0,-3.425308466E0,-6.062695980E0,-1.628989577E0
2.518903230E0,-3.159563780E0,-6.266193867E0,-1.863611221E0
2.521382084E0,-2.948883057E0,-6.481663227E0,-2.131750345E0
2.523860886E0,-2.666379213E0,-6.644462109E0,-2.313701630E0
2.526338907E0,-2.319234848E0,-6.835989475E0,-2.519594193E0
2.528816927E0,-1.933784962E0,-7.027517796E0,-2.699151754E0
2.531295782E0,-1.407083392E0,-7.324386120E0,-3.134877682E0
2.533774584E0,-1.012056947E0,-7.606889725E0,-3.493992567E0
2.536252605E0,-7.439179420E-1,-7.664348125E0,-3.474839687E0
2.538730625E0,-3.824090660E-1,-7.930093288E0,-3.656791210E0
2.541209480E0,9.880477190E-2,-8.253295898E0,-4.008724213E0
2.543688282E0,7.116940022E-1,-8.607622147E0,-4.410932541E0
2.546166302E0,1.188119650E0,-8.997860909E0,-4.880175591E0
2.548644323E0,1.693274498E0,-9.426403999E0,-5.438000679E0
2.551123125E0,2.495297432E0,-9.845371246E0,-6.038919926E0
2.553601927E0,3.177615881E0,-1.033376789E1,-6.678144455E0
2.556079948E0,3.948515415E0,-1.082455730E1,-7.317368507E0
2.558557969E0,4.762508869E0,-1.135604763E1,-8.105026245E0
2.561036823E0,5.586078644E0,-1.195217896E1,-8.777768135E0
2.563515625E0,6.629905701E0,-1.251239777E1,-9.397839546E0
2.565993646E0,7.666550636E0,-1.311092186E1,-9.965240479E0
2.568471667E0,8.605037689E0,-1.365917015E1,-1.022380352E1
2.570950521E0,9.577041626E0,-1.422896671E1,-1.025732136E1
2.573429323E0,1.042455292E1,-1.483946133E1,-1.021662140E1
2.575907344E0,1.129600525E1,-1.536376858E1,-1.005621719E1
2.578385365E0,1.190649986E1,-1.588328838E1,-9.658796310E0
2.580864219E0,1.232546711E1,-1.623043251E1,-9.354745865E0
2.583343021E0,1.251460075E1,-1.641477966E1,-9.029149055E0
2.585821042E0,1.236616707E1,-1.655124283E1,-8.602998734E0
2.588299063E0,1.194719887E1,-1.653927231E1,-8.164878845E0
2.590777865E0,1.118587589E1,-1.647702599E1,-7.707606792E0
2.593256719E0,1.023541832E1,-1.622325134E1,-7.331733227E0
2.595734688E0,9.256232262E0,-1.583540630E1,-6.919948101E0
2.598212709E0,8.236346245E0,-1.540207481E1,-6.517739773E0
2.600691563E0,7.293071270E0,-1.483227825E1,-6.127501011E0
2.603170365E0,6.488654137E0,-1.419544888E1,-5.672622681E0
2.605648386E0,5.794365406E0,-1.347721958E1,-5.148315430E0
2.608126407E0,5.274846077E0,-1.269913673E1,-4.729347706E0
2.610605261E0,4.709838867E0,-1.195217896E1,-4.286439419E0
2.613084063E0,4.238201141E0,-1.127704239E1,-3.814801693E0
2.615562084E0,3.711499691E0,-1.067612362E1,-3.403016806E0
2.618040105E0,3.105792761E0,-1.026673222E1,-3.149242163E0
2.620518959E0,2.512056351E0,-9.881282806E0,-2.842797756E0
2.622997761E0,1.870437860E0,-9.584414482E0,-2.565082312E0
2.625475782E0,1.257548571E0,-9.287546158E0,-2.273002148E0
2.627953802E0,6.183241606E-1,-9.100806236E0,-2.026410103E0
2.630432605E0,4.374051094E-2,-8.870973587E0,-1.877975821E0
2.632911407E0,-4.494438469E-1,-8.662686348E0,-1.696024418E0
2.635389480E0,-8.731993437E-1,-8.538193703E0,-1.605048656E0
2.637867500E0,-1.198796749E0,-8.380183220E0,-1.502102375E0
2.640346302E0,-1.347230792E0,-8.258084297E0,-1.478161335E0
2.642825105E0,-1.416659713E0,-8.174290657E0,-1.391973853E0
2.645303125E0,-1.404689193E0,-8.116832733E0,-1.245933890E0
2.647781146E0,-1.378354073E0,-8.116832733E0,-1.044829488E0
2.650260000E0,-1.205978990E0,-8.112044334E0,-7.934491634E-1
2.652738802E0,-9.665690660E-1,-8.183866501E0,-5.755861998E-1
2.655216823E0,-7.032183409E-1,-8.265266418E0,-4.056051373E-1
2.657694844E0,-3.800149858E-1,-8.365818977E0,-2.954766154E-1
2.660173698E0,1.022312045E-2,-8.521434784E0,-2.188654691E-1
2.662652500E0,3.932788968E-1,-8.689022064E0,-2.284418792E-1
2.665130521E0,7.739406824E-1,-8.904490471E0,-2.308359593E-1
2.667608542E0,1.209666610E0,-9.110383034E0,-2.380182594E-1
2.670087344E0,1.623845696E0,-9.323457718E0,-2.523828447E-1
2.672566198E0,2.004507303E0,-9.593990326E0,-2.092890888E-1
2.675044219E0,2.327710867E0,-9.850159645E0,-5.790680647E-3
2.677522240E0,2.567120552E0,-1.025476265E1,2.551660836E-1
2.680001042E0,2.713160515E0,-1.085328674E1,1.522198319E-1
2.682479844E0,2.694007874E0,-1.163136864E1,-1.638012081E-1
2.684957865E0,2.658096313E0,-1.250760937E1,-5.468569994E-1
2.687435886E0,2.658096313E0,-1.343891335E1,-1.097499728E0
2.689914740E0,2.629367352E0,-1.441091728E1,-1.739118099E0
2.692393542E0,2.679643393E0,-1.542840958E1,-2.512412071E0
2.694871563E0,2.751466274E0,-1.640280724E1,-3.345558405E0
2.697349584E0,2.899900198E0,-1.725989723E1,-4.130823135E0
2.699828438E0,3.079457760E0,-1.801882362E1,-4.918481827E0
2.702307240E0,3.366749525E0,-1.858143806E1,-5.643893242E0
2.704785261E0,3.663617849E0,-1.892379379E1,-6.247206211E0
2.707263282E0,3.991609335E0,-1.900519371E1,-6.635050297E0
2.709742084E0,4.424940586E0,-1.888309479E1,-6.833760738E0
2.712220938E0,4.922913074E0,-1.844976234E1,-6.831366062E0
2.714698907E0,5.523832321E0,-1.776505089E1,-6.424369812E0
2.717176927E0,6.146297932E0,-1.687444687E1,-5.615164280E0
2.719655782E0,6.687364101E0,-1.586174202E1,-4.571337223E0
2.722134584E0,7.039296627E0,-1.482749081E1,-3.465263128E0
2.724612605E0,6.941138744E0,-1.380999851E1,-2.378342390E0
2.727090625E0,6.397678375E0,-1.296727657E1,-1.485343695E0
2.729569480E0,5.612413883E0,-1.221313477E1,-6.928969622E-1
2.732048282E0,4.604498386E0,-1.145659924E1,-1.278897226E-1
2.734526302E0,3.426602125E0,-1.061866570E1,3.533241451E-1
2.737004323E0,2.239129066E0,-9.816642761E0,7.363799214E-1
2.739483177E0,1.049262047E0,-9.014619827E0,9.973366857E-1
2.741961980E0,-1.597579122E-1,-8.164714813E0,1.397151113E0
2.744440000E0,-1.359201312E0,-7.345932484E0,1.744295478E0
2.746918021E0,-2.584980011E0,-6.654037952E0,1.868788600E0
2.749396823E0,-3.631201029E0,-6.014813900E0,1.974128962E0
2.751875677E0,-4.517017841E0,-5.524023533E0,2.014828682E0
2.754353646E0,-5.216094494E0,-5.172091007E0,1.816118479E0
2.756831667E0,-5.797860622E0,-5.030838966E0,1.480944633E0
2.759310521E0,-6.214433670E0,-5.021263123E0,9.710016251E-1
2.761789323E0,-6.568760395E0,-5.224761009E0,3.198067546E-1
2.764267344E0,-6.865628719E0,-5.526417732E0,-4.127874672E-1
2.766745365E0,-7.152920723E0,-5.873561859E0,-1.104681969E0
2.769224219E0,-7.399512768E0,-6.235071182E0,-1.775029659E0
2.771703021E0,-7.646104813E0,-6.534333229E0,-2.311307669E0
2.774181042E0,-7.818480492E0,-6.824018955E0,-2.639299154E0
2.776659063E0,-8.038737297E0,-7.140039921E0,-2.701545715E0
2.779137917E0,-8.019584656E0,-7.415361404E0,-2.636905193E0
2.781616719E0,-7.732292175E0,-7.599707127E0,-2.646481514E0
2.784094740E0,-7.318113327E0,-7.678712368E0,-2.533958912E0
2.786572761E0,-6.760288239E0,-7.683500767E0,-2.306519508E0
2.789051615E0,-6.183310509E0,-7.724200726E0,-1.947404742E0
2.791530417E0,-5.632667542E0,-7.793629169E0,-1.480555534E0
2.794008438E0,-5.091601849E0,-7.942063808E0,-1.040041327E0
2.796486459E0,-4.557717800E0,-8.179079056E0,-6.881088018E-1
2.798965261E0,-4.004680634E0,-8.452006340E0,-4.032110572E-1
2.801444063E0,-3.439673185E0,-8.830273628E0,-2.068949789E-1
2.803922084E0,-2.802842855E0,-9.244452477E0,-3.930806741E-2
2.806400105E0,-2.113342524E0,-9.658631325E0,1.139142513E-1
2.808878959E0,-1.390324593E0,-1.009914589E1,2.336191982E-1
2.811357761E0,-5.883015394E-1,-1.051332474E1,3.724769354E-1
2.813835782E0,2.759680748E-1,-1.087483406E1,4.826054871E-1
2.816313802E0,1.171360970E0,-1.116930771E1,6.238573194E-1
2.818792657E0,1.997325182E0,-1.155475807E1,7.722914219E-1
2.821271459E0,2.691613674E0,-1.188274956E1,9.326959848E-1
2.823749480E0,3.371537685E0,-1.220834637E1,9.710016251E-1
2.826227500E0,3.934150934E0,-1.239748096E1,9.925485253E-1
2.828706355E0,4.506340504E0,-1.247169781E1,1.085918427E0
2.831185157E0,5.049800873E0,-1.246690941E1,1.282234550E0
2.833663177E0,5.444827080E0,-1.238311577E1,1.464185953E0
2.836141198E0,5.698601246E0,-1.219158840E1,1.638955116E0
2.838620000E0,5.981105328E0,-1.193063164E1,1.799359798E0
2.841098802E0,6.189391613E0,-1.168643379E1,1.983705401E0
2.843576823E0,6.376131058E0,-1.147335815E1,2.067498922E0
2.846054844E0,6.505412579E0,-1.123873615E1,2.098622084E0
2.848533698E0,6.637088299E0,-1.103045082E1,2.026798964E0
2.851012500E0,6.649058819E0,-1.086046982E1,1.990887642E0
2.853490521E0,6.670605659E0,-1.075034046E1,1.878365040E0
2.855968542E0,6.620329857E0,-1.057078362E1,1.770630598E0
2.858447396E0,6.617935181E0,-1.048220158E1,1.593467236E0
2.860926198E0,6.464713097E0,-1.042234993E1,1.490520954E0
2.863404219E0,6.151086330E0,-1.029546165E1,1.476156473E0
2.865882240E0,5.655507565E0,-1.013027000E1,1.646137476E0
2.868361094E0,5.140776157E0,-1.008478165E1,1.796965599E0
2.870839896E0,4.544645786E0,-1.016378689E1,1.847241759E0
2.873317917E0,3.912604094E0,-1.029546165E1,1.950188041E0
2.875795938E0,3.314079523E0,-1.038164997E1,2.019616842E0
2.878274740E0,2.873565197E0,-1.041756058E1,1.940611601E0
2.880753542E0,2.500085831E0,-1.042713737E1,1.832877159E0
2.883231563E0,2.095483065E0,-1.047501945E1,1.715566397E0
2.885709584E0,1.779462218E0,-1.050853634E1,1.521644354E0
2.888188438E0,1.494564414E0,-1.050853634E1,1.277446270E0
2.890667240E0,1.257548571E0,-1.055641842E1,9.087550640E-1
2.893145261E0,1.063626528E0,-1.059711838E1,5.424579382E-1
2.895623282E0,9.965918064E-1,-1.063781738E1,2.024959028E-1
2.898102136E0,9.032219648E-1,-1.063063526E1,-1.374661177E-1
2.900580938E0,7.452114820E-1,-1.056360054E1,-3.864523768E-1
2.903058959E0,5.895949602E-1,-1.045107841E1,-5.731920600E-1
2.905536980E0,4.818605781E-1,-1.035531425E1,-7.024734020E-1
2.908015834E0,4.818605781E-1,-1.026194477E1,-7.790845633E-1
2.910494636E0,4.603136778E-1,-1.018533325E1,-8.197842240E-1
2.912972657E0,4.722841978E-1,-1.016378689E1,-7.096557021E-1
2.915450677E0,3.789142966E-1,-1.016857433E1,-3.505409062E-1
2.917929480E0,2.448447943E-1,-1.025476265E1,5.645588785E-2
2.920408334E0,1.802041233E-1,-1.028349209E1,2.048900127E-1
2.922886302E0,2.937591076E-2,-1.023800373E1,1.953136027E-1
2.925364323E0,-2.315808833E-1,-1.017096901E1,3.988119960E-1
2.927843177E0,-5.212668180E-1,-1.004647541E1,5.855516791E-1
2.930321980E0,-8.468642235E-1,-9.974652290E0,7.794737220E-1
2.932800000E0,-1.074303627E0,-9.931558609E0,9.590311646E-1
2.935278021E0,-1.182038069E0,-9.900435448E0,1.126618028E0
2.937756875E0,-1.153308868E0,-9.785518646E0,1.377998352E0
2.940235677E0,-1.126973748E0,-9.637084961E0,1.770630598E0
2.942713698E0,-1.059938908E0,-9.342610359E0,2.498436451E0
2.945191719E0,-9.976924658E-1,-9.189388275E0,3.233424902E0
2.947670573E0,-9.282635450E-1,-9.057712555E0,3.468046427E0
2.950149375E0,-8.923521042E-1,-8.880549431E0,3.673938990E0
2.952627396E0,-9.426282644E-1,-8.748873711E0,3.673938990E0
2.955105417E0,-9.330517054E-1,-8.662686348E0,3.669151068E0
2.957584219E0,-9.067167044E-1,-8.636351585E0,3.465652466E0
2.960063073E0,-7.965881824E-1,-8.598046303E0,3.108931780E0
2.962541042E0,-7.750412226E-1,-8.519041061E0,2.670811653E0
2.965019063E0,-7.415238619E-1,-8.621987343E0,2.213538647E0
2.967497917E0,-6.337894201E-1,-8.777603149E0,1.658107996E0
2.969976719E0,-5.164786577E-1,-8.894914627E0,1.100283027E0
2.972454740E0,-4.422615469E-1,-9.000254631E0,6.597687602E-1
2.974932761E0,-5.140844584E-1,-9.182205200E0,4.826054871E-1
2.977411615E0,-5.571782589E-1,-9.447950363E0,3.389595449E-1
2.979890417E0,-6.337894201E-1,-9.531744957E0,2.336191982E-1
2.982368438E0,-6.170307398E-1,-9.457527161E0,-3.691396490E-2
2.984846459E0,-7.247651815E-1,-9.328245163E0,-2.973167226E-2
2.987325313E0,-7.917999029E-1,-9.462315559E0,-2.619592547E-1
2.989804115E0,-7.870117426E-1,-9.661026001E0,-6.210740805E-1
2.992282136E0,-8.253173828E-1,-9.814248085E0,-7.671140432E-1
2.994760157E0,-9.186872244E-1,-9.890859604E0,-8.461192846E-1
2.997238959E0,-1.014451146E0,-1.000577545E1,-8.509075642E-1
2.999717813E0,-1.071909428E0,-1.015421104E1,-8.700603247E-1
3.002195782E0,-1.105426788E0,-1.019969749E1,-8.413311243E-1
3.004673802E0,-1.182038069E0,-1.013505745E1,-7.407789826E-1
3.007152657E0,-1.249072790E0,-1.009196377E1,-5.540392995E-1
3.009631459E0,-1.335260391E0,-9.996199608E0,-4.127874672E-1
3.012109480E0,-1.435812473E0,-9.890859604E0,-2.667474151E-1
3.014587500E0,-1.522000074E0,-9.773549080E0,-7.521954179E-2
3.017066355E0,-1.620158076E0,-9.665813446E0,1.474316418E-1
3.019545157E0,-1.715922117E0,-9.584414482E0,3.245949447E-1
3.022023177E0,-1.735074878E0,-9.486256599E0,5.017582178E-1
3.024501198E0,-1.723104358E0,-9.378522873E0,6.358278394E-1
3.026980052E0,-1.689586997E0,-9.234876633E0,8.082028627E-1
3.029458855E0,-1.861962080E0,-8.902096748E0,1.457003593E0
3.031936875E0,-1.581852436E0,-9.165447235E0,1.239140630E0
3.034414896E0,-1.225131869E0,-9.196570396E0,8.991786242E-1
3.036893698E0,-9.402340651E-1,-9.076865196E0,6.525865197E-1
3.039372552E0,-7.104005814E-1,-9.005043030E0,5.209110379E-1
3.041850521E0,-6.194248199E-1,-8.837455750E0,6.837097406E-1
3.044328542E0,-3.488917053E-1,-9.017013550E0,5.448520184E-1
3.046807396E0,3.895230591E-2,-9.172629356E0,2.791070938E-1
3.049286198E0,3.310323358E-1,-9.153476715E0,2.910775840E-1
3.051764219E0,5.536835194E-1,-9.191782951E0,3.868415356E-1
3.054242240E0,7.380291224E-1,-9.297122955E0,5.328814983E-1
3.056721094E0,8.242167234E-1,-9.450345039E0,7.004684210E-1
3.059199896E0,9.199806452E-1,-9.598779678E0,8.919963837E-1
3.061677917E0,1.006168246E0,-9.725667000E0,1.131406307E0
3.064155938E0,1.092355728E0,-9.871706963E0,1.246322989E0
3.066634792E0,1.068414807E0,-9.900435448E0,1.483338714E0
3.069113594E0,8.553400040E-1,-9.876494408E0,2.019616842E0
3.071591615E0,1.137843609E0,-1.033616161E1,1.629378796E0
3.074069636E0,1.434711933E0,-1.049417305E1,1.303781390E0
3.076548438E0,1.688486457E0,-1.047262573E1,1.109859347E0
3.079027240E0,1.894378901E0,-1.049656677E1,9.925485253E-1
3.081505261E0,1.980566382E0,-1.047741318E1,9.542429447E-1
3.083983282E0,1.980566382E0,-1.040798473E1,9.925485253E-1
3.086462136E0,1.935078502E0,-1.038883114E1,1.014095306E0
3.088940938E0,1.903955340E0,-1.035770893E1,1.050006866E0
3.091418959E0,1.870437860E0,-1.032658577E1,1.002124906E0
3.093896980E0,1.858467460E0,-1.031940269E1,8.919963837E-1
3.096375834E0,1.856073260E0,-1.030743217E1,7.603209615E-1
3.098854636E0,1.853679180E0,-1.030025101E1,6.214631796E-1
3.101332657E0,1.875226021E0,-1.028827953E1,4.682408869E-1
3.103810677E0,1.889590621E0,-1.028588581E1,3.365654349E-1
3.106289532E0,1.822555900E0,-1.022603226E1,3.078362644E-1
3.108768334E0,1.523293495E0,-1.005126381E1,6.286455393E-1
3.111246355E0,1.631028056E0,-1.041995430E1,2.216486931E-1
3.113724375E0,1.913531661E0,-1.048938370E1,-2.236536890E-1
3.116203177E0,2.102665424E0,-1.046783638E1,-5.061572790E-1
3.118682032E0,2.236735106E0,-1.045347214E1,-7.216261625E-1
3.121160000E0,2.313346148E0,-1.045586681E1,-8.844249249E-1
3.123638021E0,2.385169029E0,-1.045586681E1,-9.730066061E-1
3.126116875E0,2.425868750E0,-1.043431950E1,-1.054405808E0
3.128595677E0,2.471356630E0,-1.043910789E1,-1.087923288E0
3.131073698E0,2.468962431E0,-1.042234993E1,-1.111864209E0
3.133551719E0,2.528815031E0,-1.041756058E1,-1.075952888E0
3.136030573E0,2.576697111E0,-1.043431950E1,-1.123834729E0
3.138509375E0,2.648519993E0,-1.044389534E1,-1.181293130E0
3.140987396E0,2.725131035E0,-1.049417305E1,-1.186081409E0
3.143465417E0,2.844835997E0,-1.050614262E1,-1.262692451E0
3.145944271E0,2.971723318E0,-1.053487206E1,-1.265086651E0
3.148423073E0,3.101004601E0,-1.054923630E1,-1.231569290E0
3.150901094E0,3.122551441E0,-1.044629097E1,-1.169322610E0
3.153379115E0,3.002846479E0,-1.042953205E1,-8.892131448E-1
3.155857917E0,3.287744284E0,-1.069767094E1,-1.097499728E0
3.158336719E0,3.677982569E0,-1.075752258E1,-1.300998092E0
3.160814792E0,3.979638815E0,-1.071682358E1,-1.437461734E0
3.163292813E0,4.175954819E0,-1.066415405E1,-1.487737775E0
3.165771615E0,4.360300064E0,-1.067851734E1,-1.523649216E0
3.168250417E0,4.532675266E0,-1.064500046E1,-1.549984336E0
3.170728438E0,4.661956787E0,-1.057557201E1,-1.526043415E0
3.173206459E0,4.757720947E0,-1.050614262E1,-1.468585014E0
3.175685313E0,4.822361469E0,-1.050614262E1,-1.427885413E0
3.178164115E0,4.865455151E0,-1.050614262E1,-1.451826334E0
3.180642136E0,4.925307751E0,-1.049417305E1,-1.478161335E0
3.183120157E0,5.006706715E0,-1.047023201E1,-1.583501697E0
3.185599011E0,5.056983471E0,-1.043431950E1,-1.715177059E0
3.188077813E0,5.092895031E0,-1.042474365E1,-1.808547020E0
3.190555834E0,5.021071911E0,-1.023321533E1,-1.837276220E0
3.193033855E0,4.685897827E0,-1.015181541E1,-1.557166576E0
3.195512657E0,4.944460392E0,-1.044389534E1,-2.000074863E0
3.197991511E0,5.282028198E0,-1.047262573E1,-2.495653391E0
3.200469480E0,5.420886517E0,-1.043192577E1,-2.938561678E0
3.202947500E0,5.533408642E0,-1.041037846E1,-3.352740765E0
3.205426355E0,5.617202282E0,-1.034813309E1,-3.771708012E0
3.207905157E0,5.598049164E0,-1.023082161E1,-4.008724213E0
3.210383177E0,5.521438122E0,-1.014463329E1,-4.221798897E0
3.212861198E0,5.399339199E0,-1.007281017E1,-4.346291542E0
3.215340052E0,5.260481358E0,-1.006562901E1,-4.549790382E0
3.217818855E0,5.126411915E0,-1.014702797E1,-4.815535069E0
3.220296875E0,4.985160351E0,-1.020688057E1,-5.119585514E0
3.222774896E0,4.817573071E0,-1.032897949E1,-5.435606956E0
3.225253750E0,4.659562588E0,-1.044629097E1,-5.792327881E0
3.227732552E0,4.503946304E0,-1.054444885E1,-6.058072567E0
3.230210573E0,4.329176903E0,-1.058993530E1,-6.232841492E0
3.232688594E0,4.154407978E0,-1.064978886E1,-6.330999851E0
3.235167396E0,3.979638815E0,-1.064260674E1,-6.395640373E0
3.237646198E0,3.831204891E0,-1.060669422E1,-6.436340332E0
3.240124219E0,3.689953089E0,-1.054684258E1,-6.486616135E0
3.242602240E0,3.591794729E0,-1.042713737E1,-6.479433537E0
3.245081094E0,3.553489208E0,-1.022363853E1,-6.517739773E0
3.247559896E0,3.546307087E0,-9.991411209E0,-6.546468735E0
3.250037917E0,3.618129969E0,-9.744819641E0,-6.591956615E0
3.252515938E0,3.704317570E0,-9.500621796E0,-6.656597137E0
3.254994792E0,3.816839933E0,-9.268393517E0,-6.812213898E0
3.257473594E0,3.946121454E0,-9.117565155E0,-6.996559143E0
3.259951615E0,4.094555378E0,-8.961948395E0,-7.039653301E0
3.262429636E0,4.147225857E0,-8.870973587E0,-6.903189182E0
3.264908490E0,4.154407978E0,-8.835062027E0,-6.615897655E0
3.267387292E0,4.070614338E0,-8.849426270E0,-6.266359329E0
3.269865313E0,3.965274334E0,-8.983495712E0,-5.825844765E0
3.272343334E0,3.893451214E0,-9.112777710E0,-5.505035877E0
3.274822136E0,3.871904612E0,-9.256422997E0,-5.289566517E0
3.277300990E0,3.900633574E0,-9.416827202E0,-5.102827072E0
3.279778959E0,4.013155937E0,-9.567655563E0,-5.011851311E0
3.282256980E0,4.178349018E0,-9.742425919E0,-4.904116631E0
3.284735834E0,4.384241104E0,-1.000816917E1,-4.856234550E0
3.287214636E0,4.599710464E0,-1.050374889E1,-4.803564548E0
3.289692657E0,4.824755192E0,-1.129858971E1,-4.779623508E0
3.292170677E0,5.064165115E0,-1.211737061E1,-4.846658707E0
3.294649532E0,5.205417156E0,-1.291939449E1,-4.887358189E0
3.297128334E0,5.226964474E0,-1.377648163E1,-4.791594028E0
3.299606355E0,5.186264515E0,-1.470539188E1,-4.437267780E0
3.302084375E0,5.097682953E0,-1.575400639E1,-3.786072493E0
3.304563230E0,5.009101391E0,-1.680262375E1,-2.838009596E0
3.307042032E0,5.045012951E0,-1.783926773E1,-1.605048656E0
3.309520052E0,4.580557346E0,-1.907701683E1,1.096801087E-2
3.311998073E0,3.879086733E0,-2.019027328E1,1.466580033E0
3.314476875E0,3.395478725E0,-2.091329002E1,2.467313290E0
3.316955730E0,2.988481998E0,-2.116227722E1,3.128084421E0
3.319433698E0,2.591061592E0,-2.121494675E1,3.559022188E0
3.321911719E0,2.088300943E0,-2.117424774E1,4.083329678E0
3.324390573E0,1.461047053E0,-2.113115501E1,4.787194729E0
3.326869375E0,6.422652006E-1,-2.107369423E1,5.584429741E0
3.329347396E0,-3.536798656E-1,-2.108806038E1,6.417576313E0
3.331825417E0,-1.421447992E0,-2.105932999E1,7.183687687E0
3.334304271E0,-2.656802893E0,-2.094680786E1,8.071898460E0
3.336783073E0,-3.923281431E0,-2.073612595E1,8.988838196E0
3.339261094E0,-5.196941853E0,-2.048235321E1,9.814802170E0
3.341739115E0,-6.362868309E0,-2.027406693E1,1.037023354E1
3.344217969E0,-7.284595966E0,-2.009450912E1,1.048275661E1
3.346696771E0,-7.962125778E0,-1.981679535E1,1.010448837E1
3.349174792E0,-8.409822464E0,-1.945289040E1,9.249794960E0
3.351652813E0,-8.639656067E0,-1.900758934E1,8.086263657E0
3.354131615E0,-8.749784470E0,-1.840427399E1,6.822178841E0
3.356610469E0,-8.709085464E0,-1.782250786E1,5.531759262E0
3.359088438E0,-8.639656067E0,-1.723116684E1,4.425685883E0
3.361566459E0,-8.553467751E0,-1.654405975E1,3.527899027E0
3.364045313E0,-8.400246620E0,-1.593356419E1,2.874310017E0
3.366524115E0,-8.235053062E0,-1.541165066E1,2.438584328E0
3.369002136E0,-7.871150017E0,-1.501183701E1,2.105804443E0
3.371480157E0,-7.435424328E0,-1.463117504E1,2.029193163E0
3.373959011E0,-6.894357681E0,-1.426008987E1,2.290149927E0
3.376437813E0,-6.310197830E0,-1.398716259E1,2.632506371E0
3.378915834E0,-5.855319023E0,-1.381478786E1,3.049079180E0
3.381393855E0,-5.254400253E0,-1.377408791E1,3.429740906E0
3.383872709E0,-4.737274647E0,-1.368071747E1,3.815191031E0
3.386351511E0,-4.064533234E0,-1.373817539E1,3.994748354E0
3.388829532E0,-3.205051422E0,-1.394885635E1,4.102482319E0
3.391307552E0,-2.283323526E0,-1.397279739E1,3.822373152E0
3.393786355E0,-1.541152835E0,-1.384351635E1,3.286094904E0
3.396265157E0,-5.188727379E-1,-1.369268799E1,2.694752693E0
3.398743177E0,4.962251484E-1,-1.362565327E1,1.883153319E0
3.401221198E0,1.549628615E0,-1.334793758E1,1.138588548E0
3.403700052E0,2.243917227E0,-1.297445869E1,1.229564309E0
3.406178855E0,2.677248955E0,-1.251479149E1,2.436190128E0
3.408656875E0,3.713893890E0,-1.217722321E1,3.535081148E0
3.411134896E0,4.992342472E0,-1.198569584E1,4.387380123E0
3.413613750E0,6.890862942E0,-1.165770435E1,4.159941196E0
3.416092552E0,8.798959732E0,-1.138477707E1,3.405800104E0
3.418570573E0,1.069029808E1,-1.122916031E1,2.247056246E0
3.421048594E0,1.163836098E1,-1.126986027E1,1.229564309E0
3.423527396E0,1.204056835E1,-1.119085503E1,7.363799214E-1
3.426006250E0,1.216506195E1,-1.095623398E1,-3.691396490E-2
3.428484271E0,1.190410614E1,-1.033855534E1,-9.466714859E-1
3.430962292E0,1.129600525E1,-9.668207169E0,-2.160479546E0
3.433441094E0,9.993615150E0,-9.297122955E0,-3.230641842E0
3.435919948E0,8.226769447E0,-9.201358795E0,-4.140399456E0
3.438397917E0,6.634694099E0,-9.244452477E0,-5.019033909E0
3.440875938E0,5.226964474E0,-9.412039757E0,-5.866544724E0
3.443354792E0,4.068220615E0,-9.661026001E0,-6.587168217E0
3.445833594E0,3.124945641E0,-9.809459686E0,-7.037258625E0
3.448311615E0,2.229552746E0,-9.931558609E0,-6.867277622E0
3.450789636E0,1.504140735E0,-9.926770210E0,-6.187353611E0
3.453268490E0,1.013350487E0,-9.866918564E0,-5.342236996E0
3.455747292E0,7.835170031E-1,-9.668207169E0,-4.626401901E0
3.458225313E0,7.308468819E-1,-9.462315559E0,-4.073364735E0
3.460703334E0,7.212704420E-1,-9.239665031E0,-3.474839687E0
3.463182188E0,9.367393255E-1,-9.146294594E0,-3.321617603E0
3.465660990E0,9.798331261E-1,-9.151082993E0,-3.462869167E0
3.468139011E0,8.768868446E-1,-9.052924156E0,-3.525115728E0
3.470617032E0,8.074580431E-1,-8.904490471E0,-3.577785969E0
3.473095834E0,7.859110832E-1,-8.612410545E0,-3.527509928E0
3.475574688E0,8.816751242E-1,-8.174290657E0,-3.517933607E0
3.478052657E0,1.061232448E0,-7.661953449E0,-3.601727009E0
3.480530677E0,1.121084929E0,-7.130464077E0,-3.182759762E0
3.483009532E0,1.212060690E0,-6.610944748E0,-2.617752552E0
3.485488334E0,1.303036451E0,-6.122548103E0,-2.165267706E0
3.487966355E0,1.329371572E0,-5.703580856E0,-1.717571259E0
3.490444375E0,1.271913171E0,-5.339678288E0,-1.126228809E0
3.492923230E0,1.128267288E0,-5.035627365E0,-4.654576182E-1
3.495402032E0,9.463157654E-1,-4.791429520E0,7.082048059E-2
3.497880052E0,7.045117617E-1,-4.556807995E0,4.107825160E-1
3.500358073E0,4.124317169E-1,-4.365279675E0,7.722914219E-1
3.502836927E0,3.177000582E-2,-4.231210232E0,1.069159746E0
3.505315730E0,-4.135323465E-1,-4.130658150E0,1.334904671E0
3.507793750E0,-7.894058228E-1,-3.934342146E0,1.665290236E0
3.510271771E0,-1.105426788E0,-3.817031384E0,1.945399761E0
3.512750573E0,-1.340048552E0,-3.706902504E0,2.057922602E0
3.515229375E0,-1.529182315E0,-3.627897263E0,2.177627563E0
3.517707396E0,-1.603399515E0,-3.536921501E0,2.290149927E0
3.520185417E0,-1.708739758E0,-3.438763618E0,2.440978289E0
3.522664271E0,-1.830838919E0,-3.386093378E0,2.603776932E0
3.525143073E0,-1.928996801E0,-3.395669937E0,2.754605293E0
3.527621094E0,-2.012790203E0,-3.359758377E0,2.792910814E0
3.530099115E0,-2.034337282E0,-3.407640457E0,2.814457655E0
3.532577969E0,-2.024760723E0,-3.501010180E0,2.682782173E0
3.535056771E0,-2.082219124E0,-3.496222019E0,2.654052973E0
3.537534792E0,-2.137283564E0,-3.517768860E0,2.718693733E0
3.540012813E0,-2.206712246E0,-3.613532782E0,2.553500891E0
3.542491667E0,-2.264170647E0,-3.781119823E0,2.184809685E0
3.544970469E0,-2.338387728E0,-3.943918228E0,1.818512678E0
3.547448490E0,-2.417392969E0,-4.077988148E0,1.476156473E0
3.549926511E0,-2.448516130E0,-4.192904949E0,1.138588548E0
3.552405313E0,-2.453304529E0,-4.288668633E0,8.441143632E-1
3.554884115E0,-2.505974770E0,-4.408373356E0,5.855516791E-1
3.557362136E0,-2.678349733E0,-4.556807995E0,5.352756381E-1
3.559840157E0,-2.903394938E0,-4.767488480E0,5.735812187E-1
3.562319011E0,-3.118864059E0,-4.982956886E0,6.573746800E-1
3.564797813E0,-3.351091385E0,-5.138573647E0,7.148330808E-1
3.567275834E0,-3.568954468E0,-5.325313568E0,8.489025831E-1
3.569753855E0,-3.722176790E0,-5.507265091E0,8.967845440E-1
3.572232709E0,-3.777240992E0,-5.875956059E0,6.166750193E-1
3.574711511E0,-4.153114796E0,-5.705975056E0,1.289416790E0
3.577189532E0,-4.416465759E0,-5.672457695E0,1.959764361E0
3.579667552E0,-4.576870441E0,-5.770615578E0,2.278179407E0
3.582146407E0,-4.742063046E0,-5.954961777E0,2.393096209E0
3.584625209E0,-4.835433006E0,-6.170430183E0,2.347608566E0
3.587103230E0,-4.962320328E0,-6.419416428E0,2.247056246E0
3.589581250E0,-4.952743530E0,-6.668402672E0,2.156080484E0
3.592060052E0,-4.912044048E0,-6.903024673E0,1.880759120E0
3.594538855E0,-4.766004086E0,-7.101734638E0,1.595861435E0
3.597016875E0,-4.648693085E0,-7.192710400E0,1.543191314E0
3.599494896E0,-4.447589397E0,-7.274109364E0,1.351663232E0
3.601973750E0,-4.308731079E0,-7.321991444E0,1.164923668E0
3.604452552E0,-4.114809036E0,-7.254957199E0,1.136194348E0
3.606930573E0,-3.928069353E0,-7.211863041E0,9.446665049E-1
3.609408594E0,-3.736541510E0,-7.262139320E0,6.238573194E-1
3.611887448E0,-3.442067146E0,-7.207075119E0,3.269890845E-1
3.614366250E0,-3.130834579E0,-7.142434597E0,4.927359149E-2
3.616844271E0,-2.872271776E0,-7.144828796E0,-3.601172566E-1
3.619322292E0,-2.525127411E0,-7.080187798E0,-7.072616220E-1
3.621801146E0,-2.247411966E0,-6.946117878E0,-6.330445409E-1
3.624279948E0,-1.938573122E0,-6.881477356E0,-6.976851821E-1
3.626757969E0,-1.641704917E0,-6.838384151E0,-8.197842240E-1
3.629235990E0,-1.296954751E0,-6.816837311E0,-9.514597058E-1
3.631714792E0,-9.522045851E-1,-6.764166355E0,-1.078346848E0
3.634193594E0,-6.361835003E-1,-6.888659954E0,-1.274662971E0
3.636671615E0,-2.650982440E-1,-7.183134079E0,-1.825305700E0
3.639149636E0,2.041451186E-1,-7.511125565E0,-2.328066587E0
3.641628490E0,8.002756834E-1,-7.784053326E0,-2.866738796E0
3.644107292E0,1.374859452E0,-8.100073814E0,-3.422169447E0
3.646585313E0,1.903955340E0,-8.444823265E0,-3.956053495E0
3.649063334E0,2.495297432E0,-8.818303108E0,-4.509090900E0
3.651542188E0,3.232680082E0,-9.182205200E0,-5.191408634E0
3.654020990E0,4.013155937E0,-9.572444916E0,-5.830633163E0
3.656499011E0,4.640409946E0,-1.006802273E1,-6.496192932E0
3.658977032E0,5.277240276E0,-1.059472466E1,-7.156963825E0
3.661455886E0,6.074474812E0,-1.104960251E1,-7.887164116E0
3.663934688E0,6.869315624E0,-1.147335815E1,-8.670033455E0
3.666412709E0,7.575574875E0,-1.194020748E1,-9.270953178E0
3.668890730E0,8.403933525E0,-1.239029884E1,-9.723436356E0
3.671369532E0,9.155679703E0,-1.290024185E1,-1.004903507E1
3.673848334E0,9.974461555E0,-1.338863754E1,-1.017113400E1
3.676326355E0,1.081479073E1,-1.384351635E1,-1.018070984E1
3.678804375E0,1.163117790E1,-1.431275940E1,-9.984394073E0
3.681283230E0,1.227279663E1,-1.480833721E1,-9.642037392E0
3.683762032E0,1.284259224E1,-1.519378757E1,-9.237434387E0
3.686240052E0,1.325916576E1,-1.552896118E1,-8.691580772E0
3.688718073E0,1.353448677E1,-1.581146526E1,-8.193608284E0
3.691196927E0,1.351054573E1,-1.600299454E1,-7.750699997E0
3.693675730E0,1.324240685E1,-1.605087662E1,-7.279062748E0
3.696153750E0,1.278273964E1,-1.596708202E1,-6.955859661E0
3.698631771E0,1.209563351E1,-1.575640202E1,-6.730814457E0
3.701110625E0,1.120024109E1,-1.550980854E1,-6.560833454E0
3.703589427E0,1.029048252E1,-1.511717701E1,-6.448310852E0
3.706067448E0,9.459731102E0,-1.465990353E1,-6.330999851E0
3.708545469E0,8.667284012E0,-1.410926151E1,-6.177777290E0
3.711024271E0,7.946660519E0,-1.356819439E1,-5.976673126E0
3.713503073E0,7.266736507E0,-1.298164082E1,-5.749233723E0
3.715981094E0,6.534142017E0,-1.248127460E1,-5.502641678E0
3.718459115E0,5.768030167E0,-1.199287796E1,-5.153103352E0
3.720937969E0,5.037830353E0,-1.153799915E1,-4.829899788E0
3.723416771E0,4.336359501E0,-1.110227394E1,-4.535425663E0
3.725894792E0,3.627706289E0,-1.069527626E1,-4.178705215E0
3.728372813E0,2.971723318E0,-1.026194477E1,-3.922536135E0
3.730851667E0,2.389957190E0,-9.859735489E0,-3.683126211E0
3.733330469E0,1.899167061E0,-9.481468201E0,-3.400622845E0
3.735808490E0,1.453864694E0,-9.170235634E0,-3.127695560E0
3.738286511E0,1.092355728E0,-8.921249390E0,-2.823644876E0
3.740765313E0,7.547878027E-1,-8.708174706E0,-2.493259192E0
3.743244167E0,5.058015585E-1,-8.507070541E0,-2.141326666E0
3.745722188E0,3.430028558E-1,-8.356242180E0,-1.787000060E0
3.748200209E0,2.448447943E-1,-8.203020096E0,-1.391973853E0
3.750679011E0,2.232979089E-1,-8.104862213E0,-9.586420059E-1
3.753157813E0,2.496329844E-1,-8.030644417E0,-5.492511392E-1
3.755635834E0,2.472388893E-1,-7.989945412E0,-1.733776033E-1
3.758113855E0,2.855444849E-1,-7.891787052E0,2.120723128E-1
3.760592709E0,4.339786172E-1,-7.776870728E0,5.328814983E-1
3.763071511E0,5.321366191E-1,-7.702653408E0,8.369320631E-1
3.765549532E0,6.925412416E-1,-7.606889725E0,1.102676988E0
3.768027552E0,9.080101252E-1,-7.532672405E0,1.404333472E0
3.770506407E0,1.128267288E0,-7.496761322E0,1.677260756E0
3.772985209E0,1.267125010E0,-7.477608204E0,1.971734881E0
3.775463230E0,1.401194572E0,-7.527884007E0,2.280573606E0
3.777941250E0,1.494564414E0,-7.568583965E0,2.613353252E0
3.780420052E0,1.513717175E0,-7.633224487E0,2.950921297E0
3.782898907E0,1.542446256E0,-7.733776569E0,3.243001223E0
3.785376875E0,1.506534934E0,-7.889392853E0,3.499170065E0
3.787854896E0,1.372465253E0,-8.080921173E0,3.685909510E0
3.790333750E0,1.315006852E0,-8.334695816E0,3.812796831E0
3.792812552E0,1.240789890E0,-8.691415787E0,3.884619713E0
3.795290573E0,1.183331490E0,-9.084047318E0,3.858284712E0
3.797768594E0,1.180937409E0,-9.589202881E0,3.733791590E0
3.800247448E0,1.188119650E0,-1.016857433E1,3.489593506E0
3.802726250E0,1.183331490E0,-1.088441086E1,3.161602020E0
3.805204271E0,1.202484369E0,-1.169122124E1,2.644476652E0
3.807682292E0,1.293460011E0,-1.257703781E1,1.849635839E0
3.810161146E0,1.449076533E0,-1.347721958E1,9.757898450E-1
3.812639948E0,1.621451616E0,-1.441331196E1,-8.958412707E-2
3.815117969E0,1.820161819E0,-1.544277477E1,-1.305786252E0
3.817595990E0,2.073936224E0,-1.651054382E1,-2.754215956E0
3.820074792E0,2.397139549E0,-1.756634140E1,-4.339109898E0
3.822553646E0,2.794559956E0,-1.854073906E1,-5.935973644E0
3.825031667E0,3.287744284E0,-1.932121468E1,-7.374826908E0
3.827509688E0,3.852751493E0,-1.975454712E1,-8.528781891E0
3.829988490E0,4.345935822E0,-1.991255951E1,-9.172794342E0
3.832467292E0,4.776873112E0,-1.971623993E1,-9.337987900E0
3.834945313E0,5.068953991E0,-1.931882095E1,-9.033936501E0
3.837423334E0,5.284422398E0,-1.869874763E1,-8.397107124E0
3.839902188E0,5.296392918E0,-1.798291397E1,-7.370038509E0
3.842380990E0,4.980371952E0,-1.730777931E1,-6.175383091E0
3.844859011E0,4.274112701E0,-1.679783630E1,-5.074097633E0
3.847337032E0,3.874298573E0,-1.589047050E1,-3.587362528E0
3.849815886E0,3.345202684E0,-1.477721500E1,-1.897128701E0
3.852294688E0,2.363622189E0,-1.389379215E1,-5.181277990E-1
3.854772709E0,1.231213570E0,-1.304388714E1,7.196212411E-1
3.857250730E0,6.768149137E-2,-1.214370632E1,1.861606359E0
3.859729532E0,-9.833278656E-1,-1.118127823E1,2.582230091E0
3.862208386E0,-2.046307802E0,-1.028588581E1,2.924586296E0
3.864686407E0,-3.145199060E0,-9.371339798E0,3.022744179E0
3.867164427E0,-4.145932674E0,-8.598046303E0,3.022744179E0
3.869643230E0,-4.995837688E0,-7.954033852E0,2.819245815E0
3.872122032E0,-5.630273819E0,-7.410573483E0,2.512801170E0
3.874600052E0,-6.128246307E0,-7.053852558E0,2.057922602E0
3.877078073E0,-6.480178833E0,-6.814443111E0,1.502491474E0
3.879556927E0,-6.721982479E0,-6.701920033E0,8.919963837E-1
3.882035730E0,-6.906328201E0,-6.666008472E0,2.336191982E-1
3.884513750E0,-7.105038643E0,-6.668402672E0,-3.313880861E-1
3.886991771E0,-7.267837048E0,-6.730649471E0,-7.407789826E-1
3.889470625E0,-7.382754326E0,-6.783319473E0,-9.299128056E-1
3.891949427E0,-7.382754326E0,-6.756984711E0,-1.006523967E0
3.894427448E0,-7.373177528E0,-6.773743153E0,-1.028070807E0
3.896905469E0,-7.296566486E0,-6.812048435E0,-8.676662445E-1
3.899384271E0,-7.160102844E0,-6.792896271E0,-4.774281383E-1
3.901863125E0,-6.944633484E0,-6.797684193E0,3.490899876E-2
3.904341146E0,-6.669312477E0,-6.862324715E0,3.437477648E-1
3.906819167E0,-6.336532593E0,-6.883871555E0,4.897877574E-1
3.909297969E0,-5.975024223E0,-6.958088398E0,5.352756381E-1
3.911776771E0,-5.659002781E0,-7.077793598E0,5.424579382E-1
3.914254792E0,-5.259188175E0,-7.295656681E0,6.310395598E-1
3.916732813E0,-4.890497208E0,-7.575766087E0,6.813157201E-1
3.919211667E0,-4.564899921E0,-7.956428051E0,7.004684210E-1
3.921690469E0,-4.198602676E0,-8.368212700E0,7.483504415E-1
3.924168490E0,-3.710206270E0,-8.801544189E0,8.273556828E-1
3.926646511E0,-3.142804861E0,-9.287546158E0,9.231196642E-1
3.929125365E0,-2.628073692E0,-9.740030289E0,9.279078245E-1
3.931604167E0,-2.098978043E0,-1.015181541E1,9.087550640E-1
3.934082188E0,-1.646493196E0,-1.063063526E1,7.890501618E-1
3.936560209E0,-1.256255150E0,-1.111663723E1,6.837097406E-1
3.939039011E0,-8.324996233E-1,-1.158827591E1,5.663989186E-1
3.941517865E0,-4.183205664E-1,-1.199287796E1,4.634526968E-1
3.943995834E0,-4.005295038E-2,-1.230889893E1,3.796592355E-1
3.946473855E0,3.166677356E-1,-1.264646626E1,3.916297257E-1
3.948952709E0,6.207182407E-1,-1.287151241E1,4.873936772E-1
3.951431511E0,9.606803656E-1,-1.308219242E1,6.238573194E-1
3.953909532E0,1.360494733E0,-1.319232178E1,7.698973417E-1
3.956387552E0,1.781856179E0,-1.325217342E1,8.967845440E-1
3.958866407E0,2.270252466E0,-1.321626282E1,1.040430546E0
3.961345209E0,2.818500996E0,-1.303670502E1,1.267869830E0
3.963823230E0,3.184798002E0,-1.280447769E1,1.550373554E0
3.966301250E0,3.603765249E0,-1.251957989E1,1.907094240E0
3.968780105E0,3.924574614E0,-1.217482948E1,2.170444965E0
3.971258907E0,4.252565861E0,-1.179177380E1,2.388308048E0
3.973736927E0,4.570981026E0,-1.143744659E1,2.541530609E0
3.976214948E0,4.812784672E0,-1.110945606E1,2.680387974E0
3.978693750E0,5.124017715E0,-1.080061626E1,2.828822374E0
3.981172605E0,5.303575516E0,-1.052050781E1,2.960497856E0
3.983650625E0,5.406521320E0,-1.015421104E1,3.140054941E0
3.986128646E0,5.353851318E0,-9.833400726E0,3.281306982E0
3.988607448E0,5.214993954E0,-9.529350281E0,3.338765144E0
3.991086250E0,4.975584030E0,-9.294728279E0,3.276518822E0
3.993564271E0,4.714626789E0,-9.112777710E0,3.096961260E0
3.996042292E0,4.484793186E0,-8.961948395E0,2.891068697E0
3.998521146E0,4.298053741E0,-8.825485229E0,2.567865610E0
4.000999948E0,4.099343777E0,-8.736903191E0,2.187203646E0
4.003477969E0,3.903027773E0,-8.693810463E0,1.741901398E0
4.005955990E0,3.692347050E0,-8.662686348E0,1.349269271E0
4.008434844E0,3.412237644E0,-8.705780983E0,9.255137444E-1
4.010913646E0,3.033969879E0,-8.827879906E0,6.837097406E-1
4.013391667E0,2.739495754E0,-9.031377792E0,4.730290771E-1
4.015869688E0,2.490509510E0,-9.160659790E0,1.689785272E-1
4.018348542E0,2.203217506E0,-9.263606071E0,-3.212576732E-2
4.020827344E0,1.990142822E0,-9.345005035E0,-1.494366080E-1
4.023305365E0,1.858467460E0,-9.433587074E0,-1.542247981E-1
4.025783386E0,1.642998576E0,-9.493438721E0,-7.043135166E-2
4.028262188E0,1.415559173E0,-9.605961800E0,1.450375319E-1
4.030740990E0,1.073202968E0,-9.766366959E0,2.455896884E-1
4.033219011E0,7.619701624E-1,-9.936347961E0,3.126244843E-1
4.035697032E0,5.081956387E-1,-9.950711250E0,3.461418450E-1
4.038175886E0,2.089333087E-1,-9.938741684E0,4.849995673E-1
4.040654688E0,-8.075261116E-2,-9.977046967E0,7.698973417E-1
4.043132709E0,-2.220044732E-1,-1.017815208E1,9.374842644E-1
4.045610730E0,-3.081919849E-1,-1.024757957E1,1.167317748E0
4.048089584E0,-3.776208460E-1,-1.027391434E1,1.591073155E0
4.050568386E0,-3.512857854E-1,-1.016618061E1,2.067498922E0
4.053046407E0,-4.685966074E-1,-1.000577545E1,2.620535851E0
4.055524427E0,-5.739369392E-1,-9.809459686E0,3.032320738E0
4.058003230E0,-7.008241415E-1,-9.613143921E0,3.389041185E0
4.060482084E0,-5.667546988E-1,-9.493438721E0,3.278912783E0
4.062960105E0,-4.231087267E-1,-9.222905159E0,3.199907541E0
4.065438125E0,-2.291867435E-1,-9.017013550E0,3.137660980E0
4.067916927E0,-1.132377982E-2,-8.873367310E0,2.922192097E0
4.070395730E0,2.616034746E-1,-8.806332588E0,2.560683250E0
4.072873750E0,4.004611969E-1,-8.751268387E0,2.397884607E0
4.075351771E0,4.794664681E-1,-8.708174706E0,2.560683250E0
4.077830625E0,5.393189192E-1,-8.768027306E0,2.826428175E0
4.080309427E0,5.752304196E-1,-8.799150467E0,2.845581055E0
4.082787448E0,5.919891000E-1,-8.851820946E0,2.742634773E0
4.085265469E0,5.512894392E-1,-8.923644066E0,2.548712730E0
4.087744323E0,3.334264457E-1,-8.916460991E0,2.656447172E0
4.090223125E0,3.837025166E-1,-9.184600830E0,2.139321804E0
4.092701146E0,3.046972752E-1,-9.203752518E0,1.571920395E0
4.095179167E0,1.059870645E-1,-9.287546158E0,1.172105908E0
4.097658021E0,1.022312045E-2,-9.440768242E0,6.884979606E-1
4.100136823E0,-5.441755056E-2,-9.593990326E0,1.306729466E-1
4.102614844E0,-1.717284024E-1,-9.684967041E0,-3.170235157E-1
4.105092865E0,-4.207147062E-1,-9.756789207E0,-4.127874672E-1
4.107571667E0,-5.595723391E-1,-9.977046967E0,-6.450150609E-1
4.110050469E0,-7.463120222E-1,-1.008478165E1,-9.059718251E-1
4.112528490E0,-9.713573456E-1,-1.012308693E1,-1.087923288E0
4.115006511E0,-1.198796749E0,-1.013745117E1,-1.176504970E0
4.117485365E0,-1.435812473E0,-1.019012165E1,-1.147775769E0
4.119964167E0,-1.622552276E0,-1.022603226E1,-1.056800008E0
4.122442188E0,-1.816474199E0,-1.024039745E1,-9.658242464E-1
4.124920209E0,-2.000819683E0,-1.018054581E1,-8.868190050E-1
4.127399063E0,-2.331205368E0,-9.960289001E0,-2.619592547E-1
4.129877865E0,-2.230653286E0,-1.020209122E1,-3.050530255E-1
4.132355886E0,-2.199529886E0,-1.014223957E1,-3.864523768E-1
4.134833907E0,-2.120524645E0,-1.004408169E1,-3.888464570E-1
4.137312761E0,-2.027154922E0,-9.977046967E0,-3.672995865E-1
4.139791563E0,-1.955332041E0,-9.941135406E0,-2.236536890E-1
4.142269584E0,-1.838021040E0,-9.886070251E0,-5.367266014E-2
4.144747605E0,-1.627340317E0,-9.905223846E0,1.450375319E-1
4.147226407E0,-1.349624991E0,-9.854948044E0,3.796592355E-1
4.149705261E0,-1.016845226E0,-9.811853409E0,5.663989186E-1
4.152183230E0,-7.104005814E-1,-9.747213364E0,7.339858413E-1
4.154661250E0,-4.494438469E-1,-9.684967041E0,9.326959848E-1
4.157140105E0,-4.853552878E-1,-9.392886162E0,1.533614874E0
4.159618907E0,-2.483395636E-1,-9.680178642E0,1.571920395E0
4.162096927E0,2.280860990E-1,-9.864524841E0,1.014095306E0
4.164574948E0,6.207182407E-1,-9.766366959E0,6.765274405E-1
4.167053802E0,8.768868446E-1,-9.649055481E0,5.879458189E-1
4.169532605E0,1.092355728E0,-9.553291321E0,5.640048385E-1
4.172010625E0,1.216848850E0,-9.500621796E0,5.783694386E-1
4.174488646E0,1.303036451E0,-9.424009323E0,6.789215803E-1
4.176967500E0,1.348524332E0,-9.438374519E0,8.393262029E-1
4.179446302E0,1.298248291E0,-9.455133438E0,9.326959848E-1
4.181924323E0,1.262336731E0,-9.514986038E0,9.829721451E-1
4.184402344E0,1.185725570E0,-9.591596603E0,9.686074853E-1
4.186881146E0,1.135449529E0,-9.644267082E0,8.776317835E-1
4.189359948E0,1.082779408E0,-9.737636566E0,7.627149820E-1
4.191837969E0,1.025321007E0,-9.819036484E0,6.765274405E-1
4.194315990E0,9.678626060E-1,-9.862129211E0,6.142808795E-1
4.196794844E0,5.345307589E-1,-9.608355522E0,1.193652749E0
4.199273646E0,6.279006004E-1,-1.013027000E1,7.339858413E-1
4.201751667E0,8.673104048E-1,-1.038883114E1,2.384073883E-1
4.204229688E0,1.082779408E0,-1.048938370E1,-1.302838176E-1
4.206708542E0,1.255154490E0,-1.048459530E1,-2.787179351E-1
4.209187344E0,1.255154490E0,-1.047501945E1,-2.140772641E-1
4.211665365E0,1.262336731E0,-1.047023201E1,-9.197823703E-2
4.214143386E0,1.228819370E0,-1.045107841E1,1.815030724E-2
4.216622240E0,1.226425290E0,-1.046544266E1,1.402493417E-1
4.219101042E0,1.291066051E0,-1.042713737E1,1.833431274E-1
4.221579063E0,1.374859452E0,-1.037925529E1,1.905254126E-1
4.224057084E0,1.496958375E0,-1.031700897E1,1.426434368E-1
4.226535886E0,1.635816216E0,-1.023800373E1,7.560867816E-2
4.229014740E0,1.777068019E0,-1.017096901E1,3.012080118E-2
4.231492709E0,1.896772861E0,-1.004887009E1,-8.184779435E-3
4.233970730E0,2.045207024E0,-9.890859604E0,-1.776117459E-2
4.236449584E0,2.208005667E0,-9.701725960E0,-9.916053712E-2
4.238928386E0,2.342075348E0,-9.538927078E0,-1.422543228E-1
4.241406407E0,2.389957190E0,-9.186994553E0,-4.888445511E-2
4.243884427E0,2.294193506E0,-9.002648354E0,2.168604881E-1
4.246363282E0,2.543179512E0,-9.201358795E0,-1.901362836E-1
4.248842084E0,2.919053078E0,-9.105594635E0,-5.564333797E-1
4.251320105E0,3.203950882E0,-8.993072510E0,-8.078137636E-1
4.253798125E0,3.419419765E0,-8.952372551E0,-1.032858968E0
4.256276980E0,3.639676809E0,-8.990678787E0,-1.200446010E0
4.258755782E0,3.850357533E0,-8.940402031E0,-1.315362692E0
4.261233802E0,3.903027773E0,-8.873367310E0,-1.226781011E0
4.263711823E0,3.895845652E0,-8.890125275E0,-1.054405808E0
4.266190625E0,4.015550137E0,-8.978707314E0,-1.142987609E0
4.268669427E0,4.137649059E0,-9.002648354E0,-1.214810491E0
4.271147448E0,4.199895859E0,-9.000254631E0,-1.135805249E0
4.273625469E0,4.245383739E0,-9.136718750E0,-1.080741048E0
4.276104323E0,4.348330021E0,-9.289940834E0,-1.099893689E0
4.278583125E0,4.415364742E0,-9.347398758E0,-1.066376328E0
4.281061146E0,4.434517384E0,-9.397674561E0,-9.801888466E-1
4.283539167E0,4.520704746E0,-9.510197639E0,-9.873712063E-1
4.286018021E0,4.606892109E0,-9.574838638E0,-9.610360265E-1
4.288496823E0,4.661956787E0,-9.598779678E0,-9.394891858E-1
4.290974844E0,4.721809387E0,-9.560473442E0,-9.370950460E-1
4.293452865E0,4.724203110E0,-9.531744957E0,-9.131541252E-1
4.295931719E0,4.733779907E0,-9.512591362E0,-8.772426248E-1
4.298410521E0,4.781661987E0,-9.531744957E0,-9.083659053E-1
4.300888542E0,4.781661987E0,-9.529350281E0,-9.730066061E-1
4.303366563E0,4.793632507E0,-9.550897598E0,-1.090317369E0
4.305845365E0,4.803208828E0,-9.562867165E0,-1.231569290E0
4.308324219E0,4.798420429E0,-9.560473442E0,-1.415914893E0
4.310802240E0,4.767297268E0,-9.610749245E0,-1.638566017E0
4.313280261E0,4.448881626E0,-9.426403999E0,-1.597866416E0
4.315759063E0,4.293265343E0,-9.771154404E0,-1.820517540E0
4.318237865E0,4.551828384E0,-1.010632896E1,-2.677604914E0
4.320715886E0,4.669139385E0,-1.022363853E1,-3.431746006E0
4.323193907E0,4.563798904E0,-1.032897949E1,-3.922536135E0
4.325672761E0,4.331571102E0,-1.043671322E1,-4.147581577E0
4.328151563E0,4.041885376E0,-1.053247738E1,-4.279257298E0
4.330629584E0,3.780928850E0,-1.059951305E1,-4.360656738E0
4.333107605E0,3.546307087E0,-1.063302994E1,-4.434873581E0
4.335586459E0,3.316473484E0,-1.071682358E1,-4.592884064E0
4.338065261E0,3.110580921E0,-1.076709938E1,-4.870599747E0
4.340543282E0,2.959752798E0,-1.076949406E1,-5.141132832E0
4.343021302E0,2.837653875E0,-1.077428150E1,-5.339842796E0
4.345500105E0,2.780195236E0,-1.072161198E1,-5.481094837E0
4.347978959E0,2.780195236E0,-1.064260674E1,-5.488277435E0
4.350456980E0,2.823289394E0,-1.057317734E1,-5.447577000E0
4.352935000E0,2.926235437E0,-1.048459530E1,-5.368572235E0
4.355413802E0,3.081851721E0,-1.042953205E1,-5.256049156E0
4.357892605E0,3.268591642E0,-1.038883114E1,-5.107614994E0
4.360370625E0,3.510395527E0,-1.041756058E1,-4.975939751E0
4.362848646E0,3.725864172E0,-1.050135422E1,-4.863417149E0
4.365327500E0,3.965274334E0,-1.062345314E1,-4.707800865E0
4.367806302E0,4.173560619E0,-1.079104042E1,-4.573731422E0
4.370284323E0,4.319600582E0,-1.107833290E1,-4.501908302E0
4.372762344E0,4.513522625E0,-1.142068863E1,-4.449238300E0
4.375241198E0,4.657168865E0,-1.174628544E1,-4.262498856E0
4.377720000E0,4.767297268E0,-1.204794216E1,-4.006330013E0
4.380198021E0,4.796026230E0,-1.227298737E1,-3.666367769E0
4.382676042E0,4.889396191E0,-1.240705681E1,-3.312041044E0
4.385154844E0,4.966007233E0,-1.250760937E1,-2.933773518E0
4.387633698E0,4.994736195E0,-1.264407253E1,-2.670422554E0
4.390111719E0,5.085712433E0,-1.282363033E1,-2.519594193E0
4.392589740E0,5.183870316E0,-1.309176922E1,-2.476500511E0
4.395068542E0,5.327516079E0,-1.342215443E1,-2.600993633E0
4.397547396E0,5.480738640E0,-1.382915115E1,-2.818856716E0
4.400025365E0,5.602837563E0,-1.430318356E1,-3.053478479E0
4.402503386E0,5.626778603E0,-1.486100864E1,-3.302464724E0
4.404982240E0,5.516649723E0,-1.539728642E1,-3.568209410E0
4.407461042E0,5.262875557E0,-1.598623466E1,-3.786072493E0
4.409939063E0,4.851090908E0,-1.652730179E1,-3.970418215E0
4.412417084E0,4.324388981E0,-1.693669319E1,-3.984782934E0
4.414895938E0,3.639676809E0,-1.725032043E1,-3.848319292E0
4.417374740E0,2.773013115E0,-1.741311836E1,-3.584968328E0
4.419852761E0,1.865649700E0,-1.752803421E1,-3.264158964E0
4.422330782E0,1.027715087E0,-1.761661720E1,-2.964896679E0
4.424809636E0,2.544211745E-1,-1.777223206E1,-2.548323393E0
4.427288438E0,-4.398674071E-1,-1.785602570E1,-2.124567986E0
4.429766459E0,-1.045574307E0,-1.798530769E1,-1.645748377E0
4.432244480E0,-1.526788235E0,-1.812895393E1,-1.174110889E0
4.434723282E0,-1.962514162E0,-1.837075806E1,-6.737442613E-1
4.437202084E0,-2.448516130E0,-1.866283798E1,-6.085495278E-2
4.439680105E0,-2.958459139E0,-1.900998306E1,6.286455393E-1
4.442158125E0,-3.616836548E0,-1.938346291E1,1.377998352E0
4.444636980E0,-4.339854717E0,-1.983834076E1,2.189597845E0
4.447115782E0,-5.146665573E0,-2.036743736E1,3.027532578E0
4.449593802E0,-5.929536343E0,-2.080316162E1,3.834343672E0
4.452071823E0,-6.724376678E0,-2.111200142E1,4.602849483E0
4.454550677E0,-7.409089088E0,-2.131549835E1,5.292349815E0
4.457029480E0,-8.014796257E0,-2.140168571E1,5.742440224E0
4.459507500E0,-8.484039307E0,-2.133225822E1,6.087190151E0
4.461985521E0,-8.835971832E0,-2.105932999E1,6.261959553E0
4.464464375E0,-9.003559113E0,-2.060924149E1,6.362511635E0
4.466943177E0,-8.962859154E0,-1.999395752E1,6.281112194E0
4.469421198E0,-8.814425468E0,-1.924221039E1,5.945938587E0
4.471899219E0,-8.558256149E0,-1.837075806E1,5.596400261E0
4.474378021E0,-8.158442497E0,-1.752803421E1,5.141521454E0
4.476856875E0,-7.744262695E0,-1.675952911E1,4.698613167E0
4.479334844E0,-7.296566486E0,-1.601496315E1,4.193458080E0
4.481812865E0,-6.652553558E0,-1.534940434E1,3.681121588E0
4.484291719E0,-5.989388943E0,-1.468863392E1,3.250183582E0
4.486770521E0,-5.240035534E0,-1.407574368E1,2.850369215E0
4.489248542E0,-4.459559441E0,-1.359213543E1,2.529560089E0
4.491726563E0,-3.710206270E0,-1.315640926E1,2.213538647E0
4.494205417E0,-2.953671217E0,-1.279011250E1,1.866394520E0
4.496684219E0,-2.218682766E0,-1.244775677E1,1.686837077E0
4.499162240E0,-1.476512194E0,-1.213891792E1,1.507279754E0
4.501640261E0,-8.731993437E-1,-1.178459167E1,1.449821353E0
4.504119115E0,-2.650982440E-1,-1.144223595E1,1.636561036E0
4.506597917E0,2.185097039E-1,-1.112382030E1,1.739507318E0
4.509075938E0,8.864632845E-1,-1.105199718E1,1.780207038E0
4.511553959E0,1.731580138E0,-1.120521927E1,1.698807597E0
4.514032761E0,2.483327150E0,-1.142068863E1,1.646137476E0
4.516511615E0,3.007634878E0,-1.160982227E1,1.464185953E0
4.518989584E0,3.352385044E0,-1.162897491E1,1.148164868E0
4.521467605E0,3.826416492E0,-1.141829491E1,8.584790230E-1
4.523946459E0,4.075402737E0,-1.136083603E1,7.148330808E-1
4.526425261E0,4.223836899E0,-1.140153599E1,6.813157201E-1
4.528903282E0,4.977977753E0,-1.129380131E1,1.275052190E0
4.531381302E0,6.242061615E0,-1.111903191E1,1.667684436E0
4.533860157E0,6.857345104E0,-1.108312035E1,2.005252123E0
4.536338959E0,7.439111233E0,-1.097299194E1,2.299726486E0
4.538816980E0,8.169311523E0,-1.076470566E1,2.395490170E0
4.541295000E0,8.724742889E0,-1.037207317E1,2.086651564E0
4.543773855E0,8.858811378E0,-9.878889084E0,1.717960358E0
4.546252657E0,8.504485130E0,-9.505409241E0,1.239140630E0
4.548730677E0,7.915536880E0,-9.304305077E0,5.927340388E-1
4.551208698E0,7.125484467E0,-9.261211395E0,-2.859002054E-1
4.553687500E0,6.333037853E0,-9.239665031E0,-1.212416530E0
4.556166355E0,5.588472843E0,-9.213329315E0,-1.832487941E0
4.558644323E0,4.870243073E0,-9.210935593E0,-2.543535233E0
4.561122344E0,4.108920097E0,-9.356975555E0,-3.350346804E0
4.563601198E0,3.266197443E0,-9.438374519E0,-3.623274088E0
4.566080000E0,2.744283915E0,-9.325851440E0,-3.539480448E0
4.568558021E0,2.361227989E0,-9.210935593E0,-3.448504686E0
4.571036042E0,2.002113342E0,-9.136718750E0,-3.431746006E0
4.573514896E0,1.654968977E0,-9.028984070E0,-3.245006323E0
4.575993698E0,1.477805614E0,-8.882943153E0,-3.084601641E0
4.578471719E0,1.501746655E0,-8.756056786E0,-2.926591158E0
4.580949740E0,1.559205055E0,-8.588469505E0,-2.933773518E0
4.583428594E0,1.547234535E0,-8.526223183E0,-2.749427795E0
4.585907396E0,1.453864694E0,-8.514252663E0,-2.471712589E0
4.588385417E0,1.247972250E0,-8.413700104E0,-1.930646062E0
4.590863438E0,1.042079687E0,-8.317936897E0,-1.370427012E0
4.593342240E0,8.361872435E-1,-8.073738098E0,-8.892131448E-1
4.595821094E0,7.260586023E-1,-7.875028610E0,-6.138917208E-1
4.598299115E0,6.015654802E-1,-7.587736607E0,-4.582753479E-1
4.600777136E0,2.448447943E-1,-7.326780319E0,-2.140772641E-1
4.603255938E0,-2.004575729E-1,-7.092158318E0,1.575621031E-2
4.605734740E0,-4.326851070E-1,-6.716284752E0,2.551660836E-1
4.608212761E0,-4.829612672E-1,-6.342805386E0,4.658467770E-1
4.610690782E0,-4.326851070E-1,-5.957355499E0,6.214631796E-1
4.613169636E0,-4.231087267E-1,-5.478535652E0,9.853662252E-1
4.615648438E0,-5.116903782E-1,-5.157726765E0,1.284628510E0
4.618126459E0,-5.811192989E-1,-4.920710564E0,1.423486233E0
4.620604480E0,-7.295533419E-1,-4.659754276E0,1.591073155E0
4.623083334E0,-8.181350231E-1,-4.415555954E0,1.773024797E0
4.625562136E0,-8.540464640E-1,-4.267121792E0,1.873576880E0
4.628040157E0,-9.665690660E-1,-4.077988148E0,1.966946721E0
4.630518177E0,-1.093456388E0,-3.888854027E0,2.122563124E0
4.632996980E0,-1.105426788E0,-3.745208263E0,2.189597845E0
4.635475834E0,-1.158097148E0,-3.627897263E0,2.220721245E0
4.637953855E0,-1.062333107E0,-3.651838303E0,2.101016283E0
4.640431875E0,-1.047968507E0,-3.673385382E0,2.012434483E0
4.642910677E0,-1.088668227E0,-3.584803581E0,2.127351284E0
4.645389532E0,-1.043180346E0,-3.493827820E0,2.196780205E0
4.647867500E0,-1.091062188E0,-3.498615980E0,2.321273327E0
4.650345521E0,-1.126973748E0,-3.584803581E0,2.357184649E0
4.652824375E0,-1.249072790E0,-3.635079861E0,2.476889849E0
4.655303177E0,-1.395112872E0,-3.694931984E0,2.582230091E0
4.657781198E0,-1.517211795E0,-3.728449583E0,2.625323772E0
4.660259219E0,-1.634522676E0,-3.754784584E0,2.677994013E0
4.662738073E0,-1.787744999E0,-3.812242985E0,2.579835892E0
4.665216875E0,-1.744651198E0,-4.142628670E0,2.275785446E0
4.667694896E0,-2.039125443E0,-3.975041866E0,2.043557882E0
4.670172917E0,-2.446122169E0,-3.764361143E0,2.419431210E0
4.672651771E0,-2.699896812E0,-3.668596983E0,2.496042490E0
4.675130573E0,-2.860301256E0,-3.630291700E0,2.383519650E0
4.677608594E0,-3.073375940E0,-3.690144062E0,2.160868645E0
4.680086615E0,-3.288845062E0,-3.749996424E0,1.935823441E0
4.682565417E0,-3.444461584E0,-3.773937225E0,1.806542158E0
4.685044219E0,-3.638383389E0,-3.831395864E0,1.667684436E0
4.687522240E0,-3.851458311E0,-3.946312666E0,1.528826594E0
4.690000261E0,-4.062139034E0,-4.061229229E0,1.409121633E0
4.692479115E0,-4.222543716E0,-4.164175510E0,1.349269271E0
4.694957917E0,-4.363795757E0,-4.319791794E0,1.243928909E0
4.697435938E0,-4.447589397E0,-4.470620155E0,1.162529469E0
4.699913959E0,-4.502653122E0,-4.635813236E0,1.057189226E0
4.702392813E0,-4.562505722E0,-4.791429520E0,9.757898450E-1
4.704871615E0,-4.560111523E0,-4.990139484E0,8.872081637E-1
4.707349636E0,-4.512229919E0,-5.167303085E0,7.555327415E-1
4.709827657E0,-4.418859482E0,-5.296584129E0,7.076507807E-1
4.712306511E0,-4.222543716E0,-5.619787693E0,4.490880966E-1
4.714785313E0,-3.963980913E0,-6.017208099E0,3.222008646E-1
4.717263334E0,-4.153114796E0,-5.899897099E0,3.652946353E-1
4.719741355E0,-4.165085316E0,-5.959749699E0,3.054421544E-1
4.722220157E0,-3.894551992E0,-6.062695980E0,1.594021320E-1
4.724699011E0,-3.679082870E0,-6.266193867E0,-1.776117459E-2
4.727177032E0,-3.449249506E0,-6.486451149E0,-1.254956126E-1
4.729655052E0,-3.202657461E0,-6.658826828E0,-2.332300693E-1
4.732133855E0,-2.922547817E0,-6.852748394E0,-3.002648056E-1
4.734612657E0,-2.584980011E0,-7.029911518E0,-3.218117058E-1
4.737090677E0,-2.233047485E0,-7.175951481E0,-4.415166378E-1
4.739568698E0,-1.830838919E0,-7.400997162E0,-5.755861998E-1
4.742047552E0,-1.050362587E0,-8.054585457E0,-1.468585014E0
4.744526355E0,-9.426282644E-1,-7.896575451E0,-1.391973853E0
4.747004375E0,-3.776208460E-1,-7.886999130E0,-1.470979095E0
4.749482396E0,1.083811671E-1,-8.191049576E0,-1.736724138E0
4.751961250E0,5.010133386E-1,-8.564528465E0,-2.002469063E0
4.754440052E0,9.487098455E-1,-8.988283157E0,-2.545929432E0
4.756918073E0,1.374859452E0,-9.373733521E0,-3.175577402E0
4.759396094E0,1.851284981E0,-9.833400726E0,-3.877048254E0
4.761874896E0,2.354045868E0,-1.036728477E1,-4.655130863E0
4.764353750E0,2.720343113E0,-1.102087402E1,-5.526582718E0
4.766831719E0,3.199162722E0,-1.165052128E1,-6.625473499E0
4.769309740E0,3.783322811E0,-1.236635780E1,-7.930257797E0
4.771788594E0,4.513522625E0,-1.300318718E1,-9.414598465E0
4.774267396E0,4.956430912E0,-1.351791859E1,-1.059967804E1
4.776745417E0,5.540590763E0,-1.411883736E1,-1.174884510E1
4.779223438E0,6.203756332E0,-1.474609184E1,-1.267536068E1
4.781702292E0,7.436717510E0,-1.523448753E1,-1.346062565E1
4.784181094E0,8.825294495E0,-1.567739582E1,-1.387241077E1
4.786659115E0,1.040779400E1,-1.602214622E1,-1.376228142E1
4.789137136E0,1.173651886E1,-1.631183243E1,-1.327388573E1
4.791615990E0,1.301257324E1,-1.655124283E1,-1.252932072E1
4.794094792E0,1.414498138E1,-1.686487007E1,-1.165308094E1
4.796572813E0,1.506670952E1,-1.703964043E1,-1.069065285E1
4.799050834E0,1.537554836E1,-1.704203415E1,-9.819200516E0
4.801529636E0,1.516726208E1,-1.696781731E1,-8.792132378E0
4.804008490E0,1.472674751E1,-1.675474167E1,-7.853646755E0
4.806486511E0,1.404682350E1,-1.651533127E1,-7.135416508E0
4.808964532E0,1.281625652E1,-1.607481766E1,-6.625473499E0
4.811443334E0,1.134628105E1,-1.543559170E1,-6.338182449E0
4.813922136E0,1.001037407E1,-1.466469288E1,-6.093984127E0
4.816400157E0,8.779807091E0,-1.375254059E1,-5.801903725E0
4.818878177E0,7.621062756E0,-1.282123661E1,-5.519400120E0
4.821357032E0,6.562871456E0,-1.194020748E1,-5.102827072E0
4.823835834E0,5.535802841E0,-1.118846035E1,-4.537819862E0
4.826313855E0,4.470428944E0,-1.036967850E1,-4.025482655E0
4.828791875E0,3.347596884E0,-9.634690285E0,-3.659185171E0
4.831270730E0,2.289405107E0,-8.988283157E0,-3.134877682E0
4.833749532E0,1.322189331E0,-8.416094780E0,-2.524382591E0
4.836227552E0,3.621556163E-1,-7.915728092E0,-1.971345663E0
4.838705573E0,-5.284491777E-1,-7.456060886E0,-1.492525935E0
4.841184427E0,-1.383142352E0,-7.063428879E0,-9.921593666E-1
4.843663230E0,-2.163618565E0,-6.721073151E0,-5.348864794E-1
4.846141250E0,-2.774113655E0,-6.421810627E0,-1.398602128E-1
4.848619271E0,-3.286450624E0,-6.194371223E0,2.144664079E-1
4.851098073E0,-3.693447828E0,-6.060301781E0,5.831576586E-1
4.853576927E0,-3.980739355E0,-6.017208099E0,8.512967229E-1
4.856054896E0,-4.186632156E0,-6.115365982E0,9.853662252E-1
4.858532917E0,-4.306337357E0,-6.294923782E0,1.057189226E0
4.861011771E0,-4.260848999E0,-6.584609509E0,1.059583306E0
4.863490573E0,-4.062139034E0,-6.900630474E0,9.614251852E-1
4.865968594E0,-3.676688910E0,-7.271715641E0,7.220153213E-1
4.868446615E0,-3.228992462E0,-7.819963932E0,4.299352765E-1
4.870925469E0,-2.599344492E0,-8.490311623E0,9.954966605E-2
4.873404271E0,-1.912238121E0,-9.431192398E0,-2.811120152E-1
4.875882292E0,-1.150914669E0,-1.059233093E1,-6.545914412E-1
4.878360313E0,-2.746746242E-1,-1.208146000E1,-1.073558688E0
4.880839167E0,7.452114820E-1,-1.381957531E1,-1.420702934E0
4.883317969E0,2.069148064E0,-1.555769062E1,-1.528437495E0
4.885795990E0,3.747411251E0,-1.725271416E1,-1.753482699E0
4.888274011E0,5.708177567E0,-1.901477051E1,-2.110203505E0
4.890752813E0,7.865260601E0,-2.074331093E1,-2.541141272E0
4.893231615E0,1.009656048E1,-2.223004532E1,-2.852374077E0
4.895709636E0,1.219618607E1,-2.319486618E1,-2.770974636E0
4.898187657E0,1.407794666E1,-2.350370598E1,-2.277790546E0
4.900666511E0,1.565565777E1,-2.288842201E1,-1.423097134E0
4.903145313E0,1.667554474E1,-2.144478035E1,-4.079992771E-1
4.905623334E0,1.657738686E1,-1.967793655E1,5.424579382E-1
4.908101355E0,1.503319263E1,-1.795178986E1,7.531386614E-1
4.910580209E0,1.248347759E1,-1.657039642E1,1.258847415E-1
4.913059011E0,9.536341667E0,-1.516027069E1,-6.210740805E-1
4.915537032E0,6.608359337E0,-1.372141743E1,-1.365638733E0
4.918015052E0,3.730652571E0,-1.222271156E1,-1.966557503E0
4.920493907E0,1.109114408E0,-1.064500046E1,-2.363977909E0
4.922972709E0,-1.210767269E0,-8.997860909E0,-2.371160269E0
4.925450730E0,-3.518678427E0,-7.568583965E0,-1.686447978E0
4.927928750E0,-5.651820660E0,-6.369140625E0,-4.510930181E-1
4.930407552E0,-7.363601208E0,-5.392348289E0,7.315917611E-1
4.932886407E0,-8.828788757E0,-4.654965401E0,1.471368313E0
4.935364375E0,-9.942045212E0,-4.152204990E0,1.734719157E0
4.937842396E0,-1.080392075E1,-3.927159786E0,1.751477718E0
4.940321250E0,-1.137850475E1,-3.869701385E0,1.433062673E0
4.942800052E0,-1.174001408E1,-4.054047108E0,7.244094610E-1
4.945278073E0,-1.186690140E1,-4.396402836E0,-9.437234700E-2
4.947756094E0,-1.180944252E1,-4.870434761E0,-9.466714859E-1
4.950234948E0,-1.160833836E1,-5.387559891E0,-1.746300459E0
4.952713750E0,-1.140005207E1,-5.904685020E0,-2.213149786E0
4.955191771E0,-1.120852375E1,-6.302105427E0,-2.249061346E0
4.957669792E0,-1.109121323E1,-6.692343712E0,-1.959375262E0
4.960148646E0,-1.087813854E1,-7.020335674E0,-1.463796854E0
4.962627448E0,-1.050465965E1,-7.326780319E0,-1.061588287E0
4.965105469E0,-9.970775604E0,-7.537460804E0,-8.054196835E-1
4.967583490E0,-9.336338043E0,-7.697865009E0,-3.984228671E-1
4.970062292E0,-8.610926628E0,-7.697865009E0,1.665844321E-1
4.972541146E0,-7.868756294E0,-7.654771805E0,8.800258636E-1
4.975019115E0,-7.126585484E0,-7.700259686E0,1.612620115E0
4.977497136E0,-6.312591553E0,-7.760112286E0,2.342820168E0
4.979975990E0,-5.436351776E0,-7.875028610E0,2.970073938E0
4.982454792E0,-4.596023083E0,-8.090497017E0,3.393829584E0
4.984932813E0,-3.786817312E0,-8.435247421E0,3.647603989E0
4.987410834E0,-3.020705938E0,-8.940402031E0,3.863073111E0
4.989889688E0,-2.388663769E0,-9.605961800E0,4.021083355E0
4.992368490E0,-1.816474199E0,-1.038883114E1,3.877437592E0
4.994846511E0,-1.208373070E0,-1.117170143E1,3.544657707E0
4.997324532E0,-5.619665384E-1,-1.192344856E1,3.116113901E0
4.999803386E0,2.065392137E-1,-1.265604401E1,2.663629532E0
5.002282188E0,9.127982855E-1,-1.340060806E1,2.187203646E0
5.004760209E0,1.631028056E0,-1.412362576E1,1.641349316E0
5.007238230E0,2.200823545E0,-1.479157925E1,1.136194348E0
5.009717084E0,2.758648634E0,-1.528476334E1,7.675032020E-1
5.012195886E0,3.282956123E0,-1.563909054E1,5.280933380E-1
5.014673907E0,3.752199650E0,-1.591919994E1,4.036002159E-1
5.017151927E0,4.183136940E0,-1.608439255E1,3.748710454E-1
5.019630730E0,4.496763706E0,-1.618255043E1,2.910775840E-1
5.022109532E0,4.776873112E0,-1.606045151E1,2.958657742E-1
5.024587552E0,5.030647755E0,-1.580188847E1,4.251471162E-1
5.027065573E0,5.339486599E0,-1.534940434E1,4.275411963E-1
5.029544427E0,5.636354923E0,-1.466708660E1,3.317772746E-1
5.032023230E0,5.887735367E0,-1.388182163E1,2.910775840E-1
5.034501250E0,5.964346409E0,-1.311331654E1,2.910775840E-1
5.036979271E0,6.024199009E0,-1.234720421E1,2.455896884E-1
5.039458125E0,6.048139572E0,-1.160503387E1,2.599542737E-1
5.041936927E0,6.172633171E0,-1.088441086E1,3.341713548E-1
5.044414948E0,6.277973175E0,-1.028588581E1,4.873936772E-1
5.046892969E0,6.337825775E0,-9.708908081E0,5.927340388E-1
5.049371771E0,6.230091095E0,-9.165447235E0,7.291976213E-1
5.051850625E0,6.064898968E0,-8.751268387E0,9.015727639E-1
5.054328646E0,5.866188526E0,-8.423276901E0,1.085918427E0
5.056806667E0,5.672266483E0,-8.205413818E0,1.344480991E0
5.059285469E0,5.483132839E0,-8.049797058E0,1.667684436E0
5.061764271E0,5.186264515E0,-7.980369091E0,2.026798964E0
5.064242292E0,4.709838867E0,-7.982763290E0,2.409855127E0
5.066720313E0,4.185531139E0,-8.025856018E0,2.651659012E0
