"Time (s)","Acceleration x (m/s^2)","Acceleration y (m/s^2)","Acceleration z (m/s^2)"
0.000000000E0,-1.599999964E-1,8.307999611E0,2.071000099E0
2.500001000E-3,-1.019999981E-1,8.197999954E0,2.099999905E0
5.000002000E-3,-1.140000001E-1,8.223999977E0,2.052000046E0
7.500003000E-3,-2.099999934E-1,8.168999672E0,1.991999984E0
1.000000400E-2,-1.430000067E-1,8.107000351E0,1.929999948E0
1.250000500E-2,-1.099999994E-1,8.137999535E0,1.998999953E0
1.500000600E-2,-2.409999967E-1,8.121000290E0,2.105000019E0
1.750000700E-2,-2.680000067E-1,8.114000320E0,2.059000015E0
2.000000800E-2,-2.649999857E-1,8.085000038E0,2.186000109E0
2.250000900E-2,-4.070000052E-1,8.178000450E0,2.250999928E0
2.500001000E-2,-2.960000038E-1,8.055999756E0,2.308000088E0
2.750001100E-2,-3.370000124E-1,8.043999672E0,2.283999920E0
3.000001200E-2,-3.129999936E-1,8.204999924E0,2.380000114E0
3.250001300E-2,-2.409999967E-1,8.121000290E0,2.319999933E0
3.500001400E-2,-1.529999971E-1,8.234000206E0,2.346999884E0
3.750000000E-2,-1.889999956E-1,8.213999748E0,2.450000048E0
4.000000100E-2,-1.400000043E-2,8.225999832E0,2.335000038E0
4.250000200E-2,3.299999982E-2,8.260000229E0,2.351000071E0
4.500000300E-2,-4.699999839E-2,8.222000122E0,2.346999884E0
4.750000400E-2,1.600000076E-2,8.303000450E0,2.414000034E0
5.000000500E-2,1.400000043E-2,8.317000389E0,2.483000040E0
5.250000600E-2,-5.200000107E-2,8.260000229E0,2.427999973E0
5.500000700E-2,-1.070000008E-1,8.345999718E0,2.476000071E0
5.750000800E-2,2.800000086E-2,8.331999779E0,2.375000000E0
6.000000900E-2,8.999999613E-3,8.326999664E0,2.450000048E0
6.250001000E-2,-1.400000043E-2,8.394000053E0,2.552999973E0
6.500001100E-2,-2.300000004E-2,8.394000053E0,2.526000023E0
6.750001200E-2,1.600000076E-2,8.418000221E0,2.720000029E0
7.000001300E-2,5.200000107E-2,8.369999886E0,2.730000019E0
7.250001400E-2,-1.600000076E-2,8.411000252E0,2.786999941E0
7.500000000E-2,4.699999839E-2,8.482999802E0,2.845000029E0
7.750000100E-2,-5.200000107E-2,8.456000328E0,2.857000113E0
8.211323100E-2,-9.099999815E-2,8.307999611E0,2.894999981E0
8.460123100E-2,-9.499999881E-2,8.300999641E0,2.997999907E0
8.708923100E-2,-3.299999982E-2,8.343999863E0,2.924000025E0
8.957723100E-2,1.899999939E-2,8.357999802E0,2.964999914E0
9.206522100E-2,1.430000067E-1,8.416000366E0,3.040999889E0
9.455322100E-2,2.249999940E-1,8.388999939E0,2.993000031E0
9.704122100E-2,2.150000036E-1,8.435000420E0,3.084000111E0
9.952922100E-2,3.490000069E-1,8.565999985E0,3.075000048E0
1.020174520E-1,4.709999859E-1,8.510999680E0,2.969000101E0
1.045054660E-1,5.220000148E-1,8.491999626E0,3.032000065E0
1.069934660E-1,6.769999862E-1,8.538000107E0,2.943000078E0
1.094815430E-1,7.039999962E-1,8.472999573E0,2.684000015E0
1.119694660E-1,8.259999752E-1,8.482999802E0,2.644000053E0
1.144574660E-1,8.659999967E-1,8.532999992E0,2.572000027E0
1.169455570E-1,9.120000005E-1,8.411000252E0,2.493000031E0
1.194335570E-1,8.330000043E-1,8.352999687E0,2.628999949E0
1.219214800E-1,7.319999933E-1,8.237999916E0,2.720000029E0
1.244094800E-1,5.479999781E-1,8.102000237E0,2.750999928E0
1.268974800E-1,4.210000038E-1,8.034999847E0,2.688999891E0
1.293855570E-1,4.930000007E-1,7.895999908E0,2.529000044E0
1.318735570E-1,4.639999866E-1,7.795000076E0,2.391999960E0
1.343615570E-1,4.230000079E-1,7.684999943E0,2.107000113E0
1.368495570E-1,5.429999828E-1,7.644000053E0,2.046999931E0
1.393375570E-1,7.400000095E-1,7.537000179E0,1.843999982E0
1.418255760E-1,7.779999971E-1,7.465000153E0,1.707000017E0
1.443135760E-1,8.019999862E-1,7.495999813E0,1.735999942E0
1.468015760E-1,7.319999933E-1,7.368999958E0,1.518000007E0
1.492895760E-1,5.910000205E-1,7.381000042E0,1.412999988E0
1.517775760E-1,3.589999974E-1,7.282999992E0,1.444000006E0
1.542658020E-1,1.770000011E-1,7.282999992E0,1.730999947E0
1.567538020E-1,8.299999684E-2,7.217999935E0,1.879999995E0
1.592418020E-1,-1.190000027E-1,7.140999794E0,2.247999907E0
1.617298020E-1,-1.739999950E-1,7.186999798E0,2.289000034E0
1.642178790E-1,-2.409999967E-1,7.231999874E0,2.434999943E0
1.667058300E-1,-1.860000044E-1,7.193999767E0,2.171999931E0
1.691938300E-1,-1.000000015E-1,7.224999905E0,2.226999998E0
1.716818300E-1,-6.899999827E-2,7.217999935E0,2.071000099E0
1.741698300E-1,5.700000003E-2,7.236999989E0,2.045000076E0
1.766579070E-1,1.500000060E-1,7.291999817E0,1.820000052E0
1.791458930E-1,3.059999943E-1,7.416999817E0,1.547000051E0
1.816338930E-1,3.059999943E-1,7.449999809E0,1.365000010E0
1.841218160E-1,3.300000131E-1,7.446000099E0,1.314000010E0
1.866098930E-1,2.220000029E-1,7.394999981E0,1.424999952E0
1.890978930E-1,1.889999956E-1,7.379000187E0,1.633000016E0
1.915861190E-1,1.120000035E-1,7.291999817E0,2.121000051E0
1.940741190E-1,6.199999899E-2,7.347000122E0,2.520999908E0
1.965621190E-1,-7.900000364E-2,7.337999821E0,2.861999989E0
1.990501190E-1,-1.379999965E-1,7.307000160E0,3.253999949E0
2.015381190E-1,-4.300000146E-2,7.314000130E0,3.489000082E0
2.040261330E-1,0.000000000E0,7.288000107E0,3.654000044E0
2.065141330E-1,1.239999980E-1,7.352000237E0,3.799999952E0
2.090021330E-1,3.059999943E-1,7.405000210E0,3.937000036E0
2.114901330E-1,5.960000157E-1,7.472000122E0,3.960999966E0
2.139782090E-1,6.679999828E-1,7.505000114E0,3.903000116E0
2.164662100E-1,8.690000176E-1,7.598999977E0,3.717000008E0
2.189541330E-1,1.129999995E0,7.653999805E0,3.630000114E0
2.214421330E-1,1.110999942E0,7.684999943E0,3.555999994E0
2.239302100E-1,9.929999709E-1,7.525000095E0,3.641999960E0
2.264182100E-1,7.519999743E-1,7.495999813E0,3.744999886E0
2.289061330E-1,3.829999864E-1,7.175000191E0,3.845999956E0
2.313944400E-1,3.299999982E-2,6.994999886E0,3.913000107E0
2.338822100E-1,-2.770000100E-1,6.900000095E0,3.927000046E0
2.363702100E-1,-4.550000131E-1,6.629000187E0,4.117000103E0
2.388582100E-1,-4.140000045E-1,6.710000038E0,4.072999954E0
2.413464400E-1,-1.410000026E-1,6.776999950E0,3.792999983E0
2.438342100E-1,1.959999949E-1,6.900000095E0,3.349999905E0
2.463222100E-1,5.860000253E-1,6.954999924E0,2.828000069E0
2.488104400E-1,7.919999957E-1,6.940000057E0,2.578999996E0
2.512984400E-1,9.580000043E-1,6.908999920E0,2.516999960E0
2.537864400E-1,1.055999994E0,6.914000034E0,2.505000114E0
2.562744400E-1,1.230999947E0,6.863999844E0,2.538000107E0
2.587624400E-1,1.218999982E0,6.855999947E0,2.624000072E0
2.612504400E-1,1.271000028E0,6.769999981E0,2.802000046E0
2.637385170E-1,1.447999954E0,6.763000011E0,2.875999928E0
2.662264110E-1,1.476999998E0,6.712999821E0,3.084000111E0
2.687144880E-1,1.651999950E0,6.690999985E0,3.233000040E0
2.712024880E-1,1.743000031E0,6.538000107E0,3.296999931E0
2.736904880E-1,1.978000045E0,6.531000137E0,3.198999882E0
2.761787190E-1,2.003999949E0,6.492000103E0,3.209000111E0
2.786665070E-1,2.203000069E0,6.394000053E0,3.171000004E0
2.811545070E-1,2.246000051E0,6.418000221E0,2.861999989E0
2.836425070E-1,2.125999928E0,6.448999882E0,2.519000053E0
2.861307380E-1,1.876999974E0,6.241000175E0,2.221999884E0
2.886187380E-1,1.764999986E0,6.250999928E0,2.098000050E0
2.911067230E-1,1.547000051E0,5.914999962E0,1.815000057E0
2.935944920E-1,1.383999944E0,5.776000023E0,1.769000053E0
2.960827230E-1,1.333999991E0,5.597000122E0,1.705000043E0
2.985707230E-1,1.233000040E0,5.330999851E0,1.465000033E0
3.010587230E-1,1.108000040E0,5.284999847E0,1.356999993E0
3.035467190E-1,1.258999944E0,5.314000130E0,1.197000027E0
3.060347960E-1,1.549000025E0,5.462999821E0,7.829999924E-1
3.085227960E-1,1.575000048E0,5.635000229E0,2.129999995E-1
3.110107960E-1,1.511000037E0,5.683000088E0,-2.919999957E-1
3.134987960E-1,1.345999956E0,5.635000229E0,-6.200000048E-1
3.159868000E-1,8.379999995E-1,5.477000237E0,-5.649999976E-1
3.184748000E-1,4.790000021E-1,5.270999908E0,-4.810000062E-1
3.209628000E-1,-5.900000036E-2,5.118000031E0,-1.599999964E-1
3.234510310E-1,-4.280000031E-1,4.998000145E0,2.870000005E-1
3.259390310E-1,-6.529999971E-1,4.894999981E0,9.139999747E-1
3.284267810E-1,-8.109999895E-1,4.927999973E0,1.251999974E0
3.309150120E-1,-8.349999785E-1,5.052999973E0,1.753000021E0
3.334030120E-1,-5.789999962E-1,5.131999969E0,1.656999946E0
3.358910120E-1,-4.639999866E-1,5.315999985E0,1.991999984E0
3.383790120E-1,-1.070000008E-1,5.465000153E0,2.101999998E0
3.408669880E-1,1.889999956E-1,5.703999996E0,2.453999996E0
3.433549880E-1,4.760000110E-1,5.883999825E0,2.469000101E0
3.458430650E-1,6.010000110E-1,6.116000175E0,2.519000053E0
3.483309880E-1,6.869999766E-1,6.336999893E0,2.680000067E0
3.508190650E-1,6.610000134E-1,6.346000195E0,2.950000048E0
3.533070510E-1,5.460000038E-1,6.480000019E0,3.209000111E0
3.557950510E-1,4.449999928E-1,6.557000160E0,3.604000092E0
3.582830510E-1,2.960000038E-1,6.580999851E0,4.034999847E0
3.607712820E-1,1.860000044E-1,6.583000183E0,4.403999805E0
3.632592820E-1,1.459999979E-1,6.684000015E0,4.824999809E0
3.657470260E-1,1.700000018E-1,6.730000019E0,4.967000008E0
3.682350260E-1,2.870000005E-1,6.836999893E0,4.964000225E0
3.707232570E-1,3.109999895E-1,6.870999813E0,4.967000008E0
3.732112570E-1,3.540000021E-1,6.888000011E0,4.875999928E0
3.756990260E-1,6.250000000E-1,6.934999943E0,4.780000210E0
3.781872670E-1,7.590000033E-1,6.947000027E0,4.564000130E0
3.806752670E-1,9.840000272E-1,7.089000225E0,4.520999908E0
3.831632670E-1,1.187000036E0,7.131999969E0,4.460999966E0
3.856512670E-1,1.161000013E0,7.098000050E0,4.343999863E0
3.881393440E-1,1.373999953E0,7.156000137E0,4.348999977E0
3.906273060E-1,1.350000024E0,7.103000164E0,4.287000179E0
3.931153060E-1,1.251999974E0,7.137000084E0,4.643000126E0
3.956033060E-1,1.182999969E0,7.209000111E0,4.757999897E0
3.980913060E-1,1.171000004E0,7.137000084E0,4.710999966E0
4.005795360E-1,1.233000040E0,7.157999992E0,4.670000076E0
4.030673110E-1,1.277999997E0,7.091000080E0,4.572000027E0
4.055553110E-1,1.258999944E0,7.017000198E0,4.368000031E0
4.080433110E-1,1.404999971E0,6.931000233E0,4.199999809E0
4.105315420E-1,1.419999957E0,6.813000202E0,4.109000206E0
4.130193110E-1,1.536999941E0,6.705999851E0,3.887000084E0
4.155072970E-1,1.422000051E0,6.598000050E0,3.717000008E0
4.179955280E-1,1.304999948E0,6.500000000E0,3.572999954E0
4.204835280E-1,1.118000031E0,6.264999866E0,3.471999884E0
4.229715280E-1,1.001000047E0,6.008999825E0,3.335999966E0
4.254596040E-1,9.480000138E-1,5.901000023E0,3.217999935E0
4.279475280E-1,9.120000005E-1,5.699999809E0,3.190000057E0
4.304356040E-1,7.950000167E-1,5.611000061E0,2.937999964E0
4.329236040E-1,8.230000138E-1,5.556000233E0,2.875999928E0
4.354116040E-1,8.780000210E-1,5.521999836E0,3.078999996E0
4.378996040E-1,8.999999762E-1,5.519999981E0,2.971999884E0
4.403876040E-1,8.230000138E-1,5.460000038E0,3.141999960E0
4.428756050E-1,8.140000105E-1,5.541999817E0,3.357000113E0
4.453638350E-1,6.990000010E-1,5.604000092E0,3.359999895E0
4.478518350E-1,7.519999743E-1,5.702000141E0,3.489000082E0
4.503396050E-1,7.129999995E-1,5.864999771E0,3.546999931E0
4.528276190E-1,1.008000016E0,5.962999821E0,3.305000067E0
4.553158490E-1,1.146999955E0,6.138000011E0,2.971999884E0
4.578038490E-1,1.383999944E0,6.464000225E0,2.414000034E0
4.602918490E-1,1.680999994E0,6.736999989E0,2.063999891E0
4.627799260E-1,1.518000007E0,6.757999897E0,1.879999995E0
4.652679260E-1,1.269000053E0,6.710000038E0,2.207999945E0
4.677558490E-1,8.330000043E-1,6.501999855E0,2.502000093E0
4.702439260E-1,5.099999905E-1,6.203000069E0,2.849999905E0
4.727319260E-1,2.770000100E-1,6.046999931E0,2.936000109E0
4.752199260E-1,9.099999815E-2,5.828999996E0,2.884999990E0
4.777079170E-1,1.600000076E-2,5.828999996E0,2.756000042E0
4.801961480E-1,8.100000024E-2,5.867000103E0,2.726999998E0
4.826839170E-1,2.220000029E-1,5.925000191E0,2.502000093E0
4.851719170E-1,2.529999912E-1,5.992000103E0,2.269999981E0
4.876599170E-1,1.889999956E-1,5.929999828E0,2.267999887E0
4.901479260E-1,1.909999996E-1,5.874000072E0,2.236000061E0
4.926361570E-1,9.799999744E-2,5.960999966E0,2.276999950E0
4.951241570E-1,-1.410000026E-1,5.921999931E0,2.548000097E0
4.976121570E-1,-3.470000029E-1,6.046999931E0,2.792000055E0
5.001002340E-1,-5.479999781E-1,6.111999989E0,2.926000118E0
5.025881610E-1,-6.029999852E-1,6.271999836E0,3.086999893E0
5.050761610E-1,-4.930000007E-1,6.413000107E0,3.015000105E0
5.075642380E-1,-4.350000024E-1,6.677000046E0,2.950000048E0
5.100522380E-1,-3.470000029E-1,6.836999893E0,2.815999985E0
5.125402380E-1,-4.639999866E-1,6.859000206E0,2.657999992E0
5.150282150E-1,-5.410000086E-1,6.961999893E0,2.657999992E0
5.175164460E-1,-7.950000167E-1,6.921000004E0,2.773000002E0
5.200044460E-1,-1.156000018E0,6.885000229E0,2.714999914E0
5.224922150E-1,-1.322000027E0,6.859000206E0,2.858999968E0
5.249802150E-1,-1.519999981E0,6.870999813E0,3.130000114E0
5.274684550E-1,-1.786000013E0,6.882999897E0,3.217999935E0
5.299564550E-1,-1.894000053E0,7.031000137E0,3.450999975E0
5.324444550E-1,-1.779000044E0,6.994999886E0,3.507999897E0
5.349324550E-1,-1.784000039E0,7.151000023E0,3.630000114E0
5.374205320E-1,-1.680999994E0,7.303999901E0,3.733000040E0
5.399084790E-1,-1.587000012E0,7.236999989E0,3.844000101E0
5.423964790E-1,-1.498999953E0,7.309000015E0,3.903000116E0
5.448845560E-1,-1.472000003E0,7.368999958E0,4.052000046E0
5.473725560E-1,-1.376999974E0,7.438000202E0,4.139999866E0
5.498605560E-1,-1.366999984E0,7.532000065E0,4.315000057E0
5.523485750E-1,-1.174999952E0,7.500999928E0,4.361000061E0
5.548368060E-1,-1.105999947E0,7.525000095E0,4.473000050E0
5.573245750E-1,-9.219999909E-1,7.585000038E0,4.539999962E0
5.598128060E-1,-6.800000072E-1,7.612999916E0,4.520999908E0
5.623005750E-1,-4.740000069E-1,7.769000053E0,4.501999855E0
5.647888150E-1,-1.700000018E-1,7.822000027E0,4.006000042E0
5.672768150E-1,1.700000018E-1,7.967999935E0,3.400000095E0
5.697648150E-1,1.410000026E-1,8.173999786E0,2.663000107E0
5.722528150E-1,-6.400000304E-2,8.024999619E0,2.003999949E0
5.747408920E-1,-3.829999864E-1,7.776000023E0,1.759999990E0
5.772288150E-1,-9.810000062E-1,7.481999874E0,1.562999964E0
5.797168150E-1,-1.536999941E0,7.054999828E0,1.628000021E0
5.822048920E-1,-1.947000027E0,6.854000092E0,1.942000031E0
5.846928920E-1,-2.433000088E0,6.736999989E0,2.125999928E0
5.871808920E-1,-2.680000067E0,6.719999790E0,2.319999933E0
5.896689110E-1,-2.726999998E0,6.842000008E0,2.483000040E0
5.921571410E-1,-2.815999985E0,6.921000004E0,2.447000027E0
5.946449110E-1,-2.691999912E0,7.012000084E0,2.628999949E0
5.971329110E-1,-2.714999914E0,7.157999992E0,2.473999977E0
5.996209110E-1,-2.628999949E0,7.318999767E0,2.430000067E0
6.021091220E-1,-2.572000027E0,7.544000149E0,2.490000010E0
6.045971220E-1,-2.500000000E0,7.718999863E0,2.671999931E0
6.070851220E-1,-2.520999908E0,7.816999912E0,2.953000069E0
6.095731220E-1,-2.513999939E0,7.953000069E0,3.266000032E0
6.120611990E-1,-2.441999912E0,8.109000206E0,3.585000038E0
6.145491080E-1,-2.451999903E0,8.237999916E0,3.944000006E0
6.170371080E-1,-2.315000057E0,8.300999641E0,4.041999817E0
6.195251850E-1,-2.204999924E0,8.484999657E0,4.308000088E0
6.220131850E-1,-1.968000054E0,8.635999680E0,4.505000114E0
6.245011850E-1,-1.883999944E0,8.762999535E0,4.757999897E0
6.269891700E-1,-1.743000031E0,9.055000305E0,4.933000088E0
6.294771700E-1,-1.634999990E0,9.184000015E0,4.968999863E0
6.319654010E-1,-1.518000007E0,9.335000038E0,5.058000088E0
6.344531700E-1,-1.220999956E0,9.479000092E0,4.868999958E0
6.369411700E-1,-1.062999964E0,9.649000168E0,4.564000130E0
6.394293870E-1,-1.016999960E0,9.675000191E0,4.211999893E0
6.419173870E-1,-1.103999972E0,9.670999527E0,4.022999763E0
6.444053870E-1,-1.266000032E0,9.397999763E0,3.671000004E0
6.468933870E-1,-1.601999998E0,9.097999573E0,3.582000017E0
6.493813870E-1,-1.860000014E0,8.942999840E0,3.743000031E0
6.518694690E-1,-2.196000099E0,8.859000206E0,3.711999893E0
6.543573920E-1,-2.480999947E0,8.597999573E0,3.614000082E0
6.568454690E-1,-2.779999971E0,8.489999771E0,3.471999884E0
6.593334690E-1,-2.828000069E0,8.364999771E0,3.348000050E0
6.618214690E-1,-2.851999998E0,8.170999527E0,3.098999977E0
6.643097140E-1,-2.858999968E0,8.114000320E0,2.865999937E0
6.667977140E-1,-2.760999918E0,8.071000099E0,2.585999966E0
6.692857140E-1,-2.809000015E0,8.095000267E0,2.581000090E0
6.717734830E-1,-2.930999994E0,8.012999535E0,2.397000074E0
6.742617140E-1,-3.012000084E0,8.059000015E0,2.648000002E0
6.767497280E-1,-3.039000034E0,8.114000320E0,2.799000025E0
6.792377280E-1,-3.039000034E0,8.182999611E0,2.918999910E0
6.817257280E-1,-3.012000084E0,8.243000031E0,3.119999886E0
6.842137280E-1,-2.960000038E0,8.338999748E0,3.112999916E0
6.867018050E-1,-2.861999989E0,8.456000328E0,3.141999960E0
6.891897570E-1,-2.688999891E0,8.550000191E0,3.237999916E0
6.916776800E-1,-2.736999989E0,8.633999825E0,3.230000019E0
6.941657570E-1,-2.671999931E0,8.666999817E0,3.341000080E0
6.966537570E-1,-2.746999979E0,8.748999596E0,3.341000080E0
6.991417570E-1,-2.821000099E0,8.859000206E0,3.151000023E0
7.016299830E-1,-2.940999985E0,8.800999641E0,2.971999884E0
7.041179830E-1,-2.997999907E0,8.812999725E0,2.884999990E0
7.066059830E-1,-3.210999966E0,8.697999954E0,2.713000059E0
7.090937520E-1,-3.161000013E0,8.690999985E0,2.619999886E0
7.115819830E-1,-3.227999926E0,8.534999847E0,2.447000027E0
7.140699830E-1,-3.138999939E0,8.435000420E0,2.214999914E0
7.165580600E-1,-3.112999916E0,8.428000450E0,2.013999939E0
7.190459830E-1,-2.980999947E0,8.295999527E0,1.781000018E0
7.215339830E-1,-2.875999928E0,8.357999802E0,1.412999988E0
7.240220600E-1,-2.908999920E0,8.348999977E0,1.402999997E0
7.265100460E-1,-2.937999964E0,8.401000023E0,1.083999991E0
7.289979690E-1,-2.986000061E0,8.463999748E0,1.003000021E0
7.314860460E-1,-3.144000053E0,8.552000046E0,1.039000034E0
7.339740460E-1,-3.404999971E0,8.748999596E0,9.959999919E-1
7.364622770E-1,-3.701999903E0,8.843999863E0,1.195000052E0
7.389502720E-1,-3.967999935E0,8.986000061E0,1.511000037E0
7.414382720E-1,-4.176000118E0,9.137000084E0,1.779000044E0
7.439262720E-1,-4.275000095E0,9.385999680E0,1.983000040E0
7.464142720E-1,-3.657000065E0,9.750000000E0,2.710999966E0
7.489022720E-1,-3.948999882E0,1.014700031E1,2.778000116E0
7.513903340E-1,-4.290999889E0,1.012600040E1,3.134999990E0
7.538782580E-1,-4.960000038E0,1.034099960E1,3.105999947E0
7.563662580E-1,-5.644999981E0,1.039900017E1,3.009999990E0
7.588542580E-1,-5.736000061E0,1.030500031E1,3.134999990E0
7.613423340E-1,-5.479000092E0,1.029300022E1,3.019999981E0
7.638303480E-1,-5.098000050E0,1.038199997E1,3.313999891E0
7.663183490E-1,-4.585999966E0,1.031000042E1,3.483999968E0
7.688063490E-1,-4.447000027E0,1.050599957E1,3.338000059E0
7.712943490E-1,-4.485000134E0,1.038199997E1,3.348000050E0
7.737825790E-1,-4.666999817E0,1.039900017E1,3.371999979E0
7.762705690E-1,-5.040999889E0,1.040299988E1,3.398000002E0
7.787585690E-1,-5.435999870E0,1.032699966E1,3.378999949E0
7.812465690E-1,-5.644999981E0,1.030300045E1,3.490999937E0
7.837345690E-1,-5.918000221E0,1.027200031E1,3.615999937E0
7.862226460E-1,-5.883999825E0,1.023299980E1,3.772000074E0
7.887106560E-1,-5.894000053E0,1.017599964E1,3.798000097E0
7.911985790E-1,-5.688000202E0,1.024100018E1,3.694999933E0
7.936866560E-1,-5.651999950E0,1.035799980E1,3.604000092E0
7.961746560E-1,-5.632999897E0,1.043700027E1,3.553999901E0
7.986626560E-1,-5.570000172E0,1.050899982E1,3.447999954E0
8.011506660E-1,-5.649000168E0,1.057800007E1,3.532000065E0
8.036386660E-1,-5.790999889E0,1.063599968E1,3.532000065E0
8.061266660E-1,-6.045000076E0,1.069099998E1,3.395999908E0
8.086148970E-1,-6.250999928E0,1.066199970E1,3.253999949E0
8.111028970E-1,-6.441999912E0,1.075599957E1,3.234999895E0
8.135909110E-1,-6.447000027E0,1.096199989E1,3.144000053E0
8.160789880E-1,-6.429999828E0,1.106700039E1,2.944999933E0
8.185669110E-1,-6.376999855E0,1.110799980E1,2.878000021E0
8.210549110E-1,-6.282000065E0,1.112199974E1,2.950000048E0
8.235429880E-1,-6.162000179E0,1.119900036E1,3.072000027E0
8.260310170E-1,-6.339000225E0,1.114099979E1,3.184999943E0
8.285190170E-1,-6.355999947E0,1.107199955E1,3.173000097E0
8.310070170E-1,-6.526000023E0,1.114099979E1,3.217999935E0
8.334952480E-1,-6.859000206E0,1.115999985E1,3.197000027E0
8.359832480E-1,-6.828000069E0,1.125599957E1,3.266000032E0
8.384710260E-1,-6.873000145E0,1.131400013E1,3.266000032E0
8.409590260E-1,-6.901999950E0,1.155099964E1,3.242000103E0
8.434472570E-1,-6.921000004E0,1.164900017E1,3.332999945E0
8.459352570E-1,-6.840000153E0,1.187899971E1,3.694999933E0
8.484232570E-1,-6.822999954E0,1.187399960E1,3.905999899E0
8.509112530E-1,-6.843999863E0,1.206599998E1,4.283999920E0
8.533992530E-1,-6.875999928E0,1.214900017E1,4.564000130E0
8.558873300E-1,-6.959000111E0,1.231700039E1,4.840000153E0
8.583752530E-1,-7.012000084E0,1.238700008E1,4.829999924E0
8.608633300E-1,-7.052999973E0,1.242500019E1,4.967000008E0
8.633513340E-1,-7.002999783E0,1.249199963E1,5.002999783E0
8.658393340E-1,-7.073999882E0,1.261200047E1,4.889999866E0
8.683273340E-1,-6.973999977E0,1.251299953E1,4.952000141E0
8.708155650E-1,-7.006999969E0,1.234799957E1,4.768000126E0
8.733033340E-1,-7.059999943E0,1.236499977E1,4.543000221E0
8.757915460E-1,-7.189000130E0,1.232699966E1,4.342000008E0
8.782793150E-1,-7.276000023E0,1.223999977E1,4.159999847E0
8.807675460E-1,-7.637000084E0,1.212100029E1,4.197999954E0
8.832555460E-1,-7.546000004E0,1.195100021E1,3.984999895E0
8.857435460E-1,-7.374000072E0,1.182900047E1,4.026000023E0
8.882315800E-1,-7.330999851E0,1.172299957E1,3.838999987E0
8.907196570E-1,-7.282999992E0,1.163700008E1,3.707000017E0
8.932075800E-1,-7.228000164E0,1.153899956E1,3.486999989E0
8.956956570E-1,-7.223000050E0,1.152700043E1,3.328999996E0
8.981836570E-1,-7.224999905E0,1.157499981E1,3.331000090E0
9.006718910E-1,-7.168000221E0,1.150300026E1,3.217999935E0
9.031596610E-1,-7.296999931E0,1.163500023E1,3.234999895E0
9.056476610E-1,-7.189000130E0,1.153600025E1,3.269000053E0
9.081358910E-1,-7.073999882E0,1.161800003E1,3.457999945E0
9.106238910E-1,-7.156000137E0,1.156499958E1,3.594000101E0
9.131116810E-1,-6.964000225E0,1.154599953E1,3.658999920E0
9.155999110E-1,-6.964000225E0,1.160299969E1,3.644999981E0
9.180879110E-1,-6.903999805E0,1.160799980E1,3.657000065E0
9.205759110E-1,-7.052999973E0,1.153400040E1,3.697000027E0
9.230639110E-1,-6.980999947E0,1.149800014E1,3.658999920E0
9.255519150E-1,-7.126999855E0,1.157199955E1,3.601999998E0
9.280399920E-1,-7.157999992E0,1.148400021E1,3.565999985E0
9.305279920E-1,-7.186999798E0,1.137100029E1,3.614000082E0
9.330159150E-1,-7.268000126E0,1.127999973E1,3.578000069E0
9.355042230E-1,-7.133999825E0,1.118900013E1,3.582000017E0
9.379919920E-1,-7.223000050E0,1.130399990E1,3.404999971E0
9.404799920E-1,-7.193999767E0,1.128199959E1,3.417000055E0
9.429682230E-1,-7.231999874E0,1.111699963E1,3.209000111E0
9.454562230E-1,-7.407000065E0,1.109300041E1,3.184999943E0
9.479442230E-1,-7.333000183E0,1.111499977E1,3.112999916E0
9.504322380E-1,-7.414000034E0,1.100000000E1,3.187000036E0
9.529202380E-1,-7.447999954E0,1.100000000E1,3.233000040E0
9.554083150E-1,-7.526999950E0,1.098499966E1,3.348000050E0
9.578963150E-1,-7.440999985E0,1.104100037E1,3.357000113E0
9.603842380E-1,-7.477000237E0,1.108399963E1,3.316999912E0
9.628723000E-1,-7.302000046E0,1.117000008E1,3.357000113E0
9.653603000E-1,-7.228000164E0,1.120600033E1,3.367000103E0
9.678483000E-1,-7.073999882E0,1.116300011E1,3.355000019E0
9.703363000E-1,-7.179999828E0,1.112899971E1,3.395999908E0
9.728245310E-1,-7.249000072E0,1.115100002E1,3.506000042E0
9.753125410E-1,-7.344999790E0,1.109099960E1,3.628000021E0
9.778005410E-1,-7.280000210E0,1.101900005E1,3.517999887E0
9.802885410E-1,-7.344999790E0,1.089900017E1,3.608999968E0
9.827766180E-1,-7.479000092E0,1.071000004E1,3.479000092E0
9.852645410E-1,-8.149999619E0,1.047500038E1,2.617000103E0
9.877525500E-1,-8.432000160E0,9.920000076E0,1.623000026E0
9.902405500E-1,-7.577000141E0,9.595999718E0,1.669000030E0
9.927286270E-1,-6.322000027E0,9.520000458E0,1.656999946E0
9.952166270E-1,-4.907000065E0,9.625000000E0,1.626000047E0
9.977046270E-1,-3.515000105E0,9.892999649E0,1.860000014E0
1.000192574E0,-2.767999887E0,1.008699989E1,2.269999981E0
1.002680882E0,-2.390000105E0,1.024300003E1,2.888000011E0
1.005168651E0,-2.653000116E0,1.034399986E1,3.604000092E0
1.007656651E0,-3.946000099E0,1.038899994E1,4.131000042E0
1.010144882E0,-5.356999874E0,1.028600025E1,4.532999992E0
1.012632897E0,-6.392000198E0,1.039099979E1,4.848999977E0
1.015120897E0,-7.197000027E0,1.045899963E1,5.098000050E0
1.017608974E0,-7.660999775E0,1.049699974E1,5.125000000E0
1.020096974E0,-7.767000198E0,1.052799988E1,5.212999821E0
1.022584974E0,-7.920000076E0,1.058800030E1,5.289999962E0
1.025072882E0,-7.703999996E0,1.057400036E1,5.423999786E0
1.027560959E0,-7.660999775E0,1.059500027E1,5.567999840E0
1.030048959E0,-7.842999935E0,1.059300041E1,5.507999897E0
1.032536959E0,-7.789999962E0,1.060700035E1,5.728000164E0
1.035024959E0,-7.886000156E0,1.048299980E1,5.946000099E0
1.037512985E0,-7.849999905E0,1.028899956E1,6.025000095E0
1.040000985E0,-8.274000168E0,1.018799973E1,5.539000034E0
1.042489215E0,-8.204999924E0,1.010599995E1,4.828000069E0
1.044976985E0,-8.963999748E0,9.975000381E0,4.032999992E0
1.047465215E0,-8.923000336E0,9.857000351E0,3.471999884E0
1.049953215E0,-9.107999802E0,9.807000160E0,3.046000004E0
1.052441215E0,-9.067000389E0,9.473999977E0,3.012000084E0
1.054929292E0,-9.057000160E0,9.093000412E0,2.822999954E0
1.057417292E0,-9.237000465E0,8.786999702E0,2.822999954E0
1.059905216E0,-9.083999634E0,8.784000397E0,3.173000097E0
1.062393301E0,-8.897000313E0,8.697999954E0,3.630000114E0
1.064881301E0,-8.822999954E0,8.590000153E0,3.966000080E0
1.067369301E0,-8.515999794E0,8.463999748E0,4.124000072E0
1.069857301E0,-8.406000137E0,8.355999947E0,4.238999844E0
1.072345301E0,-8.395999908E0,8.368000031E0,4.263000011E0
1.074833335E0,-8.569000244E0,8.348999977E0,4.275000095E0
1.077321566E0,-8.767999649E0,8.248000145E0,4.572000027E0
1.079809566E0,-8.798999786E0,7.988999844E0,4.614999771E0
1.082297566E0,-8.819999695E0,7.793000221E0,4.835000038E0
1.084785643E0,-8.659999847E0,7.431000233E0,4.822999954E0
1.087273556E0,-8.392000198E0,7.243999958E0,4.708000183E0
1.089761633E0,-8.253000259E0,6.852000237E0,4.427999973E0
1.092249633E0,-8.265000343E0,6.480000019E0,3.905999899E0
1.094737633E0,-8.267000198E0,6.206999779E0,3.065000057E0
1.097225633E0,-8.437000275E0,5.767000198E0,2.269999981E0
1.099713604E0,-8.565999985E0,5.311999798E0,9.409999847E-1
1.102201835E0,-8.539999962E0,5.093999863E0,4.589999914E-1
1.104689835E0,-8.538000107E0,4.524000168E0,-1.099999994E-1
1.107177835E0,-8.388999939E0,4.298999786E0,-4.020000100E-1
1.109665835E0,-8.314999580E0,3.869999886E0,1.790000051E-1
1.112153850E0,-8.828000069E0,3.256999969E0,-6.890000105E-1
1.114641850E0,-8.807999611E0,3.029000044E0,-1.156000018E0
1.117129850E0,-8.588000298E0,2.490000010E0,-1.685999990E0
1.119617850E0,-7.939000130E0,2.398999929E0,-1.860000014E0
1.122105927E0,-7.203999996E0,2.322999954E0,-1.447999954E0
1.124593907E0,-7.125000000E0,2.279999971E0,-9.169999957E-1
1.127081907E0,-7.107999802E0,2.338999987E0,-3.009999990E-1
1.129570138E0,-7.532000065E0,2.598000050E0,4.399999976E-1
1.132058138E0,-7.481999874E0,2.739000082E0,8.880000114E-1
1.134545907E0,-7.189000130E0,3.026999950E0,1.075000048E0
1.137033902E0,-6.343999863E0,3.411999941E0,1.319000006E0
1.139522133E0,-5.906000137E0,3.671000004E0,1.376999974E0
1.142010133E0,-5.901000023E0,3.776000023E0,1.371999979E0
1.144498133E0,-6.057000160E0,3.973000050E0,1.422000051E0
1.146986133E0,-6.473000050E0,3.875000000E0,1.317000031E0
1.149474230E0,-6.993000031E0,3.858000040E0,1.286000013E0
1.151962230E0,-7.473999977E0,3.747999907E0,1.116000056E0
1.154450153E0,-7.789999962E0,3.515000105E0,9.380000234E-1
1.156938153E0,-7.857999802E0,3.289999962E0,8.709999919E-1
1.159426230E0,-7.939000130E0,3.019999981E0,9.340000153E-1
1.161914244E0,-7.795000076E0,2.874000072E0,6.489999890E-1
1.164402244E0,-7.577000141E0,2.569000006E0,5.410000086E-1
1.166890475E0,-7.635000229E0,2.483000040E0,3.280000091E-1
1.169378475E0,-7.665999889E0,2.384999990E0,1.309999973E-1
1.171866475E0,-7.822000027E0,2.220000029E0,-1.340000033E-1
1.174354446E0,-7.927000046E0,2.232000113E0,-1.889999956E-1
1.176842522E0,-7.793000221E0,2.207999945E0,-1.220000014E-1
1.179330522E0,-7.630000114E0,2.332000017E0,-2.800000086E-2
1.181818446E0,-7.355000019E0,2.346999884E0,3.370000124E-1
1.184306523E0,-7.096000195E0,2.483000040E0,5.339999795E-1
1.186794533E0,-7.122000217E0,2.530999899E0,7.469999790E-1
1.189282533E0,-7.247000217E0,2.565000057E0,8.709999919E-1
1.191770533E0,-7.388000011E0,2.490000010E0,1.116000056E0
1.194258533E0,-7.263999939E0,2.450000048E0,1.256999969E0
1.196746763E0,-6.859000206E0,2.459000111E0,1.496000051E0
1.199234729E0,-6.538000107E0,2.519000053E0,1.807999969E0
1.201722499E0,-6.427999973E0,2.742000103E0,1.960999966E0
1.204210806E0,-6.278999805E0,2.835000038E0,2.246000051E0
1.206698729E0,-6.508999825E0,2.861999989E0,2.240999937E0
1.209186729E0,-6.689000130E0,2.871000051E0,2.178999901E0
1.211674729E0,-6.993000031E0,2.882999897E0,1.797999978E0
1.214162806E0,-7.179999828E0,2.562000036E0,1.539000034E0
1.216650806E0,-7.084000111E0,2.434999943E0,1.039000034E0
1.219138806E0,-6.964000225E0,2.131000042E0,5.669999719E-1
1.221626806E0,-6.780000210E0,1.917999983E0,1.550000012E-1
1.224115027E0,-6.657999992E0,1.815000057E0,-2.730000019E-1
1.226603027E0,-6.631000042E0,1.654000044E0,-6.010000110E-1
1.229090796E0,-6.731999874E0,1.463000059E0,-7.799999714E-1
1.231578796E0,-6.689000130E0,1.409999967E0,-8.209999800E-1
1.234067027E0,-6.743999958E0,1.465000033E0,-1.016999960E0
1.236555018E0,-6.801000118E0,1.218999982E0,-1.070000052E0
1.239043018E0,-6.959000111E0,1.225999951E0,-1.245000005E0
1.241531095E0,-7.093999863E0,1.129999995E0,-1.223000050E0
1.244019095E0,-7.131999969E0,1.095999956E0,-1.075000048E0
1.246507095E0,-7.402999878E0,1.016999960E0,-9.219999909E-1
1.248995100E0,-7.453000069E0,1.036999941E0,-5.860000253E-1
1.251483100E0,-7.307000160E0,1.088999987E0,-3.659999967E-1
1.253971100E0,-7.122000217E0,1.095999956E0,-2.800000012E-1
1.256459100E0,-6.789000034E0,1.195000052E0,-3.899999857E-1
1.258947100E0,-6.610000134E0,1.307000041E0,-5.019999743E-1
1.261435335E0,-6.443999767E0,1.407999992E0,-4.830000103E-1
1.263923335E0,-6.427999973E0,1.519999981E0,-3.230000138E-1
1.266411335E0,-6.433000088E0,1.597000003E0,-3.230000138E-1
1.268899335E0,-6.494999886E0,1.730999947E0,-1.260000020E-1
1.271387335E0,-6.487999916E0,1.886999965E0,-1.550000012E-1
1.273875393E0,-6.410999775E0,1.944000006E0,2.579999864E-1
1.276363316E0,-6.203000069E0,2.002000093E0,3.709999919E-1
1.278851624E0,-6.203000069E0,2.121000051E0,2.579999864E-1
1.281339393E0,-5.999000072E0,2.168999910E0,4.950000048E-1
1.283827393E0,-6.034999847E0,2.142999887E0,3.490000069E-1
1.286315648E0,-6.025000095E0,2.150000095E0,2.960000038E-1
1.288803648E0,-6.171000004E0,2.078000069E0,1.169999987E-1
1.291291417E0,-6.385000229E0,2.099999905E0,-1.979999989E-1
1.293779648E0,-6.670000076E0,2.002000093E0,-6.029999852E-1
1.296267648E0,-6.809000015E0,1.907999992E0,-1.289999962E0
1.298755682E0,-6.868000031E0,1.784000039E0,-1.906000018E0
1.301243759E0,-6.892000198E0,1.792999983E0,-2.599999905E0
1.303731682E0,-6.624000072E0,1.738000035E0,-3.269000053E0
1.306219682E0,-6.421000004E0,1.774000049E0,-3.697000027E0
1.308707759E0,-6.306000233E0,1.741000056E0,-4.090000153E0
1.311195749E0,-6.271999836E0,1.542000055E0,-4.501999855E0
1.313683749E0,-6.554999828E0,1.527999997E0,-4.587999821E0
1.316171749E0,-6.815999985E0,1.434000015E0,-4.527999878E0
1.318659979E0,-7.235000134E0,1.518000007E0,-4.310999870E0
1.321147749E0,-7.263999939E0,1.455999970E0,-4.322999954E0
1.323636012E0,-7.114999771E0,1.523000002E0,-4.057000160E0
1.326124012E0,-7.172999859E0,1.534999967E0,-3.948999882E0
1.328612012E0,-7.105999947E0,1.761999965E0,-3.701999903E0
1.331100012E0,-7.235000134E0,1.960999966E0,-3.404999971E0
1.333588089E0,-7.498000145E0,2.211999893E0,-3.201999903E0
1.336076103E0,-7.597000122E0,2.473999977E0,-2.908999920E0
1.338564103E0,-7.043000221E0,3.822000027E0,-1.626000047E0
1.341052103E0,-7.209000111E0,4.972000122E0,-1.774000049E0
1.343540103E0,-8.803999901E0,5.337999821E0,-1.491999984E0
1.346028103E0,-9.817000389E0,4.185999870E0,-2.089999914E0
1.348516075E0,-1.081999969E1,3.999000072E0,-2.581000090E0
1.351004075E0,-1.282499981E1,3.280999899E0,-1.008000016E0
1.353492075E0,-1.272200012E1,2.900000095E0,-7.829999924E-1
1.355980306E0,-1.307199955E1,2.838000059E0,3.680000007E-1
1.358468306E0,-1.234799957E1,2.900000095E0,3.540000021E-1
1.360956383E0,-1.175699997E1,3.374000072E0,2.770000100E-1
1.363444383E0,-1.210400009E1,3.640000105E0,3.300000131E-1
1.365932306E0,-1.225199986E1,3.966000080E0,-2.099999972E-2
1.368420383E0,-1.267199993E1,4.068999767E0,-6.579999924E-1
1.370908383E0,-1.319099998E1,3.974999905E0,-9.459999800E-1
1.373396411E0,-1.357699966E1,3.671000004E0,-7.659999728E-1
1.375884411E0,-1.353899956E1,3.385999918E0,-3.989999890E-1
1.378372411E0,-1.296599960E1,3.328999996E0,-1.450999975E0
1.380860642E0,-1.316699982E1,3.596999884E0,-1.398000002E0
1.383348642E0,-1.265999985E1,3.891000032E0,-2.480999947E0
1.385836627E0,-1.220199966E1,4.475999832E0,-3.668999910E0
1.388324627E0,-1.193400002E1,4.861000061E0,-4.856999874E0
1.390812396E0,-1.258800030E1,5.002999783E0,-4.526000023E0
1.393300704E0,-1.324600029E1,4.802000046E0,-4.144999981E0
1.395788627E0,-1.365100002E1,4.543000221E0,-3.486999989E0
1.398276627E0,-1.364400005E1,4.394000053E0,-3.005000114E0
1.400764704E0,-1.380700016E1,4.375000000E0,-1.939000010E0
1.403252704E0,-1.339999962E1,4.708000183E0,-1.455999970E0
1.405740704E0,-1.313599968E1,4.670000076E0,-4.740000069E-1
1.408228935E0,-1.306000042E1,4.856999874E0,5.900000036E-2
1.410716922E0,-1.256599998E1,5.110000134E0,6.370000243E-1
1.413204922E0,-1.217599964E1,5.553999901E0,8.230000138E-1
1.415692691E0,-1.136600018E1,5.953999996E0,6.919999719E-1
1.418180922E0,-1.084399986E1,6.415999889E0,7.110000253E-1
1.420668922E0,-1.064799976E1,6.736999989E0,5.139999986E-1
1.423156950E0,-1.042500019E1,6.545000076E0,6.800000072E-1
1.425644950E0,-1.062600040E1,6.564000130E0,4.399999976E-1
1.428133027E0,-1.070300007E1,6.535999775E0,3.470000029E-1
1.430621027E0,-1.101700020E1,6.282000065E0,3.919999897E-1
1.433109027E0,-1.146700001E1,6.079999924E0,3.709999919E-1
1.435596940E0,-1.182100010E1,5.790999889E0,6.129999757E-1
1.438085247E0,-1.222399998E1,5.368999958E0,5.139999986E-1
1.440573017E0,-1.255700016E1,4.940000057E0,3.680000007E-1
1.443061247E0,-1.303600025E1,4.663000107E0,2.730000019E-1
1.445549247E0,-1.297099972E1,5.014999866E0,-4.070000052E-1
1.448037319E0,-1.229800034E1,5.688000202E0,-5.310000181E-1
1.450525242E0,-1.145499992E1,6.413000107E0,-3.129999936E-1
1.453013242E0,-1.035599995E1,6.815999985E0,-4.499999881E-1
1.455501319E0,-9.362000465E0,6.464000225E0,-5.979999900E-1
1.457989319E0,-8.836999893E0,5.623000145E0,-9.670000076E-1
1.460477237E0,-8.602000237E0,4.592999935E0,-1.243000031E0
1.462965314E0,-8.288999557E0,4.097000122E0,-1.786000013E0
1.465453314E0,-8.119000435E0,3.411999941E0,-2.269999981E0
1.467941545E0,-7.809999943E0,2.743999958E0,-2.739000082E0
1.470429314E0,-7.565000057E0,2.059000015E0,-3.234999895E0
1.472917310E0,-7.191999912E0,1.661999941E0,-3.661000013E0
1.475405541E0,-7.038000107E0,1.080000043E0,-3.762000084E0
1.477893541E0,-6.769999981E0,5.889999866E-1,-4.143000126E0
1.480381541E0,-5.967999935E0,2.919999957E-1,-4.143000126E0
1.482869618E0,-5.750000000E0,1.430000067E-1,-4.487999916E0
1.485357618E0,-5.936999798E0,6.489999890E-1,-4.599999905E0
1.487845618E0,-5.864999771E0,9.309999943E-1,-4.118999958E0
1.490333541E0,-5.732999802E0,1.314000010E0,-3.546999931E0
1.492821618E0,-5.066999912E0,1.870000005E0,-2.773000002E0
1.495309618E0,-4.301000118E0,2.354000092E0,-1.860000014E0
1.497797589E0,-3.927000046E0,2.796999931E0,-6.800000072E-1
1.500285589E0,-4.248000145E0,2.953000069E0,4.160000086E-1
1.502773820E0,-4.192999840E0,3.400000095E0,1.080000043E0
1.505261820E0,-4.480999947E0,3.565999985E0,1.695000052E0
1.507749820E0,-3.901000023E0,4.085000038E0,1.955999970E0
1.510237815E0,-3.604000092E0,4.436999798E0,1.947000027E0
1.512725815E0,-3.316999912E0,4.631000042E0,1.654000044E0
1.515213892E0,-3.450999975E0,4.806000233E0,2.009000063E0
1.517701815E0,-2.987999916E0,5.058000088E0,1.853000045E0
1.520189892E0,-3.155999899E0,5.096000195E0,2.020999908E0
1.522677892E0,-3.269000053E0,4.993000031E0,2.160000086E0
1.525165892E0,-2.724999905E0,4.942999840E0,1.828999996E0
1.527653892E0,-2.904999971E0,4.617000103E0,2.089999914E0
1.530142123E0,-2.619999886E0,4.231999874E0,1.858000040E0
1.532630123E0,-2.408999920E0,4.369999886E0,1.575000048E0
1.535118113E0,-2.502000093E0,4.229000092E0,1.536999941E0
1.537606113E0,-2.253000021E0,3.999000072E0,1.429000020E0
1.540094190E0,-2.207999945E0,3.957999945E0,1.243000031E0
1.542582190E0,-9.909999967E-1,4.102000237E0,1.508000016E0
1.545070113E0,2.706000090E0,4.519000053E0,1.355000019E0
1.547558099E0,-8.600000292E-2,4.057000160E0,1.036999941E0
1.550046176E0,-3.457999945E0,4.710999966E0,1.822000027E0
1.552534176E0,-2.961999893E0,4.169000149E0,-4.699999839E-2
1.555022176E0,-1.008000016E0,3.256999969E0,-4.350000024E-1
1.557510406E0,-1.480000019E-1,3.999000072E0,5.339999795E-1
1.559998391E0,-4.189999998E-1,4.678999901E0,2.960000038E-1
1.562486391E0,-1.781000018E0,5.544000149E0,3.677999973E0
1.564974391E0,-2.184000015E0,6.591000080E0,5.709000111E0
1.567462391E0,-2.038000107E0,7.581999779E0,7.077000141E0
1.569950468E0,-1.949000001E0,8.284000397E0,7.822000027E0
1.572438392E0,-2.384999990E0,9.380999565E0,8.394000053E0
1.574926392E0,-3.058000088E0,1.017399979E1,8.652999878E0
1.577414468E0,-3.155999899E0,1.066899967E1,8.128000259E0
1.579902468E0,-3.269000053E0,1.130399990E1,7.131999969E0
1.582390468E0,-3.539000034E0,1.096199989E1,6.566999912E0
1.584878459E0,-3.713999987E0,1.079599953E1,5.469999790E0
1.587366459E0,-4.131000042E0,1.023299980E1,4.573999882E0
1.589854690E0,-4.806000233E0,9.553000450E0,3.867000103E0
1.592342459E0,-5.537000179E0,8.458999634E0,3.280999899E0
1.594830767E0,-6.125999928E0,8.324999809E0,2.497999907E0
1.597318699E0,-6.722000122E0,8.121000290E0,1.955999970E0
1.599806699E0,-7.179999828E0,8.418000221E0,1.457999945E0
1.602294776E0,-7.397999763E0,8.607000351E0,6.079999804E-1
1.604782776E0,-7.837999821E0,8.671999931E0,3.490000069E-1
1.607270776E0,-7.340000153E0,8.656999588E0,5.619999766E-1
1.609758781E0,-7.967999935E0,9.086000443E0,1.669999957E-1
1.612247012E0,-8.862999916E0,9.553000450E0,-9.599999785E-1
1.614735012E0,-9.354000092E0,9.963000298E0,-1.750000000E0
1.617223012E0,-9.675000191E0,1.034799957E1,-2.154999971E0
1.619710781E0,-9.916999817E0,1.030799961E1,-2.236000061E0
1.622198771E0,-9.536000252E0,1.008699989E1,-2.210000038E0
1.624687002E0,-9.460000038E0,9.953000069E0,-2.267999887E0
1.627175002E0,-9.854999542E0,1.050899982E1,-1.960999966E0
1.629663002E0,-1.001099968E1,1.100699997E1,-1.889000058E0
1.632151079E0,-1.014000034E1,1.104500008E1,-1.654000044E0
1.634639079E0,-1.001500034E1,1.107600021E1,-1.333999991E0
1.637127079E0,-9.854999542E0,1.077900028E1,-2.290000021E-1
1.639615079E0,-9.968000412E0,1.103600025E1,-4.639999866E-1
1.642103310E0,-9.795000076E0,1.130900002E1,-3.709999919E-1
1.644591079E0,-9.604000092E0,1.151500034E1,-1.500000060E-1
1.647079296E0,-9.647000313E0,1.155500031E1,-9.499999881E-2
1.649567296E0,-9.571999550E0,1.165400028E1,1.379999965E-1
1.652055296E0,-9.553000450E0,1.153400040E1,8.799999952E-2
1.654543296E0,-9.460000038E0,1.139700031E1,2.800000086E-2
1.657031296E0,-9.246999741E0,1.133800030E1,2.770000100E-1
1.659519344E0,-9.088999748E0,1.125100040E1,2.440000027E-1
1.662007344E0,-8.968999863E0,1.123900032E1,3.249999881E-1
1.664495344E0,-8.734000206E0,1.116499996E1,4.979999959E-1
1.666983344E0,-8.633999825E0,1.121100044E1,5.699999928E-1
1.669471575E0,-8.628999710E0,1.101399994E1,7.779999971E-1
1.671959585E0,-9.524000168E0,9.765999794E0,5.139999986E-1
1.674447354E0,-9.541000366E0,8.904000282E0,6.940000057E-1
1.676935661E0,-1.020499992E1,7.756999969E0,1.001000047E0
1.679423585E0,-1.090600014E1,6.875999928E0,1.309999943E0
1.681911585E0,-1.171800041E1,5.804999828E0,1.598999977E0
1.684399589E0,-1.263099957E1,4.381999969E0,1.845999956E0
1.686887665E0,-1.232199955E1,4.032999992E0,2.408999920E0
1.689375665E0,-1.260700035E1,3.374000072E0,2.459000111E0
1.691863665E0,-1.170899963E1,2.979000092E0,2.365999937E0
1.694351665E0,-1.139299965E1,2.684000015E0,2.434999943E0
1.696839892E0,-1.073400021E1,2.530999899E0,2.342000008E0
1.699327892E0,-1.077700043E1,2.232000113E0,2.473999977E0
1.701815662E0,-1.056599998E1,2.121000051E0,2.688999891E0
1.704303662E0,-1.044200039E1,1.802999973E0,2.720000029E0
1.706791969E0,-1.084899998E1,1.705000043E0,2.839999914E0
1.709279887E0,-1.038899994E1,1.848000050E0,2.838000059E0
1.711767887E0,-1.066199970E1,1.409999967E0,2.394999981E0
1.714255964E0,-1.033600044E1,1.333999991E0,2.148000002E0
1.716743964E0,-1.056900024E1,1.343000054E0,2.107000113E0
1.719231964E0,-1.258300018E1,8.709999919E-1,1.419999957E0
1.721719935E0,-1.271000004E1,6.990000010E-1,1.215999961E0
1.724208166E0,-1.360999966E1,5.669999719E-1,8.159999847E-1
1.726696166E0,-1.054699993E1,1.210999966E0,1.371999979E0
1.729184166E0,-9.378000259E0,1.985000014E0,1.444000006E0
1.731672166E0,-7.913000107E0,3.029000044E0,8.040000200E-1
1.734160161E0,-6.127999783E0,3.938999891E0,5.700000003E-2
1.736648161E0,-3.230000019E0,4.475999832E0,1.171000004E0
1.739136161E0,-2.815999985E0,4.633999825E0,2.753999949E0
1.741624161E0,4.699999839E-2,5.725999832E0,3.647000074E0
1.744112238E0,6.010000110E-1,6.151999950E0,5.894000053E0
1.746600248E0,-2.272000074E0,5.149000168E0,7.217999935E0
1.749088248E0,3.051000118E0,7.500999928E0,7.212999821E0
1.751576479E0,3.184999943E0,7.473999977E0,7.438000202E0
1.754064479E0,6.501999855E0,9.244000435E0,6.657999992E0
1.756552479E0,3.431999922E0,8.868000031E0,5.409999847E0
1.759040484E0,1.917999983E0,9.508000374E0,4.343999863E0
1.761528561E0,3.444000006E0,1.051399994E1,3.431999922E0
1.764016561E0,4.968999863E0,1.093999958E1,2.453999996E0
1.766504484E0,6.343999863E0,1.127000046E1,1.664000034E0
1.768992484E0,7.390999794E0,1.185700035E1,1.003000021E0
1.771480546E0,8.732000351E0,1.236699963E1,4.589999914E-1
1.773968546E0,9.248999596E0,1.269499969E1,-4.300000146E-2
1.776456546E0,9.553000450E0,1.298999977E1,-2.610000074E-1
1.778944546E0,9.432999611E0,1.320800018E1,-4.090000093E-1
1.781432777E0,9.107999802E0,1.320300007E1,-4.639999866E-1
1.783920777E0,8.288999557E0,1.319099998E1,-5.889999866E-1
1.786408777E0,7.493999958E0,1.317199993E1,-4.309999943E-1
1.788896853E0,5.967999935E0,1.290900040E1,-2.730000019E-1
1.791384853E0,4.362999916E0,1.264000034E1,-3.299999982E-2
1.793872777E0,2.680000067E0,1.231200027E1,3.059999943E-1
1.796360848E0,8.659999967E-1,1.207499981E1,6.029999852E-1
1.798848849E0,-9.909999967E-1,1.151200008E1,9.670000076E-1
1.801336849E0,-2.411000013E0,1.126599979E1,1.233000040E0
1.803824849E0,-3.654000044E0,1.076500034E1,1.524999976E0
1.806312849E0,-4.389999866E0,1.041300011E1,1.531999946E0
1.808801061E0,-4.821000099E0,1.008500004E1,1.634999990E0
1.811289061E0,-5.232999802E0,9.840999603E0,1.628000021E0
1.813777061E0,-5.047999859E0,9.520000458E0,1.671000004E0
1.816265061E0,-4.763000011E0,9.282999992E0,1.527999997E0
1.818753138E0,-4.500000000E0,9.090999603E0,1.373999953E0
1.821241051E0,-4.038000107E0,8.812999725E0,1.246999979E0
1.823729051E0,-3.634999990E0,8.559000015E0,1.141999960E0
1.826217128E0,-3.470000029E0,8.376999855E0,1.083999991E0
1.828705128E0,-3.273000002E0,8.055999756E0,1.014999986E0
1.831193128E0,-3.424000025E0,7.879000187E0,7.009999752E-1
1.833681379E0,-3.479000092E0,7.781000137E0,4.810000062E-1
1.836169379E0,-3.470000029E0,7.732999802E0,3.039999902E-1
1.838657379E0,-3.592000008E0,7.544000149E0,2.290000021E-1
1.841145379E0,-3.614000082E0,7.646999836E0,6.199999899E-2
1.843633379E0,-3.586999893E0,7.668000221E0,1.860000044E-1
1.846121393E0,-3.526999950E0,7.763999939E0,2.049999982E-1
1.848609470E0,-3.503000021E0,7.756999969E0,4.110000134E-1
1.851097393E0,-3.361999989E0,7.739999771E0,4.950000048E-1
1.853585470E0,-3.349999905E0,7.849999905E0,7.639999986E-1
1.856073470E0,-3.072000027E0,7.846000195E0,1.001000047E0
1.858561711E0,-3.065000057E0,7.886000156E0,1.110999942E0
1.861049480E0,-2.953000069E0,7.822000027E0,1.161000013E0
1.863537711E0,-2.921000004E0,7.769000053E0,1.082000017E0
1.866025711E0,-2.805999994E0,7.809999943E0,1.065000057E0
1.868513711E0,-2.971999884E0,7.743000031E0,1.139999986E0
1.871001759E0,-2.986000061E0,7.510000229E0,9.959999919E-1
1.873489759E0,-2.950000048E0,7.469999790E0,8.090000153E-1
1.875977759E0,-2.926000118E0,7.409999847E0,6.800000072E-1
1.878465759E0,-3.112999916E0,7.381000042E0,6.129999757E-1
1.880953759E0,-3.263999939E0,7.314000130E0,4.979999959E-1
1.883441744E0,-3.568000078E0,7.231999874E0,3.709999919E-1
1.885929975E0,-3.586999893E0,7.085999966E0,2.800000012E-1
1.888417744E0,-3.769000053E0,7.047999859E0,1.260000020E-1
1.890905744E0,-3.572999954E0,7.186999798E0,2.080000043E-1
1.893393975E0,-3.614000082E0,7.066999912E0,2.010000050E-1
1.895882009E0,-3.460000038E0,7.356999874E0,3.440000117E-1
1.898370009E0,-3.479000092E0,7.303999901E0,3.540000021E-1
1.900858009E0,-3.704999924E0,7.375999928E0,3.709999919E-1
1.903346086E0,-3.542000055E0,7.442999840E0,3.440000117E-1
1.905834086E0,-3.404999971E0,7.526999950E0,2.389999926E-1
1.908322321E0,-3.374000072E0,7.572999954E0,3.280000091E-1
1.910810321E0,-3.352999926E0,7.723000050E0,2.389999926E-1
1.913298321E0,-3.227999926E0,7.864999771E0,2.770000100E-1
1.915786091E0,-3.256999969E0,7.848000050E0,2.389999926E-1
1.918274398E0,-3.262000084E0,7.807000160E0,2.489999980E-1
1.920762345E0,-3.174999952E0,7.993999958E0,3.199999928E-1
1.923250345E0,-3.068000078E0,7.822000027E0,3.610000014E-1
1.925738345E0,-3.069999933E0,7.835999966E0,4.569999874E-1
1.928226422E0,-3.163000107E0,7.800000191E0,7.200000286E-1
1.930714422E0,-3.253999949E0,7.818999767E0,8.759999871E-1
1.933202431E0,-3.263999939E0,7.785999775E0,8.709999919E-1
1.935690431E0,-3.628000021E0,7.453000069E0,7.229999900E-1
1.938178431E0,-3.790999889E0,7.347000122E0,7.080000043E-1
1.940666662E0,-3.700000048E0,7.280000210E0,8.140000105E-1
1.943154662E0,-3.585000038E0,7.361999989E0,6.200000048E-1
1.945642667E0,-3.618000031E0,7.110000134E0,6.079999804E-1
1.948130744E0,-3.819999933E0,6.880000114E0,3.680000007E-1
1.950618667E0,-3.862999916E0,6.643000126E0,2.099999934E-1
1.953106744E0,-3.934999943E0,6.603000164E0,3.009999990E-1
1.955594744E0,-3.832000017E0,6.561999798E0,2.370000035E-1
1.958082753E0,-3.769000053E0,6.633999825E0,3.280000091E-1
1.960570753E0,-3.729000092E0,6.809000015E0,4.140000045E-1
1.963058753E0,-4.139999866E0,6.894999981E0,2.339999974E-1
1.965546984E0,-4.150000095E0,7.024000168E0,-8.100000024E-2
1.968034984E0,-4.027999878E0,7.540999889E0,-8.299999684E-2
1.970522984E0,-3.867000103E0,7.776000023E0,-3.799999878E-2
1.973010984E0,-3.790999889E0,8.137999535E0,1.770000011E-1
1.975498984E0,-3.651999950E0,8.652999878E0,2.220000029E-1
1.977986984E0,-3.431999922E0,8.848999977E0,2.939999998E-1
1.980475061E0,-3.342999935E0,9.145999908E0,2.870000005E-1
1.982962999E0,-3.306999922E0,9.347000122E0,4.259999990E-1
1.985451307E0,-3.378999949E0,9.435999870E0,4.189999998E-1
1.987939076E0,-3.400000095E0,9.467000008E0,5.260000229E-1
1.990427076E0,-3.585000038E0,9.437999725E0,5.070000291E-1
1.992915307E0,-3.658999920E0,9.262999535E0,4.740000069E-1
1.995403316E0,-4.203000069E0,8.958999634E0,2.800000086E-2
1.997891316E0,-4.585999966E0,8.284000397E0,-2.099999934E-1
2.000379316E0,-5.296999931E0,7.537000179E0,-4.550000131E-1
2.002867393E0,-5.597000122E0,6.306000233E0,-3.989999890E-1
2.005355393E0,-5.579999924E0,5.390999794E0,-3.370000124E-1
2.007843427E0,-5.533999920E0,4.494999886E0,-1.430000067E-1
2.010331350E0,-5.228000164E0,4.245999813E0,-2.319999933E-1
2.012819657E0,-4.513999939E0,4.427999973E0,-2.169999927E-1
2.015307427E0,-3.440999985E0,5.110000134E0,-2.339999974E-1
2.017795427E0,-2.566999912E0,5.969999790E0,-8.519999981E-1
2.020283407E0,-1.304999948E0,7.302000046E0,-6.389999986E-1
2.022771714E0,-5.189999938E-1,8.163999557E0,-4.399999976E-1
2.025259637E0,7.400000095E-2,8.807999611E0,-1.019999981E-1
2.027747714E0,0.000000000E0,8.829999924E0,2.890000045E-1
2.030235714E0,-7.950000167E-1,8.277000427E0,5.960000157E-1
2.032723714E0,-2.124000072E0,7.495999813E0,7.680000067E-1
2.035211714E0,-2.750999928E0,6.975999832E0,1.345999956E0
2.037699714E0,-3.237999916E0,6.673999786E0,1.486999989E0
2.040187945E0,-3.181999922E0,6.573999882E0,1.950999975E0
2.042675945E0,-3.055999994E0,6.750999928E0,1.800999999E0
2.045163974E0,-3.467000008E0,6.708000183E0,1.656999946E0
2.047651974E0,-4.166999817E0,6.546999931E0,1.529999971E0
2.050139974E0,-4.173999786E0,6.689000130E0,2.114000082E0
2.052627974E0,-3.970000029E0,6.798999786E0,2.088000059E0
2.055115974E0,-4.298999786E0,6.705999851E0,1.929999948E0
2.057603969E0,-4.552000046E0,6.652999878E0,1.990000010E0
2.060092046E0,-4.487999916E0,6.388999939E0,1.718999982E0
2.062580046E0,-3.938999891E0,6.144999981E0,7.639999986E-1
2.065068046E0,-4.817999840E0,6.111999989E0,2.129999995E-1
2.067556277E0,-4.355999947E0,6.789000034E0,4.830000103E-1
2.070044297E0,-3.798000097E0,7.177000046E0,-5.979999900E-1
2.072532297E0,-3.668999910E0,7.315999985E0,-8.640000224E-1
2.075020297E0,-3.701999903E0,7.151000023E0,-3.059999943E-1
2.077508374E0,-5.386000156E0,6.008999825E0,-3.869999945E-1
2.079996374E0,-4.283999920E0,5.510000229E0,-2.169999927E-1
2.082484369E0,-3.447999954E0,4.756000042E0,1.260000020E-1
2.084972292E0,-4.717999935E0,4.162000179E0,-4.639999866E-1
2.087460600E0,-6.199999809E0,3.756999969E0,2.010000050E-1
2.089948369E0,-5.862999916E0,4.324999809E0,1.692999959E0
2.092436369E0,-5.307000160E0,5.112999916E0,2.696000099E0
2.094924364E0,-4.998000145E0,5.728000164E0,3.640000105E0
2.097412595E0,-3.118000031E0,6.576000214E0,5.021999836E0
2.099900595E0,-1.896000028E0,7.126999855E0,5.074999809E0
2.102388595E0,-2.389999926E-1,8.508999825E0,4.441999912E0
2.104876672E0,6.219999790E-1,9.454999924E0,3.201999903E0
2.107364648E0,-6.800000072E-1,9.857000351E0,1.730999947E0
2.109852648E0,-2.635999918E0,1.012600040E1,4.300000146E-2
2.112340648E0,-4.545000076E0,1.018299961E1,-1.013000011E0
2.114828878E0,-5.909999847E0,1.032400036E1,-8.519999981E-1
2.117316878E0,-6.546999931E0,1.102900028E1,2.529999912E-1
2.119804868E0,-6.776999950E0,1.177600002E1,1.527999997E0
2.122292868E0,-7.046000004E0,1.182600021E1,3.431999922E0
2.124780868E0,-7.289999962E0,1.199400043E1,4.302999973E0
2.127268868E0,-6.975999832E0,1.263799953E1,5.122000217E0
2.129756868E0,-6.877999783E0,1.285799980E1,5.454999924E0
2.132244873E0,-6.894999981E0,1.275800037E1,5.570000172E0
2.134732950E0,-6.441999912E0,1.295699978E1,5.397999763E0
2.137220950E0,-6.144999981E0,1.284399986E1,5.112999916E0
2.139708950E0,-6.436999798E0,1.275800037E1,4.824999809E0
2.142197181E0,-6.020999908E0,1.301900005E1,4.459000111E0
2.144684955E0,-5.526999950E0,1.302799988E1,4.052000046E0
2.147173186E0,-5.460000038E0,1.292800045E1,3.733000040E0
2.149661186E0,-4.742000103E0,1.264999962E1,3.086999893E0
2.152149263E0,-4.452000141E0,1.235999966E1,2.904999971E0
2.154637263E0,-3.184999943E0,1.276700020E1,2.530999899E0
2.157125171E0,-3.240000010E0,1.250399971E1,2.109999895E0
2.159613171E0,-3.384000063E0,1.159099960E1,1.618999958E0
2.162101248E0,-3.266000032E0,1.128499985E1,1.348000050E0
2.164589248E0,-2.821000099E0,1.078699970E1,1.391000032E0
2.167077248E0,-2.591000080E0,9.934000015E0,7.850000262E-1
2.169565263E0,-1.838999987E0,9.503000259E0,4.639999866E-1
2.172053494E0,-1.707000017E0,8.980999947E0,8.159999847E-1
2.174541494E0,-1.692999959E0,8.097000122E0,8.109999895E-1
2.177029494E0,-1.286000013E0,7.597000122E0,8.569999933E-1
2.179517571E0,-7.559999824E-1,7.117000103E0,6.129999757E-1
2.182005552E0,-5.460000038E-1,6.375000000E0,5.339999795E-1
2.184493552E0,1.340000033E-1,5.902999878E0,9.169999957E-1
2.186981552E0,7.160000205E-1,5.579999924E0,8.209999800E-1
2.189469783E0,1.235000014E0,5.363999844E0,2.269999981E-1
2.191957552E0,1.529999971E0,4.564000130E0,5.889999866E-1
2.194445764E0,1.963000059E0,4.083000183E0,9.739999771E-1
2.196933764E0,2.354000092E0,3.938999891E0,8.450000286E-1
2.199421764E0,2.588999987E0,3.546999931E0,7.319999933E-1
2.201909764E0,3.342999935E0,3.638000011E0,1.019999981E0
2.204397764E0,3.266000032E0,2.961999893E0,7.490000129E-1
2.206885754E0,3.227999926E0,2.631999969E0,7.009999752E-1
2.209373831E0,4.076000214E0,3.384000063E0,1.019999981E0
2.211861831E0,4.267000198E0,3.040999889E0,9.309999943E-1
2.214349831E0,4.343999863E0,2.878000021E0,1.235000014E0
2.216838061E0,4.434999943E0,2.329999924E0,1.067999959E0
2.219325869E0,4.836999893E0,2.204999924E0,1.745000005E0
2.221814099E0,4.907000065E0,1.947000027E0,1.883999944E0
2.224302176E0,5.677999973E0,2.204999924E0,1.929999948E0
2.226790176E0,5.800000191E0,2.082999945E0,1.822000027E0
2.229278176E0,6.285999775E0,2.354000092E0,2.150000095E0
2.231766114E0,6.238999844E0,3.084000111E0,1.575000048E0
2.234254191E0,5.714000225E0,3.276000023E0,1.179999948E0
2.236742191E0,5.902999878E0,3.974999905E0,1.603999972E0
2.239230191E0,5.435999870E0,4.264999866E0,9.769999981E-1
2.241718191E0,5.295000076E0,4.761000156E0,7.969999909E-1
2.244206157E0,5.311999798E0,5.244999886E0,1.029000044E0
2.246694388E0,5.760000229E0,6.164000034E0,1.177999973E0
2.249182388E0,5.684999943E0,6.618999958E0,1.230999947E0
2.251670388E0,5.993999958E0,7.627999783E0,7.469999790E-1
2.254158465E0,5.830999851E0,8.513999939E0,8.280000091E-1
2.256646475E0,5.217999935E0,9.380999565E0,7.129999995E-1
2.259134475E0,5.232999802E0,1.043700027E1,8.949999809E-1
2.261622706E0,5.153999805E0,1.159899998E1,7.779999971E-1
2.264110706E0,5.059999943E0,1.266399956E1,6.629999876E-1
2.266598706E0,4.964000225E0,1.395800018E1,4.950000048E-1
2.269086701E0,4.105000019E0,1.422399998E1,3.370000124E-1
2.271574701E0,4.185999870E0,1.491100025E1,1.819999963E-1
2.274062701E0,3.542000055E0,1.521300030E1,-2.199999988E-1
2.276550701E0,3.226000071E0,1.544299984E1,-5.260000229E-1
2.279038701E0,3.826999903E0,1.621599960E1,-4.900000095E-1
2.281526792E0,4.301000118E0,1.670999908E1,-8.519999981E-1
2.284014792E0,3.711999893E0,1.612800026E1,-1.264000058E0
2.286502792E0,4.143000126E0,1.617799950E1,-1.195000052E0
2.288990792E0,5.021999836E0,1.644400024E1,-1.503999949E0
2.291479023E0,5.593999863E0,1.647699928E1,-1.741000056E0
2.293966994E0,5.716000080E0,1.601300049E1,-2.494999886E0
2.296454994E0,5.988999844E0,1.593400002E1,-2.914000034E0
2.298943071E0,5.804999828E0,1.509300041E1,-3.141999960E0
2.301431071E0,6.262000084E0,1.477000046E1,-3.486999989E0
2.303919071E0,7.122000217E0,1.466399956E1,-3.562999964E0
2.306407013E0,7.600999832E0,1.445600033E1,-3.517999887E0
2.308895320E0,7.442999840E0,1.369699955E1,-3.517999887E0
2.311383090E0,7.184999943E0,1.312199974E1,-3.138999939E0
2.313871090E0,7.091000080E0,1.258100033E1,-2.857000113E0
2.316359090E0,7.137000084E0,1.200599957E1,-2.144999981E0
2.318847325E0,7.528999805E0,1.183100033E1,-1.590000033E0
2.321335325E0,7.735000134E0,1.165400028E1,-9.549999833E-1
2.323823325E0,7.532000065E0,1.109599972E1,-2.169999927E-1
2.326311325E0,7.440999985E0,1.081499958E1,2.509999871E-1
2.328799402E0,7.618000031E0,1.055399990E1,8.019999862E-1
2.331287397E0,7.572999954E0,1.038199997E1,1.218999982E0
2.333775397E0,7.525000095E0,1.004699993E1,1.524999976E0
2.336263628E0,7.280000210E0,9.661000252E0,1.669000030E0
2.338751628E0,7.467000008E0,9.515000343E0,1.626000047E0
2.341239628E0,7.909999847E0,9.302000046E0,1.800999999E0
2.343727647E0,7.916999817E0,9.138999939E0,1.452999949E0
2.346215647E0,7.521999836E0,9.006999969E0,1.465000033E0
2.348703647E0,7.328000069E0,8.805999756E0,1.184999943E0
2.351191647E0,7.201000214E0,8.786999702E0,9.459999800E-1
2.353679647E0,7.265999794E0,8.842000008E0,9.459999800E-1
2.356167715E0,7.537000179E0,8.887000084E0,6.990000010E-1
2.358655715E0,7.890999794E0,8.805999756E0,6.610000134E-1
2.361143715E0,7.934000015E0,8.828000069E0,6.919999719E-1
2.363631715E0,8.055999756E0,8.739000320E0,5.550000072E-1
2.366119946E0,8.071000099E0,8.640999794E0,5.479999781E-1
2.368607936E0,7.913000107E0,8.565999985E0,5.379999876E-1
2.371095936E0,7.656000137E0,8.477999687E0,6.029999852E-1
2.373584013E0,7.709000111E0,8.401000023E0,6.169999838E-1
2.376072013E0,7.770999908E0,8.336999893E0,5.809999704E-1
2.378560013E0,7.525000095E0,8.277000427E0,7.590000033E-1
2.381048013E0,7.651999950E0,8.380000114E0,5.580000281E-1
2.383536244E0,7.431000233E0,8.255000114E0,5.699999928E-1
2.386024244E0,7.558000088E0,8.175999641E0,4.189999998E-1
2.388512013E0,7.677999973E0,8.010999680E0,4.140000045E-1
2.391000244E0,7.822000027E0,7.872000217E0,2.010000050E-1
2.393488263E0,7.774000168E0,7.902999878E0,1.620000005E-1
2.395976340E0,8.137999535E0,7.940999985E0,3.799999952E-1
2.398464263E0,8.005999565E0,7.876999855E0,5.410000086E-1
2.400952263E0,7.782999992E0,7.916999817E0,8.109999895E-1
2.403440340E0,7.510000229E0,7.888999939E0,8.399999738E-1
2.405928345E0,7.322999954E0,7.769000053E0,1.092000008E0
2.408416345E0,7.163000107E0,7.548999786E0,1.335999966E0
2.410904575E0,7.201000214E0,7.461999893E0,1.299999952E0
2.413392575E0,7.073999882E0,7.289999962E0,1.444000006E0
2.415880575E0,7.201000214E0,6.888000011E0,1.480000019E0
2.418368633E0,7.031000137E0,6.722000122E0,1.587000012E0
2.420856556E0,7.002999783E0,6.605000019E0,1.547000051E0
2.423344633E0,6.791999817E0,6.546999931E0,1.585000038E0
2.425832633E0,6.557000160E0,6.703000069E0,1.572999954E0
2.428320633E0,6.343999863E0,6.573999882E0,1.289999962E0
2.430808609E0,6.106999874E0,6.761000156E0,1.343000054E0
2.433296840E0,5.992000103E0,6.842000008E0,1.009999990E0
2.435784609E0,5.625000000E0,7.046000004E0,8.690000176E-1
2.438272840E0,5.500999928E0,7.247000217E0,7.110000253E-1
2.440760840E0,5.572999954E0,7.318999767E0,6.579999924E-1
2.443248849E0,5.295000076E0,7.386000156E0,3.779999912E-1
2.445736849E0,4.885000229E0,7.577000141E0,2.010000050E-1
2.448224926E0,4.418000221E0,7.619999886E0,1.720000058E-1
2.450712926E0,4.250999928E0,7.698999882E0,5.000000075E-2
2.453200926E0,3.895999908E0,7.743000031E0,8.799999952E-2
2.455689172E0,3.444000006E0,8.043999672E0,9.300000221E-2
2.458177172E0,3.158999920E0,8.166999817E0,3.299999982E-2
2.460664941E0,3.191999912E0,8.260000229E0,9.499999881E-2
2.463153172E0,3.309000015E0,8.479999542E0,-2.649999857E-1
2.465641172E0,3.263999939E0,8.562000275E0,-4.140000045E-1
2.468129249E0,3.098999977E0,8.432000160E0,-4.499999881E-1
2.470617249E0,2.961999893E0,8.348999977E0,-4.189999998E-1
2.473105249E0,2.694000006E0,8.241000175E0,-4.189999998E-1
2.475593172E0,2.851999998E0,8.185999870E0,-5.070000291E-1
2.478081480E0,2.720000029E0,8.128000259E0,-4.210000038E-1
2.480569234E0,2.461999893E0,8.119000435E0,-5.360000134E-1
2.483057234E0,2.117000103E0,8.027999878E0,-5.189999938E-1
2.485545234E0,1.261999965E0,8.071000099E0,-5.360000134E-1
2.488033465E0,1.345999956E0,8.223999977E0,-6.800000072E-1
2.490521465E0,9.530000091E-1,8.394000053E0,-6.439999938E-1
2.493009542E0,4.550000131E-1,8.444000244E0,-6.129999757E-1
2.495497542E0,-8.600000292E-2,8.696000099E0,-5.189999938E-1
2.497985542E0,-1.600000076E-2,8.786999702E0,-7.540000081E-1
2.500473542E0,7.000000216E-3,9.026000023E0,-7.659999728E-1
2.502961772E0,-6.050000191E-1,9.144000053E0,-4.160000086E-1
2.505449791E0,-1.343000054E0,9.218000412E0,6.199999899E-2
2.507937561E0,-1.555999994E0,9.357000351E0,4.499999881E-1
2.510425791E0,-1.264000058E0,9.524000168E0,3.319999874E-1
2.512913791E0,-1.570999980E0,9.569999695E0,2.870000005E-1
2.515401791E0,-1.710000038E0,9.498000145E0,3.639999926E-1
2.517889868E0,-1.628000021E0,9.335000038E0,4.280000031E-1
2.520377791E0,-2.049999952E0,9.215999603E0,3.249999881E-1
2.522865868E0,-2.628999949E0,9.088999748E0,6.529999971E-1
2.525353868E0,-3.043999910E0,8.928000450E0,4.690000117E-1
2.527842099E0,-3.165999889E0,9.005000114E0,8.429999948E-1
2.530329873E0,-3.039000034E0,8.906999588E0,1.003000021E0
2.532818181E0,-3.111000061E0,8.939999580E0,1.021999955E0
2.535306104E0,-3.184999943E0,8.729000092E0,1.335999966E0
2.537794104E0,-3.665999889E0,8.559000015E0,1.286000013E0
2.540282181E0,-3.859999895E0,8.248000145E0,1.319000006E0
2.542770157E0,-4.464000225E0,7.986999989E0,1.598999977E0
2.545258157E0,-4.250999928E0,8.005999565E0,1.587000012E0
2.547746080E0,-4.415999889E0,8.015999794E0,1.644999981E0
2.550234388E0,-4.401999950E0,7.913000107E0,1.700000048E0
2.552722157E0,-4.703000069E0,7.934000015E0,1.623000026E0
2.555210181E0,-4.789999962E0,7.902999878E0,1.585000038E0
2.557698181E0,-4.835000038E0,7.981999874E0,1.393000007E0
2.560186412E0,-4.659999847E0,7.986999989E0,1.468000054E0
2.562674412E0,-4.652999878E0,8.258000374E0,1.383999944E0
2.565162489E0,-4.611999989E0,8.258000374E0,1.228000045E0
2.567650388E0,-4.964000225E0,8.303000450E0,1.192000031E0
2.570138465E0,-4.875999928E0,8.578000069E0,1.192000031E0
2.572626696E0,-5.091000080E0,8.590000153E0,1.141999960E0
2.575114465E0,-5.026999950E0,8.690999985E0,9.909999967E-1
2.577602696E0,-4.584000111E0,8.817999840E0,6.869999766E-1
2.580090715E0,-4.580999851E0,8.803999901E0,6.629999876E-1
2.582578715E0,-4.640999794E0,8.715000153E0,6.650000215E-1
2.585066715E0,-4.684000015E0,8.645999908E0,5.260000229E-1
2.587554792E0,-4.573999882E0,8.498999596E0,4.090000093E-1
2.590042792E0,-4.396999836E0,8.375000000E0,2.560000122E-1
2.592530701E0,-3.982000113E0,8.418000221E0,3.540000021E-1
2.595018778E0,-3.029000044E0,8.319999695E0,3.059999943E-1
2.597506778E0,-2.144999981E0,8.135000229E0,4.760000110E-1
2.599995008E0,-2.045000076E0,8.031999588E0,5.379999876E-1
2.602482778E0,-2.009000063E0,7.969999790E0,6.290000081E-1
2.604970783E0,-1.743000031E0,8.027999878E0,7.009999752E-1
2.607459013E0,-1.355000019E0,8.331999779E0,6.370000243E-1
2.609947013E0,-9.810000062E-1,8.559000015E0,6.940000057E-1
2.612435013E0,-6.679999828E-1,8.741000175E0,6.269999743E-1
2.614923090E0,-5.410000086E-1,8.878000259E0,5.289999843E-1
2.617411085E0,-2.649999857E-1,8.998000145E0,4.309999943E-1
2.619899085E0,-5.200000107E-2,9.093000412E0,4.090000093E-1
2.622387085E0,1.099999994E-1,9.218000412E0,2.099999934E-1
2.624875316E0,2.460000068E-1,9.215999603E0,2.319999933E-1
2.627363316E0,3.589999974E-1,9.206000328E0,7.000000216E-3
2.629851291E0,5.410000086E-1,9.267999649E0,-3.099999949E-2
2.632339291E0,6.340000033E-1,9.277999878E0,-4.500000179E-2
2.634827368E0,7.229999900E-1,9.232000351E0,-1.930000037E-1
2.637315368E0,8.090000153E-1,9.267999649E0,-2.389999926E-1
2.639803368E0,8.759999871E-1,9.498000145E0,-2.370000035E-1
2.642291281E0,9.649999738E-1,9.442999840E0,-3.109999895E-1
2.644779589E0,9.290000200E-1,9.536000252E0,-3.709999919E-1
2.647267358E0,1.019999981E0,9.545999527E0,-3.799999952E-1
2.649755589E0,1.036999941E0,9.637000084E0,-4.020000100E-1
2.652243589E0,9.929999709E-1,9.638999939E0,-3.680000007E-1
2.654731652E0,1.177999973E0,9.727999687E0,-2.919999957E-1
2.657219575E0,1.238000035E0,9.746999741E0,-3.869999945E-1
2.659707652E0,1.401000023E0,9.923999786E0,-3.470000029E-1
2.662195652E0,1.412999988E0,9.928999901E0,-3.519999981E-1
2.664683652E0,1.475000024E0,9.963000298E0,-2.099999934E-1
2.667171657E0,1.674000025E0,1.003699970E1,-3.160000145E-1
2.669659657E0,1.644999981E0,1.007499981E1,-2.290000021E-1
2.672147888E0,1.577999949E0,1.000599957E1,-1.459999979E-1
2.674635888E0,1.575000048E0,9.984000206E0,-2.300000004E-2
2.677123888E0,1.531999946E0,9.883999825E0,3.099999949E-2
2.679611878E0,1.304999948E0,9.968000412E0,1.340000033E-1
2.682099878E0,1.389000058E0,9.921999931E0,1.979999989E-1
2.684587955E0,1.207000017E0,9.984000206E0,2.560000122E-1
2.687075878E0,1.207000017E0,1.004699993E1,2.560000122E-1
2.689564185E0,1.243000031E0,9.953000069E0,3.319999874E-1
2.692052228E0,1.039000034E0,9.958000183E0,2.890000045E-1
2.694540228E0,1.001000047E0,9.897999763E0,2.529999912E-1
2.697027998E0,9.380000234E-1,9.782999992E0,2.169999927E-1
2.699516305E0,9.739999771E-1,9.800000191E0,2.489999980E-1
2.702004228E0,9.430000186E-1,9.699000359E0,1.959999949E-1
2.704492209E0,1.008000016E0,9.666000366E0,1.930000037E-1
2.706980209E0,1.001000047E0,9.675000191E0,2.150000036E-1
2.709468286E0,8.659999967E-1,9.656000137E0,3.039999902E-1
2.711956286E0,8.259999752E-1,9.720999718E0,3.589999974E-1
2.714444286E0,7.680000067E-1,9.670999527E0,3.849999905E-1
2.716932267E0,7.129999995E-1,9.637000084E0,4.329999983E-1
2.719420498E0,7.179999948E-1,9.708999634E0,5.910000205E-1
2.721908498E0,5.580000281E-1,9.746999741E0,5.770000219E-1
2.724396267E0,3.849999905E-1,9.708999634E0,6.529999971E-1
2.726884575E0,1.099999994E-2,9.694999695E0,7.919999957E-1
2.729372546E0,-1.080000043E0,9.369000435E0,1.154000044E0
2.731860546E0,-4.519999921E-1,9.404999733E0,5.580000281E-1
2.734348546E0,-1.889999956E-1,9.576999664E0,8.690000176E-1
2.736836546E0,2.730000019E-1,9.708999634E0,5.669999719E-1
2.739324777E0,3.519999981E-1,9.819000244E0,5.889999866E-1
2.741812555E0,2.849999964E-1,9.975000381E0,4.550000131E-1
2.744300786E0,1.169999987E-1,9.963000298E0,2.460000068E-1
2.746788786E0,-3.639999926E-1,9.802000046E0,5.379999876E-1
2.749276863E0,-6.610000134E-1,9.647000313E0,3.280000091E-1
2.751764786E0,-1.276000023E0,9.395000458E0,4.230000079E-1
2.754252849E0,-2.233999968E0,9.005000114E0,6.990000010E-1
2.756740849E0,-2.477999926E0,8.746000290E0,6.370000243E-1
2.759228849E0,-2.961999893E0,8.520999908E0,1.149000049E0
2.761716849E0,-2.779999971E0,8.387000084E0,1.080000043E0
2.764205080E0,-3.457999945E0,8.340999603E0,1.496000051E0
2.766693118E0,-3.542000055E0,8.303000450E0,1.536999941E0
2.769181118E0,-3.575000048E0,8.260000229E0,1.682999969E0
2.771669195E0,-3.493999958E0,8.326999664E0,1.743000031E0
2.774157195E0,-3.464999914E0,8.279000282E0,1.820000052E0
2.776645118E0,-3.349999905E0,8.248000145E0,1.889000058E0
2.779133195E0,-3.173000097E0,8.102000237E0,1.534999967E0
2.781621195E0,-2.576999903E0,8.053999901E0,1.187000036E0
2.784109425E0,-2.315000057E0,7.721000195E0,8.399999738E-1
2.786597425E0,-1.730999947E0,7.552999973E0,3.829999864E-1
2.789085425E0,-1.108000040E0,7.461999893E0,5.499999970E-2
2.791573190E0,-6.610000134E-1,7.435999870E0,-2.290000021E-1
2.794061497E0,-2.870000005E-1,7.473999977E0,-3.589999974E-1
2.796549420E0,5.200000107E-2,7.416999817E0,-5.720000267E-1
2.799037420E0,3.989999890E-1,7.251999855E0,-7.080000043E-1
2.801525497E0,8.640000224E-1,7.315999985E0,-5.770000219E-1
2.804013478E0,1.144000053E0,7.421999931E0,-4.880000055E-1
2.806501478E0,1.356999993E0,7.551000118E0,-3.869999945E-1
2.808989709E0,1.626000047E0,7.665999889E0,-3.249999881E-1
2.811477709E0,1.628000021E0,7.842999935E0,-1.260000020E-1
2.813965709E0,1.692999959E0,8.003999710E0,-1.309999973E-1
2.816453714E0,1.786000013E0,8.163999557E0,1.500000060E-1
2.818941791E0,1.937000036E0,8.321999550E0,-6.700000167E-2
2.821429791E0,1.978000045E0,8.425000191E0,-7.599999756E-2
2.823917791E0,1.939000010E0,8.652999878E0,8.999999613E-3
2.826405791E0,1.896000028E0,8.772000313E0,-1.000000015E-1
2.828893805E0,1.850999951E0,8.848999977E0,-1.790000051E-1
2.831381805E0,1.860000014E0,9.005000114E0,-1.819999963E-1
2.833870036E0,1.700000048E0,9.171999931E0,-3.709999919E-1
2.836357805E0,1.680999994E0,9.220000267E0,-4.090000093E-1
2.838846113E0,1.439000010E0,9.076999664E0,-4.379999936E-1
2.841334036E0,1.093999982E0,9.128999710E0,-6.200000048E-1
2.843822113E0,6.269999743E-1,9.045000076E0,-5.310000181E-1
2.846310113E0,3.249999881E-1,9.093000412E0,-3.560000062E-1
2.848798344E0,1.860000044E-1,9.159999847E0,-4.189999998E-1
2.851286113E0,2.339999974E-1,9.156000137E0,-3.610000014E-1
2.853774099E0,3.490000069E-1,9.232000351E0,-3.680000007E-1
2.856262330E0,1.930000037E-1,9.239000320E0,-3.400000036E-1
2.858750330E0,4.670000076E-1,9.286999702E0,-1.909999996E-1
2.861238330E0,3.059999943E-1,9.279999733E0,-2.010000050E-1
2.863726330E0,2.029999942E-1,9.282999992E0,-5.499999970E-2
2.866214416E0,3.160000145E-1,9.298999786E0,8.100000024E-2
2.868702416E0,1.819999963E-1,9.267999649E0,2.919999957E-1
2.871190416E0,1.739999950E-1,9.192000389E0,2.770000100E-1
2.873678416E0,1.860000044E-1,9.147999763E0,3.899999857E-1
2.876166646E0,1.360000074E-1,9.119999886E0,4.379999936E-1
2.878654641E0,1.309999973E-1,9.159999847E0,4.140000045E-1
2.881142641E0,1.600000076E-2,9.201000214E0,4.189999998E-1
2.883630718E0,-1.049999967E-1,9.225000381E0,4.040000141E-1
2.886118641E0,-1.459999979E-1,9.187000275E0,4.280000031E-1
2.888606718E0,-1.190000027E-1,9.119999886E0,3.779999912E-1
2.891094599E0,-1.340000033E-1,9.168000221E0,4.979999959E-1
2.893582676E0,-2.440000027E-1,9.137000084E0,4.740000069E-1
2.896070676E0,-2.409999967E-1,9.175000191E0,4.140000045E-1
2.898558676E0,-2.319999933E-1,9.279999733E0,4.189999998E-1
2.901046676E0,-3.300000131E-1,9.114999771E0,4.900000095E-1
2.903534926E0,-2.169999927E-1,9.074000359E0,2.960000038E-1
2.906022926E0,-2.300000004E-2,9.024000168E0,3.400000036E-1
2.908510926E0,6.400000304E-2,9.171999931E0,3.109999895E-1
2.910998926E0,-1.099999994E-1,9.000000000E0,2.610000074E-1
2.913487003E0,-1.169999987E-1,9.010000229E0,2.220000029E-1
2.915975031E0,-2.610000074E-1,8.942999840E0,1.379999965E-1
2.918463031E0,-3.420000076E-1,8.937999725E0,2.029999942E-1
2.920951262E0,-2.460000068E-1,8.928000450E0,3.199999928E-1
2.923439262E0,-4.620000124E-1,9.010000229E0,2.750000060E-1
2.925927262E0,-3.400000036E-1,8.956999779E0,1.410000026E-1
2.928415291E0,-2.750000060E-1,9.019000053E0,1.360000074E-1
2.930903291E0,-2.169999927E-1,9.069000244E0,7.599999756E-2
2.933391368E0,-2.649999857E-1,9.012000084E0,-1.600000076E-2
2.935879291E0,-3.079999983E-1,9.081000328E0,-1.099999994E-2
2.938367291E0,-2.939999998E-1,9.114999771E0,-3.799999878E-2
2.940855354E0,-2.649999857E-1,9.022000313E0,0.000000000E0
2.943343354E0,-3.059999943E-1,9.100999832E0,-8.100000024E-2
2.945831354E0,-2.169999927E-1,9.076999664E0,-2.010000050E-1
2.948319354E0,-1.430000067E-1,9.145999908E0,-1.669999957E-1
2.950807585E0,-2.080000043E-1,9.074000359E0,-3.999999911E-2
2.953295613E0,-1.340000033E-1,9.112999916E0,-1.239999980E-1
2.955783613E0,-2.750000060E-1,9.206000328E0,-1.340000033E-1
2.958271689E0,-3.899999857E-1,9.171999931E0,-5.499999970E-2
2.960759690E0,-3.639999926E-1,9.116999626E0,-6.700000167E-2
2.963247690E0,-1.500000060E-1,9.151000023E0,-9.099999815E-2
2.965735652E0,-8.100000024E-2,9.260999680E0,-3.999999911E-2
2.968223882E0,-1.070000008E-1,9.309000015E0,-7.100000232E-2
2.970711882E0,-2.680000067E-1,9.248999596E0,-9.099999815E-2
2.973199882E0,-3.729999959E-1,9.204000473E0,-4.300000146E-2
2.975687882E0,-4.810000062E-1,9.248999596E0,-5.000000075E-2
2.978175949E0,-4.309999943E-1,9.184000015E0,-7.599999756E-2
2.980663949E0,-4.160000086E-1,9.253999710E0,-1.500000060E-1
2.983151872E0,-2.870000005E-1,9.152999878E0,-2.409999967E-1
2.985639949E0,-2.870000005E-1,9.196000099E0,-1.169999987E-1
2.988127949E0,-2.939999998E-1,9.194000244E0,-5.200000107E-2
2.990615988E0,-2.960000038E-1,9.138999939E0,-1.000000015E-1
2.993103988E0,-4.090000093E-1,9.175000191E0,-8.799999952E-2
2.995592219E0,-4.709999859E-1,9.229999542E0,-1.239999980E-1
2.998080219E0,-4.900000095E-1,9.093000412E0,-2.300000004E-2
3.000568219E0,-4.740000069E-1,9.064999580E0,-1.070000008E-1
3.003056238E0,-3.899999857E-1,9.090999603E0,2.000000095E-3
3.005544315E0,-4.670000076E-1,9.038000107E0,5.200000107E-2
3.008032315E0,-3.759999871E-1,9.074000359E0,-2.300000004E-2
3.010520315E0,-4.880000055E-1,9.095999718E0,1.400000043E-2
3.013008315E0,-5.310000181E-1,9.125000000E0,-3.099999949E-2
3.015496536E0,-4.790000021E-1,9.126999855E0,-2.099999972E-2
3.017984536E0,-5.049999952E-1,9.104999542E0,3.099999949E-2
3.020472536E0,-5.000000000E-1,9.053000450E0,-3.999999911E-2
3.022960536E0,-4.350000024E-1,9.034000397E0,-7.599999756E-2
3.025448613E0,-4.620000124E-1,9.112999916E0,-2.000000095E-3
3.027936633E0,-4.210000038E-1,9.145999908E0,-1.169999987E-1
3.030424633E0,-4.519999921E-1,9.050000191E0,-1.309999973E-1
3.032912633E0,-4.280000031E-1,9.152999878E0,-3.099999949E-2
3.035400864E0,-5.220000148E-1,9.095999718E0,-2.000000095E-3
3.037888633E0,-5.120000243E-1,9.095999718E0,-3.500000015E-2
3.040376855E0,-4.569999874E-1,9.152999878E0,-3.999999911E-2
3.042864855E0,-4.210000038E-1,9.144000053E0,-9.300000221E-2
3.045352855E0,-3.560000062E-1,9.102999687E0,-4.300000146E-2
3.047840855E0,-3.179999888E-1,9.208000183E0,-4.699999839E-2
3.050328931E0,-2.939999998E-1,9.151000023E0,-8.600000292E-2
3.052816960E0,-2.849999964E-1,9.192000389E0,-1.099999994E-1
3.055304961E0,-3.109999895E-1,9.213000298E0,-1.239999980E-1
3.057792961E0,-2.269999981E-1,9.159999847E0,-1.000000015E-1
3.060280961E0,-2.680000067E-1,9.088999748E0,-1.000000015E-1
3.062769191E0,-1.000000015E-1,9.152999878E0,2.800000086E-2
3.065257186E0,-1.550000012E-1,9.168000221E0,8.999999613E-3
3.067745186E0,-1.070000008E-1,9.144000053E0,-1.260000020E-1
3.070233186E0,-1.360000074E-1,9.079000473E0,-4.000000190E-3
3.072721186E0,-1.140000001E-1,9.121999741E0,7.000000216E-3
3.075209263E0,-7.599999756E-2,9.175000191E0,-1.340000033E-1
3.077697277E0,-2.300000004E-2,9.211000443E0,-7.900000364E-2
3.080185508E0,-5.000000075E-2,9.043000221E0,-1.070000008E-1
3.082673277E0,8.999999613E-3,9.109999657E0,-8.799999952E-2
3.085161508E0,1.600000076E-2,9.001999855E0,-7.599999756E-2
3.087649508E0,7.900000364E-2,9.069000244E0,-1.430000067E-1
3.090137628E0,7.599999756E-2,9.104999542E0,-1.070000008E-1
3.092625551E0,1.379999965E-1,9.151000023E0,-8.600000292E-2
3.095113551E0,1.410000026E-1,9.074000359E0,-1.599999964E-1
3.097601551E0,1.169999987E-1,9.119999886E0,-2.220000029E-1
3.100089628E0,1.430000067E-1,9.126999855E0,-1.930000037E-1
3.102577614E0,2.370000035E-1,9.163000107E0,-2.129999995E-1
3.105065614E0,2.649999857E-1,9.045000076E0,-1.459999979E-1
3.107553614E0,3.280000091E-1,9.126999855E0,-3.059999943E-1
3.110041845E0,2.700000107E-1,9.133999825E0,-1.500000060E-1
3.112529845E0,3.039999902E-1,9.138999939E0,-1.790000051E-1
3.115017845E0,3.009999990E-1,9.090999603E0,-1.430000067E-1
3.117505922E0,3.039999902E-1,9.112999916E0,-1.190000027E-1
3.119993922E0,3.540000021E-1,9.232000351E0,-2.199999988E-1
3.122481922E0,4.379999936E-1,9.083999634E0,-1.309999973E-1
3.124970153E0,5.860000253E-1,9.102999687E0,-1.700000018E-1
3.127458124E0,5.669999719E-1,9.131999969E0,-1.580000073E-1
3.129946124E0,5.649999976E-1,9.060000420E0,-2.800000012E-1
3.132434124E0,4.740000069E-1,9.081000328E0,-2.199999988E-1
3.134922124E0,5.099999905E-1,8.949999809E0,-4.500000179E-2
3.137410200E0,3.849999905E-1,9.036000252E0,-1.360000074E-1
3.139898205E0,4.550000131E-1,9.045000076E0,4.500000179E-2
3.142386205E0,4.830000103E-1,9.088999748E0,1.099999994E-2
3.144874205E0,4.210000038E-1,9.086000443E0,-4.500000179E-2
3.147362205E0,4.880000055E-1,9.038000107E0,-1.600000076E-2
3.149850205E0,6.489999890E-1,8.987999916E0,-5.200000107E-2
3.152338177E0,5.669999719E-1,8.961999893E0,7.000000216E-3
3.154826407E0,5.770000219E-1,8.973999977E0,2.000000095E-3
3.157314407E0,6.010000110E-1,8.968999863E0,-2.300000004E-2
3.159802407E0,5.220000148E-1,8.973999977E0,4.000000190E-3
3.162290484E0,4.880000055E-1,9.010000229E0,-4.000000190E-3
3.164778508E0,4.070000052E-1,8.932999611E0,5.900000036E-2
3.167266508E0,4.210000038E-1,9.055000305E0,3.299999982E-2
3.169754508E0,4.930000007E-1,8.862999916E0,8.100000024E-2
3.172242739E0,4.830000103E-1,8.875000000E0,1.099999994E-2
3.174730739E0,5.550000072E-1,8.810999870E0,7.000000216E-3
3.177218739E0,5.260000229E-1,8.998000145E0,-1.899999939E-2
3.179706739E0,3.849999905E-1,8.918999672E0,6.899999827E-2
3.182194739E0,4.399999976E-1,8.989999771E0,-5.499999970E-2
3.184682816E0,5.289999843E-1,8.902000427E0,-5.900000036E-2
3.187170816E0,4.930000007E-1,8.904000282E0,-4.000000190E-3
3.189658725E0,5.220000148E-1,8.980999947E0,8.999999613E-3
3.192147033E0,3.919999897E-1,9.093000412E0,-1.340000033E-1
3.194634802E0,4.709999859E-1,9.064999580E0,5.200000107E-2
3.197123033E0,5.460000038E-1,9.022000313E0,-3.799999878E-2
3.199611033E0,4.790000021E-1,9.043000221E0,-2.099999972E-2
3.202099013E0,4.259999990E-1,9.083999634E0,3.299999982E-2
3.204587013E0,6.050000191E-1,8.982999802E0,-1.070000008E-1
3.207075013E0,6.079999804E-1,9.026000023E0,-7.900000364E-2
3.209563090E0,5.600000024E-1,9.090999603E0,-2.049999982E-1
3.212051090E0,5.619999766E-1,9.060000420E0,-1.580000073E-1
3.214539100E0,5.019999743E-1,9.026000023E0,-1.360000074E-1
3.217027100E0,5.929999948E-1,9.131999969E0,-1.169999987E-1
3.219515331E0,5.500000119E-1,9.079000473E0,-1.430000067E-1
3.222003331E0,6.320000291E-1,9.081000328E0,-1.979999989E-1
3.224491331E0,4.670000076E-1,9.137000084E0,-1.500000060E-1
3.226979297E0,4.810000062E-1,9.157999992E0,-6.700000167E-2
3.229467373E0,5.889999866E-1,9.144000053E0,-1.860000044E-1
3.231955373E0,5.379999876E-1,9.034000397E0,-1.500000060E-1
3.234443373E0,5.239999890E-1,9.064999580E0,-1.169999987E-1
3.236931604E0,6.629999876E-1,9.145999908E0,-1.260000020E-1
3.239419628E0,6.169999838E-1,9.121999741E0,-1.599999964E-1
3.241907397E0,6.079999804E-1,9.104999542E0,-1.140000001E-1
3.244395628E0,5.410000086E-1,9.138999939E0,-1.720000058E-1
3.246883628E0,5.220000148E-1,9.137000084E0,-1.140000001E-1
3.249371705E0,5.550000072E-1,9.182000160E0,-2.049999982E-1
3.251859594E0,5.929999948E-1,9.088999748E0,-1.430000067E-1
3.254347671E0,5.720000267E-1,9.144000053E0,-1.979999989E-1
3.256835671E0,5.889999866E-1,9.137000084E0,-2.700000107E-1
3.259323671E0,6.840000153E-1,9.093000412E0,-2.150000036E-1
3.261811671E0,6.890000105E-1,9.022000313E0,-2.049999982E-1
3.264299647E0,5.699999928E-1,9.104999542E0,-1.550000012E-1
3.266787878E0,5.550000072E-1,9.121999741E0,-1.819999963E-1
3.269275878E0,4.519999921E-1,9.163000107E0,-5.900000036E-2
3.271763878E0,5.289999843E-1,9.140999794E0,-8.299999684E-2
3.274251955E0,5.070000291E-1,9.112999916E0,1.099999994E-2
3.276739974E0,5.550000072E-1,9.005000114E0,-9.099999815E-2
3.279227974E0,5.000000000E-1,9.013999939E0,-1.260000020E-1
3.281715974E0,4.930000007E-1,9.043000221E0,-3.999999911E-2
3.284204205E0,5.099999905E-1,9.050000191E0,-4.699999839E-2
3.286692205E0,4.620000124E-1,9.121999741E0,-3.299999982E-2
3.289180181E0,4.090000093E-1,9.074000359E0,5.900000036E-2
3.291668181E0,3.779999912E-1,9.138999939E0,6.700000167E-2
3.294156258E0,3.370000124E-1,9.133999825E0,6.700000167E-2
3.296644181E0,3.470000029E-1,9.121999741E0,3.799999878E-2
3.299132258E0,2.579999864E-1,9.151000023E0,1.239999980E-1
3.301620181E0,2.169999927E-1,9.170000076E0,1.289999932E-1
3.304108258E0,2.870000005E-1,9.109999657E0,7.100000232E-2
3.306596258E0,2.750000060E-1,9.192000389E0,8.799999952E-2
3.309084258E0,3.280000091E-1,9.232000351E0,2.600000054E-2
3.311572488E0,1.700000018E-1,9.168000221E0,6.899999827E-2
3.314060560E0,2.150000036E-1,9.180000305E0,1.600000076E-2
3.316548484E0,2.290000021E-1,9.152999878E0,4.300000146E-2
3.319036484E0,1.770000011E-1,9.093000412E0,4.000000190E-3
3.321524560E0,1.220000014E-1,9.152999878E0,-1.459999979E-1
3.324012560E0,1.430000067E-1,9.164999962E0,-2.600000054E-2
3.326500570E0,1.190000027E-1,9.088999748E0,-7.100000232E-2
3.328988570E0,2.150000036E-1,9.116999626E0,-4.000000190E-3
3.331476801E0,1.700000018E-1,9.180000305E0,-3.299999982E-2
3.333964801E0,1.700000018E-1,9.171999931E0,-2.300000004E-2
3.336452570E0,1.889999956E-1,9.194000244E0,-5.900000036E-2
3.338940810E0,1.410000026E-1,9.196000099E0,4.000000190E-3
3.341428887E0,1.459999979E-1,9.177000046E0,-5.200000107E-2
3.343916887E0,1.049999967E-1,9.270999908E0,-9.499999881E-2
3.346404887E0,7.100000232E-2,9.218000412E0,-9.300000221E-2
3.348893118E0,1.140000001E-1,9.208000183E0,-1.260000020E-1
3.351381137E0,7.900000364E-2,9.232000351E0,-5.000000075E-2
3.353869137E0,1.049999967E-1,9.168000221E0,-1.099999994E-1
3.356357137E0,1.360000074E-1,9.208000183E0,-1.819999963E-1
3.358845137E0,1.099999994E-1,9.255999565E0,-4.500000179E-2
3.361333214E0,5.200000107E-2,9.182000160E0,4.300000146E-2
3.363821133E0,8.799999952E-2,9.159999847E0,-9.799999744E-2
3.366309210E0,1.099999994E-1,9.270999908E0,-8.100000024E-2
3.368797210E0,3.799999878E-2,9.208000183E0,-5.900000036E-2
3.371285210E0,6.199999899E-2,9.194000244E0,2.000000095E-3
3.373773210E0,4.500000179E-2,9.232000351E0,-4.699999839E-2
3.376261200E0,1.260000020E-1,9.107999802E0,4.000000190E-3
3.378749431E0,1.070000008E-1,9.119999886E0,8.999999613E-3
3.381237431E0,5.200000107E-2,9.060000420E0,-4.000000190E-3
3.383725431E0,8.799999952E-2,9.232000351E0,-4.000000190E-3
3.386213508E0,8.999999613E-3,9.170000076E0,-1.899999939E-2
3.388701416E0,7.100000232E-2,9.192000389E0,-2.800000086E-2
3.391189493E0,2.800000086E-2,9.138999939E0,-5.900000036E-2
3.393677493E0,1.049999967E-1,9.128999710E0,8.600000292E-2
3.396165723E0,8.799999952E-2,9.156000137E0,-1.899999939E-2
3.398653723E0,1.600000076E-2,9.090999603E0,-3.099999949E-2
3.401141728E0,-5.900000036E-2,9.244000435E0,-3.999999911E-2
3.403629498E0,8.799999952E-2,9.145999908E0,3.099999949E-2
3.406117805E0,8.100000024E-2,9.062000275E0,2.800000086E-2
3.408605805E0,8.100000024E-2,9.071999550E0,-4.500000179E-2
3.411093729E0,4.300000146E-2,9.079000473E0,6.400000304E-2
3.413581805E0,5.499999970E-2,9.104999542E0,5.700000003E-2
3.416069805E0,7.100000232E-2,9.128999710E0,-2.000000095E-3
3.418557805E0,8.799999952E-2,9.102999687E0,-5.200000107E-2
3.421045805E0,-5.900000036E-2,9.182000160E0,6.899999827E-2
3.423534036E0,-1.899999939E-2,9.090999603E0,-6.899999827E-2
3.426022046E0,-4.300000146E-2,9.222999573E0,-8.100000024E-2
3.428510046E0,0.000000000E0,9.137000084E0,5.000000075E-2
3.430998123E0,2.099999972E-2,9.184000015E0,-2.000000095E-3
3.433486123E0,6.199999899E-2,9.168000221E0,-1.099999994E-1
3.435974123E0,2.000000095E-3,9.170000076E0,-6.899999827E-2
3.438462142E0,-7.000000216E-3,9.137000084E0,-3.999999911E-2
3.440950373E0,7.599999756E-2,9.196000099E0,0.000000000E0
3.443438373E0,8.100000024E-2,9.206000328E0,-7.599999756E-2
3.445926373E0,4.699999839E-2,9.206000328E0,2.600000054E-2
3.448414373E0,7.599999756E-2,9.164999962E0,1.600000076E-2
3.450902411E0,9.300000221E-2,9.177000046E0,-2.600000054E-2
3.453390488E0,7.900000364E-2,9.184000015E0,0.000000000E0
3.455878488E0,3.099999949E-2,9.145999908E0,-9.099999815E-2
3.458366488E0,1.000000015E-1,9.112999916E0,-7.900000364E-2
3.460854719E0,1.190000027E-1,9.121999741E0,-6.700000167E-2
3.463342517E0,-5.700000003E-2,9.104999542E0,-1.049999967E-1
3.465830748E0,0.000000000E0,9.076999664E0,-1.790000051E-1
3.468318748E0,6.400000304E-2,9.071999550E0,-1.480000019E-1
3.470806748E0,3.299999982E-2,9.147999763E0,-5.900000036E-2
3.473294748E0,-1.899999939E-2,9.119999886E0,-1.459999979E-1
3.475782729E0,1.000000015E-1,9.074000359E0,-1.819999963E-1
3.478270806E0,9.099999815E-2,9.151000023E0,-2.150000036E-1
3.480758806E0,5.900000036E-2,9.138999939E0,-1.979999989E-1
3.483246806E0,1.099999994E-2,9.114999771E0,-2.319999933E-1
3.485734806E0,6.199999899E-2,9.086000443E0,-2.730000019E-1
3.488223026E0,1.600000076E-2,9.114999771E0,-1.739999950E-1
3.490711026E0,1.260000020E-1,9.177000046E0,-2.440000027E-1
3.493199026E0,9.799999744E-2,9.043000221E0,-2.939999998E-1
3.495687026E0,1.580000073E-1,9.029000282E0,-2.199999988E-1
3.498175103E0,1.309999973E-1,9.116999626E0,-2.099999934E-1
3.500663098E0,1.669999957E-1,9.097999573E0,-2.800000012E-1
3.503151098E0,1.889999956E-1,8.998000145E0,-3.919999897E-1
3.505639329E0,2.339999974E-1,9.064999580E0,-3.639999926E-1
3.508127329E0,2.150000036E-1,9.064999580E0,-3.059999943E-1
3.510615329E0,1.650000066E-1,9.100999832E0,-2.630000114E-1
3.513103310E0,3.160000145E-1,9.112999916E0,-2.529999912E-1
3.515591387E0,2.610000074E-1,9.119999886E0,-3.319999874E-1
3.518079310E0,3.490000069E-1,8.982999802E0,-3.709999919E-1
3.520567387E0,2.849999964E-1,9.026000023E0,-3.059999943E-1
3.523055310E0,3.160000145E-1,9.170000076E0,-2.630000114E-1
3.525543392E0,3.950000107E-1,9.067000389E0,-3.009999990E-1
3.528031392E0,3.709999919E-1,9.097999573E0,-3.179999888E-1
3.530519392E0,3.950000107E-1,9.079000473E0,-3.249999881E-1
3.533007392E0,3.950000107E-1,9.034000397E0,-3.370000124E-1
3.535495623E0,4.569999874E-1,9.081000328E0,-3.610000014E-1
3.537983613E0,4.810000062E-1,8.977999687E0,-3.039999902E-1
3.540471613E0,4.280000031E-1,9.131999969E0,-3.109999895E-1
3.542959690E0,5.019999743E-1,9.001999855E0,-2.870000005E-1
3.545447690E0,5.019999743E-1,9.005000114E0,-2.529999912E-1
3.547935690E0,5.339999795E-1,9.079000473E0,-3.779999912E-1
3.550423686E0,5.360000134E-1,9.053000450E0,-3.540000021E-1
3.552911917E0,5.099999905E-1,9.074000359E0,-2.649999857E-1
3.555399917E0,4.280000031E-1,9.074000359E0,-3.199999928E-1
3.557887686E0,4.810000062E-1,9.109999657E0,-2.700000107E-1
3.560375917E0,5.860000253E-1,9.102999687E0,-3.129999936E-1
3.562863989E0,4.830000103E-1,9.088999748E0,-2.269999981E-1
3.565351989E0,4.860000014E-1,9.121999741E0,-1.959999949E-1
3.567839989E0,4.709999859E-1,9.125000000E0,-2.730000019E-1
3.570327989E0,5.720000267E-1,9.152999878E0,-3.350000083E-1
3.572816219E0,4.950000048E-1,9.128999710E0,-3.009999990E-1
3.575304228E0,6.439999938E-1,9.104999542E0,-2.579999864E-1
3.577791998E0,4.519999921E-1,9.119999886E0,-3.009999990E-1
3.580280228E0,5.910000205E-1,9.145999908E0,-3.440000117E-1
3.582768305E0,5.289999843E-1,9.125000000E0,-3.420000076E-1
3.585256228E0,5.809999704E-1,9.156000137E0,-5.379999876E-1
3.587744286E0,5.379999876E-1,9.079000473E0,-3.179999888E-1
3.590232286E0,4.040000141E-1,9.083999634E0,-3.300000131E-1
3.592720286E0,4.469999969E-1,9.060000420E0,-3.639999926E-1
3.595208286E0,4.550000131E-1,9.140999794E0,-3.420000076E-1
3.597696286E0,4.210000038E-1,9.152999878E0,-1.580000073E-1
3.600184493E0,4.740000069E-1,9.114999771E0,-3.300000131E-1
3.602672493E0,4.449999928E-1,9.100999832E0,-2.800000012E-1
3.605160493E0,4.670000076E-1,9.057000160E0,-3.759999871E-1
3.607648493E0,4.230000079E-1,9.029000282E0,-2.870000005E-1
3.610136570E0,4.469999969E-1,9.071999550E0,-3.319999874E-1
3.612624570E0,3.709999919E-1,9.043000221E0,-3.350000083E-1
3.615112570E0,4.110000134E-1,9.119999886E0,-3.400000036E-1
3.617600570E0,3.540000021E-1,9.036000252E0,-3.680000007E-1
3.620088570E0,4.140000045E-1,9.045000076E0,-3.009999990E-1
3.622576801E0,4.550000131E-1,9.029000282E0,-2.730000019E-1
3.625064826E0,3.540000021E-1,9.031000137E0,-3.490000069E-1
3.627552903E0,3.540000021E-1,9.029000282E0,-3.109999895E-1
3.630040903E0,3.109999895E-1,8.998000145E0,-3.759999871E-1
3.632528826E0,3.009999990E-1,9.088999748E0,-4.280000031E-1
3.635016903E0,2.750000060E-1,9.074000359E0,-3.589999974E-1
3.637504879E0,3.109999895E-1,8.973999977E0,-4.140000045E-1
3.639993110E0,2.460000068E-1,9.013999939E0,-3.319999874E-1
3.642480879E0,1.669999957E-1,9.055000305E0,-4.709999859E-1
3.644969110E0,2.700000107E-1,9.005000114E0,-4.449999928E-1
3.647457110E0,2.770000100E-1,8.951999664E0,-3.989999890E-1
3.649945196E0,2.080000043E-1,9.069000244E0,-3.610000014E-1
3.652433119E0,2.610000074E-1,9.083999634E0,-3.849999905E-1
3.654921119E0,1.260000020E-1,9.005000114E0,-2.339999974E-1
3.657409196E0,2.509999871E-1,9.053000450E0,-3.899999857E-1
3.659897196E0,2.610000074E-1,8.998000145E0,-3.199999928E-1
3.662385421E0,1.529999971E-1,9.069000244E0,-3.300000131E-1
3.664873421E0,1.889999956E-1,9.043000221E0,-3.950000107E-1
3.667361421E0,1.410000026E-1,9.050000191E0,-3.610000014E-1
3.669849421E0,2.049999982E-1,9.093000412E0,-2.680000067E-1
3.672337421E0,1.620000005E-1,9.164999962E0,-2.919999957E-1
3.674825498E0,9.300000221E-2,9.104999542E0,-3.829999864E-1
3.677313498E0,9.099999815E-2,9.157999992E0,-2.649999857E-1
3.679801498E0,1.099999994E-1,9.034000397E0,-3.370000124E-1
3.682289498E0,1.140000001E-1,9.156000137E0,-3.249999881E-1
3.684777729E0,1.070000008E-1,9.187000275E0,-2.960000038E-1
3.687265724E0,6.400000304E-2,9.244000435E0,-3.729999959E-1
3.689753724E0,6.400000304E-2,9.206000328E0,-2.339999974E-1
3.692241493E0,-4.000000190E-3,9.126999855E0,-2.849999964E-1
3.694729724E0,2.600000054E-2,9.194000244E0,-3.680000007E-1
3.697217801E0,-1.899999939E-2,9.175000191E0,-2.849999964E-1
3.699705729E0,-6.700000167E-2,9.215999603E0,-3.869999945E-1
3.702194037E0,8.999999613E-3,9.255999565E0,-2.389999926E-1
3.704681806E0,-3.299999982E-2,9.222999573E0,-2.680000067E-1
3.707169806E0,-3.099999949E-2,9.340000153E0,-2.169999927E-1
3.709658037E0,-2.099999972E-2,9.248999596E0,-2.169999927E-1
3.712146056E0,-2.000000095E-3,9.241999626E0,-2.560000122E-1
3.714634056E0,-6.899999827E-2,9.159999847E0,-3.589999974E-1
3.717122056E0,-1.220000014E-1,9.262999535E0,-3.470000029E-1
3.719610056E0,-6.700000167E-2,9.246999741E0,-4.020000100E-1
3.722098133E0,-6.199999899E-2,9.258999825E0,-3.160000145E-1
3.724586148E0,2.300000004E-2,9.322999954E0,-2.820000052E-1
3.727074148E0,-7.100000232E-2,9.206000328E0,-3.230000138E-1
3.729562148E0,-1.600000076E-2,9.303999901E0,-2.849999964E-1
3.732050379E0,-6.400000304E-2,9.272999763E0,-2.389999926E-1
3.734538379E0,-5.900000036E-2,9.314000130E0,-3.440000117E-1
3.737026374E0,-6.700000167E-2,9.272999763E0,-3.059999943E-1
3.739514451E0,5.700000003E-2,9.192000389E0,-2.579999864E-1
3.742002451E0,-1.140000001E-1,9.225000381E0,-3.709999919E-1
3.744490451E0,-3.500000015E-2,9.157999992E0,-2.680000067E-1
3.746978451E0,-6.700000167E-2,9.177000046E0,-1.979999989E-1
3.749466676E0,-4.500000179E-2,9.159999847E0,-2.339999974E-1
3.751954446E0,4.000000190E-3,9.114999771E0,-2.339999974E-1
3.754442446E0,-2.600000054E-2,9.144000053E0,-1.599999964E-1
3.756930676E0,-7.900000364E-2,9.208000183E0,-2.099999934E-1
3.759418753E0,-5.000000075E-2,9.170000076E0,-1.529999971E-1
3.761906667E0,-3.099999949E-2,9.133999825E0,-1.819999963E-1
3.764394667E0,-3.299999982E-2,9.218000412E0,-2.409999967E-1
3.766882667E0,-3.099999949E-2,9.151000023E0,-1.620000005E-1
3.769370744E0,-1.099999994E-2,9.071999550E0,-1.770000011E-1
3.771858744E0,-2.600000054E-2,9.060000420E0,-1.169999987E-1
3.774346753E0,5.700000003E-2,9.119999886E0,-2.150000036E-1
3.776834984E0,5.200000107E-2,9.067000389E0,-1.529999971E-1
3.779322984E0,7.900000364E-2,9.121999741E0,-1.819999963E-1
3.781810984E0,1.019999981E-1,9.116999626E0,-1.959999949E-1
3.784299061E0,-5.000000075E-2,9.069000244E0,-2.099999934E-1
3.786787061E0,8.600000292E-2,9.071999550E0,-2.560000122E-1
3.789275061E0,7.400000095E-2,9.097999573E0,-1.459999979E-1
3.791763061E0,3.500000015E-2,9.182000160E0,-1.289999932E-1
3.794251292E0,4.300000146E-2,9.076999664E0,-2.610000074E-1
3.796739292E0,5.900000036E-2,9.137000084E0,-2.010000050E-1
3.799227311E0,3.500000015E-2,9.133999825E0,-8.799999952E-2
3.801715311E0,5.200000107E-2,9.133999825E0,-1.840000004E-1
3.804203311E0,3.999999911E-2,9.171999931E0,-2.049999982E-1
3.806691311E0,-3.299999982E-2,9.199000359E0,-1.550000012E-1
3.809179388E0,-1.600000076E-2,9.109999657E0,-2.199999988E-1
3.811667306E0,4.300000146E-2,9.151000023E0,-1.580000073E-1
3.814155383E0,1.099999994E-2,9.112999916E0,-2.269999981E-1
3.816643383E0,-7.000000216E-3,9.144000053E0,-1.909999996E-1
3.819131383E0,-3.799999878E-2,9.170000076E0,-1.360000074E-1
3.821619614E0,-2.099999972E-2,9.126999855E0,-2.509999871E-1
3.824107589E0,-8.999999613E-3,9.159999847E0,-1.220000014E-1
3.826595589E0,-2.099999972E-2,9.104999542E0,-1.669999957E-1
3.829083589E0,-6.199999899E-2,9.175000191E0,-1.430000067E-1
3.831571666E0,4.500000179E-2,9.168000221E0,-3.999999911E-2
3.834059666E0,2.600000054E-2,9.104999542E0,-1.529999971E-1
3.836547652E0,2.000000095E-3,9.170000076E0,-1.819999963E-1
3.839035652E0,-5.700000003E-2,9.206000328E0,-2.099999972E-2
3.841523882E0,-3.799999878E-2,9.168000221E0,-1.529999971E-1
3.844011882E0,-1.899999939E-2,9.199000359E0,-1.190000027E-1
3.846499882E0,2.600000054E-2,9.229999542E0,-7.599999756E-2
3.848987872E0,4.699999839E-2,9.112999916E0,-1.019999981E-1
3.851475949E0,5.499999970E-2,9.199000359E0,-1.599999964E-1
3.853963872E0,7.900000364E-2,9.177000046E0,-1.070000008E-1
3.856451949E0,8.299999684E-2,9.222999573E0,-8.600000292E-2
3.858939949E0,-5.000000075E-2,9.204000473E0,-1.459999979E-1
3.861428171E0,6.400000304E-2,9.211000443E0,-3.299999982E-2
3.863916171E0,2.600000054E-2,9.182000160E0,-1.169999987E-1
3.866404171E0,9.300000221E-2,9.267999649E0,-1.289999932E-1
3.868892171E0,1.600000076E-2,9.258999825E0,-1.360000074E-1
3.871380248E0,6.700000167E-2,9.255999565E0,-2.099999972E-2
3.873868171E0,7.599999756E-2,9.206000328E0,-1.410000026E-1
3.876356171E0,9.300000221E-2,9.225000381E0,-1.260000020E-1
3.878844248E0,1.239999980E-1,9.274999619E0,0.000000000E0
3.881332248E0,2.600000054E-2,9.237000465E0,-5.000000075E-2
3.883820248E0,3.299999982E-2,9.152999878E0,-8.100000024E-2
3.886308253E0,1.120000035E-1,9.097999573E0,-8.600000292E-2
3.888796484E0,9.300000221E-2,9.031000137E0,-2.600000054E-2
3.891284484E0,1.260000020E-1,9.012000084E0,-4.300000146E-2
3.893772484E0,2.049999982E-1,9.116999626E0,2.600000054E-2
3.896260561E0,1.239999980E-1,9.074000359E0,-7.599999756E-2
3.898748517E0,1.360000074E-1,9.019000053E0,-1.360000074E-1
3.901236517E0,1.049999967E-1,9.043000221E0,-1.289999932E-1
3.903724517E0,1.889999956E-1,8.965999603E0,-1.410000026E-1
3.906212748E0,9.300000221E-2,8.989999771E0,-1.099999994E-2
3.908700748E0,1.860000044E-1,8.928000450E0,-2.000000095E-3
3.911188758E0,1.599999964E-1,8.916000366E0,-1.340000033E-1
3.913676758E0,1.529999971E-1,8.815999985E0,-8.600000292E-2
3.916164758E0,1.720000058E-1,8.885000229E0,-1.600000076E-2
3.918652835E0,1.070000008E-1,8.873000145E0,-1.070000008E-1
3.921140758E0,2.129999995E-1,8.902000427E0,-6.700000167E-2
3.923628839E0,2.169999927E-1,8.887000084E0,-6.199999899E-2
3.926116839E0,1.599999964E-1,8.913999557E0,-1.070000008E-1
3.928604839E0,1.860000044E-1,8.866000175E0,-5.900000036E-2
3.931092839E0,1.840000004E-1,8.913999557E0,3.299999982E-2
3.933581069E0,1.860000044E-1,8.918999672E0,-6.700000167E-2
3.936069055E0,1.840000004E-1,8.928000450E0,2.099999972E-2
3.938557055E0,2.529999912E-1,8.965999603E0,3.099999949E-2
3.941045132E0,1.979999989E-1,8.913999557E0,4.300000146E-2
3.943533132E0,1.889999956E-1,8.942999840E0,4.300000146E-2
3.946021363E0,2.529999912E-1,9.013999939E0,1.049999967E-1
3.948509127E0,2.680000067E-1,8.998000145E0,5.499999970E-2
3.950997127E0,2.509999871E-1,8.970999718E0,-1.400000043E-2
3.953485358E0,2.220000029E-1,9.071999550E0,1.099999994E-2
3.955973358E0,2.610000074E-1,9.116999626E0,8.100000024E-2
3.958461358E0,3.109999895E-1,9.050000191E0,1.459999979E-1
3.960949382E0,3.249999881E-1,9.045000076E0,5.499999970E-2
3.963437459E0,2.169999927E-1,9.093000412E0,8.299999684E-2
3.965925459E0,2.770000100E-1,9.048000336E0,8.799999952E-2
3.968413382E0,1.770000011E-1,9.097999573E0,2.800000086E-2
3.970901690E0,2.220000029E-1,9.083999634E0,1.600000076E-2
3.973389454E0,2.849999964E-1,9.045000076E0,8.799999952E-2
3.975877685E0,2.730000019E-1,9.079000473E0,4.500000179E-2
3.978365685E0,1.819999963E-1,9.114999771E0,4.300000146E-2
3.980853762E0,2.489999980E-1,9.144000053E0,-4.699999839E-2
3.983341762E0,2.319999933E-1,9.053000450E0,9.499999881E-2
3.985829777E0,2.560000122E-1,9.067000389E0,1.260000020E-1
3.988317700E0,2.129999995E-1,9.026000023E0,1.220000014E-1
3.990805777E0,2.509999871E-1,8.970999718E0,1.099999994E-1
3.993294008E0,2.610000074E-1,8.998000145E0,9.300000221E-2
3.995781777E0,2.870000005E-1,9.057000160E0,5.700000003E-2
3.998270008E0,2.049999982E-1,8.951999664E0,8.999999613E-3
4.000758008E0,2.099999934E-1,8.958999634E0,5.200000107E-2
4.003246008E0,2.750000060E-1,8.961999893E0,1.289999932E-1
4.005734008E0,2.630000114E-1,8.902000427E0,9.099999815E-2
4.008222085E0,2.150000036E-1,8.935000420E0,1.790000051E-1
4.010710094E0,2.029999942E-1,8.880000114E0,1.190000027E-1
4.013198094E0,1.979999989E-1,8.942999840E0,1.459999979E-1
4.015686324E0,1.360000074E-1,8.951999664E0,4.300000146E-2
4.018174324E0,1.700000018E-1,8.895000458E0,9.300000221E-2
4.020662324E0,1.340000033E-1,8.918999672E0,9.799999744E-2
4.023150345E0,1.720000058E-1,8.928000450E0,1.360000074E-1
4.025638422E0,2.220000029E-1,8.977999687E0,1.190000027E-1
4.028126422E0,2.509999871E-1,8.951999664E0,1.289999932E-1
4.030614422E0,1.070000008E-1,8.963999748E0,1.459999979E-1
4.033102422E0,2.249999940E-1,8.942999840E0,1.360000074E-1
4.035590450E0,2.199999988E-1,8.977999687E0,9.499999881E-2
4.038078681E0,1.770000011E-1,9.001999855E0,1.550000012E-1
4.040566681E0,1.700000018E-1,8.932999611E0,-1.400000043E-2
4.043054450E0,2.610000074E-1,9.022000313E0,1.410000026E-1
4.045542681E0,1.790000051E-1,9.005000114E0,9.300000221E-2
4.048030648E0,1.700000018E-1,9.131999969E0,9.799999744E-2
4.050518725E0,1.500000060E-1,9.064999580E0,1.459999979E-1
4.053006725E0,1.739999950E-1,9.076999664E0,5.900000036E-2
4.055494956E0,1.360000074E-1,9.104999542E0,7.000000216E-3
4.057982725E0,1.289999932E-1,9.055000305E0,6.199999899E-2
4.060470985E0,1.410000026E-1,9.128999710E0,5.700000003E-2
4.062958985E0,2.029999942E-1,9.125000000E0,6.899999827E-2
4.065446985E0,2.010000050E-1,9.022000313E0,-8.100000024E-2
4.067934985E0,1.459999979E-1,9.079000473E0,6.199999899E-2
4.070422985E0,1.529999971E-1,9.057000160E0,1.190000027E-1
4.072910999E0,1.529999971E-1,9.128999710E0,-2.000000095E-3
4.075399076E0,1.790000051E-1,9.109999657E0,5.900000036E-2
4.077887076E0,1.819999963E-1,9.088999748E0,-5.900000036E-2
4.080375076E0,1.070000008E-1,9.107999802E0,6.199999899E-2
4.082863307E0,3.999999911E-2,9.060000420E0,1.899999939E-2
4.085351307E0,1.000000015E-1,9.137000084E0,-3.999999911E-2
4.087839307E0,1.360000074E-1,9.109999657E0,4.699999839E-2
4.090327384E0,1.480000019E-1,9.026000023E0,7.100000232E-2
4.092815384E0,1.379999965E-1,9.145999908E0,7.000000216E-3
4.095303403E0,3.299999982E-2,9.041000366E0,2.010000050E-1
4.097791403E0,1.500000060E-1,9.064999580E0,8.100000024E-2
4.100279633E0,5.900000036E-2,9.133999825E0,6.199999899E-2
4.102767403E0,1.070000008E-1,9.055000305E0,4.000000190E-3
4.105255403E0,5.900000036E-2,9.064999580E0,1.169999987E-1
4.107743614E0,-2.600000054E-2,9.107999802E0,-4.000000190E-3
4.110231614E0,4.000000190E-3,9.069000244E0,3.500000015E-2
4.112719691E0,5.700000003E-2,9.097999573E0,7.400000095E-2
4.115207614E0,1.899999939E-2,9.074000359E0,1.430000067E-1
4.117695614E0,2.099999972E-2,9.126999855E0,1.899999939E-2
4.120183686E0,1.239999980E-1,9.126999855E0,6.899999827E-2
4.122671686E0,6.700000167E-2,9.109999657E0,1.239999980E-1
4.125159686E0,-5.499999970E-2,9.043000221E0,1.260000020E-1
4.127647917E0,8.100000024E-2,9.090999603E0,1.309999973E-1
4.130135917E0,1.169999987E-1,9.048000336E0,1.220000014E-1
4.132623951E0,5.499999970E-2,9.062000275E0,8.799999952E-2
4.135111951E0,8.299999684E-2,9.053000450E0,1.049999967E-1
4.137600028E0,2.600000054E-2,9.079000473E0,3.999999911E-2
4.140088028E0,8.100000024E-2,9.081000328E0,4.500000179E-2
4.142576028E0,8.600000292E-2,9.095999718E0,4.699999839E-2
4.145064023E0,9.099999815E-2,9.100999832E0,1.140000001E-1
4.147552254E0,7.900000364E-2,9.076999664E0,1.480000019E-1
4.150040254E0,5.700000003E-2,9.116999626E0,4.500000179E-2
4.152528254E0,1.239999980E-1,9.081000328E0,5.900000036E-2
4.155016254E0,1.379999965E-1,9.088999748E0,4.300000146E-2
4.157504259E0,6.899999827E-2,9.145999908E0,3.299999982E-2
4.159992336E0,5.200000107E-2,9.055000305E0,4.000000190E-3
4.162480336E0,1.309999973E-1,9.095999718E0,2.600000054E-2
4.164968336E0,1.379999965E-1,9.069000244E0,3.799999878E-2
4.167456567E0,1.099999994E-1,9.107999802E0,5.900000036E-2
4.169944321E0,1.260000020E-1,9.076999664E0,7.900000364E-2
4.172432321E0,1.340000033E-1,9.076999664E0,1.600000076E-2
4.174920552E0,7.599999756E-2,9.005000114E0,5.200000107E-2
4.177408552E0,1.430000067E-1,9.114999771E0,1.099999994E-1
4.179896552E0,5.000000075E-2,9.119999886E0,6.199999899E-2
4.182384552E0,1.379999965E-1,9.192000389E0,7.100000232E-2
4.184872629E0,1.340000033E-1,9.168000221E0,-3.799999878E-2
4.187360629E0,8.100000024E-2,9.140999794E0,5.200000107E-2
4.189848629E0,1.239999980E-1,9.151000023E0,8.100000024E-2
4.192336629E0,9.799999744E-2,9.121999741E0,1.700000018E-1
4.194824878E0,1.650000066E-1,9.104999542E0,1.049999967E-1
4.197312878E0,6.199999899E-2,9.062000275E0,1.400000043E-2
4.199800878E0,1.260000020E-1,9.019000053E0,3.799999878E-2
4.202288878E0,1.599999964E-1,9.145999908E0,5.200000107E-2
4.204776955E0,1.360000074E-1,9.097999573E0,-2.300000004E-2
4.207264950E0,1.599999964E-1,9.126999855E0,2.099999972E-2
4.209752950E0,1.070000008E-1,9.107999802E0,2.600000054E-2
4.212241181E0,1.430000067E-1,9.125000000E0,-2.300000004E-2
4.214729181E0,5.700000003E-2,9.131999969E0,1.190000027E-1
4.217217181E0,9.499999881E-2,9.116999626E0,9.300000221E-2
4.219705166E0,6.700000167E-2,9.083999634E0,2.600000054E-2
4.222193243E0,4.500000179E-2,9.055000305E0,1.340000033E-1
4.224681166E0,1.599999964E-1,9.097999573E0,4.000000190E-3
4.227169243E0,1.480000019E-1,9.104999542E0,6.899999827E-2
4.229657166E0,4.699999839E-2,9.057000160E0,-1.899999939E-2
4.232145209E0,1.620000005E-1,9.029000282E0,-2.000000095E-3
4.234633209E0,8.600000292E-2,8.987999916E0,3.299999982E-2
4.237121209E0,1.049999967E-1,9.010000229E0,-1.899999939E-2
4.239609209E0,6.400000304E-2,9.053000450E0,6.700000167E-2
4.242097440E0,1.169999987E-1,9.097999573E0,7.100000232E-2
4.244585459E0,8.799999952E-2,9.069000244E0,4.000000190E-3
4.247073536E0,1.459999979E-1,9.097999573E0,-5.200000107E-2
4.249561536E0,1.169999987E-1,9.029000282E0,-1.190000027E-1
4.252049536E0,1.070000008E-1,9.133999825E0,-3.999999911E-2
4.254537536E0,1.459999979E-1,9.151000023E0,-2.000000095E-3
4.257025503E0,9.499999881E-2,9.055000305E0,-5.700000003E-2
4.259513734E0,1.260000020E-1,9.036000252E0,-5.900000036E-2
4.262001734E0,1.620000005E-1,9.100999832E0,-1.070000008E-1
4.264489734E0,1.459999979E-1,9.116999626E0,3.500000015E-2
4.266977734E0,1.430000067E-1,9.102999687E0,-6.199999899E-2
4.269465805E0,1.239999980E-1,9.031000137E0,-1.169999987E-1
4.271953805E0,1.340000033E-1,9.034000397E0,-5.200000107E-2
4.274441805E0,1.669999957E-1,9.104999542E0,-1.099999994E-2
4.276929805E0,2.169999927E-1,9.090999603E0,-1.340000033E-1
4.279418036E0,1.959999949E-1,9.053000450E0,-3.999999911E-2
4.281906026E0,1.430000067E-1,9.022000313E0,-7.400000095E-2
4.284393796E0,2.080000043E-1,8.954000473E0,-1.000000015E-1
4.286882026E0,2.099999934E-1,9.017000198E0,-7.400000095E-2
4.289370026E0,2.080000043E-1,8.965999603E0,4.000000190E-3
4.291858026E0,1.239999980E-1,8.935000420E0,-1.049999967E-1
4.294346132E0,1.700000018E-1,9.088999748E0,-1.400000043E-2
4.296834132E0,1.550000012E-1,9.036000252E0,-7.900000364E-2
4.299322132E0,1.860000044E-1,8.973999977E0,-4.699999839E-2
4.301810363E0,1.620000005E-1,8.930999756E0,-8.299999684E-2
4.304298132E0,2.249999940E-1,8.965999603E0,-9.799999744E-2
4.306786368E0,1.459999979E-1,8.994999886E0,-1.379999965E-1
4.309274368E0,1.669999957E-1,8.854000092E0,-1.379999965E-1
4.311762368E0,1.979999989E-1,8.970999718E0,1.099999994E-2
4.314250368E0,1.840000004E-1,9.029000282E0,-1.840000004E-1
4.316738445E0,2.750000060E-1,9.022000313E0,-1.070000008E-1
4.319226445E0,2.680000067E-1,9.050000191E0,-1.169999987E-1
4.321714445E0,1.770000011E-1,9.102999687E0,-9.300000221E-2
4.324202676E0,1.580000073E-1,9.081000328E0,-1.550000012E-1
4.326690676E0,1.599999964E-1,9.057000160E0,-9.499999881E-2
4.329178676E0,1.739999950E-1,9.125000000E0,-5.900000036E-2
4.331666734E0,1.790000051E-1,9.088999748E0,-4.300000146E-2
4.334154734E0,1.459999979E-1,9.147999763E0,-1.309999973E-1
4.336642734E0,2.029999942E-1,9.095999718E0,-9.099999815E-2
4.339130657E0,2.919999957E-1,9.175000191E0,-8.600000292E-2
4.341618734E0,2.870000005E-1,9.295000076E0,-9.499999881E-2
4.344106949E0,3.199999928E-1,9.270999908E0,-1.529999971E-1
4.346594950E0,2.220000029E-1,9.279999733E0,-1.340000033E-1
4.349082719E0,3.729999959E-1,9.302000046E0,-1.430000067E-1
4.351570950E0,2.389999926E-1,9.326000214E0,-5.900000036E-2
4.354058950E0,3.829999864E-1,9.227999687E0,-1.340000033E-1
4.356547012E0,3.109999895E-1,9.270999908E0,-7.100000232E-2
4.359034936E0,4.110000134E-1,9.239000320E0,-1.340000033E-1
4.361523012E0,3.179999888E-1,9.244000435E0,-1.650000066E-1
4.364011012E0,2.890000045E-1,9.310999870E0,-7.900000364E-2
4.366499012E0,3.519999981E-1,9.201000214E0,-1.190000027E-1
4.368987248E0,3.709999919E-1,9.215999603E0,-2.010000050E-1
4.371475248E0,3.680000007E-1,9.206000328E0,-4.300000146E-2
4.373963248E0,2.989999950E-1,9.182000160E0,-1.600000076E-2
4.376451248E0,3.230000138E-1,9.170000076E0,-4.300000146E-2
4.378939325E0,3.249999881E-1,9.100999832E0,-1.819999963E-1
4.381427334E0,3.950000107E-1,9.180000305E0,-8.600000292E-2
4.383915334E0,3.350000083E-1,9.177000046E0,-1.379999965E-1
4.386403334E0,2.700000107E-1,9.201000214E0,-3.500000015E-2
4.388891334E0,2.989999950E-1,9.138999939E0,-7.599999756E-2
4.391379565E0,3.470000029E-1,9.076999664E0,-1.819999963E-1
4.393867546E0,1.860000044E-1,8.994999886E0,-5.000000075E-2
4.396355546E0,3.400000036E-1,9.062000275E0,-9.300000221E-2
4.398843623E0,2.870000005E-1,9.093000412E0,-7.100000232E-2
4.401331546E0,2.700000107E-1,9.116999626E0,8.299999684E-2
4.403819623E0,2.649999857E-1,9.133999825E0,4.300000146E-2
4.406307854E0,3.370000124E-1,9.119999886E0,-6.400000304E-2
4.408795854E0,2.870000005E-1,9.121999741E0,-9.099999815E-2
4.411283623E0,2.339999974E-1,9.138999939E0,-6.899999827E-2
4.413771623E0,1.930000037E-1,9.152999878E0,-4.500000179E-2
4.416259854E0,2.630000114E-1,9.133999825E0,-1.620000005E-1
4.418747864E0,2.319999933E-1,9.074000359E0,2.600000054E-2
4.421235864E0,3.059999943E-1,9.053000450E0,-1.140000001E-1
4.423723864E0,2.770000100E-1,9.131999969E0,-4.300000146E-2
4.426211941E0,3.059999943E-1,9.043000221E0,-7.900000364E-2
4.428699941E0,2.960000038E-1,9.145999908E0,-1.529999971E-1
4.431188195E0,3.109999895E-1,9.206000328E0,-8.299999684E-2
4.433675965E0,3.350000083E-1,9.189000130E0,-1.529999971E-1
4.436164195E0,2.770000100E-1,9.163000107E0,-6.199999899E-2
4.438652195E0,3.079999983E-1,9.152999878E0,-1.169999987E-1
4.441140195E0,2.890000045E-1,9.114999771E0,-2.010000050E-1
4.443628272E0,3.639999926E-1,9.137000084E0,-2.049999982E-1
4.446116272E0,3.059999943E-1,9.119999886E0,-9.300000221E-2
4.448604272E0,2.630000114E-1,9.152999878E0,-8.100000024E-2
4.451092272E0,2.800000012E-1,9.126999855E0,-8.100000024E-2
4.453580287E0,3.230000138E-1,9.157999992E0,-5.900000036E-2
4.456068518E0,3.759999871E-1,9.038000107E0,-1.529999971E-1
4.458556287E0,3.009999990E-1,9.090999603E0,2.600000054E-2
4.461044518E0,2.750000060E-1,9.076999664E0,-2.300000004E-2
4.463532595E0,2.730000019E-1,9.138999939E0,-4.300000146E-2
4.466020600E0,3.039999902E-1,9.126999855E0,0.000000000E0
4.468508600E0,3.490000069E-1,9.119999886E0,-3.999999911E-2
4.470996600E0,2.099999934E-1,9.128999710E0,-6.700000167E-2
4.473484600E0,2.800000012E-1,9.114999771E0,-2.800000086E-2
4.475972600E0,2.460000068E-1,9.000000000E0,8.999999613E-3
4.478460859E0,1.720000058E-1,9.138999939E0,-4.500000179E-2
4.480948859E0,1.599999964E-1,9.095999718E0,1.190000027E-1
4.483436936E0,1.959999949E-1,9.069000244E0,0.000000000E0
4.485924936E0,1.599999964E-1,9.152999878E0,3.799999878E-2
4.488412859E0,2.409999967E-1,9.152999878E0,-1.600000076E-2
4.490900946E0,2.049999982E-1,9.095999718E0,6.400000304E-2
4.493388946E0,2.010000050E-1,9.100999832E0,2.600000054E-2
4.495876946E0,1.480000019E-1,9.060000420E0,5.700000003E-2
4.498364946E0,1.819999963E-1,9.168000221E0,1.169999987E-1
4.500853177E0,1.770000011E-1,9.095999718E0,2.800000086E-2
4.503341172E0,1.459999979E-1,9.199000359E0,1.049999967E-1
4.505829172E0,1.669999957E-1,9.156000137E0,3.099999949E-2
4.508317172E0,1.669999957E-1,9.133999825E0,4.500000179E-2
4.510805249E0,1.620000005E-1,9.164999962E0,1.220000014E-1
4.513293249E0,1.120000035E-1,9.126999855E0,2.099999934E-1
4.515781249E0,1.500000060E-1,9.144000053E0,1.099999994E-1
4.518269479E0,1.840000004E-1,9.083999634E0,1.580000073E-1
4.520757479E0,1.220000014E-1,9.060000420E0,1.669999957E-1
4.523245479E0,2.150000036E-1,9.102999687E0,5.000000075E-2
4.525733479E0,1.169999987E-1,9.128999710E0,1.650000066E-1
4.528221484E0,1.120000035E-1,9.168000221E0,1.190000027E-1
4.530709561E0,1.140000001E-1,9.093000412E0,1.959999949E-1
4.533197484E0,7.900000364E-2,9.029000282E0,1.169999987E-1
4.535685561E0,1.529999971E-1,9.029000282E0,1.620000005E-1
4.538173792E0,1.190000027E-1,9.074000359E0,1.099999994E-1
4.540661797E0,1.239999980E-1,9.107999802E0,1.169999987E-1
4.543149797E0,1.529999971E-1,9.088999748E0,1.620000005E-1
4.545637566E0,1.669999957E-1,9.022000313E0,1.909999996E-1
4.548125797E0,1.819999963E-1,9.097999573E0,2.409999967E-1
4.550613797E0,7.599999756E-2,9.067000389E0,1.819999963E-1
4.553101802E0,8.600000292E-2,9.090999603E0,1.840000004E-1
4.555589879E0,6.700000167E-2,9.071999550E0,2.099999934E-1
4.558077879E0,-2.600000054E-2,9.012000084E0,1.650000066E-1
4.560565879E0,1.340000033E-1,9.038000107E0,1.669999957E-1
4.563053879E0,5.000000075E-2,8.994999886E0,1.379999965E-1
4.565542129E0,1.599999964E-1,9.022000313E0,1.190000027E-1
4.568030129E0,1.599999964E-1,9.041000366E0,2.339999974E-1
4.570518129E0,1.220000014E-1,9.005000114E0,2.199999988E-1
4.573006129E0,1.000000015E-1,9.050000191E0,1.889999956E-1
4.575494206E0,1.550000012E-1,9.112999916E0,1.840000004E-1
4.577982201E0,1.070000008E-1,8.986000061E0,2.870000005E-1
4.580470201E0,2.049999982E-1,9.019000053E0,1.260000020E-1
4.582958201E0,1.480000019E-1,9.133999825E0,2.269999981E-1
4.585446201E0,2.600000054E-2,9.038000107E0,2.220000029E-1
4.587934432E0,6.199999899E-2,9.104999542E0,2.150000036E-1
4.590422432E0,2.600000054E-2,8.961999893E0,2.150000036E-1
4.592910509E0,5.900000036E-2,8.961999893E0,3.079999983E-1
4.595398509E0,5.200000107E-2,9.026000023E0,1.360000074E-1
4.597886509E0,2.099999972E-2,9.060000420E0,1.930000037E-1
4.600374509E0,3.999999911E-2,9.083999634E0,1.860000044E-1
4.602862509E0,5.900000036E-2,9.062000275E0,2.890000045E-1
4.605350509E0,7.100000232E-2,9.112999916E0,2.509999871E-1
4.607838509E0,2.300000004E-2,9.057000160E0,2.440000027E-1
4.610326739E0,1.019999981E-1,8.965999603E0,2.099999934E-1
4.612814739E0,3.999999911E-2,9.034000397E0,2.150000036E-1
4.615302728E0,3.799999878E-2,9.076999664E0,1.979999989E-1
4.617790728E0,4.699999839E-2,9.045000076E0,2.649999857E-1
4.620278728E0,-4.000000190E-3,9.053000450E0,2.199999988E-1
4.622766805E0,4.300000146E-2,9.050000191E0,2.630000114E-1
4.625254805E0,4.699999839E-2,8.989999771E0,2.080000043E-1
4.627742801E0,-7.000000216E-3,8.946999550E0,1.260000020E-1
4.630231032E0,2.300000004E-2,9.071999550E0,2.249999940E-1
4.632719032E0,8.999999613E-3,8.958999634E0,1.770000011E-1
4.635207032E0,7.900000364E-2,9.095999718E0,2.129999995E-1
4.637695109E0,1.099999994E-2,8.998000145E0,2.010000050E-1
4.640183118E0,6.199999899E-2,9.048000336E0,2.150000036E-1
4.642671118E0,-2.600000054E-2,9.017000198E0,2.750000060E-1
4.645159118E0,2.099999972E-2,9.022000313E0,2.319999933E-1
4.647647349E0,0.000000000E0,9.064999580E0,2.099999934E-1
4.650135349E0,-8.999999613E-3,9.112999916E0,2.800000012E-1
4.652623325E0,-8.100000024E-2,9.090999603E0,3.230000138E-1
4.655111094E0,-7.900000364E-2,8.954000473E0,2.680000067E-1
4.657599325E0,-1.260000020E-1,9.064999580E0,2.010000050E-1
4.660087325E0,-1.360000074E-1,9.081000328E0,3.179999888E-1
4.662575402E0,-7.100000232E-2,9.019000053E0,2.389999926E-1
4.665063320E0,-1.099999994E-2,9.090999603E0,2.389999926E-1
4.667551628E0,-1.049999967E-1,9.095999718E0,2.460000068E-1
4.670039397E0,-1.379999965E-1,8.968999863E0,3.079999983E-1
4.672527628E0,-1.459999979E-1,9.053000450E0,2.560000122E-1
4.675015628E0,-9.499999881E-2,9.097999573E0,2.960000038E-1
4.677503609E0,-1.620000005E-1,9.017000198E0,2.870000005E-1
4.679991609E0,-1.580000073E-1,8.980999947E0,2.750000060E-1
4.682479609E0,-2.010000050E-1,9.048000336E0,2.870000005E-1
4.684967686E0,-1.140000001E-1,9.081000328E0,2.509999871E-1
4.687455686E0,-2.010000050E-1,9.121999741E0,3.400000036E-1
4.689943662E0,-1.379999965E-1,9.112999916E0,2.610000074E-1
4.692431662E0,-1.169999987E-1,9.095999718E0,2.649999857E-1
4.694919892E0,-2.129999995E-1,9.083999634E0,3.230000138E-1
4.697407892E0,-1.000000015E-1,9.001999855E0,2.770000100E-1
4.699895892E0,-1.120000035E-1,9.163000107E0,2.010000050E-1
4.702383892E0,-1.239999980E-1,9.097999573E0,2.290000021E-1
4.704871969E0,-1.169999987E-1,9.152999878E0,2.389999926E-1
4.707359969E0,-1.529999971E-1,9.163000107E0,1.790000051E-1
4.709847969E0,-1.239999980E-1,9.104999542E0,2.049999982E-1
4.712336200E0,-9.099999815E-2,9.081000328E0,3.230000138E-1
4.714824195E0,-1.600000076E-2,9.126999855E0,2.199999988E-1
4.717312195E0,-1.340000033E-1,9.138999939E0,1.959999949E-1
4.719800195E0,-9.099999815E-2,9.194000244E0,3.009999990E-1
4.722288195E0,-2.800000086E-2,9.144000053E0,2.029999942E-1
4.724776272E0,-1.099999994E-1,9.114999771E0,2.579999864E-1
4.727264190E0,-5.900000036E-2,9.104999542E0,1.889999956E-1
4.729752190E0,-4.500000179E-2,9.071999550E0,2.370000035E-1
4.732240498E0,-1.099999994E-1,9.045000076E0,2.339999974E-1
4.734728267E0,-8.600000292E-2,9.128999710E0,2.199999988E-1
4.737216267E0,-8.999999613E-3,9.121999741E0,2.169999927E-1
4.739704272E0,-6.400000304E-2,9.104999542E0,2.389999926E-1
4.742192503E0,-1.000000015E-1,9.067000389E0,2.169999927E-1
4.744680503E0,-1.260000020E-1,9.145999908E0,2.319999933E-1
4.747168580E0,-8.799999952E-2,9.121999741E0,2.989999950E-1
4.749656580E0,-8.100000024E-2,9.116999626E0,3.129999936E-1
4.752144580E0,-9.099999815E-2,9.180000305E0,2.870000005E-1
4.754632580E0,-5.200000107E-2,9.152999878E0,2.049999982E-1
4.757120580E0,-3.500000015E-2,9.170000076E0,1.099999994E-1
4.759608811E0,-2.800000086E-2,9.140999794E0,2.249999940E-1
4.762096811E0,-4.300000146E-2,9.175000191E0,2.560000122E-1
4.764584806E0,-7.400000095E-2,9.159999847E0,2.800000012E-1
4.767072806E0,-1.140000001E-1,9.121999741E0,3.059999943E-1
4.769560883E0,-2.000000095E-3,9.151000023E0,2.339999974E-1
4.772048883E0,-7.599999756E-2,9.109999657E0,1.909999996E-1
4.774536883E0,-1.049999967E-1,9.196000099E0,1.720000058E-1
4.777024883E0,-4.300000146E-2,9.076999664E0,2.489999980E-1
4.779513113E0,-2.800000086E-2,9.145999908E0,2.220000029E-1
4.782001113E0,-9.300000221E-2,9.125000000E0,1.840000004E-1
4.784489113E0,-8.999999613E-3,9.114999771E0,1.700000018E-1
4.786977113E0,8.999999613E-3,9.119999886E0,1.770000011E-1
4.789465195E0,-1.600000076E-2,9.204000473E0,2.249999940E-1
4.791953118E0,3.299999982E-2,9.081000328E0,1.979999989E-1
4.794441195E0,7.100000232E-2,9.138999939E0,1.480000019E-1
4.796929195E0,4.000000190E-3,9.128999710E0,2.049999982E-1
4.799417426E0,-8.999999613E-3,9.093000412E0,1.739999950E-1
4.801905180E0,6.400000304E-2,9.053000450E0,1.860000044E-1
4.804393180E0,-1.899999939E-2,9.147999763E0,1.309999973E-1
4.806881411E0,8.100000024E-2,9.145999908E0,1.099999994E-1
4.809369411E0,5.499999970E-2,9.168000221E0,2.129999995E-1
4.811857411E0,1.770000011E-1,9.163000107E0,5.900000036E-2
4.814345411E0,9.499999881E-2,9.163000107E0,5.900000036E-2
4.816833488E0,8.299999684E-2,9.093000412E0,9.300000221E-2
4.819321488E0,1.140000001E-1,9.151000023E0,1.739999950E-1
4.821809488E0,3.500000015E-2,9.125000000E0,5.499999970E-2
4.824297488E0,1.049999967E-1,9.116999626E0,1.190000027E-1
4.826785733E0,1.099999994E-1,9.187000275E0,4.500000179E-2
4.829273733E0,6.400000304E-2,9.237000465E0,5.900000036E-2
4.831761733E0,7.100000232E-2,9.100999832E0,8.299999684E-2
4.834249810E0,1.500000060E-1,9.208000183E0,1.260000020E-1
4.836737810E0,9.099999815E-2,9.107999802E0,1.669999957E-1
4.839225782E0,1.410000026E-1,9.192000389E0,6.700000167E-2
4.841713782E0,1.580000073E-1,9.104999542E0,1.000000015E-1
4.844201782E0,1.500000060E-1,9.053000450E0,1.360000074E-1
4.846690013E0,8.100000024E-2,9.170000076E0,1.019999981E-1
4.849178013E0,1.430000067E-1,9.112999916E0,6.400000304E-2
4.851666008E0,1.340000033E-1,9.071999550E0,8.799999952E-2
4.854154085E0,1.070000008E-1,9.045000076E0,7.900000364E-2
4.856642085E0,1.000000015E-1,9.107999802E0,7.100000232E-2
4.859130085E0,1.700000018E-1,9.069000244E0,5.900000036E-2
4.861618085E0,1.360000074E-1,9.019000053E0,7.000000216E-3
4.864106094E0,1.720000058E-1,9.114999771E0,1.340000033E-1
4.866594094E0,1.889999956E-1,9.086000443E0,8.100000024E-2
4.869082094E0,2.199999988E-1,9.114999771E0,1.169999987E-1
4.871570324E0,1.790000051E-1,9.050000191E0,1.049999967E-1
4.874058401E0,2.010000050E-1,9.017000198E0,6.400000304E-2
4.876546329E0,1.140000001E-1,9.093000412E0,3.799999878E-2
4.879034329E0,1.669999957E-1,9.005000114E0,8.299999684E-2
4.881522406E0,2.339999974E-1,9.050000191E0,1.600000076E-2
4.884010406E0,1.360000074E-1,8.935000420E0,4.300000146E-2
4.886498406E0,2.489999980E-1,9.038000107E0,3.299999982E-2
4.888986378E0,2.029999942E-1,9.038000107E0,6.899999827E-2
4.891474609E0,2.029999942E-1,8.958999634E0,6.899999827E-2
4.893962609E0,2.610000074E-1,9.034000397E0,-4.000000190E-3
4.896450609E0,2.080000043E-1,8.961999893E0,5.700000003E-2
4.898938609E0,2.150000036E-1,9.017000198E0,5.900000036E-2
4.901426704E0,1.889999956E-1,9.074000359E0,6.400000304E-2
4.903914704E0,1.650000066E-1,9.081000328E0,4.300000146E-2
4.906402704E0,2.150000036E-1,9.083999634E0,1.379999965E-1
4.908890935E0,2.150000036E-1,9.168000221E0,2.300000004E-2
4.911378935E0,1.650000066E-1,9.062000275E0,5.900000036E-2
4.913866945E0,1.430000067E-1,9.102999687E0,5.200000107E-2
4.916355022E0,1.650000066E-1,8.961999893E0,8.999999613E-3
4.918842945E0,2.870000005E-1,9.067000389E0,-7.000000216E-3
4.921331022E0,1.860000044E-1,9.086000443E0,2.049999982E-1
4.923819036E0,2.010000050E-1,9.090999603E0,3.500000015E-2
4.926307036E0,1.790000051E-1,9.086000443E0,1.239999980E-1
4.928795267E0,2.220000029E-1,9.086000443E0,5.900000036E-2
4.931283267E0,2.560000122E-1,9.006999969E0,-8.100000024E-2
4.933771267E0,2.529999912E-1,9.050000191E0,-3.500000015E-2
4.936259036E0,2.960000038E-1,9.013999939E0,-5.000000075E-2
4.938747267E0,2.989999950E-1,9.022000313E0,2.000000095E-3
4.941235267E0,1.700000018E-1,9.050000191E0,-1.600000076E-2
4.943723267E0,3.230000138E-1,9.055000305E0,-6.700000167E-2
4.946211344E0,2.249999940E-1,9.026000023E0,7.599999756E-2
4.948699339E0,2.730000019E-1,9.076999664E0,3.999999911E-2
4.951187339E0,2.989999950E-1,9.114999771E0,-1.899999939E-2
4.953675569E0,1.930000037E-1,9.001999855E0,3.999999911E-2
4.956163569E0,2.610000074E-1,9.088999748E0,1.400000043E-2
4.958651569E0,2.870000005E-1,9.095999718E0,-3.099999949E-2
4.961139574E0,2.150000036E-1,9.138999939E0,1.289999932E-1
4.963627574E0,2.440000027E-1,9.076999664E0,7.100000232E-2
4.966115651E0,3.230000138E-1,9.045000076E0,7.000000216E-3
4.968603651E0,2.919999957E-1,9.050000191E0,8.600000292E-2
4.971091651E0,3.129999936E-1,9.159999847E0,8.799999952E-2
4.973579627E0,2.770000100E-1,9.114999771E0,6.199999899E-2
4.976067858E0,2.939999998E-1,9.043000221E0,1.340000033E-1
4.978555858E0,2.890000045E-1,9.062000275E0,7.000000216E-3
4.981043858E0,2.870000005E-1,9.140999794E0,7.100000232E-2
4.983531935E0,3.249999881E-1,9.138999939E0,2.099999934E-1
4.986019926E0,1.700000018E-1,9.062000275E0,9.799999744E-2
4.988507926E0,2.579999864E-1,9.184000015E0,2.600000054E-2
4.990995926E0,3.490000069E-1,9.097999573E0,1.049999967E-1
4.993483926E0,2.700000107E-1,9.222999573E0,1.070000008E-1
4.995971926E0,3.079999983E-1,9.107999802E0,2.290000021E-1
4.998459945E0,3.639999926E-1,9.104999542E0,6.700000167E-2
5.000948176E0,3.280000091E-1,9.041000366E0,1.239999980E-1
5.003436253E0,3.849999905E-1,9.074000359E0,1.099999994E-1
5.005924176E0,2.649999857E-1,9.102999687E0,8.799999952E-2
5.008412253E0,2.579999864E-1,9.043000221E0,5.700000003E-2
5.010900191E0,2.649999857E-1,9.053000450E0,4.500000179E-2
5.013388268E0,3.400000036E-1,9.050000191E0,8.100000024E-2
5.015876268E0,3.440000117E-1,9.175000191E0,2.000000095E-3
5.018364268E0,3.779999912E-1,9.177000046E0,1.169999987E-1
5.020852499E0,2.700000107E-1,9.086000443E0,0.000000000E0
5.023340499E0,2.529999912E-1,9.064999580E0,8.100000024E-2
5.025828499E0,3.849999905E-1,9.159999847E0,1.360000074E-1
5.028316576E0,2.870000005E-1,9.086000443E0,4.000000190E-3
5.030804576E0,3.300000131E-1,9.090999603E0,2.129999995E-1
5.033292576E0,2.730000019E-1,9.076999664E0,5.000000075E-2
5.035780591E0,3.109999895E-1,9.095999718E0,9.499999881E-2
5.038268821E0,2.870000005E-1,9.133999825E0,1.529999971E-1
5.040756821E0,2.919999957E-1,9.121999741E0,1.770000011E-1
5.043244821E0,3.129999936E-1,9.133999825E0,8.799999952E-2
5.045732821E0,3.470000029E-1,9.079000473E0,2.010000050E-1
5.048220926E0,3.039999902E-1,9.137000084E0,1.140000001E-1
5.050708926E0,2.750000060E-1,9.138999939E0,1.899999939E-2
5.053196926E0,2.389999926E-1,9.125000000E0,6.400000304E-2
5.055684926E0,2.319999933E-1,9.100999832E0,1.459999979E-1
5.058173157E0,2.649999857E-1,9.133999825E0,1.049999967E-1
5.060661153E0,3.009999990E-1,9.022000313E0,1.379999965E-1
5.063149153E0,2.049999982E-1,9.116999626E0,1.739999950E-1
5.065637153E0,2.409999967E-1,9.119999886E0,2.750000060E-1
5.068125153E0,3.129999936E-1,9.043000221E0,7.400000095E-2
5.070613153E0,3.109999895E-1,9.107999802E0,1.480000019E-1
5.073101210E0,2.199999988E-1,9.114999771E0,1.959999949E-1
5.075589210E0,1.889999956E-1,9.184000015E0,1.169999987E-1
5.078077441E0,2.849999964E-1,9.097999573E0,1.840000004E-1
5.080565210E0,1.700000018E-1,9.126999855E0,1.360000074E-1
5.083053461E0,2.269999981E-1,9.145999908E0,1.309999973E-1
5.085541461E0,2.099999934E-1,9.145999908E0,9.099999815E-2
5.088029461E0,2.290000021E-1,9.152999878E0,1.070000008E-1
5.090517461E0,2.010000050E-1,9.100999832E0,1.529999971E-1
5.093005461E0,2.049999982E-1,9.144000053E0,5.499999970E-2
5.095493504E0,2.129999995E-1,9.248999596E0,1.480000019E-1
5.097981504E0,1.360000074E-1,9.220000267E0,3.099999949E-2
5.100469504E0,2.129999995E-1,9.220000267E0,8.799999952E-2
5.102957735E0,1.529999971E-1,9.194000244E0,1.140000001E-1
5.105445735E0,1.430000067E-1,9.157999992E0,6.199999899E-2
5.107933701E0,6.400000304E-2,9.168000221E0,1.529999971E-1
5.110421701E0,3.299999982E-2,9.171999931E0,2.800000086E-2
5.112909777E0,1.819999963E-1,9.156000137E0,8.600000292E-2
5.115397777E0,1.410000026E-1,9.168000221E0,1.480000019E-1
5.117885777E0,1.599999964E-1,9.187000275E0,8.299999684E-2
5.120373764E0,2.010000050E-1,9.145999908E0,9.099999815E-2
5.122861994E0,1.770000011E-1,9.170000076E0,7.400000095E-2
5.125349994E0,8.100000024E-2,9.248999596E0,1.169999987E-1
