"Time (s)","Acceleration x (m/s^2)","Acceleration y (m/s^2)","Acceleration z (m/s^2)"
0.000000000E0,-4.286132812E0,6.474838257E0,-2.018829346E0
3.997803000E-3,-4.477661133E0,5.907409668E0,-1.324508667E0
8.026123000E-3,-4.020370483E0,5.119720459E0,-1.733917236E0
1.205444400E-2,-2.942977905E0,4.576232910E0,-2.485702515E0
1.608276400E-2,-1.803344727E0,4.468505859E0,-2.983703613E0
2.011108400E-2,-6.948242188E-1,4.667221069E0,-2.962142944E0
2.413940500E-2,3.011627197E-1,4.873123169E0,-2.512039185E0
2.816772500E-2,1.246871948E0,4.894668579E0,-1.879974365E0
3.219604500E-2,1.852600098E0,4.865936279E0,-1.068328857E0
3.619384800E-2,1.936401367E0,4.901855469E0,-1.489562988E-1
4.022216800E-2,1.653884888E0,4.964096069E0,7.440795898E-1
4.425048900E-2,3.514404297E-1,4.102188110E0,1.632324219E0
4.827880900E-2,-4.697723389E-1,3.743057251E0,1.907653809E0
5.230712900E-2,-5.391998291E-1,3.874740601E0,1.898086548E0
5.633545000E-2,-2.088012695E-1,4.221893311E0,1.747253418E0
6.033325200E-2,-9.628295898E-2,4.612152100E0,1.831039429E0
6.436157300E-2,-8.430480957E-2,5.119720459E0,2.168624878E0
6.838989300E-2,-5.078125000E-2,5.763763428E0,2.570846558E0
7.241821300E-2,-9.149169922E-2,6.486816406E0,2.987442017E0
7.644653400E-2,-2.710571289E-1,7.207473755E0,3.200531006E0
8.044433600E-2,-4.745635986E-1,7.849105835E0,3.188552856E0
8.447265700E-2,-6.732788086E-1,8.320770264E0,3.018569946E0
8.850097700E-2,-7.905883789E-1,8.533859253E0,2.839004517E0
9.252929700E-2,-3.045654297E-1,8.679901123E0,2.499023438E0
9.652710000E-2,-2.064056396E-1,8.593704224E0,2.242843628E0
1.005554200E-1,2.532806396E-1,8.632019043E0,1.912445068E0
1.045837410E-1,-2.899169922E-3,8.509918213E0,1.761611938E0
1.085815430E-1,-7.020111084E-1,8.560195923E0,1.562896729E0
1.126098640E-1,-8.408660889E-1,8.768493652E0,1.335449219E0
1.166381840E-1,-8.648223877E-1,8.900161743E0,1.055328369E0
1.206665040E-1,-9.079132080E-1,9.295211792E0,6.890106201E-1
1.246643070E-1,-1.216766357E0,9.812362671E0,3.921356201E-1
1.286926270E-1,-1.618988037E0,1.024331665E1,3.993072510E-1
1.327209480E-1,-1.542373657E0,1.031513977E1,5.621185303E-1
1.367492680E-1,-1.113815308E0,1.003022766E1,8.374481201E-1
1.407470710E-1,-5.056915283E-1,9.596878052E0,1.084045410E0
1.447753910E-1,-1.609191895E-1,9.017486572E0,1.555709839E0
1.488037110E-1,-1.513366699E-1,8.320770264E0,2.230880737E0
1.528015140E-1,-1.058502197E-1,7.786865234E0,2.599578857E0
1.568298340E-1,-1.487731934E-2,7.700668335E0,2.455932617E0
1.608581550E-1,-1.966857910E-2,7.822769165E0,2.501419067E0
1.648559570E-1,-1.487731934E-2,7.808410645E0,3.111938477E0
1.688842780E-1,-6.515502930E-2,7.621658325E0,4.045684814E0
1.729125980E-1,-1.585235596E-1,7.403793335E0,4.886047363E0
1.769104010E-1,-4.360961914E-2,7.358306885E0,4.866897583E0
1.809387210E-1,-2.255706787E-1,7.492370605E0,4.021743774E0
1.849670410E-1,-4.721679688E-1,7.817993164E0,2.719299316E0
1.889953620E-1,-4.673767090E-1,8.507522583E0,1.426422119E0
1.929931640E-1,-2.016143799E-1,9.017486572E0,3.370666504E-1
1.970214850E-1,9.526062012E-2,9.228179932E0,-1.185653687E0
2.010498050E-1,2.604522705E-1,9.568145752E0,-2.634140015E0
2.050476080E-1,4.304504395E-1,9.924880981E0,-3.663650513E0
2.090759280E-1,7.656402588E-1,1.029359436E1,-4.429794312E0
2.131042480E-1,9.020996094E-1,1.067906189E1,-5.229461670E0
2.171020510E-1,9.116821289E-1,1.112677002E1,-5.981231689E0
2.211303710E-1,8.326721191E-1,1.164392090E1,-6.416976929E0
2.251586920E-1,6.578979492E-1,1.212754822E1,-6.790481567E0
2.291564950E-1,6.148071289E-1,1.259442139E1,-6.879058838E0
2.331848150E-1,8.063354492E-1,1.307086182E1,-6.649215698E0
2.372131350E-1,1.105606079E0,1.338450623E1,-6.203903198E0
2.412109380E-1,1.301940918E0,1.359759521E1,-5.789703369E0
2.452392580E-1,1.419250488E0,1.370533752E1,-5.251007080E0
2.492675780E-1,1.407287598E0,1.367660522E1,-4.650054932E0
2.532653810E-1,1.424041748E0,1.360476685E1,-3.972503662E0
2.572937020E-1,1.397705078E0,1.340365601E1,-3.278182983E0
2.613220220E-1,1.596420288E0,1.301818848E1,-2.373168945E0
2.653198250E-1,1.668243408E0,1.258963013E1,-1.602249146E0
2.693481450E-1,1.845428467E0,1.223529053E1,-8.624267578E-1
2.733764650E-1,1.912460327E0,1.214669800E1,-3.764038086E-1
2.773742680E-1,1.555725098E0,1.203897095E1,-3.883361816E-2
2.814025880E-1,1.155883789E0,1.198629761E1,4.495849609E-1
2.854309090E-1,8.446502686E-1,1.193362427E1,1.115173340E0
2.894287110E-1,5.621337891E-1,1.188095093E1,1.598800659E0
2.934570320E-1,5.453643799E-1,1.180673218E1,2.046524048E0
2.974853520E-1,1.629943848E0,1.208924866E1,4.170181274E0
3.014831550E-1,3.928375244E0,1.255610657E1,6.152572632E0
3.055114750E-1,5.812606812E0,1.242681885E1,5.817382812E0
3.095397950E-1,6.471023560E0,1.208685303E1,4.172576904E0
3.135375980E-1,6.159774780E0,1.171813965E1,2.599578857E0
3.175659180E-1,5.585159302E0,1.135183716E1,1.488677979E0
3.215942390E-1,5.149414062E0,1.096636963E1,7.991485596E-1
3.255920410E-1,4.984222412E0,1.061920166E1,3.921356201E-1
3.296203620E-1,4.742401123E0,1.039894104E1,1.622772217E-1
3.336486820E-1,4.409606934E0,1.030078125E1,-5.079650879E-2
3.376464850E-1,4.153427124E0,1.027684021E1,-2.782440186E-1
3.416748050E-1,3.964294434E0,1.030795288E1,-5.727386475E-1
3.457031250E-1,3.789520264E0,1.037979126E1,-9.270782471E-1
3.497009280E-1,3.703323364E0,1.037979126E1,-1.283813477E0
3.537292480E-1,3.775146484E0,1.026007080E1,-1.530410767E0
3.577575690E-1,3.995407104E0,1.000628662E1,-1.556747437E0
3.617553710E-1,4.251586914E0,9.704620361E0,-1.302963257E0
3.657836920E-1,4.361724854E0,9.460403442E0,-6.972351074E-1
3.698120120E-1,4.184555054E0,9.450836182E0,9.524536133E-2
3.738098150E-1,3.925979614E0,9.697433472E0,6.052093506E-1
3.778381350E-1,3.708114624E0,9.958404541E0,6.578826904E-1
3.818359380E-1,3.432769775E0,1.011163330E1,3.969116211E-1
3.858642580E-1,3.040130615E0,1.004220581E1,6.411743164E-2
3.898925780E-1,2.618743896E0,9.707015991E0,-9.150695801E-2
3.938903810E-1,2.283554077E0,9.307174683E0,-1.633300781E-1
3.979187020E-1,2.068084717E0,9.036636353E0,-3.213500977E-1
4.019470220E-1,1.957946777E0,8.878616333E0,-4.290771484E-1
4.059448250E-1,1.907669067E0,8.703842163E0,-5.798339844E-2
4.099731450E-1,1.931610107E0,8.564971924E0,7.368927002E-1
4.140014650E-1,2.034561157E0,8.574554443E0,1.708938599E0
4.179992680E-1,2.326660156E0,8.574554443E0,3.131088257E0
4.220275880E-1,2.697753906E0,8.485977173E0,5.010543823E0
4.260559090E-1,3.178985596E0,8.536254883E0,6.377639771E0
4.300537110E-1,3.796691895E0,8.586532593E0,7.148559570E0
4.340820320E-1,4.524536133E0,8.766098022E0,7.170120239E0
4.381103520E-1,5.338562012E0,9.074951172E0,6.087936401E0
4.421081550E-1,6.085556030E0,9.340698242E0,3.717681885E0
4.461364750E-1,6.214843750E0,9.541809082E0,3.825531006E-1
4.501647950E-1,5.355316162E0,9.637588501E0,-3.201568604E0
4.541625980E-1,3.945129395E0,9.611251831E0,-6.560638428E0
4.581909180E-1,3.042526245E0,9.517868042E0,-9.366638184E0
4.622192390E-1,2.937179565E0,9.491531372E0,-1.161718750E1
4.662170410E-1,3.401657104E0,9.620819092E0,-1.332185364E1
4.702453620E-1,3.779937744E0,9.628005981E0,-1.343678284E1
4.742736820E-1,4.038513184E0,9.635192871E0,-1.090132141E1
4.782714850E-1,3.858947754E0,9.656738281E0,-7.185516357E0
4.822998050E-1,3.521362305E0,9.663925171E0,-3.816879272E0
4.862976080E-1,3.109558105E0,9.589691162E0,-1.348449707E0
4.903259280E-1,2.736068726E0,9.376617432E0,2.125701904E-1
4.943542480E-1,2.393692017E0,9.079727173E0,1.005050659E0
4.983520510E-1,2.149490356E0,8.785247803E0,1.256439209E0
5.023803710E-1,2.058502197E0,8.576950073E0,1.155883789E0
5.064086920E-1,2.092025757E0,8.502731323E0,7.464752197E-1
5.104064950E-1,2.171035767E0,8.509918213E0,-1.824798584E-1
5.144348150E-1,2.178207397E0,8.605682373E0,-1.578292847E0
5.184631350E-1,2.192581177E0,8.806793213E0,-3.000457764E0
5.224609380E-1,2.233276367E0,8.967208862E0,-3.761810303E0
5.264892580E-1,2.317077637E0,8.957626343E0,-3.419433594E0
5.305175780E-1,2.475097656E0,8.924102783E0,-2.358810425E0
5.345153810E-1,2.834228516E0,8.950439453E0,-1.592666626E0
5.385437020E-1,3.260391235E0,9.034240723E0,-8.073730469E-1
5.425720220E-1,3.576431274E0,9.015090942E0,-5.392150879E-1
5.465698250E-1,3.667404175E0,8.857070923E0,-8.193359375E-1
5.505981450E-1,3.571640015E0,8.598495483E0,-1.724349976E0
5.546264650E-1,3.246032715E0,8.272888184E0,-2.938201904E0
5.586242680E-1,2.872528076E0,8.002334595E0,-4.147277832E0
5.626525880E-1,2.661849976E0,7.851501465E0,-5.164810181E0
5.666809090E-1,2.738464355E0,7.758132935E0,-5.825607300E0
5.706787110E-1,3.001815796E0,7.667160034E0,-5.976455688E0
5.747070320E-1,3.303497314E0,7.573776245E0,-5.638870239E0
5.787353520E-1,3.523757935E0,7.487594604E0,-4.800903320E0
5.827331550E-1,3.600372314E0,7.458862305E0,-3.606185913E0
5.867614750E-1,3.782333374E0,7.592926025E0,-1.664489746E0
5.907897950E-1,4.883666992E0,8.076568604E0,2.570846558E0
5.947875980E-1,7.821350098E0,9.206619263E0,9.770217896E0
5.988159180E-1,8.630584717E0,9.778839111E0,1.033525085E1
6.028137210E-1,4.366516113E0,7.887420654E0,1.053875732E1
6.068420410E-1,1.756835938E0,7.521102905E0,1.226496887E1
6.108703620E-1,9.619598389E-1,7.968826294E0,1.172627258E1
6.148681640E-1,8.614044189E-1,7.947280884E0,8.711975098E0
6.188964850E-1,1.761627197E0,7.985580444E0,5.594726562E0
6.229248050E-1,3.114349365E0,8.217819214E0,2.692962646E0
6.269226080E-1,3.973861694E0,8.507522583E0,-4.338684082E-1
6.309509280E-1,3.681777954E0,8.529067993E0,-3.630126953E0
6.349792480E-1,2.525375366E0,8.284851074E0,-6.067428589E0
6.389770510E-1,1.577270508E0,8.004730225E0,-6.857513428E0
6.430053710E-1,1.809509277E0,7.987976074E0,-5.698715210E0
6.470336920E-1,2.848587036E0,8.220214844E0,-3.953353882E0
6.510314950E-1,3.605163574E0,8.320770264E0,-2.761032104E0
6.550598150E-1,2.499038696E0,7.808410645E0,-1.973342896E0
6.590881350E-1,1.692184448E0,7.612091064E0,-1.092269897E0
6.630859380E-1,1.883728027E0,7.784469604E0,-4.817504883E-1
6.671142580E-1,2.367355347E0,7.952056885E0,-3.764038086E-1
6.711425780E-1,2.862960815E0,8.045440674E0,-4.985198975E-1
6.751403810E-1,3.325042725E0,8.160354614E0,-6.589202881E-1
6.791687020E-1,3.368133545E0,8.009521484E0,-1.034820557E0
6.831970220E-1,3.363342285E0,7.487594604E0,-1.118606567E0
6.871948250E-1,4.105545044E0,7.413360596E0,-7.714538574E-1
6.912231450E-1,3.516571045E0,6.510757446E0,-1.041992188E0
6.952514650E-1,3.894851685E0,6.228240967E0,-6.756591797E-2
6.992492680E-1,3.698532104E0,5.991210938E0,6.243591309E-1
7.032775880E-1,3.272369385E0,5.826019287E0,1.318679810E0
7.073059090E-1,3.032943726E0,5.433364868E0,2.034545898E0
7.113037110E-1,3.119140625E0,4.858749390E0,2.161437988E0
7.153320320E-1,3.502212524E0,4.166824341E0,1.675415039E0
7.193298340E-1,3.633895874E0,3.391113281E0,1.048141479E0
7.233581550E-1,3.370529175E0,1.463775635E0,9.380035400E-1
7.273864750E-1,2.716903687E0,-1.691787720E0,1.313888550E0
7.313842780E-1,1.986679077E0,-3.690933228E0,7.775878906E-1
7.354125980E-1,1.203781128E0,-4.425964355E0,-5.368194580E-1
7.394409180E-1,7.393035889E-1,-3.669387817E0,-1.982925415E0
7.434387210E-1,9.356231689E-1,-1.983871460E0,-2.899902344E0
7.474670410E-1,1.222930908E0,5.324249268E-1,-2.828079224E0
7.514953620E-1,1.433624268E0,4.157257080E0,-2.773010254E0
7.554931640E-1,1.390518188E0,9.060577393E0,-2.519226074E0
7.595214850E-1,1.483901978E0,1.355448914E1,-2.169662476E0
7.635498050E-1,3.241241455E0,1.754801941E1,-8.217315674E-1
7.675476080E-1,6.777481079E0,2.114891052E1,1.409667969E0
7.715759280E-1,6.607482910E0,2.163731384E1,8.709716797E-1
7.756042480E-1,3.755996704E0,1.942268372E1,-2.212768555E0
7.796020510E-1,3.162231445E0,1.707397461E1,-3.302124023E0
7.836303710E-1,4.423980713E0,1.491918945E1,-2.342056274E0
7.876586920E-1,5.005767822E0,1.254414368E1,-1.721954346E0
7.916564950E-1,4.275543213E0,1.031993103E1,-1.393951416E0
7.956848150E-1,4.103149414E0,8.562591553E0,2.102661133E-2
7.997131350E-1,3.116744995E0,6.960861206E0,1.067291260E0
8.037109380E-1,7.225341797E-1,5.924179077E0,1.057708740E0
8.077392580E-1,2.820129395E-1,5.569839478E0,5.956420898E-1
8.117675780E-1,-1.034545898E-1,5.634475708E0,-4.913330078E-1
8.157653810E-1,-1.132965088E0,5.086196899E0,-3.000457764E0
8.197937020E-1,-5.032958984E-1,5.213088989E0,-1.597457886E0
8.237915040E-1,5.812835693E-1,5.928955078E0,1.165451050E0
8.278198250E-1,1.261230469E0,6.568222046E0,2.355377197E0
8.318481450E-1,1.850204468E0,6.647216797E0,2.429595947E0
8.358459480E-1,2.137512207E0,6.886642456E0,2.321853638E0
8.398742680E-1,2.218917847E0,7.183517456E0,2.637893677E0
8.439025880E-1,1.764022827E0,7.336746216E0,2.920410156E0
8.479003910E-1,1.129547119E0,6.912979126E0,2.949142456E0
8.519287110E-1,1.000274658E0,6.826782227E0,2.487060547E0
8.559570320E-1,1.421646118E0,7.114089966E0,1.479095459E0
8.599548340E-1,1.761627197E0,8.143600464E0,4.998626709E-1
8.639831550E-1,1.491073608E0,9.525054932E0,5.215454102E-2
8.680114750E-1,1.170257568E0,1.100946045E1,-2.914428711E-3
8.720092780E-1,1.685012817E0,1.210600281E1,-1.298065186E-1
8.760375980E-1,3.564453125E0,1.133746338E1,-6.421661377E-1
8.800659180E-1,4.256378174E0,8.998336792E0,-1.152130127E0
8.840637210E-1,3.961898804E0,8.304016113E0,-1.298171997E0
8.880920410E-1,3.645858765E0,8.833129883E0,-2.255706787E-1
8.921203620E-1,4.079208374E0,9.836303711E0,1.974700928E0
8.961181640E-1,2.487060547E0,9.347885132E0,3.001800537E0
9.001464850E-1,1.488677979E0,7.801223755E0,2.013000488E0
9.041748050E-1,1.108001709E0,5.258590698E0,-3.500671387E-1
9.081726080E-1,1.546142578E0,2.929031372E0,-2.277404785E0
9.122009280E-1,1.838241577E0,1.509262085E0,-4.053909302E0
9.162292480E-1,4.735412598E-1,5.659484863E-1,-5.045104980E0
9.202270510E-1,6.267700195E-1,-4.970703125E-1,-5.930953979E0
9.242553710E-1,2.290740967E0,-1.186599731E0,-5.289306641E0
9.282836920E-1,3.703323364E0,-9.005737305E-2,-2.828079224E0
9.322814950E-1,3.909225464E0,3.125350952E0,-2.148117065E0
9.363098150E-1,2.604385376E0,6.316818237E0,-2.011657715E0
9.403076180E-1,2.384109497E0,8.960021973E0,-2.112121582E-1
9.443359380E-1,4.400039673E0,1.040133667E1,1.122360229E0
9.483642580E-1,7.565170288E0,1.069821167E1,1.771194458E0
9.523620610E-1,1.034243774E1,1.001826477E1,1.359390259E0
9.563903810E-1,1.112055969E1,9.797988892E0,1.285171509E0
9.604187020E-1,1.021794128E1,1.006375122E1,1.263610840E0
9.644165040E-1,7.785430908E0,1.179954529E1,1.637115479E0
9.684448250E-1,4.886062622E0,1.485693359E1,2.527755737E0
9.724731450E-1,3.212509155E0,1.687046814E1,4.488601685E0
9.764709480E-1,3.394470215E0,1.765336609E1,6.863662720E0
9.804992680E-1,4.426376343E0,1.882652283E1,9.095046997E0
9.845275880E-1,5.214065552E0,2.031332397E1,1.090745544E1
9.885253910E-1,5.860504150E0,2.294215393E1,1.270310974E1
9.925537110E-1,5.977813721E0,2.624615479E1,1.409654236E1
9.965820320E-1,5.058441162E0,2.884387207E1,1.478128052E1
1.000579834E0,3.284332275E0,2.947114563E1,1.438385010E1
1.004608155E0,7.297210693E-1,2.763958740E1,1.280366516E1
1.008636475E0,-2.148101807E0,2.418954468E1,1.065846252E1
1.012634278E0,-4.587799072E0,2.021276855E1,8.209197998E0
1.016662598E0,-6.622863770E0,1.632458496E1,5.664154053E0
1.020690918E0,-9.294799805E0,1.274765015E1,3.612335205E0
1.024688721E0,-1.152619934E1,9.659133911E0,1.948364258E0
1.028717041E0,-1.219895935E1,7.142822266E0,1.215820312E-1
1.032745362E0,-1.215586853E1,5.325622559E0,-1.425064087E0
1.036743164E0,-1.178955078E1,4.332031250E0,-2.037994385E0
1.040771485E0,-1.143043518E1,4.030364990E0,-1.695617676E0
1.044799805E0,-1.041528320E1,4.506805420E0,-1.106643677E0
1.048797608E0,-8.820755005E0,5.629684448E0,-4.290771484E-1
1.052825928E0,-7.089736938E0,6.968048096E0,2.867889404E-1
1.056823731E0,-5.485626221E0,8.215423584E0,9.715270996E-1
1.060852051E0,-4.123321533E0,9.254516602E0,1.555709839E0
1.064880371E0,-3.069869995E0,1.002066040E1,2.058486938E0
1.068878174E0,-2.303726196E0,1.050668335E1,2.470291138E0
1.072906495E0,-1.733917236E0,1.070300293E1,2.803085327E0
1.076934815E0,-1.281402588E0,1.064793396E1,3.102371216E0
1.080932618E0,-7.858123779E-1,1.045161438E1,3.427978516E0
1.084960938E0,-2.016143799E-1,1.021937561E1,3.724853516E0
1.088989258E0,3.634033203E-1,9.924880981E0,3.894851685E0
1.092987061E0,8.278808594E-1,9.565750122E0,3.935546875E0
1.097015381E0,1.112792969E0,9.089309692E0,3.799072266E0
1.101043702E0,1.160675049E0,8.505126953E0,3.564437866E0
1.105041504E0,9.404144287E-1,7.880233765E0,3.315444946E0
1.109069825E0,6.076202393E-1,7.389419556E0,2.999420166E0
1.113098145E0,1.670837402E-1,7.085357666E0,2.642684937E0
1.117095948E0,-3.500671387E-1,7.011138916E0,2.228485107E0
1.121124268E0,-7.714385986E-1,7.159576416E0,1.862167358E0
1.125152588E0,-8.504486084E-1,7.602508545E0,1.646682739E0
1.129150391E0,-5.703277588E-1,8.066986084E0,1.433609009E0
1.133178711E0,-7.234191895E-2,8.524276733E0,1.117568970E0
1.137207032E0,2.700347900E-1,8.902557373E0,7.991485596E-1
1.141204834E0,5.525512695E-1,9.242538452E0,5.453643799E-1
1.145233155E0,7.057800293E-1,9.616027832E0,5.788726807E-1
1.149261475E0,7.321166992E-1,9.865036011E0,3.514251709E-1
1.153259278E0,6.626892090E-1,1.010684204E1,2.581787109E-2
1.157287598E0,5.597381592E-1,1.040373230E1,2.053833008E-1
1.161315918E0,5.453643799E-1,1.066229248E1,9.164581299E-1
1.165313721E0,4.615783691E-1,1.069581604E1,1.694580078E0
1.169342041E0,2.628479004E-1,1.065751648E1,2.204544067E0
1.173339844E0,4.498291016E-2,1.053062439E1,2.235656738E0
1.177368164E0,3.059539795E-1,1.063835144E1,1.584442139E0
1.181396485E0,5.669097900E-1,1.085144043E1,3.705749512E-1
1.185394287E0,7.943725586E-1,1.084904480E1,-5.966796875E-1
1.189422608E0,5.262145996E-1,1.058567810E1,-9.127044678E-1
1.193450928E0,4.615783691E-1,1.034387207E1,-1.207199097E0
1.197448731E0,4.065093994E-1,1.011642456E1,-8.959503174E-1
1.201477051E0,4.304504395E-1,9.893768311E0,-3.093719482E-1
1.205505371E0,5.477600098E-1,9.718978882E0,2.269287109E-1
1.209503174E0,7.081756592E-1,9.575332642E0,6.578826904E-1
1.213531495E0,8.853454590E-1,9.472381592E0,9.236450195E-1
1.217559815E0,9.308319092E-1,9.359848022E0,9.858856201E-1
1.221557618E0,1.100830078E0,9.357452393E0,1.028991699E0
1.225585938E0,1.275604248E0,9.357452393E0,9.906768799E-1
1.229614258E0,1.364181519E0,9.347885132E0,9.044799805E-1
1.233612061E0,1.407287598E0,9.345489502E0,8.326568604E-1
1.237640381E0,1.433624268E0,9.350280762E0,7.632293701E-1
1.241668702E0,1.333068848E0,9.316757202E0,6.315460205E-1
1.245666504E0,1.440795898E0,9.374221802E0,6.626739502E-1
1.249694825E0,1.522201538E0,9.381408691E0,6.770324707E-1
1.253723145E0,1.512634277E0,9.362243652E0,7.057647705E-1
1.257720948E0,1.474319458E0,9.328735352E0,7.512512207E-1
1.261749268E0,1.440795898E0,9.273666382E0,7.775878906E-1
1.265777588E0,1.400100708E0,9.244934082E0,7.919616699E-1
1.269775391E0,1.352218628E0,9.216201782E0,8.015289307E-1
1.273803711E0,1.304336548E0,9.192260742E0,7.895660400E-1
1.277832032E0,1.239685059E0,9.182678223E0,7.560424805E-1
1.281829834E0,1.175048828E0,9.185073853E0,7.057647705E-1
1.285858155E0,1.108001709E0,9.187469482E0,6.435241699E-1
1.289855957E0,1.038574219E0,9.199447632E0,5.860595703E-1
1.293884278E0,9.906921387E-1,9.216201782E0,5.477447510E-1
1.297912598E0,9.140777588E-1,9.244934082E0,5.046539307E-1
1.301910401E0,8.422546387E-1,9.276062012E0,4.759216309E-1
1.305938721E0,7.776031494E-1,9.309570312E0,4.519805908E-1
1.309967041E0,7.321166992E-1,9.321548462E0,4.280395508E-1
1.313964844E0,6.794433594E-1,9.350280762E0,4.040985107E-1
1.317993164E0,6.531066895E-1,9.383789062E0,3.825531006E-1
1.322021485E0,6.243743896E-1,9.407745361E0,3.610076904E-1
1.326019287E0,6.028289795E-1,9.417312622E0,3.514251709E-1
1.330047608E0,5.693054199E-1,9.407745361E0,3.346710205E-1
1.334075928E0,4.855194092E-1,9.395767212E0,2.652282715E-1
1.338073731E0,5.501556396E-1,9.446044922E0,3.202972412E-1
1.342102051E0,6.028289795E-1,9.477172852E0,3.250885010E-1
1.346130371E0,5.310058594E-1,9.477172852E0,2.580566406E-1
1.350128174E0,6.267700195E-1,9.551391602E0,3.298797607E-1
1.354156495E0,6.985931396E-1,9.604064941E0,3.490295410E-1
1.358184815E0,6.148071289E-1,9.606460571E0,2.796020508E-1
1.362182618E0,7.129669189E-1,9.668701172E0,3.442382812E-1
1.366210938E0,7.536621094E-1,9.683074951E0,3.298797607E-1
1.370239258E0,7.033843994E-1,9.690246582E0,2.939605713E-1
1.374237061E0,8.063354492E-1,9.742919922E0,3.418426514E-1
1.378265381E0,8.207092285E-1,9.752502441E0,2.963562012E-1
1.382293702E0,7.584533691E-1,9.754898071E0,2.460784912E-1
1.386291504E0,8.925323486E-1,9.814758301E0,2.652282715E-1
1.390319825E0,9.499969482E-1,9.826721191E0,2.197418213E-1
1.394348145E0,8.063354492E-1,9.781234741E0,8.328247070E-2
1.398345948E0,9.428100586E-1,9.833908081E0,1.000366211E-1
1.402374268E0,1.028991699E0,9.869812012E0,4.975891113E-2
1.406372071E0,8.087310791E-1,9.805175781E0,-9.867858887E-2
1.410400391E0,9.547729492E-1,9.843475342E0,-4.840087891E-2
1.414428711E0,8.829498291E-1,9.814758301E0,-1.489562988E-1
1.418426514E0,1.072097778E0,9.879394531E0,-8.192443848E-2
1.422454834E0,1.218139648E0,9.936859131E0,-2.925109863E-2
1.426483155E0,1.277999878E0,9.972763062E0,4.272460938E-3
1.430480957E0,9.954833984E-1,9.886581421E0,-6.517028809E-2
1.434509278E0,1.050552368E0,9.929672241E0,2.581787109E-2
1.438537598E0,1.136734009E0,9.975158691E0,2.821350098E-2
1.442535401E0,1.306732178E0,1.004460144E1,7.369995117E-2
1.446563721E0,1.560516357E0,1.011402893E1,1.814422607E-1
1.450592041E0,1.785568237E0,1.020022583E1,2.221374512E-1
1.454589844E0,1.792755127E0,1.014755249E1,2.628479004E-1
1.458618164E0,1.471923828E0,9.953613281E0,1.981964111E-1
1.462646485E0,1.407287598E0,9.893768311E0,1.814422607E-1
1.466644287E0,1.742477417E0,9.934463501E0,2.532653809E-1
1.470672608E0,2.089630127E0,9.991928101E0,2.915649414E-1
1.474700928E0,2.271591187E0,9.982345581E0,3.202972412E-1
1.478698731E0,2.245254517E0,9.838699341E0,3.993072510E-1
1.482727051E0,1.869369507E0,9.587295532E0,3.514251709E-1
1.486755371E0,1.852600098E0,9.460403442E0,4.088897705E-1
1.490753174E0,2.233276367E0,9.481964111E0,5.238037109E-1
1.494781495E0,2.566070557E0,9.537017822E0,6.076049805E-1
1.498809815E0,2.783950806E0,9.632797241E0,6.602783203E-1
1.502807618E0,2.410446167E0,9.493927002E0,6.171875000E-1
1.506835938E0,2.283554077E0,9.496322632E0,6.626739502E-1
1.510864258E0,2.568466187E0,9.726165771E0,8.087158203E-1
1.514862061E0,2.762405396E0,9.956008911E0,9.236450195E-1
1.518890381E0,2.767181396E0,1.018585205E1,1.060104370E0
1.522888184E0,2.570861816E0,1.041569519E1,1.151092529E0
1.526916504E0,2.534957886E0,1.063357544E1,1.266006470E0
1.530944825E0,2.568466187E0,1.080116272E1,1.421630859E0
1.534942627E0,2.278778076E0,1.099987793E1,1.340225220E0
1.538970948E0,2.250045776E0,1.126803589E1,1.424026489E0
1.542999268E0,2.080047607E0,1.154096985E1,1.421630859E0
1.546997071E0,1.957946777E0,1.178996277E1,1.385726929E0
1.551025391E0,2.015411377E0,1.210121155E1,1.330657959E0
1.555053711E0,1.931610107E0,1.224487305E1,1.237274170E0
1.559051514E0,1.905273438E0,1.243161011E1,1.134323120E0
1.563079834E0,1.895706177E0,1.263751221E1,1.021804810E0
1.567108155E0,1.859786987E0,1.280271912E1,9.260406494E-1
1.571105957E0,1.941192627E0,1.284820557E1,8.901214600E-1
1.575134278E0,1.706558228E0,1.294157410E1,8.973083496E-1
1.579162598E0,1.445587158E0,1.292242432E1,8.589935303E-1
1.583160401E0,1.246871948E0,1.280032349E1,8.159027100E-1
1.587188721E0,1.081665039E0,1.257766724E1,7.871704102E-1
1.591217041E0,9.188690186E-1,1.231190491E1,7.608337402E-1
1.595214844E0,7.464752197E-1,1.203897095E1,7.656250000E-1
1.599243164E0,5.477600098E-1,1.177320862E1,7.871704102E-1
1.603271485E0,3.490447998E-1,1.155534363E1,8.063201904E-1
1.607269287E0,1.335601807E-1,1.138055420E1,8.230895996E-1
1.611297608E0,-6.275939941E-2,1.125605774E1,8.182983398E-1
1.615325928E0,-2.614746094E-1,1.118423462E1,8.206939697E-1
1.619323731E0,-4.601898193E-1,1.117227173E1,8.111114502E-1
1.623352051E0,-6.325836182E-1,1.121057129E1,7.560424805E-1
1.627380371E0,-7.834167480E-1,1.122972107E1,6.411285400E-1
1.631378174E0,-9.749450684E-1,1.119142151E1,5.214080811E-1
1.635406495E0,-1.152114868E0,1.112916565E1,4.855041504E-1
1.639404297E0,-1.288589478E0,1.107170105E1,5.238037109E-1
1.643432618E0,-1.372390747E0,1.101664734E1,6.028137207E-1
1.647460938E0,-1.405899048E0,1.094003296E1,7.225341797E-1
1.651458741E0,-1.415481567E0,1.085623169E1,9.044799805E-1
1.655487061E0,-1.446609497E0,1.065032959E1,1.019409180E0
1.659515381E0,-1.456176758E0,1.031034851E1,1.026596069E0
1.663513184E0,-1.346054077E0,9.970382690E0,9.068756104E-1
1.667541504E0,-1.197616577E0,9.683074951E0,7.440795898E-1
1.671569825E0,-1.140151978E0,9.400558472E0,6.052093506E-1
1.675567627E0,-1.197616577E0,9.077331543E0,4.519805908E-1
1.679595948E0,-1.338867188E0,8.730178833E0,2.915649414E-1
1.683624268E0,-1.456176758E0,8.378234863E0,1.575012207E-1
1.687622071E0,-1.516036987E0,8.028671265E0,3.300476074E-2
1.691650391E0,-1.511245728E0,7.731796265E0,-8.671569824E-2
1.695678711E0,-1.415481567E0,7.525894165E0,-1.752929688E-1
1.699676514E0,-1.290985107E0,7.403793335E0,-2.519073486E-1
1.703704834E0,-1.185638428E0,7.339141846E0,-3.357086182E-1
1.707733155E0,-1.106628418E0,7.375061035E0,-4.482421875E-1
1.711730957E0,-1.022827148E0,7.559417725E0,-5.559692383E-1
1.715759278E0,-9.390411377E-1,7.875442505E0,-6.038665771E-1
1.719787598E0,-9.151000977E-1,8.320770264E0,-5.679473877E-1
1.723785401E0,-9.581909180E-1,8.871429443E0,-5.056915283E-1
1.727813721E0,-1.063537598E0,9.443649292E0,-5.823059082E-1
1.731842041E0,-1.188034058E0,1.002783203E1,-6.732940674E-1
1.735839844E0,-1.250274658E0,1.057371521E1,-7.211761475E-1
1.739868164E0,-1.279006958E0,1.101664734E1,-7.690582275E-1
1.743896485E0,-1.305343628E0,1.133267212E1,-8.839874268E-1
1.747894287E0,-1.286193848E0,1.151463318E1,-1.092269897E0
1.751922608E0,-1.231124878E0,1.157449341E1,-1.350845337E0
1.755920411E0,-1.204788208E0,1.153138733E1,-1.501678467E0
1.759948731E0,-1.233520508E0,1.141647339E1,-1.355636597E0
1.763977051E0,-1.226333618E0,1.123690796E1,-1.006088257E0
1.767974854E0,-1.142547607E0,1.099508667E1,-6.158294678E-1
1.772003174E0,-1.053955078E0,1.068624878E1,-3.069763184E-1
1.776031495E0,-9.869232178E-1,1.033428955E1,-1.752929688E-1
1.780029297E0,-9.127044678E-1,9.999099731E0,-1.369934082E-1
1.784057618E0,-8.265075684E-1,9.711807251E0,-2.016296387E-1
1.788085938E0,-7.379302979E-1,9.448440552E0,-3.285217285E-1
1.792083741E0,-6.924285889E-1,9.240142822E0,-4.961242676E-1
1.796112061E0,-6.541290283E-1,9.058181763E0,-7.882080078E-1
1.800140381E0,-6.493377686E-1,8.936080933E0,-1.030029297E0
1.804138184E0,-6.301879883E-1,8.869049072E0,-1.211990356E0
1.808166504E0,-6.301879883E-1,8.830734253E0,-1.384368896E0
1.812194825E0,-6.972198486E-1,8.790039062E0,-1.465774536E0
1.816192627E0,-6.397552490E-1,8.787643433E0,-1.453796387E0
1.820220948E0,-4.793548584E-1,8.754119873E0,-1.477737427E0
1.824249268E0,-2.878112793E-1,8.663146973E0,-1.609420776E0
1.828247071E0,-1.896514893E-1,8.555404663E0,-1.714767456E0
1.832275391E0,-1.058502197E-1,8.454849243E0,-1.853637695E0
1.836303711E0,-5.317687988E-2,8.342315674E0,-2.059539795E0
1.840301514E0,2.822875977E-2,8.251342773E0,-2.303741455E0
1.844329834E0,3.060913086E-2,8.167541504E0,-2.497680664E0
1.848358155E0,4.272460938E-3,8.052612305E0,-2.643722534E0
1.852355957E0,-2.923583984E-2,7.949676514E0,-2.684417725E0
1.856384278E0,-1.130371094E-1,7.841934204E0,-2.655685425E0
1.860412598E0,-1.345825195E-1,7.719818115E0,-2.634140015E0
1.864410401E0,-1.896514893E-1,7.595321655E0,-2.569503784E0
1.868438721E0,-2.255706787E-1,7.403793335E0,-2.552734375E0
1.872436524E0,-2.542877197E-1,7.250564575E0,-2.524017334E0
1.876464844E0,-3.309020996E-1,7.152404785E0,-2.483306885E0
1.880493164E0,-3.907623291E-1,7.032684326E0,-2.504852295E0
1.884490967E0,-4.769592285E-1,6.929733276E0,-2.478515625E0
1.888519287E0,-6.134185791E-1,6.845947266E0,-2.334869385E0
1.892547608E0,-7.020111084E-1,6.721450806E0,-2.193603516E0
1.896545411E0,-7.068023682E-1,6.642440796E0,-2.083480835E0
1.900573731E0,-7.211608887E-1,6.568222046E0,-2.006866455E0
1.904602051E0,-8.360900879E-1,6.517929077E0,-1.712371826E0
1.908599854E0,-8.863677979E-1,6.472442627E0,-1.523239136E0
1.912628174E0,-9.725494385E-1,6.434143066E0,-1.386764526E0
1.916656495E0,-1.137756348E0,6.417373657E0,-1.243118286E0
1.920654297E0,-1.238311768E0,6.367095947E0,-1.197616577E0
1.924682618E0,-1.259857178E0,6.338363647E0,-1.334091187E0
1.928710938E0,-1.377182007E0,6.343154907E0,-1.271835327E0
1.932708741E0,-1.504074097E0,6.374282837E0,-1.190444946E0
1.936737061E0,-1.599838257E0,6.424560547E0,-1.185653687E0
1.940765381E0,-1.738693237E0,6.436538696E0,-1.221557617E0
1.944763184E0,-1.688415527E0,6.405410767E0,-1.587875366E0
1.948791504E0,-1.702789307E0,6.429351807E0,-1.690826416E0
1.952819825E0,-1.824890137E0,6.410202026E0,-1.662094116E0
1.956817627E0,-1.913482666E0,6.391036987E0,-1.717163086E0
1.960845948E0,-2.009246826E0,6.388656616E0,-1.820114136E0
1.964874268E0,-1.968536377E0,6.276123047E0,-2.289382935E0
1.968872071E0,-2.026000977E0,6.278518677E0,-2.236709595E0
1.972900391E0,-2.081069946E0,6.290481567E0,-2.102630615E0
1.976928711E0,-2.076278687E0,6.309646606E0,-2.136154175E0
1.980926514E0,-2.085861206E0,6.352737427E0,-2.263046265E0
1.984954834E0,-1.961364746E0,6.371887207E0,-2.789764404E0
1.988952637E0,-1.987701416E0,6.489212036E0,-2.753860474E0
1.992980957E0,-2.030792236E0,6.649612427E0,-2.674850464E0
1.997009278E0,-2.023605347E0,6.850723267E0,-2.770614624E0
2.001007080E0,-1.963760376E0,7.056625366E0,-2.926239014E0
2.005035401E0,-1.858413696E0,7.188308716E0,-3.311706543E0
2.009063721E0,-1.829681396E0,7.372665405E0,-3.421829224E0
2.013061524E0,-1.927841187E0,7.595321655E0,-3.194381714E0
2.017089844E0,-1.927841187E0,7.846725464E0,-3.101013184E0
2.021118164E0,-1.846435547E0,8.110076904E0,-3.096221924E0
2.025115967E0,-1.729125977E0,8.392593384E0,-3.139312744E0
2.029144287E0,-1.587860107E0,8.699050903E0,-3.225509644E0
2.033172608E0,-1.369995117E0,9.029449463E0,-3.364379883E0
2.037170411E0,-1.135360718E0,9.359848022E0,-3.666046143E0
2.041198731E0,-9.270629883E-1,9.733352661E0,-4.017990112E0
2.045227051E0,-8.169250488E-1,1.023852539E1,-3.941375732E0
2.049224854E0,-6.636962891E-1,1.072454834E1,-4.027572632E0
2.053253174E0,-4.362487793E-1,1.120098877E1,-4.207138062E0
2.057281495E0,-2.495117188E-1,1.160801697E1,-4.393875122E0
2.061279297E0,-2.923583984E-2,1.194558716E1,-4.753005981E0
2.065307618E0,1.000518799E-1,1.219459534E1,-5.253402710E0
2.069335938E0,1.239929199E-1,1.250582886E1,-5.104965210E0
2.073333741E0,1.192016602E-1,1.278356934E1,-4.994827271E0
2.077362061E0,1.742706299E-1,1.291046143E1,-5.251007080E0
2.081390381E0,-4.360961914E-2,1.294157410E1,-5.203125000E0
2.085388184E0,-2.303466797E-1,1.287693787E1,-4.911026001E0
2.089416504E0,-3.524627686E-1,1.274765015E1,-4.685974121E0
2.093444825E0,-4.266815186E-1,1.253695679E1,-4.585418701E0
2.097442627E0,-3.979492188E-1,1.228077698E1,-4.805679321E0
2.101470948E0,-6.110229492E-1,1.193841553E1,-4.484863281E0
2.105468750E0,-7.235565186E-1,1.157449341E1,-4.317260742E0
2.109497071E0,-7.786254883E-1,1.120578003E1,-4.290924072E0
2.113525391E0,-8.336944580E-1,1.082270813E1,-4.350784302E0
2.117523194E0,-6.996154785E-1,1.044682312E1,-4.762588501E0
2.121551514E0,-7.570800781E-1,1.005656433E1,-5.013977051E0
2.125579834E0,-8.935394287E-1,9.628005981E0,-4.827224731E0
2.129577637E0,-9.079132080E-1,9.220993042E0,-4.748229980E0
2.133605957E0,-8.983306885E-1,8.835525513E0,-4.738647461E0
2.137634278E0,-9.007263184E-1,8.454849243E0,-4.743438721E0
2.141632080E0,-7.379302979E-1,8.110076904E0,-4.755401611E0
2.145660401E0,-7.115936279E-1,7.786865234E0,-4.729064941E0
2.149688721E0,-7.738342285E-1,7.494766235E0,-4.676391602E0
2.153686524E0,-8.935394287E-1,7.257751465E0,-4.642883301E0
2.157714844E0,-1.003677368E0,7.063812256E0,-4.635696411E0
2.161743164E0,-1.085083008E0,6.905792236E0,-4.652450562E0
2.165740967E0,-1.121002197E0,6.800445557E0,-4.666824341E0
2.169769287E0,-1.101837158E0,6.723831177E0,-4.645278931E0
2.173797608E0,-1.051559448E0,6.675949097E0,-4.595001221E0
2.177795411E0,-9.797363281E-1,6.649612427E0,-4.520767212E0
2.181823731E0,-9.007263184E-1,6.659194946E0,-4.417816162E0
2.185852051E0,-8.504486084E-1,6.716659546E0,-4.300506592E0
2.189849854E0,-8.887634277E-1,6.845947266E0,-4.159255981E0
2.193878174E0,-9.940948486E-1,7.140426636E0,-3.967712402E0
2.197906495E0,-1.032409668E0,7.712646484E0,-3.757019043E0
2.201904297E0,-7.642517090E-1,8.749328613E0,-3.654067993E0
2.205932618E0,-5.009002686E-1,1.011163330E1,-3.005249023E0
2.209960938E0,-1.058502197E-1,1.170138550E1,-2.191223145E0
2.213958741E0,2.891845703E-1,1.326240540E1,-1.247894287E0
2.217987061E0,3.298950195E-1,1.459837341E1,-5.187988281E-4
2.221984864E0,1.886291504E-1,1.573800659E1,1.093627930E0
2.226013184E0,-6.755065918E-2,1.665258789E1,1.833435059E0
2.230041504E0,-5.391998291E-1,1.737564087E1,2.470291138E0
2.234039307E0,-1.188034058E0,1.784490967E1,2.968292236E0
2.238067627E0,-1.765029907E0,1.814657593E1,3.238830566E0
2.242095948E0,-2.119384766E0,1.820404053E1,3.181365967E0
2.246093750E0,-2.514419556E0,1.792869568E1,2.884490967E0
2.250122071E0,-2.919036865E0,1.711946106E1,2.343399048E0
2.254150391E0,-3.388305664E0,1.569252014E1,1.735275269E0
2.258148194E0,-3.718704224E0,1.395193481E1,1.201370239E0
2.262176514E0,-3.857574463E0,1.222810364E1,9.715270996E-1
2.266204834E0,-3.934188843E0,1.057850647E1,1.012222290E0
2.270202637E0,-3.857574463E0,9.086914062E0,1.198974609E0
2.274230957E0,-3.579833984E0,7.813201904E0,1.431213379E0
2.278259278E0,-3.184799194E0,6.759750366E0,1.594024658E0
2.282257080E0,-2.804122925E0,5.854736328E0,1.711334229E0
2.286285401E0,-2.425842285E0,5.033538818E0,1.835830688E0
2.290313721E0,-1.994873047E0,4.346389771E0,2.008209229E0
2.294311524E0,-1.468154907E0,3.891494751E0,2.283554077E0
2.298339844E0,-9.533996582E-1,3.580245972E0,2.692962646E0
2.302368164E0,-5.009002686E-1,3.379135132E0,3.193344116E0
2.306365967E0,-5.035400391E-4,3.340835571E0,3.818237305E0
2.310394287E0,6.339569092E-1,3.534759521E0,4.570007324E0
2.314422608E0,1.294754028E0,3.867553711E0,5.259536743E0
2.318420411E0,1.862182617E0,4.423004150E0,5.774291992E0
2.322448731E0,2.398483276E0,5.210708618E0,6.066390991E0
2.326477051E0,2.616348267E0,6.168380737E0,6.061599731E0
2.330474854E0,2.613952637E0,7.209854126E0,5.676132202E0
2.334503174E0,2.381729126E0,8.232177734E0,4.981811523E0
2.338500977E0,1.996261597E0,9.209014893E0,4.179748535E0
2.342529297E0,1.526992798E0,1.012838745E1,3.214889526E0
2.346557618E0,1.031387329E0,1.097114563E1,2.192565918E0
2.350555420E0,5.477600098E-1,1.171095276E1,1.117568970E0
2.354583741E0,1.024475098E-1,1.233345032E1,1.215820312E-1
2.358612061E0,-2.758483887E-1,1.282905579E1,-7.499084473E-1
2.362609864E0,-7.498931885E-1,1.303974915E1,-1.425064087E0
2.366638184E0,-1.123382568E0,1.294876099E1,-1.791381836E0
2.370666504E0,-1.379562378E0,1.253695679E1,-1.841659546E0
2.374664307E0,-1.353225708E0,1.197671509E1,-1.535202026E0
2.378692627E0,-1.154510498E0,1.135661316E1,-1.154525757E0
2.382720948E0,-6.660919189E-1,1.073173523E1,-6.924438477E-1
2.386718750E0,8.328247070E-2,1.028640747E1,-2.423400879E-1
2.390747071E0,2.724304199E-1,9.702224731E0,2.676239014E-1
2.394775391E0,3.681945801E-1,9.254516602E0,5.118408203E-1
2.398773194E0,2.245483398E-1,9.019882202E0,5.669097900E-1
2.402801514E0,-2.204895020E-2,8.833129883E0,4.759216309E-1
2.406829834E0,-2.949981689E-1,8.684692383E0,3.921356201E-1
2.410827637E0,-4.458312988E-1,8.598495483E0,3.418426514E-1
2.414855957E0,-5.200500488E-1,8.557800293E0,2.939605713E-1
2.418884278E0,-5.679321289E-1,8.517089844E0,2.796020508E-1
2.422882080E0,-5.391998291E-1,8.459640503E0,3.274841309E-1
2.426910401E0,-3.093566895E-1,8.390197754E0,3.921356201E-1
2.430938721E0,-1.487731934E-2,8.260910034E0,4.878997803E-1
2.434936524E0,2.365112305E-1,8.076568604E0,5.788726807E-1
2.438964844E0,4.184722900E-1,7.964035034E0,7.297058105E-1
2.442993164E0,7.057800293E-1,7.925720215E0,8.278656006E-1
2.446990967E0,9.523773193E-1,7.827560425E0,8.709716797E-1
2.451019287E0,1.239685059E0,7.858688354E0,8.757629395E-1
2.455047608E0,1.471923828E0,7.992767334E0,8.111114502E-1
2.459045411E0,1.747253418E0,8.201065063E0,6.387329102E-1
2.463073731E0,1.962738037E0,8.524276733E0,4.352264404E-1
2.467071534E0,2.194976807E0,8.852279663E0,1.431274414E-1
2.471099854E0,2.472702026E0,9.177902222E0,-1.776885986E-1
2.475128174E0,2.740844727E0,9.474777222E0,-4.721832275E-1
2.479125977E0,2.925201416E0,9.714202881E0,-7.235717773E-1
2.483154297E0,3.042526245E0,9.891372681E0,-9.294738770E-1
2.487182618E0,3.085617065E0,1.000149536E1,-1.094665527E0
2.491180420E0,3.052093506E0,1.003501892E1,-1.223953247E0
2.495208741E0,2.956329346E0,9.994323730E0,-1.314941406E0
2.499237061E0,2.819854736E0,9.932067871E0,-1.360427856E0
2.503234864E0,2.628326416E0,9.855453491E0,-1.353240967E0
2.507263184E0,2.451156616E0,9.752502441E0,-1.310150146E0
2.511291504E0,2.163848877E0,9.692642212E0,-1.178466797E0
2.515289307E0,1.914855957E0,9.661529541E0,-1.013275146E0
2.519317627E0,1.670639038E0,9.589691162E0,-8.791961670E-1
2.523345948E0,1.368972778E0,9.462799072E0,-7.714538574E-1
2.527343750E0,1.201385498E0,9.379013062E0,-7.115936279E-1
2.531372071E0,1.234893799E0,9.429290771E0,-6.158294678E-1
2.535400391E0,9.906921387E-1,9.352676392E0,-4.889373779E-1
2.539398194E0,8.973236084E-1,9.355072021E0,-3.381042480E-1
2.543426514E0,8.063354492E-1,9.288024902E0,-1.968383789E-1
2.547454834E0,8.254852295E-1,9.189865112E0,-1.082611084E-1
2.551452637E0,8.063354492E-1,9.228179932E0,9.284973145E-2
2.555480957E0,9.068908691E-1,9.388580322E0,3.610076904E-1
2.559509278E0,8.997039795E-1,9.436462402E0,5.716857910E-1
2.563507080E0,9.691467285E-1,9.410125732E0,6.411285400E-1
2.567535401E0,9.547729492E-1,9.467590332E0,7.249145508E-1
2.571563721E0,1.026611328E0,9.628005981E0,7.991485596E-1
2.575561524E0,1.117584229E0,9.826721191E0,8.542022705E-1
2.579589844E0,1.143920898E0,9.857849121E0,7.775878906E-1
2.583587647E0,1.127166748E0,9.905731201E0,6.818237305E-1
2.587615967E0,1.076889038E0,1.002304077E1,6.195831299E-1
2.591644287E0,1.131942749E0,1.022894287E1,5.764770508E-1
2.595642090E0,1.019424438E0,1.028161621E1,4.902954102E-1
2.599670411E0,7.871856689E-1,1.034147644E1,4.424133301E-1
2.603698731E0,5.597381592E-1,1.043006897E1,3.729705811E-1
2.607696534E0,4.304504395E-1,1.063357544E1,2.245330811E-1
2.611724854E0,1.527252197E-1,1.081552124E1,6.172180176E-2
2.615753174E0,-2.375335693E-1,1.083468628E1,-2.016296387E-1
2.619750977E0,-5.535736084E-1,1.099748230E1,-3.620452881E-1
2.623779297E0,-7.882080078E-1,1.114114380E1,-4.266815186E-1
2.627807618E0,-9.031219482E-1,1.117227173E1,-4.913330078E-1
2.631805420E0,-9.222717285E-1,1.125366211E1,-3.404998779E-1
2.635833741E0,-8.648223877E-1,1.124169922E1,-1.657257080E-1
2.639862061E0,-7.020111084E-1,1.114114380E1,-9.150695801E-2
2.643859864E0,-4.338531494E-1,1.110043335E1,6.651306152E-2
2.647888184E0,-4.121398926E-2,1.092805481E1,3.778076172E-2
2.651916504E0,5.477600098E-1,1.089692688E1,3.060913086E-2
2.655914307E0,1.330673218E0,1.100706482E1,7.130432129E-2
2.659942627E0,1.969924927E0,1.090890503E1,-6.756591797E-2
2.663970948E0,2.532562256E0,1.088256836E1,-9.388732910E-2
2.667968750E0,2.925201416E0,1.074609375E1,-2.016296387E-1
2.671997071E0,3.246032715E0,1.063357544E1,-2.327575684E-1
2.676025391E0,3.382492065E0,1.052343750E1,-1.776885986E-1
2.680023194E0,3.449539185E0,1.035823059E1,-1.393890381E-1
2.684051514E0,3.425598145E0,1.020260620E1,-5.319213867E-2
2.688079834E0,3.291519165E0,1.001826477E1,-2.914428711E-3
2.692077637E0,3.190963745E0,9.886581421E0,7.609558105E-2
2.696105957E0,3.164627075E0,9.853057861E0,2.077789307E-1
2.700103760E0,3.195755005E0,9.874603271E0,3.346710205E-1
2.704132080E0,3.198150635E0,9.932067871E0,4.256439209E-1
2.708160401E0,3.200546265E0,1.002304077E1,4.783172607E-1
2.712158203E0,3.202926636E0,1.014036560E1,4.926910400E-1
2.716186524E0,3.207717896E0,1.029119873E1,4.974670410E-1
2.720214844E0,3.212509155E0,1.051385498E1,5.142364502E-1
2.724212647E0,3.210113525E0,1.081314087E1,5.405731201E-1
2.728240967E0,3.198150635E0,1.122492981E1,5.932464600E-1
2.732269287E0,3.145477295E0,1.173728943E1,6.435241699E-1
2.736267090E0,3.085617065E0,1.228796387E1,6.842193604E-1
2.740295411E0,3.023361206E0,1.284341431E1,7.177429199E-1
2.744323731E0,2.965911865E0,1.333662415E1,7.704162598E-1
2.748321534E0,2.903656006E0,1.370771790E1,8.829345703E-1
2.752349854E0,2.771972656E0,1.396150208E1,1.048141479E0
2.756378174E0,2.563674927E0,1.410995483E1,1.234893799E0
2.760375977E0,2.398483276E0,1.412431335E1,1.385726929E0
2.764404297E0,2.175827026E0,1.406684875E1,1.610778809E0
2.768432618E0,1.752044678E0,1.389207458E1,1.752029419E0
2.772430420E0,1.349822998E0,1.358801270E1,1.895690918E0
2.776458741E0,1.014633179E0,1.321931458E1,2.060882568E0
2.780487061E0,7.895812988E-1,1.280511475E1,2.171020508E0
2.784484864E0,6.052246094E-1,1.235739136E1,2.175811768E0
2.788513184E0,3.346862793E-1,1.184742737E1,2.154266357E0
2.792541504E0,-1.487731934E-2,1.130154419E1,2.166229248E0
2.796539307E0,-4.338531494E-1,1.078201294E1,2.142288208E0
2.800567627E0,-9.390411377E-1,1.029119873E1,2.001037598E0
2.804595948E0,-1.511245728E0,9.817153931E0,1.780761719E0
2.808593750E0,-2.102615356E0,9.369430542E0,1.567687988E0
2.812622071E0,-2.631729126E0,8.960021973E0,1.352203369E0
2.816619873E0,-3.026779175E0,8.588928223E0,1.012222290E0
2.820648194E0,-3.302108765E0,8.284851074E0,6.794281006E-1
2.824676514E0,-3.510406494E0,8.129226685E0,4.447937012E-1
2.828674317E0,-3.689971924E0,8.160354614E0,2.652282715E-1
2.832702637E0,-3.735458374E0,8.354293823E0,1.072235107E-1
2.836730957E0,-3.608566284E0,8.694259644E0,-1.010131836E-2
2.840728760E0,-3.342819214E0,9.161132812E0,-1.034698486E-1
2.844757080E0,-3.021987915E0,9.695037842E0,-1.250152588E-1
2.848785401E0,-2.737075806E0,1.029359436E1,-7.952880859E-2
2.852783203E0,-2.473724365E0,1.094003296E1,3.060913086E-2
2.856811524E0,-2.138534546E0,1.156970215E1,1.814422607E-1
2.860839844E0,-1.709976196E0,1.212036133E1,2.772064209E-1
2.864837647E0,-1.111419678E0,1.256568909E1,2.508697510E-1
2.868865967E0,-3.859710693E-1,1.287933350E1,9.524536133E-2
2.872894287E0,2.628479004E-1,1.305650330E1,-1.202239990E-1
2.876892090E0,7.536621094E-1,1.311636353E1,-3.572540283E-1
2.880920411E0,1.129547119E0,1.311874390E1,-5.679473877E-1
2.884948731E0,1.414459229E0,1.308283997E1,-8.289184570E-1
2.888946534E0,1.558120728E0,1.295594788E1,-1.132980347E0
2.892974854E0,1.708953857E0,1.286495972E1,-1.884750366E0
2.897003174E0,1.826263428E0,1.273567200E1,-3.139312744E0
2.901000977E0,1.718521118E0,1.248428345E1,-3.244659424E0
2.905029297E0,1.572479248E0,1.215628052E1,-2.617385864E0
2.909057618E0,1.517410278E0,1.176362610E1,-1.908706665E0
2.913055420E0,1.503051758E0,1.127043152E1,-1.132980347E0
2.917083741E0,1.613189697E0,1.070300293E1,-4.195098877E-1
2.921112061E0,1.831054688E0,1.015472412E1,-8.911132812E-2
2.925109864E0,2.070480347E0,9.733352661E0,-4.122924805E-2
2.929138184E0,2.259613037E0,9.458023071E0,-3.883361816E-2
2.933135987E0,2.204544067E0,9.139587402E0,-7.473754883E-2
2.937164307E0,2.013015747E0,8.806793213E0,-2.351531982E-1
2.941192627E0,1.711349487E0,8.608078003E0,-3.333129883E-1
2.945190430E0,1.349822998E0,8.457244873E0,-2.710723877E-1
2.949218750E0,9.882965088E-1,8.253738403E0,-2.088165283E-1
2.953247071E0,6.219787598E-1,7.999954224E0,-1.465606689E-1
2.957244873E0,2.939758301E-1,7.813201904E0,-9.388732910E-2
2.961273194E0,1.479339600E-1,7.801223755E0,-1.728973389E-1
2.965301514E0,-1.487731934E-2,7.803619385E0,-3.141632080E-1
2.969299317E0,-2.758483887E-1,7.715042114E0,-4.434509277E-1
2.973327637E0,-5.799102783E-1,7.566589355E0,-4.147186279E-1
2.977355957E0,-7.642517090E-1,7.420547485E0,7.609558105E-2
2.981353760E0,-7.666473389E-1,7.262527466E0,7.081604004E-1
2.985382080E0,-7.307434082E-1,7.063812256E0,1.124755859E0
2.989410401E0,-7.498931885E-1,6.822006226E0,1.230102539E0
2.993408203E0,-7.690429688E-1,6.592163086E0,1.136718750E0
2.997436524E0,-7.810211182E-1,6.362319946E0,9.068756104E-1
3.001464844E0,-8.193206787E-1,6.137252808E0,6.123962402E-1
3.005462647E0,-9.605865479E-1,5.924179077E0,3.681793213E-1
3.009490967E0,-1.116210938E0,5.751785278E0,5.694580078E-2
3.013519287E0,-1.283798218E0,5.596176147E0,-3.381042480E-1
3.017517090E0,-1.389144897E0,5.502792358E0,-7.044219971E-1
3.021545411E0,-1.401123047E0,5.435760498E0,-1.116226196E0
3.025573731E0,-1.504074097E0,5.416610718E0,-1.269454956E0
3.029571534E0,-1.566314697E0,5.426177979E0,-1.276626587E0
3.033599854E0,-1.599838257E0,5.466888428E0,-1.180862427E0
3.037628174E0,-1.559127808E0,5.529129028E0,-1.051574707E0
3.041625977E0,-1.437026978E0,5.615325928E0,-9.821472168E-1
3.045654297E0,-1.465759277E0,5.711090088E0,-6.062469482E-1
3.049652100E0,-1.475341797E0,5.811645508E0,-2.495117188E-1
3.053680420E0,-1.482513428E0,5.919387817E0,4.017639160E-2
3.057708741E0,-1.544769287E0,6.010360718E0,2.173461914E-1
3.061706543E0,-1.556747437E0,6.079803467E0,2.532653809E-1
3.065734864E0,-1.597442627E0,6.132476807E0,2.197418213E-1
3.069763184E0,-1.666870117E0,6.156417847E0,1.024322510E-1
3.073760987E0,-1.695602417E0,6.146835327E0,-8.671569824E-2
3.077789307E0,-1.755462646E0,6.118103027E0,-3.141632080E-1
3.081817627E0,-1.729125977E0,6.022338867E0,-8.289184570E-1
3.085815430E0,-1.846435547E0,5.928955078E0,-1.176071167E0
3.089843750E0,-2.054733276E0,5.821228027E0,-1.319732666E0
3.093872071E0,-2.234298706E0,5.694335938E0,-1.583084106E0
3.097869873E0,-2.198379517E0,5.538711548E0,-2.251068115E0
3.101898194E0,-2.306121826E0,5.378295898E0,-2.648513794E0
3.105926514E0,-2.564697266E0,5.210708618E0,-2.689208984E0
3.109924317E0,-2.749053955E0,5.083816528E0,-2.684417725E0
3.113952637E0,-2.708343506E0,5.002410889E0,-2.947784424E0
3.117980957E0,-2.626953125E0,5.007202148E0,-3.275787354E0
3.121978760E0,-2.746658325E0,5.090988159E0,-3.091430664E0
3.126007080E0,-2.789749146E0,5.260986328E0,-2.770614624E0
3.130035401E0,-2.741867065E0,5.555465698E0,-2.579071045E0
3.134033203E0,-2.646102905E0,5.988815308E0,-2.519226074E0
3.138061524E0,-2.464141846E0,6.551452637E0,-2.574295044E0
3.142089844E0,-2.188812256E0,7.221832275E0,-2.897506714E0
3.146087647E0,-2.136138916E0,7.971221924E0,-2.732299805E0
3.150115967E0,-1.920654297E0,8.881011963E0,-2.571899414E0
3.154144287E0,-1.492095947E0,1.007810974E1,-2.476119995E0
3.158142090E0,-1.022827148E0,1.149787903E1,-2.332473755E0
3.162170411E0,-6.253967285E-1,1.309002686E1,-2.203186035E0
3.166168213E0,-3.979492188E-1,1.470132446E1,-2.291778564E0
3.170196534E0,-3.165435791E-1,1.616416931E1,-2.811309814E0
3.174224854E0,-3.907623291E-1,1.728227234E1,-3.807296753E0
3.178222657E0,-6.182098389E-1,1.792152405E1,-5.071441650E0
3.182250977E0,-8.576354980E-1,1.807954407E1,-6.309249878E0
3.186279297E0,-9.749450684E-1,1.767251587E1,-7.348327637E0
3.190277100E0,-1.034805298E0,1.671484375E1,-8.121658325E0
3.194305420E0,-1.166488647E0,1.532620239E1,-8.696258545E0
3.198333741E0,-1.298171997E0,1.378433228E1,-9.060180664E0
3.202331543E0,-1.336471558E0,1.233345032E1,-9.230163574E0
3.206359864E0,-1.307739258E0,1.110522461E1,-9.170318604E0
3.210388184E0,-1.290985107E0,1.013078308E1,-8.880615234E0
3.214385987E0,-1.305343628E0,9.369430542E0,-8.370651245E0
3.218414307E0,-1.171279907E0,8.809188843E0,-7.942092896E0
3.222442627E0,-1.178451538E0,8.375839233E0,-7.037078857E0
3.226440430E0,-1.147338867E0,8.007125854E0,-6.033905029E0
3.230468750E0,-1.039596558E0,7.719818115E0,-5.100173950E0
3.234497071E0,-8.265075684E-1,7.470825195E0,-4.202346802E0
3.238494873E0,-5.224456787E-1,7.319992065E0,-3.340438843E0
3.242523194E0,-2.662658691E-1,7.264923096E0,-2.600631714E0
3.246551514E0,-2.878112793E-1,7.375061035E0,-2.030807495E0
3.250549317E0,-6.253967285E-1,7.791656494E0,-1.590270996E0
3.254577637E0,-1.003677368E0,8.677505493E0,-1.283813477E0
3.258605957E0,-1.183242798E0,1.000389099E1,-1.147338867E0
3.262603760E0,-1.104232788E0,1.159124756E1,-1.006088257E0
3.266632080E0,-7.929840088E-1,1.327676392E1,-7.187805176E-1
3.270660401E0,-3.404846191E-1,1.490003967E1,-3.883819580E-1
3.274658203E0,1.359558105E-1,1.632698059E1,-1.010742188E-1
3.278686524E0,4.472045898E-1,1.743550110E1,3.394622803E-1
3.282714844E0,3.801727295E-1,1.808911133E1,1.175033569E0
3.286712647E0,-4.360961914E-2,1.828543091E1,2.364944458E0
3.290740967E0,-7.810211182E-1,1.818487549E1,3.892456055E0
3.294738770E0,-1.496887207E0,1.789518738E1,5.111099243E0
3.298767090E0,-2.186416626E0,1.728706360E1,5.661773682E0
3.302795411E0,-3.002838135E0,1.619290161E1,5.367279053E0
3.306793213E0,-3.893478394E0,1.451217651E1,4.330596924E0
3.310821534E0,-4.788909912E0,1.245077515E1,2.970687866E0
3.314849854E0,-5.394638062E0,1.050668335E1,1.620346069E0
3.318847657E0,-5.495208740E0,8.895385742E0,3.705749512E-1
3.322875977E0,-5.286911011E0,7.525894165E0,-7.091979980E-1
3.326904297E0,-4.925384521E0,6.371887207E0,-1.563934326E0
3.330902100E0,-4.494430542E0,5.490829468E0,-2.042770386E0
3.334930420E0,-4.089797974E0,4.734252930E0,-1.985321045E0
3.338958741E0,-3.536743164E0,4.049514771E0,-1.439437866E0
3.342956543E0,-2.667648315E0,3.498840332E0,-6.397705078E-1
3.346984864E0,-1.635742188E0,3.132537842E0,4.064941406E-1
3.351013184E0,-7.115936279E-1,2.802139282E0,1.670639038E0
3.355010987E0,5.934143066E-2,2.493286133E0,3.025756836E0
3.359039307E0,8.350677490E-1,2.390335083E0,4.500579834E0
3.363067627E0,1.764022827E0,2.682418823E0,6.095123291E0
3.367065430E0,2.793518066E0,3.467727661E0,7.622619629E0
3.371093750E0,3.803878784E0,4.626510620E0,8.747894287E0
3.375122071E0,4.680160522E0,5.955291748E0,9.200393677E0
3.379119873E0,5.185333252E0,7.322387695E0,9.118988037E0
3.383148194E0,5.209274292E0,8.596099854E0,8.553955078E0
3.387176514E0,4.756774902E0,9.692642212E0,7.517272949E0
3.391174317E0,3.985839844E0,1.065991211E1,6.085540771E0
3.395202637E0,2.982666016E0,1.157209778E1,4.376083374E0
3.399230957E0,1.871749878E0,1.245555115E1,2.621124268E0
3.403228760E0,7.704315186E-1,1.329113770E1,8.015289307E-1
3.407257080E0,-2.782287598E-1,1.399742126E1,-1.010879517E0
3.411285401E0,-1.305343628E0,1.448104858E1,-2.603012085E0
3.415283203E0,-2.160079956E0,1.461273193E1,-3.661254883E0
3.419311524E0,-2.670043945E0,1.422247314E1,-4.061080933E0
3.423309327E0,-2.744262695E0,1.335098267E1,-3.675613403E0
3.427337647E0,-2.289367676E0,1.239091492E1,-2.935806274E0
3.431365967E0,-2.136138916E0,1.136859131E1,-1.786590576E0
3.435363770E0,-1.877563477E0,1.040373230E1,-7.666625977E-1
3.439392090E0,-1.547164917E0,9.553787231E0,4.975891113E-2
3.443420411E0,-1.422668457E0,8.885803223E0,7.225341797E-1
3.447418213E0,-1.293380737E0,8.447662354E0,1.273193359E0
3.451446534E0,-1.142547607E0,8.193878174E0,1.629928589E0
3.455474854E0,-9.414367676E-1,8.088531494E0,1.898086548E0
3.459472657E0,-6.900329590E-1,8.071777344E0,2.132705688E0
3.463500977E0,-4.865264893E-1,8.059799194E0,2.288330078E0
3.467529297E0,-3.500671387E-1,8.102905273E0,2.427200317E0
3.471527100E0,-2.088012695E-1,8.167541504E0,2.561279297E0
3.475555420E0,-1.585235596E-1,8.198669434E0,2.709716797E0
3.479583741E0,-9.628295898E-2,8.239364624E0,2.831817627E0
3.483581543E0,6.652832031E-2,8.253738403E0,2.829421997E0
3.487609864E0,3.131256104E-1,8.198669434E0,2.695343018E0
3.491638184E0,5.022735596E-1,8.122055054E0,2.489456177E0
3.495635987E0,7.680358887E-1,7.937698364E0,2.135101318E0
3.499664307E0,9.523773193E-1,7.813201904E0,1.787948608E0
3.503692627E0,1.117584229E0,7.748550415E0,1.428817749E0
3.507690430E0,1.316299438E0,7.791656494E0,1.052932739E0
3.511718750E0,1.560516357E0,7.992767334E0,6.459197998E-1
3.515747071E0,1.878936768E0,8.325561523E0,2.460784912E-1
3.519744873E0,2.254821777E0,8.696655273E0,-1.345977783E-1
3.523773194E0,2.487060547E0,9.158737183E0,-3.907775879E-1
3.527801514E0,2.647476196E0,9.592086792E0,-6.206207275E-1
3.531799317E0,2.748031616E0,9.979949951E0,-8.337097168E-1
3.535827637E0,2.894088745E0,1.028401184E1,-1.073120117E0
3.539825440E0,2.841415405E0,1.060963440E1,-1.168884277E0
3.543853760E0,2.714523315E0,1.078440857E1,-1.228744507E0
3.547882080E0,2.645080566E0,1.081552124E1,-1.298171997E0
3.551879883E0,2.453552246E0,1.084904480E1,-1.231140137E0
3.555908203E0,2.199768066E0,1.077722168E1,-1.075515747E0
3.559936524E0,1.996261597E0,1.062399292E1,-9.055328369E-1
3.563934327E0,1.874145508E0,1.046118164E1,-7.403259277E-1
3.567962647E0,1.838241577E0,1.023612976E1,-6.278076172E-1
3.571990967E0,1.687408447E0,1.004220581E1,-4.649963379E-1
3.575988770E0,1.610794067E0,9.865036011E0,-3.141632080E-1
3.580017090E0,1.546142578E0,9.639968872E0,-2.662811279E-1
3.584045411E0,1.522201538E0,9.481964111E0,-2.327575684E-1
3.588043213E0,1.560516357E0,9.364639282E0,-2.279663086E-1
3.592071534E0,1.574874878E0,9.240142822E0,-2.495117188E-1
3.596099854E0,1.658676147E0,9.144378662E0,-2.806396484E-1
3.600097657E0,1.747253418E0,9.177902222E0,-2.255706787E-1
3.604125977E0,1.816696167E0,9.194656372E0,-2.231750488E-1
3.608154297E0,1.910064697E0,9.235351562E0,-2.447357178E-1
3.612152100E0,2.063293457E0,9.369430542E0,-2.710723877E-1
3.616180420E0,2.175827026E0,9.429290771E0,-4.147186279E-1
3.620208741E0,2.297927856E0,9.525054932E0,-5.775299072E-1
3.624206543E0,2.429611206E0,9.572937012E0,-8.313140869E-1
3.628234864E0,2.424819946E0,9.618423462E0,-1.061157227E0
3.632263184E0,2.336227417E0,9.671096802E0,-1.245498657E0
3.636260987E0,2.309890747E0,9.721374512E0,-1.403518677E0
3.640289307E0,2.163848877E0,9.711807251E0,-1.530410767E0
3.644317627E0,1.967529297E0,9.735748291E0,-1.539993286E0
3.648315430E0,1.761627197E0,9.750106812E0,-1.484924316E0
3.652343750E0,1.558120728E0,9.793197632E0,-1.365219116E0
3.656341553E0,1.364181519E0,9.891372681E0,-1.204803467E0
3.660369873E0,1.179840088E0,1.003022766E1,-1.056365967E0
3.664398194E0,1.000274658E0,1.023612976E1,-9.031372070E-1
3.668395996E0,8.326721191E-1,1.045401001E1,-8.025817871E-1
3.672424317E0,7.201385498E-1,1.070060730E1,-7.642669678E-1
3.676452637E0,6.291656494E-1,1.093763733E1,-7.283630371E-1
3.680450440E0,5.908660889E-1,1.110282898E1,-7.163848877E-1
3.684478760E0,6.028289795E-1,1.121536255E1,-7.331542969E-1
3.688507080E0,5.956420898E-1,1.126564026E1,-6.708984375E-1
3.692504883E0,6.770477295E-1,1.120578003E1,-6.685028076E-1
3.696533203E0,9.284362793E-1,1.110522461E1,-6.780853271E-1
3.700561524E0,1.368972778E0,1.102861023E1,-7.068176270E-1
3.704559327E0,1.785568237E0,1.091609192E1,-7.020263672E-1
3.708587647E0,2.276382446E0,1.083229065E1,-6.565399170E-1
3.712615967E0,2.680999756E0,1.072454834E1,-5.870971680E-1
3.716613770E0,2.944366455E0,1.065032959E1,-4.171142578E-1
3.720642090E0,3.107162476E0,1.052343750E1,-2.782440186E-1
3.724670411E0,3.143081665E0,1.041329956E1,-1.609344482E-1
3.728668213E0,3.071258545E0,1.030078125E1,-9.150695801E-2
3.732696534E0,2.951538086E0,1.021458435E1,-7.473754883E-2
3.736724854E0,2.834228516E0,1.017149353E1,-1.010742188E-1
3.740722657E0,2.700149536E0,1.020022583E1,-1.441802979E-1
3.744750977E0,2.558898926E0,1.030555725E1,-1.585388184E-1
3.748779297E0,2.410446167E0,1.047076416E1,-1.681213379E-1
3.752777100E0,2.262008667E0,1.066229248E1,-1.489562988E-1
3.756805420E0,2.139907837E0,1.087059021E1,-1.034698486E-1
3.760833741E0,2.063293457E0,1.109086609E1,-4.360961914E-2
3.764831543E0,1.977096558E0,1.134704590E1,9.048461914E-3
3.768859864E0,1.843032837E0,1.164631653E1,4.257202148E-2
3.772857666E0,1.629943848E0,1.198629761E1,4.496765137E-2
3.776885987E0,1.354614258E0,1.235978699E1,4.017639160E-2
3.780914307E0,1.115188599E0,1.275244141E1,3.538513184E-2
3.784912110E0,9.763183594E-1,1.312113953E1,1.383361816E-1
3.788940430E0,9.332275391E-1,1.340365601E1,3.921356201E-1
3.792968750E0,9.619598389E-1,1.356167603E1,8.087158203E-1
3.796966553E0,1.055328369E0,1.356167603E1,1.356994629E0
3.800994873E0,1.225326538E0,1.335337830E1,1.898086548E0
3.805023194E0,1.409683228E0,1.301101685E1,2.331436157E0
3.809020996E0,1.558120728E0,1.257048035E1,2.525360107E0
3.813049317E0,1.603607178E0,1.202459717E1,2.436782837E0
3.817077637E0,1.512634277E0,1.146195984E1,2.283554077E0
3.821075440E0,1.306732178E0,1.099748230E1,2.175811768E0
3.825103760E0,9.116821289E-1,1.063597107E1,2.182983398E0
3.829132080E0,4.424133301E-1,1.027922058E1,2.159042358E0
3.833129883E0,-7.690429688E-3,9.972763062E0,2.123138428E0
3.837158203E0,-6.852569580E-1,9.644760132E0,1.780761719E0
3.841186524E0,-1.298171997E0,9.220993042E0,1.163055420E0
3.845184327E0,-1.781799316E0,8.852279663E0,6.363372803E-1
3.849212647E0,-2.107406616E0,8.596099854E0,3.107299805E-1
3.853240967E0,-2.296554565E0,8.495544434E0,9.284973145E-2
3.857238770E0,-2.418655396E0,8.658355713E0,9.048461914E-3
3.861267090E0,-2.468933105E0,9.209014893E0,6.651306152E-2
3.865295411E0,-2.447387695E0,1.007810974E1,4.017028809E-1
3.869293213E0,-2.356399536E0,1.105973816E1,9.475860596E-1
3.873321534E0,-2.251052856E0,1.203417969E1,1.404876709E0
3.877349854E0,-2.114593506E0,1.293917847E1,1.689788818E0
3.881347657E0,-1.867980957E0,1.372209167E1,1.716125488E0
3.885375977E0,-1.523223877E0,1.439486694E1,1.438400269E0
3.889373780E0,-1.135360718E0,1.494792175E1,9.763183594E-1
3.893402100E0,-6.397552490E-1,1.538366699E1,4.878997803E-1
3.897430420E0,-1.106414795E-1,1.567097473E1,7.609558105E-2
3.901428223E0,2.939758301E-1,1.571646118E1,-5.775299072E-1
3.905456543E0,6.148071289E-1,1.537887573E1,-2.040374756E0
3.909484864E0,7.153625488E-1,1.483061218E1,-3.393112183E0
3.913482666E0,1.060119629E0,1.441641235E1,-4.161636353E0
3.917510987E0,1.529388428E0,1.395193481E1,-4.219100952E0
3.921539307E0,1.895706177E0,1.342282104E1,-3.546340942E0
3.925537110E0,2.142303467E0,1.271652222E1,-2.318115234E0
3.929565430E0,2.482284546E0,1.196235657E1,-7.211761475E-1
3.933593750E0,3.071258545E0,1.130154419E1,5.693054199E-1
3.937591553E0,3.688949585E0,1.066947937E1,1.141510010E0
3.941619873E0,4.040908813E0,1.010444641E1,1.182220459E0
3.945648194E0,3.990631104E0,9.563354492E0,9.212493896E-1
3.949645996E0,3.540512085E0,8.988754272E0,5.022583008E-1
3.953674317E0,2.867752075E0,8.457244873E0,1.311645508E-1
3.957702637E0,2.192581177E0,8.086135864E0,-1.657257080E-1
3.961700440E0,1.505447388E0,7.777282715E0,-4.314727783E-1
3.965728760E0,9.164733887E-1,7.509140015E0,-6.254119873E-1
3.969757080E0,4.136810303E-1,7.288864136E0,-7.475128174E-1
3.973754883E0,-4.838562012E-2,7.154800415E0,-7.427215576E-1
3.977783203E0,-3.285217285E-1,7.097335815E0,-7.714538574E-1
3.981811524E0,-6.900329590E-1,7.027908325E0,-7.690582275E-1
3.985809327E0,-1.075500488E0,6.941711426E0,-7.690582275E-1
3.989837647E0,-1.350845337E0,6.881851196E0,-5.870971680E-1
3.993865967E0,-1.472946167E0,6.738204956E0,-2.279663086E-1
3.997863770E0,-1.607025146E0,6.534698486E0,3.346710205E-1
4.001892090E0,-1.690811157E0,6.340759277E0,8.973083496E-1
4.005889893E0,-1.664474487E0,6.185134888E0,1.261230469E0
4.009918213E0,-1.597442627E0,6.077407837E0,1.395294189E0
4.013946534E0,-1.453796387E0,6.000793457E0,1.385726929E0
4.017944336E0,-1.302947998E0,5.940933228E0,1.292343140E0
4.021972657E0,-1.178451538E0,5.842773438E0,1.108001709E0
4.026000977E0,-1.111419678E0,5.730239868E0,7.799835205E-1
4.029998780E0,-1.168884277E0,5.591384888E0,3.202972412E-1
4.034027100E0,-1.228729248E0,5.440551758E0,-1.202239990E-1
4.038055420E0,-1.286193848E0,5.328018188E0,-5.368194580E-1
4.042053223E0,-1.319717407E0,5.253799438E0,-9.558105469E-1
4.046081543E0,-1.355621338E0,5.203521729E0,-1.365219116E0
4.050109864E0,-1.425064087E0,5.181976318E0,-1.616607666E0
4.054107666E0,-1.444213867E0,5.167602539E0,-1.791381836E0
4.058135987E0,-1.417877197E0,5.165206909E0,-2.069107056E0
4.062164307E0,-1.460968018E0,5.215484619E0,-2.076293945E0
4.066162110E0,-1.475341797E0,5.299285889E0,-1.860809326E0
4.070190430E0,-1.367599487E0,5.390274048E0,-1.626190186E0
4.074218750E0,-1.238311768E0,5.519561768E0,-1.355636597E0
4.078216553E0,-1.202392578E0,5.672790527E0,-7.283630371E-1
4.082244873E0,-1.166488647E0,5.830795288E0,-8.911132812E-2
4.086273194E0,-1.051559448E0,5.955291748E0,1.551055908E-1
4.090270996E0,-1.140151978E0,6.046279907E0,3.610076904E-1
4.094299317E0,-1.379562378E0,6.089370728E0,7.344970703E-1
4.098327637E0,-1.621383667E0,6.058242798E0,9.236450195E-1
4.102325440E0,-1.903900146E0,5.928955078E0,8.302612305E-1
4.106353760E0,-1.975723267E0,5.723068237E0,2.005920410E-1
4.110382080E0,-2.253448486E0,5.471664429E0,-2.925109863E-2
4.114379883E0,-2.535964966E0,5.203521729E0,-5.798339844E-2
4.118408203E0,-2.667648315E0,4.964096069E0,-2.710723877E-1
4.122406006E0,-2.662857056E0,4.808471680E0,-6.421661377E-1
4.126434327E0,-2.672439575E0,4.698348999E0,-1.063552856E0
4.130462647E0,-2.638916016E0,4.674407959E0,-1.449020386E0
4.134460450E0,-2.614974976E0,4.724685669E0,-1.786590576E0
4.138488770E0,-2.624557495E0,4.863540649E0,-2.037994385E0
4.142517090E0,-2.619766235E0,5.110153198E0,-2.191223145E0
4.146514893E0,-2.564697266E0,5.447723389E0,-2.313323975E0
4.150543213E0,-2.452178955E0,5.890655518E0,-2.433029175E0
4.154571534E0,-2.164871216E0,6.453292847E0,-2.569503784E0
4.158569336E0,-1.856018066E0,7.130859375E0,-2.701187134E0
4.162597657E0,-1.630966187E0,7.940093994E0,-2.823287964E0
4.166625977E0,-1.516036987E0,8.921722412E0,-2.952575684E0
4.170623780E0,-1.470550537E0,1.011642456E1,-3.098617554E0
4.174652100E0,-1.396331787E0,1.154096985E1,-3.285369873E0
4.178680420E0,-1.317321777E0,1.313551331E1,-3.575057983E0
4.182678223E0,-1.250274658E0,1.485693359E1,-3.962921143E0
4.186706543E0,-1.238311768E0,1.664302063E1,-4.420211792E0
4.190734864E0,-1.441818237E0,1.823515320E1,-4.980453491E0
4.194732666E0,-1.918258667E0,1.933409119E1,-5.658020020E0
4.198760987E0,-2.418655396E0,1.974829102E1,-6.373886108E0
4.202789307E0,-2.547943115E0,1.943704224E1,-6.912582397E0
4.206787110E0,-2.478500366E0,1.851289368E1,-7.228622437E0
4.210815430E0,-2.433013916E0,1.713143921E1,-7.456069946E0
4.214843750E0,-2.411468506E0,1.558477783E1,-7.604507446E0
4.218841553E0,-2.365982056E0,1.415544128E1,-7.628448486E0
4.222869873E0,-2.270217896E0,1.297988892E1,-7.523101807E0
4.226898194E0,-2.143325806E0,1.201023865E1,-7.324386597E0
4.230895996E0,-2.002059937E0,1.122732544E1,-7.058624268E0
4.234924317E0,-1.836868286E0,1.055934143E1,-6.728225708E0
4.238952637E0,-1.623779297E0,9.977554321E0,-6.445709229E0
4.242950440E0,-1.453796387E0,9.479568481E0,-6.153625488E0
4.246978760E0,-1.293380737E0,9.043823242E0,-5.741821289E0
4.250976563E0,-1.128173828E0,8.665542603E0,-5.351562500E0
4.255004883E0,-9.629821777E-1,8.349502563E0,-5.002014160E0
4.259033203E0,-7.259521484E-1,8.112472534E0,-4.901458740E0
4.263031006E0,-7.570800781E-1,7.987976074E0,-4.482467651E0
4.267059327E0,-8.648223877E-1,8.095718384E0,-4.051513672E0
4.271087647E0,-9.198760986E-1,8.608078003E0,-3.754623413E0
4.275085450E0,-7.977752686E-1,9.546600342E0,-3.804901123E0
4.279113770E0,-8.336944580E-1,1.065751648E1,-3.369155884E0
4.283142090E0,-8.241119385E-1,1.175885010E1,-2.753860474E0
4.287139893E0,-5.847015381E-1,1.273567200E1,-2.112213135E0
4.291168213E0,-2.806243896E-1,1.355688477E1,-1.104248047E0
4.295196534E0,3.779602051E-2,1.415783691E1,2.101745605E-1
4.299194336E0,2.532806396E-1,1.452653503E1,1.684997559E0
4.303222657E0,2.508850098E-1,1.464625549E1,3.231658936E0
4.307250977E0,8.807373047E-2,1.456964111E1,4.694503784E0
4.311248780E0,-1.106414795E-1,1.436373901E1,5.891616821E0
4.315277100E0,-2.830200195E-1,1.410037231E1,6.645782471E0
4.319305420E0,-4.721679688E-1,1.374603271E1,6.870834351E0
4.323303223E0,-8.241119385E-1,1.320973206E1,6.629028320E0
4.327331543E0,-1.434631348E0,1.239331055E1,5.956253052E0
4.331359864E0,-2.217544556E0,1.136380005E1,4.967453003E0
4.335357666E0,-3.091430664E0,1.017866516E1,3.799072266E0
4.339385987E0,-3.998825073E0,8.859466553E0,2.563674927E0
4.343414307E0,-4.757781982E0,7.516311646E0,1.392898560E0
4.347412110E0,-5.104949951E0,6.292877197E0,4.040985107E-1
4.351440430E0,-4.966079712E0,5.344772339E0,-4.434509277E-1
4.355468750E0,-4.487243652E0,4.688766479E0,-1.226348877E0
4.359466553E0,-3.876724243E0,4.241043091E0,-1.757858276E0
4.363494873E0,-3.239868164E0,3.855590820E0,-1.891937256E0
4.367492676E0,-2.533569336E0,3.479690552E0,-1.628585815E0
4.371520996E0,-1.642929077E0,3.237884521E0,-9.342651367E-1
4.375549317E0,-5.511779785E-1,3.230697632E0,8.805847168E-2
4.379547120E0,5.094604492E-1,3.386322021E0,1.321075439E0
4.383575440E0,1.483901978E0,3.668838501E0,2.573242188E0
4.387603760E0,2.417633057E0,4.205139160E0,3.708099365E0
4.391601563E0,3.305877686E0,5.062255859E0,4.744781494E0
4.395629883E0,4.072021484E0,6.225845337E0,5.589935303E0
4.399658203E0,4.629882812E0,7.571380615E0,6.198074341E0
4.403656006E0,4.921966553E0,8.928894043E0,6.485366821E0
4.407684327E0,4.955490112E0,1.016191101E1,6.334533691E0
4.411712647E0,4.632278442E0,1.118183899E1,5.628250122E0
4.415710450E0,4.060058594E0,1.201980591E1,4.452697754E0
4.419738770E0,3.384887695E0,1.270933533E1,3.016174316E0
4.423767090E0,2.659454346E0,1.324563599E1,1.469512939E0
4.427764893E0,1.811904907E0,1.365983582E1,-3.643798828E-2
4.431793213E0,9.020996094E-1,1.388011169E1,-1.317337036E0
4.435821534E0,1.625061035E-2,1.387052917E1,-2.464157104E0
4.439819336E0,-8.265075684E-1,1.355448914E1,-3.431411743E0
4.443847657E0,-1.437026978E0,1.286975098E1,-3.998840332E0
4.447875977E0,-1.551956177E0,1.197671509E1,-4.106582642E0
4.451873780E0,-1.535186768E0,1.116987610E1,-3.776184082E0
4.455902100E0,-1.446609497E0,1.044921875E1,-3.323669434E0
4.459930420E0,-1.317321777E0,9.836303711E0,-2.840042114E0
4.463928223E0,-1.288589478E0,9.431686401E0,-2.253463745E0
4.467956543E0,-1.300567627E0,9.144378662E0,-1.628585815E0
4.471984864E0,-1.199996948E0,8.938476562E0,-5.942840576E-1
4.475982666E0,-9.940948486E-1,8.768493652E0,3.897399902E-1
4.480010987E0,-6.684875488E-1,8.612869263E0,1.064895630E0
4.484039307E0,-5.679321289E-1,8.545822144E0,1.747253418E0
4.488037110E0,-5.823059082E-1,8.294433594E0,2.175811768E0
4.492065430E0,-5.535736084E-1,7.908966064E0,2.393676758E0
4.496063233E0,-4.937133789E-1,7.494766235E0,2.594787598E0
4.500091553E0,-3.596343994E-1,7.142822266E0,2.843795776E0
4.504119873E0,-7.472229004E-2,6.862701416E0,3.121520996E0
4.508117676E0,1.455383301E-1,6.750167847E0,3.432769775E0
4.512145996E0,3.251037598E-1,6.723831177E0,3.602752686E0
4.516174317E0,4.807281494E-1,6.826782227E0,3.645843506E0
4.520172120E0,4.759368896E-1,6.910583496E0,3.552474976E0
4.524200440E0,4.783325195E-1,7.003952026E0,3.310653687E0
4.528228760E0,5.022735596E-1,7.157180786E0,2.901245117E0
4.532226563E0,6.387481689E-1,7.343933105E0,2.372131348E0
4.536254883E0,7.943725586E-1,7.628845215E0,1.811889648E0
4.540283203E0,9.691467285E-1,7.980789185E0,1.186996460E0
4.544281006E0,1.268417358E0,8.378234863E0,4.855041504E-1
4.548309327E0,1.421646118E0,8.938476562E0,-8.671569824E-2
4.552337647E0,1.424041748E0,9.484359741E0,-6.421661377E-1
4.556335450E0,1.294754028E0,1.002066040E1,-1.080307007E0
4.560363770E0,1.021820068E0,1.049710083E1,-1.396347046E0
4.564392090E0,8.230895996E-1,1.078440857E1,-1.621398926E0
4.568389893E0,7.943725586E-1,1.095199585E1,-1.695617676E0
4.572418213E0,7.321166992E-1,1.100227356E1,-1.532806396E0
4.576446534E0,7.680358887E-1,1.091609192E1,-1.286209106E0
4.580444336E0,8.470458984E-1,1.077961731E1,-9.989013672E-1
4.584472657E0,9.787139893E-1,1.058807373E1,-6.421661377E-1
4.588500977E0,1.079269409E0,1.036541748E1,-2.160034180E-1
4.592498780E0,1.148712158E0,1.014036560E1,2.293243408E-1
4.596527100E0,1.160675049E0,9.948822021E0,6.291503906E-1
4.600555420E0,1.105606079E0,9.750106812E0,8.781585693E-1
4.604553223E0,1.017028809E0,9.572937012E0,9.739227295E-1
4.608581543E0,9.787139893E-1,9.498718262E0,1.000259399E0
4.612579346E0,9.164733887E-1,9.402954102E0,8.829345703E-1
4.616607666E0,8.781585693E-1,9.357452393E0,7.201385498E-1
4.620635987E0,9.140777588E-1,9.393371582E0,5.525360107E-1
4.624633789E0,9.476013184E-1,9.393371582E0,3.131256104E-1
4.628662110E0,1.019424438E0,9.446044922E0,8.088684082E-2
4.632690430E0,1.175048828E0,9.537017822E0,-1.154479980E-1
4.636688233E0,1.366577148E0,9.699829102E0,-2.471313477E-1
4.640716553E0,1.526992798E0,9.848266602E0,-3.500671387E-1
4.644744873E0,1.694580078E0,1.002304077E1,-3.979644775E-1
4.648742676E0,1.876541138E0,1.021458435E1,-4.362640381E-1
4.652770996E0,2.044143677E0,1.035105896E1,-5.296325684E-1
4.656799317E0,2.080047607E0,1.057371521E1,-5.176696777E-1
4.660797120E0,2.041748047E0,1.070779419E1,-5.344238281E-1
4.664825440E0,1.996261597E0,1.077003479E1,-5.942840576E-1
4.668853760E0,1.931610107E0,1.075567627E1,-6.924438477E-1
4.672851563E0,1.864578247E0,1.074369812E1,-7.714538574E-1
4.676879883E0,1.725708008E0,1.071258545E1,-7.810363770E-1
4.680908203E0,1.637130737E0,1.062159729E1,-7.762451172E-1
4.684906006E0,1.663467407E0,1.053779602E1,-7.929992676E-1
4.688934327E0,1.574874878E0,1.047555542E1,-7.355346680E-1
4.692962647E0,1.589248657E0,1.037500000E1,-6.685028076E-1
4.696960450E0,1.747253418E0,1.028161621E1,-6.445617676E-1
4.700988770E0,1.931610107E0,1.030317688E1,-5.176696777E-1
4.705017090E0,2.185394287E0,1.027204895E1,-4.626007080E-1
4.709014893E0,2.534957886E0,1.031274414E1,-3.979644775E-1
4.713043213E0,2.870132446E0,1.026486206E1,-3.500671387E-1
4.717071534E0,3.195755005E0,1.021937561E1,-2.423400879E-1
4.721069336E0,3.425598145E0,1.021697998E1,-9.150695801E-2
4.725097657E0,3.530944824E0,1.024810791E1,5.455017090E-2
4.729095459E0,3.698532104E0,1.016191101E1,-1.727294922E-2
4.733123780E0,3.665008545E0,1.022894287E1,6.890869141E-2
4.737152100E0,3.499816895E0,1.031993103E1,1.407318115E-1
4.741149903E0,3.293914795E0,1.045640564E1,1.838378906E-1
4.745178223E0,3.102371216E0,1.065512085E1,2.077789307E-1
4.749206543E0,2.896469116E0,1.082749939E1,1.503143311E-1
4.753204346E0,2.704940796E0,1.099270630E1,3.300476074E-2
4.757232666E0,2.590011597E0,1.115550232E1,-5.079650879E-2
4.761260987E0,2.628326416E0,1.124649048E1,-1.274108887E-1
4.765258789E0,2.604385376E0,1.125845337E1,-2.375488281E-1
4.769287110E0,2.422424316E0,1.129437256E1,-1.513519287E-1
4.773315430E0,2.099212646E0,1.124888611E1,-4.840087891E-2
4.777313233E0,1.924423218E0,1.116748047E1,3.778076172E-2
4.781341553E0,1.910064697E0,1.111959839E1,1.575012207E-1
4.785369873E0,1.807113647E0,1.099508667E1,2.293243408E-1
4.789367676E0,1.656280518E0,1.093763733E1,3.394622803E-1
4.793395996E0,1.447982788E0,1.102142334E1,4.807128906E-1
4.797424317E0,1.251663208E0,1.129676819E1,6.578826904E-1
4.801422120E0,1.110397339E0,1.174926758E1,8.901214600E-1
4.805450440E0,9.188690186E-1,1.230711365E1,1.198974609E0
4.809478760E0,7.153625488E-1,1.277398682E1,1.493453979E0
4.813476563E0,6.339569092E-1,1.307086182E1,1.852584839E0
4.817504883E0,7.371520996E-2,1.325761414E1,2.305099487E0
4.821533203E0,-5.248413086E-1,1.320014954E1,2.671401978E0
4.825531006E0,-8.815765381E-1,1.294157410E1,2.946746826E0
4.829559327E0,-9.988861084E-1,1.255850220E1,3.135879517E0
4.833587647E0,-1.032409668E0,1.205572510E1,3.181365967E0
4.837585450E0,-9.510040283E-1,1.149069214E1,3.111938477E0
4.841613770E0,-1.130569458E0,1.109565735E1,3.119125366E0
4.845611573E0,-1.760253906E0,1.057131958E1,2.891677856E0
4.849639893E0,-2.346832275E0,1.012121582E1,2.424804688E0
4.853668213E0,-2.852005005E0,9.764480591E0,1.680206299E0
4.857666016E0,-3.357177734E0,9.513076782E0,8.135070801E-1
4.861694336E0,-3.977279663E0,9.388580322E0,6.411743164E-2
4.865722657E0,-4.611740112E0,9.407745361E0,-4.266815186E-1
4.869720459E0,-5.250991821E0,9.556182861E0,-5.655517578E-1
4.873748780E0,-5.770538330E0,9.872207642E0,-3.859863281E-1
4.877777100E0,-6.088958740E0,1.034147644E1,-5.310058594E-3
4.881774903E0,-6.273315430E0,1.091130066E1,4.902954102E-1
4.885803223E0,-6.311630249E0,1.153138733E1,9.427947998E-1
4.889831543E0,-6.230224609E0,1.214669800E1,1.301925659E0
4.893829346E0,-6.036285400E0,1.271891785E1,1.541351318E0
4.897857666E0,-5.689132690E0,1.317620850E1,1.661056519E0
4.901885987E0,-5.243804932E0,1.347309875E1,1.723297119E0
4.905883789E0,-4.808059692E0,1.360238647E1,1.756820679E0
4.909912110E0,-4.379501343E0,1.362393188E1,1.725692749E0
4.913940430E0,-3.828842163E0,1.358561707E1,1.613174438E0
4.917938233E0,-3.165649414E0,1.348266602E1,1.366561890E0
4.921966553E0,-2.507232666E0,1.336296082E1,9.858856201E-1
4.925994873E0,-1.951782227E0,1.322648621E1,4.040985107E-1
4.929992676E0,-1.571105957E0,1.320494080E1,-3.021850586E-1
4.934020996E0,-1.350845337E0,1.333662415E1,-1.274230957E0
4.938049317E0,-9.318542480E-1,1.359519958E1,-3.716323853E0
4.942047120E0,-4.913177490E-1,1.372927856E1,-5.351562500E0
4.946075440E0,-1.369781494E-1,1.370533752E1,-5.416198730E0
4.950103760E0,3.825683594E-1,1.360955811E1,-4.793716431E0
4.954101563E0,1.086456299E0,1.326240540E1,-4.073059082E0
4.958129883E0,1.857391357E0,1.262315369E1,-3.275787354E0
4.962127686E0,2.657058716E0,1.193362427E1,-2.351623535E0
4.966156006E0,3.437561035E0,1.122015381E1,-1.554351807E0
4.970184327E0,4.064849854E0,1.054019165E1,-1.223953247E0
4.974182129E0,4.467071533E0,9.924880981E0,-1.417892456E0
4.978210450E0,4.522140503E0,9.393371582E0,-1.923065186E0
4.982238770E0,4.210891724E0,8.952835083E0,-2.354019165E0
4.986236573E0,3.576431274E0,8.517089844E0,-2.638931274E0
4.990264893E0,2.879714966E0,8.138809204E0,-2.811309814E0
4.994293213E0,2.285949707E0,7.851501465E0,-2.926239014E0
4.998291016E0,1.819091797E0,7.626449585E0,-2.978912354E0
5.002319336E0,1.467132568E0,7.470825195E0,-2.959747314E0
5.006347657E0,1.218139648E0,7.391815186E0,-2.741882324E0
5.010345459E0,1.064910889E0,7.365478516E0,-2.344451904E0
5.014373780E0,8.494262695E-1,7.305633545E0,-1.805755615E0
5.018402100E0,5.836791992E-1,7.166763306E0,-1.219177246E0
5.022399903E0,2.389068604E-1,6.934524536E0,-7.307586670E-1
5.026428223E0,-4.600524902E-2,6.678344727E0,-3.021850586E-1
5.030456543E0,-2.279510498E-1,6.443710327E0,1.048278809E-1
5.034454346E0,-3.620300293E-1,6.237808228E0,4.495849609E-1
5.038482666E0,-4.697723389E-1,6.039093018E0,7.057647705E-1
5.042510987E0,-5.607452393E-1,5.840377808E0,8.829345703E-1
5.046508789E0,-6.613159180E-1,5.596176147E0,9.547729492E-1
5.050537110E0,-8.001708984E-1,5.325622559E0,8.709716797E-1
5.054565430E0,-9.462127686E-1,5.059860229E0,6.938018799E-1
5.058563233E0,-1.070724487E0,4.810867310E0,4.519805908E-1
5.062591553E0,-1.207183838E0,4.581024170E0,2.053833008E-1
5.066619873E0,-1.413085938E0,4.394271851E0,4.272460938E-3
5.070617676E0,-1.657302856E0,4.248229980E0,-1.561431885E-1
5.074645996E0,-1.875167847E0,4.174011230E0,-2.854309082E-1
5.078674317E0,-2.040374756E0,4.135711670E0,-3.907775879E-1
5.082672120E0,-2.195999146E0,4.126129150E0,-4.482421875E-1
5.086700440E0,-2.435409546E0,4.152465820E0,-4.578094482E-1
5.090698243E0,-2.607788086E0,4.142883301E0,-4.793548584E-1
5.094726563E0,-2.717926025E0,4.164428711E0,-5.320281982E-1
5.098754883E0,-2.806518555E0,4.205139160E0,-5.799102783E-1
5.102752686E0,-2.902282715E0,4.279357910E0,-6.110382080E-1
5.106781006E0,-2.983688354E0,4.327239990E0,-7.163848877E-1
5.110809327E0,-3.067474365E0,4.389495850E0,-7.283630371E-1
5.114807129E0,-3.110580444E0,4.463714600E0,-7.187805176E-1
5.118835450E0,-3.144088745E0,4.533142090E0,-7.546997070E-1
5.122863770E0,-3.189590454E0,4.616943359E0,-8.313140869E-1
5.126861573E0,-3.268600464E0,4.638488770E0,-9.270782471E-1
5.130889893E0,-3.285354614E0,4.645675659E0,-1.039611816E0
5.134918213E0,-3.309295654E0,4.648071289E0,-1.156921387E0
5.138916016E0,-3.340423584E0,4.604965210E0,-1.319732666E0
5.142944336E0,-3.419433594E0,4.549896240E0,-1.549575806E0
5.146972657E0,-3.500839233E0,4.442169189E0,-1.856033325E0
5.150970459E0,-3.570266724E0,4.353576660E0,-2.162490845E0
5.154998780E0,-3.658843994E0,4.250625610E0,-2.519226074E0
5.159027100E0,-3.730682373E0,4.169219971E0,-2.916656494E0
5.163024903E0,-3.721099854E0,4.123733521E0,-3.395492554E0
5.167053223E0,-3.725891113E0,4.078247070E0,-3.733078003E0
5.171081543E0,-3.598999023E0,4.130920410E0,-3.903076172E0
5.175079346E0,-3.395492554E0,4.255416870E0,-4.017990112E0
5.179107666E0,-3.093811035E0,4.432586670E0,-4.233474731E0
5.183135987E0,-2.868759155E0,4.719894409E0,-4.154464722E0
5.187133789E0,-2.622161865E0,5.119720459E0,-4.017990112E0
5.191162110E0,-2.332458496E0,5.605743408E0,-4.070663452E0
5.195190430E0,-2.140930176E0,6.319213867E0,-3.977294922E0
5.199188233E0,-1.975723267E0,7.312805176E0,-3.668441772E0
5.203216553E0,-1.767425537E0,8.543426514E0,-3.328460693E0
5.207214356E0,-1.465759277E0,9.927276611E0,-3.378738403E0
5.211242676E0,-1.183242798E0,1.171813965E1,-2.837646484E0
5.215270996E0,-8.121490479E-1,1.385137939E1,-2.368392944E0
5.219268799E0,-2.399291992E-1,1.626472473E1,-1.896728516E0
5.223297120E0,5.956420898E-1,1.864218140E1,-1.724349976E0
5.227325440E0,1.711349487E0,2.121594238E1,-1.463378906E0
5.231323243E0,2.436782837E0,2.323185730E1,-2.004470825E0
5.235351563E0,2.554107666E0,2.417517090E1,-3.479293823E0
5.239379883E0,1.967529297E0,2.389025879E1,-5.167205811E0
5.243377686E0,8.063354492E-1,2.249923706E1,-6.582183838E0
5.247406006E0,-6.110229492E-1,2.021037292E1,-7.750549316E0
5.251434327E0,-1.896713257E0,1.755999756E1,-8.799209595E0
5.255432129E0,-2.737075806E0,1.504129028E1,-9.778442383E0
5.259460450E0,-3.048324585E0,1.290327454E1,-1.056613159E1
5.263488770E0,-3.065093994E0,1.118423462E1,-1.092286682E1
5.267486573E0,-2.926223755E0,9.843475342E0,-1.084625244E1
5.271514893E0,-2.751449585E0,8.806793213E0,-1.044163513E1
5.275543213E0,-2.600616455E0,8.026290894E0,-9.814361572E0
5.279541016E0,-2.557510376E0,7.530685425E0,-9.189468384E0
5.283562632E0,-2.904678345E0,7.425338745E0,-7.977996826E0
5.287590953E0,-3.093811035E0,8.031066895E0,-7.068206787E0
5.291588755E0,-3.316482544E0,9.508300781E0,-5.669998169E0
5.295617076E0,-3.105789185E0,1.154576111E1,-4.312484741E0
5.299645396E0,-2.650894165E0,1.366462708E1,-2.954971313E0
5.303643199E0,-2.306121826E0,1.522564697E1,-8.480682373E-1
5.307671519E0,-2.045150757E0,1.604446411E1,1.378540039E0
5.311699839E0,-1.884750366E0,1.615699768E1,3.509384155E0
5.315697642E0,-1.800949097E0,1.568054199E1,5.324188232E0
5.319725962E0,-1.815307617E0,1.478750610E1,6.535644531E0
5.323754283E0,-1.906295776E0,1.360238647E1,6.918716431E0
5.327752085E0,-2.066711426E0,1.230950928E1,6.669723511E0
5.331780406E0,-2.394714355E0,1.098791504E1,5.951461792E0
5.335778208E0,-2.990859985E0,9.594482422E0,4.893234253E0
5.339806529E0,-3.658843994E0,8.229797363E0,3.679367065E0
5.343834849E0,-4.173599243E0,7.023117065E0,2.518173218E0
5.347832652E0,-4.460906982E0,5.960083008E0,1.596405029E0
5.351860972E0,-4.453720093E0,5.090988159E0,1.000259399E0
5.355889292E0,-4.173599243E0,4.399063110E0,6.339416504E-1
5.359887095E0,-3.565475464E0,3.939376831E0,2.532653809E-1
5.363915416E0,-2.607788086E0,3.735870361E0,-2.638854980E-1
5.367943736E0,-1.504074097E0,3.778976440E0,-6.397705078E-1
5.371941539E0,-4.745635986E-1,3.994445801E0,-6.397705078E-1
5.375969859E0,4.687500000E-1,4.382308960E0,-2.686767578E-1
5.379998179E0,1.364181519E0,4.906631470E0,2.724151611E-1
5.383995982E0,2.295532227E0,5.548278809E0,9.140625000E-1
5.388024302E0,3.207717896E0,6.328796387E0,1.735275269E0
5.392052623E0,4.014572144E0,7.224227905E0,2.690567017E0
5.396050425E0,4.620300293E0,8.189086914E0,3.705703735E0
5.400078746E0,4.996185303E0,9.146774292E0,4.646621704E0
5.404107066E0,5.216461182E0,1.010923767E1,5.513320923E0
5.408104869E0,5.273910522E0,1.101904297E1,6.147796631E0
5.412133189E0,5.036895752E0,1.179475403E1,6.353683472E0
5.416161509E0,4.323425293E0,1.239331055E1,6.059204102E0
5.420159312E0,3.255599976E0,1.275244141E1,5.214050293E0
5.424187632E0,2.056106567E0,1.288172913E1,3.909210205E0
5.428215953E0,8.733673096E-1,1.280511475E1,2.420013428E0
5.432213755E0,-2.399291992E-1,1.255133057E1,1.033767700E0
5.436242076E0,-1.192825317E0,1.215867615E1,-2.685546875E-2
5.440270396E0,-1.836868286E0,1.166546631E1,-6.589202881E-1
5.444268199E0,-2.176834106E0,1.107409668E1,-9.797515869E-1
5.448296519E0,-2.282180786E0,1.048751831E1,-1.147338867E0
5.452294322E0,-2.322891235E0,9.972763062E0,-1.228744507E0
5.456322642E0,-2.339645386E0,9.548995972E0,-1.446624756E0
5.460350962E0,-2.370773315E0,9.247329712E0,-1.475341797E0
5.464348765E0,-2.255844116E0,9.050994873E0,-1.384368896E0
5.468377085E0,-1.980514526E0,8.933685303E0,-1.183258057E0
5.472405406E0,-1.480133057E0,8.890594482E0,-1.058761597E0
5.476403208E0,-1.190429688E0,8.837921143E0,-6.254119873E-1
5.480431529E0,-8.672027588E-1,8.768493652E0,9.764099121E-2
5.484459849E0,-4.769592285E-1,8.699050903E0,6.219787598E-1
5.488457652E0,-1.154327393E-1,8.610473633E0,9.906768799E-1
5.492485972E0,2.556762695E-1,8.550613403E0,1.306716919E0
5.496514292E0,7.871856689E-1,8.531463623E0,1.376144409E0
5.500512095E0,9.092864990E-1,8.347106934E0,1.811889648E0
5.504540416E0,1.043365479E0,8.131622314E0,2.264389038E0
5.508568736E0,1.208557129E0,7.932907104E0,2.688171387E0
5.512566539E0,1.385726929E0,7.806015015E0,3.044906616E0
5.516594859E0,1.845428467E0,7.825164795E0,3.162216187E0
5.520623179E0,1.816696167E0,7.700668335E0,3.360931396E0
5.524620982E0,1.598815918E0,7.566589355E0,3.478256226E0
5.528649302E0,1.474319458E0,7.552230835E0,3.535720825E0
5.532677623E0,1.668243408E0,7.703063965E0,3.310653687E0
5.536675425E0,1.582061768E0,7.820388794E0,3.121520996E0
5.540703746E0,1.416854858E0,7.940093994E0,2.759994507E0
5.544732066E0,1.424041748E0,8.098114014E0,2.065673828E0
5.548729869E0,1.541351318E0,8.323165894E0,1.246856689E0
5.552758189E0,1.663467407E0,8.612869263E0,4.447937012E-1
5.556786509E0,1.771194458E0,8.950439453E0,-2.997894287E-1
5.560784312E0,1.783172607E0,9.288024902E0,-8.887634277E-1
5.564812632E0,1.704162598E0,9.577728271E0,-1.269454956E0
5.568810435E0,1.579666138E0,9.824325562E0,-1.427459717E0
5.572838755E0,1.512634277E0,9.999099731E0,-1.444229126E0
5.576867076E0,1.574874878E0,1.014515686E1,-1.384368896E0
5.580864878E0,1.634735107E0,1.026246643E1,-1.216781616E0
5.584893199E0,1.752044678E0,1.027684021E1,-1.051574707E0
5.588921519E0,1.934005737E0,1.020022583E1,-8.863830566E-1
5.592919322E0,2.113571167E0,1.009008789E1,-6.756896973E-1
5.596947642E0,2.171035767E0,9.951217651E0,-3.931732178E-1
5.600975962E0,2.194976807E0,9.754898071E0,-1.465606689E-1
5.604973765E0,2.252441406E0,9.529846191E0,1.144409180E-2
5.609002085E0,2.290740967E0,9.295211792E0,1.263732910E-1
5.613030406E0,2.405670166E0,9.096496582E0,2.173461914E-1
5.617028208E0,2.487060547E0,8.957626343E0,2.843933105E-1
5.621056529E0,2.472702026E0,8.806793213E0,3.250885010E-1
5.625084849E0,2.408065796E0,8.739761353E0,3.298797607E-1
5.629082652E0,2.369750977E0,8.720596313E0,2.484741211E-1
5.633110972E0,2.343414307E0,8.703842163E0,4.257202148E-2
5.637139292E0,2.238067627E0,8.787643433E0,-1.776885986E-1
5.641137095E0,2.127929688E0,8.909744263E0,-4.961242676E-1
5.645165416E0,2.080047607E0,9.062973022E0,-8.791961670E-1
5.649193736E0,1.941192627E0,9.280838013E0,-1.231140137E0
5.653191539E0,1.685012817E0,9.560974121E0,-1.513656616E0
5.657219859E0,1.426437378E0,9.795593262E0,-1.745895386E0
5.661248179E0,1.182220459E0,1.006375122E1,-1.805755615E0
5.665245982E0,8.685913086E-1,1.032711792E1,-1.626190186E0
5.669274302E0,6.339569092E-1,1.045401001E1,-1.350845337E0
5.673302623E0,4.663543701E-1,1.051625061E1,-1.039611816E0
5.677300425E0,3.035583496E-1,1.053540039E1,-6.445617676E-1
5.681328746E0,2.413024902E-1,1.048991394E1,-2.997894287E-1
5.685326548E0,2.413024902E-1,1.048991394E1,2.581787109E-2
5.689354869E0,2.484893799E-1,1.057371521E1,3.418426514E-1
5.693383189E0,3.059539795E-1,1.066708374E1,4.878997803E-1
5.697380992E0,3.753814697E-1,1.091130066E1,5.740814209E-1
5.701409312E0,5.429687500E-1,1.124649048E1,5.621185303E-1
5.705437632E0,6.866302490E-1,1.146195984E1,3.729705811E-1
5.709435435E0,7.704315186E-1,1.164871216E1,1.527099609E-1
5.713463755E0,8.949279785E-1,1.184742737E1,1.876831055E-3
5.717492076E0,1.038574219E0,1.185221863E1,-2.471313477E-1
5.721489878E0,1.287567139E0,1.181869507E1,-4.554138184E-1
5.725518199E0,1.601211548E0,1.175645447E1,-5.894927979E-1
5.729546519E0,1.945983887E0,1.159843445E1,-7.331542969E-1
5.733544322E0,2.293136597E0,1.135421753E1,-8.720092773E-1
5.737572642E0,2.537338257E0,1.118183899E1,-9.031372070E-1
5.741600962E0,2.709732056E0,1.101425171E1,-9.103240967E-1
5.745598765E0,2.850982666E0,1.081552124E1,-9.270782471E-1
5.749627085E0,2.994644165E0,1.073413086E1,-8.313140869E-1
5.753655406E0,3.099975586E0,1.061201477E1,-7.690582275E-1
5.757653208E0,3.257995605E0,1.056892395E1,-6.996307373E-1
5.761681529E0,3.305877686E0,1.055216980E1,-6.972351074E-1
5.765709849E0,3.327438354E0,1.053062439E1,-7.115936279E-1
5.769707652E0,3.557281494E0,1.058807373E1,-7.283630371E-1
5.773735972E0,3.521362305E0,1.061920166E1,-7.858123779E-1
5.777764292E0,3.418411255E0,1.059526062E1,-8.720092773E-1
5.781762095E0,3.377716064E0,1.054977417E1,-9.079284668E-1
5.785790416E0,3.382492065E0,1.049710083E1,-8.959503174E-1
5.789818736E0,3.353775024E0,1.045401001E1,-8.672180176E-1
5.793816539E0,3.243637085E0,1.044442749E1,-8.265228271E-1
5.797844859E0,3.071258545E0,1.053062439E1,-7.929992676E-1
5.801842662E0,2.862960815E0,1.074130249E1,-7.546997070E-1
5.805870982E0,2.647476196E0,1.109326172E1,-7.139892578E-1
5.809899302E0,2.460723877E0,1.155055237E1,-6.445617676E-1
5.813897105E0,2.297927856E0,1.203897095E1,-5.056915283E-1
5.817925425E0,2.144699097E0,1.246992493E1,-2.710723877E-1
5.821953746E0,2.013015747E0,1.279074097E1,4.257202148E-2
5.825951548E0,1.857391357E0,1.295594788E1,4.735260010E-1
5.829979869E0,1.677825928E0,1.292721558E1,9.188537598E-1
5.834008189E0,1.476715088E0,1.273329163E1,1.285171509E0
5.838005992E0,1.256454468E0,1.236218262E1,1.512619019E0
5.842034312E0,9.954833984E-1,1.188095093E1,1.572463989E0
5.846062632E0,6.674804688E-1,1.138055420E1,1.515014648E0
5.850060435E0,3.251037598E-1,1.097114563E1,1.517410278E0
5.854088755E0,-3.163146973E-2,1.067187500E1,1.510223389E0
5.858117076E0,-4.314575195E-1,1.046357727E1,1.440795898E0
5.862114878E0,-9.414367676E-1,1.030795288E1,1.242065430E0
5.866143199E0,-1.566314697E0,1.017866516E1,8.805389404E-1
5.870171519E0,-2.145706177E0,1.006614685E1,4.304351807E-1
5.874169322E0,-2.607788086E0,1.002304077E1,1.024322510E-1
5.878197642E0,-3.014816284E0,1.008529663E1,-7.705688477E-3
5.882225962E0,-3.383514404E0,1.028401184E1,1.383972168E-2
5.886223765E0,-3.620544434E0,1.068385315E1,1.143951416E-1
5.890252085E0,-3.575057983E0,1.131112671E1,3.729705811E-1
5.894280406E0,-3.622940063E0,1.203417969E1,7.704162598E-1
5.898278208E0,-3.900665283E0,1.282905579E1,1.251647949E0
5.902306529E0,-4.276550293E0,1.367181396E1,1.723297119E0
5.906334849E0,-4.556671143E0,1.450019836E1,2.135101318E0
5.910332652E0,-4.539916992E0,1.525677490E1,2.355377197E0
5.914360972E0,-4.178390503E0,1.582659912E1,2.288330078E0
5.918389292E0,-3.675613403E0,1.614981079E1,1.979476929E0
5.922387095E0,-3.151275635E0,1.618333435E1,1.479095459E0
5.926415416E0,-2.705963135E0,1.593911743E1,7.991485596E-1
5.930413218E0,-2.313308716E0,1.550816345E1,1.670684814E-1
5.934441539E0,-1.930236816E0,1.490483093E1,-4.649963379E-1
5.938469859E0,-1.626174927E0,1.414346313E1,-1.365219116E0
5.942467662E0,-1.422668457E0,1.328874207E1,-2.591049194E0
5.946495982E0,-1.073104858E0,1.266624451E1,-3.608581543E0
5.950524302E0,-6.708831787E-1,1.224487305E1,-4.733856201E0
5.954522105E0,-3.764038086E-1,1.188813782E1,-5.626892090E0
5.958550425E0,-2.159881592E-1,1.154336548E1,-5.648437500E0
5.962578746E0,1.335601807E-1,1.121296692E1,-4.803283691E0
5.966576548E0,5.932464600E-1,1.082510376E1,-3.156082153E0
5.970604869E0,1.136734009E0,1.034147644E1,-1.341278076E0
5.974633189E0,1.752044678E0,9.857849121E0,4.975891113E-2
5.978630992E0,2.372146606E0,9.436462402E0,8.374481201E-1
5.982659312E0,2.738464355E0,9.031845093E0,1.033767700E0
5.986687632E0,2.716903687E0,8.627227783E0,7.704162598E-1
5.990685435E0,2.424819946E0,8.208236694E0,3.059387207E-1
5.994713755E0,1.986679077E0,7.786865234E0,-1.776885986E-1
5.998742076E0,1.558120728E0,7.528289795E0,-5.200653076E-1
6.002739878E0,1.127166748E0,7.372665405E0,-7.331542969E-1
6.006768199E0,9.188690186E-1,7.291259766E0,-9.198913574E-1
6.010796519E0,7.249298096E-1,7.176345825E0,-1.089889526E0
6.014794322E0,3.538360596E-1,6.934524536E0,-1.144943237E0
6.018822642E0,-2.923583984E-2,6.635253906E0,-1.046783447E0
6.022850962E0,-4.338531494E-1,6.319213867E0,-7.403259277E-1
6.026848765E0,-7.570800781E-1,6.000793457E0,-3.452911377E-1
6.030877085E0,-9.605865479E-1,5.723068237E0,1.287689209E-1
6.034905406E0,-1.010864258E0,5.502792358E0,5.453643799E-1
6.038903208E0,-9.103088379E-1,5.289703369E0,7.943572998E-1
6.042931529E0,-7.714385986E-1,5.090988159E0,8.901214600E-1
6.046929332E0,-6.852569580E-1,4.877914429E0,8.182983398E-1
6.050957652E0,-6.325836182E-1,4.672012329E0,6.459197998E-1
6.054985972E0,-6.517333984E-1,4.480468750E0,4.160766602E-1
6.058983775E0,-6.972198486E-1,4.308090210E0,8.088684082E-2
6.063012095E0,-8.049621582E-1,4.157257080E0,-3.117675781E-1
6.067040416E0,-1.003677368E0,4.015991211E0,-6.325836182E-1
6.071038218E0,-1.221557617E0,3.898681641E0,-9.294738770E-1
6.075066539E0,-1.451400757E0,3.819671631E0,-1.209594727E0
6.079094859E0,-1.705184937E0,3.743057251E0,-1.441833496E0
6.083092662E0,-1.927841187E0,3.664047241E0,-1.628585815E0
6.087120982E0,-2.212753296E0,3.606582642E0,-1.743499756E0
6.091149302E0,-2.495269775E0,3.594619751E0,-1.741104126E0
6.095147105E0,-2.658065796E0,3.647293091E0,-1.652526855E0
6.099175425E0,-2.758636475E0,3.769393921E0,-1.528015137E0
6.103203746E0,-2.856796265E0,3.920227051E0,-1.425064087E0
6.107201548E0,-2.899887085E0,4.080642700E0,-1.353240967E0
6.111229869E0,-2.890304565E0,4.288940430E0,-1.197616577E0
6.115258189E0,-2.804122925E0,4.492446899E0,-1.030029297E0
6.119255992E0,-2.686798096E0,4.664825439E0,-9.749603271E-1
6.123284312E0,-2.648498535E0,4.782135010E0,-9.055328369E-1
6.127312632E0,-2.593429565E0,4.858749390E0,-8.600463867E-1
6.131310435E0,-2.559906006E0,4.856353760E0,-9.103240967E-1
6.135338755E0,-2.535964966E0,4.772567749E0,-1.111434937E0
6.139367076E0,-2.550338745E0,4.604965210E0,-1.425064087E0
6.143364878E0,-2.603012085E0,4.454132080E0,-1.611816406E0
6.147393199E0,-2.658065796E0,4.308090210E0,-1.796173096E0
6.151421519E0,-2.684402466E0,4.195556641E0,-2.035598755E0
6.155419322E0,-2.725112915E0,4.142883301E0,-2.282196045E0
6.159447642E0,-2.765808105E0,4.176406860E0,-2.507247925E0
6.163445445E0,-2.715530396E0,4.286544800E0,-2.878356934E0
6.167473765E0,-2.725112915E0,4.523559570E0,-2.981307983E0
6.171502085E0,-2.708343506E0,4.865936279E0,-3.079467773E0
6.175499888E0,-2.636520386E0,5.356750488E0,-3.223114014E0
6.179528208E0,-2.514419556E0,5.984024048E0,-3.508026123E0
6.183556529E0,-2.373168945E0,6.795669556E0,-3.836029053E0
6.187554332E0,-2.162475586E0,7.839538574E0,-4.149673462E0
6.191582652E0,-1.822494507E0,9.182678223E0,-4.369934082E0
6.195610972E0,-1.410690308E0,1.086819458E1,-4.556686401E0
6.199608775E0,-9.318542480E-1,1.296313477E1,-4.662033081E0
6.203637095E0,-3.309020996E-1,1.531423950E1,-4.764984131E0
6.207665416E0,2.365112305E-1,1.765576172E1,-5.002014160E0
6.211663218E0,9.452056885E-1,1.999490356E1,-5.049896240E0
6.215691539E0,1.548538208E0,2.187434387E1,-5.301284790E0
6.219719859E0,1.816696167E0,2.291104126E1,-5.806457520E0
6.223717662E0,1.725708008E0,2.289906311E1,-6.407409668E0
6.227745982E0,1.531784058E0,2.179533386E1,-6.984405518E0
6.231774302E0,1.424041748E0,1.982250977E1,-7.527893066E0
6.235772105E0,1.366577148E0,1.761267090E1,-8.013916016E0
6.239800425E0,1.201385498E0,1.557759094E1,-8.363464355E0
6.243828746E0,8.542175293E-1,1.385617065E1,-8.432907104E0
6.247826548E0,3.777770996E-1,1.242681885E1,-8.200668335E0
6.251854869E0,-9.628295898E-2,1.126803589E1,-7.726608276E0
6.255883189E0,-5.248413086E-1,1.032472229E1,-6.823989868E0
6.259880992E0,-7.858123779E-1,9.556182861E0,-6.019546509E0
6.263909312E0,-1.130569458E0,8.974380493E0,-5.061859131E0
6.267937632E0,-1.441818237E0,8.514694214E0,-4.025177002E0
6.271935435E0,-1.686019897E0,8.181900024E0,-3.165649414E0
6.275963755E0,-1.832077026E0,7.959243774E0,-2.547958374E0
6.279992076E0,-1.911087036E0,7.779678345E0,-2.195999146E0
6.283989878E0,-1.970932007E0,7.624053955E0,-2.033203125E0
6.288018199E0,-2.128952026E0,7.413360596E0,-1.719558716E0
6.292016001E0,-2.121765137E0,7.193099976E0,-1.568725586E0
6.296044322E0,-1.968536377E0,6.984802246E0,-1.623794556E0
6.300072642E0,-1.901504517E0,6.733413696E0,-1.836868286E0
6.304070445E0,-2.085861206E0,6.467651367E0,-2.035598755E0
6.308098765E0,-2.464141846E0,6.244995117E0,-2.176849365E0
6.312127085E0,-2.931015015E0,6.197113037E0,-2.200790405E0
6.316124888E0,-3.311691284E0,6.496383667E0,-2.116989136E0
6.320153208E0,-3.553497314E0,7.298446655E0,-1.925460815E0
6.324181529E0,-3.613357544E0,8.603286743E0,-1.642944336E0
6.328179332E0,-3.443374634E0,1.022177124E1,-1.274230957E0
6.332207652E0,-3.175216675E0,1.190728760E1,-8.121490479E-1
6.336235972E0,-3.033966064E0,1.341563416E1,-1.872711182E-1
6.340233775E0,-3.220703125E0,1.457443237E1,7.368927002E-1
6.344262095E0,-3.591812134E0,1.542675781E1,1.840621948E0
6.348290416E0,-3.946151733E0,1.606121826E1,2.812667847E0
6.352288218E0,-4.393875122E0,1.651852417E1,3.705703735E0
6.356316539E0,-4.760177612E0,1.685369873E1,4.256362915E0
6.360344859E0,-5.054672241E0,1.701651001E1,4.313827515E0
6.364342662E0,-5.279724121E0,1.683454895E1,3.894851685E0
6.368370982E0,-5.425765991E0,1.603967285E1,3.121520996E0
6.372399302E0,-5.116912842E0,1.463906860E1,2.273971558E0
6.376397105E0,-4.338806152E0,1.294876099E1,1.467117310E0
6.380425425E0,-3.364364624E0,1.128718567E1,9.763183594E-1
6.384453746E0,-2.404281616E0,9.778839111E0,9.308166504E-1
6.388451548E0,-1.587860107E0,8.390197754E0,1.096023560E0
6.392479869E0,-9.246673584E-1,7.154800415E0,1.325866699E0
6.396508189E0,-3.285217285E-1,6.125289917E0,1.644302368E0
6.400505992E0,3.418579102E-1,5.280136108E0,1.993850708E0
6.404534312E0,1.127166748E0,4.698348999E0,2.412841797E0
6.408532115E0,1.852600098E0,4.432586670E0,2.927581787E0
6.412560435E0,2.264404297E0,4.372726440E0,3.593170166E0
6.416588755E0,2.391296387E0,4.432586670E0,4.352142334E0
6.420586558E0,2.379333496E0,4.554687500E0,5.091949463E0
6.424614878E0,2.374542236E0,4.794113159E0,5.680923462E0
6.428643199E0,2.412841797E0,5.191543579E0,6.114273071E0
6.432641001E0,2.508621216E0,5.770950317E0,6.348907471E0
6.436669322E0,2.621139526E0,6.515548706E0,6.368057251E0
6.440697642E0,2.633117676E0,7.396606445E0,6.312988281E0
6.444695445E0,2.434387207E0,8.205856323E0,6.016113281E0
6.448723765E0,2.053710938E0,8.919326782E0,5.407974243E0
6.452752085E0,1.536575317E0,9.606460571E0,4.586776733E0
6.456749888E0,1.019424438E0,1.027684021E1,3.602752686E0
6.460778208E0,5.740966797E-1,1.086581421E1,2.527755737E0
6.464806529E0,1.383514404E-1,1.133506775E1,1.675415039E0
6.468804332E0,-2.040100098E-1,1.161758423E1,9.260406494E-1
6.472832652E0,-5.775146484E-1,1.166546631E1,1.359558105E-1
6.476860972E0,-1.106628418E0,1.151223755E1,-6.996307373E-1
6.480858775E0,-1.743484497E0,1.116987610E1,-1.367614746E0
6.484887095E0,-2.399505615E0,1.073890686E1,-1.654907227E0
6.488915416E0,-2.861572266E0,1.028401184E1,-1.566329956E0
6.492913218E0,-3.062698364E0,9.896148682E0,-9.773559570E-1
6.496941539E0,-2.818481445E0,9.639968872E0,-3.620452881E-1
6.500969859E0,-2.315704346E0,9.517868042E0,1.072235107E-1
6.504967662E0,-1.654907227E0,9.474777222E0,4.495849609E-1
6.508995982E0,-1.061141968E0,9.443649292E0,8.446350098E-1
6.513024302E0,-6.230010986E-1,9.388580322E0,1.428817749E0
6.517022105E0,-2.542877197E-1,9.323944092E0,2.254821777E0
6.521050425E0,-1.489562988E-1,9.256896973E0,2.982650757E0
6.525048228E0,-1.202239990E-1,9.173110962E0,3.506988525E0
6.529076548E0,-6.755065918E-2,8.993545532E0,3.755981445E0
6.533104869E0,5.456542969E-2,8.775665283E0,3.696121216E0
6.537102671E0,9.526062012E-2,8.584136963E0,3.504592896E0
6.541130992E0,1.479339600E-1,8.387802124E0,3.090393066E0
6.545159312E0,2.413024902E-1,8.251342773E0,2.570846558E0
6.549157115E0,3.107299805E-1,8.181900024E0,2.003433228E0
6.553185435E0,4.663543701E-1,8.205856323E0,1.373748779E0
6.557213755E0,5.956420898E-1,8.356689453E0,8.757629395E-1
6.561211558E0,7.536621094E-1,8.560195923E0,4.543762207E-1
6.565239878E0,8.254852295E-1,8.873825073E0,2.269287109E-1
6.569268199E0,8.326721191E-1,9.256896973E0,1.215820312E-1
6.573266001E0,9.116821289E-1,9.611251831E0,1.863098145E-2
6.577294322E0,1.038574219E0,9.956008911E0,-7.234191895E-2
6.581322642E0,1.251663208E0,1.018824768E1,-2.543029785E-1
6.585320445E0,1.591629028E0,1.032232666E1,-4.530181885E-1
6.589348765E0,1.957946777E0,1.033189392E1,-6.182250977E-1
6.593377085E0,2.171035767E0,1.028401184E1,-6.924438477E-1
6.597374888E0,2.247650146E0,1.015711975E1,-7.211761475E-1
6.601403208E0,2.302719116E0,9.979949951E0,-7.091979980E-1
6.605431529E0,2.348205566E0,9.788421631E0,-6.325836182E-1
6.609429332E0,2.420028687E0,9.582519531E0,-4.673919678E-1
6.613457652E0,2.455947876E0,9.374221802E0,-2.710723877E-1
6.617485972E0,2.446365356E0,9.182678223E0,1.383972168E-2
6.621483775E0,2.432006836E0,8.969604492E0,2.867889404E-1
6.625512095E0,2.379333496E0,8.782852173E0,5.285949707E-1
6.629540416E0,2.211730957E0,8.643981934E0,7.991485596E-1
6.633538218E0,2.089630127E0,8.524276733E0,9.667358398E-1
6.637566539E0,2.029769897E0,8.433303833E0,1.005050659E0
6.641594859E0,2.039352417E0,8.428512573E0,9.643402100E-1
6.645592662E0,2.087234497E0,8.493148804E0,8.997039795E-1
6.649620982E0,2.173431396E0,8.588928223E0,8.254852295E-1
6.653618785E0,2.288345337E0,8.708633423E0,7.153472900E-1
6.657647105E0,2.319473267E0,8.921722412E0,6.674652100E-1
6.661675425E0,2.300323486E0,9.086914062E0,5.645141602E-1
6.665673228E0,2.276382446E0,9.244934082E0,4.017028809E-1
6.669701548E0,2.223709106E0,9.422103882E0,1.862335205E-1
6.673729869E0,2.173431396E0,9.582519531E0,-1.106567383E-1
6.677727671E0,2.039352417E0,9.740539551E0,-4.266815186E-1
6.681755992E0,1.761627197E0,9.850662231E0,-7.379302979E-1
6.685784312E0,1.400100708E0,9.924880981E0,-1.003692627E0
6.689782115E0,1.017028809E0,9.972763062E0,-1.168884277E0
6.693810435E0,6.914215088E-1,1.000868225E1,-1.235931396E0
6.697838755E0,4.519958496E-1,1.007810974E1,-1.161712646E0
6.701836558E0,2.939758301E-1,1.013078308E1,-1.003692627E0
6.705864878E0,2.365112305E-1,1.014036560E1,-8.552551270E-1
6.709893199E0,2.030029297E-1,1.023373413E1,-5.847015381E-1
6.713891001E0,1.862335205E-1,1.030317688E1,-3.381042480E-1
6.717919322E0,2.484893799E-1,1.035583496E1,-2.399444580E-1
6.721947642E0,3.681945801E-1,1.049470520E1,-1.800842285E-1
6.725945445E0,5.166320801E-1,1.065032959E1,-1.872711182E-1
6.729973765E0,7.057800293E-1,1.075567627E1,-3.117675781E-1
6.734002085E0,9.164733887E-1,1.089213562E1,-4.434509277E-1
6.737999888E0,1.122375488E0,1.105494690E1,-5.009155273E-1
6.742028208E0,1.397705078E0,1.113635254E1,-5.607604980E-1
6.746056529E0,1.735290527E0,1.123211670E1,-5.679473877E-1
6.750054332E0,1.979492188E0,1.126324463E1,-5.703430176E-1
6.754082652E0,2.242858887E0,1.117944336E1,-6.302032471E-1
6.758110972E0,2.503829956E0,1.104058838E1,-6.852569580E-1
6.762108775E0,2.676208496E0,1.087777710E1,-6.924438477E-1
6.766137095E0,2.781555176E0,1.066468811E1,-6.756896973E-1
6.770134898E0,2.858169556E0,1.046597290E1,-6.278076172E-1
6.774163218E0,2.882110596E0,1.032472229E1,-5.248565674E-1
6.778191539E0,2.946746826E0,1.019064331E1,-4.338684082E-1
6.782189341E0,3.030548096E0,1.008769226E1,-3.716278076E-1
6.786217662E0,3.109558105E0,1.006135559E1,-2.902221680E-1
6.790245982E0,3.207717896E0,1.009008789E1,-2.183990479E-1
6.794243785E0,3.341796875E0,1.019303894E1,-1.489562988E-1
6.798272105E0,3.444747925E0,1.033908081E1,-1.345977783E-1
6.802300425E0,3.372924805E0,1.046118164E1,-1.800842285E-1
6.806298228E0,3.246032715E0,1.057850647E1,-2.543029785E-1
6.810326548E0,3.099975586E0,1.068862915E1,-3.141632080E-1
6.814354869E0,2.977874756E0,1.078201294E1,-3.548583984E-1
6.818352671E0,2.896469116E0,1.089213562E1,-3.476867676E-1
6.822380992E0,2.803100586E0,1.091847229E1,-3.117675781E-1
6.826409312E0,2.657058716E0,1.090411377E1,-2.686767578E-1
6.830407115E0,2.511001587E0,1.091369629E1,-2.351531982E-1
6.834435435E0,2.348205566E0,1.102861023E1,-2.016296387E-1
6.838463755E0,2.147094727E0,1.128958130E1,-1.896667480E-1
6.842461558E0,1.929214478E0,1.168463135E1,-2.112121582E-1
6.846489878E0,1.701766968E0,1.215628052E1,-2.758483887E-1
6.850518199E0,1.495864868E0,1.264469910E1,-2.997894287E-1
6.854516001E0,1.273208618E0,1.305650330E1,-1.872711182E-1
6.858544322E0,1.045761108E0,1.330070496E1,6.172180176E-2
6.862572642E0,8.254852295E-1,1.332464600E1,4.208526611E-1
6.866570445E0,5.860748291E-1,1.313072205E1,8.542022705E-1
6.870598765E0,3.777770996E-1,1.273806763E1,1.203765869E0
6.874627085E0,2.365112305E-1,1.219219971E1,1.388122559E0
6.878624888E0,1.215972900E-1,1.157209778E1,1.426422119E0
6.882653208E0,-1.248168945E-2,1.097354126E1,1.349807739E0
6.886651011E0,-1.537322998E-1,1.045401001E1,1.275588989E0
6.890679332E0,-3.213348389E-1,1.004460144E1,1.254043579E0
6.894707652E0,-5.463867188E-1,9.733352661E0,1.234893799E0
6.898705455E0,-8.648223877E-1,9.479568481E0,1.081665039E0
6.902733775E0,-1.300567627E0,9.261688232E0,7.823791504E-1
6.906762095E0,-1.815307617E0,9.127609253E0,4.447937012E-1
6.910759898E0,-2.330062866E0,9.156341553E0,1.503143311E-1
6.914788218E0,-2.713134766E0,9.400558472E0,6.651306152E-2
6.918816539E0,-2.892700195E0,9.886581421E0,2.484741211E-1
6.922814341E0,-2.744262695E0,1.057850647E1,6.746368408E-1
6.926842662E0,-2.504837036E0,1.142366028E1,1.309112549E0
6.930870982E0,-2.418655396E0,1.235499573E1,2.089614868E0
6.934868785E0,-2.526397705E0,1.325282288E1,2.894073486E0
6.938897105E0,-2.691589355E0,1.411712646E1,3.463882446E0
6.942925425E0,-2.665252686E0,1.500299072E1,3.657821655E0
6.946923228E0,-2.466537476E0,1.582659912E1,3.325027466E0
6.950951548E0,-2.212753296E0,1.649218750E1,2.525360107E0
6.954979869E0,-1.942199707E0,1.692314148E1,1.483886719E0
6.958977671E0,-1.674057007E0,1.709312439E1,4.878997803E-1
6.963005992E0,-1.580688477E0,1.692314148E1,-2.806396484E-1
6.967034312E0,-1.674057007E0,1.634613037E1,-8.720092773E-1
6.971032115E0,-1.872772217E0,1.542196655E1,-1.367614746E0
6.975060435E0,-2.081069946E0,1.441880798E1,-1.597457886E0
6.979088755E0,-2.121765137E0,1.354252625E1,-1.645339966E0
6.983086558E0,-1.958969116E0,1.269976807E1,-1.870391846E0
6.987114878E0,-1.697998047E0,1.189530945E1,-2.445007324E0
6.991143199E0,-1.444213867E0,1.127522278E1,-3.333251953E0
6.995141001E0,-1.279006958E0,1.081552124E1,-4.082641602E0
6.999169322E0,-1.276611328E0,1.049949646E1,-4.429794312E0
7.003197642E0,-1.279006958E0,1.020260620E1,-3.989257812E0
7.007195445E0,-1.235916138E0,9.879394531E0,-2.703567505E0
7.011223765E0,-1.013259888E0,9.525054932E0,-1.250289917E0
7.015221568E0,-4.649810791E-1,9.177902222E0,6.411743164E-2
7.019249888E0,2.987670898E-1,8.835525513E0,1.076873779E0
7.023278208E0,9.404144287E-1,8.435699463E0,1.694580078E0
7.027276011E0,1.349822998E0,7.985580444E0,1.828643799E0
7.031304332E0,1.491073608E0,7.535476685E0,1.443176270E0
7.035332652E0,1.424041748E0,7.135635376E0,7.752075195E-1
7.039330455E0,1.167861938E0,6.776504517E0,1.407318115E-1
7.043358775E0,8.494262695E-1,6.498779297E0,-3.357086182E-1
7.047387095E0,5.525512695E-1,6.319213867E0,-5.966796875E-1
7.051384898E0,3.227081299E-1,6.165985107E0,-7.379302979E-1
7.055413218E0,1.263885498E-1,5.957687378E0,-8.576507568E-1
7.059441539E0,-1.321868896E-1,5.739822388E0,-8.648223877E-1
7.063439341E0,-2.638702393E-1,5.488433838E0,-7.666625977E-1
7.067467662E0,-4.218902588E-1,5.222671509E0,-6.158294678E-1
7.071495982E0,-6.876373291E-1,4.988037109E0,-4.697875977E-1
7.075493785E0,-9.893188477E-1,4.772567749E0,-3.189544678E-1
7.079522105E0,-1.214370728E0,4.624130249E0,-1.178436279E-1
7.083550425E0,-1.343658447E0,4.499618530E0,7.369995117E-2
7.087548228E0,-1.314926147E0,4.454132080E0,2.460784912E-1
7.091576548E0,-1.188034058E0,4.446945190E0,2.628479004E-1
7.095604869E0,-1.082687378E0,4.444564819E0,7.609558105E-2
7.099602671E0,-1.058746338E0,4.434982300E0,-2.016296387E-1
7.103630992E0,-1.092269897E0,4.408645630E0,-4.793548584E-1
7.107659312E0,-1.250274658E0,4.387100220E0,-7.091979980E-1
7.111657115E0,-1.355621338E0,4.360763550E0,-8.217315674E-1
7.115685435E0,-1.427459717E0,4.406250000E0,-8.552551270E-1
7.119713755E0,-1.511245728E0,4.458923340E0,-7.834320068E-1
7.123711558E0,-1.513641357E0,4.566665649E0,-7.187805176E-1
7.127739878E0,-1.575897217E0,4.664825439E0,-5.990753174E-1
7.131737681E0,-1.563919067E0,4.779739380E0,-4.985198975E-1
7.135766001E0,-1.542373657E0,4.892272949E0,-4.290771484E-1
7.139794322E0,-1.654907227E0,4.968887329E0,-4.123229980E-1
7.143792124E0,-1.671661377E0,5.035919189E0,-4.673919678E-1
7.147820445E0,-1.702789307E0,5.105361938E0,-5.679473877E-1
7.151848765E0,-1.844039917E0,5.150848389E0,-6.278076172E-1
7.155846568E0,-1.899108887E0,5.193939209E0,-6.996307373E-1
7.159874888E0,-1.935028076E0,5.213088989E0,-8.313140869E-1
7.163903208E0,-1.951782227E0,5.153244019E0,-1.008483887E0
7.167901011E0,-1.970932007E0,5.069442749E0,-1.202407837E0
7.171929332E0,-2.026000977E0,4.968887329E0,-1.422683716E0
7.175957652E0,-2.234298706E0,4.849182129E0,-1.537597656E0
7.179955455E0,-2.349227905E0,4.782135010E0,-1.539993286E0
7.183983775E0,-2.318099976E0,4.748626709E0,-1.575912476E0
7.188012095E0,-2.210357666E0,4.715103149E0,-1.678863525E0
7.192009898E0,-2.047546387E0,4.755798340E0,-1.829696655E0
7.196038218E0,-1.911087036E0,4.858749390E0,-1.990097046E0
7.200066539E0,-1.762634277E0,5.074234009E0,-2.148117065E0
7.204064341E0,-1.705184937E0,5.433364868E0,-2.342056274E0
7.208092662E0,-1.578292847E0,5.926574707E0,-2.591049194E0
7.212120982E0,-1.465759277E0,6.553848267E0,-2.907089233E0
7.216118785E0,-1.417877197E0,7.298446655E0,-3.294937134E0
7.220147105E0,-1.377182007E0,8.186691284E0,-3.689987183E0
7.224175425E0,-1.338867188E0,9.230560303E0,-4.082641602E0
7.228173228E0,-1.247894287E0,1.048034668E1,-4.353179932E0
7.232201548E0,-1.123382568E0,1.196713257E1,-4.539932251E0
7.236229869E0,-9.462127686E-1,1.365504456E1,-4.745834351E0
7.240227671E0,-7.331390381E-1,1.541239929E1,-5.045104980E0
7.244255992E0,-5.535736084E-1,1.708833313E1,-5.562255859E0
7.248284312E0,-5.009002686E-1,1.832135010E1,-6.431350708E0
7.252282115E0,-5.966644287E-1,1.887440491E1,-7.542251587E0
7.256310435E0,-7.020111084E-1,1.875709534E1,-8.643585205E0
7.260308238E0,-7.355346680E-1,1.804602051E1,-9.476776123E0
7.264336558E0,-5.439910889E-1,1.687046814E1,-9.955612183E0
7.268364878E0,-2.423248291E-1,1.546028137E1,-1.014236450E1
7.272362681E0,-3.402709961E-2,1.409318542E1,-1.003941345E1
7.276391001E0,6.413269043E-2,1.292721558E1,-9.720977783E0
7.280419322E0,2.104187012E-2,1.201023865E1,-8.899765015E0
7.284417124E0,-4.838562012E-2,1.129916382E1,-8.001937866E0
7.288445445E0,-2.207794189E-1,1.076763916E1,-6.709075928E0
7.292473765E0,-3.093566895E-1,1.037020874E1,-5.634078979E0
7.296471568E0,-5.799102783E-1,1.011402893E1,-4.288543701E0
7.300499888E0,-8.360900879E-1,9.920089722E0,-3.060317993E0
7.304528208E0,-1.089874268E0,9.764480591E0,-2.157699585E0
7.308526011E0,-1.290985107E0,9.620819092E0,-1.616607666E0
7.312554332E0,-1.377182007E0,9.443649292E0,-1.405914307E0
7.316582652E0,-1.353225708E0,9.194656372E0,-1.494506836E0
7.320580455E0,-1.202392578E0,8.845108032E0,-1.829696655E0
7.324608775E0,-9.174804688E-1,8.433303833E0,-2.275009155E0
7.328637095E0,-6.182098389E-1,8.023895264E0,-2.710754395E0
7.332634898E0,-4.194946289E-1,7.671936035E0,-3.093826294E0
7.336663218E0,-4.290771484E-1,7.408584595E0,-3.546340942E0
7.340691539E0,-6.804656982E-1,7.279296875E0,-4.152069092E0
7.344689341E0,-1.070724487E0,7.425338745E0,-4.755401611E0
7.348717662E0,-1.432235718E0,8.023895264E0,-5.155242920E0
7.352745982E0,-1.573501587E0,9.127609253E0,-5.262969971E0
7.356743785E0,-1.446609497E0,1.051145935E1,-5.021163940E0
7.360772105E0,-1.058746338E0,1.198869324E1,-4.391494751E0
7.364800425E0,-5.272369385E-1,1.336775208E1,-3.359588623E0
7.368798228E0,1.072235107E-1,1.451217651E1,-2.207977295E0
7.372826548E0,2.460937500E-1,1.528790283E1,-3.357086182E-1
7.376824351E0,-9.628295898E-2,1.566139221E1,1.871749878E0
7.380852671E0,-7.786254883E-1,1.563745117E1,4.079193115E0
7.384880992E0,-1.532791138E0,1.540521240E1,6.042449951E0
7.388878794E0,-2.073883057E0,1.518016052E1,7.462203979E0
7.392907115E0,-2.440200806E0,1.493594360E1,8.237930298E0
7.396935435E0,-2.890304565E0,1.455526733E1,8.415100098E0
7.400933238E0,-3.397888184E0,1.394953918E1,7.914703369E0
7.404961558E0,-3.905456543E0,1.309719849E1,6.741546631E0
7.408989878E0,-4.499206543E0,1.193601990E1,5.123077393E0
7.412987681E0,-5.291702271E0,1.047315979E1,3.380096436E0
7.417016001E0,-6.158401489E0,8.931289673E0,1.744857788E0
7.421044322E0,-6.505554199E0,7.643203735E0,4.519805908E-1
7.425042124E0,-6.177551270E0,6.704681396E0,-2.279663086E-1
7.429070445E0,-5.466476440E0,6.007965088E0,-2.231750488E-1
7.433098765E0,-4.539916992E0,5.471664429E0,3.442382812E-1
7.437096568E0,-3.455337524E0,5.021560669E0,1.280380249E0
7.441124888E0,-2.286972046E0,4.657638550E0,2.206939697E0
7.445153208E0,-1.058746338E0,4.399063110E0,2.999420166E0
7.449151011E0,1.168060303E-1,4.245834351E0,3.767959595E0
7.453179332E0,1.177444458E0,4.298507690E0,4.672958374E0
7.457207652E0,2.003433228E0,4.664825439E0,5.779083252E0
7.461205455E0,2.520584106E0,5.385482788E0,6.916320801E0
7.465233775E0,2.815078735E0,6.312042236E0,7.780639648E0
7.469262095E0,3.059280396E0,7.284088135E0,8.225952148E0
7.473259898E0,3.121536255E0,8.174728394E0,8.182861328E0
7.477288218E0,2.877319336E0,8.861862183E0,7.718383789E0
7.481316539E0,2.355392456E0,9.314361572E0,6.870834351E0
7.485314341E0,1.646697998E0,9.553787231E0,5.659378052E0
7.489342662E0,8.111267090E-1,9.702224731E0,4.443115234E0
7.493370982E0,3.300476074E-2,9.903335571E0,3.193344116E0
7.497368785E0,-6.541290283E-1,1.021697998E1,1.902862549E0
7.501397105E0,-1.573501587E0,1.054498291E1,6.315460205E-1
7.505394908E0,-2.662857056E0,1.081552124E1,-5.416107178E-1
7.509423228E0,-3.740249634E0,1.094720459E1,-1.494506836E0
7.513451548E0,-4.621322632E0,1.096875000E1,-1.985321045E0
7.517449351E0,-5.102554321E0,1.094480896E1,-1.947006226E0
7.521477671E0,-5.066635132E0,1.088975525E1,-1.544784546E0
7.525505992E0,-4.899047852E0,1.077243042E1,-5.966796875E-1
7.529503794E0,-4.362747192E0,1.060244751E1,5.046539307E-1
7.533532115E0,-3.582229614E0,1.047076416E1,1.512619019E0
7.537560435E0,-2.782577515E0,1.032949829E1,2.250030518E0
7.541558238E0,-2.011642456E0,1.010444641E1,2.692962646E0
7.545586558E0,-1.259857178E0,9.826721191E0,2.884490967E0
7.549614878E0,-6.493377686E-1,9.472381592E0,3.018569946E0
7.553612681E0,-2.231750488E-1,9.091705322E0,3.186157227E0
7.557641001E0,1.718750000E-1,8.713424683E0,3.176589966E0
7.561669322E0,4.855194092E-1,8.409362793E0,2.980255127E0
7.565667124E0,7.656402588E-1,8.198669434E0,2.613952637E0
7.569695445E0,1.036178589E0,8.102905273E0,2.099197388E0
7.573723765E0,1.230117798E0,8.066986084E0,1.498245239E0
7.577721568E0,1.409683228E0,8.134017944E0,8.709716797E-1
7.581749888E0,1.553329468E0,8.301620483E0,3.873443604E-1
7.585778208E0,1.639526367E0,8.541030884E0,1.239776611E-1
7.589776011E0,1.713745117E0,8.780456543E0,4.496765137E-2
7.593804332E0,1.821472168E0,9.053390503E0,1.263732910E-1
7.597832652E0,1.981887817E0,9.347885132E0,2.604522705E-1
7.601830455E0,2.149490356E0,9.616027832E0,3.753662109E-1
7.605858775E0,2.283554077E0,9.774047852E0,4.160766602E-1
7.609887095E0,2.388900757E0,9.845870972E0,3.945159912E-1
7.613884898E0,2.434387207E0,9.862640381E0,3.346710205E-1
7.617913218E0,2.400878906E0,9.836303711E0,2.197418213E-1
7.621911021E0,2.374542236E0,9.754898071E0,7.609558105E-2
7.625939341E0,2.405670166E0,9.642364502E0,-3.164672852E-2
7.629967662E0,2.386505127E0,9.508300781E0,-7.952880859E-2
7.633965464E0,2.338623047E0,9.393371582E0,-8.911132812E-2
7.637993785E0,2.295532227E0,9.292816162E0,-8.192443848E-2
7.642022105E0,2.063293457E0,9.218597412E0,6.172180176E-2
7.646019908E0,1.835845947E0,9.115646362E0,2.173461914E-1
7.650048228E0,1.725708008E0,9.022277832E0,3.394622803E-1
7.654076548E0,1.737686157E0,8.931289673E0,3.873443604E-1
7.658074351E0,1.787963867E0,8.902557373E0,4.352264404E-1
7.662102671E0,1.773590088E0,8.847488403E0,4.783172607E-1
7.666130992E0,1.766418457E0,8.727783203E0,4.615631104E-1
7.670128794E0,1.778381348E0,8.624832153E0,4.064941406E-1
7.674157115E0,1.756835938E0,8.569763184E0,3.442382812E-1
7.678185435E0,1.811904907E0,8.490753174E0,1.910095215E-1
7.682183238E0,1.902877808E0,8.502731323E0,2.581787109E-2
7.686211558E0,1.996261597E0,8.596099854E0,-1.369934082E-1
7.690239878E0,2.123153687E0,8.725387573E0,-3.644409180E-1
7.694237681E0,2.182998657E0,8.940872192E0,-5.535888672E-1
7.698266001E0,2.147094727E0,9.204223633E0,-7.451171875E-1
7.702294322E0,2.053710938E0,9.460403442E0,-9.390411377E-1
7.706292124E0,1.917251587E0,9.707015991E0,-1.125793457E0
7.710320445E0,1.764022827E0,9.929672241E0,-1.243118286E0
7.714348765E0,1.546142578E0,1.012599182E1,-1.243118286E0
7.718346568E0,1.325881958E0,1.025050354E1,-1.180862427E0
7.722374888E0,1.119979858E0,1.030078125E1,-1.044387817E0
7.726403208E0,9.499969482E-1,1.028880310E1,-8.600463867E-1
7.730401011E0,7.776031494E-1,1.019303894E1,-6.397705078E-1
7.734429332E0,6.291656494E-1,1.006375122E1,-4.219055176E-1
7.738427134E0,4.735412598E-1,9.900939941E0,-2.614898682E-1
7.742455455E0,3.107299805E-1,9.745315552E0,-1.920623779E-1
7.746483775E0,1.622924805E-1,9.692642212E0,-1.824798584E-1
7.750481578E0,6.652832031E-2,9.692642212E0,-2.806396484E-1
7.754509898E0,5.694580078E-2,9.742919922E0,-4.961242676E-1
7.758538218E0,8.088684082E-2,9.917709351E0,-6.637115479E-1
7.762536021E0,1.431427002E-1,1.012121582E1,-7.762451172E-1
7.766564341E0,3.251037598E-1,1.027684021E1,-8.552551270E-1
7.770592662E0,5.908660889E-1,1.046357727E1,-7.858123779E-1
7.774590464E0,9.020996094E-1,1.059286499E1,-5.918884277E-1
7.778618785E0,1.270812988E0,1.060244751E1,-3.428955078E-1
7.782647105E0,1.759231567E0,1.059765625E1,-2.206420898E-2
7.786644908E0,2.285949707E0,1.053302002E1,2.388916016E-1
7.790673228E0,2.748031616E0,1.043006897E1,3.993072510E-1
7.794701548E0,3.104766846E0,1.033189392E1,4.663543701E-1
7.798699351E0,3.348983765E0,1.025527954E1,4.424133301E-1
7.802727671E0,3.497421265E0,1.017626953E1,3.250885010E-1
7.806755992E0,3.602767944E0,1.012838745E1,1.694641113E-1
7.810753794E0,3.696136475E0,1.011882019E1,1.863098145E-2
7.814782115E0,3.739227295E0,1.014036560E1,-1.322021484E-1
7.818810435E0,3.748809814E0,1.014515686E1,-2.710723877E-1
7.822808238E0,3.722473145E0,1.014276123E1,-3.859863281E-1
7.826836558E0,3.638671875E0,1.014515686E1,-4.841461182E-1
7.830864878E0,3.499816895E0,1.015711975E1,-5.128784180E-1
7.834862681E0,3.320251465E0,1.018345642E1,-4.721832275E-1
7.838891001E0,3.114349365E0,1.022894287E1,-3.548583984E-1
7.842919322E0,2.867752075E0,1.029119873E1,-1.944580078E-1
7.846917124E0,2.582839966E0,1.038696289E1,-3.883361816E-2
7.850945445E0,2.247650146E0,1.054498291E1,5.455017090E-2
7.854943248E0,1.854995728E0,1.080355835E1,7.369995117E-2
7.858971568E0,1.402496338E0,1.114114380E1,2.581787109E-2
7.862999888E0,9.787139893E-1,1.157688904E1,-7.713317871E-2
7.866997691E0,6.770477295E-1,1.210600281E1,-1.728973389E-1
7.871026011E0,4.735412598E-1,1.267103577E1,-1.992340088E-1
7.875054332E0,3.011627197E-1,1.318579102E1,-8.671569824E-2
7.879052134E0,1.168060303E-1,1.355928040E1,1.431274414E-1
7.883080455E0,-2.444458008E-2,1.378195190E1,4.280395508E-1
7.887108775E0,-1.130371094E-1,1.384658813E1,6.506958008E-1
7.891106578E0,-1.178283691E-1,1.377955627E1,7.488708496E-1
7.895134898E0,-7.951354980E-2,1.360476685E1,7.201385498E-1
7.899163218E0,-3.881835938E-2,1.337492371E1,6.004180908E-1
7.903161021E0,-7.234191895E-2,1.310917664E1,4.088897705E-1
7.907189341E0,-2.375335693E-1,1.281228638E1,2.149505615E-1
7.911217662E0,-5.200500488E-1,1.251301575E1,9.045410156E-2
7.915215464E0,-8.695983887E-1,1.217782593E1,1.144409180E-2
7.919243785E0,-1.300567627E0,1.179954529E1,4.017639160E-2
7.923272105E0,-1.767425537E0,1.140928650E1,2.221374512E-1
7.927269908E0,-2.219940186E0,1.104058838E1,5.238037109E-1
7.931298228E0,-2.686798096E0,1.072933960E1,8.661804199E-1
7.935326548E0,-3.187194824E0,1.049710083E1,1.110382080E0
7.939324351E0,-3.651672363E0,1.034387207E1,1.153488159E0
7.943352671E0,-4.082626343E0,1.026007080E1,1.079269409E0
7.947380992E0,-4.539916992E0,1.026486206E1,1.014617920E0
7.951378794E0,-5.035522461E0,1.035345459E1,9.930725098E-1
7.955407115E0,-5.528717041E0,1.055696106E1,1.038558960E0
7.959435435E0,-5.990798950E0,1.091609192E1,1.198974609E0
7.963433238E0,-6.469635010E0,1.142845154E1,1.486282349E0
7.967461558E0,-6.910171509E0,1.207727051E1,1.792739868E0
7.971489878E0,-7.130447388E0,1.283145142E1,1.888504028E0
7.975487681E0,-6.967636108E0,1.360476685E1,1.661056519E0
7.979516001E0,-6.452880859E0,1.428952026E1,1.175033569E0
7.983513804E0,-5.674774170E0,1.476116943E1,5.884552002E-1
7.987542124E0,-4.755386353E0,1.493354797E1,-1.249694824E-2
7.991570445E0,-3.845596313E0,1.479469299E1,-5.248565674E-1
7.995568248E0,-3.062698364E0,1.433740234E1,-1.022842407E0
7.999596568E0,-2.468933105E0,1.364787292E1,-1.547180176E0
8.003624888E0,-2.018814087E0,1.287214661E1,-1.937423706E0
8.007622691E0,-1.520828247E0,1.212036133E1,-2.126571655E0
8.011651011E0,-9.390411377E-1,1.140689087E1,-2.401901245E0
8.015679332E0,-4.913177490E-1,1.077722168E1,-2.995666504E0
8.019677134E0,-2.710571289E-1,1.034866333E1,-3.819274902E0
8.023705455E0,-3.404846191E-1,1.001347351E1,-4.559082031E0
8.027733775E0,-3.716125488E-1,9.776443481E0,-4.384307861E0
8.031731578E0,-1.848602295E-1,9.601669312E0,-3.318878174E0
8.035759898E0,2.460937500E-1,9.443649292E0,-2.140930176E0
8.039788218E0,7.728118896E-1,9.331130981E0,-1.104248047E0
8.043786021E0,1.244476318E0,9.192260742E0,-4.649963379E-1
8.047814341E0,1.443191528E0,9.050994873E0,-1.465606689E-1
8.051842662E0,1.479110718E0,8.854675293E0,-1.681213379E-1
8.055840464E0,1.512634277E0,8.677505493E0,-3.404998779E-1
8.059868785E0,1.385726929E0,8.426116943E0,-5.703430176E-1
8.063897105E0,1.263626099E0,8.131622314E0,-8.696136475E-1
8.067894908E0,1.043365479E0,7.827560425E0,-1.156921387E0
8.071923228E0,8.685913086E-1,7.487594604E0,-1.379577637E0
8.075951548E0,6.794433594E-1,7.138031006E0,-1.506469727E0
8.079949351E0,3.155212402E-1,6.738204956E0,-1.642944336E0
8.083977671E0,-3.163146973E-2,6.333587646E0,-1.659698486E0
8.088005992E0,-4.458312988E-1,5.976852417E0,-1.384368896E0
8.092003794E0,-6.182098389E-1,5.672790527E0,-1.049179077E0
8.096032115E0,-8.193206787E-1,5.454910278E0,-7.163848877E-1
8.100029917E0,-8.983306885E-1,5.280136108E0,-4.865417480E-1
8.104058238E0,-9.988861084E-1,5.186767578E0,-2.327575684E-1
8.108086558E0,-1.077896118E0,5.083816528E0,-7.473754883E-2
8.112084361E0,-1.178451538E0,5.019165039E0,-2.914428711E-3
8.116112681E0,-1.302947998E0,4.940155029E0,-1.010131836E-2
8.120141001E0,-1.437026978E0,4.904251099E0,-8.911132812E-2
8.124138804E0,-1.616592407E0,4.841995239E0,-2.614898682E-1
8.128167124E0,-1.712356567E0,4.774963379E0,-5.368194580E-1
8.132195445E0,-1.951782227E0,4.672012329E0,-8.121490479E-1
8.136193248E0,-2.102615356E0,4.523559570E0,-1.135375977E0
8.140221568E0,-2.277389526E0,4.387100220E0,-1.420288086E0
8.144249888E0,-2.576675415E0,4.233871460E0,-1.652526855E0
8.148247691E0,-2.703567505E0,4.106979370E0,-1.863204956E0
8.152276011E0,-2.789749146E0,4.027969360E0,-1.982925415E0
8.156304332E0,-2.969314575E0,3.977691650E0,-2.011657715E0
8.160302134E0,-2.988479614E0,3.932205200E0,-2.057144165E0
8.164330455E0,-2.940582275E0,3.932205200E0,-2.109817505E0
8.168358775E0,-2.928619385E0,3.941772461E0,-2.140930176E0
8.172356578E0,-2.988479614E0,3.960922241E0,-2.140930176E0
8.176384898E0,-2.866363525E0,3.989654541E0,-2.172058105E0
8.180413218E0,-2.737075806E0,4.061492920E0,-2.191223145E0
8.184411021E0,-2.626953125E0,4.145278931E0,-2.210372925E0
8.188439341E0,-2.509628296E0,4.231475830E0,-2.236709595E0
8.192467662E0,-2.387527466E0,4.327239990E0,-2.277404785E0
8.196465464E0,-2.258239746E0,4.425399780E0,-2.354019165E0
8.200493785E0,-2.176834106E0,4.523559570E0,-2.468948364E0
8.204522105E0,-2.148101807E0,4.593002319E0,-2.610198975E0
8.208519908E0,-2.093048096E0,4.679183960E0,-2.794555664E0
8.212548228E0,-2.116989136E0,4.784530640E0,-2.993270874E0
8.216546031E0,-2.174438477E0,4.904251099E0,-3.163269043E0
8.220574351E0,-2.215148926E0,5.064651489E0,-3.302124023E0
8.224602671E0,-2.236694336E0,5.284927368E0,-3.364379883E0
8.228600474E0,-2.224716187E0,5.610534668E0,-3.318878174E0
8.232628794E0,-2.212753296E0,6.043884277E0,-3.328460693E0
8.236657115E0,-2.224716187E0,6.570602417E0,-3.148895264E0
8.240654917E0,-2.181625366E0,7.226623535E0,-2.969329834E0
8.244683238E0,-2.059524536E0,7.935302734E0,-2.990875244E0
8.248711558E0,-2.061920166E0,8.811584473E0,-2.777801514E0
8.252709361E0,-2.085861206E0,9.802780151E0,-2.717941284E0
8.256737681E0,-2.052337646E0,1.098072815E1,-2.737091064E0
8.260766001E0,-1.937423706E0,1.236936951E1,-2.765823364E0
8.264763804E0,-1.635742188E0,1.390884399E1,-2.976516724E0
8.268792124E0,-1.176055908E0,1.561351013E1,-2.761032104E0
8.272820445E0,-4.338531494E-1,1.726310730E1,-2.868774414E0
8.276818248E0,2.796173096E-1,1.850331116E1,-3.579849243E0
8.280846568E0,6.507110596E-1,1.894863892E1,-4.853561401E0
8.284874888E0,8.805541992E-1,1.855598450E1,-6.548660278E0
8.288872691E0,8.590087891E-1,1.747619629E1,-8.382614136E0
8.292901011E0,6.650848389E-1,1.593432617E1,-1.006335449E1
8.296929332E0,4.735412598E-1,1.429429626E1,-1.138973999E1
8.300927134E0,3.657989502E-1,1.282905579E1,-1.219657898E1
8.304955455E0,3.490447998E-1,1.165829468E1,-1.239291382E1
8.308983775E0,5.429687500E-1,1.078919983E1,-1.212715149E1
8.312981578E0,6.291656494E-1,1.011642456E1,-1.161000061E1
