"Time (s)","Acceleration x (m/s^2)","Acceleration y (m/s^2)","Acceleration z (m/s^2)"
0.000000000E0,-1.842338204E0,3.685873508E0,9.798270226E0
1.448600000E-2,-1.844732404E0,3.934870481E0,9.958682060E0
2.584800000E-2,-1.988384485E0,4.285621166E0,1.001614285E1
3.444400000E-2,-2.183511972E0,4.402936935E0,1.027950478E1
4.444800000E-2,-1.653196216E0,4.301183224E0,1.026154804E1
5.451100000E-2,-1.284489155E0,4.284423828E0,9.835380554E0
6.444500000E-2,-9.756371975E-1,4.076128483E0,9.148244858E0
7.456900000E-2,-7.146692276E-1,3.694253206E0,8.385691643E0
8.445500000E-2,-5.662286878E-1,3.585317135E0,8.111555099E0
9.466300000E-2,-8.104372621E-1,3.606864929E0,8.301894188E0
1.045340000E-1,-7.026981711E-1,3.744531393E0,8.353369713E0
1.146380000E-1,-6.009446383E-1,4.047398090E0,8.239645004E0
1.285590000E-1,-1.276109457E0,4.575319290E0,8.064867973E0
1.445550000E-1,-1.229422569E0,4.672284603E0,7.325059891E0
1.544120000E-1,-9.840168953E-1,4.497508049E0,6.961141586E0
1.644240000E-1,-6.488286853E-1,4.129997730E0,6.677428722E0
1.745120000E-1,-4.513070285E-1,3.781641483E0,6.329071999E0
1.845850000E-1,-3.531447649E-1,3.440467834E0,6.230909824E0
1.945060000E-1,-1.233013868E-1,3.189076662E0,6.438008308E0
2.046910000E-1,8.259996027E-2,3.071760893E0,6.635529995E0
2.144090000E-1,3.351882473E-2,3.174711466E0,6.669048786E0
2.261080000E-1,-1.328781992E-1,3.214215755E0,6.955155849E0
2.345340000E-1,-2.250549644E-1,3.138798475E0,7.496245384E0
2.445100000E-1,-2.513911724E-1,2.968810081E0,8.339004517E0
2.544240000E-1,-3.603273630E-1,2.808398485E0,8.926780701E0
2.644640000E-1,-3.770867586E-1,2.597708941E0,8.795100212E0
2.749880000E-1,-2.753331885E-2,2.570175409E0,7.880515099E0
2.846730000E-1,4.177882075E-1,2.275688648E0,7.639897823E0
2.948320000E-1,7.517793179E-1,1.896207690E0,7.697358608E0
3.044820000E-1,1.065419793E0,1.938106298E0,7.301117897E0
3.145140000E-1,1.083376288E0,1.802833915E0,7.691372871E0
3.244610000E-1,1.066616893E0,1.746570110E0,8.085219383E0
3.344170000E-1,7.110779285E-1,1.681926727E0,7.993042469E0
3.449530000E-1,2.430114746E-1,1.447294950E0,7.854178905E0
3.546740000E-1,-5.770025849E-1,1.936909199E0,7.621941090E0
3.644230000E-1,-7.182605267E-1,2.681505919E0,7.428010941E0
3.744940000E-1,-1.253364563E0,3.779247284E0,7.533355713E0
3.844400000E-1,-2.233790159E0,4.917690277E0,8.072051048E0
3.944650000E-1,-4.149151325E0,5.197812080E0,9.384073257E0
4.044580000E-1,-4.657919407E0,5.175066948E0,8.309077263E0
4.144540000E-1,-5.026626587E0,4.671087742E0,7.289146900E0
4.245150000E-1,-5.554547787E0,4.170699596E0,6.744466305E0
4.345050000E-1,-5.918466568E0,4.138377666E0,6.521805286E0
4.444970000E-1,-6.115988255E0,4.127603531E0,6.762422562E0
4.544530000E-1,-6.121973515E0,4.018667698E0,8.214506149E0
4.645400000E-1,-6.968324184E0,5.214571476E0,1.115338898E1
4.824870000E-1,-7.973888874E0,6.823474884E0,9.922768593E0
4.944290000E-1,-7.618350029E0,7.015010834E0,5.166687489E0
5.044380000E-1,-6.512228489E0,4.770446777E0,4.602852821E0
5.180060000E-1,-5.503072739E0,3.679888010E0,4.420893669E0
5.344720000E-1,-6.788758755E0,4.803965569E0,2.378639460E0
5.492360000E-1,-8.886079788E0,4.644751072E0,3.075352192E0
5.609195000E-1,-1.082059479E1,4.869806290E0,4.863820553E0
5.727017500E-1,-1.301966858E1,4.888959885E0,9.151836395E0
5.862040000E-1,-1.301966858E1,4.888959885E0,9.151836395E0
5.945520000E-1,-1.274433517E1,4.574122429E0,9.973047256E0
6.075290000E-1,-9.097966194E0,3.611653328E0,6.888118267E0
6.208935000E-1,-6.961141586E0,3.944447279E0,2.758120298E0
6.346170000E-1,-6.961141586E0,3.944447279E0,2.758120298E0
6.445800000E-1,-7.644686222E0,3.960009575E0,2.165555477E0
6.545330000E-1,-8.349778175E0,3.812766314E0,2.777273893E0
6.685120000E-1,-8.803479195E0,4.042609692E0,3.910928488E0
6.776240000E-1,-8.757989883E0,4.280832767E0,4.753687382E0
6.880590000E-1,-8.061277390E0,3.813963413E0,5.298368454E0
7.044940000E-1,-5.536591530E0,2.377442360E0,5.922058105E0
7.148530000E-1,-4.557363033E0,1.917755604E0,6.013037682E0
7.251400000E-1,-4.235342979E0,1.638831019E0,6.144718647E0
7.399810000E-1,-4.108449936E0,1.440112352E0,6.259640217E0
7.544680000E-1,-4.096478939E0,8.619126081E-1,7.563282967E0
7.673600000E-1,-4.097676277E0,9.074024558E-1,8.304288864E0
7.849710000E-1,-4.406527996E0,5.027823448E-1,9.199720383E0
7.961080000E-1,-4.191050053E0,2.573766708E-1,9.622296333E0
8.045990000E-1,-3.453635931E0,-3.627215624E-1,1.000656605E1
8.145920000E-1,-2.913743496E0,-5.638344884E-1,1.008078671E1
8.288600000E-1,-2.074575663E0,-5.865794420E-1,1.035133076E1
8.445900000E-1,-1.742978811E0,-1.005564690E0,1.066257763E1
8.539155000E-1,-1.449689150E0,-8.319851160E-1,1.118211937E1
8.648720000E-1,-1.449689150E0,-8.319851160E-1,1.118211937E1
8.748070000E-1,-1.611297727E0,-7.110779285E-1,1.115219116E1
8.861160000E-1,-1.964442492E0,-1.467645645E0,1.152927876E1
8.950540000E-1,-2.175132275E0,-1.408987641E0,7.041347027E0
9.058760000E-1,-1.641225219E0,-2.510320425E0,7.357381821E0
9.144890000E-1,-2.668337822E0,-2.190694571E0,7.292738438E0
9.256320000E-1,-3.596091032E0,-1.618480325E0,8.026560783E0
9.363680000E-1,-3.618835926E0,-1.209071875E0,8.801085472E0
9.447960000E-1,-2.390610456E0,-9.792284966E-1,9.719262123E0
9.544820000E-1,-2.063801765E0,-8.379705995E-2,9.770736694E0
9.677670000E-1,-2.390610456E0,1.316810995E-1,1.068771648E1
9.767750000E-1,-3.144783974E0,-5.315127969E-1,1.059434223E1
9.945690000E-1,-5.591658115E0,-1.759738177E-1,7.392097950E0
1.004491000E0,-4.528632641E0,5.746084079E-2,7.230489254E0
1.014727000E0,-5.152322292E0,-4.692635238E-1,8.015787125E0
1.026919000E0,-6.123170853E0,-5.410895944E-1,8.531737328E0
1.039849500E0,-6.460753441E0,-8.619125932E-2,9.253589630E0
1.054467000E0,-6.927622795E0,7.661445141E-1,7.778761387E0
1.064559000E0,-7.168240070E0,2.437297344E0,6.149507046E0
1.074637000E0,-5.643133640E0,1.471236944E0,8.562862396E0
1.084524000E0,-4.672284603E0,1.017535686E0,8.790311813E0
1.094615000E0,-4.078522682E0,2.069787264E0,9.023746490E0
1.104564000E0,-3.637989521E0,2.973598480E0,9.117119789E0
1.115291000E0,-3.675099611E0,3.232172251E0,7.789535046E0
1.125086000E0,-6.438008308E0,3.629609823E0,5.374982834E0
1.134499000E0,-6.438008308E0,3.629609823E0,5.333084106E0
1.144937000E0,-7.335834026E0,4.723760128E0,5.398924828E0
1.154704000E0,-6.288370609E0,3.616441727E0,4.143166065E0
1.164546000E0,-5.744886875E0,3.685873508E0,3.479972124E0
1.174915000E0,-5.437232018E0,4.283226967E0,3.050212860E0
1.184572000E0,-4.853046894E0,4.258087635E0,1.917755604E0
1.194457000E0,-4.572925091E0,4.369418144E0,1.272518158E0
1.204475000E0,-4.886565685E0,4.827907562E0,1.040280581E0
1.214520000E0,-5.748478413E0,5.676652431E0,8.643068075E-1
1.225103000E0,-6.997054577E0,6.464344501E0,4.764461517E-1
1.234628000E0,-7.918822289E0,6.817489147E0,2.346317619E-1
1.244517000E0,-8.585607529E0,7.018602371E0,7.062894851E-2
1.254426000E0,-9.194931984E0,7.460332394E0,4.153940082E-1
1.264485000E0,-9.356540680E0,7.328651428E0,9.325415492E-1
1.274428000E0,-8.972270966E0,6.648698330E0,1.498770237E0
1.284480000E0,-8.718485832E0,6.180631638E0,2.261323452E0
1.294562000E0,-8.470685959E0,5.961562157E0,2.638410330E0
1.304592000E0,-8.136694908E0,5.670666695E0,2.642001629E0
1.314750000E0,-8.139088631E0,5.574898720E0,2.416946650E0
1.324480000E0,-8.619126320E0,5.724536419E0,2.047042370E0
1.334518000E0,-9.273940086E0,5.805939198E0,1.807622313E0
1.345570000E0,-9.747992516E0,5.668272495E0,1.497573137E0
1.354449000E0,-1.035133076E1,6.048950672E0,1.482010841E0
1.365305000E0,-1.041357994E1,6.463147640E0,1.059434295E0
1.374921000E0,-1.041357994E1,6.463147640E0,1.059434295E0
1.384592000E0,-9.921571732E0,6.579266071E0,1.499967337E0
1.394819000E0,-9.767146111E0,6.532579422E0,1.741781712E0
1.404628000E0,-9.566033363E0,6.588842869E0,1.842338204E0
1.414777000E0,-9.294290543E0,6.580463409E0,2.127248287E0
1.424543000E0,-8.785523415E0,6.471527100E0,2.335543871E0
1.434519000E0,-8.372523308E0,6.932411194E0,2.831143618E0
1.444476000E0,-8.033743858E0,7.988254070E0,2.859874010E0
1.454451000E0,-8.006210327E0,9.172186852E0,2.606088638E0
1.465126000E0,-8.293514252E0,1.050695419E1,2.270900249E0
1.474539000E0,-8.756793022E0,1.160828686E1,1.497573137E0
1.484600000E0,-9.235632896E0,1.193389797E1,1.306037068E0
1.494568000E0,-9.455899239E0,1.217930412E1,1.838746905E0
1.504491000E0,-9.488221169E0,1.176989555E1,2.460042238E0
1.514877000E0,-9.214085579E0,1.117134476E1,2.829946518E0
1.524483000E0,-8.763975143E0,1.109832191E1,3.343502760E0
1.534997000E0,-8.319850922E0,1.139999104E1,3.636792421E0
1.544495000E0,-8.137891769E0,1.196382618E1,3.599682331E0
1.554442000E0,-8.082824707E0,1.263779354E1,2.964021683E0
1.564834000E0,-8.113949776E0,1.333690071E1,2.105700493E0
1.577412000E0,-8.327033043E0,1.403241634E1,1.417367458E0
1.594451000E0,-8.640673637E0,1.565329075E1,7.673416734E-1
1.604567000E0,-8.760383606E0,1.587475395E1,7.386112213E-1
1.615160000E0,-8.699332237E0,1.569518948E1,9.050082564E-1
1.624565000E0,-8.403648376E0,1.543302441E1,1.284489155E0
1.634764000E0,-7.198167324E0,1.414733791E1,1.466448545E0
1.646051000E0,-6.509834290E0,1.353322506E1,1.309628367E0
1.655067000E0,-6.059724331E0,1.241034412E1,1.267729759E0
1.664464000E0,-5.626373768E0,1.106001472E1,1.410184860E0
1.674600000E0,-5.779603004E0,1.064581776E1,8.643068075E-1
1.684667000E0,-5.725733280E0,1.222239971E1,-9.648633003E-1
1.694511000E0,-3.979163170E0,1.237922001E1,-5.626374111E-2
1.704493000E0,7.505822182E-1,1.042076302E1,3.293224335E0
1.716250000E0,3.250128746E0,9.018958092E0,4.999093056E0
1.724533000E0,4.066551685E0,8.094796181E0,5.133168221E0
1.734542000E0,2.713827610E0,7.155071735E0,3.591302633E0
1.746105000E0,-1.137245774E0,6.416460514E0,3.349488258E0
1.754449000E0,-5.397727966E0,6.305130005E0,2.908955097E0
1.764554000E0,-9.327810287E0,6.590040207E0,2.325966835E0
1.774465000E0,-1.083256531E1,9.969455719E0,-5.865794048E-2
1.785014000E0,-9.531316757E0,1.179742908E1,-1.911770105E0
1.795690000E0,-6.605602264E0,1.265934181E1,-3.248931646E0
1.804607000E0,-4.006696701E0,1.128267574E1,-3.230975151E0
1.814774000E0,-3.010708570E0,8.698134422E0,-2.221819162E0
1.824498000E0,-3.333925962E0,6.476315498E0,-1.708262920E0
1.834510000E0,-4.262876034E0,5.698200226E0,-1.407790542E0
1.844753000E0,-4.201824188E0,5.124788761E0,-2.388216257E0
1.854475000E0,-2.932897091E0,3.289633036E0,-3.312378168E0
1.864509000E0,-1.675941229E0,2.494758129E0,-2.637213230E0
1.876578000E0,2.657563984E-1,-6.344634295E-2,-1.662773132E0
1.884646000E0,-9.804255962E-1,-4.477157295E-1,-1.428141356E0
1.894656000E0,-1.748964310E0,2.633621931E0,-7.661445141E-1
1.904493000E0,-8.200140595E-1,2.155978680E0,-2.154781483E-2
1.914574000E0,-2.573766708E-1,1.723825216E0,1.229422569E0
1.924510000E0,-5.626374111E-2,1.691503525E0,2.615665436E0
1.934502000E0,-9.995791912E-1,1.362300754E0,3.744531393E0
1.945229000E0,-2.319981337E0,1.195903778E0,4.456806660E0
1.954579000E0,-3.050212860E0,2.361880064E0,4.557363033E0
1.965152000E0,-3.120841980E0,4.484339714E0,3.916913986E0
1.974515000E0,-2.523488522E0,3.916913986E0,2.977189779E0
1.984531000E0,-4.265270233E0,3.864241600E0,4.259284973E0
1.995738000E0,-6.573280811E0,7.854178905E0,3.532644510E0
2.004475000E0,-7.788338184E0,7.473500729E0,2.208651066E0
2.014537000E0,-1.002691650E1,9.435548782E0,2.229001760E0
2.025131000E0,-1.112705231E1,1.035013390E1,1.083376288E0
2.034961000E0,-1.195065784E1,1.027711105E1,-2.669534981E-1
2.044612000E0,-1.345661068E1,1.076073933E1,-6.584054977E-2
2.054541000E0,-1.339436150E1,1.121563816E1,-6.823474914E-2
2.064514000E0,-1.224394703E1,1.234210968E1,3.986345828E-1
2.079020000E0,-1.040639782E1,1.390672016E1,5.841852427E-1
2.094813000E0,-9.135076523E0,1.450167942E1,1.604115069E-1
2.104499000E0,-8.869319916E0,1.410065079E1,4.920084476E-1
2.114483000E0,-8.690952301E0,1.386003399E1,1.217451572E0
2.125335000E0,-7.101202011E0,1.188840866E1,6.895300746E-1
2.134898000E0,-5.655104637E0,1.017775154E1,-3.327940404E-1
2.144561000E0,-5.062539577E0,9.088389397E0,-1.188721180E0
2.154446000E0,-5.407304764E0,8.567650795E0,-2.202665567E0
2.164506000E0,-5.876567841E0,8.531737328E0,-2.902969599E0
2.174741000E0,-6.019022942E0,7.961917877E0,-3.202244759E0
2.184511000E0,-6.163872242E0,7.129932880E0,-3.885789394E0
2.194485000E0,-6.724115372E0,6.775590897E0,-4.393360138E0
2.204525000E0,-7.493851185E0,6.457161903E0,-4.803965569E0
2.214576000E0,-8.451532364E0,6.664260387E0,-4.960785866E0
2.225214000E0,-9.320627213E0,7.217320919E0,-5.093664169E0
2.234444000E0,-1.014782429E1,7.778761387E0,-4.824316502E0
2.244641000E0,-1.091277122E1,7.369352818E0,-4.116829872E0
2.255195000E0,-1.115578270E1,6.361393929E0,-2.960430384E0
2.264594000E0,-1.124077702E1,5.695806026E0,-1.562216640E0
2.278604000E0,-1.145026970E1,5.522226334E0,-1.102529883E0
2.294525000E0,-1.268567753E1,8.165425301E0,-9.205705523E-1
2.304492000E0,-1.164779091E1,8.747216225E0,1.095347285E0
2.314476000E0,-8.447940826E0,8.434772491E0,4.516661644E0
2.324496000E0,-5.574898720E0,8.301894188E0,5.458779812E0
2.337440000E0,-2.657563925E0,8.455122948E0,2.728192806E0
2.354451000E0,-2.758120298E0,7.856573105E0,9.421183467E-1
2.364530000E0,-3.713406801E0,7.177816868E0,-7.625532150E-1
2.374675000E0,-4.824316502E0,7.053318024E0,-1.866280198E0
2.386556000E0,-5.432443619E0,7.814674377E0,-1.823184609E0
2.404490000E0,-5.328295708E0,7.477091789E0,-3.053804159E0
2.414490000E0,-5.859808445E0,6.433219910E0,-4.298789024E0
2.424505000E0,-6.903680801E0,6.101623058E0,-4.477157116E0
2.436606000E0,-6.619967937E0,5.582081318E0,-4.657919407E0
2.444785000E0,-5.237316132E0,4.412513733E0,-6.180631638E0
2.454477000E0,-5.322310448E0,2.318784237E0,-6.700173378E0
2.464837000E0,-6.394912720E0,2.118868589E0,-4.971560001E0
2.474482000E0,-6.402095318E0,4.797980309E0,-1.912967205E0
2.484662000E0,-5.064933777E0,5.266046524E0,-1.323993564E0
2.494645000E0,-3.311181068E0,7.325059891E0,-8.152256608E-1
2.504549000E0,-3.004723191E-1,9.900024414E0,-2.202665567E0
2.514686000E0,3.500322819E0,1.025316906E1,-4.574122429E0
2.524874000E0,5.140350819E0,8.292317390E0,-7.210138321E0
2.534612000E0,2.956839085E0,7.491456985E0,-8.285135269E0
2.544611000E0,-4.046200812E-1,7.107187748E0,-8.330624580E0
2.554438000E0,-3.355473757E0,6.720524311E0,-7.691372871E0
2.565321000E0,-5.682637691E0,6.787561893E0,-6.815094948E0
2.574667000E0,-7.497442722E0,6.983886242E0,-5.297171116E0
2.584567000E0,-8.762778282E0,7.547720909E0,-3.727771997E0
2.594612000E0,-9.422380447E0,7.848193169E0,-2.843114614E0
2.604488000E0,-1.018732834E1,7.838616371E0,-1.782483220E0
2.614619000E0,-1.073081207E1,7.721300602E0,-1.295263171E0
2.624689000E0,-1.048780060E1,6.330269337E0,-1.808819413E0
2.634837000E0,-8.021772385E0,6.975506783E0,7.781155705E-1
2.644500000E0,-5.105635166E0,8.372523308E0,-1.448491961E-1
2.654622000E0,-3.666719913E0,8.827422142E0,-7.050924301E-1
2.666057000E0,-4.065354347E0,9.263166428E0,-1.659181833E0
2.674701000E0,-4.150348663E0,8.680178642E0,-1.683123827E0
2.684742000E0,-5.002684593E0,8.213309288E0,-1.514332533E0
2.694840000E0,-6.609193802E0,8.236053467E0,-2.025494576E0
2.704772000E0,-8.051700592E0,8.409633636E0,-2.099714994E0
2.714464000E0,-9.428366661E0,8.079233170E0,-2.038662672E0
2.724508000E0,-9.909601212E0,6.957550049E0,-1.990778685E0
2.734456000E0,-1.140597725E1,7.208941460E0,-1.869871497E0
2.744484000E0,-1.239119053E1,7.220912457E0,-1.130063176E0
2.754462000E0,-1.244266605E1,7.742848396E0,-1.120486379E0
2.765418000E0,-1.239238834E1,7.382521152E0,-2.552218914E0
2.774467000E0,-1.198776817E1,7.709329605E0,-2.457648039E0
2.784676000E0,-1.189798546E1,7.878120899E0,-2.489969730E0
2.794690000E0,-1.108036518E1,7.912836552E0,-2.801215887E0
2.804768000E0,-9.551667213E0,7.163451672E0,-3.405751944E0
2.814523000E0,-8.434772491E0,6.487089634E0,-2.779668093E0
2.824919000E0,-6.722918510E0,5.462371349E0,-2.451662540E0
2.834720000E0,-4.474762917E0,4.537012100E0,-1.215057373E0
2.845081000E0,-3.268085241E0,4.224568844E0,2.035071403E-1
2.854448000E0,-2.266111851E0,3.518279314E0,1.574187636E0
2.864546000E0,-2.148796082E0,3.111265182E0,2.238578558E0
2.875856000E0,-1.623268723E0,2.906560898E0,2.796427488E0
2.884488000E0,-1.052251697E0,2.164358377E0,2.234987259E0
2.894635000E0,-1.295263171E0,2.090138197E0,2.681505919E0
2.904469000E0,-1.483207941E0,2.154781580E0,3.889380693E0
2.914558000E0,-1.830367208E0,2.965218782E0,4.168305397E0
2.925703000E0,-2.545036316E0,3.462015629E0,2.983175278E0
2.934449000E0,-3.611653328E0,4.853046894E0,2.284068346E0
2.946508000E0,-6.317101002E0,8.135497093E0,8.164227605E-1
2.961212000E0,-6.317101002E0,8.135497093E0,1.547851443E0
2.974738000E0,-8.372523308E0,7.314286232E0,3.306392431E0
2.984875000E0,-8.610746384E0,7.940370083E0,3.582922935E0
2.994451000E0,-1.323634434E1,1.064102936E1,1.559822440E0
3.004494000E0,-1.448851204E1,1.161068153E1,-1.702277422E0
3.014498000E0,-1.618240929E1,1.240914726E1,-1.696291924E0
3.025675000E0,-1.527380943E1,7.981071472E0,-1.164779186E0
3.036474000E0,-1.264617348E1,8.643068314E0,1.702277422E0
3.044542000E0,-1.037048435E1,1.470877838E1,4.392162800E0
3.054481000E0,-9.785101891E0,1.679293060E1,3.533841610E0
3.064504000E0,-8.657433510E0,2.023938370E1,-1.029506698E-1
3.074798000E0,-6.654683590E0,2.162682343E1,-3.111265182E0
3.084570000E0,-4.964377403E0,1.626141739E1,-5.838260651E0
3.094454000E0,-2.914940596E0,6.770802498E0,-4.538209438E0
3.104457000E0,-5.530605793E0,4.551377296E0,9.337386489E-2
3.114539000E0,-8.128314972E0,5.464765549E0,-1.483207941E0
3.125032000E0,-6.675034523E0,5.457582951E0,3.818751574E-1
3.134565000E0,-3.201047659E0,5.264849663E0,7.110779285E-1
3.145001000E0,4.465186298E-1,5.183446884E0,2.053027868E0
3.154716000E0,2.748543501E0,5.394136429E0,3.454833031E0
3.164563000E0,3.181894064E0,7.004237175E0,1.819593310E0
3.175180000E0,-4.884171486E-1,1.166574764E1,1.301248670E0
3.184540000E0,-2.862268209E0,1.391988850E1,-4.644751251E-1
3.195706000E0,-3.720589399E0,1.308311558E1,-3.065775394E0
3.204482000E0,-4.133589268E0,1.118570995E1,-3.107673883E0
3.214673000E0,-5.383362293E0,9.853337288E0,-1.461660147E0
3.224555000E0,-5.255272865E0,9.345766068E0,-6.332663298E-1
3.234692000E0,-5.082890034E0,9.097966194E0,-5.446808934E-1
3.244783000E0,-4.574122429E0,8.883685112E0,-8.164227605E-1
3.254606000E0,-3.649960518E0,8.973467827E0,-1.418564558E0
3.264532000E0,-3.080140591E0,9.210494041E0,-1.933317900E0
3.275943000E0,-3.336320162E0,9.544485092E0,-2.082955360E0
3.284691000E0,-3.408146143E0,9.713275909E0,-2.209848166E0
3.294958000E0,-3.596091032E0,9.404424667E0,-1.256955862E0
3.304568000E0,-3.965995073E0,8.664615631E0,-1.551442742E0
3.314959000E0,-4.252102375E0,7.590816498E0,-1.466448545E0
3.330080000E0,-4.826710701E0,7.170634270E0,-5.099649429E-1
3.344703000E0,-4.259284973E0,6.409277916E0,-1.170764685E0
3.354540000E0,-3.641580820E0,5.910087109E0,-1.074996591E0
3.364454000E0,-3.332728863E0,5.833472252E0,-7.733271718E-1
3.374647000E0,-2.549824715E0,5.412093163E0,-3.854664862E-1
3.384497000E0,-2.209848166E0,5.021838188E0,-1.205480576E0
3.394465000E0,-2.234987259E0,5.067327976E0,-2.305616140E0
3.406887000E0,-1.993172884E0,4.623203278E0,-2.120065689E0
3.424620000E0,-3.253720045E0,4.252102375E0,-1.489193439E0
3.434449000E0,-2.689885616E0,3.168725967E0,9.564836025E-1
3.444885000E0,-1.376665980E-1,1.486799240E0,1.945288897E0
3.454765000E0,-5.234921932E0,5.090072632E0,6.847416759E-1
3.464506000E0,-7.461529732E0,7.876923561E0,3.782838583E-1
3.474974000E0,-7.775169849E0,1.040280628E1,4.297592044E-1
3.484708000E0,-7.131129742E0,1.096903515E1,2.321178436E0
3.494511000E0,-8.329427719E0,1.337520790E1,2.379836559E0
3.505030000E0,-6.804321289E0,1.398572922E1,2.398990154E0
3.514505000E0,-4.129997730E0,1.103966427E1,2.472013235E0
3.524696000E0,-3.196259141E-1,9.063250542E0,2.358288616E-1
3.534545000E0,-2.601300240E0,1.253125191E1,-4.489128292E-1
3.544509000E0,-1.544260144E0,1.248336792E1,5.111620426E-1
3.554723000E0,-1.228225470E0,1.388517284E1,1.250970364E0
3.564585000E0,-3.284844637E0,1.618480301E1,1.260547161E0
3.575437000E0,-3.784035683E0,1.733282280E1,1.963245392E0
3.584495000E0,-4.065354347E0,1.760576248E1,2.583343744E0
3.594492000E0,-3.835511208E0,1.611058235E1,3.197456360E0
3.604711000E0,-2.372653961E0,1.121204662E1,3.015496969E0
3.614468000E0,-2.273294449E0,1.114860058E1,4.723760128E0
3.625836000E0,-2.557007313E0,1.456273174E1,3.065775394E0
3.634589000E0,-1.126471877E0,1.597052288E1,1.131260276E0
3.644544000E0,-8.559271097E-1,1.632725906E1,-5.147533491E-2
3.654454000E0,-1.146822572E0,1.729810715E1,-1.313219666E0
3.664805000E0,-1.148019671E0,1.844852066E1,-2.191891670E0
3.675854000E0,-8.331822157E-1,1.787032127E1,-9.277531505E-1
3.684507000E0,-7.529764175E-1,1.569878101E1,-6.380547285E-1
3.694650000E0,-1.176750183E0,1.338239002E1,7.864952683E-1
3.704800000E0,-2.225410461E0,1.181299114E1,2.149993181E0
3.714583000E0,-3.060986757E0,1.085770512E1,1.874659896E0
3.724589000E0,-3.890577793E0,9.951498985E0,1.574187636E0
3.734794000E0,-4.509479046E0,9.238027573E0,1.234210968E0
3.744497000E0,-4.813542366E0,9.082404137E0,1.294066072E0
3.754618000E0,-4.610035419E0,9.533711433E0,9.720458984E-1
3.764531000E0,-3.852270603E0,9.757569313E0,1.511938334E0
3.774625000E0,-2.926911592E0,9.537302017E0,1.250970364E0
3.784536000E0,-2.239775658E0,8.929175377E0,5.410895944E-1
3.794477000E0,-1.669955730E0,7.778761387E0,-5.267243832E-2
3.804978000E0,-1.350329757E0,6.385335922E0,6.224924326E-2
3.814489000E0,-1.140837073E0,5.120000362E0,3.651157618E-1
3.825280000E0,-1.021126986E0,4.390965939E0,4.297592044E-1
3.834513000E0,-7.781155705E-1,3.828328609E0,6.165069342E-1
3.844468000E0,-4.979939461E-1,3.262099743E0,6.416460276E-1
3.855092000E0,-3.100491166E-1,2.715024710E0,3.076549172E-1
3.864547000E0,-3.387795389E-1,2.315192938E0,4.345476031E-1
3.874439000E0,-2.489969730E-1,1.874659896E0,4.393360019E-1
3.884528000E0,-3.794809580E-1,1.795651317E0,2.178723514E-1
3.894455000E0,-1.424549967E-1,2.115277290E0,6.763619781E-1
3.904649000E0,3.830722570E-1,2.424129248E0,1.206677675E0
3.914532000E0,5.087678432E-1,3.117250681E0,1.722628117E0
3.926115000E0,1.556231081E-2,4.390965939E0,2.312798738E0
3.934600000E0,-6.943184733E-1,5.914875507E0,3.302801132E0
3.945533000E0,-1.575384736E0,8.032546997E0,4.887762547E0
3.954605000E0,-3.793612480E0,1.184531307E1,4.824316502E0
3.964498000E0,-9.041702271E0,1.736275101E1,4.839878559E0
3.974492000E0,-1.491467953E1,1.961569405E1,5.351040840E0
3.984530000E0,-1.556829643E1,1.384566879E1,5.916072369E0
3.994507000E0,-1.430894661E1,9.303867340E0,7.072471619E0
4.004478000E0,-1.050575733E1,6.866570473E0,7.513004780E0
4.014601000E0,-5.680243492E0,8.820239067E0,8.197746277E0
4.024614000E0,-1.837549806E0,1.740704346E1,3.160346150E-1
4.034477000E0,7.924807668E-1,2.795589638E1,2.849099934E-1
4.044594000E0,4.502296448E0,3.206314850E1,2.469619036E0
4.055212000E0,2.622848034E0,1.868913841E1,-7.089231014E0
4.064514000E0,-5.213374138E0,6.525396824E0,-9.557653427E0
4.075447000E0,-8.963891029E0,1.774103403E0,-1.110909581E0
4.084520000E0,-5.646724701E0,1.230619669E0,-9.121908545E-1
4.094431000E0,4.213795066E-1,3.830722570E-1,-1.358709455E0
4.104825000E0,2.924517393E0,-2.944868207E-1,2.035071403E-1
4.114489000E0,-3.220201433E-1,3.606864929E0,-3.124433160E-1
4.125697000E0,-1.827973008E0,1.231098557E1,-5.317522049E0
4.134715000E0,-2.202665508E-1,1.513494587E1,-3.963600874E0
4.144755000E0,4.405331016E-1,1.752316284E1,-2.078166962E0
4.154457000E0,-1.898601890E0,1.796130180E1,8.379706182E-3
4.164455000E0,-5.130774021E0,1.370680428E1,1.383848548E0
4.174679000E0,-4.071340084E0,1.038006115E1,5.123591423E-1
4.184560000E0,-1.509544134E0,9.143456459E0,-4.752490520E-1
4.194531000E0,-3.471592441E-2,9.279925346E0,6.260837317E-1
4.204455000E0,9.504981041E-1,1.036210537E1,1.053448796E0
4.214470000E0,1.842338204E0,1.142273617E1,4.884171486E-1
4.226075000E0,2.043451071E0,1.172799683E1,-1.033097982E0
4.234438000E0,1.306037068E0,1.110670185E1,-2.613271236E0
4.244601000E0,-3.591302410E-2,1.052730465E1,-3.494337320E0
4.254440000E0,-1.229422569E0,1.012627602E1,-2.835932016E0
4.265687000E0,-2.341529369E0,1.012507915E1,-1.410184860E0
4.275368000E0,-3.392583847E0,1.017296314E1,1.472434103E-1
4.284512000E0,-3.858256102E0,9.987412453E0,1.516726732E0
4.294726000E0,-4.327519417E0,9.961075783E0,2.284068346E0
4.304471000E0,-4.487931252E0,9.671378136E0,2.096123695E0
4.314678000E0,-4.030638695E0,8.888473511E0,1.343147159E0
4.326147000E0,-3.483563423E0,8.359354973E0,8.870517015E-1
4.334451000E0,-4.151545525E0,8.568847656E0,-3.591302549E-3
4.344581000E0,-2.693476915E0,8.403648376E0,1.951274425E-1
4.354427000E0,-2.148796082E0,8.328230858E0,-6.033388376E-1
4.364640000E0,-2.796427488E0,8.441955566E0,-1.557428241E0
4.374513000E0,-2.430114746E0,8.207323074E0,-5.626373887E-1
4.384570000E0,-2.858676910E0,8.892065048E0,2.515108824E0
4.394608000E0,-3.077746391E0,9.255983353E0,2.788047791E0
4.404418000E0,-2.740163803E0,9.217676163E0,1.845929503E0
4.414711000E0,-2.446874142E0,8.797493935E0,6.799532771E-1
4.425364000E0,-2.256535053E0,7.630321026E0,-4.165911078E-1
4.434566000E0,-2.941276789E0,7.457938194E0,-1.628057122E0
4.444474000E0,-3.691859007E0,8.062474251E0,-2.098517895E0
4.454503000E0,-4.079719543E0,8.678980827E0,-1.736993313E0
4.464716000E0,-2.588132143E0,8.696937561E0,2.968810201E-1
4.474648000E0,3.740940094E0,5.880159378E0,2.756923199E0
4.484489000E0,-3.903745890E0,1.192073059E1,4.991910458E-1
4.494456000E0,-4.936843872E0,1.169567490E1,-5.291185975E-1
4.504522000E0,-4.645948410E0,1.088763237E1,-9.540894032E-1
4.514884000E0,-3.015496969E0,9.963470459E0,-1.771709323E-1
4.526122000E0,-1.634042621E0,9.531316757E0,7.769184709E-1
4.534644000E0,-1.386242747E0,1.020169353E1,2.155978680E0
4.544519000E0,-1.782483220E0,1.186925507E1,2.997540474E0
4.554628000E0,-1.576581836E0,1.411980438E1,2.890998602E0
4.565507000E0,-2.078166962E0,1.559343529E1,2.625242233E0
4.574872000E0,-1.118092179E0,1.365173817E1,1.832761407E0
4.584939000E0,6.919242740E-1,1.050455952E1,1.586158633E0
4.594604000E0,6.703764796E-1,9.393650055E0,2.027888775E0
4.604538000E0,6.643909812E-1,1.048780060E1,2.598906040E0
4.614721000E0,1.249773264E0,1.176391029E1,2.765302896E0
4.626191000E0,3.363853455E0,1.396657562E1,1.388636947E0
4.634530000E0,3.388992548E0,1.556111431E1,2.406172752E-1
4.644488000E0,3.600879431E0,1.747647476E1,-2.406172752E-1
4.654499000E0,3.542221308E0,1.822226906E1,1.746570110E0
4.664498000E0,3.948038578E0,1.754710388E1,3.524264812E0
4.674878000E0,3.454833031E0,1.511579227E1,1.993172884E0
4.684528000E0,6.141127348E-1,1.201410389E1,-4.967968464E-1
4.694885000E0,-2.251746655E0,1.018134308E1,-2.582146645E0
4.704940000E0,-3.921702385E0,9.405621529E0,-2.813186884E0
4.714723000E0,-4.619612217E0,9.226056099E0,-1.734599113E0
4.724948000E0,-4.254496574E0,9.071630478E0,-9.337386489E-2
4.734486000E0,-2.815581083E0,9.662998199E0,6.967126727E-1
4.744883000E0,-2.938882589E0,8.851364136E0,-2.839523315E0
4.754463000E0,-7.912836671E-1,7.880515099E0,1.460463107E-1
4.764470000E0,8.966285586E-1,8.042123795E0,2.448071241E0
4.776426000E0,8.271966577E-1,8.504204750E0,1.647210717E0
4.784457000E0,4.620809257E-1,8.359354973E0,1.606509328E0
4.794708000E0,-1.640028208E-1,7.317877293E0,1.903390408E0
4.804510000E0,-7.386112213E-1,6.096834660E0,1.674744129E0
4.814751000E0,-6.859387755E-1,5.023035049E0,1.519120932E0
4.825624000E0,-3.699041605E-1,4.157531261E0,1.388636947E0
4.834542000E0,-2.298433632E-1,3.288435936E0,1.192312479E0
4.844528000E0,-8.379706182E-3,2.971204281E0,1.028309584E0
4.854464000E0,-1.556231081E-2,3.052607059E0,1.470039845E0
4.865650000E0,-1.221042871E-1,3.168725967E0,1.162384868E0
4.879006000E0,-7.062894851E-2,3.117250681E0,6.248866320E-1
4.894451000E0,-7.541735470E-2,4.507084846E0,1.787271619E0
4.904423000E0,-7.661445439E-2,5.552153587E0,2.881421804E0
4.914440000E0,-5.518634915E-1,6.939593792E0,4.369418144E0
4.924544000E0,-9.720458984E-1,8.635885239E0,5.677849293E0
4.934660000E0,-2.402581453E0,1.189080238E1,6.786364555E0
4.946520000E0,-5.487510204E0,1.424430275E1,6.745663166E0
4.954666000E0,-7.898471355E0,1.442985344E1,4.827907562E0
4.965715000E0,-8.651448250E0,1.328781986E1,3.794809580E0
4.974836000E0,-8.038532257E0,1.193150425E1,6.149507046E0
4.985439000E0,-6.460753441E0,1.127309895E1,9.044096947E0
4.994640000E0,-4.540603638E0,1.102529907E1,8.767566681E0
5.004451000E0,-2.853888512E0,1.103367901E1,6.979097843E0
5.014643000E0,-1.740584612E0,1.161307526E1,4.552574635E0
5.024587000E0,-1.177947283E0,1.345301914E1,1.379060149E0
5.035287000E0,-1.181538582E0,1.609980965E1,-1.460463107E-1
5.044525000E0,-1.071405292E0,1.737591934E1,1.493981838E0
5.054789000E0,-7.685387731E-1,1.715206146E1,2.057816267E0
5.064458000E0,-3.567360640E-1,1.611537170E1,-3.424905539E0
5.074463000E0,-1.224634171E0,1.367568016E1,-1.628057212E-1
5.084506000E0,-2.761711597E0,1.066018295E1,2.670732021E0
5.094561000E0,7.134721279E-1,7.838616371E0,-2.430114746E0
5.104828000E0,4.158728123E0,7.402871609E0,-9.421183467E-1
5.114534000E0,6.386533260E0,7.681796074E0,7.043741226E0
5.124526000E0,4.147954464E0,6.599617004E0,-5.098452568E0
5.134450000E0,4.010287821E-1,5.493495941E0,-6.453570843E0
5.144644000E0,-3.483563364E-1,8.124723434E0,-4.498704910E0
5.154577000E0,-2.323572636E0,9.853337288E0,-3.779247284E0
5.164479000E0,-4.260481834E0,1.160828686E1,-2.306813240E0
5.174979000E0,-5.161899090E0,1.216613579E1,8.248024583E-1
5.184482000E0,-4.271255970E0,1.160709000E1,1.742978811E0
5.194474000E0,-2.731784105E0,1.149216843E1,4.932055473E-1
5.204459000E0,-2.009932280E0,1.095347309E1,6.344634295E-1
5.214638000E0,1.244984865E-1,1.102290440E1,1.556231141E0
5.224612000E0,5.315127969E-1,1.105283260E1,8.966285586E-1
5.234645000E0,5.386953801E-2,1.102529907E1,2.130839527E-1
5.244522000E0,2.837128937E-1,1.090319443E1,-7.350199223E-1
5.254630000E0,3.256114423E-1,1.054526138E1,-1.134851575E0
5.267892000E0,1.065419763E-1,1.024838066E1,-1.177947283E0
5.284436000E0,-5.434837937E-1,9.940725327E0,-1.025915384E0
5.294555000E0,-1.169567585E0,9.639056206E0,-2.681505978E-1
5.304508000E0,-1.607706428E0,9.519346237E0,-3.830722719E-2
5.314488000E0,-1.984793186E0,9.500192642E0,3.447650373E-1
5.324682000E0,-2.053027868E0,9.792284966E0,3.854664862E-1
5.334706000E0,-1.956062794E0,9.988609314E0,1.687912196E-1
5.344825000E0,-1.878251195E0,9.795876503E0,2.885012925E-1
5.354544000E0,-1.729810715E0,9.579200745E0,3.375824392E-1
5.364565000E0,-1.540668845E0,9.573215485E0,1.711854190E-1
5.374553000E0,-1.272518158E0,9.607931137E0,-1.472434103E-1
5.384455000E0,-7.613561153E-1,9.940725327E0,2.298433632E-1
5.394555000E0,-5.889736414E-1,1.008557510E1,6.607996821E-1
5.404545000E0,-5.171475410E-1,1.022204399E1,4.752490520E-1
5.414549000E0,-5.734112859E-1,1.032140350E1,2.023100406E-1
5.426453000E0,-7.398083210E-1,9.963470459E0,3.914519846E-1
5.434473000E0,-6.272808313E-1,9.264363289E0,7.398083210E-1
5.444562000E0,-2.106897533E-1,8.816647530E0,8.930372596E-1
5.454648000E0,-3.687070608E-1,9.185355186E0,4.632780254E-1
5.464526000E0,-7.553706169E-1,9.612719536E0,-1.185129806E-1
5.476134000E0,-5.374982953E-1,9.910798073E0,-9.241618514E-1
5.484639000E0,-2.202665508E-1,1.006163311E1,-1.139639974E0
5.494498000E0,-2.202665508E-1,9.737217903E0,-9.588778019E-1
5.504468000E0,-3.950432688E-2,9.539696693E0,-7.362170219E-1
5.514664000E0,-5.231330991E-1,9.509769440E0,-9.708487988E-1
5.525107000E0,-1.155202270E0,9.801861763E0,-8.559271097E-1
5.534611000E0,-1.538274646E0,9.922768593E0,-7.362170219E-1
5.544542000E0,-1.671152830E0,1.023401546E1,-7.003039718E-1
5.554655000E0,-1.774103403E0,1.065898609E1,-1.161187813E-1
5.564528000E0,-1.881842494E0,1.094988155E1,4.118026793E-1
5.574574000E0,-2.252943754E0,1.139280891E1,7.314286232E-1
5.584467000E0,-2.501940727E0,1.182137108E1,1.440112352E0
5.594532000E0,-2.252943754E0,1.227387524E1,2.753331900E0
5.604444000E0,-9.217676520E-1,1.233372974E1,3.342305660E0
5.614761000E0,3.220201433E-1,1.230739403E1,3.732560396E0
5.624586000E0,2.240972757E0,1.196621990E1,3.440467834E0
5.634456000E0,2.689885616E0,1.243548393E1,3.562572241E0
5.644514000E0,3.621230125E0,1.261504841E1,3.306392431E0
5.654541000E0,4.341884613E0,1.257075596E1,2.487575531E0
5.665719000E0,4.734533787E0,1.304720211E1,1.873462796E0
5.674642000E0,3.869029999E0,1.375468922E1,1.535880446E0
5.684501000E0,2.619256735E0,1.426824474E1,1.492784739E0
5.694877000E0,1.540668845E0,1.380975533E1,1.747767210E0
5.704550000E0,6.009446383E-1,1.186207199E1,1.845929503E0
5.715529000E0,-1.097741485E0,1.018373680E1,2.252943754E0
5.724717000E0,-2.546233416E0,9.615114212E0,2.618059635E0
5.734688000E0,-3.161543369E0,9.522936821E0,2.861071110E0
5.744924000E0,-3.444059134E0,9.981427193E0,3.075352192E0
5.754452000E0,-3.429693937E0,1.029985619E1,2.697068214E0
5.764476000E0,-3.391386747E0,1.025197124E1,1.933317900E0
5.776224000E0,-3.107673883E0,9.617507935E0,1.128866076E0
5.785319000E0,-2.790441990E0,8.517372131E0,7.457938194E-1
5.794598000E0,-2.649184227E0,7.325059891E0,1.146822572E0
5.804492000E0,-2.476801634E0,6.424840450E0,1.401805043E0
5.814904000E0,-1.861491799E0,5.689820290E0,1.657984734E0
5.824458000E0,-1.069011092E0,4.843470097E0,2.305616140E0
5.834680000E0,-4.046200812E-1,4.188655853E0,2.847903013E0
5.844493000E0,8.499415964E-2,3.977966070E0,3.265691042E0
5.854469000E0,1.651999205E-1,4.004302502E0,3.100491285E0
5.864479000E0,1.939303428E-1,3.830722809E0,2.631227732E0
5.874427000E0,2.645592988E-1,3.508702517E0,1.740584612E0
5.884447000E0,-2.837128937E-1,3.645172119E0,1.752555609E0
5.897069000E0,-8.894459605E-1,3.727771997E0,2.102109194E0
5.914717000E0,-2.895787001E0,4.244919777E0,3.519476414E0
5.924871000E0,-4.352658749E0,4.874594688E0,4.019864559E0
5.934565000E0,-5.734113216E0,5.899312973E0,4.118026733E0
5.944503000E0,-6.901286602E0,7.182605267E0,3.597288132E0
5.954411000E0,-8.453926086E0,8.441955566E0,2.777273893E0
5.964809000E0,-1.011071396E1,9.329007149E0,1.782483220E0
5.974609000E0,-1.159033012E1,9.427168846E0,8.906430602E-1
5.984535000E0,-1.209430981E1,8.925583839E0,2.323572636E0
5.994539000E0,-1.155920601E1,8.864531517E0,5.501875401E0
6.004465000E0,-1.015859795E1,9.319430351E0,8.410830498E0
6.014544000E0,-8.355764389E0,9.643844604E0,9.333795547E0
6.024517000E0,-7.114370346E0,9.767146111E0,7.406463146E0
6.034525000E0,-5.492298603E0,9.235632896E0,2.707842112E0
6.044606000E0,-4.286818027E0,8.307879448E0,-9.732429981E-1
6.054516000E0,-3.350685358E0,7.818265438E0,-2.311601639E0
6.064511000E0,-2.694674015E0,8.349778175E0,-3.484760523E0
6.074604000E0,-1.333570361E0,9.227252960E0,-6.441599846E0
6.085441000E0,-1.963245422E-1,1.383609200E1,2.117671490E0
6.094456000E0,-3.375824392E-1,1.959414673E1,7.631517887E0
6.104450000E0,-2.932897210E-1,1.952471542E1,3.163937569E0
6.114430000E0,2.275688648E0,1.599087334E1,-3.950432837E-1
6.124520000E0,-1.503558636E0,1.085291672E1,9.085995555E-1
6.134796000E0,-2.290053844E0,1.147660542E1,1.151970100E1
6.144467000E0,2.358288765E0,1.136647224E1,3.405751944E0
6.154428000E0,2.789244890E0,1.080982113E1,-4.832695961E0
6.164974000E0,2.554613113E0,1.015859795E1,-5.658695698E0
6.174576000E0,2.333149672E0,9.660603523E0,-4.774038315E0
6.185357000E0,2.024297476E0,9.449913979E0,-3.420117140E0
6.194691000E0,1.704671621E0,9.627084732E0,-1.339555860E0
6.204455000E0,2.082955539E-1,1.007719517E1,-6.452373862E-1
6.214497000E0,-1.586158633E0,1.046625233E1,-1.282094955E0
6.224583000E0,-1.927332401E0,1.102290440E1,-2.256535053E0
6.234520000E0,-1.225831270E0,1.106719780E1,-2.789244890E0
6.244546000E0,-7.086837292E-1,1.041836834E1,-4.213795066E-1
6.254744000E0,-7.302315235E-1,9.985017776E0,1.310825467E0
6.264554000E0,-1.031900883E0,9.657012939E0,3.292027414E-1
6.274707000E0,-1.030703783E0,8.866926193E0,3.327940404E-1
6.284515000E0,-4.106055796E-1,7.965508938E0,1.879448295E-1
6.294442000E0,1.663970202E-1,7.530961514E0,-2.322375625E-1
6.304889000E0,5.518634915E-1,7.432799339E0,-6.847416759E-1
6.314646000E0,4.560954273E-1,7.572859764E0,-1.843535304E-1
6.324504000E0,4.908113554E-2,7.848193169E0,-2.873042040E-2
6.334464000E0,-5.374982953E-1,8.063671112E0,2.442085743E-1
6.344472000E0,-1.194706678E0,8.264783859E0,3.830722570E-1
6.354616000E0,-1.546654344E0,8.597578049E0,4.357447028E-1
6.364494000E0,-1.897404790E0,9.139864922E0,4.752490520E-1
6.376786000E0,-2.349909067E0,9.696516991E0,2.059013397E-1
6.389620500E0,-1.497573137E0,1.036809063E1,-4.369418025E-1
6.404782000E0,-1.013944387E0,9.967061996E0,2.358288616E-1
6.414634000E0,-6.524199843E-1,9.380482674E0,5.039794445E-1
6.424574000E0,-5.422866940E-1,8.802282333E0,-3.471592367E-1
6.434630000E0,-5.494692922E-1,8.717288017E0,-1.971625090E0
6.444684000E0,-5.075707436E-1,9.023746490E0,-2.516305923E0
6.454437000E0,-4.908113480E-1,9.635464668E0,-1.337161660E0
6.464671000E0,-3.184288144E-1,1.039203262E1,2.214636505E-1
6.474837000E0,-4.070143029E-2,1.096424675E1,9.014169574E-1
6.484480000E0,1.640028208E-1,1.149695683E1,5.590460896E-1
6.494707000E0,1.783680320E-1,1.165377712E1,-2.023100406E-1
6.504861000E0,-9.576806426E-2,1.143710136E1,-6.129156351E-1
6.514659000E0,-6.177040339E-1,1.137006378E1,-7.038952708E-1
6.524903000E0,-1.230619669E0,1.159751320E1,-7.134721279E-1
6.534483000E0,-1.733402014E0,1.170644951E1,-8.068459630E-1
6.544475000E0,-2.075772762E0,1.192432117E1,-5.003881454E-1
6.554554000E0,-2.416946650E0,1.266053867E1,-2.250549644E-1
6.564493000E0,-2.658761024E0,1.338478470E1,8.140286058E-2
6.574796000E0,-3.011905670E0,1.362779617E1,5.135562420E-1
6.584490000E0,-2.788047791E0,1.310585976E1,8.918401599E-1
6.594519000E0,-2.451662540E0,1.180102062E1,1.831564307E0
6.604459000E0,-1.379060149E0,1.050216579E1,2.893392801E0
6.614785000E0,1.019929886E0,9.718064308E0,6.208165169E0
6.624568000E0,1.977610588E0,1.093312168E1,7.235277653E0
6.634481000E0,3.099294186E0,1.357751751E1,6.260837555E0
6.644857000E0,4.377797604E0,1.702157784E1,2.931699991E0
6.654549000E0,3.839102507E0,1.946366310E1,-5.231330991E-1
6.664499000E0,2.670732021E0,1.943493271E1,-3.525461912E0
6.674832000E0,2.366668463E0,1.781405830E1,-2.658761024E0
6.685114000E0,1.526303530E0,1.545337486E1,-5.147533417E-1
6.694445000E0,-3.663128614E-1,1.371877575E1,1.414973259E0
6.704473000E0,-2.092532396E0,1.227028370E1,3.209427357E0
6.714469000E0,-2.529474020E0,1.171363163E1,3.915716887E0
6.724560000E0,-2.327163935E0,1.229781723E1,3.570951939E0
6.734622000E0,-1.799242616E0,1.334288597E1,1.236605167E0
6.744551000E0,-7.026981711E-1,1.355118179E1,-5.793967843E-1
6.754489000E0,-2.873042040E-2,1.294425106E1,-1.254561663E0
6.764683000E0,3.148375154E-1,1.153765774E1,-1.395819545E0
6.774472000E0,4.704606235E-1,9.970652580E0,-1.150413871E0
6.784477000E0,5.087678432E-1,8.350975990E0,-4.022258818E-1
6.798075000E0,-4.357447028E-1,5.740098476E0,1.420958757E0
6.814483000E0,-7.924807668E-1,4.241328239E0,1.841141105E0
6.824879000E0,-4.429273307E-2,3.945644379E0,1.842338204E0
6.834458000E0,5.566518903E-1,3.258508444E0,1.549048543E0
6.844663000E0,1.315613866E0,2.463633537E0,1.016338587E0
6.854523000E0,1.470039845E0,1.595735431E0,3.375824392E-1
6.864505000E0,1.101332784E0,1.213860273E0,-1.352723986E-1
6.874511000E0,5.626374111E-2,1.624465823E0,1.163581967E0
6.884596000E0,-3.016694188E-1,1.816002011E0,1.369483352E0
6.894553000E0,-6.512228847E-1,1.920149803E0,1.996764183E0
6.904509000E0,2.274491638E-1,2.548627615E0,2.900575399E0
6.914513000E0,8.595184088E-1,3.569754839E0,4.036623955E0
6.925304000E0,-1.022324085E0,6.228515625E0,7.080851555E0
6.934641000E0,-7.088034153E0,1.108515358E1,9.566033363E0
6.944520000E0,-1.140477943E1,1.564730549E1,1.014782429E1
6.954564000E0,-1.281496429E1,1.799481964E1,9.937133789E0
6.964503000E0,-1.149815369E1,1.709340286E1,1.089122391E1
6.974445000E0,-6.173449039E0,1.385165405E1,1.094988155E1
6.984557000E0,-1.914164305E0,1.395340729E1,8.195352554E0
6.994735000E0,-4.094084799E-1,1.861252403E1,-1.985990286E0
7.004782000E0,2.018311977E0,2.367147255E1,-2.094926596E0
7.014906000E0,2.132036686E0,2.551261330E1,3.125630379E0
7.024598000E0,-1.170764685E0,1.921825790E1,-9.752780914E0
7.034529000E0,3.046621561E0,9.507374763E0,-3.058592558E0
7.044537000E0,2.937685490E0,2.183511972E0,5.574898720E0
7.054496000E0,1.934514999E0,3.151966572E0,-3.232172251E0
7.065383000E0,6.335057735E0,4.759673119E0,-2.451662540E0
7.075682000E0,1.760935307E0,3.801992416E0,-3.252522945E0
7.084525000E0,-7.110779285E-1,6.501454830E0,-7.520187378E0
7.094758000E0,1.140837073E0,9.282320023E0,-7.399280548E0
7.104502000E0,2.328361034E0,1.043632507E1,-1.777694821E0
7.114562000E0,1.241393566E0,1.065539455E1,3.387795448E0
7.124540000E0,-5.097255230E0,1.152449036E1,1.666364431E0
7.134513000E0,-6.472724438E0,1.102769279E1,1.211466074E0
7.145388000E0,-5.749675274E0,1.102649593E1,7.326257229E-1
7.154465000E0,-4.449624062E0,1.137245846E1,-3.950432837E-1
7.164440000E0,-3.021482468E0,1.130182934E1,-3.303998411E-1
7.174673000E0,-1.353921056E0,1.063384724E1,8.559271097E-1
7.184477000E0,1.053448766E-1,1.007599831E1,5.303156972E-1
7.194546000E0,5.363011956E-1,1.034654236E1,-3.471592367E-1
7.204474000E0,7.481880188E-1,1.051892471E1,-8.655039072E-1
7.215070000E0,6.524199843E-1,1.027830791E1,-7.649474144E-1
7.224471000E0,1.915361285E-1,9.927556992E0,-5.231330991E-1
7.234719000E0,-3.830722719E-2,9.568427086E0,-5.195417404E-1
7.244480000E0,-9.935937077E-2,9.305065155E0,-2.070984542E-1
7.254536000E0,-4.513070285E-1,9.306262016E0,7.637503147E-1
7.264652000E0,-7.781155705E-1,9.360131264E0,1.307234168E0
7.274505000E0,-1.039083481E0,9.165003777E0,1.790862918E0
7.284832000E0,-1.021126986E0,8.514978409E0,1.847126603E0
7.294805000E0,-1.126471877E0,7.077260017E0,8.331822157E-1
7.304578000E0,-7.206547260E-1,7.370550156E0,-3.627215624E-1
7.314671000E0,-2.035071403E-1,8.315062523E0,-9.433154464E-1
7.324536000E0,9.935937077E-2,9.074024200E0,-1.200692177E0
7.334490000E0,2.190694511E-1,9.570821762E0,-6.799532771E-1
7.344490000E0,3.722983599E-1,9.388861656E0,2.430114746E-1
7.354668000E0,4.273650050E-1,8.925583839E0,6.428431273E-1
7.364506000E0,5.506663769E-2,8.906430244E0,2.190694511E-1
7.374480000E0,-1.328781962E0,9.051279068E0,-8.451532125E-1
7.384433000E0,-2.298433542E0,8.865729332E0,-1.448492050E0
7.394635000E0,-3.174711466E0,8.852560997E0,-1.462857246E0
7.405359000E0,-3.590105534E0,9.153033257E0,-4.991910458E-1
7.414583000E0,-3.296815634E0,9.613917351E0,6.643909812E-1
7.425118000E0,-2.829946518E0,1.040041256E1,1.003170490E0
7.434782000E0,-2.476801634E0,1.118331623E1,4.261679053E-1
7.445002000E0,-2.376245260E0,1.179862595E1,1.101332754E-1
7.454898000E0,-2.360682964E0,1.195185471E1,5.985504016E-3
7.464733000E0,-2.469619036E0,1.255399704E1,1.137245819E-1
7.474719000E0,-2.254140854E0,1.293826580E1,9.852139950E-1
7.484483000E0,-2.333149672E0,1.302804852E1,2.676717520E0
7.494677000E0,-2.135627985E0,1.365652657E1,2.428917646E0
7.504446000E0,-1.569399238E0,1.448252583E1,1.124077678E0
7.515539000E0,-8.248024583E-1,1.250970364E1,8.307880163E-1
7.524560000E0,-9.804255962E-1,1.024598598E1,2.328361034E0
7.534530000E0,-1.516726732E0,1.055124664E1,4.169502258E0
7.544672000E0,-1.272518158E0,1.165138245E1,5.552153587E0
7.554431000E0,-9.145850539E-1,1.369483376E1,5.262455463E0
7.564499000E0,1.604115069E-1,1.645055962E1,2.440888643E0
7.574705000E0,1.511938334E0,1.825937843E1,1.951274395E0
7.584554000E0,1.449689150E0,1.907460403E1,-1.046266198E0
7.594731000E0,1.459265947E0,1.791222000E1,-4.654327869E0
7.605162000E0,1.302445769E0,1.371757889E1,-3.178302765E0
7.614480000E0,1.302445769E0,1.371757889E1,-3.178302765E0
7.624673000E0,-8.858546615E-2,1.249892998E1,3.971980572E0
7.634612000E0,-4.273650050E-1,1.291073227E1,3.402160645E0
7.644636000E0,1.340752989E-1,1.304121685E1,6.212953329E-1
7.654748000E0,1.557428241E0,1.268208599E1,-1.364694953E0
7.664496000E0,2.814383984E0,1.173637676E1,-2.051830769E0
7.674598000E0,2.967612982E0,1.073081207E1,-1.953668594E0
7.684486000E0,2.328361034E0,9.593565941E0,-1.589749932E0
7.699017000E0,1.630451322E0,8.233659744E0,-1.261744261E0
7.714482000E0,-1.723825186E-1,5.797559261E0,-3.208230138E-1
7.724461000E0,-6.165069342E-1,4.884171486E0,5.111620426E-1
7.734504000E0,-9.157821536E-1,4.143166065E0,1.155202270E0
7.744585000E0,-1.019929886E0,3.343502760E0,2.094926596E0
7.754560000E0,-5.123591423E-1,2.480392933E0,2.318784237E0
7.764464000E0,1.711854190E-1,1.353921056E0,2.530671120E0
7.774561000E0,1.254561663E0,2.669534981E-1,1.142034173E0
7.784482000E0,1.671152830E0,-3.447650373E-1,-2.753331885E-2
7.794605000E0,1.756146908E0,-3.938461840E-1,-4.477157295E-1
7.804419000E0,4.213795066E-1,-8.619126081E-1,-7.673416734E-1
7.814759000E0,-2.777273953E-1,1.571793437E0,-1.074996591E0
7.825294000E0,-5.339069963E-1,2.846705914E0,1.628057212E-1
7.834551000E0,-9.145850539E-1,4.056974888E0,2.548627615E0
7.844530000E0,-1.878251195E0,6.082469463E0,5.845443249E0
7.854464000E0,-5.481524944E0,1.155920601E1,9.859322548E0
7.864459000E0,-1.264258194E1,1.941937065E1,9.834183693E0
7.874550000E0,-1.403241634E1,1.783680344E1,1.145864964E1
7.884638000E0,-9.567230225E0,1.274553299E1,1.212902546E1
7.895207000E0,-3.715801001E0,1.081700325E1,1.090798283E1
7.904474000E0,3.711012602E-1,1.027471638E1,8.257601738E0
7.914792000E0,2.193088770E0,1.233013916E1,2.513911724E0
7.924486000E0,2.817975283E0,1.239957047E1,-5.091269970E0
7.934779000E0,3.333925962E0,1.432570553E1,-8.285135269E0
7.944492000E0,3.775655985E0,1.792658615E1,5.865794048E-2
7.954782000E0,4.068945885E0,1.402762794E1,6.799532771E-1
7.964503000E0,4.894945145E0,8.608352661E0,-3.199850559E0
7.974541000E0,1.726219416E0,1.075235939E1,6.268020153E0
7.985244000E0,-4.364629745E0,1.585320663E1,-6.155492783E0
7.994477000E0,-2.980781198E-1,1.271680260E1,-1.237802267E0
8.004435000E0,1.241393566E0,8.754398346E0,2.937685490E0
8.014590000E0,-1.391031146E0,7.959523678E0,-4.809951305E0
8.024444000E0,9.433154464E-1,7.795520782E0,-6.684611320E0
8.034484000E0,2.530671120E0,7.732074261E0,-3.550601006E0
8.044573000E0,2.420537949E0,8.313865662E0,-2.258929253E0
8.054722000E0,1.924938202E0,9.703699112E0,8.571242094E-1
8.064496000E0,-3.998316824E-1,1.204762268E1,3.004723072E0
8.074535000E0,-3.391386747E0,1.343386555E1,5.638344884E-1
8.084489000E0,-4.563348293E0,1.309269238E1,-7.398083210E-1
8.095059000E0,-4.034229755E0,1.261624622E1,-1.163581967E0
8.106047000E0,-2.264914751E0,1.102888966E1,-8.559271097E-1
8.114603000E0,-2.264914751E0,1.102888966E1,-8.559271097E-1
8.124453000E0,-3.220201433E-1,9.429563522E0,-1.939303428E-1
8.134459000E0,1.029506698E-1,9.252392769E0,-1.248576164E0
8.144696000E0,4.249708056E-1,9.234436035E0,-8.702923059E-1
8.154699000E0,5.207388401E-1,9.343372345E0,-5.793967843E-1
8.164492000E0,2.956839204E-1,9.664195061E0,-5.662286878E-1
8.174778000E0,-2.777273953E-1,9.911994934E0,-7.996633649E-1
8.184526000E0,-9.301473498E-1,9.929951668E0,2.885012925E-1
8.195171000E0,-1.126471877E0,9.991003990E0,1.137245774E0
8.204422000E0,-1.316810966E0,9.911994934E0,1.009155989E0
8.214440000E0,-1.205480576E0,9.515754700E0,6.859387755E-1
8.224503000E0,-7.613561153E-1,9.044096947E0,5.075707436E-1
8.234440000E0,-4.872200489E-1,8.844181061E0,-2.142810524E-1
8.245522000E0,-3.914519846E-1,8.584410667E0,-5.159504414E-1
8.254565000E0,-2.741360962E-1,8.334216118E0,-5.985504016E-3
8.264941000E0,1.077390742E-2,7.991845131E0,7.026981711E-1
8.274452000E0,2.633621991E-1,8.085219383E0,9.696516991E-1
8.284545000E0,1.292868853E-1,8.350975990E0,2.394201607E-2
8.294980000E0,-8.224082589E-1,8.791508675E0,-7.805097699E-1
8.304595000E0,-2.177526474E0,9.396044731E0,-7.541735172E-1
8.314509000E0,-3.274070740E0,9.575610161E0,-2.645592988E-1
8.324457000E0,-3.822343111E0,9.508571625E0,2.861070931E-1
8.334516000E0,-3.541024208E0,1.001614285E1,9.816226959E-1
8.344666000E0,-3.284844637E0,1.131739140E1,1.498770237E0
8.354547000E0,-3.250128746E0,1.231697083E1,1.798045516E0
8.364809000E0,-3.632004023E0,1.230499935E1,2.303221941E0
8.374437000E0,-3.999513865E0,1.196502304E1,3.148375273E0
8.384443000E0,-4.425682068E0,1.169567490E1,4.159925461E0
8.394540000E0,-4.611232281E0,1.163222885E1,4.316745758E0
8.404664000E0,-4.107253075E0,1.191953278E1,3.017891169E0
8.414816000E0,-3.367444754E0,1.195544624E1,1.042674899E0
8.424530000E0,-3.248931646E0,1.137964058E1,3.531447649E-1
8.434649000E0,-3.166331768E0,1.181299114E1,7.505822182E-1
8.444609000E0,-3.033453465E0,1.286165142E1,2.432508945E0
8.454474000E0,-2.468421936E0,1.399051762E1,4.501099110E0
8.464626000E0,-3.782838583E-1,1.443823338E1,4.947618008E0
8.474698000E0,1.916558504E0,1.596932507E1,6.163872242E0
8.484498000E0,2.764105797E0,1.884715652E1,2.631227732E0
8.494557000E0,3.072957993E0,1.892137527E1,-7.527369976E0
8.505112000E0,3.774458885E0,1.753633118E1,-8.501810074E0
8.515506000E0,2.986766577E0,1.597890186E1,-6.143521786E0
8.524483000E0,1.599326730E0,1.490270805E1,-1.012747288E0
8.534479000E0,4.944026470E-1,1.472314358E1,2.568978310E0
8.544572000E0,-7.422025502E-2,1.504037476E1,4.308365822E0
8.555486000E0,1.472434103E-1,1.502960110E1,3.126827478E0
8.564513000E0,4.872200489E-1,1.410184765E1,6.943184733E-1
8.574693000E0,6.320692301E-1,1.318965721E1,-2.189497471E0
8.584491000E0,2.059013397E-1,1.223556805E1,-2.214636564E0
8.595116000E0,-2.298433632E-1,1.081460953E1,-2.033874273E0
8.604564000E0,-4.800374508E-1,8.937555313E0,-1.995567083E0
8.614526000E0,-3.950432837E-1,7.089231014E0,-1.482010841E0
8.624840000E0,1.352723986E-1,5.335478306E0,-3.926490843E-1
8.634662000E0,5.374982953E-1,4.665102005E0,3.088520169E-1
8.644571000E0,8.846575022E-1,3.737348795E0,8.535329103E-1
8.654438000E0,1.030703783E0,2.481590033E0,1.341950059E0
8.664580000E0,1.262941360E0,1.584961534E0,1.541865945E0
8.674435000E0,1.455674648E0,8.176198602E-1,1.229422569E0
8.684490000E0,1.616086125E0,-4.189852998E-2,1.241393566E0
8.694773000E0,1.449689150E0,-5.267243981E-1,1.570596337E0
8.704443000E0,1.382651448E0,-5.075707436E-1,1.709460020E0
8.714615000E0,7.757213712E-1,9.636662006E-1,2.284068346E0
8.724553000E0,3.387795389E-1,1.674744129E0,3.303998232E0
8.734563000E0,2.394201607E-2,2.213439465E0,4.355052948E0
8.744471000E0,-1.249773264E0,2.992752075E0,6.369773388E0
8.754450000E0,-3.926490784E0,8.494627953E0,8.291120529E0
8.764639000E0,-9.346963882E0,1.692341423E1,5.819107056E0
8.774845000E0,-1.258152962E1,2.016037560E1,5.202600479E0
8.785182000E0,-1.144787502E1,1.779370689E1,5.570110321E0
8.794565000E0,-9.016563416E0,1.294784260E1,7.635109425E0
8.804498000E0,-5.374982834E0,1.002093124E1,9.185355186E0
8.814712000E0,-1.444900751E0,1.007001209E1,8.622717857E0
8.824511000E0,1.077390790E0,1.152449036E1,5.807136059E0
8.835464000E0,2.900575399E0,1.369124222E1,-8.188169599E-1
8.844606000E0,3.502717018E0,1.718438339E1,-5.590460896E-1
8.854693000E0,3.872621298E0,2.068590355E1,1.216254473E0
8.864548000E0,5.453991413E0,1.082538319E1,-7.979874134E0
8.874555000E0,-2.756923199E0,1.057279491E1,7.238868713E0
8.884484000E0,-7.414842606E0,1.317050362E1,-1.534683347E0
8.894451000E0,2.913743496E0,1.247618484E1,-2.576161146E0
8.904708000E0,3.440467834E0,8.104372978E0,4.097676277E0
8.914442000E0,-4.429273307E-2,5.655104637E0,-3.063380957E0
8.924464000E0,2.273294449E0,5.335478306E0,-7.108384609E0
8.934547000E0,3.447650433E0,7.001842976E0,-2.681505919E0
8.944500000E0,2.042253971E0,8.791508675E0,8.858546615E-2
8.954598000E0,-5.746084079E-2,1.044949341E1,3.028665185E-1
8.964881000E0,-2.224213362E0,1.190157700E1,3.459621370E-1
8.974416000E0,-3.921702385E0,1.255519390E1,-3.232172132E-2
8.984584000E0,-4.118026733E0,1.207755089E1,-5.985504389E-2
8.994895000E0,-3.406949043E0,1.174834728E1,6.224924326E-2
9.004503000E0,-2.849100113E0,1.134971333E1,4.153940082E-1
9.014749000E0,-2.312798738E0,1.057399178E1,1.092953086E0
9.024464000E0,-2.134430885E0,1.006282997E1,5.171475410E-1
9.034438000E0,-1.155202270E0,9.375694275E0,-3.351882473E-2
9.044469000E0,-2.645592988E-1,8.826224327E0,6.572083831E-1
9.054598000E0,5.746084079E-2,8.880094528E0,1.185129806E-1
9.065195000E0,-1.759738177E-1,9.191340446E0,-6.260837317E-1
9.074474000E0,-3.627215624E-1,9.664195061E0,-1.284489155E0
9.084616000E0,-7.218518257E-1,1.004966164E1,-3.315969408E-1
9.094658000E0,-1.092953086E0,1.013824749E1,5.925649405E-1
9.104811000E0,-1.369483352E0,9.837775230E0,1.146822572E0
9.114686000E0,-9.253589511E-1,9.501389503E0,1.376665950E0
9.124446000E0,-5.865794420E-1,9.394847870E0,1.735796183E-1
9.134501000E0,-6.260837317E-1,9.408015251E0,-4.369418025E-1
9.148411000E0,-5.841852427E-1,9.255983353E0,-4.800374508E-1
9.164949000E0,1.125274822E-1,9.294290543E0,-2.370259613E-1
9.174437000E0,3.208230138E-1,9.382876396E0,-6.057330370E-1
9.185376000E0,7.781155407E-2,9.391256332E0,-6.847416759E-1
9.194823000E0,-7.038952708E-1,9.579200745E0,-3.842693865E-1
9.204651000E0,-1.510741234E0,9.756371498E0,2.849099934E-1
9.214479000E0,-1.956062794E0,9.664195061E0,1.341950059E0
9.224431000E0,-2.072181463E0,9.197325706E0,1.883039594E0
9.235020000E0,-2.335543871E0,9.197325706E0,9.469067454E-1
9.244501000E0,-2.359485865E0,9.518148422E0,-2.980781198E-1
9.254599000E0,-2.140416384E0,9.986215591E0,-2.765302956E-1
9.264504000E0,-1.892616391E0,1.057279491E1,6.141127348E-1
9.274437000E0,-1.417367458E0,1.107318306E1,1.403002143E0
9.284484000E0,-1.034295082E0,1.128387260E1,1.082179189E0
9.294936000E0,-1.356315255E0,1.144548130E1,4.417302012E-1
9.304899000E0,-2.163161278E0,1.203206062E1,8.858546615E-2
9.314513000E0,-2.524685621E0,1.269166279E1,-2.178723514E-1
9.324438000E0,-2.735375404E0,1.320521927E1,3.471592441E-2
9.334461000E0,-2.831143618E0,1.335605431E1,6.105214357E-2
9.344489000E0,-2.779668093E0,1.339316463E1,1.448491961E-1
9.354564000E0,-2.140416384E0,1.241513252E1,1.465251446E0
9.364486000E0,-1.528697729E0,1.070208168E1,4.337096214E0
9.374557000E0,-8.140285611E-1,1.217571259E1,5.243301868E0
9.384498000E0,1.173158810E-1,1.355237865E1,4.443638325E0
9.394724000E0,1.467645645E0,1.456632328E1,2.839523315E0
9.404472000E0,1.806425214E0,1.627937508E1,6.907271743E-1
9.414441000E0,2.013523579E0,1.755548477E1,-1.578976035E0
9.424932000E0,2.193088770E0,1.698925591E1,-2.190694571E0
9.434787000E0,1.891419291E0,1.573469353E1,-2.275688648E0
9.444580000E0,1.060631394E0,1.463575459E1,-8.535329103E-1
9.454447000E0,4.177882075E-1,1.365054131E1,7.445967197E-1
9.464663000E0,1.795651205E-2,1.255878544E1,1.466448545E0
9.474564000E0,-2.298433632E-1,1.181179428E1,1.273715258E0
9.484476000E0,-1.137245819E-1,1.163222885E1,-4.094084799E-1
9.495941000E0,-8.379706182E-3,1.167412758E1,-1.241393566E0
9.504646000E0,4.297592044E-1,1.146104336E1,-1.516726732E0
9.518572000E0,5.482721925E-1,1.029865837E1,-9.349357486E-1
9.534490000E0,4.967968464E-1,9.416395187E0,-9.253589511E-1
9.546121000E0,3.842693865E-1,8.373720169E0,-7.086837292E-1
9.554726000E0,4.309563041E-1,7.296329498E0,-1.532289088E-1
9.564642000E0,4.884171486E-1,6.210559368E0,5.961562395E-1
9.574877000E0,5.458779931E-1,5.038597584E0,1.094150186E0
9.584439000E0,4.812345505E-1,3.793612480E0,1.545457244E0
9.594641000E0,5.949591398E-1,2.862268209E0,1.776497602E0
9.604453000E0,4.776432514E-1,2.171540976E0,1.918952703E0
9.614487000E0,8.870517015E-1,1.507149935E0,1.416170359E0
9.624415000E0,1.249773264E0,6.177040339E-1,1.461660147E0
9.634443000E0,1.529894829E0,4.788403511E-1,1.750161409E0
9.646099000E0,9.816226959E-1,1.441309452E0,2.244564056E0
9.654509000E0,2.525882721E-1,2.776076794E0,3.047818661E0
9.664441000E0,-1.005564705E-1,3.682282209E0,3.736151695E0
9.674616000E0,-1.005564705E-1,4.262876034E0,5.036203384E0
9.684544000E0,-1.080982089E0,5.814318657E0,7.047332764E0
9.695792000E0,-4.568136692E0,9.628282547E0,7.296329498E0
9.704599000E0,-1.025915432E1,1.581729317E1,4.867412090E0
9.714773000E0,-1.404678154E1,1.897764015E1,3.581725836E0
9.724515000E0,-1.308431244E1,1.739986038E1,4.073734283E0
9.734657000E0,-9.111134529E0,1.340154362E1,6.698976517E0
9.744556000E0,-4.338293552E0,1.153765774E1,9.087192535E0
9.754500000E0,-5.961562395E-1,1.241872406E1,8.723274231E0
9.765006000E0,1.531091928E0,1.283531570E1,5.643133640E0
9.774523000E0,2.726995707E0,1.357392693E1,3.830722570E-1
9.784488000E0,2.890998602E0,1.452083302E1,-1.641225219E0
9.794686000E0,2.712630510E0,1.569159794E1,2.262520641E-1
9.804471000E0,2.715024710E0,1.392826843E1,-5.670666695E0
9.814843000E0,5.371391296E0,1.084094524E1,-3.383007050E0
9.824486000E0,1.686715126E0,1.067813969E1,8.291120529E0
9.834746000E0,-4.048594952E0,1.077869606E1,-6.416460276E-1
9.844483000E0,-1.995567083E0,1.081221485E1,-6.353013992E0
9.854621000E0,2.901772499E0,1.051293945E1,1.860294700E0
9.864978000E0,3.495534360E-1,7.753622055E0,-4.025850296E0
9.874457000E0,1.005564705E-1,7.162254333E0,-5.123591423E0
9.884560000E0,-2.513911724E-1,7.600393295E0,-6.009446383E-1
9.894682000E0,-1.106121182E0,8.030152321E0,1.001973391E0
9.904499000E0,-2.414552450E0,9.103952408E0,-8.176198602E-1
9.914586000E0,-2.953247786E0,1.034175396E1,-1.784877419E0
9.924464000E0,-2.375048161E0,1.063983250E1,-5.243301988E-1
9.934601000E0,-1.716642618E0,1.081460953E1,-5.171475410E-1
9.944662000E0,-1.383848548E0,1.100973606E1,1.400607973E-1
9.954558000E0,-1.308431268E0,1.083256531E1,7.924807668E-1
9.964491000E0,-1.236605167E0,1.047702694E1,4.776432514E-1
9.974501000E0,-8.511387110E-1,1.001374817E1,4.668693244E-1
9.985130000E0,-7.038952708E-1,9.983820915E0,2.394201700E-3
9.995326000E0,-7.218518257E-1,9.913191795E0,-1.400607973E-1
1.000446500E1,-6.955155730E-1,9.785101891E0,-3.519476354E-1
1.001465800E1,-8.355764151E-1,9.487024307E0,-1.125274822E-1
1.002505500E1,-1.193509579E0,9.175778389E0,1.592144072E-1
1.003482600E1,-1.649604917E0,9.077615738E0,7.146692276E-1
1.004576700E1,-1.871068597E0,9.251194954E0,6.033388376E-1
1.005584100E1,-2.029085875E0,9.423578262E0,2.968810201E-1
1.006445800E1,-2.158372879E0,9.597157478E0,2.537853718E-1
1.007446900E1,-2.039859772E0,9.526528358E0,1.292868853E-1
1.008577900E1,-1.511938334E0,9.704896927E0,2.334346622E-1
1.009449400E1,-1.511938334E0,9.704896927E0,2.334346622E-1
1.010469100E1,-1.057040095E0,1.000656605E1,2.082955539E-1
1.011448800E1,-8.499416113E-1,1.010233402E1,6.320692301E-1
1.012449400E1,-7.733271718E-1,9.989806175E0,9.504981041E-1
1.013479200E1,-9.780313969E-1,9.676166534E0,9.612720013E-1
1.014487300E1,-1.668758631E0,9.160215378E0,2.334346622E-1
1.015450200E1,-2.542642117E0,8.883685112E0,-8.008604646E-1
1.016503900E1,-2.710236311E0,9.165003777E0,-9.361328483E-1
1.017443400E1,-2.369062662E0,9.977835655E0,2.657563984E-1
1.018476900E1,-1.832761407E0,1.086728191E1,1.271321058E0
1.019461600E1,-1.453280449E0,1.122880554E1,1.154005170E0
1.020443200E1,-1.646013618E0,1.129105568E1,9.109937549E-1
1.021457500E1,-1.923741102E0,1.136767006E1,9.588778019E-1
1.022449500E1,-1.873462796E0,1.193748951E1,9.864110947E-1
1.023449200E1,-1.602918029E0,1.270842266E1,1.323993564E0
1.024452700E1,-1.318008065E0,1.280538750E1,1.313219666E0
1.025488900E1,-1.291671872E0,1.296579933E1,1.467645645E0
1.026520300E1,-2.019509077E0,1.314656162E1,1.922544003E0
1.027457800E1,-2.604891539E0,1.204762268E1,2.124854088E0
1.028452700E1,-2.467224836E0,1.087925243E1,1.954865694E0
1.029457100E1,-1.625662923E0,1.198657036E1,4.343081951E0
1.030489000E1,-1.340752989E-1,1.359427738E1,5.707777023E0
1.031459400E1,1.673547029E0,1.442147350E1,4.897339344E0
1.032446800E1,2.803610086E0,1.603157425E1,3.339911461E0
1.033447600E1,2.965218782E0,1.776976585E1,-4.967968464E-1
1.034465400E1,2.918531895E0,1.746211052E1,-4.602852821E0
1.035454100E1,2.543839216E0,1.575504398E1,-6.186617374E0
1.036453100E1,-6.967126727E-1,1.249653530E1,8.020575643E-1
1.037473500E1,-1.304839969E0,1.166215611E1,3.517082214E0
1.038452300E1,-9.852139950E-1,1.140717411E1,2.436100245E0
1.039612500E1,-5.255272985E-1,1.154484081E1,8.463503122E-1
1.040442700E1,-1.053448766E-1,1.187404346E1,-3.423708379E-1
1.041462200E1,4.884171486E-1,1.184890461E1,-1.654393315E0
1.042486000E1,7.422025204E-1,1.144188976E1,-1.661576033E0
1.043459400E1,6.320692301E-1,1.056441498E1,-1.094150186E0
1.044452800E1,3.399766386E-1,9.224859238E0,-5.015852451E-1
1.045443600E1,1.209071875E-1,7.870938301E0,-2.322375625E-1
1.046452800E1,-4.153940082E-1,6.879738808E0,1.221042871E-1
1.047457400E1,-8.427590132E-1,5.771223068E0,8.319851160E-1
1.048458500E1,-4.656722248E-1,4.758475780E0,1.626860023E0
1.049501800E1,-1.903390288E-1,3.961206675E0,2.236184359E0
1.050464300E1,-7.182605099E-3,3.464409828E0,2.236184359E0
1.051459100E1,3.040636182E-1,3.008314371E0,1.898601890E0
1.052449500E1,8.068459630E-1,2.318784237E0,2.001552582E0
1.053458700E1,1.334767461E0,1.721431017E0,2.087743998E0
1.054455500E1,1.562216640E0,1.290474772E0,2.308010340E0
1.055449900E1,1.399410844E0,1.441309452E0,2.624045134E0
1.056713300E1,-1.352723986E-1,2.913743496E0,4.746504784E0
1.058449400E1,-9.169792533E-1,3.509899616E0,6.578069210E0
1.059463700E1,-2.522291422E0,4.952406406E0,8.222886086E0
1.060446100E1,-5.284003258E0,8.487444878E0,7.210138321E0
1.061448900E1,-1.232894135E1,1.626141739E1,1.679532528E0
1.062461700E1,-1.120965195E1,1.410304546E1,3.675099611E0
1.063469800E1,-8.271966934E0,1.049498272E1,6.592434406E0
1.064474100E1,-4.903325081E0,1.027471638E1,8.742427826E0
1.065464700E1,-1.717839718E0,1.179144382E1,8.998606682E0
1.066447200E1,2.118868530E-1,1.371518421E1,5.042188644E0
1.067453500E1,2.432508945E0,1.586398029E1,-2.229001760E0
1.068447600E1,4.209006786E0,2.087863541E1,3.877409697E0
1.069458000E1,3.716998100E0,2.118509293E1,-2.981978178E0
1.070452400E1,3.661931515E0,1.426704788E1,-1.239837360E1
1.071451500E1,8.116343617E-1,9.607931137E0,4.430470467E0
1.072527700E1,-4.112041473E0,8.826224327E0,2.754528999E0
1.073467300E1,3.843890905E0,9.039308548E0,-2.110488892E0
1.074449900E1,6.314706802E0,7.428010941E0,1.076193690E0
1.075476900E1,1.240196466E0,6.593631268E0,-4.363432407E0
1.076447300E1,1.411381960E0,6.761225700E0,-9.369708061E0
1.077450200E1,2.667140722E0,8.322244644E0,-5.871779442E0
1.078456500E1,1.313219666E0,1.010472870E1,6.189011335E-1
1.079580200E1,-6.619967818E-1,1.120007515E1,2.069787264E0
1.080446800E1,-3.040636063E0,1.244146919E1,9.528923035E-1
1.081455900E1,-5.032611847E0,1.283052731E1,1.879448295E-1
1.082463000E1,-5.294776917E0,1.219247246E1,2.370259613E-1
1.083451800E1,-4.169502258E0,1.142991924E1,1.126471877E0
1.084460100E1,-3.421314240E0,1.103607273E1,1.074996591E0
1.085446300E1,-2.665943623E0,1.064222622E1,3.866635859E-1
1.086458900E1,-1.285686255E0,9.151836395E0,1.544260085E-1
1.087450900E1,-4.560954273E-1,8.865729332E0,-3.232172430E-1
1.088445000E1,2.825157940E-1,8.740033150E0,-7.422025204E-1
1.089508800E1,1.069011092E0,8.972270966E0,-5.758054852E-1
1.090445200E1,6.548141837E-1,9.385271072E0,3.220201433E-1
1.091491400E1,-9.576806799E-3,9.692925453E0,-6.224924326E-2
1.092451300E1,-6.763619781E-1,9.793481827E0,2.537853718E-1
1.093453000E1,-1.145625472E0,9.623494148E0,7.697358727E-1
1.094540100E1,-1.472434044E0,9.258378029E0,1.273715258E0
1.095486500E1,-1.200692177E0,8.870517731E0,1.013944387E0
1.096449100E1,-6.512228847E-1,8.872911453E0,5.925649405E-1
1.097443400E1,-2.801215947E-1,8.961497307E0,2.561795712E-1
1.098461200E1,-1.735796183E-1,9.125499725E0,-3.878606856E-1
1.099516600E1,-1.675941199E-1,9.218873978E0,-6.500257850E-1
1.100445800E1,-1.544260085E-1,9.349357605E0,-6.799532771E-1
1.101487400E1,-8.858546615E-2,9.655815125E0,-5.183446407E-1
1.102448300E1,-2.932897210E-1,9.962273598E0,-5.171475410E-1
1.103450600E1,-7.350199223E-1,1.027112484E1,-5.746083856E-1
1.104491600E1,-1.399410844E0,1.050096893E1,-8.619125932E-2
1.105450300E1,-1.801636815E0,1.035492229E1,6.883329749E-1
1.106449600E1,-1.905784607E0,1.001494598E1,1.069011092E0
1.107451400E1,-1.980004787E0,9.843760490E0,3.315969408E-1
1.108505100E1,-1.996764183E0,9.883264542E0,-3.782838583E-1
1.109476000E1,-1.964442492E0,1.005085850E1,-6.117185354E-1
1.110486900E1,-1.705868721E0,1.049977112E1,6.344634295E-2
1.111519800E1,-1.616086125E0,1.067095661E1,4.680664241E-1
1.112445300E1,-1.656787634E0,1.091037750E1,7.242460251E-1
1.113448100E1,-1.709460020E0,1.099776554E1,8.355764151E-1
1.114457400E1,-1.902193308E0,1.126471901E1,7.170634270E-1
1.115462900E1,-2.115277290E0,1.180341434E1,3.914519846E-1
1.116457400E1,-2.181117773E0,1.207276249E1,2.537853718E-1
1.117452500E1,-2.027888775E0,1.194946098E1,8.403648138E-1
1.118451900E1,-1.650802016E0,1.211346340E1,1.028309584E0
1.119525800E1,-1.460463047E0,1.240675354E1,1.300051570E0
1.120471900E1,-1.414973259E0,1.177707863E1,2.093729496E0
1.121495500E1,-1.552639842E0,1.040160942E1,2.523488522E0
1.122445800E1,-1.338358760E0,1.032020664E1,3.007117271E0
1.123460500E1,-9.026140571E-1,1.133774185E1,4.021061897E0
1.124456300E1,1.831564307E-1,1.296939087E1,4.686649799E0
1.125462800E1,1.717839718E0,1.421916389E1,3.982754469E0
1.126449900E1,2.961627483E0,1.601960373E1,2.779668093E0
1.127516500E1,3.082534790E0,1.792897987E1,4.991910458E-1
1.128459700E1,3.365050554E0,1.772427559E1,-1.774103403E0
1.129532300E1,4.164713860E0,1.599446487E1,-2.914940596E0
1.130444700E1,3.776853085E0,1.421557236E1,-3.080140591E0
1.131463100E1,2.311601639E0,1.309388924E1,-1.310825467E0
1.132546000E1,4.465186298E-1,1.223676491E1,5.829881430E-1
1.133472300E1,-7.517793179E-1,1.152209568E1,1.480813742E0
1.134477600E1,-1.356315255E0,1.147181702E1,1.432929754E0
1.135451000E1,-1.168370485E0,1.222359657E1,1.154005170E0
1.136443100E1,1.292868853E-1,1.283531570E1,-2.250549644E-1
1.137486900E1,1.376665980E-1,1.199375343E1,1.053448766E-1
1.138484100E1,-1.807622313E-1,1.078348446E1,3.244143426E-1
1.139607700E1,-3.890577853E-1,9.020154953E0,7.445967197E-1
1.140451800E1,-6.416460276E-1,7.581239700E0,1.128866076E0
1.141446900E1,-7.182605267E-1,6.519411087E0,1.596932530E0
1.142444600E1,-6.871358752E-1,5.463568211E0,1.817199111E0
1.143452900E1,-5.039794445E-1,4.529829502E0,1.880645394E0
1.144464500E1,-3.040636182E-1,3.791218281E0,2.106897593E0
1.145458400E1,7.541735470E-2,3.081337690E0,1.994369984E0
1.146451200E1,5.985504389E-1,2.352303267E0,1.912967205E0
1.147454700E1,1.104924083E0,1.871068597E0,1.470039845E0
1.148457900E1,1.503558636E0,1.572990537E0,8.212111592E-1
1.149472800E1,1.472434044E0,1.668758631E0,3.292027414E-1
1.150447400E1,1.356315255E0,1.867477298E0,3.890577853E-1
1.151455500E1,9.995791912E-1,2.748543501E0,9.241618514E-1
1.152454500E1,4.680664241E-1,3.796006680E0,1.726219416E0
1.153499700E1,1.161187813E-1,4.647145271E0,3.044227362E0
1.154490900E1,-7.182604820E-2,5.367800236E0,4.948814869E0
1.155465100E1,-1.777694821E0,6.149507046E0,7.893682957E0
1.156474900E1,-4.363432407E0,7.881711960E0,1.008796883E1
1.157460200E1,-7.593210697E0,1.165497398E1,8.264783859E0
1.158643400E1,-1.373433781E1,1.783560562E1,2.530671120E0
1.160082200E1,-1.065180302E1,1.399051762E1,5.199008942E0
1.161556700E1,-3.521870613E0,1.008677197E1,9.246406555E0
1.162457600E1,5.279214978E-1,1.182975101E1,5.773617268E0
1.163482100E1,2.929305792E0,1.296939087E1,-2.500743628E0
1.164451400E1,5.355829239E0,1.348653793E1,-7.436390400E0
1.165443500E1,6.835445881E0,1.565807915E1,-3.614047527E0
1.166447100E1,6.458359241E0,1.399650288E1,-4.327519417E0
1.167458300E1,5.199008942E0,1.053448772E1,-1.529894829E0
1.168492600E1,3.124433160E-1,9.776722908E0,9.575610161E0
1.169489300E1,-7.151480675E0,1.163103199E1,6.895300746E-1
1.170462300E1,-6.868964672E0,1.339555836E1,-8.300697327E0
1.171506200E1,-3.351882473E-2,1.293706894E1,-1.288080573E0
1.172446400E1,6.799532771E-1,1.002571964E1,3.722983599E0
1.173480700E1,-3.722983599E-1,8.107964516E0,-9.900023937E-1
1.174605100E1,9.229647517E-1,6.974309444E0,-2.318784237E0
1.175445200E1,1.611297727E0,6.767210960E0,1.048660398E0
1.176448400E1,6.560112834E-1,7.430405140E0,-2.681505978E-1
1.177451500E1,-9.109937549E-1,8.807070732E0,-2.286462545E0
1.178456500E1,-1.490390539E0,1.048301220E1,-3.148375273E0
1.179532400E1,-1.142034173E0,1.140597725E1,-1.249773264E0
1.180525000E1,-1.169567585E0,1.170764637E1,1.807622313E-1
1.181456400E1,-1.284489155E0,1.194108105E1,3.339911401E-1
1.182447900E1,-9.576807022E-1,1.182376480E1,1.783680320E-1
1.183455800E1,-4.584896266E-1,1.132816505E1,3.627215624E-1
1.184453300E1,-3.746925592E-1,1.086847878E1,5.303156972E-1
1.185493300E1,-5.494692922E-1,9.937133789E0,-4.692635238E-1
1.186452400E1,-4.525041282E-1,9.576807022E0,-6.787561774E-1
1.187592600E1,1.675941236E-2,9.381679535E0,-8.631097078E-1
1.188502900E1,1.400607973E-1,9.191340446E0,-9.109937549E-1
1.189754200E1,-3.112462163E-2,9.210494041E0,-4.764461517E-1
1.191466900E1,-1.011550188E0,9.516951561E0,4.369418025E-1
1.192446200E1,-1.356315255E0,9.877279282E0,8.619125932E-2
1.193458100E1,-1.482010841E0,1.012268448E1,-4.920084476E-1
1.194451500E1,-1.662773132E0,1.004367638E1,-7.062895298E-1
1.195441400E1,-1.677138329E0,9.856928825E0,-4.668693244E-1
1.196458000E1,-1.296460271E0,9.622296333E0,-1.005564705E-1
1.197464900E1,-7.158663273E-1,9.428366661E0,9.217676520E-2
1.198450600E1,-2.920926213E-1,9.289502144E0,1.831564307E-1
1.199502400E1,-1.675941199E-1,9.329007149E0,5.231330991E-1
1.200458800E1,-1.484405100E-1,9.538499832E0,2.908954918E-1
1.201450600E1,-1.759738177E-1,9.739612579E0,2.693476975E-1
1.202461000E1,-3.675099611E-1,9.733627319E0,5.303156972E-1
1.203474400E1,-1.018732786E0,9.655815125E0,3.711012602E-1
1.204659700E1,-1.972822189E0,9.454702377E0,-1.915361285E-1
1.205462800E1,-2.741360903E0,9.305065155E0,-4.764461517E-1
1.206493300E1,-2.843114614E0,9.212887764E0,-9.696517140E-2
1.207445400E1,-2.457648039E0,9.314641953E0,6.727706790E-1
1.208451400E1,-1.951274395E0,9.791088104E0,1.365892053E0
1.209517500E1,-1.303642869E0,1.089361763E1,3.854664862E-1
1.210448200E1,-1.303642869E0,1.089361763E1,3.854664862E-1
1.211915100E1,-1.814804912E0,1.109233665E1,2.825157940E-1
1.213452400E1,-1.929726601E0,1.223556805E1,3.627215624E-1
1.214466200E1,-1.650802016E0,1.269764900E1,6.153098345E-1
1.215445300E1,-1.505952835E0,1.383728886E1,6.883329749E-1
1.216469700E1,-1.174355984E0,1.406593513E1,4.896142483E-1
1.217455100E1,-8.990227580E-1,1.239238834E1,1.045069098E0
1.218448500E1,-1.228225470E0,1.040280628E1,2.577358246E0
1.219471300E1,-1.418564558E0,1.032499504E1,3.427299738E0
1.220469100E1,-1.021126986E0,1.189559078E1,4.309563160E0
1.221454000E1,8.140286058E-2,1.317050362E1,5.432443619E0
1.222456200E1,1.054645896E0,1.463575459E1,4.800374508E0
1.223468000E1,2.048239470E0,1.669716263E1,2.942473888E0
1.224449100E1,2.448071241E0,1.820431328E1,5.327098966E-1
1.225468900E1,2.955641985E0,1.757463837E1,-2.073378563E0
1.226460400E1,3.464409828E0,1.554196072E1,-4.341884613E0
1.227450600E1,2.497152328E0,1.352484512E1,-3.367444754E0
1.228472200E1,8.631097078E-1,1.208952141E1,-1.987187415E-1
1.229732700E1,-3.004723191E-1,1.118930149E1,1.707065821E0
1.231453400E1,-2.717418969E-1,1.098459721E1,1.780089021E0
1.232450900E1,2.274491638E-2,1.120366669E1,7.505822182E-1
1.233505700E1,2.070984542E-1,1.109951878E1,-1.436520964E-1
1.234480000E1,3.136404157E-1,1.061589050E1,-5.841852427E-1
1.235555900E1,-1.173158810E-1,8.991424561E0,-1.052251697E0
1.236611700E1,-5.626374111E-2,7.842207432E0,-6.248866320E-1
1.237478500E1,-2.513911724E-1,6.667851925E0,-2.202665508E-1
1.238462700E1,-5.015852451E-1,5.772420406E0,-1.077390742E-2
1.239441500E1,-3.806780577E-1,4.989516258E0,5.422866940E-1
1.240443200E1,-4.932055473E-1,4.355052948E0,1.216254473E0
1.241449300E1,-3.088520169E-1,3.864241600E0,1.487996340E0
1.242481400E1,6.943184882E-2,3.145981073E0,1.678335428E0
1.243445200E1,5.602431893E-1,2.260126352E0,1.434126854E0
1.244480800E1,1.016338587E0,1.672349930E0,1.013944387E0
1.245448700E1,1.437718153E0,1.300051570E0,8.212111592E-1
1.246462300E1,1.279700756E0,1.121683478E0,1.337161660E0
1.247464000E1,6.344634295E-2,2.069787264E0,2.123656988E0
1.248457000E1,-1.047463298E0,3.125630379E0,2.547430515E0
1.249558600E1,-1.763329506E0,4.411316395E0,3.253720045E0
1.250460400E1,-2.027888775E0,5.179855347E0,4.808753967E0
1.251454400E1,-3.014299870E0,6.744466305E0,6.320692539E0
1.252447100E1,-5.589263916E0,1.081700325E1,6.072892666E0
1.253451800E1,-1.045069027E1,1.601601219E1,4.772840977E0
1.254513000E1,-1.359308052E1,1.757104683E1,3.879803896E0
1.255447600E1,-1.240795040E1,1.436401272E1,5.329493046E0
1.256442900E1,-8.143877029E0,1.045787334E1,7.363367558E0
1.257442900E1,-3.320757866E0,1.020887566E1,8.280346870E0
1.258453000E1,1.951274425E-1,1.256955910E1,7.771578789E0
1.259460000E1,1.719036818E0,1.560660362E1,2.322375536E0
1.260447100E1,2.989160776E0,1.829050446E1,-3.238157749E0
1.261448300E1,5.646724701E0,1.962167931E1,-2.178723514E-1
1.262443700E1,2.473210335E0,1.386362457E1,-1.216254425E1
1.263447900E1,3.324349165E0,9.686940193E0,-5.962759495E0
1.264445600E1,-1.090558887E0,8.019378662E0,9.759963036E0
1.265457000E1,-2.479195833E0,8.851364136E0,2.464830637E0
1.266460500E1,2.831143618E0,8.378508568E0,-1.204283476E0
1.267455200E1,4.392162800E0,5.699397087E0,-1.173158810E-1
1.268455400E1,1.611297727E0,4.675876141E0,-2.962824583E0
1.269457100E1,1.436520964E-1,5.809530258E0,-5.995080948E0
1.270462900E1,-4.309562966E-2,8.072051048E0,-5.601234913E0
1.271450200E1,-5.267243981E-1,1.004367638E1,-3.107673883E0
1.272519500E1,-1.872265697E0,1.179862595E1,-8.954314590E-1
1.273449500E1,-3.922899485E0,1.276588345E1,-5.865794420E-1
1.274496600E1,-5.005078793E0,1.220683765E1,-2.142810524E-1
1.275488200E1,-4.034229755E0,1.139999104E1,1.837549806E0
1.276493600E1,-2.371456861E0,1.093551636E1,2.267308950E0
1.277570900E1,-1.203086376E0,1.066377449E1,2.008735180E0
1.278453100E1,-6.560112834E-1,1.045547867E1,1.624465823E0
1.279454000E1,-4.944026470E-1,1.033217716E1,6.212953329E-1
1.280511400E1,-6.895300746E-1,1.068771648E1,-7.541735470E-2
1.281462800E1,-7.062895298E-1,1.071525002E1,-5.494692922E-1
1.282470600E1,-6.129156351E-1,1.045308495E1,-8.475474119E-1
1.283493600E1,-3.758896589E-1,1.024838066E1,-1.240196466E0
1.284458600E1,5.626374111E-2,9.975440979E0,-1.482010841E0
1.285449500E1,3.459621370E-1,9.810241699E0,-7.697358727E-1
1.286456300E1,-4.429273009E-1,1.015141487E1,6.811503768E-1
1.287443500E1,-8.271966577E-1,9.916783333E0,7.445967197E-1
1.288462900E1,-9.481038451E-1,9.695320129E0,4.309563041E-1
1.289478600E1,-7.182605267E-1,9.435548782E0,2.705447972E-1
1.290454800E1,-5.099649429E-1,9.096769333E0,4.967968464E-1
1.291497600E1,-1.340752989E-1,8.748413086E0,7.302315235E-1
1.292640200E1,1.759738177E-1,8.605957985E0,6.775590777E-1
1.293515500E1,5.638344884E-1,8.541314125E0,2.920926213E-1
1.294446000E1,7.757213712E-1,8.503006935E0,3.232172430E-1
1.295474800E1,5.997475386E-1,8.522160530E0,2.645592988E-1
1.296448300E1,2.741360962E-1,8.784325600E0,-1.855506301E-1
1.297452800E1,-2.274491638E-1,9.168595314E0,-5.243301988E-1
1.298456600E1,-9.923965931E-1,9.320627213E0,-5.674257874E-1
1.299491200E1,-1.725022316E0,9.148244858E0,-6.308721304E-1
1.300445300E1,-2.082955360E0,8.904036522E0,-6.021417379E-1
1.301448700E1,-2.124854088E0,8.887276649E0,-4.788403213E-2
1.302445600E1,-1.906981707E0,9.291896820E0,8.092401624E-1
1.303441100E1,-1.612494826E0,9.963470459E0,1.429338455E0
1.304497400E1,-1.454477549E0,1.069011021E1,1.240196466E0
1.305454700E1,-1.702277422E0,1.128506947E1,3.136404157E-1
1.306489700E1,-2.012326479E0,1.177348709E1,-6.105214357E-1
1.307449900E1,-1.912967205E0,1.231098557E1,-6.117185354E-1
1.308447900E1,-1.284489155E0,1.246062279E1,9.576806426E-2
1.309444800E1,-1.112106681E0,1.297178459E1,1.863885999E0
1.310440400E1,-1.122880578E0,1.414254951E1,1.879448295E0
1.311468400E1,2.992752194E-2,1.234450436E1,8.391677141E-1
1.312451000E1,-3.184288144E-1,1.044590187E1,2.434903145E0
1.313567000E1,-8.331822157E-1,1.052850151E1,3.082534790E0
1.314445600E1,-8.535329103E-1,1.165976238E1,2.541445017E0
1.315455700E1,-4.596867263E-1,1.296340466E1,2.804807186E0
1.316459600E1,1.759738177E-1,1.377025127E1,3.290830135E0
1.317451500E1,9.469067454E-1,1.491467953E1,2.185906172E0
1.318491400E1,1.787271619E0,1.632246971E1,9.923965931E-1
1.319444700E1,2.444479942E0,1.676300240E1,3.351882398E-1
1.320475100E1,2.971204281E0,1.585200977E1,-7.996633649E-1
1.321441200E1,3.031059265E0,1.448851204E1,-1.520318031E0
1.322471500E1,2.288856745E0,1.340393829E1,-1.841141105E0
1.323442300E1,1.247379065E0,1.244386292E1,-6.356605291E-1
1.324461200E1,6.392518282E-1,1.195305157E1,6.763619781E-1
1.325483800E1,1.843535304E-1,1.178066921E1,1.018732786E0
1.326449700E1,-8.499415964E-2,1.198297977E1,1.191115379E0
1.327445200E1,1.053448766E-1,1.209670448E1,5.829881430E-1
1.328468600E1,6.871358752E-1,1.176869869E1,-8.379705995E-2
1.329458400E1,9.301473498E-1,1.120486355E1,-3.040636182E-1
1.330452400E1,7.589619160E-1,1.053807831E1,-2.154781520E-1
1.331487800E1,5.434837937E-1,9.701305389E0,-1.364694983E-1
1.332479600E1,3.459621370E-1,8.708909035E0,1.340752989E-1
1.333639700E1,1.867477298E-1,7.625532627E0,4.106055796E-1
1.334444400E1,6.943184882E-2,6.731297970E0,4.261679053E-1
1.335444600E1,1.388636976E-1,5.664681435E0,1.307234168E0
1.336777400E1,2.442085743E-1,4.435258865E0,1.602918029E0
1.338451900E1,4.955997467E-1,3.436876535E0,1.747767210E0
1.339444500E1,8.678981066E-1,2.899378300E0,1.446097851E0
1.340445000E1,1.387439847E0,2.394201756E0,9.050082564E-1
1.341454700E1,1.831564307E0,2.268506050E0,7.074866295E-1
1.342445100E1,2.367865562E0,2.311601639E0,5.171475410E-1
1.343469800E1,1.964442492E0,3.011905670E0,8.439561129E-1
1.344466700E1,1.309628367E0,4.193444252E0,1.547851443E0
1.345482500E1,1.352723956E0,4.876988888E0,2.336740971E0
1.346451900E1,9.959878922E-1,4.981136799E0,3.825934410E0
1.347538100E1,2.035071515E-2,5.328295708E0,6.301538944E0
1.348986800E1,-8.219294548E0,1.378461647E1,7.605181694E0
1.350448300E1,-1.349731255E1,1.755069542E1,5.366602898E0
1.351451100E1,-1.551203251E1,1.668878365E1,5.476736546E0
1.353020000E1,-1.202128696E1,1.275630665E1,7.698555470E0
1.354535500E1,-1.766920805E0,1.066018295E1,8.508993149E0
1.355470500E1,7.158663273E-1,1.097142887E1,5.671864033E0
1.356448400E1,2.106897593E0,1.181179428E1,1.233013868E-1
1.357443800E1,3.404554844E0,1.295622253E1,-3.276464939E0
1.358511300E1,4.217386246E0,1.400009441E1,-1.648407817E0
1.359464800E1,2.943670988E0,1.379179859E1,-2.267308950E0
1.360442800E1,3.693056107E0,1.226190376E1,5.480327606E0
1.361443600E1,-1.681926727E0,1.343266869E1,7.643488884E0
1.362442500E1,-6.739677906E0,1.306994724E1,-4.247313976E0
1.363456700E1,-3.989937067E0,1.225951004E1,-2.244564056E0
1.364456000E1,9.732429981E-1,1.025675964E1,2.609679937E0
1.365494600E1,3.172317147E-1,8.793902397E0,3.962403834E-1
1.366445800E1,-6.607996821E-1,7.321468830E0,-4.400542736E0
1.367493000E1,3.280056417E-1,6.465541840E0,-3.179499865E0
1.368468800E1,3.543418646E-1,7.262810707E0,4.967968464E-1
1.369463600E1,-1.063025594E0,8.813055992E0,-5.901707411E-1
1.370557300E1,-2.433706045E0,1.034893703E1,-2.371456861E0
1.371448100E1,-2.695871115E0,1.121922874E1,-2.053027868E0
1.372452500E1,-2.260126352E0,1.105881786E1,-2.789244950E-1
1.373446800E1,-1.966836691E0,1.119528675E1,3.758896589E-1
1.374443400E1,-1.171961784E0,1.128147888E1,1.064222693E0
1.375447600E1,-3.794809580E-1,1.100135708E1,1.260547161E0
1.376450800E1,2.202665508E-1,1.038963795E1,8.726865053E-1
1.377456300E1,5.961562395E-1,9.715670586E0,1.987187415E-1
1.378444000E1,5.351040959E-1,9.271546364E0,1.005564705E-1
1.379459800E1,5.482721925E-1,9.112331390E0,-2.430114746E-1
1.380439800E1,6.548141837E-1,9.381679535E0,-9.433154464E-1
1.381806900E1,4.620809257E-1,9.866505623E0,-1.054645896E0
1.383459700E1,1.556231081E-2,1.013824749E1,-1.065419793E0
1.384478900E1,-5.566518903E-1,1.015740108E1,4.417302012E-1
1.385450200E1,-1.041477680E0,1.002332497E1,7.003039718E-1
1.386447800E1,-1.596932530E0,9.556455612E0,3.052607179E-1
1.387443400E1,-1.631648421E0,9.521739960E0,-2.047042400E-1
1.388450100E1,-1.466448545E0,9.708487511E0,-3.303998411E-1
1.389442800E1,-1.185129881E0,9.879673004E0,-3.303998411E-1
1.390446900E1,-8.104372621E-1,9.721655846E0,1.520318091E-1
1.391512900E1,-4.740519226E-1,9.349357605E0,2.633621991E-1
1.392445400E1,-2.178723514E-1,9.076418877E0,3.124433160E-1
1.393445600E1,-1.759738177E-1,9.083600998E0,-3.950432688E-2
1.394457200E1,-3.758896589E-1,9.005789757E0,-4.836287498E-1
1.395457700E1,-8.978256583E-1,8.564059258E0,-4.046200812E-1
1.396522100E1,-1.499967337E0,8.209717751E0,2.035071515E-2
1.397444300E1,-2.035071373E0,8.268375397E0,3.687070608E-1
1.398484600E1,-2.208651066E0,8.787917137E0,7.433996201E-1
1.399445600E1,-1.902193308E0,9.564835548E0,1.128866076E0
1.400447500E1,-1.371877551E0,1.044829655E1,1.297657371E0
1.401446200E1,-1.012747288E0,1.104924107E1,1.207874775E0
1.402447200E1,-1.018732786E0,1.130542088E1,7.793126702E-1
1.403487400E1,-1.339555860E0,1.136647224E1,7.888894677E-1
1.404461300E1,-1.581370234E0,1.121204662E1,1.534683347E0
1.405490500E1,-1.782483220E0,1.091157436E1,2.152387381E0
1.406446200E1,-2.128445387E0,1.092713642E1,2.264914751E0
1.407442700E1,-2.393004656E0,1.123838234E1,1.915361404E0
1.408483100E1,-2.375048161E0,1.117254257E1,1.367089152E0
1.409451200E1,-2.601300240E0,1.067574501E1,9.528923035E-1
1.410446700E1,-3.632004023E0,1.107198620E1,9.864110947E-1
1.411752400E1,-3.198653460E0,1.119169617E1,9.923965931E-1
1.413006750E1,-1.250970364E0,1.305318737E1,5.930437565E0
1.414445800E1,-1.556231081E-2,1.353083134E1,6.783970356E0
1.415465900E1,9.277531505E-1,1.515888786E1,6.281188011E0
1.416450600E1,1.521515131E0,1.804749298E1,4.226963043E0
1.417463500E1,2.966415882E0,1.982997513E1,1.702277422E0
1.418508700E1,4.546588898E0,1.898721695E1,-3.384204149E0
1.419550400E1,4.872200489E0,1.672828674E1,-6.727706909E0
1.420506100E1,2.491166830E0,1.479616642E1,-5.736507416E0
1.421473700E1,-4.908113554E-2,1.380377007E1,-2.940079689E0
1.422459500E1,-2.088941097E0,1.352484512E1,7.386112213E-1
1.423534000E1,-2.144007683E0,1.302326012E1,2.395398855E0
1.424454500E1,-1.948880196E0,1.304480839E1,2.548627615E0
1.425454000E1,-1.616086125E0,1.324951267E1,1.910573006E0
1.426455900E1,-8.619126081E-1,1.308910084E1,8.810662031E-1
1.427459100E1,-5.746084079E-2,1.192910957E1,2.346317619E-1
1.428479100E1,-2.513911761E-2,1.046505547E1,-2.082955539E-1
1.429453500E1,-2.645592988E-1,8.798690796E0,-1.101332754E-1
1.430450600E1,-4.728548229E-1,7.231686115E0,5.398924947E-1
1.431450900E1,-5.267243981E-1,5.992686749E0,8.152256608E-1
1.432447500E1,-1.388636976E-1,4.787206173E0,1.033097982E0
1.433483900E1,-1.999158412E-1,3.792415380E0,1.177947283E0
1.434488000E1,-1.999158412E-1,2.856282711E0,1.572990537E0
1.435468600E1,5.219359994E-1,1.341950059E0,1.460463047E0
1.436454400E1,9.732429981E-1,8.271966577E-1,7.589619160E-1
1.437446000E1,1.930923700E0,4.525041282E-1,-2.142810524E-1
1.438476000E1,2.796427488E0,5.805938840E-1,-6.248866320E-1
1.439480900E1,2.742558002E0,1.845929503E0,-2.873041928E-1
1.440467700E1,1.128866076E0,3.167528868E0,3.220201433E-1
1.441465400E1,3.782838583E-1,3.871424198E0,1.588552833E0
1.442447100E1,6.344634295E-2,4.185064793E0,3.475183725E0
1.443449900E1,-1.854309201E0,4.140771866E0,6.241683960E0
1.444447000E1,-3.584120035E0,5.505466938E0,9.670180321E0
1.445462300E1,-6.856993675E0,1.127429581E1,9.791088104E0
1.446456800E1,-1.217451572E1,1.626261520E1,6.602011204E0
1.447474800E1,-1.348653793E1,1.689707756E1,4.867412090E0
1.448455300E1,-1.228105736E1,1.469680691E1,7.271190643E0
1.449454000E1,-9.289502144E0,1.169328117E1,9.115922928E0
1.450467000E1,-4.362235546E0,1.144069290E1,7.716512203E0
1.451676000E1,4.572925270E-1,1.292988586E1,3.847482204E0
1.453452200E1,4.687847137E0,1.649245834E1,-3.049015760E0
1.454453600E1,8.416815758E0,1.762012672E1,-1.642422318E0
1.455449100E1,8.586804390E0,1.704312515E1,-5.374982834E0
1.456448500E1,5.421669960E0,1.223556805E1,-4.018667698E0
1.457490600E1,-4.612429619E0,7.999027729E0,-1.243787766E0
1.458443700E1,-8.503006935E0,8.678980827E0,-8.615534782E0
1.459454000E1,-2.682703018E0,1.204762268E1,5.317522049E0
1.460455800E1,1.793257117E0,8.131906509E0,-1.655590534E0
1.461741800E1,5.949591398E-1,7.299921036E0,-6.940790653E0
1.463460600E1,5.147533491E-2,8.868123055E0,-2.188300371E0
1.464449900E1,-2.118868589E0,1.044350815E1,-3.582922935E0
1.465471800E1,-3.117250681E0,1.190875912E1,-2.828749418E0
1.466446800E1,-2.511517525E0,1.130901146E1,-2.753331959E-1
1.467440900E1,-1.845929503E0,1.081820011E1,1.007958889E0
1.468452600E1,-1.157596469E0,1.093431950E1,2.191891670E0
1.469463300E1,-3.986345828E-1,1.060631371E1,2.117671490E0
1.470446600E1,1.197100878E-1,1.003529644E1,1.209071875E0
1.471448400E1,3.639186621E-1,9.991003990E0,5.674257874E-1
1.472447000E1,3.351882398E-1,1.058237171E1,1.448491961E-1
1.473458100E1,-7.781155407E-2,1.103726959E1,-5.758054852E-1
1.474482200E1,-1.616086215E-1,1.081101799E1,-1.199495077E0
1.475444300E1,3.711012751E-2,9.946710587E0,-1.063025594E0
1.476443400E1,1.089361757E-1,9.789890289E0,-6.428431273E-1
1.477441300E1,-4.908113554E-2,1.024718285E1,1.221042871E-1
1.478495100E1,-2.801215947E-1,1.060272217E1,6.572083831E-1
1.479449000E1,-7.936778665E-1,1.053328991E1,7.912836671E-1
1.480443500E1,-1.429338455E0,1.004607010E1,7.912836671E-1
1.481494100E1,-1.666364431E0,9.685743332E0,4.572925270E-1
1.482445500E1,-1.538274646E0,9.692925453E0,4.285621047E-1
1.483534500E1,-7.050924301E-1,9.202114105E0,-1.448491961E-1
1.484462700E1,-7.050924301E-1,9.202114105E0,-1.448491961E-1
1.485460500E1,2.837128937E-1,9.020154953E0,2.729389966E-1
1.486454300E1,5.770025849E-1,9.300276756E0,5.602431893E-1
1.487452500E1,7.062895298E-1,9.408015251E0,3.854664862E-1
1.488453700E1,3.004723191E-1,9.417592049E0,-1.580173075E-1
1.489451500E1,-7.122750282E-1,9.442731857E0,-8.595184088E-1
1.490535500E1,-2.099714994E0,9.546878815E0,-8.271966577E-1
1.491523700E1,-2.923320293E0,9.667786598E0,-2.825157940E-1
1.492452500E1,-3.096899986E0,9.861717224E0,6.751648784E-1
1.493447400E1,-2.772485495E0,1.015740108E1,1.403002143E0
1.494487400E1,-2.302024841E0,1.048301220E1,1.574187636E0
1.495700300E1,-2.050633669E0,1.076911926E1,1.229422569E0
1.497443300E1,-2.009932280E0,1.091636276E1,1.004367590E0
1.498448900E1,-2.165555477E0,1.107198620E1,1.227028370E0
1.499441100E1,-2.408566952E0,1.148738003E1,1.201889277E0
1.500470200E1,-2.464830637E0,1.191354752E1,9.600749016E-1
1.501447700E1,-2.458845139E0,1.234929276E1,6.308721304E-1
1.502443500E1,-2.268506050E0,1.279940224E1,1.927332431E-1
1.503444700E1,-1.529894829E0,1.250850677E1,-5.506663918E-1
1.504443200E1,1.197100850E-3,1.147301483E1,-8.547300100E-1
1.505490100E1,9.804255962E-1,1.030703831E1,8.619126081E-1
1.506445400E1,4.680664241E-1,1.044709873E1,2.949656487E0
1.507473600E1,-4.848258495E-1,1.150174522E1,4.053383350E0
1.508447700E1,-4.129997790E-1,1.254801083E1,3.705027103E0
1.509442100E1,3.591302549E-3,1.341471195E1,3.050212860E0
1.510443900E1,1.707065821E0,1.602798271E1,2.365471363E0
1.511749800E1,2.759317398E0,1.712931633E1,2.795230389E0
1.513450800E1,4.520252705E0,1.594298935E1,-2.025494576E0
1.514503100E1,3.785232782E0,1.392467690E1,-3.665522814E0
1.515446300E1,1.527500629E0,1.274433517E1,-2.721010208E0
1.516449700E1,-5.793967843E-1,1.216613579E1,-1.045069098E0
1.517449600E1,-1.435323954E0,1.154603767E1,7.936778665E-1
1.518455400E1,-1.248576164E0,1.124077702E1,2.194285870E0
1.519442400E1,-5.003881454E-1,1.110071659E1,2.029085875E0
1.520445600E1,-8.259996027E-2,1.103966427E1,1.116895080E0
1.521504900E1,1.077390760E-1,1.087685871E1,5.889736414E-1
1.522484300E1,-2.154781483E-2,1.033696556E1,1.221042871E-1
1.523550100E1,-3.842693865E-1,9.562441826E0,-2.011129409E-1
1.524443900E1,-5.147533417E-1,8.585607529E0,1.244984865E-1
1.525449300E1,-5.207388401E-1,7.611167431E0,3.363853395E-1
1.526514300E1,-7.493851185E-1,6.851007938E0,6.763619781E-1
1.527443600E1,-9.145850539E-1,6.113594055E0,1.108515382E0
1.528511000E1,-9.038111567E-1,5.485116005E0,1.571793437E0
1.529489600E1,-5.973533392E-1,4.845864296E0,1.917755604E0
1.530456500E1,1.987187415E-1,4.054580688E0,1.595735431E0
1.531623000E1,1.285686255E0,3.171120167E0,1.018732786E0
1.532446400E1,1.285686255E0,3.171120167E0,1.018732786E0
1.533446000E1,1.511938334E0,3.051409960E0,6.847416759E-1
1.534441300E1,1.270123959E0,2.986766577E0,8.726865053E-1
1.535444900E1,-3.758896589E-1,3.126827478E0,3.066972494E0
1.536462100E1,-8.702923059E-1,3.487154722E0,3.560178041E0
1.537442500E1,-1.306037068E0,3.957615376E0,3.736151695E0
1.538446300E1,-2.122459888E0,5.103240967E0,4.510675907E0
1.539445800E1,-4.860229492E0,7.593210697E0,5.465962410E0
1.540461400E1,-8.352172852E0,1.085531044E1,5.904101372E0
1.541458200E1,-9.798270226E0,1.241273880E1,6.224924564E0
1.542444800E1,-8.311470985E0,1.181538582E1,6.755239964E0
1.543456100E1,-5.449203014E0,1.053807831E1,6.694188118E0
1.544444000E1,-2.661155224E0,9.830592155E0,5.853823185E0
1.545479600E1,-5.746083856E-1,9.360131264E0,3.574543238E0
1.546513300E1,8.092401624E-1,9.782708168E0,-1.424549967E-1
1.547462900E1,1.338358760E0,1.319205093E1,-3.271676540E0
1.548627000E1,3.459621429E0,1.733521652E1,3.141192675E0
1.549449900E1,3.681085110E0,1.637394524E1,4.959589005E0
1.550453500E1,2.072181463E0,1.380975533E1,-5.870582581E0
1.551449500E1,5.949591398E-1,1.314297009E1,-5.638344884E-1
1.552482200E1,-4.483142853E0,1.215536213E1,3.538630009E0
1.553494300E1,-4.691438198E0,1.052131939E1,-8.690952063E-1
1.554446100E1,-3.938461840E-1,9.919178009E0,1.013944387E0
1.555484700E1,1.260547161E0,9.058462143E0,1.944091797E0
1.556452400E1,-4.465186298E-1,8.593987465E0,-1.012747288E0
1.557465800E1,-1.094150186E0,8.955511093E0,-2.431311846E0
1.558463800E1,-6.200982332E-1,9.168595314E0,-1.920149803E0
1.559449000E1,-9.552865028E-1,9.551667213E0,-1.253364563E0
1.560534900E1,-3.600879431E0,1.014782429E1,-4.309562966E-2
1.561833100E1,-4.036623955E0,1.022683239E1,-7.876923680E-1
1.563457000E1,-2.196680069E0,9.914389610E0,6.763619781E-1
1.564453900E1,-1.201889277E0,9.527725220E0,1.403002143E0
1.565464300E1,-4.513070285E-1,9.102754593E0,8.212111592E-1
1.566448500E1,4.788403213E-2,8.644265175E0,-1.125274822E-1
1.567474900E1,2.166752517E-1,8.956708908E0,-5.207388401E-1
1.568452100E1,2.142810524E-1,9.502586365E0,-4.177882075E-1
1.569442500E1,2.992752194E-1,9.872490883E0,-8.140286058E-2
1.570445300E1,1.556231081E-1,9.846154213E0,7.445967197E-1
1.571518000E1,6.224924326E-2,9.572018623E0,7.182605267E-1
1.572451700E1,-1.221042871E-1,9.512163162E0,2.525882721E-1
1.573463900E1,-4.129997790E-1,9.534908295E0,2.358288616E-1
1.574484800E1,-8.475474119E-1,9.623494148E0,5.195417404E-1
1.575450400E1,-1.267729759E0,9.813833237E0,2.789244950E-1
1.576449000E1,-1.233013868E0,9.702502251E0,1.711854190E-1
1.577450600E1,-1.053448796E0,9.704896927E0,-6.703764945E-2
1.578461300E1,-8.655039072E-1,9.670180321E0,-4.896142483E-1
1.579492700E1,-6.631938815E-1,9.682151794E0,-5.877765417E-1
1.580458200E1,-5.530605912E-1,9.815030098E0,-4.022258818E-1
1.581467200E1,-4.668693244E-1,1.013465595E1,-4.357447028E-1
1.582450000E1,-3.435679376E-1,1.028668785E1,-4.848258495E-1
1.583450000E1,-2.681505978E-1,1.012986755E1,-6.991068721E-1
1.584475800E1,-3.950432837E-1,1.000058079E1,-3.160346150E-1
1.585446200E1,-6.260837317E-1,1.016697788E1,-1.005564705E-1
1.586466100E1,-8.690952063E-1,1.034654236E1,-3.268085420E-1
1.587545300E1,-9.409212470E-1,1.031062984E1,-4.465186298E-1
1.588452600E1,-1.004367590E0,1.008796883E1,-3.507505357E-1
1.589520900E1,-1.061828494E0,9.902418137E0,-2.047042400E-1
1.590460600E1,-1.294066072E0,1.005684471E1,-2.274491638E-2
1.591461100E1,-1.464054346E0,1.032379818E1,1.029506698E-1
1.592448500E1,-1.662773132E0,1.060751057E1,2.765302956E-1
1.593461300E1,-1.817199111E0,1.090678596E1,1.077390760E-1
1.594444600E1,-1.857900500E0,1.100614548E1,7.781155407E-2
1.595451900E1,-1.719036818E0,1.100614548E1,3.076549172E-1
1.596464500E1,-1.577778935E0,1.136647224E1,4.716577232E-1
1.597454500E1,-1.326387763E0,1.197938824E1,6.224924326E-1
1.598446400E1,-1.150413871E0,1.231457615E1,7.146692276E-1
1.599445300E1,-1.394622445E0,1.267131233E1,9.050082564E-1
1.600442000E1,-1.860294700E0,1.322676754E1,1.052251697E0
1.602120100E1,-1.322796464E0,1.285925770E1,3.902548850E-1
1.603470500E1,-8.236053586E-1,1.155202293E1,7.589619160E-1
1.604510600E1,-1.238999367E0,1.065778923E1,2.036268473E0
1.605444100E1,-1.812410712E0,1.040639782E1,1.772906303E0
1.606449000E1,-1.709460020E0,1.076792240E1,1.759738207E0
1.607467900E1,-9.900023937E-1,1.143949604E1,2.912546396E0
1.608457400E1,5.135562420E-1,1.223676491E1,4.224568844E0
1.609442800E1,1.849520802E0,1.285087776E1,3.822343111E0
1.610444900E1,2.838326216E0,1.466687965E1,2.879027605E0
1.611449600E1,3.203441858E0,1.500565910E1,6.141127348E-1
1.612449000E1,3.703830004E0,1.455076122E1,-3.260902643E0
1.613451300E1,3.086126089E0,1.328183365E1,-4.381389141E0
1.614510400E1,1.345541358E0,1.216254425E1,-2.639607430E0
1.615470100E1,-3.208230138E-1,1.151371574E1,-3.579331636E-1
1.616443800E1,-1.198297977E0,1.132457447E1,1.209071875E0
1.617440900E1,-1.164779186E0,1.149097061E1,1.697489023E0
1.618447000E1,-6.308721304E-1,1.165976238E1,1.161187768E0
1.619500100E1,-4.237737060E-1,1.158793640E1,2.406172752E-1
1.620446500E1,-3.579331636E-1,1.114620590E1,-3.004723191E-1
1.621467600E1,-3.651157618E-1,1.031182671E1,-3.112462163E-1
1.622462600E1,-3.244143426E-1,9.270348549E0,-7.182605099E-3
1.623447500E1,-3.327940404E-1,8.136694908E0,4.070143029E-2
1.624444200E1,-5.111620426E-1,7.275979042E0,4.572925270E-1
1.625564200E1,-5.590460896E-1,6.600813866E0,7.038952708E-1
1.626544000E1,-5.746083856E-1,5.843049049E0,1.130063176E0
1.627486100E1,-8.104372621E-1,5.096058369E0,1.452083349E0
1.628488100E1,-7.888894677E-1,4.394556999E0,1.347935557E0
1.629471300E1,-5.710170865E-1,3.654748917E0,1.230619669E0
1.630449500E1,-8.020575345E-2,2.965218782E0,1.118092179E0
1.631525500E1,4.692635238E-1,2.382230759E0,1.110909581E0
1.632447500E1,1.009155989E0,2.060210466E0,1.183932781E0
1.633449100E1,1.423352957E0,2.313995838E0,1.442506552E0
1.634443100E1,1.412579060E0,2.732981205E0,1.887827992E0
1.635495200E1,-3.543418646E-1,4.335899353E0,3.345896959E0
1.636527900E1,-8.176198602E-1,4.686649799E0,4.781220913E0
1.637451800E1,-1.783680320E0,5.061342239E0,6.994660378E0
1.638447700E1,-4.532223701E0,7.107187748E0,8.651448250E0
1.639441900E1,-8.765172005E0,1.145505810E1,6.661866188E0
1.640453600E1,-1.302804852E1,1.448252583E1,4.945223808E0
1.641509400E1,-1.431972027E1,1.449330044E1,4.533421040E0
1.642468300E1,-1.216733265E1,1.202846909E1,6.052541733E0
1.643539500E1,-8.050502777E0,1.054645824E1,6.448782444E0
1.644443100E1,-3.694253206E0,1.193030739E1,7.163451672E0
1.645476500E1,-8.008604646E-1,1.618240929E1,3.760093689E0
1.646450000E1,1.624465823E0,1.988743591E1,1.468842745E0
1.647444100E1,4.088099480E0,2.195004082E1,4.001908302E0
1.648505300E1,3.697844505E0,1.921825790E1,-3.611653328E0
1.649443200E1,1.210268974E0,1.377863121E1,-1.418325043E1
1.650526000E1,7.661445141E-1,8.576030731E0,-3.954024076E0
1.651512000E1,-1.280897856E0,5.197812080E0,9.967061996E0
1.652456200E1,2.049436569E0,6.909666061E0,6.062118530E0
1.653448600E1,6.388927460E0,6.718130112E0,3.527856112E0
1.654444200E1,5.295974255E0,5.590460777E0,-1.763329506E0
1.655478700E1,1.948880196E0,6.696582317E0,-8.748413086E0
1.656452500E1,1.006761789E0,8.457517624E0,-9.955090523E0
1.657444300E1,2.406172752E-1,9.731232643E0,-5.058948040E0
1.658458400E1,-1.594538331E0,1.041477776E1,8.655039072E-1
1.659449000E1,-4.253299236E0,1.092953110E1,2.540247917E0
1.660510300E1,-5.961562157E0,1.134851646E1,1.113303825E-1
1.661851500E1,-3.968389273E0,1.129464626E1,1.940500498E0
1.663444500E1,-8.882488012E-1,1.124197388E1,1.262941360E0
1.664444700E1,-1.005564705E-1,1.089601231E1,9.540894032E-1
1.665448100E1,5.470750928E-1,1.094988155E1,2.035071515E-2
1.666449700E1,1.125274777E0,1.068173122E1,-8.690952063E-1
1.667449700E1,1.319205165E0,1.001135445E1,-9.109937549E-1
1.668448100E1,1.420958757E0,9.400833130E0,-8.164227605E-1
1.669441400E1,1.088164687E0,9.191340446E0,-8.583213091E-1
1.670501400E1,4.405331016E-1,9.309853554E0,-1.065419793E0
1.671510200E1,-1.759738177E-1,9.394847870E0,-6.153098345E-1
1.672445800E1,-6.703764796E-1,9.418789864E0,2.190694511E-1
1.673472300E1,-1.116895080E0,9.357737541E0,7.218518257E-1
1.674449000E1,-1.450886250E0,9.556455612E0,2.035071403E-1
1.675554100E1,-1.438915253E0,9.752780914E0,-2.597708702E-1
1.676511000E1,-1.301248670E0,9.797073364E0,-4.297592044E-1
1.677462500E1,-1.264138460E0,9.713275909E0,-2.489969730E-1
1.678498500E1,-1.332373261E0,9.566033363E0,-2.477998734E-1
1.679453000E1,-1.373074651E0,9.467870712E0,-3.639186621E-1
1.680450000E1,-1.443703651E0,9.337387085E0,-5.614402890E-1
1.681478300E1,-1.456871748E0,9.053673744E0,-4.944026470E-1
1.682445200E1,-1.234210968E0,9.028534889E0,-2.753331959E-1
1.683446500E1,-9.457096457E-1,9.510966301E0,3.830722719E-2
1.684470700E1,-3.890577853E-1,1.037407589E1,-1.867477298E-1
1.685474300E1,-2.513911724E-1,1.031541824E1,-5.829881430E-1
1.686451800E1,-5.075707436E-1,9.743204117E0,-4.369418025E-1
1.687442800E1,-1.070208192E0,9.139864922E0,1.233013868E-1
1.688458100E1,-1.763329506E0,9.072827339E0,5.817909837E-1
1.689444700E1,-2.166752577E0,9.358934402E0,8.319851160E-1
1.690541100E1,-1.942894697E0,9.817423820E0,1.388636947E0
1.691592000E1,-1.496376038E0,1.050575733E1,1.770512104E0
1.692446500E1,-1.266532660E0,1.119648457E1,1.437718153E0
1.693474400E1,-1.458068848E0,1.137126064E1,1.151610970E0
1.694443700E1,-1.820790410E0,1.131499767E1,9.780313969E-1
1.695451700E1,-2.080561161E0,1.173039150E1,1.115697980E0
1.696445700E1,-1.873462796E0,1.230619717E1,1.158793569E0
1.697467100E1,-1.552639842E0,1.272039318E1,1.244984865E0
1.698450500E1,-1.545457244E0,1.343626022E1,1.423352957E0
1.699446700E1,-1.318008065E0,1.376905441E1,1.260547161E0
1.700448200E1,-6.464344859E-1,1.305079365E1,8.236053586E-1
1.701450000E1,-4.046200812E-1,1.154603767E1,1.889025092E0
1.702479000E1,-7.110779285E-1,1.031900978E1,2.287659645E0
1.703463900E1,-8.248024583E-1,1.069609642E1,2.558204412E0
1.704444300E1,-7.110779285E-1,1.181658268E1,3.157952070E0
1.705464000E1,-9.097966552E-2,1.270243740E1,3.816357613E0
1.706467800E1,1.139639974E0,1.342668343E1,3.989937067E0
1.707461700E1,1.808819413E0,1.456392860E1,3.175908566E0
1.708449300E1,2.495955229E0,1.646612167E1,2.206256866E0
1.709476900E1,3.726574898E0,1.738070679E1,-2.406172752E-1
1.710448400E1,4.811148167E0,1.423352909E1,1.233013868E-1
1.711474800E1,3.184288263E0,1.302206326E1,-1.640028119E0
1.712447100E1,1.090558887E0,1.199973869E1,-1.711854219E0
1.713460500E1,-1.483207941E0,1.103248119E1,-1.005564705E-1
1.714481400E1,-2.608482838E0,1.022683239E1,5.662286878E-1
1.715498100E1,-2.565387011E0,1.034534550E1,7.685387731E-1
1.716484100E1,-2.197877169E0,1.075834560E1,1.025915384E0
1.717448900E1,-1.838746905E0,1.070926380E1,1.667561531E0
1.718451300E1,-1.410184860E0,1.013824749E1,1.352723956E0
1.719467600E1,-1.019929886E0,9.325415611E0,6.045359373E-1
1.720450400E1,-7.661445141E-1,8.385691643E0,2.238578647E-1
1.721461200E1,-5.123591423E-1,7.274781704E0,1.185129806E-1
1.722521700E1,-3.411737382E-1,6.374562263E0,4.225766063E-1
1.723494900E1,-1.879448295E-1,5.512649536E0,8.379706144E-1
1.724445700E1,-3.471592441E-2,4.774038315E0,1.182735682E0
1.725447900E1,1.412578970E-1,4.211400986E0,1.503558636E0
1.726942900E1,7.374141216E-1,2.992752075E0,2.056619167E0
1.728447300E1,7.457938194E-1,2.691082716E0,2.472013235E0
1.729443100E1,6.859387755E-1,2.525882721E0,2.734178305E0
1.730466700E1,4.405331016E-1,2.456450939E0,2.566584110E0
1.731484500E1,8.619125932E-2,2.681505919E0,2.149993181E0
1.732478500E1,-2.190694511E-1,3.192667961E0,1.742978811E0
1.733460100E1,-5.195417404E-1,4.060565948E0,2.014720678E0
1.734451400E1,-7.302315235E-1,5.080495834E0,4.849455357E0
1.735458600E1,-1.709460020E0,6.813898087E0,6.763619900E0
1.736450400E1,-3.585317135E0,7.892486095E0,8.281543732E0
1.737440300E1,-5.476736546E0,1.151491261E1,7.703343868E0
1.738444900E1,-8.637083054E0,1.457350540E1,6.039373875E0
1.739452100E1,-1.211825180E1,1.408868027E1,3.760093689E0
1.740457900E1,-1.289995861E1,1.197220516E1,4.082113743E0
1.741488100E1,-1.124915695E1,1.020049667E1,5.990292549E0
1.742492900E1,-8.900444984E0,1.098459721E1,7.902062893E0
1.744015500E1,-5.963956356E0,1.382771206E1,8.066065788E0
1.745465400E1,5.410895944E-1,2.171899986E1,2.880224705E0
1.746470900E1,1.302445769E0,2.217988396E1,-5.147533491E-2
1.747451300E1,-2.644395828E0,1.729810715E1,-1.087805557E1
1.748451000E1,-3.779247284E0,1.206677628E1,-1.120486355E1
1.749455400E1,3.506308317E0,5.215768337E0,1.128985786E1
1.750461800E1,5.087678432E0,4.844666958E0,6.020220280E0
1.751468300E1,8.128314972E0,5.534197330E0,2.686294317E0
1.752463600E1,7.503427982E0,3.112462282E0,2.920926213E-1
1.753616600E1,4.055777550E0,2.135627985E0,-5.681440830E0
1.754474700E1,1.790862918E0,3.885789394E0,-9.900024414E0
1.755447100E1,6.248866320E-1,7.806294441E0,-9.357737541E0
1.756511100E1,5.410895944E-1,1.099297714E1,-3.232172251E0
1.757451600E1,-1.013944387E0,1.293108368E1,2.764105797E0
1.758444600E1,-4.985925198E0,1.284010410E1,4.495113850E0
1.759451500E1,-6.534973621E0,1.190037918E1,2.064998865E0
1.760448000E1,-2.306813240E0,1.129344940E1,2.001552582E0
1.761473000E1,-9.421183467E-1,1.114141750E1,1.131260276E0
1.762460600E1,-1.819593310E-1,1.136048698E1,6.679822803E-1
1.763509900E1,6.129156351E-1,1.179383755E1,9.576806426E-2
1.764447500E1,1.157596469E0,1.210508347E1,-8.176198602E-1
1.765451400E1,1.170764685E0,1.146343803E1,-1.651999116E0
1.766537300E1,1.240196466E0,1.043632507E1,-1.836352706E0
1.767444200E1,1.250970364E0,9.816226959E0,-1.320402265E0
1.768486600E1,1.047463298E0,9.691728592E0,-4.453215301E-1
1.769443700E1,6.763619781E-1,9.815030098E0,-1.280897856E-1
1.770462200E1,6.033388376E-1,9.786299706E0,1.544260085E-1
1.771734500E1,2.513911724E-1,9.740809441E0,7.984662652E-1
1.772692400E1,-1.173158810E-1,9.651026726E0,7.565677166E-1
1.774450100E1,-2.094926536E-1,9.572018623E0,-8.858546615E-2
1.775447300E1,-1.915361360E-2,9.390059471E0,-5.482721925E-1
1.776479000E1,2.980781198E-1,9.259574890E0,-6.476315856E-1
1.777459300E1,4.584896266E-1,9.094375610E0,-3.124433160E-1
1.778447100E1,3.567360640E-1,8.912415504E0,-1.795651205E-2
1.779466100E1,4.189852998E-2,8.705317497E0,-1.041477770E-1
1.780445700E1,-3.112462163E-1,8.432378769E0,-3.615244627E-1
1.781454900E1,-4.201824069E-1,8.173804283E0,-6.883329749E-1
1.782443800E1,-4.022258818E-1,8.175002098E0,-9.600749016E-1
1.783457300E1,-3.603273630E-1,8.686163902E0,-7.493851185E-1
1.784484500E1,-2.513911761E-2,1.010831928E1,2.274491638E-1
1.785442700E1,6.823474914E-2,1.048780060E1,7.685387731E-1
1.786447000E1,-2.597708702E-1,1.058716011E1,8.487445116E-1
1.787465800E1,-9.947907925E-1,1.038484955E1,6.380547285E-1
1.788454900E1,-1.760935307E0,1.009874249E1,4.453215301E-1
1.789451100E1,-2.050633669E0,1.009036350E1,5.817909837E-1
1.790454700E1,-1.796848416E0,1.030703831E1,7.984662652E-1
1.791449500E1,-1.171961784E0,1.066975975E1,1.270123959E0
1.792458700E1,-7.278373241E-1,1.125394535E1,1.199495077E0
1.793475700E1,-8.044517636E-1,1.165257931E1,1.139639974E0
1.794445400E1,-1.198297977E0,1.182017422E1,1.065419793E0
1.795448800E1,-1.442506552E0,1.194108105E1,9.983820915E-1
1.796460200E1,-1.444900751E0,1.234210968E1,7.972691655E-1
1.797445200E1,-1.401805043E0,1.273475838E1,5.279214978E-1
1.798447000E1,-1.675941229E0,1.316212368E1,3.411737382E-1
1.799454000E1,-2.177526474E0,1.371997261E1,5.853823423E-1
1.800445100E1,-2.319981337E0,1.390911484E1,9.133879542E-1
1.801455700E1,-1.322796464E0,1.325789165E1,1.004367590E0
1.802470600E1,-6.572083831E-1,1.208114147E1,1.672349930E0
1.803452100E1,-6.991068721E-1,1.127190113E1,2.509123325E0
1.804447900E1,-8.978256583E-1,1.106240940E1,2.292448044E0
1.805581200E1,-3.483563364E-1,1.148139381E1,2.452859640E0
1.806461800E1,5.446808934E-1,1.173517990E1,3.581725836E0
1.807455200E1,1.091755986E0,1.202368069E1,3.784035683E0
1.808462800E1,1.623268723E0,1.297896767E1,3.870227098E0
1.809482200E1,2.413355350E0,1.533246803E1,3.286041737E0
1.810452500E1,3.988739967E0,1.568202114E1,1.725022316E0
1.811519300E1,4.733336926E0,1.513255215E1,-1.114500880E0
1.812699900E1,4.158728123E0,1.383968258E1,-3.831919909E0
1.814114200E1,2.229001760E0,1.227028370E1,-4.444835663E0
1.815481700E1,-2.255337954E0,9.926360130E0,-3.531447649E-1
1.816474800E1,-2.451662540E0,9.724050522E0,5.925649405E-1
1.817453200E1,-2.199074268E0,9.982624054E0,1.444900751E0
1.818449000E1,-1.963245392E0,1.049139214E1,2.464830637E0
1.819462500E1,-1.504755735E0,1.089122391E1,2.027888775E0
1.820479000E1,-8.846575022E-1,1.067694283E1,9.864110947E-1
1.821806700E1,-4.273650050E-1,9.616311073E0,6.476315856E-1
1.823520300E1,-7.625532150E-1,7.247248650E0,1.472434103E-1
1.824517900E1,-8.631097078E-1,5.977124691E0,2.537853718E-1
1.825460800E1,-9.038111567E-1,5.014655590E0,6.033388376E-1
1.826453000E1,-8.918401599E-1,4.235342979E0,8.906430602E-1
1.827455800E1,-6.033388376E-1,3.469198227E0,1.102529883E0
1.828453700E1,-1.532289088E-1,2.924517393E0,1.151610970E0
1.829455000E1,5.135562420E-1,2.388216257E0,1.120486379E0
1.830451300E1,1.131260276E0,2.160767078E0,9.397241473E-1
1.831466900E1,1.344344258E0,2.317587137E0,8.690952063E-1
1.832447700E1,1.264138460E0,2.829946518E0,1.090558887E0
1.833480600E1,1.036689281E0,3.669114113E0,1.316810966E0
1.834457500E1,-2.753331885E-2,6.467936039E0,2.516305923E0
1.835546200E1,-4.860229492E-1,6.822277546E0,4.459200859E0
1.836538300E1,-1.636436820E0,7.007828236E0,6.610390663E0
1.837444500E1,-3.345896959E0,8.622717857E0,8.271966934E0
1.838447900E1,-5.922058105E0,1.260427475E1,7.777564049E0
1.839451400E1,-1.018493366E1,1.494101524E1,6.379350662E0
1.840486200E1,-1.275391293E1,1.381095219E1,5.676652431E0
1.841580100E1,-1.227507210E1,1.114860058E1,6.210559368E0
1.842461800E1,-9.876082420E0,9.483432770E0,6.878541470E0
1.843488700E1,-7.108384609E0,9.643844604E0,7.274781704E0
1.844455500E1,-4.050989151E0,1.002332497E1,6.380547523E0
1.845494600E1,-1.061828494E0,1.081700325E1,3.428496838E0
1.846450000E1,5.231330991E-1,1.301128960E1,-4.656722248E-1
1.847444000E1,5.386953950E-1,1.491108799E1,-1.274912357E0
1.848512500E1,-5.985504016E-3,1.546055794E1,-7.015010715E-1
1.849451900E1,-5.638344884E-1,1.384925938E1,-3.147178173E0
1.850446900E1,-7.481880188E-1,1.256596756E1,-8.990227699E0
1.851465500E1,1.398213744E0,1.127788734E1,-5.495890141E0
1.852467100E1,8.726865053E-1,9.793481827E0,2.626439333E0
1.853460800E1,-1.001973391E0,9.481039047E0,6.836642742E0
1.854458800E1,1.641225219E0,8.966285706E0,1.107916832E1
1.855464900E1,4.572925091E0,7.042544365E0,1.202966690E1
1.856448100E1,4.387374401E0,5.825092793E0,2.024297476E0
1.857462000E1,1.302445769E0,6.591237068E0,-6.417657852E0
1.858447900E1,3.136404157E-1,7.307103634E0,-8.151060104E0
1.859446200E1,-1.684320927E0,1.236724854E1,-3.915716887E0
1.860487700E1,-3.301604033E0,1.275989819E1,-2.573766708E-1
1.861474600E1,-3.349488258E0,1.100973606E1,1.878251195E0
1.862480000E1,-1.814804912E0,1.034534550E1,2.407369852E0
1.863444400E1,-5.039794445E-1,1.107078838E1,2.467224836E0
1.864498400E1,3.016694188E-1,1.168250751E1,1.821987510E0
1.865487900E1,6.009446383E-1,1.160349846E1,1.385045648E0
1.866452200E1,3.363853395E-1,1.186207199E1,-2.442085743E-1
1.867572800E1,-2.705447972E-1,1.185129833E1,-1.736993313E0
1.868460600E1,-4.764461517E-1,1.140358257E1,-2.188300371E0
1.869451000E1,-2.501940727E-1,1.057638645E1,-1.880645394E0
1.870454400E1,4.070143029E-2,9.763554573E0,-1.179144382E0
1.871487500E1,3.112462163E-1,9.279925346E0,-1.491587639E0
1.872465800E1,1.687912196E-1,9.002198219E0,-1.013944387E0
1.873525600E1,9.576806426E-2,9.015366554E0,-4.548983276E-1
1.874541600E1,-1.316810995E-1,9.095572472E0,2.130839527E-1
1.875449500E1,-4.632780254E-1,9.124302864E0,7.050924301E-1
1.876472500E1,-8.511387110E-1,9.501389503E0,5.351040959E-1
1.877455300E1,-8.750807047E-1,9.940725327E0,2.322375625E-1
1.878471500E1,-7.194576263E-1,9.913191795E0,1.137245819E-1
1.879478400E1,-5.386953950E-1,9.527725220E0,-1.831564307E-1
1.880575800E1,-5.686228871E-1,9.191340446E0,-3.543418646E-1
1.881468800E1,-7.625532150E-1,9.060855865E0,-2.944868207E-1
1.882479500E1,-7.972691655E-1,8.927978516E0,-1.412578970E-1
1.883454500E1,-5.889736414E-1,8.675390244E0,2.358288616E-1
1.884442600E1,-3.351882473E-2,8.972270966E0,2.238578647E-1
1.885443500E1,-3.471592441E-2,9.603142738E0,-6.703764945E-2
1.886457700E1,-1.711854190E-1,1.019331360E1,-4.537012279E-1
1.887442700E1,-4.632780254E-1,1.045907021E1,-7.625532150E-1
1.888452300E1,-9.337386489E-1,1.028908157E1,-5.889736414E-1
1.889447600E1,-1.484405041E0,9.904812813E0,-3.830722719E-2
1.890445000E1,-1.889025092E0,9.635464668E0,6.596025825E-1
1.891466100E1,-1.924938202E0,9.591172218E0,1.042674899E0
1.892689500E1,-1.661576033E0,9.625887871E0,1.467645645E0
1.894450400E1,-7.613561153E-1,1.047582912E1,1.386242747E0
1.895442700E1,-5.470750928E-1,1.078707600E1,1.060631394E0
1.896478100E1,-5.997475386E-1,1.099776554E1,7.517793179E-1
1.897439700E1,-8.571242094E-1,1.132098293E1,8.619126081E-1
1.898444500E1,-1.054645896E0,1.171842003E1,1.241393566E0
1.899480900E1,-1.070208192E0,1.214817905E1,1.312022567E0
1.900442300E1,-1.138442874E0,1.289995861E1,1.436521053E0
1.901447000E1,-1.133654475E0,1.376785660E1,1.198297977E0
1.902442500E1,-5.829881430E-1,1.375947762E1,4.513070285E-1
1.903471600E1,4.548983276E-2,1.250371838E1,1.133654475E0
1.904442500E1,-2.274491638E-1,1.131140614E1,2.118868589E0
1.905452800E1,-5.997475386E-1,1.115817738E1,2.500743628E0
1.906474000E1,1.556231081E-2,1.181299114E1,2.461239338E0
1.907452900E1,9.409212470E-1,1.267370701E1,2.840720415E0
1.908449300E1,2.074575663E0,1.294185734E1,3.746925592E0
1.909465200E1,3.173514366E0,1.452322769E1,3.894169092E0
1.910487300E1,3.731363297E0,1.555393124E1,2.455253839E0
1.911509500E1,4.502296448E0,1.513255215E1,-5.853823423E-1
1.912455900E1,4.572925091E0,1.355237865E1,-2.437297344E0
1.913475300E1,3.201047659E0,1.222718811E1,-3.394978046E0
1.914561200E1,1.084573388E0,1.100375080E1,-2.302024841E0
1.915457000E1,-6.033388376E-1,1.036809063E1,-3.040636182E-1
1.916459800E1,-1.484405041E0,1.007958889E1,1.697489023E0
1.917445300E1,-1.722628117E0,1.004607010E1,2.437297344E0
1.918446200E1,-1.817199111E0,1.038604736E1,2.133233786E0
1.919455600E1,-1.725022316E0,1.061948204E1,2.050633669E0
1.920481400E1,-1.497573137E0,1.050216579E1,1.884236693E0
1.921478700E1,-1.280897856E0,1.020887566E1,7.852981687E-1
1.922464300E1,-8.966285586E-1,9.034520149E0,2.430114746E-1
1.923475300E1,-7.757213712E-1,7.678205013E0,1.592144072E-1
1.924442500E1,-1.095347285E0,6.588842869E0,2.274491638E-1
1.925458200E1,-1.329979062E0,5.646724701E0,4.752490520E-1
1.926452400E1,-1.266532660E0,5.029020786E0,9.085995555E-1
1.927452100E1,-1.000776291E0,4.551377296E0,1.252167463E0
1.928517500E1,-6.787561774E-1,3.983951569E0,1.371877551E0
1.929451900E1,-2.106897533E-1,3.529053211E0,1.553836942E0
1.930451700E1,2.106897533E-1,3.122039080E0,1.912967205E0
1.931456400E1,4.501099288E-1,2.634819031E0,2.073378563E0
1.932450500E1,5.398924947E-1,2.379836559E0,2.054224968E0
1.933529700E1,7.781155407E-2,3.350685358E0,2.275688648E0
1.934446200E1,-5.686228871E-1,4.546588898E0,2.896984100E0
1.935458800E1,-1.073799491E0,5.166687489E0,3.800795317E0
1.936444400E1,-1.340752959E0,5.497087002E0,5.409698963E0
1.937491100E1,-2.476801634E0,6.378153324E0,6.813898087E0
1.938446600E1,-4.455609322E0,9.172186852E0,7.311892033E0
1.939451000E1,-7.321468830E0,1.314177322E1,5.856217384E0
1.940457900E1,-1.045428181E1,1.473032570E1,4.906916618E0
1.941485300E1,-1.161427212E1,1.340633202E1,4.904522419E0
1.942448400E1,-1.067335129E1,1.127309895E1,6.834248543E0
1.943501800E1,-8.291120529E0,1.094150162E1,6.967126846E0
1.944525400E1,-5.212177277E0,1.386601925E1,6.870162010E0
1.945504400E1,-1.392228246E0,1.834916115E1,3.294421434E0
1.946444200E1,1.897404790E0,2.155619431E1,2.190694571E0
1.947520000E1,3.332728863E0,2.048838043E1,1.074996591E0
1.948445300E1,1.866280198E0,1.576462078E1,-8.021772385E0
1.949454300E1,1.851915002E0,1.081460953E1,-1.216853046E1
1.950458700E1,2.091335297E0,6.112396717E0,7.908048153E0
1.951469500E1,-8.259996027E-2,5.675455093E0,7.484274387E0
1.952442600E1,3.709815502E0,6.980295181E0,7.302315235E-1
1.953477900E1,6.388927460E0,5.944802761E0,1.005564690E0
1.954442700E1,4.201824188E0,6.379350662E0,-2.215833664E0
1.955456000E1,1.120486379E0,8.063671112E0,-6.946776390E0
1.956452100E1,-7.386112213E-1,9.755174637E0,-6.221333027E0
1.957475000E1,-1.968033791E0,1.038724422E1,-2.661155224E0
1.958458800E1,-2.766499996E0,1.045547867E1,-8.104372621E-1
1.959446100E1,-4.528632641E0,1.011071396E1,-2.370259613E-1
1.960557900E1,-3.311181068E0,1.048181534E1,6.464344859E-1
1.961488500E1,-1.703474522E0,1.059793377E1,2.149993181E0
1.962445800E1,-3.794809580E-1,1.046385860E1,1.663970232E0
1.963481300E1,2.992752194E-1,1.060511684E1,9.361328483E-1
1.964445200E1,8.487445116E-1,1.091636276E1,3.842693865E-1
1.965452400E1,1.410184860E0,1.109113979E1,2.477998734E-1
1.966446200E1,1.460463047E0,1.133295345E1,-3.160346150E-1
1.967460900E1,8.954314590E-1,1.111029339E1,-7.290344238E-1
1.968456500E1,1.137245819E-1,1.066137981E1,-5.099649429E-1
1.969444600E1,-3.016694188E-1,1.033936024E1,-4.297592044E-1
1.970539700E1,-6.332663298E-1,1.008437729E1,-5.183446407E-1
1.971467400E1,-5.722141862E-1,9.764751434E0,-4.022258818E-1
1.972448100E1,-4.848258495E-1,9.595960617E0,1.029506698E-1
1.973446200E1,-5.602431893E-1,9.710882187E0,1.268926859E-1
1.974461500E1,-7.374141216E-1,9.842563629E0,-3.375824392E-1
1.975485800E1,-8.499416113E-1,9.991003990E0,-8.487445116E-1
1.976445700E1,-8.092401624E-1,9.999382973E0,-1.060631394E0
1.977458700E1,-7.350199223E-1,9.962273598E0,-1.031900883E0
1.978837700E1,-8.762778044E-1,9.485827446E0,-6.093243361E-1
1.980453900E1,-9.648633003E-1,9.238027573E0,-3.004723191E-1
1.981446000E1,-9.852139950E-1,8.945934296E0,-2.621650994E-1
1.982451900E1,-9.169792533E-1,8.678980827E0,-3.782838583E-1
1.983482000E1,-5.698199868E-1,9.078812599E0,-4.429273307E-2
1.984446000E1,-1.795651317E-1,9.557653427E0,6.943184882E-2
1.985534400E1,-1.292868853E-1,1.007240677E1,1.244984865E-1
1.986442500E1,-4.010287821E-1,1.035372543E1,4.285621047E-1
1.987457300E1,-9.337386489E-1,1.018253994E1,8.571242094E-1
1.988452300E1,-1.638831019E0,9.821015358E0,9.935936928E-1
1.989443800E1,-2.163161278E0,9.654618263E0,9.205705523E-1
1.990535000E1,-2.132036686E0,9.691728592E0,1.161187768E0
1.991483300E1,-1.436521053E0,9.969455719E0,1.333570361E0
1.992467600E1,-6.799532771E-1,1.046984386E1,1.261744261E0
1.993455600E1,-4.752490520E-1,1.093312168E1,9.133879542E-1
1.994445000E1,-6.212953329E-1,1.098818874E1,1.063025594E0
1.995573800E1,-7.218518257E-1,1.100015926E1,1.523909330E0
1.996450300E1,-7.206547260E-1,1.110670185E1,1.783680320E0
1.997445600E1,-1.057040095E0,1.156519127E1,1.835155606E0
1.998447900E1,-1.562216640E0,1.210388660E1,1.326387763E0
1.999442900E1,-1.849520802E0,1.240196514E1,8.236053586E-1
2.000461400E1,-1.838746905E0,1.264497662E1,7.924807668E-1
2.001445100E1,-1.675941229E0,1.265455341E1,6.619967818E-1
2.002471500E1,-1.532289028E0,1.169806957E1,4.345476031E-1
2.003456700E1,-1.073799491E0,1.025077438E1,1.441309452E0
2.004446800E1,-8.008604646E-1,1.003290176E1,2.847903013E0
2.005450200E1,-5.470750928E-1,1.064222622E1,3.604470730E0
2.006471200E1,-5.626373887E-1,1.159152794E1,4.204218388E0
2.007451200E1,-1.424549967E-1,1.246900272E1,4.454412460E0
2.008864900E1,1.629254222E0,1.541506767E1,2.918531895E0
2.010456100E1,2.656366825E0,1.736993408E1,1.556231081E-2
2.011555500E1,3.278859138E0,1.548210526E1,-2.420537949E0
2.012602000E1,2.382230759E0,1.345780754E1,-3.049015760E0
2.013456200E1,5.686228871E-1,1.252766037E1,-3.106476784E0
2.014464200E1,-1.365892053E0,1.201769543E1,-1.007958889E0
2.015458800E1,-2.509123325E0,1.159033012E1,1.477222443E0
2.016456100E1,-2.400187254E0,1.143111610E1,2.170343876E0
2.017521800E1,-1.926135302E0,1.164539719E1,2.365471363E0
2.018456100E1,-1.358709455E0,1.173877048E1,1.760935307E0
2.019446900E1,-5.805938840E-1,1.148977375E1,9.840168953E-1
2.020458800E1,-1.556231081E-1,1.063743782E1,7.003039718E-1
2.021534900E1,-1.795651205E-2,9.503783226E0,1.244984865E-1
2.022466700E1,-1.843535304E-1,8.311470985E0,-1.616086215E-1
2.024045600E1,-5.722141862E-1,6.347028732E0,5.386953950E-1
2.025558300E1,-8.786720037E-1,5.637147903E0,9.516952038E-1
2.026448400E1,-8.427590132E-1,4.965574265E0,1.255758762E0
2.027447600E1,-4.345476031E-1,4.206612587E0,1.582567334E0
2.028446300E1,7.781155407E-2,3.384204149E0,1.675941229E0
2.029455100E1,4.501099288E-1,2.772485495E0,1.814804912E0
2.030496800E1,8.152256608E-1,2.312798738E0,1.754949808E0
2.031514100E1,1.100135684E0,2.126051188E0,1.559822440E0
2.032465100E1,1.262941360E0,2.497152328E0,1.326387763E0
2.033443600E1,1.254561663E0,2.875436306E0,1.685518026E0
2.034446000E1,1.102529883E0,4.505887508E0,3.216609955E0
2.035464000E1,5.758054852E-1,5.199008942E0,4.046200752E0
2.036461700E1,3.711012751E-2,6.003460884E0,4.812345505E0
2.037449100E1,-1.319205165E0,7.708132267E0,5.578489780E0
2.038451400E1,-4.431667328E0,1.130661774E1,5.310339451E0
2.039466200E1,-8.719682693E0,1.460702419E1,4.400542736E0
2.040453900E1,-1.092354488E1,1.480215168E1,4.772840977E0
2.041467600E1,-1.082418633E1,1.277905178E1,5.482721806E0
2.042452800E1,-8.665813446E0,1.090917969E1,5.602431774E0
2.043459000E1,-5.203797340E0,1.048899746E1,6.070498466E0
2.044504900E1,-1.903390408E0,1.258512115E1,4.905719280E0
2.045479500E1,2.070984542E-1,1.684440613E1,1.794454217E0
2.046455300E1,2.032677174E0,1.998320389E1,2.133233786E0
2.047488300E1,2.936488390E0,2.043810272E1,2.513911724E-1
2.048451200E1,3.139995575E0,1.707784081E1,-8.797493935E0
2.049445600E1,1.969230890E0,1.086488724E1,-1.240555573E1
2.050448100E1,-2.183511972E0,6.175843239E0,-2.142810524E-1
2.051480700E1,-3.375824451E0,6.162675381E0,9.260771751E0
2.052635600E1,1.177947283E0,7.832630634E0,7.649474621E0
2.053545200E1,4.250905037E0,7.005434036E0,4.813542366E0
2.054459300E1,3.078943491E0,6.111199856E0,-1.310825467E0
2.055814000E1,3.112462163E-1,7.240066051E0,-5.457582951E0
2.057481700E1,-2.497152328E0,1.112346077E1,-5.261258125E0
2.058454300E1,-3.300406933E0,1.117014790E1,-2.302024841E0
2.059443100E1,-4.991910458E0,9.846154213E0,7.793126702E-1
2.060464100E1,-3.393780947E0,9.974244118E0,1.543063045E0
2.062069200E1,-1.576581836E0,1.004247856E1,1.966836691E0
2.063536100E1,1.915361285E-1,1.040400314E1,1.155202270E0
2.064443600E1,4.525041282E-1,1.093192482E1,-5.231330991E-1
2.065608600E1,3.974374831E-1,1.134013653E1,-7.769184709E-1
2.066465200E1,2.753331959E-1,1.125753593E1,-4.333505034E-1
2.067470100E1,3.160346150E-1,1.072482681E1,-4.225766063E-1
2.068452600E1,6.835445762E-1,1.003529644E1,-9.636662006E-1
2.069450800E1,1.140837073E0,9.330204010E0,-8.128314614E-1
2.070514900E1,1.197100878E0,9.069235802E0,-6.189011335E-1
2.071475100E1,7.781155705E-1,9.319430351E0,-2.370259613E-1
2.072477400E1,1.831564307E-1,9.680954933E0,4.548983276E-2
2.073474400E1,-2.082955539E-1,1.003769016E1,1.041477770E-1
2.074460000E1,-4.668693244E-1,1.016697788E1,-1.879448295E-1
2.075535600E1,-7.589619160E-1,1.013226128E1,-4.381389022E-1
2.076845100E1,-9.660604000E-1,1.009754562E1,-5.279214978E-1
2.078453600E1,-1.143231273E0,9.822212219E0,-6.464344263E-2
2.079454000E1,-1.132457376E0,9.521739960E0,2.035071403E-1
2.080545200E1,-9.732429981E-1,9.285911560E0,6.488286853E-1
2.081454700E1,-5.219359994E-1,9.062053680E0,5.159504414E-1
2.082580000E1,-5.518634915E-1,9.364919662E0,-1.534683347E0
2.083459300E1,-5.518634915E-1,9.364919662E0,-1.534683347E0
2.084445200E1,-1.329979062E0,9.216479301E0,-1.482010841E0
2.085443900E1,-1.623268723E0,8.669404030E0,-7.302315533E-2
2.086482200E1,-2.100912094E0,8.404845238E0,9.852139950E-1
2.087534500E1,-2.537853718E0,8.620323181E0,8.678981066E-1
2.088451300E1,-2.568978310E0,9.144653320E0,5.398924947E-1
2.089451200E1,-2.157175779E0,9.781511307E0,9.588778019E-1
2.090548500E1,-1.385045648E0,1.023162079E1,1.443703651E0
2.091464100E1,-7.134721279E-1,1.046266174E1,1.582567334E0
2.092491700E1,-5.027823448E-1,1.057518864E1,1.394622445E0
2.093443100E1,-7.733271718E-1,1.078707600E1,9.229647517E-1
2.094449000E1,-1.349132657E0,1.121204662E1,8.176198602E-1
2.095454900E1,-1.553836942E0,1.192671585E1,1.018732786E0
2.096450600E1,-1.247379065E0,1.241513252E1,1.142034173E0
2.097465300E1,-9.588778019E-1,1.287362289E1,1.114500880E0
2.098450900E1,-9.624691010E-1,1.334528065E1,5.889736414E-1
2.099446500E1,-1.085770488E0,1.321599293E1,5.087678432E-1
2.100530200E1,-1.258152962E0,1.191235065E1,8.786720037E-1
2.101480200E1,-1.282094955E0,1.076073933E1,1.684320927E0
2.102461700E1,-9.205705523E-1,1.112346077E1,2.442085743E0
2.103455300E1,-4.572925270E-1,1.216853046E1,3.557783842E0
2.104444700E1,3.016694188E-1,1.326028633E1,4.540603638E0
2.105678600E1,1.924938202E0,1.493263626E1,3.574543238E0
2.106990100E1,3.094505787E0,1.613452530E1,8.283938169E-1
2.108478200E1,3.094505787E0,1.613452530E1,-4.321534038E-1
2.109453800E1,3.896563292E0,1.293347740E1,-1.000776291E0
2.110549300E1,2.458845139E0,1.221282291E1,-1.619677424E0
2.111454900E1,6.835445762E-1,1.198417664E1,-8.535329103E-1
2.112456400E1,-7.386112213E-1,1.192791271E1,5.530605912E-1
2.113514300E1,-1.234210968E0,1.170046329E1,1.673547029E0
2.114447900E1,-1.161187768E0,1.139520264E1,1.535880446E0
2.115602900E1,-9.888052940E-1,1.135210705E1,1.259350061E0
2.116452200E1,-1.021126986E0,1.120606136E1,1.327584863E0
2.117467100E1,-9.684545994E-1,1.108395672E1,4.656722248E-1
2.118454200E1,-6.631938815E-1,1.032619190E1,-1.125274822E-1
2.119449300E1,-2.382230759E-1,9.068038940E0,-4.548983276E-2
2.120455300E1,6.464344263E-2,7.880515099E0,1.771709323E-1
2.121497400E1,3.351882398E-1,6.822277546E0,4.848258495E-1
2.122451500E1,4.237737060E-1,5.974730492E0,7.900865674E-1
2.123533700E1,5.123591423E-1,5.179855347E0,8.942343593E-1
2.124445400E1,7.038952708E-1,4.363432407E0,1.118092179E0
2.125451600E1,8.619126081E-1,3.569754839E0,1.356315255E0
2.126489100E1,8.259995580E-1,3.074155092E0,1.685518026E0
2.127457200E1,6.404489279E-1,2.574964046E0,1.812410712E0
2.128454100E1,5.865794420E-1,2.063801765E0,2.029085875E0
