"Time (s)","Acceleration x (m/s^2)","Acceleration y (m/s^2)","Acceleration z (m/s^2)"
0.000000000E0,1.796025991E0,1.196746922E1,-2.763189971E-1
1.000885400E-2,2.149959952E-1,1.132068443E1,5.094050169E-1
1.251109400E-2,-4.850900173E-2,1.127277374E1,5.046139956E-1
1.501328100E-2,-3.024320006E-1,1.110508919E1,5.764790177E-1
1.751552100E-2,-5.707280040E-1,1.085116577E1,7.154179811E-1
2.001776000E-2,-8.677700162E-1,1.068827248E1,8.208199739E-1
2.252031200E-2,-1.088155985E0,1.047267723E1,9.358040094E-1
2.502286400E-2,-1.346869946E0,1.039122963E1,9.789230227E-1
2.752510400E-2,-1.524137020E0,1.030499172E1,9.837139845E-1
3.002734400E-2,-1.629539013E0,1.028103733E1,9.070580006E-1
3.252958300E-2,-1.653494000E0,1.016605282E1,9.932960272E-1
3.502187500E-2,-1.591210961E0,9.706116676E0,1.376575947E0
3.752411400E-2,-1.667866945E0,9.519268036E0,1.299919963E0
4.002635400E-2,-1.725358963E0,9.351582527E0,9.741320014E-1
4.252859400E-2,-1.744523048E0,9.231807709E0,7.106270194E-1
4.503078100E-2,-1.715777040E0,9.207853317E0,4.758679867E-1
4.753302100E-2,-1.663076043E0,9.207853317E0,3.896299899E-1
5.003531200E-2,-1.572046995E0,9.097660065E0,2.602730095E-1
5.253750000E-2,-1.466645002E0,9.035376549E0,6.384199858E-2
5.503973900E-2,-1.212721944E0,9.025794983E0,-1.182160005E-1
5.754197900E-2,-9.779629707E-1,8.982675552E0,-3.002740145E-1
6.004421900E-2,-7.144579887E-1,8.963512421E0,-4.823319912E-1
6.251817700E-2,-4.126250148E-1,9.011422157E0,-6.595990062E-1
6.502041600E-2,-1.874479949E-1,9.083287239E0,-8.560299873E-1
6.752265600E-2,4.731100053E-2,9.193479538E0,-1.057252049E0
7.002489600E-2,2.629059851E-1,9.246180534E0,-1.234519005E0
7.252708300E-2,5.120379925E-1,9.389910698E0,-1.383039951E0
7.502937500E-2,7.372149825E-1,9.485731125E0,-1.483651042E0
7.753161400E-2,9.336460233E-1,9.571969032E0,-1.536352038E0
8.003380200E-2,1.154031992E0,9.605505943E0,-1.598634958E0
8.253604100E-2,1.331298947E0,9.744444847E0,-1.560307026E0
8.503828100E-2,1.460656047E0,9.873802185E0,-1.416576982E0
8.754046900E-2,1.585222006E0,9.969621658E0,-1.363875985E0
9.004270800E-2,1.724161029E0,1.004627800E1,-1.253682971E0
9.257895800E-2,1.925382972E0,1.017084408E1,-1.239310026E0
9.508114600E-2,2.064321995E0,1.026187325E1,-1.258473992E0
9.758338500E-2,2.203260899E0,1.025708199E1,-1.268056035E0
1.000856250E-1,2.289499044E0,1.028582764E1,-1.287220001E0
1.025878640E-1,2.414064884E0,1.026666355E1,-1.315966010E0
1.050901040E-1,2.438019991E0,1.024270916E1,-1.268056035E0
1.075922910E-1,2.481138945E0,1.013730717E1,-1.244101048E0
1.100945310E-1,2.562586069E0,1.007502365E1,-1.248891950E0
1.125967190E-1,2.576958895E0,1.000315857E1,-1.344712019E0
1.150990100E-1,2.620078087E0,9.926503181E0,-1.359084964E0
1.176011980E-1,2.648823977E0,9.854638100E0,-1.335129976E0
1.201034370E-1,2.629659891E0,9.797145844E0,-1.397413015E0
1.225650520E-1,2.629659891E0,9.691743851E0,-1.498023987E0
1.250672390E-1,2.682360888E0,9.576760292E0,-1.560307026E0
1.275694270E-1,2.639241934E0,9.394701958E0,-1.502815008E0
1.300716660E-1,2.634450912E0,9.298881531E0,-1.531561017E0
1.325739060E-1,2.576958895E0,9.193479538E0,-1.593844056E0
1.350761980E-1,2.529048920E0,9.049750328E0,-1.613008022E0
1.375783850E-1,2.447602034E0,8.939557076E0,-1.550724983E0
1.400806250E-1,2.361363888E0,8.872483253E0,-1.569888949E0
1.425828640E-1,2.346991062E0,8.719170570E0,-1.636963010E0
1.450851040E-1,2.375736952E0,8.733544350E0,-1.651335955E0
1.475873440E-1,2.251171112E0,8.743125916E0,-1.517187953E0
1.500895310E-1,2.121814013E0,8.728753090E0,-1.392621994E0
1.526304160E-1,2.069113016E0,8.714380264E0,-1.320757031E0
1.551326560E-1,2.049948931E0,8.608978271E0,-1.229727983E0
1.576348960E-1,1.973292947E0,8.532321930E0,-1.186609030E0
1.601370830E-1,1.863100052E0,8.489203453E0,-1.129117012E0
1.626393230E-1,1.762488961E0,8.417338371E0,-1.133908033E0
1.651416140E-1,1.676251054E0,8.369427681E0,-1.177026987E0
1.676438020E-1,1.585222006E0,8.383801460E0,-1.162654042E0
1.701460410E-1,1.475028992E0,8.379010201E0,-1.062042952E0
1.726482290E-1,1.360044956E0,8.412547112E0,-9.949690104E-1
1.751504690E-1,1.273807049E0,8.460456848E0,-9.183130264E-1
1.776527600E-1,1.240270019E0,8.508366585E0,-8.991490006E-1
1.801549480E-1,1.240270019E0,8.618559837E0,-9.183130264E-1
1.826264580E-1,1.240270019E0,8.714380264E0,-9.853870273E-1
1.851286980E-1,1.201941967E0,8.819782257E0,-1.018923998E0
1.876308850E-1,1.230687976E0,8.886856079E0,-1.038087964E0
1.901331250E-1,1.307343960E0,8.963512421E0,-1.062042952E0
1.926353120E-1,1.326508045E0,9.054540634E0,-1.095579982E0
1.951375520E-1,1.403164029E0,9.174316406E0,-1.124325991E0
1.976398440E-1,1.374418020E0,9.255763054E0,-1.143489957E0
2.001420310E-1,1.398373008E0,9.298881531E0,-1.124325991E0
2.026442710E-1,1.407955050E0,9.294091225E0,-1.095579982E0
2.051465100E-1,1.364835978E0,9.327628136E0,-1.100371003E0
2.076486980E-1,1.427119017E0,9.346792221E0,-1.095579982E0
2.101509890E-1,1.479820013E0,9.375537872E0,-1.081207037E0
2.126517710E-1,1.527729988E0,9.394701958E0,-1.081207037E0
2.151540100E-1,1.532521009E0,9.351582527E0,-1.052461028E0
2.176562500E-1,1.580430984E0,9.365956306E0,-1.052461028E0
2.201584890E-1,1.647505045E0,9.356373787E0,-1.052461028E0
2.226606770E-1,1.628340960E0,9.313255310E0,-1.062042952E0
2.251629690E-1,1.666669011E0,9.303672791E0,-1.028506041E0
2.276651560E-1,1.724161029E0,9.270135880E0,-9.614319801E-1
2.301674480E-1,1.709787965E0,9.188689232E0,-8.847759962E-1
2.326696350E-1,1.704996943E0,9.174316406E0,-7.554190159E-1
2.351718750E-1,1.724161029E0,9.107241631E0,-7.027180195E-1
2.376740620E-1,1.738533974E0,9.121615410E0,-6.835539937E-1
2.401763020E-1,1.772071004E0,9.059331894E0,-5.973160267E-1
2.426814060E-1,1.805608034E0,8.997049332E0,-4.535860121E-1
2.451836460E-1,1.939756036E0,8.992258072E0,-4.248400033E-1
2.476858330E-1,2.006829977E0,8.973093987E0,-4.056760073E-1
2.501880730E-1,2.064321995E0,9.025794983E0,-3.433929980E-1
2.526902600E-1,2.102649927E0,9.011422157E0,-2.715280056E-1
2.551925000E-1,2.131396055E0,9.102451324E0,-2.523640096E-1
2.576947910E-1,2.155350924E0,9.044959068E0,-2.236180007E-1
2.601969790E-1,2.174515009E0,9.097660065E0,-1.709170043E-1
2.626992190E-1,2.241589069E0,9.121615410E0,-1.277980059E-1
2.652014580E-1,2.246380091E0,9.135988235E0,-7.509700209E-2
2.677036980E-1,2.217633963E0,9.159942627E0,-8.023000322E-3
2.702058850E-1,2.179306030E0,9.092868805E0,5.426000059E-2
2.727412500E-1,2.203260899E0,9.159942627E0,1.644529998E-1
2.752434890E-1,2.169723988E0,9.126405716E0,2.506909966E-1
2.777457290E-1,2.107440948E0,8.997049332E0,3.608840108E-1
2.802479690E-1,2.097858906E0,8.896437645E0,4.519129992E-1
2.827502080E-1,2.107440948E0,8.843736649E0,5.237780213E-1
2.852523960E-1,2.093067884E0,8.733544350E0,5.812699795E-1
2.877546350E-1,2.064321995E0,8.642515182E0,7.250000238E-1
2.902568750E-1,2.069113016E0,8.527530670E0,7.010449767E-1
2.927591140E-1,2.140978098E0,8.422128677E0,7.106270194E-1
2.952613020E-1,2.232007027E0,8.273608208E0,7.345820069E-1
2.977635940E-1,2.284708023E0,8.149042130E0,7.585369945E-1
3.002657810E-1,2.375736952E0,8.134669304E0,7.585369945E-1
3.027704160E-1,2.553004026E0,8.120295525E0,7.537459731E-1
3.052726560E-1,2.658406019E0,8.091549873E0,7.920740247E-1
3.077748960E-1,2.816509008E0,8.038848877E0,8.112379909E-1
3.102770830E-1,2.950656891E0,8.014893532E0,8.160290122E-1
3.127793230E-1,3.118341923E0,7.976565838E0,7.920740247E-1
3.152815620E-1,3.233325958E0,7.981357098E0,7.824919820E-1
3.177838020E-1,3.319564104E0,7.938238144E0,7.872830033E-1
3.202860410E-1,3.444129944E0,7.947820187E0,7.633280158E-1
3.227882290E-1,3.530368090E0,8.034057617E0,7.489550114E-1
3.252904690E-1,3.616605997E0,8.101132393E0,6.866719723E-1
3.277927600E-1,3.669306993E0,8.177787781E0,6.387619972E-1
3.302949480E-1,3.750754118E0,8.249652863E0,6.148070097E-1
3.327932810E-1,3.784291029E0,8.355054855E0,5.956429839E-1
3.352955210E-1,3.779500008E0,8.498785019E0,4.950320125E-1
3.377977080E-1,3.784291029E0,8.685633659E0,3.896299899E-1
3.403000000E-1,3.731590033E0,8.848527908E0,3.081830144E-1
3.428021870E-1,3.736381054E0,9.025794983E0,2.267359942E-1
3.453044270E-1,3.731590033E0,9.193479538E0,2.027810067E-1
3.478066660E-1,3.674098015E0,9.389910698E0,1.740349978E-1
3.503089060E-1,3.626188040E0,9.548013687E0,1.644529998E-1
3.528110940E-1,3.654933929E0,9.730072021E0,1.884080023E-1
3.553133330E-1,3.554322958E0,9.921711922E0,1.979900002E-1
3.578156250E-1,3.472876072E0,1.007981491E1,2.123630047E-1
3.603178120E-1,3.453711987E0,1.026187325E1,2.890189886E-1
3.627851560E-1,3.391428947E0,1.041997623E1,2.938100100E-1
3.652873960E-1,3.319564104E0,1.058286953E1,2.698549926E-1
3.677896350E-1,3.209371090E0,1.076971912E1,3.033919930E-1
3.702918750E-1,3.017730951E0,1.088470268E1,2.459000051E-1
3.727940620E-1,2.869210005E0,1.098052311E1,2.411089987E-1
3.752963020E-1,2.648823977E0,1.108592510E1,2.506909966E-1
3.777985940E-1,2.471556902E0,1.106676102E1,2.602730095E-1
3.803007810E-1,2.361363888E0,1.100447845E1,2.842279971E-1
3.828030210E-1,2.217633963E0,1.092782211E1,3.177649975E-1
3.853052600E-1,2.069113016E0,1.088470268E1,2.986010015E-1
3.878075000E-1,1.949337959E0,1.075055504E1,2.650640011E-1
3.903096870E-1,1.867890954E0,1.058286953E1,2.794370055E-1
3.928454160E-1,1.733742952E0,1.046309471E1,2.267359942E-1
3.953476040E-1,1.685832977E0,1.028582764E1,1.788260043E-1
3.978497910E-1,1.609176993E0,1.016605282E1,1.069609970E-1
4.003520310E-1,1.566058040E0,9.940876007E0,1.069609970E-1
4.028543230E-1,1.508566022E0,9.773191452E0,1.404979974E-1
4.053565100E-1,1.455865026E0,9.667789459E0,1.692440063E-1
4.078587500E-1,1.451074004E0,9.567177773E0,1.644529998E-1
4.103609890E-1,1.446282983E0,9.385120392E0,2.027810067E-1
4.128631770E-1,1.441491961E0,9.298881531E0,3.129740059E-1
4.153654690E-1,1.455865026E0,9.274927139E0,4.423309863E-1
4.178676560E-1,1.470237970E0,9.217434883E0,5.046139956E-1
4.203698960E-1,1.494192958E0,9.150361061E0,6.004340053E-1
4.228426040E-1,1.518147945E0,9.112032890E0,6.770899892E-1
4.253447910E-1,1.537312031E0,8.997049332E0,7.154179811E-1
4.278470310E-1,1.590013027E0,8.944348335E0,7.441639900E-1
4.303492710E-1,1.618759036E0,8.834155083E0,7.920740247E-1
4.328514580E-1,1.685832977E0,8.747917175E0,7.633280158E-1
4.353536980E-1,1.772071004E0,8.632932663E0,6.818810105E-1
4.378559370E-1,1.786443949E0,8.508366585E0,6.531350017E-1
4.403581770E-1,1.819980979E0,8.489203453E0,6.291800141E-1
4.428604160E-1,1.906219006E0,8.388591766E0,5.668969750E-1
4.453626560E-1,2.011620998E0,8.326309204E0,4.614950120E-1
4.478648440E-1,2.045157909E0,8.326309204E0,3.225559890E-1
4.503670830E-1,2.093067884E0,8.355054855E0,1.452890038E-1
4.529016140E-1,2.160141945E0,8.359846115E0,-8.467900008E-2
4.554038540E-1,2.212842941E0,8.369427681E0,-3.194380105E-1
4.579060940E-1,2.327826977E0,8.355054855E0,-5.541970134E-1
4.604082810E-1,2.519467115E0,8.335890770E0,-7.745829821E-1
4.629105210E-1,2.725480080E0,8.264025688E0,-1.047670007E0
4.654127600E-1,2.984194040E0,8.307145119E0,-1.397413015E0
4.679150000E-1,3.194998026E0,8.364637375E0,-1.742365003E0
4.704172390E-1,3.362683058E0,8.503576279E0,-2.149600029E0
4.729194270E-1,3.424966097E0,8.752708435E0,-2.532880068E0
4.754216660E-1,3.439338923E0,9.112032890E0,-2.978442907E0
4.779239580E-1,3.372265100E0,9.552804947E0,-3.309021950E0
4.804261460E-1,3.180624962E0,9.897756577E0,-3.495871067E0
4.828957290E-1,3.065640926E0,1.024270916E1,-3.596482038E0
4.853979160E-1,2.931493044E0,1.054454231E1,-3.663556099E0
4.879001560E-1,2.811717987E0,1.087032986E1,-3.673137903E0
4.904023960E-1,2.715898037E0,1.123923683E1,-3.721048117E0
4.929045830E-1,2.744643927E0,1.155065155E1,-3.668346882E0
4.954068230E-1,2.797344923E0,1.179978371E1,-3.673137903E0
4.979091140E-1,2.787763119E0,1.207287121E1,-3.658765078E0
5.004113020E-1,2.907537937E0,1.233637619E1,-3.653974056E0
5.029135410E-1,3.132714987E0,1.271965599E1,-3.668346882E0
5.054157810E-1,3.242908001E0,1.310772705E1,-3.586899996E0
5.079179690E-1,3.338727951E0,1.361557293E1,-3.428797007E0
5.104202080E-1,3.386637926E0,1.419049263E1,-3.280276060E0
5.129193750E-1,3.338727951E0,1.483248711E1,-3.136545897E0
5.154216140E-1,3.305191040E0,1.561341953E1,-2.901787043E0
5.179238540E-1,3.266863108E0,1.642789078E1,-2.614326954E0
5.204260940E-1,3.137506008E0,1.728068733E1,-2.341239929E0
5.229282810E-1,3.099178076E0,1.822930527E1,-2.173554897E0
5.254305210E-1,2.984194040E0,1.917313385E1,-2.015451908E0
5.279328120E-1,2.826091051E0,1.999718475E1,-1.991497040E0
5.304350000E-1,2.701524973E0,2.070146179E1,-2.087316990E0
5.329372390E-1,2.538630962E0,2.120451736E1,-2.211883068E0
5.354394790E-1,2.284708023E0,2.162612534E1,-2.413105011E0
5.379416660E-1,2.040366888E0,2.179380989E1,-2.590372086E0
5.404439060E-1,1.815189958E0,2.176027298E1,-2.710146904E0
5.429487500E-1,1.647505045E0,2.150155830E1,-2.892205000E0
5.454509370E-1,1.475028992E0,2.107995033E1,-3.112591028E0
5.479531250E-1,1.489402056E0,2.047628593E1,-3.189246893E0
5.504553640E-1,1.508566022E0,1.978638077E1,-3.237157106E0
5.529575520E-1,1.508566022E0,1.886171722E1,-3.213202000E0
5.554597910E-1,1.494192958E0,1.798975563E1,-3.155709982E0
5.579619790E-1,1.498983979E0,1.711779404E1,-3.117382050E0
5.604641660E-1,1.484611034E0,1.637998009E1,-2.983233929E0
5.629664060E-1,1.383999944E0,1.577631378E1,-2.930532932E0
5.654685940E-1,1.326508045E0,1.524451256E1,-2.805967093E0
5.679707810E-1,1.221106052E0,1.480374146E1,-2.647864103E0
5.704730210E-1,1.039047956E0,1.450669861E1,-2.575999022E0
5.730083330E-1,9.001089931E-1,1.437734222E1,-2.532880068E0
5.755105210E-1,7.228419781E-1,1.419049263E1,-2.437060118E0
5.780127080E-1,6.030669808E-1,1.407550907E1,-2.269375086E0
5.805149480E-1,4.832920134E-1,1.392698765E1,-2.135226965E0
5.830171350E-1,3.922629952E-1,1.380242157E1,-1.929214001E0
5.855193230E-1,3.299799860E-1,1.368743801E1,-1.636963010E0
5.880215620E-1,2.629059851E-1,1.354370785E1,-1.301592946E0
5.905237500E-1,1.766680032E-1,1.336165047E1,-9.662230015E-1
5.930259370E-1,1.287579983E-1,1.319875622E1,-6.308529973E-1
5.955281770E-1,6.647499651E-2,1.303107071E1,-2.763189971E-1
5.980303640E-1,1.856499910E-2,1.286817741E1,7.342399657E-2
6.005325520E-1,-1.497200038E-2,1.270528316E1,3.704659939E-1
6.030356770E-1,-2.455399930E-2,1.260467243E1,5.621060133E-1
6.055378120E-1,-4.371799901E-2,1.251843357E1,7.872830033E-1
6.080400520E-1,-1.976300031E-2,1.245615101E1,9.980869889E-1
6.105422910E-1,-1.497200038E-2,1.241782284E1,1.103489041E0
6.130444790E-1,8.983000182E-3,1.232200336E1,1.194517970E0
6.155466660E-1,6.647499651E-2,1.225013828E1,1.261592031E0
6.180489060E-1,1.239669994E-1,1.214473629E1,1.319084048E0
6.205510940E-1,1.766680032E-1,1.195309639E1,1.343039036E0
6.230532810E-1,1.862500012E-1,1.182853031E1,1.386157990E0
6.255555210E-1,2.006230056E-1,1.168959141E1,1.419695020E0
6.280577080E-1,2.149959952E-1,1.146441364E1,1.333456993E0
6.305598960E-1,1.527130008E-1,1.129193783E1,1.271173954E0
6.330628640E-1,1.335490048E-1,1.104280567E1,1.204100013E0
6.355650520E-1,1.287579983E-1,1.067389870E1,1.117861986E0
6.380672390E-1,1.575040072E-1,1.035769272E1,1.113070965E0
6.405694790E-1,9.522099793E-2,9.931294441E0,1.160981059E0
6.430716660E-1,1.191760004E-1,9.615088463E0,1.151399016E0
6.455738540E-1,1.766680032E-1,9.298881531E0,1.103489041E0
6.480760940E-1,1.527130008E-1,8.872483253E0,1.093906999E0
6.505782810E-1,1.377400011E-2,8.522740364E0,1.117861986E0
6.530804690E-1,-1.634930074E-1,8.335890770E0,1.036414981E0
6.555827080E-1,-1.443289965E-1,8.225698471E0,8.208199739E-1
6.580848960E-1,-1.497200038E-2,7.880745888E0,5.812699795E-1
6.605870830E-1,-1.443289965E-1,7.602868080E0,4.471220076E-1
6.630561980E-1,-3.695060015E-1,7.248333931E0,4.902409911E-1
6.655583850E-1,-5.371909738E-1,7.186050892E0,2.219450027E-1
6.680606250E-1,-6.952940226E-1,7.286662102E0,6.349999923E-3
6.705628120E-1,-7.288309932E-1,7.190842152E0,-2.188269943E-1
6.730650000E-1,-7.384129763E-1,7.042321205E0,-5.350329876E-1
6.755672390E-1,-8.246510029E-1,7.037529945E0,-8.368660212E-1
6.780694270E-1,-8.054869771E-1,7.157304764E0,-1.057252049E0
6.805716140E-1,-7.479950190E-1,7.368109226E0,-1.248891950E0
6.830738540E-1,-6.186379790E-1,7.583703995E0,-1.430950046E0
6.855760410E-1,-4.557439983E-1,7.799298763E0,-1.536352038E0
6.880782290E-1,-2.688950002E-1,8.067594528E0,-1.531561017E0
6.905804690E-1,-1.155830026E-1,8.331100464E0,-1.378249049E0
6.931181770E-1,-2.934500016E-2,8.580231667E0,-1.148280978E0
6.956204160E-1,2.149959952E-1,8.872483253E0,-9.614319801E-1
6.981226040E-1,5.791119933E-1,9.016213417E0,-9.231039882E-1
7.006248440E-1,9.144819975E-1,9.169525146E0,-7.506279945E-1
7.031270310E-1,1.245061040E0,9.318045616E0,-5.398240089E-1
7.056292190E-1,1.489402056E0,9.476148605E0,-2.906920016E-1
7.081314580E-1,1.757698059E0,9.600714684E0,-1.086340025E-1
7.106336460E-1,2.107440948E0,9.701326370E0,2.551399916E-2
7.131358330E-1,2.466766119E0,9.749236107E0,9.258800000E-2
7.156380730E-1,2.797344923E0,9.730072021E0,2.602730095E-1
7.181402600E-1,3.238116980E0,9.701326370E0,4.806590080E-1
7.206424480E-1,3.549531937E0,9.763608932E0,7.393730283E-1
7.231396350E-1,3.731590033E0,9.787564278E0,1.045997024E0
7.256418230E-1,3.913647890E0,9.777981758E0,1.357411981E0
7.281440100E-1,3.932811975E0,9.768400192E0,1.635290027E0
7.306462500E-1,3.932811975E0,9.754027367E0,1.870049000E0
7.331484370E-1,3.975930929E0,9.672579765E0,2.133553982E0
7.356506250E-1,3.865737915E0,9.634251595E0,2.238955975E0
7.381528640E-1,3.760335922E0,9.538432121E0,2.267702103E0
7.406550520E-1,3.726799011E0,9.437821388E0,2.377895117E0
7.431572390E-1,3.635770082E0,9.337209702E0,2.440177917E0
7.456594790E-1,3.525577068E0,9.169525146E0,2.449759960E0
7.481616660E-1,3.362683058E0,9.078495979E0,2.449759960E0
7.506638540E-1,3.204580069E0,8.910811424E0,2.483297110E0
7.531369270E-1,3.127923965E0,8.767081261E0,2.416223049E0
7.556391140E-1,3.046477079E0,8.580231667E0,2.344357967E0
7.581413020E-1,2.941075087E0,8.359846115E0,2.162300110E0
7.606435410E-1,2.830882072E0,8.182579041E0,1.985033035E0
7.631457290E-1,2.634450912E0,8.058012962E0,1.841302991E0
7.656479690E-1,2.394901037E0,7.952610970E0,1.731109977E0
7.681501560E-1,2.160141945E0,7.784925938E0,1.606544018E0
7.706523440E-1,1.891845942E0,7.665151119E0,1.472396016E0
7.731545830E-1,1.604385972E0,7.569331169E0,1.395740032E0
7.756567710E-1,1.393581986E0,7.526212215E0,1.338248014E0
7.781589580E-1,1.163614035E0,7.459137917E0,1.328665972E0
7.806611460E-1,9.863470197E-1,7.463929176E0,1.395740032E0
7.831584370E-1,8.282439709E-1,7.511838913E0,1.448441029E0
7.856606250E-1,6.653500199E-1,7.497466087E0,1.510723948E0
7.881628640E-1,5.216199756E-1,7.487884045E0,1.568215966E0
7.906650520E-1,4.018450081E-1,7.521420956E0,1.702363968E0
7.931672390E-1,2.964429855E-1,7.564539909E0,1.831720948E0
7.956694790E-1,1.766680032E-1,7.550167084E0,1.937122941E0
7.981716660E-1,3.293799981E-2,7.607658863E0,2.076061964E0
8.006738540E-1,-9.641899914E-2,7.650777817E0,2.243746996E0
8.031760940E-1,-2.018209994E-1,7.684315205E0,2.406641006E0
8.056782810E-1,-2.401490062E-1,7.679523945E0,2.531207085E0
8.081804690E-1,-2.832680047E-1,7.732224941E0,2.641400099E0
8.106827080E-1,-3.311780095E-1,7.799298763E0,2.679728031E0
8.132261460E-1,-3.886699975E-1,7.890327930E0,2.732429028E0
8.157283330E-1,-4.509530067E-1,7.976565838E0,2.694101095E0
8.182305210E-1,-4.940719903E-1,8.048431396E0,2.636609077E0
8.207327600E-1,-4.844900072E-1,8.077177048E0,2.603071928E0
8.232349480E-1,-4.461619854E-1,8.072385788E0,2.521625042E0
8.257371350E-1,-3.838790059E-1,8.062804222E0,2.387476921E0
8.282393750E-1,-3.503420055E-1,8.110713959E0,2.253329039E0
8.307415620E-1,-3.072229922E-1,8.077177048E0,2.114389896E0
8.332437500E-1,-2.353579998E-1,8.048431396E0,2.037734032E0
8.357459890E-1,-1.970299929E-1,8.019684792E0,1.956287026E0
8.382481770E-1,-1.826570034E-1,7.933446884E0,1.917958975E0
8.407503640E-1,-1.539109945E-1,7.784925938E0,1.831720948E0
8.432502080E-1,-7.725500315E-2,7.602868080E0,1.874840021E0
8.457523960E-1,-1.976300031E-2,7.463929176E0,1.879631042E0
8.482545830E-1,4.252000153E-2,7.296244144E0,1.802975059E0
8.507567710E-1,1.622949988E-1,7.114185810E0,1.802975059E0
8.532590100E-1,1.814589947E-1,6.903381824E0,1.841302991E0
8.557611980E-1,2.676970065E-1,6.692577839E0,1.793393016E0
8.582634370E-1,2.868610024E-1,6.515310764E0,1.802975059E0
8.607656250E-1,3.443529904E-1,6.285343170E0,1.922749996E0
8.632678120E-1,3.778899908E-1,6.108076096E0,1.922749996E0
8.657700520E-1,4.210090041E-1,5.892480850E0,1.951496005E0
8.682722390E-1,4.305909872E-1,5.696050167E0,2.008987904E0
8.707744270E-1,4.545460045E-1,5.494828224E0,2.104808092E0
8.732769270E-1,4.737100005E-1,5.298397064E0,2.186254978E0
8.757791140E-1,4.880830050E-1,5.097175121E0,2.334775925E0
8.782813020E-1,4.737100005E-1,4.967817783E0,2.392267942E0
8.807835410E-1,4.593369961E-1,4.867207050E0,2.478506088E0
8.832857290E-1,4.928739965E-1,4.790551186E0,2.526416063E0
8.857879160E-1,5.503659844E-1,4.776177883E0,2.689310074E0
8.882901560E-1,6.078580022E-1,4.709104061E0,2.833039999E0
8.907923440E-1,6.270220280E-1,4.665985107E0,2.976769924E0
8.932945310E-1,6.701409817E-1,4.642029762E0,3.144454956E0
8.957967710E-1,7.132599950E-1,4.570165157E0,3.269021034E0
8.982989580E-1,7.276329994E-1,4.551001072E0,3.374423027E0
9.008011460E-1,7.372149825E-1,4.507882118E0,3.465451956E0
9.032674480E-1,7.611700296E-1,4.479135990E0,3.489407063E0
9.057696350E-1,7.132599950E-1,4.488718033E0,3.522943974E0
9.082718750E-1,7.994980216E-1,4.455181122E0,3.580435991E0
9.107740620E-1,8.138710260E-1,4.488718033E0,3.542108059E0
9.132762500E-1,7.947070003E-1,4.527046204E0,3.594809055E0
9.157784890E-1,8.330349922E-1,4.546209812E0,3.657092094E0
9.182806770E-1,7.851250172E-1,4.646821022E0,3.633136988E0
9.207828640E-1,7.994980216E-1,4.742640972E0,3.685837984E0
9.232851040E-1,7.611700296E-1,4.824088097E0,3.690629005E0
9.257872910E-1,7.707520127E-1,4.881579876E0,3.700211048E0
9.282894790E-1,7.803339958E-1,4.948654175E0,3.719374895E0
9.307917190E-1,7.947070003E-1,4.943862915E0,3.791239977E0
9.332929690E-1,8.521990180E-1,4.977399826E0,3.796030998E0
9.357951560E-1,9.001089931E-1,4.991773129E0,3.867896080E0
9.382973440E-1,1.010301948E0,5.001355171E0,3.968507051E0
9.407995830E-1,1.086958051E0,4.953444958E0,4.069118023E0
9.433017710E-1,1.130077004E0,4.924698830E0,4.150565147E0
9.458040100E-1,1.230687976E0,4.953444958E0,4.193684101E0
9.483061980E-1,1.383999944E0,4.871997833E0,4.313458920E0
9.508083850E-1,1.465446949E0,4.867207050E0,4.390114784E0
9.533106250E-1,1.575639963E0,4.852834225E0,4.495516777E0
9.558128120E-1,1.704996943E0,4.838460922E0,4.591337204E0
9.583150000E-1,1.819980979E0,4.848042965E0,4.687157154E0
9.608172390E-1,1.958920002E0,4.804924011E0,4.672783852E0
9.633584370E-1,2.088277102E0,4.843252182E0,4.629664898E0
9.658606250E-1,2.241589069E0,4.881579876E0,4.701529980E0
9.683628120E-1,2.327826977E0,4.900743961E0,4.806931973E0
9.708650520E-1,2.390110016E0,4.991773129E0,4.893169880E0
9.733672390E-1,2.466766119E0,5.049264908E0,4.998571873E0
9.758694270E-1,2.495512009E0,5.197785854E0,5.065646172E0
9.783716140E-1,2.519467115E0,5.355888844E0,5.041690826E0
9.808738540E-1,2.610496044E0,5.600230217E0,5.036900043E0
9.833760410E-1,2.644032955E0,5.811034203E0,5.084809780E0
9.858782810E-1,2.696733952E0,6.045793056E0,5.127929211E0
9.883804690E-1,2.687151909E0,6.323670864E0,5.185420990E0
9.908826560E-1,2.677570105E0,6.553638935E0,5.319569111E0
9.933855210E-1,2.696733952E0,6.812353134E0,5.386642933E0
9.958877600E-1,2.644032955E0,7.104603767E0,5.549537182E0
9.983899480E-1,2.591331959E0,7.382482052E0,5.698058128E0
1.000892187E0,2.605705023E0,7.645987034E0,5.798668861E0
1.003394375E0,2.648823977E0,7.986147881E0,5.889698029E0
1.005896562E0,2.802135944E0,8.302353859E0,5.875325203E0
1.008398802E0,2.888374090E0,8.532321930E0,5.961563110E0
1.010900989E0,3.046477079E0,8.781454086E0,5.932816982E0
1.013403177E0,3.257281065E0,9.006630898E0,5.822624207E0
1.015905416E0,3.492039919E0,9.231807709E0,5.669312000E0
1.018407604E0,3.698052883E0,9.380329132E0,5.482462883E0
1.020909791E0,3.908857107E0,9.639042854E0,5.276450157E0
1.023374114E0,4.114870071E0,9.821101189E0,5.089601040E0
1.025876302E0,4.181943893E0,1.003190517E1,4.926706791E0
1.028378489E0,4.172361851E0,1.024750042E1,4.806931973E0
1.030880729E0,4.143616199E0,1.044393063E1,4.715902805E0
1.033382916E0,4.009468079E0,1.060203362E1,4.706320763E0
1.035885156E0,3.875319958E0,1.083200169E1,4.725484848E0
1.038387344E0,3.726799011E0,1.102843285E1,4.840468884E0
1.040889531E0,3.539949894E0,1.123923683E1,5.017735958E0
1.043391771E0,3.319564104E0,1.143566799E1,5.329151154E0
1.045893958E0,3.094387054E0,1.170396423E1,5.645357132E0
1.048396146E0,2.859627962E0,1.190997696E1,5.856161118E0
1.050898385E0,2.744643927E0,1.213036346E1,6.019054890E0
1.053436979E0,2.720689058E0,1.235074902E1,6.071755886E0
1.055939219E0,2.735061884E0,1.259029865E1,5.999890804E0
1.058441510E0,2.859627962E0,1.266695499E1,5.985517979E0
1.060943698E0,3.080013990E0,1.263341808E1,5.908862114E0
1.063445937E0,3.348309994E0,1.259508991E1,5.923234940E0
1.065948177E0,3.578278065E0,1.258550835E1,5.870533943E0
1.068450416E0,3.813036919E0,1.242740536E1,5.889698029E0
1.070952656E0,4.038214207E0,1.231242085E1,5.932816982E0
1.073454896E0,4.172361851E0,1.223576546E1,5.961563110E0
1.075957187E0,4.201107979E0,1.217827320E1,5.870533943E0
1.078459375E0,4.191525936E0,1.214473629E1,5.865743160E0
1.080961614E0,4.028632164E0,1.205849838E1,5.899280071E0
1.083424844E0,3.817827940E0,1.193872261E1,5.947189808E0
1.085927083E0,3.611814976E0,1.179020214E1,6.043010235E0
1.088429271E0,3.386637926E0,1.158897972E1,6.090919971E0
1.090931562E0,3.147088051E0,1.146920490E1,6.110084057E0
1.093433802E0,3.032104015E0,1.127756500E1,6.196321964E0
1.095936041E0,2.850045919E0,1.114820766E1,6.205904007E0
1.098438281E0,2.658406019E0,1.099489594E1,6.306515217E0
1.100940469E0,2.399692059E0,1.086074829E1,6.426290035E0
1.103442708E0,2.088277102E0,1.076492786E1,6.555646896E0
1.105944948E0,1.863100052E0,1.076492786E1,6.699377060E0
1.108447187E0,1.580430984E0,1.080325603E1,6.780824184E0
1.110949479E0,1.312134981E0,1.104759693E1,6.680212975E0
1.113441927E0,1.048629999E0,1.139733982E1,6.598765850E0
1.115944166E0,7.611700296E-1,1.179499340E1,6.340052128E0
1.118446406E0,5.359929800E-1,1.238907719E1,6.033428192E0
1.120948646E0,3.730989993E-1,1.304065323E1,5.698058128E0
1.123450885E0,2.533240020E-1,1.378804874E1,5.309987068E0
1.125953125E0,-4.850900173E-2,1.443483353E1,4.941080093E0
1.128455312E0,-3.742969930E-1,1.499059010E1,4.519472122E0
1.130957552E0,-7.144579887E-1,1.551280880E1,4.174520016E0
1.133459791E0,-1.198348999E0,1.592004395E1,3.752912045E0
1.135962031E0,-1.648702979E0,1.622666740E1,3.331304073E0
1.138464271E0,-2.123012066E0,1.641351700E1,2.890532017E0
1.140966510E0,-2.582947969E0,1.657641029E1,2.488087893E0
1.143482344E0,-2.937482119E0,1.666264915E1,1.903586030E0
1.145984583E0,-3.177031994E0,1.662911224E1,1.410112977E0
1.148486823E0,-3.368671894E0,1.659557533E1,8.447750211E-1
1.150989114E0,-3.493237972E0,1.646621895E1,3.369289935E-1
1.153491354E0,-3.378253937E0,1.621708679E1,-1.565439999E-1
1.155993594E0,-3.177031994E0,1.589608860E1,-4.823319912E-1
1.158495833E0,-2.903944969E0,1.544094372E1,-7.075089812E-1
1.160998073E0,-2.582947969E0,1.497142601E1,-8.512390256E-1
1.163500312E0,-2.233205080E0,1.446837139E1,-8.560299873E-1
1.166002552E0,-1.931372046E0,1.390782356E1,-8.799849749E-1
1.168504791E0,-1.624747992E0,1.340476894E1,-9.231039882E-1
1.171007031E0,-1.361243010E0,1.299274254E1,-9.805960059E-1
1.173513073E0,-1.045037031E0,1.257592583E1,-9.614319801E-1
1.176015312E0,-7.192490101E-1,1.215910912E1,-8.895670176E-1
1.178517500E0,-4.892809987E-1,1.176145554E1,-7.937470078E-1
1.181019739E0,-3.120140135E-1,1.141171265E1,-6.260619760E-1
1.183521979E0,-2.257760018E-1,1.104759693E1,-4.152579904E-1
1.186024219E0,-1.060009971E-1,1.074576378E1,-2.427819967E-1
1.188526510E0,-3.892700002E-2,1.040560341E1,2.551399916E-2
1.191028750E0,1.377400011E-2,1.013251591E1,3.033919930E-1
1.193530989E0,1.670860052E-1,9.916920662E0,5.573149920E-1
1.196033229E0,2.772789896E-1,9.653415680E0,8.495659828E-1
1.198535469E0,3.347710073E-1,9.370746613E0,1.055578947E0
1.201037708E0,4.737100005E-1,9.164733887E0,1.275964975E0
1.203521719E0,6.222310066E-1,8.891647339E0,1.443650007E0
1.206023958E0,7.515879869E-1,8.647306442E0,1.520305991E0
1.208526198E0,8.905270100E-1,8.350263596E0,1.525097013E0
1.211028437E0,1.048629999E0,8.034057617E0,1.525097013E0
1.213530677E0,1.254642963E0,7.713060856E0,1.467604995E0
1.216032916E0,1.316926003E0,7.406436920E0,1.347830057E0
1.218535156E0,1.369626999E0,7.109395027E0,1.180145025E0
1.221037396E0,1.451074004E0,6.759652138E0,9.837139845E-1
1.223539635E0,1.479820013E0,6.481773853E0,6.866719723E-1
1.226041875E0,1.431910038E0,6.232642174E0,3.800480068E-1
1.228544114E0,1.379209042E0,6.036211014E0,2.072300017E-2
1.231046354E0,1.383999944E0,5.868525982E0,-3.098559976E-1
1.233547500E0,1.331298947E0,5.767914772E0,-5.877339840E-1
1.236049739E0,1.326508045E0,5.791870117E0,-8.751940131E-1
1.238551979E0,1.307343960E0,5.787078857E0,-9.997599721E-1
1.241054219E0,1.297762036E0,5.767914772E0,-1.105162024E0
1.243556458E0,1.230687976E0,5.777496815E0,-1.215355039E0
1.246058698E0,1.130077004E0,5.844571114E0,-1.296802044E0
1.248560937E0,1.115704060E0,5.949973106E0,-1.430950046E0
1.251063177E0,1.106122017E0,6.079329967E0,-1.555516005E0
1.253565416E0,1.134868026E0,6.132030964E0,-1.531561017E0
1.256067656E0,1.187569022E0,6.227850914E0,-1.512397051E0
1.258569896E0,1.254642963E0,6.299715996E0,-1.454905033E0
1.261072135E0,1.288179994E0,6.371581078E0,-1.440531969E0
1.263573437E0,1.350463033E0,6.515310764E0,-1.521978974E0
1.266075677E0,1.336089969E0,6.754860878E0,-1.660917997E0
1.268577916E0,1.331298947E0,7.032739162E0,-1.833394051E0
1.271080156E0,1.398373008E0,7.291452885E0,-2.010660887E0
1.273582396E0,1.498983979E0,7.583703995E0,-2.149600029E0
1.276084635E0,1.594804049E0,7.914282799E0,-2.226255894E0
1.278586875E0,1.757698059E0,8.235280037E0,-2.341239929E0
1.281089114E0,1.863100052E0,8.637723923E0,-2.504133940E0
1.283591354E0,1.896636963E0,9.112032890E0,-2.619117975E0
1.286093594E0,1.954128981E0,9.595924377E0,-2.743684053E0
1.288595833E0,2.136187077E0,9.983995438E0,-2.849086046E0
1.291098021E0,2.275125980E0,1.031936455E1,-2.873040915E0
1.293650625E0,2.476347923E0,1.069306278E1,-2.901787043E0
1.296152864E0,2.615287066E0,1.091823959E1,-2.815548897E0
1.298655052E0,2.749434948E0,1.115779018E1,-2.676609993E0
1.301157291E0,2.869210005E0,1.127277374E1,-2.537671089E0
1.303659531E0,2.974611998E0,1.132547474E1,-2.413105011E0
1.306161771E0,3.022521973E0,1.132068443E1,-2.231046915E0
1.308664010E0,3.075222969E0,1.131589317E1,-2.010660887E0
1.311166250E0,3.041686058E0,1.123444557E1,-1.790274978E0
1.313668489E0,2.998567104E0,1.114820766E1,-1.574679971E0
1.316170781E0,2.960238934E0,1.101406002E1,-1.402204037E0
1.318673021E0,2.878792048E0,1.085595703E1,-1.272847056E0
1.321175260E0,2.816509008E0,1.068827248E1,-1.085998058E0
1.323626458E0,2.629659891E0,1.051579571E1,-9.231039882E-1
1.326128698E0,2.466766119E0,1.038164806E1,-7.075089812E-1
1.328630937E0,2.279917002E0,1.021396255E1,-5.014960170E-1
1.331133177E0,2.131396055E0,1.007023335E1,-3.625569940E-1
1.333635416E0,2.025994062E0,9.888175011E0,-2.236180007E-1
1.336137656E0,1.915801048E0,9.763608932E0,-1.038430035E-1
1.338639896E0,1.767279983E0,9.696535110E0,-1.281400025E-2
1.341142135E0,1.681041956E0,9.653415680E0,-3.231999930E-3
1.343644375E0,1.609176993E0,9.514476776E0,3.081830144E-1
1.346146614E0,1.460656047E0,9.413866043E0,5.573149920E-1
1.348648854E0,1.331298947E0,9.365956306E0,6.627169847E-1
1.351151041E0,1.096539974E0,9.375537872E0,7.393730283E-1
1.353704635E0,9.049000144E-1,9.428238869E0,8.160290122E-1
1.356206927E0,7.132599950E-1,9.581550598E0,8.064470291E-1
1.358709114E0,5.503659844E-1,9.782773018E0,6.291800141E-1
1.361211354E0,6.749320030E-1,9.615088463E0,8.543570042E-1
1.363713594E0,6.030669808E-1,9.385120392E0,1.002877951E0
1.366215833E0,3.443529904E-1,9.490522385E0,8.351929784E-1
1.368718073E0,1.670860052E-1,9.615088463E0,6.866719723E-1
1.371220312E0,-1.018100046E-2,9.686952591E0,6.148070097E-1
1.373722552E0,-9.162800014E-2,9.691743851E0,4.854499996E-1
1.376224844E0,-1.634930074E-1,9.571969032E0,3.321380019E-1
1.378727031E0,-3.215959966E-1,9.509686470E0,2.459000051E-1
1.381229271E0,-4.461619854E-1,9.466567039E0,7.821500301E-2
1.383732239E0,-5.659369826E-1,9.476148605E0,-8.023000322E-3
1.386234479E0,-6.186379790E-1,9.447402954E0,-1.182160005E-1
1.388736719E0,-7.144579887E-1,9.442611694E0,-2.379910052E-1
1.391239010E0,-7.192490101E-1,9.456985474E0,-3.769299984E-1
1.393741198E0,-5.132359862E-1,9.466567039E0,-5.494059920E-1
1.396243489E0,-4.126250148E-1,9.418657303E0,-7.602099776E-1
1.398745677E0,-4.269979894E-1,9.533640862E0,-7.650009990E-1
1.401247916E0,-3.742969930E-1,9.586341858E0,-8.464480042E-1
1.403750156E0,-2.209849954E-1,9.610297203E0,-9.422680140E-1
1.406252396E0,-3.892700002E-2,9.576760292E0,-1.100371003E0
1.408754635E0,2.054139972E-1,9.543223381E0,-1.196190953E0
1.411256875E0,2.389509976E-1,9.648625374E0,-1.272847056E0
1.413760416E0,3.203980029E-1,9.763608932E0,-1.301592946E0
1.416262656E0,4.928739965E-1,9.768400192E0,-1.325548053E0
1.418764948E0,7.563790083E-1,9.677371025E0,-1.301592946E0
1.421267135E0,9.049000144E-1,9.629461288E0,-1.277637959E0
1.423769375E0,1.144449949E0,9.562387466E0,-1.311174989E0
1.426271614E0,1.292971015E0,9.533640862E0,-1.373458028E0
1.428773906E0,1.398373008E0,9.543223381E0,-1.406995058E0
1.431276146E0,1.580430984E0,9.466567039E0,-1.454905033E0
1.433778385E0,1.657086968E0,9.528849602E0,-1.454905033E0
1.436280625E0,1.752907038E0,9.519268036E0,-1.426159024E0
1.438782864E0,1.824772000E0,9.595924377E0,-1.392621994E0
1.441285104E0,1.949337959E0,9.605505943E0,-1.430950046E0
1.443772969E0,1.978083968E0,9.682162285E0,-1.430950046E0
1.446275208E0,2.054739952E0,9.725280762E0,-1.378249049E0
1.448777448E0,2.140978098E0,9.739653587E0,-1.397413015E0
1.451279687E0,2.179306030E0,9.782773018E0,-1.531561017E0
1.453781927E0,2.236798048E0,9.811518669E0,-1.569888949E0
1.456284166E0,2.222424984E0,9.806728363E0,-1.569888949E0
1.458786458E0,2.188888073E0,9.816309929E0,-1.589053035E0
1.461288698E0,2.251171112E0,9.873802185E0,-1.603425980E0
1.463790937E0,2.222424984E0,9.821101189E0,-1.603425980E0
1.466293177E0,2.136187077E0,9.782773018E0,-1.603425980E0
1.468795416E0,2.097858906E0,9.773191452E0,-1.579470992E0
1.471297656E0,2.097858906E0,9.725280762E0,-1.569888949E0
1.473761354E0,2.049948931E0,9.634251595E0,-1.541142941E0
1.476263594E0,2.030785084E0,9.595924377E0,-1.531561017E0
1.478765833E0,1.997248054E0,9.500103951E0,-1.498023987E0
1.481268073E0,2.002038956E0,9.418657303E0,-1.459696054E0
1.483770312E0,1.915801048E0,9.318045616E0,-1.416576982E0
1.486272552E0,1.834354043E0,9.198270798E0,-1.359084964E0
1.488774791E0,1.863100052E0,9.179106712E0,-1.315966010E0
1.491277031E0,1.819980979E0,9.131196976E0,-1.234519005E0
1.493779271E0,1.772071004E0,9.068914413E0,-1.210564017E0
1.496281510E0,1.762488961E0,8.953929901E0,-1.138699055E0
1.498783750E0,1.767279983E0,8.963512421E0,-1.114743948E0
1.501285989E0,1.800817013E0,8.958721161E0,-1.076416016E0
1.503789687E0,1.805608034E0,8.987466812E0,-1.018923998E0
1.506291927E0,1.848726988E0,8.958721161E0,-1.066833973E0
1.508794166E0,1.901427984E0,8.939557076E0,-1.014132977E0
1.511296406E0,1.930173993E0,8.891647339E0,-1.018923998E0
1.513798646E0,2.016412020E0,8.853319168E0,-9.949690104E-1
1.516300885E0,2.021203041E0,8.838946342E0,-9.901779890E-1
1.518803125E0,2.045157909E0,8.795826912E0,-1.028506041E0
1.521305364E0,2.069113016E0,8.776662827E0,-1.033296943E0
1.523807604E0,2.064321995E0,8.771871567E0,-9.997599721E-1
1.526309844E0,2.030785084E0,8.733544350E0,-9.997599721E-1
1.528812083E0,1.978083968E0,8.738334656E0,-1.018923998E0
1.531314323E0,1.882264018E0,8.805409431E0,-9.805960059E-1
1.533813958E0,1.824772000E0,8.848527908E0,-9.566410184E-1
1.536316198E0,1.843935966E0,8.853319168E0,-9.278950095E-1
1.538818437E0,1.767279983E0,8.829363823E0,-9.231039882E-1
1.541320677E0,1.685832977E0,8.834155083E0,-8.224930167E-1
1.543822916E0,1.637923002E0,8.877273560E0,-7.650009990E-1
1.546325156E0,1.604385972E0,8.896437645E0,-7.410460114E-1
1.548827396E0,1.503775001E0,8.934765816E0,-6.739720106E-1
1.551329635E0,1.522938967E0,8.963512421E0,-6.164799929E-1
1.553831875E0,1.508566022E0,9.006630898E0,-5.014960170E-1
1.556334114E0,1.532521009E0,8.992258072E0,-4.535860121E-1
1.558836354E0,1.551684976E0,9.001839638E0,-3.338110149E-1
1.561338594E0,1.637923002E0,9.006630898E0,-3.050650060E-1
1.563843750E0,1.719370008E0,8.987466812E0,-2.571550012E-1
1.566345989E0,1.815189958E0,8.925184250E0,-2.331999987E-1
1.568848177E0,1.877472997E0,8.867691994E0,-2.044540048E-1
1.571350364E0,1.944547057E0,8.872483253E0,-1.948720068E-1
1.573852552E0,2.054739952E0,8.829363823E0,-1.852899939E-1
1.576354739E0,2.145768881E0,8.786245346E0,-1.709170043E-1
1.578856927E0,2.212842941E0,8.829363823E0,-1.325889975E-1
1.581359114E0,2.227216005E0,8.862900734E0,-1.325889975E-1
1.583861302E0,2.308662891E0,8.853319168E0,-1.613350064E-1
1.586363489E0,2.351782084E0,8.882064819E0,-1.661259979E-1
1.588865677E0,2.399692059E0,8.949138641E0,-1.277980059E-1
1.591367916E0,2.471556902E0,8.992258072E0,-1.277980059E-1
1.593917135E0,2.548213005E0,9.011422157E0,-9.905199707E-2
1.596419323E0,2.605705023E0,8.982675552E0,-9.905199707E-2
1.598921510E0,2.581749916E0,8.958721161E0,-1.134250015E-1
1.601423698E0,2.600914001E0,9.035376549E0,-6.551499665E-2
1.603925885E0,2.653614998E0,9.073704720E0,-4.635100067E-2
1.606428073E0,2.701524973E0,9.001839638E0,-7.030600309E-2
1.608930260E0,2.744643927E0,8.929974556E0,-3.197799996E-2
1.611432448E0,2.720689058E0,8.882064819E0,6.349999923E-3
1.613934635E0,2.725480080E0,8.896437645E0,6.349999923E-3
1.616436875E0,2.730271101E0,8.872483253E0,3.509600088E-2
1.618939062E0,2.749434948E0,8.829363823E0,8.779700100E-2
1.621441250E0,2.754225969E0,8.714380264E0,8.300600201E-2
1.623918906E0,2.768599033E0,8.637723923E0,4.467799887E-2
1.626421094E0,2.711107016E0,8.565858841E0,-1.281400025E-2
1.628923281E0,2.720689058E0,8.517949104E0,6.349999923E-3
1.631425469E0,2.677570105E0,8.489203453E0,1.165430024E-1
1.633927656E0,2.658406019E0,8.484412193E0,1.644529998E-1
1.636429844E0,2.691942930E0,8.489203453E0,2.075719982E-1
1.638932031E0,2.672779083E0,8.498785019E0,3.704659939E-1
1.641434219E0,2.720689058E0,8.585022926E0,4.087939858E-1
1.643936458E0,2.735061884E0,8.608978271E0,4.375399947E-1
1.646438646E0,2.797344923E0,8.714380264E0,5.094050169E-1
1.648940781E0,2.926702023E0,8.767081261E0,5.716879964E-1
1.651443021E0,2.979403019E0,8.805409431E0,5.764790177E-1
1.653969114E0,3.070431948E0,8.843736649E0,6.291800141E-1
1.656471302E0,3.214162111E0,8.920392990E0,7.106270194E-1
1.658973489E0,3.309982061E0,8.977885246E0,7.345820069E-1
1.661475677E0,3.396219969E0,9.001839638E0,8.064470291E-1
1.663977864E0,3.444129944E0,9.064123154E0,7.824919820E-1
1.666480052E0,3.468085051E0,9.078495979E0,7.777010202E-1
1.668982239E0,3.539949894E0,9.116824150E0,7.441639900E-1
1.671484427E0,3.520786047E0,9.107241631E0,7.106270194E-1
1.673986666E0,3.520786047E0,9.145569801E0,6.291800141E-1
1.676488802E0,3.506412983E0,9.116824150E0,5.573149920E-1
1.678991041E0,3.506412983E0,9.088077545E0,5.668969750E-1
1.681493229E0,3.434547901E0,9.059331894E0,6.148070097E-1
1.683997187E0,3.391428947E0,9.064123154E0,6.627169847E-1
1.686499375E0,3.314773083E0,9.135988235E0,6.531350017E-1
1.689001562E0,3.209371090E0,9.164733887E0,6.579260230E-1
1.691503750E0,3.137506008E0,9.179106712E0,6.483439803E-1
1.694005937E0,3.008148909E0,9.303672791E0,6.195979714E-1
1.696508125E0,2.888374090E0,9.413866043E0,5.621060133E-1
1.699010312E0,2.811717987E0,9.433030128E0,4.614950120E-1
1.701512500E0,2.792553902E0,9.528849602E0,3.896299899E-1
1.704014687E0,2.701524973E0,9.562387466E0,3.752569854E-1
1.706516875E0,2.596122980E0,9.567177773E0,2.171539962E-1
1.709019062E0,2.481138945E0,9.629461288E0,1.069609970E-1
1.711521302E0,2.361363888E0,9.672579765E0,5.426000059E-2
1.713976458E0,2.217633963E0,9.696535110E0,-8.023000322E-3
1.716478698E0,2.117022991E0,9.749236107E0,2.551399916E-2
1.718980885E0,2.035576105E0,9.830682755E0,3.509600088E-2
1.721483073E0,1.930173993E0,9.849846840E0,7.342399657E-2
1.723985260E0,1.867890954E0,9.902547836E0,1.261249930E-1
1.726487448E0,1.810399055E0,9.969621658E0,1.596619934E-1
1.728989635E0,1.796025991E0,9.983995438E0,7.821500301E-2
1.731491823E0,1.776862025E0,9.983995438E0,1.558999997E-3
1.733994010E0,1.762488961E0,9.955248833E0,-6.072400138E-2
1.736496198E0,1.724161029E0,9.931294441E0,-1.421709955E-1
1.738998385E0,1.695415020E0,9.864219666E0,-1.900810003E-1
1.741500625E0,1.661877990E0,9.773191452E0,-2.284090072E-1
1.744046302E0,1.604385972E0,9.720490456E0,-3.050650060E-1
1.746548489E0,1.575639963E0,9.682162285E0,-3.290199935E-1
1.749050677E0,1.498983979E0,9.619878769E0,-3.673479855E-1
1.751552864E0,1.393581986E0,9.562387466E0,-3.529750109E-1
1.754055052E0,1.316926003E0,9.514476776E0,-3.050650060E-1
1.756557239E0,1.269016027E0,9.514476776E0,-2.715280056E-1
1.759059427E0,1.225896955E0,9.485731125E0,-2.140360028E-1
1.761561614E0,1.211524010E0,9.409074783E0,-1.182160005E-1
1.764063854E0,1.177986979E0,9.318045616E0,-1.281400025E-2
1.766566041E0,1.115704060E0,9.298881531E0,1.261249930E-1
1.769068229E0,1.024675012E0,9.284508705E0,1.884080023E-1
1.771570416E0,1.010301948E0,9.198270798E0,2.842279971E-1
1.774059791E0,9.911379814E-1,9.179106712E0,3.513019979E-1
1.776561979E0,1.010301948E0,9.064123154E0,3.704659939E-1
1.779064166E0,1.029466033E0,8.915601730E0,4.087939858E-1
1.781566354E0,1.130077004E0,8.786245346E0,3.560929894E-1
1.784068541E0,1.211524010E0,8.623351097E0,3.800480068E-1
1.786570729E0,1.292971015E0,8.474829674E0,2.459000051E-1
1.789072916E0,1.407955050E0,8.431711197E0,9.258800000E-2
1.791575104E0,1.556475997E0,8.359846115E0,-9.426099807E-2
1.794077344E0,1.714578986E0,8.359846115E0,-3.625569940E-1
1.796579531E0,1.934965014E0,8.398174286E0,-6.356440187E-1
1.799081666E0,2.093067884E0,8.517949104E0,-9.278950095E-1
1.801583906E0,2.217633963E0,8.767081261E0,-1.248891950E0
1.804106406E0,2.323035955E0,9.150361061E0,-1.545933962E0
1.806608646E0,2.370945930E0,9.567177773E0,-1.900467992E0
1.809110833E0,2.418855906E0,1.007981491E1,-2.211883068E0
1.811613021E0,2.361363888E0,1.061161613E1,-2.494551897E0
1.814115208E0,2.246380091E0,1.117216301E1,-2.667027950E0
1.816617396E0,2.160141945E0,1.177582932E1,-2.815548897E0
1.819119583E0,2.054739952E0,1.226451111E1,-3.002398014E0
1.821621771E0,1.978083968E0,1.271965599E1,-3.098217964E0
1.824124010E0,1.887055039E0,1.317000961E1,-3.170083046E0
1.826626146E0,1.978083968E0,1.361557293E1,-3.285067081E0
1.829128385E0,2.184097052E0,1.401322556E1,-3.409632921E0
1.831630573E0,2.370945930E0,1.451148987E1,-3.519825935E0
1.834095781E0,2.596122980E0,1.494268036E1,-3.620436907E0
1.836597969E0,2.907537937E0,1.551280880E1,-3.711466074E0
1.839100156E0,3.147088051E0,1.620271301E1,-3.816868067E0
1.841602344E0,3.386637926E0,1.702676582E1,-3.941433907E0
1.844104583E0,3.559113979E0,1.788435364E1,-4.061209202E0
1.846606719E0,3.698052883E0,1.880901718E1,-4.214520931E0
1.849108906E0,3.822618961E0,1.976721764E1,-4.420534134E0
1.851611146E0,3.932811975E0,2.059126854E1,-4.655292988E0
1.854113333E0,4.023840904E0,2.119493484E1,-4.765485764E0
1.856615521E0,4.047795773E0,2.156863213E1,-4.866096973E0
1.859117708E0,4.023840904E0,2.152551460E1,-4.957126141E0
1.861619896E0,4.019050121E0,2.175069046E1,-4.961916924E0
1.864149010E0,3.769917965E0,2.190400314E1,-4.846932888E0
1.866651198E0,3.463294029E0,2.161175156E1,-4.808605194E0
1.869153385E0,3.300400019E0,2.102245903E1,-4.727158070E0
1.871655573E0,3.357892036E0,2.022236252E1,-4.650502205E0
1.874157760E0,3.453711987E0,1.938393784E1,-4.569055080E0
1.876659948E0,3.453711987E0,1.858383942E1,-4.415742874E0
1.879162135E0,3.386637926E0,1.797059250E1,-4.233685017E0
1.881664323E0,3.271653891E0,1.743400002E1,-4.061209202E0
1.884166562E0,3.108760118E0,1.699322891E1,-3.883941889E0
1.886668698E0,2.931493044E0,1.655724716E1,-3.692301989E0
1.889170937E0,2.778181076E0,1.616438484E1,-3.476706982E0
1.891673125E0,2.639241934E0,1.582422447E1,-3.265902996E0
1.894186927E0,2.490720987E0,1.548885441E1,-3.007189035E0
1.896689114E0,2.337409019E0,1.525888634E1,-2.777220964E0
1.899191302E0,2.208051920E0,1.501933575E1,-2.475388050E0
1.901693489E0,2.088277102E0,1.470792103E1,-2.140017986E0
1.904195677E0,1.920591950E0,1.432943153E1,-1.886095047E0
1.906697864E0,1.762488961E0,1.393177891E1,-1.675290942E0
1.909200052E0,1.498983979E0,1.357724476E1,-1.603425980E0
1.911702239E0,1.163614035E0,1.318438339E1,-1.454905033E0
1.914204479E0,9.001089931E-1,1.274361134E1,-1.387830973E0
1.916706666E0,5.743209720E-1,1.241303158E1,-1.315966010E0
1.919208802E0,3.587259948E-1,1.212078094E1,-1.277637959E0
1.921711041E0,8.084800094E-2,1.185727596E1,-1.153072000E0
1.924178125E0,-1.634930074E-1,1.156502533E1,-9.949690104E-1
1.926680312E0,-3.551329970E-1,1.133984756E1,-9.183130264E-1
1.929182500E0,-5.851010084E-1,1.106196976E1,-7.170910239E-1
1.931684687E0,-7.959049940E-1,1.079846478E1,-5.350329876E-1
1.934186875E0,-1.088155985E0,1.060203362E1,-2.954829931E-1
1.936689114E0,-1.275004983E0,1.033852863E1,-3.231999930E-3
1.939191250E0,-1.428316951E0,1.005106926E1,2.171539962E-1
1.941693489E0,-1.619956970E0,9.797145844E0,4.183759987E-1
1.944195677E0,-1.773269057E0,9.552804947E0,6.675080061E-1
1.946697864E0,-1.902626038E0,9.346792221E0,7.968649864E-1
1.949200052E0,-1.979282022E0,9.150361061E0,9.741320014E-1
1.951702239E0,-1.921790004E0,8.925184250E0,1.146607995E0
1.954239010E0,-1.816388011E0,8.704797745E0,1.299919963E0
1.956741198E0,-1.778059959E0,8.474829674E0,1.419695020E0
1.959243385E0,-1.754104972E0,8.302353859E0,1.577798009E0
1.961745573E0,-1.677448988E0,8.120295525E0,1.640081048E0
1.964247760E0,-1.634330034E0,7.890327930E0,1.716737032E0
1.966749948E0,-1.519345999E0,7.760971069E0,1.783810973E0
1.969252135E0,-1.413944006E0,7.684315205E0,1.692782044E0
1.971754323E0,-1.255841017E0,7.641195774E0,1.640081048E0
1.974256562E0,-1.068992019E0,7.507048130E0,1.534679055E0
1.976758698E0,-9.252619743E-1,7.387272835E0,1.481978059E0
1.979260937E0,-8.246510029E-1,7.296244144E0,1.438858986E0
1.981763125E0,-6.425930262E-1,7.157304764E0,1.309502006E0
1.984229323E0,-4.701170027E-1,7.133349895E0,1.137025952E0
1.986731510E0,-3.695060015E-1,7.186050892E0,9.741320014E-1
1.989233698E0,-2.545219958E-1,7.171678066E0,8.064470291E-1
1.991735885E0,-4.371799901E-2,7.162096024E0,5.908520222E-1
1.994238073E0,9.522099793E-2,7.166886806E0,3.656750023E-1
1.996740312E0,1.383399963E-1,7.214797020E0,1.836169958E-1
1.999242500E0,1.431310028E-1,7.267498016E0,-2.718699910E-2
2.001744687E0,1.527130008E-1,7.353735924E0,-1.852899939E-1
2.004246875E0,8.563899994E-2,7.411228180E0,-1.948720068E-1
2.006749062E0,1.287579983E-1,7.554957867E0,-3.913030028E-1
2.009251250E0,2.341600060E-1,7.473511219E0,-3.769299984E-1
2.011753437E0,1.766680032E-1,7.564539909E0,-5.206599832E-1
2.014288437E0,1.527130008E-1,7.808880806E0,-8.129109740E-1
2.016790625E0,2.820700109E-1,7.995729923E0,-8.847759962E-1
2.019292812E0,3.203980029E-1,8.187370300E0,-8.416569829E-1
2.021795000E0,4.449639916E-1,8.364637375E0,-8.656119704E-1
2.024297187E0,5.312020183E-1,8.556277275E0,-9.422680140E-1
2.026799375E0,5.312020183E-1,8.791035652E0,-9.566410184E-1
2.029301562E0,5.886939764E-1,8.939557076E0,-8.943579793E-1
2.031803750E0,6.174399853E-1,9.150361061E0,-7.218819857E-1
2.034305937E0,6.126490235E-1,9.418657303E0,-5.685700178E-1
2.036808125E0,7.467970252E-1,9.476148605E0,-6.164799929E-1
2.039310364E0,8.474079967E-1,9.653415680E0,-6.595990062E-1
2.041812552E0,8.953179717E-1,9.892966270E0,-4.727500081E-1
2.044320000E0,9.240639806E-1,1.011335182E1,-3.050650060E-1
2.046822187E0,9.911379814E-1,1.035290241E1,-2.427819967E-1
2.049324375E0,1.015092969E0,1.048225880E1,-2.523640096E-1
2.051826562E0,1.096539974E0,1.064515305E1,-2.284090072E-1
2.054328750E0,1.216315031E0,1.070743561E1,-2.236180007E-1
2.056830937E0,1.302553058E0,1.079367447E1,-1.182160005E-1
2.059333125E0,1.393581986E0,1.077930069E1,9.737899899E-2
2.061835312E0,1.470237970E0,1.073618221E1,3.225559890E-1
2.064337500E0,1.594804049E0,1.053975105E1,4.519129992E-1
2.066839687E0,1.628340960E0,1.040081215E1,6.100159883E-1
2.069341927E0,1.719370008E0,1.026666355E1,7.250000238E-1
2.071844114E0,1.882264018E0,1.011335182E1,9.070580006E-1
2.074342969E0,2.069113016E0,1.000315857E1,1.151399016E0
2.076845208E0,2.184097052E0,9.907339096E0,1.395740032E0
2.079347448E0,2.308662891E0,9.864219666E0,1.640081048E0
2.081849635E0,2.452393055E0,9.768400192E0,1.750273943E0
2.084351875E0,2.644032955E0,9.730072021E0,1.941913962E0
2.086854114E0,2.835673094E0,9.600714684E0,2.138345003E0
2.089356406E0,2.955447912E0,9.476148605E0,2.329984903E0
2.091858594E0,3.060849905E0,9.308464050E0,2.559952974E0
2.094360885E0,3.113550901E0,9.207853317E0,2.670145988E0
2.096863125E0,3.156670094E0,9.049750328E0,2.722846985E0
2.099365364E0,3.171042919E0,8.944348335E0,2.756383896E0
2.101867604E0,3.075222969E0,8.800618172E0,2.713264942E0
2.104338698E0,3.084805012E0,8.623351097E0,2.569535017E0
2.106840937E0,3.099178076E0,8.484412193E0,2.468924046E0
2.109343125E0,3.032104015E0,8.369427681E0,2.401849985E0
2.111845416E0,2.988985062E0,8.268816948E0,2.411432028E0
2.114347656E0,2.950656891E0,8.125086784E0,2.421014071E0
2.116849896E0,2.864418983E0,7.971775055E0,2.459342003E0
2.119352135E0,2.672779083E0,7.871163845E0,2.550370932E0
2.121854375E0,2.490720987E0,7.784925938E0,2.583908081E0
2.124356614E0,2.337409019E0,7.703478813E0,2.550370932E0
2.126858854E0,2.164932966E0,7.650777817E0,2.535998106E0
2.129361094E0,1.982874990E0,7.669941902E0,2.473715067E0
2.131863385E0,1.815189958E0,7.669941902E0,2.425805092E0
2.134404271E0,1.623550057E0,7.703478813E0,2.411432028E0
2.136906562E0,1.407955050E0,7.775343895E0,2.387476921E0
2.139408802E0,1.225896955E0,7.847208977E0,2.382685900E0
2.141910989E0,1.067793965E0,7.899909973E0,2.382685900E0
2.144413281E0,9.144819975E-1,8.005311966E0,2.444968939E0
2.146915469E0,7.803339958E-1,8.086758614E0,2.473715067E0
2.149417708E0,6.030669808E-1,8.177787781E0,2.550370932E0
2.151919948E0,5.120379925E-1,8.283189774E0,2.574326038E0
2.154422239E0,4.593369961E-1,8.412547112E0,2.531207085E0
2.156924479E0,3.970539868E-1,8.546694756E0,2.468924046E0
2.159426719E0,3.730989993E-1,8.618559837E0,2.421014071E0
2.161928958E0,3.443529904E-1,8.661679268E0,2.397058964E0
2.164380885E0,3.539350033E-1,8.719170570E0,2.253329039E0
2.166883125E0,3.683080077E-1,8.800618172E0,2.133553982E0
2.169385364E0,3.635169864E-1,8.872483253E0,2.052107096E0
2.171887604E0,3.347710073E-1,8.886856079E0,1.937122941E0
2.174389844E0,3.491440117E-1,8.929974556E0,1.807765961E0
2.176892083E0,4.210090041E-1,8.934765816E0,1.721528053E0
2.179394323E0,4.497550130E-1,8.929974556E0,1.664036036E0
2.181896562E0,4.880830050E-1,8.939557076E0,1.620916963E0
2.184398802E0,5.886939764E-1,8.944348335E0,1.563424945E0
2.186901041E0,6.030669808E-1,8.829363823E0,1.529888034E0
2.189403281E0,6.845139861E-1,8.680843353E0,1.462813973E0
2.191905521E0,7.276329994E-1,8.541904449E0,1.410112977E0
2.194448437E0,7.947070003E-1,8.436502457E0,1.381366968E0
2.196950677E0,7.994980216E-1,8.268816948E0,1.386157990E0
2.199452916E0,7.707520127E-1,8.120295525E0,1.462813973E0
2.201955156E0,7.420060039E-1,7.919074059E0,1.553843021E0
2.204457448E0,7.659609914E-1,7.641195774E0,1.592170954E0
2.206959687E0,7.994980216E-1,7.392064095E0,1.654453993E0
2.209461927E0,7.276329994E-1,7.123767853E0,1.774229050E0
2.211964166E0,7.707520127E-1,6.841098785E0,1.932332039E0
2.214466354E0,7.276329994E-1,6.582385063E0,2.133553982E0
2.216968646E0,7.036780119E-1,6.342834949E0,2.310821056E0
2.219470885E0,6.940960288E-1,6.093702793E0,2.579117060E0
2.221973125E0,6.366040111E-1,5.839779854E0,2.761174917E0
2.224430573E0,6.366040111E-1,5.600230217E0,2.971978903E0
2.226932812E0,6.270220280E-1,5.379844189E0,3.163619041E0
2.229435052E0,6.318129897E-1,5.207367897E0,3.336095095E0
2.231937291E0,6.461859941E-1,5.054056168E0,3.470242977E0
2.234439531E0,6.557679772E-1,4.939072132E0,3.556480885E0
2.236941771E0,6.845139861E-1,4.838460922E0,3.594809055E0
2.239444010E0,7.132599950E-1,4.742640972E0,3.652301073E0
2.241946250E0,7.611700296E-1,4.699522018E0,3.685837984E0
2.244448489E0,8.090800047E-1,4.723476887E0,3.666673899E0
2.246950729E0,8.569899797E-1,4.776177883E0,3.642719030E0
2.249452969E0,8.857359886E-1,4.742640972E0,3.633136988E0
2.251955208E0,9.432280064E-1,4.843252182E0,3.628345966E0
2.254496719E0,1.043838978E0,4.915116787E0,3.585227013E0
2.256998958E0,1.053421021E0,4.963027000E0,3.537317038E0
2.259501198E0,1.077376008E0,4.996563911E0,3.417541981E0
2.262003437E0,1.134868026E0,5.101965904E0,3.379214048E0
2.264505729E0,1.192360044E0,5.106757164E0,3.283394098E0
2.267007969E0,1.206732988E0,5.164248943E0,3.240274906E0
2.269510208E0,1.211524010E0,5.279232979E0,3.225902081E0
2.272012448E0,1.206732988E0,5.303187847E0,3.211529016E0
2.274514687E0,1.201941967E0,5.360680103E0,3.192364931E0
2.277016927E0,1.173195958E0,5.403799057E0,3.154036999E0
2.279519166E0,1.206732988E0,5.470872879E0,3.168410063E0
2.282021406E0,1.106122017E0,5.518783092E0,3.144454956E0
2.284520677E0,1.043838978E0,5.571484089E0,3.130081892E0
2.287022916E0,9.863470197E-1,5.614603043E0,3.115709066E0
2.289525156E0,9.480190277E-1,5.648139954E0,3.144454956E0
2.292027396E0,8.761540055E-1,5.648139954E0,3.230693102E0
2.294529635E0,8.090800047E-1,5.643349171E0,3.278603077E0
2.297031927E0,7.372149825E-1,5.624185085E0,3.312139988E0
2.299534166E0,6.893050075E-1,5.552320004E0,3.407959938E0
2.302036406E0,6.270220280E-1,5.509201050E0,3.479825020E0
2.304538646E0,6.126490235E-1,5.461290836E0,3.613972902E0
2.307040885E0,6.030669808E-1,5.389426231E0,3.685837984E0
2.309543125E0,6.366040111E-1,5.236114025E0,3.748121023E0
2.312045364E0,6.557679772E-1,5.154666901E0,3.882268906E0
2.314490104E0,7.132599950E-1,5.135502815E0,3.992461920E0
2.316992344E0,8.282439709E-1,5.049264908E0,4.097864151E0
2.319494583E0,9.096909761E-1,5.001355171E0,4.160147190E0
2.321996823E0,1.019883990E0,4.958236217E0,4.232011795E0
2.324499062E0,1.201941967E0,4.891161919E0,4.184102058E0
2.327001302E0,1.307343960E0,4.905535221E0,4.179310799E0
2.329503541E0,1.470237970E0,4.871997833E0,4.208056927E0
2.332005781E0,1.628340960E0,4.881579876E0,4.198474884E0
2.334508021E0,1.810399055E0,4.943862915E0,4.232011795E0
2.337010260E0,1.963711023E0,5.025310040E0,4.323040962E0
2.339512500E0,2.117022991E0,5.101965904E0,4.366159916E0
2.342014739E0,2.145768881E0,5.269650936E0,4.366159916E0
2.344573698E0,2.227216005E0,5.466082096E0,4.385324001E0
2.347075937E0,2.313453913E0,5.638557911E0,4.461979866E0
2.349578177E0,2.337409019E0,5.878108025E0,4.557799816E0
2.352080416E0,2.351782084E0,6.117658138E0,4.701529980E0
2.354582656E0,2.404483080E0,6.318880081E0,4.749440193E0
2.357084948E0,2.495512009E0,6.481773853E0,4.835678101E0
2.359587187E0,2.562586069E0,6.692577839E0,4.931498051E0
2.362089427E0,2.596122980E0,6.874636173E0,5.065646172E0
2.364591666E0,2.715898037E0,7.013575077E0,5.137510777E0
2.367093906E0,2.802135944E0,7.162096024E0,5.242912769E0
2.369596146E0,2.988985062E0,7.334571838E0,5.266868114E0
2.372098385E0,3.080013990E0,7.468719959E0,5.305195808E0
2.374577552E0,3.223743916E0,7.693896770E0,5.333941936E0
2.377079844E0,3.405802011E0,7.923864841E0,5.257286072E0
2.379582083E0,3.535159111E0,8.149042130E0,5.218957901E0
2.382084323E0,3.683680058E0,8.412547112E0,5.171048164E0
2.384586562E0,3.779500008E0,8.656888008E0,5.046482086E0
2.387088802E0,3.951976061E0,8.987466812E0,4.950662136E0
2.389591041E0,4.004676819E0,9.265344620E0,4.893169880E0
2.392093281E0,4.028632164E0,9.514476776E0,4.874005795E0
2.394595521E0,3.889693022E0,9.835474014E0,4.960244179E0
2.397097760E0,3.750754118E0,1.023312664E1,5.113555908E0
2.399600000E0,3.592650890E0,1.067868996E1,5.444135189E0
2.402102239E0,3.319564104E0,1.121049118E1,5.870533943E0
2.404592916E0,3.089596033E0,1.176624680E1,6.071755886E0
2.407095156E0,2.874001026E0,1.236512184E1,6.134038925E0
2.409597396E0,2.902746916E0,1.287775898E1,6.066965103E0
2.412099635E0,3.094387054E0,1.324187469E1,6.009472847E0
2.414601875E0,3.276444912E0,1.355329037E1,5.884906769E0
2.417104114E0,3.477667093E0,1.373534775E1,5.942399025E0
2.419606354E0,3.669306993E0,1.382158566E1,5.975935936E0
2.422108594E0,3.870528936E0,1.387907791E1,5.956771851E0
2.424610833E0,4.019050121E0,1.393657017E1,5.975935936E0
2.427113073E0,4.153197765E0,1.412341881E1,5.908862114E0
2.429615312E0,4.330464840E0,1.429589462E1,5.889698029E0
2.432117552E0,4.364002228E0,1.442525196E1,5.755549908E0
2.434614219E0,4.296927929E0,1.459772778E1,5.630983829E0
2.437116458E0,4.215480804E0,1.472708511E1,5.573492050E0
2.439618698E0,4.181943893E0,1.458814621E1,5.554327965E0
2.442120937E0,4.167571068E0,1.426235771E1,5.659729958E0
2.444623177E0,4.100496769E0,1.382637691E1,5.760341167E0
2.447125416E0,4.047795773E0,1.325145721E1,5.846579075E0
2.449627656E0,3.865737915E0,1.263341808E1,5.971145153E0
2.452129896E0,3.688471079E0,1.198663330E1,6.148412228E0
2.454632135E0,3.439338923E0,1.138775826E1,6.263395786E0
2.457134375E0,3.252490044E0,1.090386677E1,6.387961864E0
2.459636614E0,3.036895037E0,1.047746754E1,6.646676064E0
2.462138854E0,2.735061884E0,1.018521690E1,6.891016960E0
2.464645000E0,2.438019991E0,9.955248833E0,7.140149117E0
2.467147239E0,2.198470116E0,9.782773018E0,7.317416191E0
2.469649479E0,1.973292947E0,9.768400192E0,7.456355095E0
2.472151719E0,1.752907038E0,9.854638100E0,7.504264832E0
2.474653958E0,1.628340960E0,9.998368263E0,7.427608967E0
2.477156198E0,1.590013027E0,1.036727524E1,7.288670063E0
2.479658437E0,1.618759036E0,1.080325603E1,7.010791779E0
2.482160677E0,1.580430984E0,1.127756500E1,6.713749886E0
2.484662916E0,1.546893954E0,1.174708271E1,6.373589039E0
2.487165156E0,1.503775001E0,1.240345001E1,5.951981068E0
2.489667396E0,1.345672011E0,1.302628040E1,5.549537182E0
2.492169635E0,1.120494962E0,1.359640884E1,5.080018997E0
2.494674219E0,7.707520127E-1,1.411862755E1,4.557799816E0
2.497176458E0,3.060249984E-1,1.453065395E1,4.025999069E0
2.499678698E0,-1.539109945E-1,1.492830658E1,3.460660934E0
2.502180937E0,-6.186379790E-1,1.542177963E1,2.880949974E0
2.504683177E0,-1.112110972E0,1.592962646E1,2.253329039E0
2.507185416E0,-1.596001983E0,1.664348412E1,1.563424945E0
2.509687656E0,-2.027192116E0,1.738129807E1,8.591480255E-1
2.512189896E0,-2.467963934E0,1.797538376E1,9.258800000E-2
2.514692135E0,-2.788960934E0,1.841136360E1,-5.541970134E-1
2.517194375E0,-3.023720026E0,1.868924141E1,-1.133908033E0
2.519696614E0,-3.167449951E0,1.873715210E1,-1.732782960E0
2.522198854E0,-3.244106054E0,1.855509377E1,-2.269375086E0
2.524696354E0,-3.205777884E0,1.814306831E1,-2.604744911E0
2.527198594E0,-3.100375891E0,1.753461075E1,-2.786803007E0
2.529700833E0,-2.918318033E0,1.672972298E1,-2.810758114E0
2.532203073E0,-2.750633001E0,1.598232746E1,-2.820339918E0
2.534705312E0,-2.530246973E0,1.523013973E1,-2.801176071E0
2.537207552E0,-2.314651966E0,1.448274422E1,-2.681401014E0
2.539709791E0,-2.132594109E0,1.368743801E1,-2.446641922E0
2.542212031E0,-1.902626038E0,1.290650463E1,-2.120853901E0
2.544714271E0,-1.710986018E0,1.208245277E1,-1.694455028E0
2.547216510E0,-1.509763956E0,1.137338543E1,-1.268056035E0
2.549718750E0,-1.289378047E0,1.076971912E1,-9.374769926E-1
2.552220989E0,-1.145648003E0,1.023312664E1,-6.116889715E-1
2.554744791E0,-1.025872946E0,9.821101189E0,-2.763189971E-1
2.557247031E0,-8.629789948E-1,9.447402954E0,-1.760499924E-2
2.559749219E0,-6.138470173E-1,9.054540634E0,2.602730095E-1
2.562251458E0,-3.838790059E-1,8.647306442E0,4.375399947E-1
2.564753750E0,-1.107920036E-1,8.379010201E0,6.722990274E-1
2.567255989E0,1.718769968E-1,8.158623695E0,8.304020166E-1
2.569758229E0,3.347710073E-1,7.909492016E0,9.693409801E-1
2.572260469E0,5.072469711E-1,7.626822948E0,1.002877951E0
2.574762708E0,7.132599950E-1,7.387272835E0,8.974760175E-1
2.577265000E0,8.761540055E-1,7.104603767E0,7.441639900E-1
2.579767187E0,1.058212042E0,6.807561874E0,5.668969750E-1
2.582269427E0,1.201941967E0,6.462609768E0,2.842279971E-1
2.584756458E0,1.340880990E0,6.074539185E0,4.467799887E-2
2.587258646E0,1.518147945E0,5.705632210E0,-2.427819967E-1
2.589760885E0,1.709787965E0,5.365470886E0,-5.062869787E-1
2.592263073E0,1.815189958E0,5.068428993E0,-8.416569829E-1
2.594765208E0,1.863100052E0,4.857625008E0,-1.133908033E0
2.597267448E0,1.954128981E0,4.675567150E0,-1.416576982E0
2.599769635E0,1.997248054E0,4.512672901E0,-1.804648042E0
2.602271823E0,1.992457032E0,4.459971905E0,-2.192718983E0
2.604774062E0,1.934965014E0,4.464763165E0,-2.456223965E0
2.607276250E0,1.915801048E0,4.445599079E0,-2.599953890E0
2.609778489E0,1.829563022E0,4.512672901E0,-2.853877068E0
2.612280625E0,1.724161029E0,4.646821022E0,-3.141336918E0
2.614802135E0,1.551684976E0,4.881579876E0,-3.332977057E0
2.617304323E0,1.436701059E0,5.125920773E0,-3.510243893E0
2.619806562E0,1.355254054E0,5.408589840E0,-3.649183035E0
2.622308750E0,1.211524010E0,5.729587078E0,-3.663556099E0
2.624810937E0,1.048629999E0,6.088912010E0,-3.869569063E0
2.627313125E0,9.288550019E-1,6.544056892E0,-4.018089771E0
2.629815364E0,8.282439709E-1,6.984828949E0,-3.931852102E0
2.632317552E0,7.994980216E-1,7.463929176E0,-3.826450109E0
2.634819739E0,7.707520127E-1,8.043640137E0,-3.716257095E0
2.637321927E0,7.899159789E-1,8.513157845E0,-3.615645885E0
2.639824166E0,8.090800047E-1,9.025794983E0,-3.443170071E0
2.642326354E0,7.994980216E-1,9.538432121E0,-3.270694017E0
2.644816094E0,8.378260136E-1,9.988785744E0,-2.988024950E0
2.647318281E0,9.911379814E-1,1.034331989E1,-2.767638922E0
2.649820521E0,1.192360044E0,1.072659969E1,-2.537671089E0
2.652322708E0,1.403164029E0,1.099489594E1,-2.341239929E0
2.654824896E0,1.590013027E0,1.117695427E1,-2.120853901E0
2.657327083E0,1.700206041E0,1.131589317E1,-1.953168988E0
2.659829271E0,1.815189958E0,1.138296700E1,-1.751947045E0
2.662331510E0,1.911010027E0,1.139733982E1,-1.560307026E0
2.664833698E0,1.973292947E0,1.135422134E1,-1.406995058E0
2.667335885E0,2.016412020E0,1.125360966E1,-1.339920998E0
2.669838073E0,2.126605034E0,1.112425327E1,-1.239310026E0
2.672340312E0,2.145768881E0,1.100447845E1,-1.100371003E0
2.674845312E0,2.078695059E0,1.078888321E1,-9.662230015E-1
2.677347500E0,2.093067884E0,1.062598896E1,-8.081200123E-1
2.679849687E0,2.069113016E0,1.049184132E1,-6.787629724E-1
2.682351927E0,2.021203041E0,1.031457424E1,-5.062869787E-1
2.684854062E0,1.944547057E0,1.005585957E1,-2.044540048E-1
2.687356302E0,1.772071004E0,9.907339096E0,1.114100032E-2
2.689858489E0,1.681041956E0,9.825892448E0,1.788260043E-1
2.692360677E0,1.508566022E0,9.792354584E0,3.225559890E-1
2.694862916E0,1.340880990E0,9.792354584E0,5.141959786E-1
2.697365104E0,1.206732988E0,9.730072021E0,5.716879964E-1
2.699867291E0,1.216315031E0,9.763608932E0,5.525239706E-1
2.702369479E0,1.288179994E0,9.763608932E0,4.135850072E-1
2.704907187E0,1.604385972E0,9.337209702E0,4.854499996E-1
2.707409427E0,1.561267018E0,9.030586243E0,7.202090025E-1
2.709911614E0,1.067793965E0,9.346792221E0,8.016560078E-1
2.712413854E0,9.959290028E-1,9.409074783E0,8.447750211E-1
2.714916041E0,1.039047956E0,9.404283524E0,9.645500183E-1
2.717418229E0,8.905270100E-1,9.442611694E0,1.069952011E0
2.719920416E0,8.042889833E-1,9.490522385E0,1.012459993E0
2.722422604E0,7.372149825E-1,9.567177773E0,9.741320014E-1
2.724924791E0,6.126490235E-1,9.672579765E0,9.070580006E-1
2.727427031E0,5.455750227E-1,9.696535110E0,8.831030130E-1
2.729929219E0,4.689190090E-1,9.758817673E0,8.064470291E-1
2.732431406E0,4.353820086E-1,9.883383751E0,5.908520222E-1
2.734878594E0,2.772789896E-1,1.000794983E1,6.243889928E-1
2.737380833E0,7.126600295E-2,1.019000816E1,5.141959786E-1
2.739883021E0,6.647499651E-2,1.027145481E1,2.698549926E-1
2.742385260E0,2.102050036E-1,1.027145481E1,2.551399916E-2
2.744887396E0,2.485329956E-1,1.026666355E1,-9.426099807E-2
2.747389635E0,2.581149936E-1,1.029061890E1,-1.757079959E-1
2.749891823E0,3.587259948E-1,1.024270916E1,-3.146469891E-1
2.752394010E0,4.545460045E-1,1.022833633E1,-5.302420259E-1
2.754896250E0,5.407840014E-1,1.008460617E1,-7.123000026E-1
2.757398437E0,6.845139861E-1,9.940876007E0,-9.758049846E-1
2.759900625E0,7.899159789E-1,9.955248833E0,-1.277637959E0
2.762402812E0,8.569899797E-1,9.955248833E0,-1.459696054E0
2.764926927E0,9.671829939E-1,9.907339096E0,-1.751947045E0
2.767429114E0,1.091748953E0,9.907339096E0,-1.919631958E0
2.769931354E0,1.206732988E0,9.931294441E0,-1.929214001E0
2.772433541E0,1.360044956E0,9.955248833E0,-1.924422979E0
2.774935729E0,1.393581986E0,1.001274109E1,-1.910050035E0
2.777437916E0,1.494192958E0,1.010856056E1,-1.814229965E0
2.779940156E0,1.623550057E0,1.018521690E1,-1.737573981E0
2.782442344E0,1.733742952E0,1.017084408E1,-1.613008022E0
2.784944531E0,1.786443949E0,1.019000816E1,-1.498023987E0
2.787446719E0,1.877472997E0,1.019000816E1,-1.378249049E0
2.789948906E0,1.939756036E0,1.023312664E1,-1.239310026E0
2.792451146E0,2.011620998E0,1.021875381E1,-1.095579982E0
2.794938021E0,2.045157909E0,1.014209843E1,-9.758049846E-1
2.797440208E0,2.164932966E0,1.010377026E1,-9.374769926E-1
2.799942396E0,2.255961895E0,1.010856056E1,-8.081200123E-1
2.802444635E0,2.255961895E0,9.993577003E0,-6.452260017E-1
2.804946771E0,2.346991062E0,9.912130356E0,-5.781520009E-1
2.807449010E0,2.299081087E0,9.816309929E0,-4.919140041E-1
2.809951198E0,2.323035955E0,9.710907936E0,-4.535860121E-1
2.812453385E0,2.327826977E0,9.557596207E0,-4.392130077E-1
2.814955573E0,2.332617998E0,9.389910698E0,-4.200490117E-1
2.817457812E0,2.356573105E0,9.337209702E0,-4.152579904E-1
2.819960000E0,2.356573105E0,9.250971794E0,-4.296309948E-1
2.822462187E0,2.342200041E0,9.198270798E0,-4.296309948E-1
2.825016666E0,2.327826977E0,9.174316406E0,-4.727500081E-1
2.827518906E0,2.323035955E0,9.188689232E0,-4.631679952E-1
2.830021094E0,2.260752916E0,9.203062057E0,-5.014960170E-1
2.832523333E0,2.251171112E0,9.169525146E0,-5.446149707E-1
2.835025521E0,2.212842941E0,9.179106712E0,-5.829430223E-1
2.837527708E0,2.160141945E0,9.188689232E0,-5.685700178E-1
2.840029896E0,2.093067884E0,9.155152321E0,-5.829430223E-1
2.842532083E0,2.045157909E0,9.174316406E0,-6.068980098E-1
2.845034323E0,2.059530973E0,9.145569801E0,-6.260619760E-1
2.847536510E0,2.049948931E0,9.126405716E0,-6.404349804E-1
2.850038698E0,2.083486080E0,9.054540634E0,-6.883450150E-1
2.852540885E0,2.107440948E0,9.006630898E0,-7.314640284E-1
2.854984791E0,2.131396055E0,8.929974556E0,-7.602099776E-1
2.857487031E0,2.160141945E0,8.819782257E0,-7.889559865E-1
2.859989219E0,2.174515009E0,8.728753090E0,-8.177019954E-1
2.862491458E0,2.198470116E0,8.608978271E0,-8.224930167E-1
2.864993646E0,2.193679094E0,8.570650101E0,-8.129109740E-1
2.867495833E0,2.193679094E0,8.498785019E0,-7.697920203E-1
2.869998021E0,2.217633963E0,8.412547112E0,-7.745829821E-1
2.872500208E0,2.155350924E0,8.345473289E0,-7.506279945E-1
2.875002396E0,2.150559902E0,8.364637375E0,-7.170910239E-1
2.877504635E0,2.164932966E0,8.292772293E0,-6.548079848E-1
2.880006823E0,2.117022991E0,8.311936378E0,-6.643900275E-1
2.882509010E0,2.097858906E0,8.331100464E0,-6.212710142E-1
2.885009583E0,2.088277102E0,8.393383026E0,-5.733609796E-1
2.887511771E0,2.088277102E0,8.412547112E0,-5.733609796E-1
2.890014010E0,2.073904037E0,8.474829674E0,-4.679589868E-1
2.892516198E0,2.064321995E0,8.522740364E0,-4.679589868E-1
2.895018385E0,2.040366888E0,8.608978271E0,-3.960939944E-1
2.897520573E0,2.011620998E0,8.671260834E0,-3.577660024E-1
2.900022812E0,2.002038956E0,8.719170570E0,-3.625569940E-1
2.902525000E0,2.045157909E0,8.738334656E0,-3.338110149E-1
2.905027187E0,2.030785084E0,8.819782257E0,-3.290199935E-1
2.907529375E0,2.078695059E0,8.800618172E0,-3.098559976E-1
2.910031614E0,2.112231970E0,8.805409431E0,-2.715280056E-1
2.912533802E0,2.121814013E0,8.805409431E0,-2.284090072E-1
2.915092552E0,2.164932966E0,8.791035652E0,-2.236180007E-1
2.917594791E0,2.212842941E0,8.805409431E0,-2.188269943E-1
2.920096979E0,2.232007027E0,8.834155083E0,-2.092449963E-1
2.922599166E0,2.260752916E0,8.810199738E0,-1.900810003E-1
2.925101354E0,2.313453913E0,8.810199738E0,-1.565439999E-1
2.927603594E0,2.356573105E0,8.862900734E0,-1.038430035E-1
2.930105781E0,2.366154909E0,8.862900734E0,-9.426099807E-2
2.932607969E0,2.375736952E0,8.906020164E0,-9.905199707E-2
2.935110156E0,2.346991062E0,8.958721161E0,-2.718699910E-2
2.937612344E0,2.318244934E0,8.925184250E0,1.558999997E-3
2.940114583E0,2.279917002E0,8.896437645E0,5.905099958E-2
2.942616771E0,2.284708023E0,8.891647339E0,1.452890038E-1
2.945071875E0,2.255961895E0,8.867691994E0,1.596619934E-1
2.947574062E0,2.246380091E0,8.819782257E0,2.459000051E-1
2.950076302E0,2.198470116E0,8.819782257E0,2.075719982E-1
2.952578489E0,2.217633963E0,8.814990997E0,2.506909966E-1
2.955080677E0,2.212842941E0,8.786245346E0,2.890189886E-1
2.957582864E0,2.193679094E0,8.714380264E0,3.129740059E-1
2.960085104E0,2.179306030E0,8.666469574E0,3.848389983E-1
2.962587239E0,2.222424984E0,8.599395752E0,4.040029943E-1
2.965089479E0,2.217633963E0,8.575441360E0,4.902409911E-1
2.967591666E0,2.227216005E0,8.613768578E0,5.716879964E-1
2.970093906E0,2.227216005E0,8.613768578E0,6.675080061E-1
2.972596094E0,2.270334959E0,8.613768578E0,7.777010202E-1
2.975122083E0,2.299081087E0,8.671260834E0,8.064470291E-1
2.977624271E0,2.385318995E0,8.747917175E0,9.022669792E-1
2.980126458E0,2.457184076E0,8.781454086E0,9.932960272E-1
2.982628698E0,2.519467115E0,8.805409431E0,1.031623960E0
2.985130833E0,2.620078087E0,8.896437645E0,1.060369968E0
2.987633073E0,2.706315994E0,8.968302727E0,1.108279943E0
2.990135260E0,2.715898037E0,9.054540634E0,1.069952011E0
2.992637448E0,2.816509008E0,9.030586243E0,1.007668972E0
2.995139687E0,2.912328959E0,9.006630898E0,9.549679756E-1
2.997641875E0,2.926702023E0,8.929974556E0,8.543570042E-1
3.000144062E0,3.046477079E0,8.848527908E0,7.633280158E-1
3.002646250E0,3.127923965E0,8.805409431E0,6.914629936E-1
3.005137500E0,3.161461115E0,8.666469574E0,6.866719723E-1
3.007639687E0,3.194998026E0,8.642515182E0,6.675080061E-1
3.010141927E0,3.276444912E0,8.589814186E0,6.914629936E-1
3.012644114E0,3.329145908E0,8.470039368E0,6.387619972E-1
3.015146302E0,3.348309994E0,8.412547112E0,6.483439803E-1
3.017648489E0,3.362683058E0,8.417338371E0,6.483439803E-1
3.020150677E0,3.434547901E0,8.431711197E0,6.722990274E-1
3.022652916E0,3.492039919E0,8.450875282E0,6.627169847E-1
3.025155104E0,3.525577068E0,8.508366585E0,6.148070097E-1
3.027657291E0,3.573487043E0,8.599395752E0,5.381510258E-1
3.030159531E0,3.554322958E0,8.767081261E0,4.327490032E-1
3.032661719E0,3.544740915E0,8.925184250E0,3.081830144E-1
3.035181979E0,3.530368090E0,9.183897972E0,2.411089987E-1
3.037684166E0,3.439338923E0,9.461775780E0,1.452890038E-1
3.040186354E0,3.309982061E0,9.672579765E0,5.426000059E-2
3.042688594E0,3.123132944E0,9.873802185E0,-1.760499924E-2
3.045190729E0,2.893165112E0,1.007981491E1,-1.281400025E-2
3.047692969E0,2.629659891E0,1.019000816E1,6.384199858E-2
3.050195156E0,2.356573105E0,1.033373833E1,9.258800000E-2
3.052697344E0,2.160141945E0,1.045351315E1,1.069609970E-1
3.055199583E0,1.958920002E0,1.050142288E1,1.165430024E-1
3.057701771E0,1.839144945E0,1.056849670E1,8.300600201E-2
3.060203958E0,1.700206041E0,1.064036179E1,6.349999923E-3
3.062706146E0,1.633131981E0,1.062598896E1,-1.469620019E-1
3.065189791E0,1.599594951E0,1.055891514E1,-3.242290020E-1
3.067691979E0,1.546893954E0,1.052058697E1,-4.200490117E-1
3.070194166E0,1.465446949E0,1.044393063E1,-5.206599832E-1
3.072696406E0,1.470237970E0,1.038164806E1,-6.595990062E-1
3.075198594E0,1.489402056E0,1.032415581E1,-7.410460114E-1
3.077700781E0,1.484611034E0,1.021396255E1,-7.314640284E-1
3.080202969E0,1.585222006E0,1.015647125E1,-7.075089812E-1
3.082705156E0,1.599594951E0,1.010856056E1,-6.787629724E-1
3.085207396E0,1.652295947E0,1.000794983E1,-6.787629724E-1
3.087709583E0,1.728952050E0,9.902547836E0,-6.356440187E-1
3.090211771E0,1.815189958E0,9.840265274E0,-5.541970134E-1
3.092713958E0,1.853518009E0,9.706116676E0,-4.535860121E-1
3.095238802E0,1.906219006E0,9.591133118E0,-3.529750109E-1
3.097741041E0,1.987666011E0,9.500103951E0,-2.859010100E-1
3.100243281E0,2.049948931E0,9.394701958E0,-2.284090072E-1
3.102745469E0,2.093067884E0,9.260554314E0,-1.709170043E-1
3.105247708E0,2.131396055E0,9.131196976E0,-1.086340025E-1
3.107750000E0,2.246380091E0,9.006630898E0,-1.517529935E-1
3.110252187E0,2.346991062E0,8.910811424E0,-1.613350064E-1
3.112754427E0,2.390110016E0,8.867691994E0,-1.757079959E-1
3.115256666E0,2.538630962E0,8.853319168E0,-2.667370141E-1
3.117758906E0,2.696733952E0,8.862900734E0,-3.386020064E-1
3.120261146E0,2.787763119E0,8.934765816E0,-4.727500081E-1
3.122763385E0,2.936284065E0,9.059331894E0,-6.116889715E-1
3.125244687E0,3.060849905E0,9.236598969E0,-7.793740034E-1
3.127746927E0,3.161461115E0,9.413866043E0,-9.805960059E-1
3.130249166E0,3.156670094E0,9.648625374E0,-1.172235966E0
3.132751406E0,3.180624962E0,9.969621658E0,-1.435740948E0
3.135253594E0,3.084805012E0,1.029061890E1,-1.747156024E0
3.137755885E0,2.945866108E0,1.065952587E1,-2.029824972E0
3.140258073E0,2.850045919E0,1.099489594E1,-2.298120975E0
3.142760312E0,2.701524973E0,1.126319218E1,-2.547252893E0
3.145262552E0,2.562586069E0,1.147878742E1,-2.633491039E0
3.147764791E0,2.438019991E0,1.172312832E1,-2.667027950E0
3.150267031E0,2.394901037E0,1.187164879E1,-2.724519968E0
3.152769271E0,2.476347923E0,1.211598969E1,-2.762847900E0
3.155265052E0,2.576958895E0,1.225971985E1,-2.834712982E0
3.157767291E0,2.730271101E0,1.249447918E1,-2.992815971E0
3.160269531E0,2.869210005E0,1.271965599E1,-3.241947889E0
3.162771719E0,3.046477079E0,1.307898140E1,-3.380887032E0
3.165273958E0,3.151879072E0,1.347184277E1,-3.524616957E0
3.167776250E0,3.204580069E0,1.408988190E1,-3.658765078E0
3.170278437E0,3.175833941E0,1.480374146E1,-3.768958092E0
3.172780729E0,3.127923965E0,1.555113697E1,-3.869569063E0
3.175282916E0,2.979403019E0,1.637039757E1,-3.898314953E0
3.177785156E0,2.754225969E0,1.730464363E1,-3.859987020E0
3.180287396E0,2.524257898E0,1.824367905E1,-3.730629921E0
3.182789635E0,2.236798048E0,1.918750572E1,-3.572526932E0
3.185304323E0,1.867890954E0,1.997323036E1,-3.318603992E0
3.187806562E0,1.546893954E0,2.051940346E1,-3.083844900E0
3.190308802E0,1.278597951E0,2.075895309E1,-2.882622957E0
3.192810989E0,1.115704060E0,2.063917923E1,-2.801176071E0
3.195313229E0,9.049000144E-1,2.053377724E1,-2.710146904E0
3.197815521E0,5.743209720E-1,2.031339073E1,-2.686192036E0
3.200317708E0,2.820700109E-1,1.983429146E1,-2.662236929E0
3.202819948E0,1.191760004E-1,1.906294060E1,-2.758057117E0
3.205322187E0,4.731100053E-2,1.820055962E1,-2.868249893E0
3.207824427E0,1.377400011E-2,1.739567184E1,-2.973651886E0
3.210326666E0,8.084800094E-2,1.669618607E1,-3.055099010E0
3.212828906E0,1.383399963E-1,1.609731102E1,-3.093426943E0
3.215334948E0,1.718769968E-1,1.565653896E1,-3.026352882E0
3.217837187E0,2.964429855E-1,1.530679607E1,-2.992815971E0
3.220339427E0,3.826810122E-1,1.495226192E1,-2.901787043E0
3.222841614E0,5.216199756E-1,1.457377338E1,-2.810758114E0
3.225343854E0,6.509770155E-1,1.427673054E1,-2.772429943E0
3.227846146E0,7.707520127E-1,1.403238964E1,-2.714937925E0
3.230348385E0,8.426169753E-1,1.374493027E1,-2.686192036E0
3.232850625E0,8.761540055E-1,1.349579811E1,-2.647864103E0
3.235352812E0,9.001089931E-1,1.326103878E1,-2.609535933E0
3.237855052E0,8.761540055E-1,1.291608715E1,-2.552043915E0
3.240357291E0,9.096909761E-1,1.260946274E1,-2.499342918E0
3.242859531E0,9.096909761E-1,1.224055576E1,-2.432269096E0
3.245352031E0,7.899159789E-1,1.185727596E1,-2.432269096E0
3.247854271E0,6.509770155E-1,1.155544281E1,-2.288538933E0
3.250356510E0,5.312020183E-1,1.122007275E1,-2.197510004E0
3.252858698E0,3.778899908E-1,1.090865803E1,-2.058571100E0
3.255360937E0,2.389509976E-1,1.071222687E1,-2.005870104E0
3.257863229E0,1.048030034E-1,1.056849670E1,-1.881304026E0
3.260365416E0,-1.107920036E-1,1.039122963E1,-1.756737947E0
3.262867656E0,-2.736859918E-1,1.015647125E1,-1.608217001E0
3.265369896E0,-4.365800023E-1,9.969621658E0,-1.335129976E0
3.267872135E0,-5.803099871E-1,9.835474014E0,-1.172235966E0
3.270374375E0,-7.719500065E-1,9.686952591E0,-9.326859713E-1
3.272876614E0,-9.156799912E-1,9.504895210E0,-7.410460114E-1
3.275396927E0,-1.011500001E0,9.313255310E0,-4.583770037E-1
3.277899166E0,-1.169602990E0,9.198270798E0,-2.236180007E-1
3.280401406E0,-1.351660967E0,8.977885246E0,5.426000059E-2
3.282903594E0,-1.476227045E0,8.767081261E0,3.369289935E-1
3.285405833E0,-1.490599990E0,8.570650101E0,5.525239706E-1
3.287908125E0,-1.562464952E0,8.431711197E0,7.202090025E-1
3.290410312E0,-1.596001983E0,8.264025688E0,9.310129881E-1
3.292912604E0,-1.619956970E0,8.072385788E0,1.031623960E0
3.295414791E0,-1.576838017E0,8.000520706E0,1.165771961E0
3.297917031E0,-1.548092008E0,7.957402229E0,1.275964975E0
3.300419271E0,-1.447481036E0,7.943028927E0,1.323874950E0
3.302921510E0,-1.351660967E0,7.962193012E0,1.266383052E0
3.305406198E0,-1.188766956E0,7.938238144E0,1.247218966E0
3.307908437E0,-1.059409976E0,7.919074059E0,1.232846022E0
3.310410677E0,-9.252619743E-1,7.904701233E0,1.141816974E0
3.312912864E0,-7.911139727E-1,7.885537148E0,1.146607995E0
3.315415104E0,-7.767410278E-1,7.904701233E0,1.127444029E0
3.317917396E0,-7.288309932E-1,7.832836151E0,1.113070965E0
3.320419583E0,-6.425930262E-1,7.784925938E0,1.199308991E0
3.322921875E0,-5.659369826E-1,7.574121952E0,1.357411981E0
3.325424062E0,-5.036540031E-1,7.631614208E0,1.170562983E0
3.327926302E0,-3.982520103E-1,7.674733162E0,9.837139845E-1
3.330428541E0,-2.976410091E-1,7.794507980E0,8.447750211E-1
3.332930781E0,-9.641899914E-2,7.875955105E0,7.824919820E-1
3.335437916E0,-5.809099972E-2,7.995729923E0,9.501770139E-1
3.337940156E0,-9.641899914E-2,8.153833389E0,1.022042036E0
3.340442396E0,-4.371799901E-2,8.110713959E0,9.645500183E-1
3.342944583E0,-1.018100046E-2,8.105922699E0,8.878939748E-1
3.345446875E0,-7.725500315E-2,8.158623695E0,7.106270194E-1
3.347949062E0,-2.114029974E-1,8.398174286E0,5.716879964E-1
3.350451302E0,-1.347469985E-1,8.522740364E0,5.094050169E-1
3.352953594E0,6.168400124E-2,8.589814186E0,4.950320125E-1
3.355455781E0,1.048030034E-1,8.695216179E0,5.333600044E-1
3.357958021E0,1.479219943E-1,8.805409431E0,5.812699795E-1
3.360460260E0,1.622949988E-1,8.920392990E0,6.291800141E-1
3.362962500E0,1.287579983E-1,9.073704720E0,5.812699795E-1
3.365454062E0,9.522099793E-2,9.212643623E0,5.285689831E-1
3.367956302E0,1.377400011E-2,9.389910698E0,5.094050169E-1
3.370458541E0,-1.018100046E-2,9.500103951E0,5.189870000E-1
3.372960729E0,-3.413600102E-2,9.567177773E0,4.806590080E-1
3.375462969E0,-1.018100046E-2,9.634251595E0,4.231669903E-1
3.377965208E0,-5.990000209E-4,9.715699196E0,4.231669903E-1
3.380467448E0,2.335599996E-2,9.720490456E0,4.231669903E-1
3.382969687E0,5.689299852E-2,9.739653587E0,4.567039907E-1
3.385471927E0,7.605700195E-2,9.768400192E0,5.908520222E-1
3.387974166E0,1.383399963E-1,9.720490456E0,6.675080061E-1
3.390476406E0,1.383399963E-1,9.686952591E0,7.297909856E-1
3.392978646E0,2.197870016E-1,9.634251595E0,8.112379909E-1
3.395522135E0,3.156070113E-1,9.600714684E0,8.926849961E-1
3.398024375E0,3.778899908E-1,9.571969032E0,9.070580006E-1
3.400526614E0,4.880830050E-1,9.567177773E0,9.453859925E-1
3.403028802E0,6.461859941E-1,9.528849602E0,1.017251015E0
3.405531094E0,8.282439709E-1,9.485731125E0,1.108279943E0
3.408033281E0,1.019883990E0,9.466567039E0,1.237637043E0
3.410535521E0,1.168405056E0,9.452194214E0,1.386157990E0
3.413037760E0,1.355254054E0,9.385120392E0,1.501142025E0
3.415540000E0,1.537312031E0,9.361165047E0,1.611335039E0
3.418042239E0,1.709787965E0,9.361165047E0,1.697572947E0
3.420544479E0,1.872681975E0,9.289299965E0,1.745483041E0
3.423046719E0,2.035576105E0,9.236598969E0,1.755064964E0
3.425529375E0,2.112231970E0,9.212643623E0,1.903586030E0
3.428031614E0,2.222424984E0,9.040167809E0,2.162300110E0
3.430533854E0,2.327826977E0,8.901228905E0,2.320403099E0
3.433036041E0,2.394901037E0,8.824572563E0,2.315612078E0
3.435538281E0,2.500303030E0,8.723961830E0,2.377895117E0
3.438040521E0,2.519467115E0,8.628142357E0,2.473715067E0
3.440542760E0,2.485929966E0,8.580231667E0,2.569535017E0
3.443045000E0,2.380527973E0,8.498785019E0,2.598280907E0
3.445547239E0,2.346991062E0,8.503576279E0,2.646190882E0
3.448049479E0,2.303872108E0,8.527530670E0,2.665354967E0
3.450551719E0,2.222424984E0,8.565858841E0,2.612653971E0
3.453053958E0,2.088277102E0,8.613768578E0,2.588699102E0
3.455564010E0,1.949337959E0,8.671260834E0,2.622236013E0
3.458066250E0,1.848726988E0,8.781454086E0,2.583908081E0
3.460568489E0,1.661877990E0,8.853319168E0,2.502460957E0
3.463070677E0,1.585222006E0,8.925184250E0,2.440177917E0
3.465572916E0,1.441491961E0,9.021003723E0,2.531207085E0
3.468075156E0,1.259433985E0,9.174316406E0,2.559952974E0
3.470577396E0,1.058212042E0,9.260554314E0,2.545579910E0
3.473079635E0,8.761540055E-1,9.394701958E0,2.607862949E0
3.475581875E0,6.749320030E-1,9.452194214E0,2.607862949E0
3.478084114E0,5.264109969E-1,9.600714684E0,2.646190882E0
3.480586354E0,3.778899908E-1,9.730072021E0,2.655772924E0
3.483088594E0,2.629059851E-1,9.792354584E0,2.756383896E0
3.485577708E0,1.670860052E-1,9.830682755E0,2.785130024E0
3.488079948E0,3.293799981E-2,9.921711922E0,2.785130024E0
3.490582187E0,-7.246399671E-2,9.998368263E0,2.761174917E0
3.493084375E0,-1.203740016E-1,1.005106926E1,2.718055964E0
3.495586614E0,-1.587020010E-1,1.002232265E1,2.689310074E0
3.498088906E0,-2.161940038E-1,9.998368263E0,2.655772924E0
3.500591094E0,-2.449399978E-1,9.926503181E0,2.636609077E0
3.503093333E0,-2.545219958E-1,9.811518669E0,2.545579910E0
3.505595573E0,-2.688950002E-1,9.758817673E0,2.497669935E0
3.508097812E0,-2.688950002E-1,9.658206940E0,2.473715067E0
3.510600052E0,-2.257760018E-1,9.442611694E0,2.392267942E0
3.513102291E0,-1.443289965E-1,9.279718399E0,2.329984903E0
3.515620989E0,-4.371799901E-2,9.092868805E0,2.234164953E0
3.518123229E0,5.689299852E-2,8.896437645E0,2.200628042E0
3.520625469E0,2.054139972E-1,8.632932663E0,2.234164953E0
3.523127656E0,3.539350033E-1,8.446084023E0,2.262911081E0
3.525629896E0,4.689190090E-1,8.259235382E0,2.306030035E0
3.528132135E0,5.791119933E-1,8.024476051E0,2.353940010E0
3.530634375E0,8.042889833E-1,7.780135155E0,2.397058964E0
3.533136614E0,1.005511045E0,7.588494778E0,2.473715067E0
3.535638854E0,1.187569022E0,7.339363098E0,2.569535017E0
3.538141094E0,1.340880990E0,7.095022202E0,2.641400099E0
3.540643333E0,1.398373008E0,6.932127953E0,2.698892117E0
3.543145573E0,1.470237970E0,6.750070095E0,2.794712067E0
3.545629479E0,1.556475997E0,6.591967106E0,2.895323038E0
3.548131719E0,1.613968015E0,6.414700031E0,2.933650970E0
3.550633958E0,1.637923002E0,6.270969868E0,3.015098095E0
3.553136146E0,1.661877990E0,6.136822224E0,3.082171917E0
3.555638385E0,1.652295947E0,6.041001797E0,3.163619041E0
3.558140625E0,1.676251054E0,5.940391064E0,3.288184881E0
3.560642864E0,1.748116016E0,5.834989071E0,3.355258942E0
3.563145104E0,1.714578986E0,5.791870117E0,3.379214048E0
3.565647344E0,1.748116016E0,5.748751163E0,3.460660934E0
3.568149583E0,1.791234970E0,5.753541946E0,3.513361931E0
3.570651823E0,1.772071004E0,5.710422993E0,3.513361931E0
3.573154062E0,1.748116016E0,5.777496815E0,3.518152952E0
3.575675260E0,1.733742952E0,5.782288074E0,3.513361931E0
3.578177500E0,1.666669011E0,5.806242943E0,3.551690102E0
3.580679739E0,1.633131981E0,5.796660900E0,3.570853949E0
3.583181927E0,1.618759036E0,5.811034203E0,3.647510052E0
3.585684166E0,1.599594951E0,5.849361897E0,3.590018034E0
3.588186458E0,1.585222006E0,5.868525982E0,3.498989105E0
3.590688646E0,1.556475997E0,5.935599804E0,3.518152952E0
3.593190885E0,1.537312031E0,5.959555149E0,3.518152952E0
3.595693125E0,1.522938967E0,5.945181847E0,3.537317038E0
3.598195364E0,1.537312031E0,5.959555149E0,3.522943974E0
3.600697604E0,1.542103052E0,6.007464886E0,3.479825020E0
3.603199844E0,1.527729988E0,6.055375099E0,3.451078892E0
3.605699583E0,1.503775001E0,6.017046928E0,3.455869913E0
3.608201875E0,1.484611034E0,6.041001797E0,3.417541981E0
3.610704062E0,1.465446949E0,6.055375099E0,3.398377895E0
3.613206302E0,1.542103052E0,6.007464886E0,3.345676899E0
3.615708541E0,1.580430984E0,6.055375099E0,3.374423027E0
3.618210781E0,1.537312031E0,6.002674103E0,3.307348967E0
3.620713021E0,1.575639963E0,5.964345932E0,3.331304073E0
3.623215260E0,1.604385972E0,5.911644936E0,3.307348967E0
3.625717500E0,1.561267018E0,5.935599804E0,3.259438992E0
3.628219739E0,1.585222006E0,5.868525982E0,3.259438992E0
3.630721979E0,1.570848942E0,5.873316765E0,3.292975903E0
3.633224219E0,1.585222006E0,5.791870117E0,3.336095095E0
3.635723281E0,1.570848942E0,5.724795818E0,3.292975903E0
3.638225573E0,1.585222006E0,5.724795818E0,3.345676899E0
3.640727760E0,1.604385972E0,5.710422993E0,3.374423027E0
3.643230000E0,1.628340960E0,5.676886082E0,3.403168917E0
3.645732239E0,1.671460032E0,5.691258907E0,3.441497087E0
3.648234479E0,1.681041956E0,5.700840950E0,3.455869913E0
3.650736719E0,1.767279983E0,5.734377861E0,3.460660934E0
3.653238958E0,1.815189958E0,5.715213776E0,3.441497087E0
3.655741198E0,1.939756036E0,5.811034203E0,3.475033998E0
3.658243437E0,1.954128981E0,5.882898808E0,3.422333002E0
3.660745677E0,2.002038956E0,5.863735199E0,3.393587112E0
3.663247916E0,2.131396055E0,5.926018238E0,3.360049963E0
3.665751562E0,2.227216005E0,6.007464886E0,3.297766924E0
3.668253802E0,2.318244934E0,6.088912010E0,3.278603077E0
3.670756041E0,2.385318995E0,6.208686829E0,3.216320038E0
3.673258281E0,2.452393055E0,6.247014999E0,3.168410063E0
3.675760521E0,2.519467115E0,6.333252907E0,3.149245977E0
3.678262760E0,2.553004026E0,6.429072857E0,3.134872913E0
3.680765000E0,2.562586069E0,6.491355896E0,3.163619041E0
3.683267239E0,2.572168112E0,6.615921974E0,3.187573910E0
3.685769479E0,2.600914001E0,6.702159882E0,3.235483885E0
3.688271719E0,2.553004026E0,6.807561874E0,3.240274906E0
3.690773958E0,2.533839941E0,6.903381824E0,3.360049963E0
3.693276198E0,2.466766119E0,7.018365860E0,3.513361931E0
3.695786041E0,2.428437948E0,7.080648899E0,3.647510052E0
3.698288333E0,2.323035955E0,7.219587803E0,3.757703066E0
3.700790521E0,2.260752916E0,7.320199013E0,3.968507051E0
3.703292760E0,2.164932966E0,7.425601006E0,4.164937973E0
3.705795000E0,2.045157909E0,7.540585041E0,4.323040962E0
3.708297239E0,1.987666011E0,7.607658863E0,4.485935211E0
3.710799479E0,1.858309031E0,7.765761852E0,4.735066891E0
3.713301719E0,1.748116016E0,7.909492016E0,4.907543182E0
3.715803958E0,1.810399055E0,7.976565838E0,5.108765125E0
3.718306198E0,1.819980979E0,8.014893532E0,5.305195808E0
3.720808437E0,1.786443949E0,8.149042130E0,5.487254143E0
3.723310677E0,1.829563022E0,8.206534386E0,5.669312000E0
3.725804114E0,1.911010027E0,8.307145119E0,5.894488811E0
3.728306354E0,1.958920002E0,8.307145119E0,6.023846149E0
3.730808594E0,2.040366888E0,8.316726685E0,6.019054890E0
3.733310833E0,2.140978098E0,8.383801460E0,6.095711231E0
3.735813073E0,2.208051920E0,8.532321930E0,6.129248142E0
3.738315312E0,2.313453913E0,8.608978271E0,6.119666100E0
3.740817552E0,2.404483080E0,8.733544350E0,6.095711231E0
3.743319791E0,2.495512009E0,8.920392990E0,6.028636932E0
3.745822031E0,2.677570105E0,9.049750328E0,5.923234940E0
3.748324271E0,2.821300030E0,9.198270798E0,5.836997032E0
3.750826510E0,2.941075087E0,9.413866043E0,5.707640171E0
3.753328750E0,3.041686058E0,9.686952591E0,5.621401787E0
3.755830364E0,3.137506008E0,9.916920662E0,5.487254143E0
3.758332604E0,3.190207005E0,1.013251591E1,5.448925972E0
3.760834844E0,3.290817976E0,1.030978298E1,5.487254143E0
3.763337083E0,3.348309994E0,1.055891514E1,5.525581837E0
3.765839323E0,3.372265100E0,1.080325603E1,5.659729958E0
3.768341562E0,3.372265100E0,1.104759693E1,5.817832947E0
3.770843802E0,3.405802011E0,1.127756500E1,5.985517979E0
3.773346041E0,3.472876072E0,1.145483208E1,6.052591801E0
3.775848281E0,3.520786047E0,1.157460690E1,6.157993793E0
3.778350521E0,3.693262100E0,1.160814381E1,6.263395786E0
3.780852760E0,3.913647890E0,1.158418941E1,6.335260868E0
3.783355000E0,4.157989025E0,1.149316025E1,6.450244904E0
3.785858750E0,4.344838142E0,1.133026600E1,6.512527943E0
3.788361041E0,4.526896000E0,1.116737175E1,6.574810982E0
3.790863229E0,4.704163074E0,1.100447845E1,6.685004234E0
3.793365469E0,4.728117943E0,1.090386677E1,6.694585800E0
3.795867708E0,4.776028156E0,1.080325603E1,6.622721195E0
3.798369948E0,4.790400982E0,1.072659969E1,6.478991032E0
3.800872187E0,4.694581032E0,1.063557053E1,6.330470085E0
3.803374427E0,4.579596996E0,1.059724331E1,6.205904007E0
3.805876666E0,4.416703224E0,1.047267723E1,6.014264107E0
3.808378906E0,4.272973061E0,1.034811115E1,5.822624207E0
3.810881146E0,4.110078812E0,1.017084408E1,5.669312000E0
3.813383385E0,3.928020954E0,9.907339096E0,5.616611004E0
3.815893073E0,3.698052883E0,9.710907936E0,5.650147915E0
3.818395364E0,3.506412983E0,9.480939865E0,5.602238178E0
3.820897552E0,3.262072086E0,9.279718399E0,5.688476086E0
3.823399791E0,3.056058884E0,9.073704720E0,5.769923210E0
3.825902031E0,2.806926966E0,8.920392990E0,5.789086819E0
3.828404271E0,2.538630962E0,8.795826912E0,5.817832947E0
3.830906510E0,2.275125980E0,8.695216179E0,5.875325203E0
3.833408750E0,2.002038956E0,8.762290001E0,5.880115986E0
3.835910989E0,1.733742952E0,8.814990997E0,5.899280071E0
3.838413229E0,1.398373008E0,9.011422157E0,5.966353893E0
3.840915469E0,1.149240971E0,9.389910698E0,5.884906769E0
3.843417708E0,9.480190277E-1,9.883383751E0,5.789086819E0
3.845910729E0,9.049000144E-1,1.035290241E1,5.683684826E0
3.848412969E0,8.905270100E-1,1.094698620E1,5.520791054E0
3.850915208E0,8.426169753E-1,1.158418941E1,5.420179844E0
3.853417448E0,8.042889833E-1,1.220222759E1,5.262076855E0
3.855919687E0,7.036780119E-1,1.274840164E1,4.998571873E0
3.858421927E0,6.222310066E-1,1.329936695E1,4.821304798E0
3.860924166E0,4.545460045E-1,1.380721283E1,4.562591076E0
3.863426406E0,2.916519940E-1,1.424798489E1,4.279922009E0
3.865928646E0,2.814700082E-2,1.464084721E1,3.891850948E0
3.868430885E0,-3.215959966E-1,1.500017166E1,3.556480885E0
3.870933125E0,-7.000849843E-1,1.539303398E1,3.154036999E0
3.873435364E0,-1.092947006E0,1.581943321E1,2.708473921E0
3.875936979E0,-1.466645002E0,1.626499557E1,2.234164953E0
3.878439219E0,-1.811596990E0,1.670097733E1,1.692782044E0
3.880941458E0,-2.127803087E0,1.702676582E1,1.213682055E0
3.883443698E0,-2.420053959E0,1.730464363E1,6.195979714E-1
3.885945937E0,-2.549411058E0,1.745316315E1,9.258800000E-2
3.888448177E0,-2.496710062E0,1.741962624E1,-3.960939944E-1
3.890950416E0,-2.333816051E0,1.728068733E1,-7.937470078E-1
3.893452656E0,-2.046355963E0,1.697885513E1,-1.124325991E0
3.895954896E0,-1.811596990E0,1.664348412E1,-1.363875985E0
3.898457135E0,-1.730149984E0,1.624583244E1,-1.555516005E0
3.900959375E0,-1.706194997E0,1.588171577E1,-1.680081964E0
3.903461614E0,-1.806805968E0,1.544573498E1,-1.708827972E0
3.905963750E0,-2.017610073E0,1.516785717E1,-1.723201036E0
3.908466041E0,-2.261950970E0,1.497142601E1,-1.704036951E0
3.910968229E0,-2.463172913E0,1.473187637E1,-1.560307026E0
3.913470469E0,-2.578156948E0,1.442046070E1,-1.282428980E0
3.915972708E0,-2.515873909E0,1.411383724E1,-1.004551053E0
3.918474948E0,-2.376935005E0,1.371139336E1,-7.793740034E-1
3.920977187E0,-2.151757956E0,1.325624847E1,-4.152579904E-1
3.923479427E0,-1.902626038E0,1.271486473E1,-7.988800108E-2
3.925981666E0,-1.634330034E0,1.218785477E1,2.746460140E-1
3.928483906E0,-1.346869946E0,1.164168072E1,6.770899892E-1
3.930986146E0,-1.030663967E0,1.108113384E1,1.050788045E0
3.933488385E0,-6.521750093E-1,1.050621414E1,1.386157990E0
3.935954271E0,-3.072229922E-1,9.940876007E0,1.549052000E0
3.938456510E0,-2.455399930E-2,9.370746613E0,1.573006988E0
3.940958698E0,2.916519940E-1,8.800618172E0,1.496351004E0
3.943460937E0,5.407840014E-1,8.259235382E0,1.319084048E0
3.945963177E0,7.755429745E-1,7.765761852E0,1.055578947E0
3.948465416E0,1.048629999E0,7.210006237E0,7.106270194E-1
3.950967656E0,1.254642963E0,6.702159882E0,3.992120028E-1
3.953469896E0,1.441491961E0,6.247014999E0,1.114100032E-2
3.955972135E0,1.518147945E0,5.787078857E0,-4.104669988E-1
3.958474375E0,1.551684976E0,5.432545185E0,-8.416569829E-1
3.960976614E0,1.585222006E0,5.078011036E0,-1.263265014E0
3.963478854E0,1.551684976E0,4.819296837E0,-1.699246049E0
3.966019896E0,1.455865026E0,4.546209812E0,-2.125644922E0
3.968522187E0,1.288179994E0,4.488718033E0,-2.513715982E0
3.971024375E0,1.139659047E0,4.436017036E0,-2.896996021E0
3.973526614E0,9.863470197E-1,4.383316040E0,-3.179665089E0
3.976028854E0,8.617810011E-1,4.359361172E0,-3.419214964E0
3.978531094E0,7.467970252E-1,4.349779129E0,-3.606064081E0
3.981033333E0,5.886939764E-1,4.364151955E0,-3.783330917E0
3.983535573E0,4.449639916E-1,4.536627769E0,-4.099536896E0
3.986037812E0,3.060249984E-1,4.723476887E0,-4.348669052E0
3.988540052E0,1.383399963E-1,4.881579876E0,-4.454071045E0
3.991042291E0,-2.455399930E-2,5.197785854E0,-4.540308952E0
3.993544531E0,-2.161940038E-1,5.542737961E0,-4.583427906E0
3.996028541E0,-3.311780095E-1,5.921226978E0,-4.478025913E0
3.998530781E0,-4.317890108E-1,6.366789818E0,-4.358251095E0
4.001032969E0,-4.940719903E-1,6.932127953E0,-4.406160831E0
4.003535208E0,-5.803099871E-1,7.650777817E0,-4.358251095E0
4.006037448E0,-6.138470173E-1,8.302353859E0,-4.238475800E0
4.008539739E0,-5.036540031E-1,8.901228905E0,-4.027671814E0
4.011041927E0,-2.449399978E-1,9.442611694E0,-3.778539896E0
4.013544166E0,1.527130008E-1,9.921711922E0,-3.596482038E0
4.016046406E0,5.743209720E-1,1.037206554E1,-3.337768078E0
4.018548698E0,9.432280064E-1,1.084637547E1,-3.079054117E0
4.021050885E0,1.398373008E0,1.116258144E1,-2.839504004E0
4.023553125E0,1.843935966E0,1.136859417E1,-2.561625957E0
4.026071510E0,2.208051920E0,1.154106998E1,-2.298120975E0
4.028573750E0,2.438019991E0,1.166084480E1,-1.981914997E0
4.031075989E0,2.739852905E0,1.167521763E1,-1.732782960E0
4.033578229E0,3.012939930E0,1.151232433E1,-1.445322990E0
4.036080469E0,3.233325958E0,1.138775826E1,-1.215355039E0
4.038582708E0,3.401010990E0,1.125360966E1,-9.949690104E-1
4.041084948E0,3.535159111E0,1.108592510E1,-8.656119704E-1
4.043587187E0,3.669306993E0,1.087512112E1,-7.218819857E-1
4.046089427E0,3.731590033E0,1.077930069E1,-6.116889715E-1
4.048591666E0,3.736381054E0,1.058766079E1,-4.296309948E-1
4.051093906E0,3.726799011E0,1.019000816E1,-6.072400138E-2
4.053596146E0,3.515995026E0,9.955248833E0,6.384199858E-2
4.056059427E0,3.271653891E0,9.835474014E0,1.165430024E-1
4.058561666E0,2.979403019E0,9.677371025E0,1.740349978E-1
4.061063854E0,2.610496044E0,9.509686470E0,1.979900002E-1
4.063566094E0,2.370945930E0,9.385120392E0,1.452890038E-1
4.066068333E0,2.174515009E0,9.337209702E0,4.467799887E-2
4.068570573E0,2.064321995E0,9.346792221E0,6.349999923E-3
4.071072812E0,2.025994062E0,9.447402954E0,-9.426099807E-2
4.073575052E0,2.270334959E0,9.016213417E0,1.357070059E-1
4.076077291E0,1.978083968E0,8.848527908E0,3.465110064E-1
4.078579531E0,1.542103052E0,9.179106712E0,2.794370055E-1
4.081081771E0,1.460656047E0,9.274927139E0,3.513019979E-1
4.083584010E0,1.369626999E0,9.394701958E0,3.225559890E-1
4.086127291E0,1.211524010E0,9.423447609E0,3.321380019E-1
4.088629583E0,9.767649770E-1,9.514476776E0,4.471220076E-1
4.091131771E0,7.036780119E-1,9.576760292E0,4.806590080E-1
4.093634010E0,5.216199756E-1,9.648625374E0,4.662860036E-1
4.096136250E0,4.449639916E-1,9.744444847E0,5.094050169E-1
4.098638489E0,3.635169864E-1,9.825892448E0,4.710769951E-1
4.101140729E0,2.485329956E-1,9.845055580E0,3.656750023E-1
4.103642969E0,2.102050036E-1,9.859429359E0,2.363180071E-1
4.106145208E0,1.575040072E-1,9.902547836E0,-2.239600010E-2
4.108647448E0,4.191999789E-3,9.916920662E0,-7.030600309E-2
4.111149687E0,8.983000182E-3,9.969621658E0,-7.988800108E-2
4.113651927E0,1.383399963E-1,9.926503181E0,-2.044540048E-1
4.116114687E0,2.772789896E-1,9.801937103E0,-4.008849859E-1
4.118616927E0,3.826810122E-1,9.701326370E0,-5.350329876E-1
4.121119114E0,3.730989993E-1,9.758817673E0,-5.925250053E-1
4.123621302E0,4.832920134E-1,9.754027367E0,-7.602099776E-1
4.126123489E0,6.366040111E-1,9.744444847E0,-9.183130264E-1
4.128625677E0,8.426169753E-1,9.734863281E0,-9.326859713E-1
4.131127916E0,9.863470197E-1,9.710907936E0,-9.135220051E-1
4.133630104E0,1.015092969E0,9.677371025E0,-9.853870273E-1
4.136132291E0,1.139659047E0,9.696535110E0,-1.014132977E0
4.138634479E0,1.259433985E0,9.691743851E0,-9.997599721E-1
4.141136666E0,1.407955050E0,9.706116676E0,-9.758049846E-1
4.143638906E0,1.475028992E0,9.710907936E0,-8.943579793E-1
4.146137864E0,1.508566022E0,9.730072021E0,-7.410460114E-1
4.148640104E0,1.604385972E0,9.801937103E0,-5.637789965E-1
4.151142291E0,1.709787965E0,9.835474014E0,-4.008849859E-1
4.153644479E0,1.781653047E0,9.801937103E0,-2.571550012E-1
4.156146666E0,1.834354043E0,9.854638100E0,-1.038430035E-1
4.158648854E0,1.925382972E0,9.792354584E0,-1.281400025E-2
4.161151094E0,2.011620998E0,9.701326370E0,7.342399657E-2
4.163653281E0,2.083486080E0,9.677371025E0,1.931989938E-1
4.166155469E0,2.169723988E0,9.634251595E0,2.123630047E-1
4.168657656E0,2.198470116E0,9.615088463E0,2.650640011E-1
4.171159844E0,2.279917002E0,9.524059296E0,3.417200148E-1
4.173662083E0,2.337409019E0,9.500103951E0,3.560929894E-1
4.176169791E0,2.323035955E0,9.480939865E0,3.369289935E-1
4.178672031E0,2.366154909E0,9.409074783E0,3.081830144E-1
4.181174219E0,2.447602034E0,9.361165047E0,2.938100100E-1
4.183676406E0,2.505094051E0,9.274927139E0,2.075719982E-1
4.186178594E0,2.562586069E0,9.179106712E0,1.117520034E-1
4.188680781E0,2.648823977E0,9.126405716E0,8.779700100E-2
4.191183021E0,2.677570105E0,9.107241631E0,6.349999923E-3
4.193685208E0,2.696733952E0,9.107241631E0,-5.114199966E-2
4.196187396E0,2.773390055E0,9.030586243E0,-7.988800108E-2
4.198689583E0,2.816509008E0,9.011422157E0,-1.709170043E-1
4.201191771E0,2.869210005E0,8.997049332E0,-2.811099887E-1
4.203694010E0,2.864418983E0,9.011422157E0,-3.481839895E-1
4.206195573E0,2.850045919E0,9.025794983E0,-3.913030028E-1
4.208697812E0,2.893165112E0,8.963512421E0,-4.967049956E-1
4.211200000E0,2.969820976E0,8.934765816E0,-4.871230125E-1
4.213702187E0,2.969820976E0,8.944348335E0,-5.733609796E-1
4.216204375E0,2.969820976E0,8.901228905E0,-6.164799929E-1
4.218706562E0,2.945866108E0,8.862900734E0,-6.931359768E-1
4.221208802E0,3.017730951E0,8.805409431E0,-7.506279945E-1
4.223710989E0,3.027312994E0,8.800618172E0,-7.745829821E-1
4.226213177E0,3.017730951E0,8.795826912E0,-8.224930167E-1
4.228715364E0,2.960238934E0,8.786245346E0,-8.560299873E-1
4.231217552E0,2.955447912E0,8.714380264E0,-8.943579793E-1
4.233719791E0,2.883583069E0,8.757498741E0,-8.847759962E-1
4.236258594E0,2.907537937E0,8.728753090E0,-9.326859713E-1
4.238760781E0,2.859627962E0,8.685633659E0,-9.422680140E-1
4.241263021E0,2.744643927E0,8.728753090E0,-8.704029918E-1
4.243765208E0,2.691942930E0,8.747917175E0,-8.704029918E-1
4.246267396E0,2.658406019E0,8.786245346E0,-8.129109740E-1
4.248769583E0,2.615287066E0,8.800618172E0,-8.081200123E-1
4.251271771E0,2.533839941E0,8.791035652E0,-7.123000026E-1
4.253773958E0,2.509885073E0,8.814990997E0,-6.500170231E-1
4.256276198E0,2.476347923E0,8.805409431E0,-6.116889715E-1
4.258778385E0,2.409274101E0,8.824572563E0,-5.110780001E-1
4.261280573E0,2.318244934E0,8.872483253E0,-4.440039992E-1
4.263782812E0,2.332617998E0,8.882064819E0,-3.577660024E-1
4.266260260E0,2.313453913E0,8.819782257E0,-3.338110149E-1
4.268762448E0,2.246380091E0,8.858110428E0,-2.571550012E-1
4.271264687E0,2.212842941E0,8.810199738E0,-2.236180007E-1
4.273766823E0,2.198470116E0,8.791035652E0,-2.140360028E-1
4.276269062E0,2.160141945E0,8.786245346E0,-1.757079959E-1
4.278771250E0,2.102649927E0,8.752708435E0,-1.852899939E-1
4.281273437E0,2.069113016E0,8.781454086E0,-2.236180007E-1
4.283775625E0,1.982874990E0,8.723961830E0,-1.469620019E-1
4.286277864E0,1.915801048E0,8.671260834E0,-1.230069995E-1
4.288780052E0,1.867890954E0,8.704797745E0,-7.030600309E-2
4.291282239E0,1.819980979E0,8.690424919E0,-3.676899895E-2
4.293784427E0,1.743324995E0,8.723961830E0,4.467799887E-2
4.296290729E0,1.690623999E0,8.738334656E0,8.300600201E-2
4.298792916E0,1.618759036E0,8.700007439E0,8.779700100E-2
4.301295156E0,1.566058040E0,8.743125916E0,1.165430024E-1
4.303797344E0,1.446282983E0,8.719170570E0,1.644529998E-1
4.306299531E0,1.345672011E0,8.685633659E0,1.884080023E-1
4.308801719E0,1.259433985E0,8.690424919E0,1.884080023E-1
4.311303906E0,1.211524010E0,8.652096748E0,2.890189886E-1
4.313806094E0,1.177986979E0,8.637723923E0,3.800480068E-1
4.316308281E0,1.029466033E0,8.666469574E0,4.231669903E-1
4.318810521E0,9.240639806E-1,8.661679268E0,4.279580116E-1
4.321312708E0,9.192730188E-1,8.719170570E0,4.950320125E-1
4.323814896E0,9.288550019E-1,8.776662827E0,5.429419875E-1
4.326310937E0,9.049000144E-1,8.843736649E0,5.525239706E-1
4.328813125E0,9.144819975E-1,8.891647339E0,5.956429839E-1
4.331315312E0,9.049000144E-1,8.977885246E0,5.429419875E-1
4.333817552E0,9.192730188E-1,9.021003723E0,5.668969750E-1
4.336319739E0,9.623919725E-1,9.040167809E0,5.956429839E-1
4.338821927E0,1.058212042E0,9.049750328E0,5.764790177E-1
4.341324114E0,1.149240971E0,9.145569801E0,5.716879964E-1
4.343826302E0,1.221106052E0,9.231807709E0,5.764790177E-1
4.346328541E0,1.340880990E0,9.207853317E0,5.477330089E-1
4.348830729E0,1.465446949E0,9.303672791E0,4.854499996E-1
4.351332916E0,1.594804049E0,9.308464050E0,3.608840108E-1
4.353835104E0,1.748116016E0,9.327628136E0,2.411089987E-1
4.356343385E0,1.853518009E0,9.303672791E0,1.788260043E-1
4.358845573E0,1.978083968E0,9.303672791E0,1.021699980E-1
4.361347812E0,2.049948931E0,9.284508705E0,-1.281400025E-2
4.363850000E0,2.131396055E0,9.174316406E0,-1.086340025E-1
4.366352187E0,2.236798048E0,9.169525146E0,-1.661259979E-1
4.368854375E0,2.308662891E0,9.126405716E0,-1.900810003E-1
4.371356562E0,2.370945930E0,9.088077545E0,-1.804990023E-1
4.373858750E0,2.442811012E0,8.992258072E0,-1.948720068E-1
4.376360937E0,2.529048920E0,9.030586243E0,-2.236180007E-1
4.378863177E0,2.533839941E0,9.097660065E0,-1.948720068E-1
4.381365364E0,2.591331959E0,9.164733887E0,-1.277980059E-1
4.383867552E0,2.610496044E0,9.159942627E0,-1.565439999E-1
4.386373333E0,2.639241934E0,9.183897972E0,-1.852899939E-1
4.388875521E0,2.644032955E0,9.236598969E0,-1.900810003E-1
4.391377760E0,2.629659891E0,9.265344620E0,-2.188269943E-1
4.393879948E0,2.610496044E0,9.279718399E0,-2.475730032E-1
4.396382135E0,2.600914001E0,9.294091225E0,-2.331999987E-1
4.398884323E0,2.644032955E0,9.342000961E0,-2.715280056E-1
4.401386510E0,2.581749916E0,9.399493217E0,-2.667370141E-1
4.403888698E0,2.586540937E0,9.456985474E0,-3.242290020E-1
4.406390937E0,2.557795048E0,9.480939865E0,-3.913030028E-1
4.408893125E0,2.442811012E0,9.428238869E0,-4.296309948E-1
4.411395312E0,2.414064884E0,9.480939865E0,-4.919140041E-1
4.413897500E0,2.385318995E0,9.428238869E0,-5.302420259E-1
4.416395052E0,2.327826977E0,9.409074783E0,-5.829430223E-1
4.418897239E0,2.284708023E0,9.385120392E0,-6.739720106E-1
4.421399479E0,2.251171112E0,9.318045616E0,-7.554190159E-1
4.423901614E0,2.203260899E0,9.260554314E0,-8.512390256E-1
4.426403854E0,2.198470116E0,9.203062057E0,-9.470589757E-1
4.428906041E0,2.217633963E0,9.135988235E0,-1.047670007E0
4.431408229E0,2.251171112E0,9.068914413E0,-1.153072000E0
4.433910416E0,2.251171112E0,9.025794983E0,-1.258473992E0
4.436412656E0,2.251171112E0,9.006630898E0,-1.339920998E0
4.438914844E0,2.222424984E0,9.001839638E0,-1.373458028E0
4.441417031E0,2.188888073E0,9.011422157E0,-1.454905033E0
4.443919219E0,2.188888073E0,9.068914413E0,-1.450114012E0
4.446458854E0,2.140978098E0,9.021003723E0,-1.402204037E0
4.448961041E0,2.069113016E0,9.025794983E0,-1.368667006E0
4.451463229E0,1.997248054E0,9.073704720E0,-1.315966010E0
4.453965416E0,1.930173993E0,9.064123154E0,-1.253682971E0
4.456467604E0,1.853518009E0,9.064123154E0,-1.162654042E0
4.458969844E0,1.757698059E0,9.059331894E0,-1.047670007E0
4.461472031E0,1.652295947E0,9.088077545E0,-9.470589757E-1
4.463974219E0,1.518147945E0,9.078495979E0,-8.704029918E-1
4.466476406E0,1.398373008E0,9.073704720E0,-7.889559865E-1
4.468978646E0,1.269016027E0,9.140778542E0,-6.883450150E-1
4.471480833E0,1.154031992E0,9.183897972E0,-5.973160267E-1
4.473983021E0,1.000720024E0,9.217434883E0,-5.206599832E-1
4.476447396E0,8.953179717E-1,9.308464050E0,-4.967049956E-1
4.478949583E0,8.713629842E-1,9.385120392E0,-5.158690214E-1
4.481451823E0,8.138710260E-1,9.394701958E0,-5.733609796E-1
4.483954010E0,8.809450269E-1,9.413866043E0,-5.877339840E-1
4.486456198E0,8.953179717E-1,9.404283524E0,-6.835539937E-1
4.488958385E0,9.528099895E-1,9.533640862E0,-7.506279945E-1
4.491460573E0,1.082167029E0,9.581550598E0,-8.943579793E-1
4.493962760E0,1.211524010E0,9.710907936E0,-1.009341955E0
4.496464948E0,1.417536974E0,9.888175011E0,-1.062042952E0
4.498967187E0,1.527729988E0,1.019479942E1,-1.133908033E0
4.501469375E0,1.652295947E0,1.051579571E1,-1.167444944E0
4.503971562E0,1.752907038E0,1.094219494E1,-1.248891950E0
4.506457760E0,1.834354043E0,1.142129517E1,-1.387830973E0
4.508960000E0,1.834354043E0,1.190039539E1,-1.550724983E0
4.511462187E0,1.877472997E0,1.234116745E1,-1.660917997E0
4.513964375E0,1.954128981E0,1.279631233E1,-1.742365003E0
4.516466562E0,2.035576105E0,1.319875622E1,-1.876513004E0
4.518968802E0,2.126605034E0,1.357245445E1,-2.101690054E0
4.521470989E0,2.284708023E0,1.392698765E1,-2.350821972E0
4.523973177E0,2.509885073E0,1.422882080E1,-2.552043915E0
4.526475364E0,2.763808012E0,1.452586269E1,-2.849086046E0
4.528977604E0,3.032104015E0,1.479895020E1,-3.189246893E0
4.531479791E0,3.271653891E0,1.513432026E1,-3.572526932E0
4.533981979E0,3.463294029E0,1.538345242E1,-3.874360085E0
4.536489687E0,3.640561104E0,1.560862923E1,-4.133073807E0
4.538991927E0,3.774708986E0,1.586255169E1,-4.439698219E0
4.541494114E0,3.789082050E0,1.612126541E1,-4.621756077E0
4.543996302E0,3.779500008E0,1.642789078E1,-4.727158070E0
4.546498489E0,3.702843904E0,1.673930550E1,-4.765485764E0
4.549000677E0,3.597441912E0,1.701718330E1,-4.746322155E0
4.551502916E0,3.453711987E0,1.738129807E1,-4.645710945E0
4.554005104E0,3.281235933E0,1.772625160E1,-4.506772041E0
4.556507291E0,3.113550901E0,1.804724884E1,-4.248057842E0
4.559009479E0,2.955447912E0,1.830596161E1,-3.922270060E0
4.561511666E0,2.811717987E0,1.854072189E1,-3.601273060E0
4.564013906E0,2.615287066E0,1.867966080E1,-3.280276060E0
4.566549739E0,2.457184076E0,1.863654137E1,-2.959279060E0
4.569051927E0,2.346991062E0,1.848801994E1,-2.714937925E0
4.571554166E0,2.246380091E0,1.825805283E1,-2.580790043E0
4.574056354E0,2.140978098E0,1.798017311E1,-2.456223965E0
4.576558541E0,1.963711023E0,1.765438652E1,-2.403522968E0
4.579060729E0,1.815189958E0,1.735255241E1,-2.355612993E0
4.581562969E0,1.546893954E0,1.707946587E1,-2.278956890E0
4.584065156E0,1.240270019E0,1.675367737E1,-2.288538933E0
4.586567344E0,9.767649770E-1,1.643747139E1,-2.259793043E0
4.589069531E0,7.180510163E-1,1.617396736E1,-2.259793043E0
4.591571719E0,5.168290138E-1,1.595837212E1,-2.245419979E0
4.594073958E0,3.778899908E-1,1.563737488E1,-2.245419979E0
4.596590416E0,2.581149936E-1,1.531637764E1,-2.192718983E0
4.599092604E0,1.431310028E-1,1.497621727E1,-2.159182072E0
4.601594791E0,1.377400011E-2,1.460731030E1,-2.101690054E0
4.604096979E0,-9.162800014E-2,1.420486641E1,-2.039407015E0
4.606599219E0,-2.018209994E-1,1.382637691E1,-1.957960010E0
4.609101406E0,-3.072229922E-1,1.346705246E1,-1.881304026E0
4.611603594E0,-4.557439983E-1,1.310772705E1,-1.771111012E0
4.614105781E0,-5.659369826E-1,1.271007442E1,-1.670500040E0
4.616607969E0,-6.330109835E-1,1.238428593E1,-1.593844056E0
4.619110208E0,-7.432039976E-1,1.210161686E1,-1.512397051E0
4.621612396E0,-8.821430206E-1,1.182373905E1,-1.392621994E0
4.624114583E0,-9.348440170E-1,1.157939816E1,-1.344712019E0
4.626604375E0,-9.156799912E-1,1.130631065E1,-1.200981975E0
4.629106614E0,-9.492170215E-1,1.098531437E1,-1.081207037E0
4.631608854E0,-9.587990046E-1,1.070264530E1,-9.662230015E-1
4.634111094E0,-1.011500001E0,1.031457424E1,-8.847759962E-1
4.636613333E0,-1.049828053E0,9.936084747E0,-7.602099776E-1
4.639115573E0,-1.193557978E0,9.624670029E0,-6.500170231E-1
4.641617812E0,-1.270213962E0,9.356373787E0,-6.308529973E-1
4.644120052E0,-1.270213962E0,9.078495979E0,-7.458369732E-1
4.646622291E0,-1.322914958E0,8.781454086E0,-8.464480042E-1
4.649124531E0,-1.385197997E0,8.503576279E0,-8.656119704E-1
4.651626771E0,-1.418735027E0,8.321517944E0,-8.751940131E-1
4.654129010E0,-1.399570942E0,8.091549873E0,-8.081200123E-1
4.656592812E0,-1.466645002E0,7.856791019E0,-6.835539937E-1
4.659095000E0,-1.437898993E0,7.693896770E0,-5.829430223E-1
4.661597239E0,-1.404361963E0,7.473511219E0,-5.302420259E-1
4.664099479E0,-1.375615954E0,7.281870842E0,-3.817209899E-1
4.666601719E0,-1.366034031E0,7.109395027E0,-2.859010100E-1
4.669103958E0,-1.298959970E0,6.984828949E0,-1.421709955E-1
4.671606198E0,-1.222303987E0,6.817143917E0,1.558999997E-3
4.674108437E0,-1.145648003E0,6.625504017E0,1.309159994E-1
4.676610677E0,-1.112110972E0,6.563220978E0,2.986010015E-1
4.679112916E0,-1.001917958E0,6.481773853E0,4.375399947E-1
4.681615156E0,-9.444260001E-1,6.395535946E0,5.477330089E-1
4.684117396E0,-8.246510029E-1,6.361999035E0,6.627169847E-1
4.686619896E0,-7.096670270E-1,6.361999035E0,7.681189775E-1
4.689122083E0,-6.617569923E-1,6.390745163E0,8.447750211E-1
4.691624323E0,-6.809210181E-1,6.515310764E0,8.735209703E-1
4.694126562E0,-7.288309932E-1,6.630294800E0,9.693409801E-1
4.696628802E0,-8.006960154E-1,6.740488052E0,1.022042036E0
4.699131041E0,-8.006960154E-1,6.821935177E0,1.098698020E0
4.701633281E0,-8.150690198E-1,6.936919212E0,1.098698020E0
4.704135521E0,-9.300529957E-1,7.066276073E0,1.122653008E0
4.706637760E0,-9.971269965E-1,7.233961105E0,1.098698020E0
4.709140000E0,-1.045037031E0,7.492674828E0,1.012459993E0
4.711642239E0,-9.827539921E-1,7.583703995E0,9.022669792E-1
4.714144479E0,-9.540079832E-1,7.550167084E0,1.007668972E0
4.716662239E0,-1.198348999E0,7.866373062E0,9.645500183E-1
4.719164427E0,-1.346869946E0,8.412547112E0,7.633280158E-1
4.721666666E0,-1.279796004E0,8.795826912E0,5.860610008E-1
4.724168906E0,-1.011500001E0,9.188689232E0,3.417200148E-1
4.726671146E0,-9.013069868E-1,9.591133118E0,2.842279971E-1
4.729173385E0,-8.533970118E-1,9.912130356E0,2.746460140E-1
4.731675625E0,-7.671589851E-1,1.020438099E1,2.171539962E-1
4.734177864E0,-6.761299968E-1,1.037685680E1,1.165430024E-1
4.736680156E0,-6.090559959E-1,1.062119770E1,-4.156000167E-2
4.739182344E0,-6.282200217E-1,1.094219494E1,-2.619459927E-1
4.741684635E0,-6.234290004E-1,1.122486401E1,-4.487949908E-1
4.744186823E0,-4.269979894E-1,1.123923683E1,-5.541970134E-1
4.746724219E0,-1.922390014E-1,1.118653584E1,-6.212710142E-1
4.749226458E0,-9.641899914E-2,1.109550667E1,-6.356440187E-1
4.751728698E0,8.983000182E-3,1.090386677E1,-5.685700178E-1
4.754230937E0,4.731100053E-2,1.066431713E1,-5.494059920E-1
4.756733177E0,9.522099793E-2,1.041997623E1,-5.685700178E-1
4.759235416E0,1.000119969E-1,1.012772465E1,-5.062869787E-1
4.761737656E0,1.814589947E-1,9.821101189E0,-3.769299984E-1
4.764239896E0,2.054139972E-1,9.562387466E0,-3.338110149E-1
4.766742135E0,2.772789896E-1,9.313255310E0,-1.565439999E-1
4.769244375E0,4.449639916E-1,9.088077545E0,-2.239600010E-2
4.771746614E0,6.270220280E-1,8.939557076E0,-3.231999930E-3
4.774248854E0,8.042889833E-1,8.824572563E0,1.500799954E-1
4.776712500E0,9.384369850E-1,8.752708435E0,3.465110064E-1
4.779214739E0,1.067793965E0,8.719170570E0,5.333600044E-1
4.781716979E0,1.254642963E0,8.671260834E0,7.393730283E-1
4.784219219E0,1.417536974E0,8.618559837E0,8.495659828E-1
4.786721458E0,1.585222006E0,8.647306442E0,9.932960272E-1
4.789223698E0,1.757698059E0,8.647306442E0,1.127444029E0
4.791725937E0,1.934965014E0,8.671260834E0,1.204100013E0
4.794228177E0,2.049948931E0,8.709589005E0,1.252009988E0
4.796730469E0,2.131396055E0,8.700007439E0,1.319084048E0
4.799232656E0,2.255961895E0,8.695216179E0,1.299919963E0
4.801734948E0,2.323035955E0,8.695216179E0,1.347830057E0
4.804237135E0,2.366154909E0,8.695216179E0,1.405321956E0
4.806777552E0,2.495512009E0,8.680843353E0,1.462813973E0
4.809279791E0,2.548213005E0,8.747917175E0,1.458022952E0
4.811782031E0,2.548213005E0,8.834155083E0,1.539469957E0
4.814284271E0,2.562586069E0,8.939557076E0,1.755064964E0
4.816786510E0,2.385318995E0,8.987466812E0,1.917958975E0
4.819288750E0,2.351782084E0,9.054540634E0,1.985033035E0
4.821790989E0,2.294290066E0,9.174316406E0,1.965868950E0
4.824293229E0,2.222424984E0,9.260554314E0,2.032943010E0
4.826795469E0,2.169723988E0,9.394701958E0,2.052107096E0
4.829297708E0,2.140978098E0,9.576760292E0,2.047316074E0
4.831799948E0,2.126605034E0,9.720490456E0,2.013778925E0
4.834302187E0,2.097858906E0,9.840265274E0,1.989824057E0
4.836765260E0,2.102649927E0,9.964831352E0,2.018569946E0
4.839267500E0,2.021203041E0,1.007981491E1,2.004196882E0
4.841769739E0,1.978083968E0,1.019479942E1,2.032943010E0
4.844271979E0,1.824772000E0,1.024750042E1,2.095226049E0
4.846774219E0,1.733742952E0,1.030499172E1,2.133553982E0
4.849276510E0,1.690623999E0,1.033852863E1,2.234164953E0
4.851778698E0,1.633131981E0,1.038164806E1,2.277283907E0
4.854280989E0,1.623550057E0,1.038164806E1,2.329984903E0
4.856783177E0,1.498983979E0,1.037206554E1,2.444968939E0
4.859285416E0,1.470237970E0,1.042476654E1,2.459342003E0
4.861787656E0,1.527729988E0,1.045830441E1,2.468924046E0
4.864289896E0,1.494192958E0,1.041518497E1,2.468924046E0
4.866810781E0,1.455865026E0,1.040081215E1,2.516834021E0
4.869313021E0,1.383999944E0,1.044393063E1,2.473715067E0
4.871815260E0,1.321717024E0,1.039602089E1,2.459342003E0
4.874317500E0,1.269016027E0,1.030020142E1,2.459342003E0
4.876819739E0,1.235478997E0,1.018521690E1,2.344357967E0
4.879321979E0,1.187569022E0,1.006544209E1,2.234164953E0
4.881824219E0,1.173195958E0,9.878593445E0,2.210210085E0
4.884326458E0,1.139659047E0,9.648625374E0,2.114389896E0
4.886828698E0,1.106122017E0,9.495312691E0,2.047316074E0
4.889330937E0,1.120494962E0,9.250971794E0,2.008987904E0
4.891833177E0,1.110913038E0,9.044959068E0,1.965868950E0
4.894335416E0,1.072584987E0,8.862900734E0,1.870049000E0
4.896819948E0,1.043838978E0,8.685633659E0,1.836511970E0
4.899322135E0,1.063002944E0,8.460456848E0,1.836511970E0
4.901824375E0,1.067793965E0,8.254444122E0,1.831720948E0
4.904326614E0,1.005511045E0,8.038848877E0,1.870049000E0
4.906828854E0,9.719740152E-1,7.856791019E0,1.927541018E0
4.909331094E0,9.432280064E-1,7.665151119E0,2.018569946E0
4.911833333E0,8.905270100E-1,7.487884045E0,2.114389896E0
4.914335573E0,8.521990180E-1,7.310616970E0,2.229373932E0
4.916837812E0,7.659609914E-1,7.109395027E0,2.306030035E0
4.919340052E0,6.893050075E-1,6.903381824E0,2.397058964E0
4.921842291E0,6.701409817E-1,6.726115227E0,2.507251978E0
4.924344531E0,7.036780119E-1,6.587175846E0,2.579117060E0
4.926869896E0,6.413949728E-1,6.424282074E0,2.660563946E0
4.929372135E0,6.078580022E-1,6.266179085E0,2.761174917E0
4.931874375E0,6.749320030E-1,6.146403790E0,2.885740995E0
4.934376614E0,7.228419781E-1,5.945181847E0,3.019889116E0
4.936878854E0,7.515879869E-1,5.906854153E0,3.158828020E0
4.939381094E0,8.186619878E-1,5.782288074E0,3.288184881E0
4.941883333E0,8.186619878E-1,5.715213776E0,3.465451956E0
4.944385573E0,7.947070003E-1,5.657721996E0,3.594809055E0
4.946887812E0,8.617810011E-1,5.605021000E0,3.690629005E0
4.949390052E0,8.378260136E-1,5.605021000E0,3.709793091E0
4.951892291E0,7.947070003E-1,5.624185085E0,3.757703066E0
4.954394531E0,8.474079967E-1,5.600230217E0,3.877477884E0
4.956867604E0,9.096909761E-1,5.581066132E0,3.939760923E0
4.959369791E0,9.432280064E-1,5.581066132E0,3.939760923E0
4.961872031E0,9.432280064E-1,5.557110786E0,3.915806055E0
4.964374271E0,9.815559983E-1,5.571484089E0,3.901432991E0
4.966876510E0,1.000720024E0,5.595438957E0,3.891850948E0
4.969378750E0,1.077376008E0,5.600230217E0,3.824776888E0
4.971880989E0,1.048629999E0,5.600230217E0,3.824776888E0
4.974383229E0,1.053421021E0,5.662512779E0,3.776866913E0
4.976885469E0,1.125285983E0,5.600230217E0,3.724165916E0
4.979387708E0,1.154031992E0,5.605021000E0,3.666673899E0
4.981889948E0,1.120494962E0,5.605021000E0,3.637928009E0
4.984392187E0,1.144449949E0,5.552320004E0,3.551690102E0
4.986887031E0,1.154031992E0,5.576274872E0,3.451078892E0
4.989389219E0,1.149240971E0,5.605021000E0,3.369632006E0
4.991891458E0,1.053421021E0,5.643349171E0,3.278603077E0
4.994393698E0,1.029466033E0,5.628975868E0,3.130081892E0
4.996895937E0,1.000720024E0,5.619393826E0,3.048635006E0
4.999398177E0,9.288550019E-1,5.648139954E0,2.981560946E0
5.001900416E0,8.569899797E-1,5.686468124E0,2.861785889E0
5.004402656E0,7.659609914E-1,5.624185085E0,2.785130024E0
5.006904896E0,7.515879869E-1,5.619393826E0,2.727638006E0
5.009407135E0,6.509770155E-1,5.600230217E0,2.703682899E0
5.011909375E0,6.030669808E-1,5.590648174E0,2.756383896E0
5.014411614E0,5.168290138E-1,5.518783092E0,2.813875914E0
5.016951094E0,4.928739965E-1,5.470872879E0,2.924068928E0
5.019453333E0,4.641279876E-1,5.466082096E0,2.976769924E0
5.021955573E0,4.832920134E-1,5.427753925E0,3.101336002E0
5.024457812E0,5.120379925E-1,5.346306801E0,3.249856949E0
5.026960052E0,4.976649880E-1,5.288815022E0,3.388796091E0
5.029462291E0,4.976649880E-1,5.279232979E0,3.503779888E0
5.031964531E0,5.647389889E-1,5.231322765E0,3.551690102E0
5.034466719E0,6.701409817E-1,5.269650936E0,3.628345966E0
5.036969010E0,8.713629842E-1,5.250486851E0,3.657092094E0
5.039471250E0,1.000720024E0,5.231322765E0,3.752912045E0
5.041973489E0,1.110913038E0,5.250486851E0,3.848731995E0
5.044475729E0,1.288179994E0,5.303187847E0,3.925388098E0
5.046939375E0,1.451074004E0,5.331933975E0,3.982880116E0
5.049441562E0,1.508566022E0,5.403799057E0,3.997252941E0
5.051943802E0,1.628340960E0,5.480454922E0,4.035581112E0
5.054446041E0,1.733742952E0,5.490036964E0,4.078700066E0
5.056948281E0,1.843935966E0,5.480454922E0,4.126609802E0
5.059450521E0,1.901427984E0,5.513991833E0,4.179310799E0
5.061952760E0,2.021203041E0,5.633767128E0,4.193684101E0
5.064455000E0,2.088277102E0,5.734377861E0,4.232011795E0
5.066957239E0,2.107440948E0,5.882898808E0,4.255967140E0
5.069459479E0,2.121814013E0,6.026628971E0,4.260757923E0
5.071961719E0,2.222424984E0,6.093702793E0,4.260757923E0
5.074463958E0,2.241589069E0,6.223060131E0,4.279922009E0
5.076968333E0,2.332617998E0,6.347626209E0,4.375741959E0
5.079470521E0,2.428437948E0,6.409908772E0,4.423652172E0
5.081972760E0,2.596122980E0,6.539266109E0,4.466771126E0
5.084475000E0,2.720689058E0,6.596757889E0,4.471561909E0
5.086977239E0,2.816509008E0,6.697369099E0,4.615292072E0
5.089479479E0,2.960238934E0,6.821935177E0,4.778185844E0
5.091981719E0,3.137506008E0,6.917755127E0,4.864424229E0
5.094483958E0,3.252490044E0,7.032739162E0,5.046482086E0
5.096986198E0,3.401010990E0,7.267498016E0,5.099183083E0
5.099488437E0,3.472876072E0,7.358527184E0,5.257286072E0
5.101990677E0,3.578278065E0,7.392064095E0,5.415389061E0
5.104492916E0,3.717216969E0,7.516630173E0,5.511209011E0
5.106993073E0,3.813036919E0,7.669941902E0,5.626193047E0
5.109495260E0,3.956767082E0,7.885537148E0,5.654939175E0
5.111997500E0,4.095705986E0,8.067594528E0,5.621401787E0
5.114499739E0,4.196317196E0,8.331100464E0,5.616611004E0
5.117001979E0,4.229854107E0,8.628142357E0,5.602238178E0
5.119504219E0,4.292137146E0,8.872483253E0,5.664521217E0
5.122006458E0,4.378375053E0,9.203062057E0,5.693266869E0
5.124508698E0,4.431076050E0,9.504895210E0,5.717222214E0
5.127010937E0,4.464612961E0,9.801937103E0,5.793878078E0
5.129513177E0,4.483777046E0,1.006065083E1,5.932816982E0
5.132015416E0,4.464612961E0,1.036248398E1,6.114874840E0
5.134517656E0,4.440658092E0,1.070264530E1,6.239440918E0
5.137050573E0,4.435866833E0,1.105238819E1,6.316096783E0
5.139552812E0,4.426284790E0,1.132547474E1,6.306515217E0
5.142055052E0,4.478985786E0,1.149795055E1,6.282559872E0
5.144557291E0,4.593969822E0,1.162251663E1,6.296933174E0
5.147059479E0,4.708953857E0,1.173750114E1,6.234650135E0
5.149561719E0,4.795191765E0,1.182853031E1,6.277769089E0
5.152063958E0,4.857474804E0,1.187164879E1,6.249022961E0
5.154566146E0,4.862266064E0,1.191476822E1,6.134038925E0
5.157068385E0,4.857474804E0,1.195309639E1,5.995100021E0
5.159570625E0,4.862266064E0,1.200579739E1,5.813042164E0
5.162072864E0,4.723327160E0,1.214473629E1,5.693266869E0
5.164575104E0,4.526896000E0,1.218785477E1,5.597446918E0
5.167078646E0,4.306509972E0,1.223097420E1,5.458508015E0
5.169580885E0,4.052587032E0,1.220701885E1,5.338733196E0
5.172083125E0,3.813036919E0,1.216869068E1,5.295613766E0
5.174585312E0,3.554322958E0,1.213994503E1,5.305195808E0
5.177087552E0,3.271653891E0,1.196267796E1,5.343523979E0
5.179589791E0,3.051268101E0,1.178541088E1,5.439343929E0
5.182092031E0,2.754225969E0,1.167521763E1,5.602238178E0
5.184594271E0,2.452393055E0,1.156981564E1,5.841787815E0
5.187096458E0,2.117022991E0,1.151711464E1,6.081337929E0
5.189598698E0,1.772071004E0,1.157460690E1,6.402335167E0
5.192100937E0,1.431910038E0,1.172312832E1,6.565228939E0
5.194603125E0,1.139659047E0,1.199142361E1,6.699377060E0
5.197078385E0,8.953179717E-1,1.232679367E1,6.766450882E0
5.199580573E0,6.845139861E-1,1.276277542E1,6.804779053E0
5.202082812E0,5.695300102E-1,1.331853104E1,6.833525181E0
5.204585052E0,4.689190090E-1,1.386949635E1,6.799987793E0
5.207087291E0,4.018450081E-1,1.447316170E1,6.756868839E0
5.209589479E0,3.347710073E-1,1.512473774E1,6.622721195E0
5.212091719E0,1.766680032E-1,1.580985069E1,6.340052128E0
5.214593958E0,2.814700082E-2,1.651891899E1,6.057383060E0
5.217096198E0,-1.826570034E-1,1.716570473E1,5.611820221E0
5.219598385E0,-3.790880144E-1,1.778374290E1,5.084809780E0
5.222100625E0,-6.857119799E-1,1.834908104E1,4.495516777E0
5.224602864E0,-9.587990046E-1,1.889046478E1,3.839149952E0
5.227132812E0,-1.284587026E0,1.936477280E1,3.034261942E0
