"Time (s)","Acceleration x (m/s^2)","Acceleration y (m/s^2)","Acceleration z (m/s^2)"
0.000000000E0,3.524017334E-1,4.096923828E0,8.311294556E0
5.004883000E-3,3.547973633E-1,4.130447388E0,8.325653076E0
1.004028400E-2,4.242248535E-1,4.128051758E0,8.294525146E0
1.507568400E-2,4.218444824E-1,4.171142578E0,8.320861816E0
2.011108400E-2,2.087554932E-1,4.353103638E0,8.028778076E0
2.517700200E-2,3.476104736E-1,4.369873047E0,8.081451416E0
3.021240300E-2,3.739471436E-1,4.319595337E0,8.313674927E0
3.527832100E-2,3.428344727E-1,4.254943848E0,8.440567017E0
4.034423900E-2,3.260650635E-1,4.228607178E0,8.524368286E0
4.537963900E-2,3.164978027E-1,4.190307617E0,8.735061646E0
5.047607500E-2,2.781829834E-1,4.130447388E0,8.917022705E0
5.551147500E-2,2.757873535E-1,4.135238647E0,9.036727905E0
6.057739300E-2,2.686157227E-1,4.161575317E0,9.118133545E0
6.564331100E-2,2.303009033E-1,4.214248657E0,9.170806885E0
7.070922900E-2,2.159423828E-1,4.266921997E0,9.173202515E0
7.574462900E-2,2.039642334E-1,4.283676147E0,9.170806885E0
8.078003000E-2,1.824188232E-1,4.341140747E0,9.120529175E0
8.584594800E-2,1.488952637E-1,4.377044678E0,9.060668945E0
9.091186600E-2,9.143066406E-2,4.381835938E0,8.936172485E0
9.594726600E-2,2.679443359E-2,4.408172607E0,8.797317505E0
1.009826660E-1,1.721191406E-2,4.422546387E0,8.718307495E0
1.060485840E-1,1.481628418E-2,4.427322388E0,8.701538086E0
1.111145020E-1,4.115295410E-2,4.384231567E0,8.656051636E0
1.161499030E-1,6.988525391E-2,4.386627197E0,8.605773926E0
1.212158210E-1,1.082000732E-1,4.468032837E0,8.636901855E0
1.262512210E-1,5.073547363E-2,4.535064697E0,8.632110596E0
1.313171390E-1,1.721191406E-2,4.568588257E0,8.660842896E0
1.363525390E-1,-2.348327637E-2,4.590133667E0,8.603378296E0
1.414184570E-1,-3.067016602E-2,4.628448486E0,8.531555176E0
1.464843750E-1,-1.390075684E-2,4.628448486E0,8.466903687E0
1.515502930E-1,2.853393555E-3,4.669143677E0,8.490859985E0
1.565856940E-1,6.271362305E-2,4.745758057E0,8.524368286E0
1.616210940E-1,1.680450439E-1,4.700271606E0,8.476486206E0
1.666870120E-1,3.308563232E-1,4.566192627E0,8.344802856E0
1.717529300E-1,4.146575928E-1,4.446487427E0,8.208343506E0
1.767883310E-1,4.002838135E-1,4.365081787E0,8.172424316E0
1.818542480E-1,4.194488525E-1,4.283676147E0,8.098205566E0
1.869201660E-1,4.697265625E-1,4.183120728E0,8.083831787E0
1.919555670E-1,5.247955322E-1,4.151992798E0,8.117355347E0
1.970214850E-1,5.367584229E-1,4.226211548E0,8.122146606E0
2.020874030E-1,5.247955322E-1,4.163970947E0,8.153274536E0
2.071228030E-1,5.870361328E-1,4.046646118E0,8.098205566E0
2.121582040E-1,6.445007324E-1,3.821594238E0,8.004837036E0
2.172241220E-1,8.288574219E-1,3.347549438E0,7.616973877E0
2.222595220E-1,6.947784424E-1,3.543869019E0,7.897094727E0
2.273254400E-1,7.354736328E-1,3.725830078E0,8.124542236E0
2.323913580E-1,8.910980225E-1,3.572601318E0,7.954544067E0
2.374267580E-1,9.222259521E-1,3.495986938E0,7.937789917E0
2.424621590E-1,8.887023926E-1,3.553451538E0,8.062286377E0
2.475280770E-1,9.222259521E-1,3.522323608E0,7.935394287E0
2.525634770E-1,9.796905518E-1,3.448104858E0,7.921035767E0
2.576293950E-1,9.605255127E-1,3.416976929E0,7.971313477E0
2.626647950E-1,8.575897217E-1,3.431335449E0,7.983276367E0
2.677307130E-1,8.096923828E-1,3.462463379E0,7.942581177E0
2.727966310E-1,7.929382324E-1,3.414581299E0,7.976104736E0
2.778320320E-1,6.756286621E-1,3.424163818E0,8.091018677E0
2.829284670E-1,5.918273926E-1,3.486404419E0,8.105392456E0
2.879638680E-1,6.540679932E-1,3.488800049E0,8.284957886E0
2.929992680E-1,6.923828125E-1,3.428939819E0,8.806884766E0
2.980651860E-1,6.181640625E-1,3.421768188E0,9.082214355E0
3.031005860E-1,5.942230225E-1,3.445709229E0,9.067855835E0
3.081665040E-1,6.205596924E-1,3.448104858E0,9.151657104E0
3.132324220E-1,6.277465820E-1,3.455276489E0,9.218688965E0
3.182678230E-1,6.636505127E-1,3.448104858E0,9.278549194E0
3.233032230E-1,6.780242920E-1,3.428939819E0,9.307281494E0
3.283691410E-1,6.971740723E-1,3.393035889E0,9.403045654E0
3.334350590E-1,6.445007324E-1,3.349945068E0,9.443740845E0
3.384704590E-1,6.373138428E-1,3.270935059E0,9.534729004E0
3.435363770E-1,6.684417725E-1,3.215866089E0,9.616134644E0
3.486022950E-1,7.187194824E-1,3.175155640E0,9.671188354E0
3.536376960E-1,7.091369629E-1,3.177551270E0,9.666412354E0
3.586730960E-1,6.564636230E-1,3.199096680E0,9.683166504E0
3.637390140E-1,5.774536133E-1,3.156005859E0,9.731048584E0
3.688049320E-1,6.014099121E-1,3.165588379E0,9.769363403E0
3.738403320E-1,6.181640625E-1,3.156005859E0,9.865127563E0
3.789062500E-1,6.516876221E-1,3.072204590E0,9.946533203E0
3.839721680E-1,6.780242920E-1,3.005172729E0,9.975250244E0
3.890075690E-1,6.947784424E-1,2.923767090E0,9.992019653E0
3.940734870E-1,7.378692627E-1,2.890243530E0,1.003511047E1
3.991088870E-1,7.761840820E-1,2.830398560E0,1.004469299E1
4.041442880E-1,7.761840820E-1,2.741806030E0,1.006384277E1
4.092102060E-1,8.001251221E-1,2.703506470E0,1.010693359E1
4.142761230E-1,8.168792725E-1,2.636459351E0,1.011412048E1
4.193115240E-1,8.001251221E-1,2.535903931E0,1.010932922E1
4.243774420E-1,7.857513428E-1,2.504791260E0,1.010453796E1
4.294433600E-1,7.881469727E-1,2.514358521E0,1.008059692E1
4.344787600E-1,7.259063721E-1,2.519149780E0,1.002554321E1
4.395446780E-1,7.043609619E-1,2.538299561E0,9.934555054E0
4.445800790E-1,7.067413330E-1,2.533508301E0,9.812454224E0
4.496459970E-1,5.702819824E-1,2.612518311E0,9.750198364E0
4.547119140E-1,5.295715332E-1,2.662796021E0,9.635284424E0
4.597473150E-1,4.529571533E-1,2.734634399E0,9.515563965E0
4.647827150E-1,3.835296631E-1,2.789688110E0,9.357559204E0
4.698486330E-1,3.284606934E-1,2.813629150E0,9.192352295E0
4.749145510E-1,3.069152832E-1,2.808853149E0,9.132492065E0
4.799804690E-1,3.308563232E-1,2.813629150E0,9.022369385E0
4.850158700E-1,3.619842529E-1,2.813629150E0,8.909835815E0
4.900817880E-1,3.715667725E-1,2.801666260E0,8.821258545E0
4.951171880E-1,3.356475830E-1,2.792083740E0,8.775756836E0
5.001831060E-1,3.188934326E-1,2.763351440E0,8.761398315E0
5.052185060E-1,3.739471436E-1,2.737014771E0,8.754211426E0
5.102844240E-1,4.457855225E-1,2.705902100E0,8.766189575E0
5.153198250E-1,4.816894531E-1,2.674774170E0,8.835617065E0
5.203857430E-1,4.601440430E-1,2.679565430E0,8.931381226E0
5.254211430E-1,3.404388428E-1,2.667587280E0,8.955322266E0
5.304870610E-1,3.164978027E-1,2.672378540E0,9.007995605E0
5.355529790E-1,3.356475830E-1,2.622100830E0,9.003204346E0
5.405883790E-1,3.715667725E-1,2.538299561E0,8.984054565E0
5.456542970E-1,3.907165527E-1,2.440139771E0,8.864349365E0
5.507202150E-1,4.409942627E-1,2.303665161E0,8.725479126E0
5.557556160E-1,3.571929932E-1,2.282119751E0,8.600982666E0
5.608215340E-1,3.308563232E-1,2.260574341E0,8.495635986E0
5.658569340E-1,2.973327637E-1,2.270156860E0,8.385513306E0
5.709228520E-1,2.374877930E-1,2.351562500E0,8.323257446E0
5.759582520E-1,2.039642334E-1,2.492813110E0,8.294525146E0
5.810241700E-1,1.872100830E-1,2.598159790E0,8.284957886E0
5.860900880E-1,1.153869629E-1,2.691528320E0,8.299316406E0
5.911560060E-1,4.115295410E-2,2.744201660E0,8.356781006E0
5.961914070E-1,-5.940246582E-2,2.787307739E0,8.430999756E0
6.012573250E-1,-1.934661865E-1,2.816024780E0,8.828430176E0
6.062927250E-1,-3.802185059E-1,2.990814209E0,1.035354614E1
6.113586430E-1,-4.903564453E-1,3.484008789E0,1.281477356E1
6.163940430E-1,-3.442993164E-1,3.754562378E0,1.277407837E1
6.214599610E-1,1.034088135E-1,3.462463379E0,1.070309448E1
6.264953620E-1,4.146575928E-1,3.000381470E0,9.290512085E0
6.315612800E-1,6.037902832E-1,2.473663330E0,8.967300415E0
6.366271980E-1,7.139282227E-1,2.088195801E0,9.000823975E0
6.416625980E-1,8.120880127E-1,1.913421631E0,8.991241455E0
6.466979980E-1,9.581451416E-1,1.851165771E0,8.878707886E0
6.517639160E-1,1.130523682E0,1.853561401E0,8.909835815E0
6.568298340E-1,1.197555542E0,1.855957031E0,8.917022705E0
6.618957520E-1,1.135314941E0,1.899047852E0,9.005599976E0
6.669311530E-1,1.173614502E0,1.772155762E0,9.197143555E0
6.719970710E-1,1.403457642E0,1.492034912E0,9.362335205E0
6.770629890E-1,1.504013062E0,1.331619263E0,9.503601074E0
6.820983890E-1,1.468109131E0,1.293319702E0,9.592178345E0
6.871337890E-1,1.322052002E0,1.432174683E0,9.683166504E0
6.921997070E-1,1.183197021E0,1.559082031E0,9.778930664E0
6.972656250E-1,1.243041992E0,1.721878052E0,9.841186523E0
7.023315430E-1,1.360366821E0,1.872711182E0,9.845977783E0
7.073669440E-1,1.487258911E0,1.930175781E0,9.946533203E0
7.124023440E-1,1.647674561E0,1.863143921E0,1.007102966E1
7.174682620E-1,1.776962280E0,1.697937012E0,1.018594360E1
7.225341800E-1,1.822448730E0,1.472885132E0,1.040621948E1
7.275695810E-1,1.901458740E0,1.183181763E0,1.077012634E1
7.326354980E-1,2.071441650E0,8.623657227E-1,1.112208557E1
7.377014160E-1,2.090591431E0,5.966033936E-1,1.113644409E1
7.427368170E-1,2.006805420E0,3.547973633E-1,1.088505554E1
7.478027350E-1,1.767379761E0,1.273345947E-1,1.048283386E1
7.528381350E-1,1.350784302E0,-3.658599854E-1,1.038227844E1
7.579040530E-1,1.135314941E0,-6.531677246E-1,9.652038574E0
7.629394540E-1,1.089813232E0,-7.920379639E-1,9.156433105E0
7.680053720E-1,5.966186523E-1,-8.423156738E-1,9.395858765E0
7.730712890E-1,-1.120758057E-1,-1.017089844E0,8.634506226E0
7.781066900E-1,2.446594238E-1,-1.017089844E0,6.829269409E0
7.831726080E-1,1.887084961E0,-9.500427246E-1,5.589080811E0
7.882080080E-1,1.714706421E0,-1.026657104E0,3.858078003E0
7.932434090E-1,1.101791382E0,-1.354675293E0,2.445495605E0
7.983093270E-1,1.245437622E0,-2.048980713E0,1.722442627E0
8.033447270E-1,2.260589600E0,-2.946807861E0,1.600341797E0
8.084106450E-1,2.540710449E0,-3.104827881E0,1.638641357E0
8.134765630E-1,2.373107910E0,-2.891738892E0,1.770324707E0
8.185119630E-1,1.623733521E0,-2.791183472E0,2.720825195E0
8.235778810E-1,1.058700562E0,-2.942031860E0,3.807800293E0
8.286437990E-1,8.025207520E-1,-3.176651001E0,4.794204712E0
8.336792000E-1,7.306823730E-1,-3.368194580E0,5.773437500E0
8.387146000E-1,6.301269531E-1,-3.598037720E0,6.841247559E0
8.437805180E-1,4.577484131E-1,-3.837463379E0,7.746261597E0
8.488464360E-1,1.943817139E-1,-4.028991699E0,8.500427246E0
8.539123540E-1,-2.868499756E-1,-4.050537109E0,9.197143555E0
8.589477540E-1,-8.351135254E-1,-4.064910889E0,9.795684814E0
8.640136720E-1,-1.263687134E0,-4.028991699E0,1.026495361E1
8.690795900E-1,-1.732940674E0,-4.038574219E0,1.056661987E1
8.741149910E-1,-2.250091553E0,-4.074478149E0,1.052592468E1
8.791503910E-1,-2.791183472E0,-4.112792969E0,1.034396362E1
8.842163090E-1,-3.372970581E0,-4.091247559E0,1.008538818E1
8.892517090E-1,-3.835052490E0,-4.014633179E0,9.731048584E0
8.943176270E-1,-4.263610840E0,-3.854217529E0,9.199539185E0
8.993835450E-1,-4.675415039E0,-3.772811890E0,8.502822876E0
9.044189460E-1,-4.910049438E0,-3.885345459E0,7.710342407E0
9.094848640E-1,-4.910049438E0,-4.136734009E0,6.843643188E0
9.145507820E-1,-4.761611938E0,-4.366577148E0,6.089462280E0
9.195861820E-1,-4.526977539E0,-4.591629028E0,5.361633301E0
9.246215820E-1,-4.385711670E0,-4.804718018E0,4.724777222E0
9.296875000E-1,-4.443176270E0,-4.974700928E0,4.210021973E0
9.347534180E-1,-4.756820679E0,-5.068069458E0,3.803009033E0
9.398193360E-1,-5.230865479E0,-5.161453247E0,3.537246704E0
9.448547370E-1,-5.843780518E0,-5.206939697E0,3.494155884E0
9.499206550E-1,-6.320236206E0,-5.290740967E0,3.628234863E0
9.549560550E-1,-6.636276245E0,-5.360168457E0,3.738357544E0
9.599914560E-1,-7.031311035E0,-5.420028687E0,3.774276733E0
9.650573730E-1,-7.512542725E0,-5.482269287E0,3.723999023E0
9.701232910E-1,-8.000961304E0,-5.465515137E0,3.577957153E0
9.751892090E-1,-8.463043213E0,-5.410446167E0,3.331344604E0
9.802246100E-1,-8.783874512E0,-5.372146606E0,3.135025024E0
9.852600100E-1,-9.006530762E0,-5.408050537E0,2.912368774E0
9.903259280E-1,-9.154968262E0,-5.513397217E0,2.680130005E0
9.953918460E-1,-9.284255981E0,-5.661834717E0,2.426345825E0
1.000457764E0,-9.377624512E0,-5.824645996E0,2.206069946E0
1.005493164E0,-9.482971191E0,-5.961105347E0,2.139038086E0
1.010528565E0,-9.561981201E0,-6.052093506E0,2.151000977E0
1.015594483E0,-9.590713501E0,-6.126312256E0,2.277893066E0
1.020629883E0,-9.542831421E0,-6.145462036E0,2.546051025E0
1.025695801E0,-9.569168091E0,-6.040115356E0,2.821380615E0
1.030761719E0,-9.664932251E0,-5.982666016E0,3.053619385E0
1.035797120E0,-9.748733521E0,-5.932388306E0,3.364868164E0
1.040863038E0,-9.820556641E0,-5.788726807E0,3.707244873E0
1.045898438E0,-9.880416870E0,-5.592407227E0,4.085525513E0
1.050964356E0,-9.925903320E0,-5.441574097E0,4.322540283E0
1.056030274E0,-9.866043091E0,-5.408050537E0,4.451828003E0
1.061065674E0,-9.758300781E0,-5.472702026E0,4.346496582E0
1.066101075E0,-9.655349731E0,-5.580429077E0,3.913131714E0
1.071166993E0,-9.480575562E0,-5.719299316E0,3.312194824E0
1.076232911E0,-9.238769531E0,-5.896469116E0,2.605911255E0
1.081268311E0,-8.961044312E0,-6.040115356E0,1.834976196E0
1.086334229E0,-8.807815552E0,-6.167007446E0,1.123901367E0
1.091369629E0,-8.886825562E0,-6.286727905E0,5.780181885E-1
1.096435547E0,-9.056808472E0,-6.375305176E0,1.398773193E-1
1.101501465E0,-9.310592651E0,-6.406433105E0,-6.123352051E-2
1.106536866E0,-9.617050171E0,-6.380096436E0,-6.362915039E-2
1.111602784E0,-9.990539551E0,-6.286727905E0,3.932189941E-2
1.116668702E0,-1.051727295E1,-6.171798706E0,3.098602295E-1
1.121704102E0,-1.117327881E1,-5.946746826E0,8.485565186E-1
1.126770020E0,-1.187478638E1,-5.633102417E0,1.502182007E0
1.131805420E0,-1.248291016E1,-5.386505127E0,2.172561646E0
1.136840821E0,-1.289471436E1,-5.271575928E0,2.778289795E0
1.141906739E0,-1.306469727E1,-5.247634888E0,3.374450684E0
1.146972657E0,-1.306709290E1,-5.278762817E0,3.688079834E0
1.152008057E0,-1.296893311E1,-5.326644897E0,3.592315674E0
1.157073975E0,-1.273908997E1,-5.424804688E0,3.278671265E0
1.162139893E0,-1.239671326E1,-5.563674927E0,2.814193726E0
1.167175293E0,-1.198730469E1,-5.633102417E0,2.251556396E0
1.172210694E0,-1.164015198E1,-5.673812866E0,1.818206787E0
1.177276612E0,-1.132171631E1,-5.671417236E0,1.499786377E0
1.182342530E0,-1.107751465E1,-5.685775757E0,1.415985107E0
1.187408448E0,-1.090753174E1,-5.724090576E0,1.547668457E0
1.192443848E0,-1.089315796E1,-5.750427246E0,1.746383667E0
1.197509766E0,-1.113737488E1,-5.762390137E0,1.892425537E0
1.202545166E0,-1.150128174E1,-5.783935547E0,2.100723267E0
1.207611084E0,-1.181492615E1,-5.654647827E0,2.433517456E0
1.212646485E0,-1.201843262E1,-5.522979736E0,2.900390625E0
1.217712403E0,-1.214772034E1,-5.307495117E0,3.340927124E0
1.222747803E0,-1.232009888E1,-5.001037598E0,3.597106934E0
1.227813721E0,-1.241348267E1,-4.895690918E0,3.786239624E0
1.232849122E0,-1.233686829E1,-4.893295288E0,3.982574463E0
1.237915039E0,-1.207350159E1,-4.969909668E0,4.169311523E0
1.242980957E0,-1.168803406E1,-5.111175537E0,4.267486572E0
1.248046875E0,-1.124749756E1,-5.202148438E0,4.241149902E0
1.253082276E0,-1.071119690E1,-5.321853638E0,4.107070923E0
1.258117676E0,-1.010786438E1,-5.518188477E0,3.920318604E0
1.263183594E0,-9.442276001E0,-5.745635986E0,3.728790283E0
1.268249512E0,-8.676132202E0,-5.934783936E0,3.436691284E0
1.273315430E0,-8.012939453E0,-6.061676025E0,3.065597534E0
1.278350831E0,-7.538879395E0,-6.174194336E0,2.629852295E0
1.283416748E0,-7.321014404E0,-6.262786865E0,2.167770386E0
1.288452149E0,-7.347351074E0,-6.368133545E0,1.753570557E0
1.293518067E0,-7.507751465E0,-6.459106445E0,1.418380737E0
1.298553467E0,-7.835769653E0,-6.473464966E0,1.212478638E0
1.303619385E0,-8.252349854E0,-6.427978516E0,1.164596558E0
1.308654786E0,-8.688095093E0,-6.274749756E0,1.262756348E0
1.313720704E0,-9.164550781E0,-6.131103516E0,1.516540527E0
1.318756104E0,-9.720001221E0,-5.906051636E0,1.751174927E0
1.323822022E0,-1.019883728E1,-5.728881836E0,2.012145996E0
1.328887940E0,-1.054121399E1,-5.542129517E0,2.265930176E0
1.333923340E0,-1.099610901E1,-5.271575928E0,2.474227905E0
1.338989258E0,-1.112779236E1,-5.154266357E0,2.567596436E0
1.344024659E0,-1.110624695E1,-5.065673828E0,2.620269775E0
1.349090577E0,-1.112779236E1,-5.053710938E0,2.730407715E0
1.354156495E0,-1.102963257E1,-5.103988647E0,2.656188965E0
1.359191895E0,-1.081893921E1,-5.317077637E0,2.486190796E0
1.364257813E0,-1.060345459E1,-5.556488037E0,2.277893066E0
1.369293213E0,-1.035925293E1,-5.752822876E0,2.040878296E0
1.374359131E0,-1.001687622E1,-5.918014526E0,1.832580566E0
1.379394532E0,-9.609863281E0,-6.035339355E0,1.698501587E0
1.384460450E0,-9.226791382E0,-6.092788696E0,1.624282837E0
1.389526368E0,-8.953857422E0,-6.195739746E0,1.557250977E0
1.394561768E0,-8.812591553E0,-6.229263306E0,1.439926147E0
1.399597168E0,-8.661758423E0,-6.274749756E0,1.360916138E0
1.404663086E0,-8.582748413E0,-6.341796875E0,1.298675537E0
1.409729004E0,-8.506134033E0,-6.353759766E0,1.200515747E0
1.414794922E0,-8.606689453E0,-6.217285156E0,1.035308838E0
1.419830323E0,-8.532470703E0,-6.159835815E0,7.192687988E-1
1.424865723E0,-8.388824463E0,-6.143066406E0,6.737823486E-1
1.429931641E0,-8.484588623E0,-5.939559937E0,6.282958984E-1
1.434997559E0,-8.630645752E0,-5.666625977E0,5.037994385E-1
1.440032959E0,-8.836547852E0,-5.436782837E0,3.385925293E-1
1.445098877E0,-9.037658691E0,-5.206939697E0,2.188873291E-1
1.450164795E0,-9.145385742E0,-4.991455078E0,9.439086914E-2
1.455200196E0,-9.181304932E0,-4.843017578E0,-4.208374023E-2
1.460266114E0,-9.241165161E0,-4.857391357E0,-1.402435303E-1
1.465301514E0,-9.205245972E0,-4.931610107E0,-2.815093994E-1
1.470367432E0,-9.205245972E0,-5.077651978E0,-4.107818604E-1
1.475402832E0,-9.195663452E0,-5.317077637E0,-4.969787598E-1
1.480468750E0,-9.205245972E0,-5.496643066E0,-6.286621094E-1
1.485534668E0,-9.111877441E0,-5.621139526E0,-8.656921387E-1
1.490600586E0,-8.891601562E0,-5.738449097E0,-1.164962769E0
1.495635987E0,-8.633026123E0,-5.848587036E0,-1.433120728E0
1.500671387E0,-8.453460693E0,-5.894073486E0,-1.684509277E0
1.505737305E0,-8.252349854E0,-5.920410156E0,-1.964630127E0
1.510803223E0,-8.123062134E0,-5.951538086E0,-2.196868896E0
1.515838623E0,-8.065612793E0,-5.953933716E0,-2.321365356E0
1.520904541E0,-8.010543823E0,-5.870132446E0,-2.426712036E0
1.525939942E0,-7.933929443E0,-5.697753906E0,-2.438674927E0
1.531005860E0,-7.852523804E0,-5.398468018E0,-2.395584106E0
1.536041260E0,-7.696899414E0,-5.206939697E0,-2.342910767E0
1.541107178E0,-7.526916504E0,-5.015396118E0,-2.287841797E0
1.546173096E0,-7.476638794E0,-4.742462158E0,-2.230377197E0
1.551208497E0,-7.543670654E0,-4.402481079E0,-2.072372437E0
1.556274414E0,-7.565216064E0,-4.165466309E0,-1.964630127E0
1.561309815E0,-7.502975464E0,-4.084060669E0,-1.809005737E0
1.566375733E0,-7.421569824E0,-4.239685059E0,-1.703659058E0
1.571411133E0,-7.376083374E0,-4.380935669E0,-1.667739868E0
1.576477051E0,-7.373687744E0,-4.491073608E0,-1.622253418E0
1.581512452E0,-7.337768555E0,-4.555709839E0,-1.591125488E0
1.586578370E0,-7.352142334E0,-4.644302368E0,-1.701263428E0
1.591644288E0,-7.265945435E0,-4.938781738E0,-1.409164429E0
1.596679688E0,-7.048065186E0,-5.075256348E0,-1.409164429E0
1.601745606E0,-6.858932495E0,-5.003433228E0,-1.806610107E0
1.606781006E0,-6.782318115E0,-4.814285278E0,-2.235168457E0
1.611846924E0,-6.679367065E0,-4.670639038E0,-2.632614136E0
1.616882325E0,-6.770339966E0,-4.720916748E0,-2.400375366E0
1.621948243E0,-7.165390015E0,-4.622756958E0,-2.134613037E0
1.627014161E0,-7.514938354E0,-4.447982788E0,-1.995758057E0
1.632049561E0,-7.692108154E0,-4.476715088E0,-1.842529297E0
1.637115479E0,-7.385650635E0,-5.202148438E0,-9.015960693E-1
1.642150879E0,-6.933151245E0,-6.181381226E0,-2.024993896E-1
1.647216797E0,-6.954696655E0,-6.459106445E0,-2.336120605E-1
1.652282715E0,-7.428756714E0,-6.286727905E0,5.798339844E-3
1.657318116E0,-7.591552734E0,-6.473464966E0,-3.437500000E-1
1.662353516E0,-8.012939453E0,-6.509384155E0,-5.592346191E-1
1.667419434E0,-8.190109253E0,-6.408828735E0,-5.640258789E-1
1.672485352E0,-8.166168213E0,-6.346572876E0,-5.927429199E-1
1.677551270E0,-7.998565674E0,-6.380096436E0,-7.675323486E-1
1.682586670E0,-7.795059204E0,-6.293899536E0,-6.693572998E-1
1.687622071E0,-7.378479004E0,-6.286727905E0,-7.938690186E-1
1.692687989E0,-7.139053345E0,-6.195739746E0,-1.078765869E0
1.697753907E0,-7.249191284E0,-5.946746826E0,-1.052429199E0
1.702789307E0,-7.567611694E0,-5.625930786E0,-8.609008789E-1
1.707855225E0,-7.826187134E0,-5.321853638E0,-8.561096191E-1
1.712921143E0,-7.809432983E0,-5.223693848E0,-1.045257568E0
1.717956543E0,-7.699295044E0,-5.226089478E0,-1.466629028E0
1.722991944E0,-7.787872314E0,-5.058502197E0,-1.514511108E0
1.728057862E0,-7.907592773E0,-4.943572998E0,-1.447479248E0
1.733123780E0,-8.211654663E0,-4.993850708E0,-1.401992798E0
1.738159180E0,-8.637817383E0,-5.032165527E0,-1.349319458E0
1.743194581E0,-9.011322021E0,-5.084838867E0,-1.435501099E0
1.748260498E0,-9.351287842E0,-5.046524048E0,-1.583953857E0
1.753326416E0,-9.478179932E0,-5.106384277E0,-1.753936768E0
1.758392334E0,-9.186096191E0,-5.008224487E0,-1.710845947E0
1.763427735E0,-9.344116211E0,-4.311508179E0,-2.192077637E0
1.768493653E0,-9.605072021E0,-4.024200439E0,-2.910339355E0
1.773529053E0,-1.009588623E1,-3.787170410E0,-3.142578125E0
1.778594971E0,-1.045262146E1,-3.796752930E0,-2.907943726E0
1.783630372E0,-1.070162964E1,-3.942794800E0,-2.419525146E0
1.788696289E0,-1.107032776E1,-3.940399170E0,-2.189682007E0
1.793731690E0,-1.142945862E1,-3.808731079E0,-2.069976807E0
1.798797608E0,-1.174310303E1,-3.617187500E0,-2.019699097E0
1.803833008E0,-1.186280823E1,-3.497482300E0,-2.093917847E0
1.808898926E0,-1.212857056E1,-3.463958740E0,-2.213623047E0
1.813964844E0,-1.214292908E1,-3.574096680E0,-2.534439087E0
1.819000245E0,-1.189872742E1,-3.657897949E0,-2.912734985E0
1.824066163E0,-1.172395325E1,-3.643524170E0,-3.042022705E0
1.829132081E0,-1.168084717E1,-3.593246460E0,-3.013290405E0
1.834167481E0,-1.121159363E1,-3.612396240E0,-3.020462036E0
1.839202881E0,-1.070640564E1,-3.631561279E0,-3.034835815E0
1.844268799E0,-1.073753357E1,-3.595642090E0,-3.056381226E0
1.849334717E0,-1.082852173E1,-3.528610229E0,-3.022857666E0
1.854370118E0,-9.952239990E0,-3.626770020E0,-3.003707886E0
1.859436036E0,-9.480575562E0,-3.586059570E0,-2.699645996E0
1.864471436E0,-9.614654541E0,-3.509445190E0,-2.771469116E0
1.869537354E0,-9.535644531E0,-3.511840820E0,-3.061172485E0
1.874572754E0,-9.581130981E0,-3.471145630E0,-3.279037476E0
1.879638672E0,-9.686477661E0,-3.389739990E0,-3.487335205E0
1.884704590E0,-9.784637451E0,-3.224533081E0,-3.796188354E0
1.889739991E0,-9.286651611E0,-3.143142700E0,-4.272644043E0
1.894805909E0,-9.375228882E0,-2.937240601E0,-4.871185303E0
1.899871827E0,-9.851684570E0,-2.637954712E0,-5.081878662E0
1.904907227E0,-9.949844360E0,-2.511062622E0,-4.782608032E0
1.909973145E0,-1.109666443E1,-2.420089722E0,-5.326080322E0
1.915008545E0,-1.069923401E1,-2.324325562E0,-5.407485962E0
1.920074463E0,-1.050529480E1,-9.763793945E-1,-4.569519043E0
1.925109864E0,-9.550018311E0,-1.483963013E0,-3.434661865E0
1.930175782E0,-9.504516602E0,-1.855056763E0,-2.998916626E0
1.935241700E0,-9.770278931E0,-1.653945923E0,-2.884002686E0
1.940307618E0,-9.372848511E0,-1.431289673E0,-2.934280396E0
1.945343018E0,-8.738372803E0,-1.316360474E0,-3.018081665E0
1.950408936E0,-8.539657593E0,-1.088912964E0,-3.506484985E0
1.955444336E0,-8.475021362E0,-9.644165039E-1,-3.930267334E0
1.960479737E0,-8.436706543E0,-8.327331543E-1,-3.630996704E0
1.965545655E0,-8.482192993E0,-6.699218750E-1,-2.943847656E0
1.970611573E0,-8.565994263E0,-5.382385254E-1,-2.285446167E0
1.975646973E0,-8.645004272E0,-3.371276855E-1,-1.959838867E0
1.980712891E0,-7.986602783E0,-3.083953857E-1,-1.660568237E0
1.985748291E0,-6.698516846E0,-4.664154053E-1,-1.090744019E0
1.990814209E0,-5.664230347E0,-5.166931152E-1,-9.231414795E-1
1.995880127E0,-4.974685669E0,-5.526123047E-1,-1.318191528E0
2.000946045E0,-4.512619019E0,-6.364135742E-1,-1.787460327E0
2.005981446E0,-4.017013550E0,-7.489318848E-1,-2.031661987E0
2.011016846E0,-3.550140381E0,-8.423156738E-1,-1.962234497E0
2.016052247E0,-3.205383301E0,-8.614654541E-1,-1.674926758E0
2.021118164E0,-2.918075562E0,-9.452667236E-1,-1.394805908E0
2.026184082E0,-2.889343262E0,-1.091308594E0,-8.920288086E-1
2.031250000E0,-3.174255371E0,-1.625213623E0,1.007080078E-3
2.036285401E0,-4.335433960E0,-2.599655151E0,1.928344727E0
2.041320801E0,-5.767166138E0,-2.338684082E0,1.818206787E0
2.046386719E0,-6.320236206E0,-1.840698242E0,1.973419189E-1
2.051452637E0,-6.430374146E0,-2.032226562E0,-9.662475586E-1
2.056518555E0,-6.700912476E0,-2.554168701E0,-1.368469238E0
2.061553956E0,-7.443115234E0,-2.953994751E0,-1.258331299E0
2.066619873E0,-8.269119263E0,-3.217361450E0,-8.920288086E-1
2.071685791E0,-8.884429932E0,-3.423263550E0,-6.382446289E-1
2.076721192E0,-9.430297852E0,-3.478332520E0,-5.281066895E-1
2.081756592E0,-9.933090210E0,-3.514236450E0,-2.982635498E-1
2.086822510E0,-1.048614502E1,-3.428054810E0,-4.012145996E-1
2.091857911E0,-1.086682129E1,-3.401718140E0,-5.185241699E-1
2.096923829E0,-1.102005005E1,-3.471145630E0,-5.879669189E-1
2.101989747E0,-1.106553650E1,-3.449600220E0,-8.034362793E-1
2.107025147E0,-1.086203003E1,-3.370590210E0,-9.327239990E-1
2.112091065E0,-1.050050354E1,-3.327484131E0,-1.308609009E0
2.117126465E0,-9.995330811E0,-3.200592041E0,-1.897583008E0
2.122192383E0,-9.497344971E0,-2.934844971E0,-2.342910767E0
2.127258301E0,-9.049621582E0,-2.649932861E0,-2.721191406E0
2.132324219E0,-8.755142212E0,-2.341079712E0,-2.977371216E0
2.137359620E0,-8.731201172E0,-1.943649292E0,-3.065963745E0
2.142395020E0,-8.822174072E0,-1.639572144E0,-2.742736816E0
2.147460938E0,-9.001739502E0,-1.517471313E0,-2.395584106E0
2.152526856E0,-9.310592651E0,-1.529449463E0,-2.156158447E0
2.157562256E0,-9.655349731E0,-1.596481323E0,-1.878433228E0
2.162597657E0,-1.000491333E1,-1.663513184E0,-1.777877808E0
2.167663575E0,-1.026828003E1,-1.807174683E0,-1.773086548E0
2.172729493E0,-1.044305420E1,-1.917312622E0,-1.832946777E0
2.177764893E0,-1.044544983E1,-1.890975952E0,-1.775482178E0
2.182830811E0,-1.025390625E1,-1.828720093E0,-1.641403198E0
2.187896729E0,-9.904357910E0,-1.811965942E0,-1.442687988E0
2.192932129E0,-9.281860352E0,-1.828720093E0,-1.119476318E0
2.197998047E0,-8.618667603E0,-1.874206543E0,-8.082275391E-1
2.203033448E0,-8.034484863E0,-1.888580322E0,-9.638519287E-1
2.208099366E0,-7.390441895E0,-1.862243652E0,-9.063873291E-1
2.213134766E0,-7.100738525E0,-1.799987793E0,-6.143035889E-1
2.218170166E0,-6.940338135E0,-1.792800903E0,-6.164550781E-3
2.223236084E0,-6.356140137E0,-1.859848022E0,8.006744385E-1
2.228302002E0,-5.281143188E0,-1.938858032E0,1.401626587E0
2.233367920E0,-4.325866699E0,-1.788024902E0,9.539031982E-1
2.238403321E0,-3.799133301E0,-1.469589233E0,1.997375488E-1
2.243469239E0,-3.653091431E0,-1.242141724E0,-2.455902100E-1
2.248504639E0,-4.038558960E0,-1.261291504E0,-7.555541992E-1
2.253540039E0,-4.318679810E0,-1.579727173E0,-1.172149658E0
2.258605957E0,-5.046524048E0,-1.924484253E0,-1.737182617E0
2.263671875E0,-5.831817627E0,-2.264465332E0,-2.148986816E0
2.268737793E0,-5.803085327E0,-2.695419312E0,-2.436279297E0
2.273773194E0,-5.659439087E0,-2.961181641E0,-2.318969727E0
2.278839112E0,-5.252426147E0,-3.009063721E0,-1.744354248E0
2.283874512E0,-4.395294189E0,-2.712188721E0,-1.059616089E0
2.288940430E0,-3.550140381E0,-1.941253662E0,-6.382446289E-1
2.294006348E0,-4.361770630E0,-1.550994873E0,-9.063873291E-1
2.299041748E0,-8.836547852E0,-1.747314453E0,-2.587112427E0
2.304107666E0,-1.572705078E1,-1.704223633E0,-3.698028564E0
2.309173584E0,-2.272291565E1,-8.566741943E-1,-2.204040527E0
2.314208985E0,-2.377635193E1,-1.258895874E0,-3.255096436E0
2.319244385E0,-2.176762390E1,-2.053771973E0,-6.295730591E0
2.324310303E0,-1.913160706E1,-2.300384521E0,-9.537490845E0
2.329376221E0,-1.596408081E1,-2.408111572E0,-1.123257446E1
2.334411622E0,-1.253797913E1,-2.752883911E0,-1.124934387E1
2.339477539E0,-1.003125000E1,-2.788803101E0,-1.040419006E1
2.344512940E0,-8.695281982E0,-2.535003662E0,-9.068222046E0
2.349578858E0,-8.003356934E0,-2.585281372E0,-7.097793579E0
2.354614258E0,-7.687316895E0,-2.546981812E0,-5.395523071E0
2.359680176E0,-6.839782715E0,-2.575714111E0,-5.275802612E0
2.364715577E0,-5.800689697E0,-3.516632080E0,-1.241052246E1
2.369781495E0,-6.708099365E0,-3.255661011E0,-1.222138977E1
2.374847413E0,-7.330581665E0,-2.336288452E0,-7.507202148E0
2.379882813E0,-7.469451904E0,-1.811965942E0,-3.410720825E0
2.384948731E0,-6.777526855E0,-1.819137573E0,-2.000534058E0
2.390014649E0,-5.795898438E0,-1.979553223E0,-2.405166626E0
2.395050049E0,-4.969909668E0,-2.259674072E0,-3.872802734E0
2.400085450E0,-5.223693848E0,-2.230941772E0,-5.555923462E0
2.405151368E0,-5.554092407E0,-2.247711182E0,-6.278976440E0
2.410217286E0,-6.064056396E0,-2.537399292E0,-6.554306030E0
2.415252686E0,-6.226867676E0,-3.191024780E0,-6.243057251E0
2.420318604E0,-5.980255127E0,-3.909286499E0,-5.610992432E0
2.425354004E0,-6.114334106E0,-4.306716919E0,-4.878372192E0
2.430419922E0,-6.566833496E0,-4.431213379E0,-4.224746704E0
2.435485840E0,-6.957092285E0,-4.438400269E0,-3.789001465E0
2.440521241E0,-6.947509766E0,-4.450378418E0,-3.719573975E0
2.445587159E0,-6.796676636E0,-4.529373169E0,-3.970962524E0
2.450653077E0,-6.559661865E0,-4.584442139E0,-4.210388184E0
2.455688477E0,-6.155029297E0,-4.775985718E0,-4.411499023E0
2.460723877E0,-5.810272217E0,-5.156661987E0,-4.492904663E0
2.465789795E0,-5.774353027E0,-5.724090576E0,-4.617401123E0
2.470855713E0,-5.757598877E0,-6.056884766E0,-4.686828613E0
2.475891114E0,-5.843780518E0,-6.037719727E0,-4.854431152E0
2.480957032E0,-5.513381958E0,-5.939559937E0,-4.842453003E0
2.486022950E0,-4.242065430E0,-5.841400146E0,-4.229537964E0
2.491058350E0,-3.660278320E0,-6.150253296E0,-3.492126465E0
2.496093750E0,-5.307479858E0,-6.023361206E0,-2.793014526E0
2.501159668E0,-5.774353027E0,-5.858169556E0,-1.998138428E0
2.506225586E0,-5.779144287E0,-5.795913696E0,-1.428329468E0
2.511291504E0,-5.719284058E0,-5.676208496E0,-9.566650391E-1
2.516326905E0,-5.939559937E0,-5.386505127E0,-4.299468994E-1
2.521362305E0,-6.427978516E0,-4.768798828E0,-2.144622803E-1
2.526428223E0,-6.806259155E0,-4.222915649E0,1.518554688E-1
2.531494141E0,-7.040893555E0,-4.696975708E0,-1.234893799E-1
2.536560059E0,-7.658599854E0,-5.386505127E0,-1.066802979E0
2.541595459E0,-8.695281982E0,-5.834213257E0,-2.345306396E0
2.546630860E0,-8.927520752E0,-6.995407104E0,-2.443466187E0
2.551696778E0,-8.597122192E0,-8.158996582E0,-1.811401367E0
2.556732178E0,-8.400802612E0,-8.788665771E0,-1.677322388E0
2.561798096E0,-7.663375854E0,-9.645782471E0,-2.199264526E0
2.566864014E0,-7.184539795E0,-9.873245239E0,-2.766677856E0
2.571899414E0,-7.160598755E0,-9.214828491E0,-3.288619995E0
2.576934815E0,-7.141448975E0,-8.204483032E0,-3.425094604E0
2.582000733E0,-6.885269165E0,-7.349746704E0,-3.513671875E0
2.587066651E0,-6.339385986E0,-7.098358154E0,-4.078704834E0
2.592102051E0,-5.980255127E0,-6.825424194E0,-4.308547974E0
2.597167969E0,-5.769561768E0,-6.815841675E0,-4.155319214E0
2.602203370E0,-5.805480957E0,-6.921188354E0,-4.033218384E0
2.607269288E0,-5.882095337E0,-6.993011475E0,-3.733947754E0
2.612335206E0,-6.111938477E0,-7.072021484E0,-3.652542114E0
2.617370606E0,-6.320236206E0,-7.378479004E0,-3.621414185E0
2.622436524E0,-6.612319946E0,-7.469467163E0,-3.614227295E0
2.627502442E0,-6.779922485E0,-7.656204224E0,-3.528045654E0
2.632537842E0,-7.007369995E0,-7.625076294E0,-3.180877686E0
2.637603760E0,-7.091171265E0,-7.665786743E0,-2.680496216E0
2.642639161E0,-7.256362915E0,-7.543685913E0,-2.311782837E0
2.647705079E0,-7.282699585E0,-7.538894653E0,-1.933502197E0
2.652770997E0,-7.088775635E0,-7.696914673E0,-1.751541138E0
2.657806397E0,-6.885269165E0,-7.672973633E0,-1.641403198E0
2.662841797E0,-6.641052246E0,-7.706481934E0,-1.560012817E0
2.667907715E0,-6.332199097E0,-7.742401123E0,-1.399597168E0
2.672973633E0,-6.111938477E0,-7.704086304E0,-1.421142578E0
2.678009034E0,-5.968292236E0,-7.780700684E0,-1.672531128E0
2.683074952E0,-5.680984497E0,-8.065612793E0,-1.837738037E0
2.688110352E0,-5.530151367E0,-8.249969482E0,-1.978988647E0
2.693176270E0,-5.575637817E0,-8.309829712E0,-2.089126587E0
2.698211670E0,-5.671401978E0,-8.285888672E0,-2.326156616E0
2.703277588E0,-5.606765747E0,-8.060821533E0,-2.663726807E0
2.708343506E0,-5.839004517E0,-7.833374023E0,-2.907943726E0
2.713378907E0,-6.123916626E0,-7.560440063E0,-3.154541016E0
2.718444825E0,-6.382476807E0,-7.383270264E0,-3.288619995E0
2.723480225E0,-6.806259155E0,-7.270736694E0,-3.293411255E0
2.728546143E0,-6.969070435E0,-7.244400024E0,-3.166519165E0
2.733612061E0,-6.789505005E0,-7.328201294E0,-2.881607056E0
2.738647461E0,-6.765548706E0,-7.246795654E0,-2.524871826E0
2.743713379E0,-6.688934326E0,-7.201309204E0,-2.220809937E0
2.748779297E0,-6.564437866E0,-7.103149414E0,-1.825759888E0
2.753814698E0,-6.200531006E0,-7.103149414E0,-1.581558228E0
2.758850098E0,-5.800689697E0,-7.129486084E0,-1.495361328E0
2.763916016E0,-5.348190308E0,-7.174972534E0,-1.418746948E0
2.768981934E0,-4.910049438E0,-7.201309204E0,-1.308609009E0
2.774017334E0,-4.491058350E0,-7.301864624E0,-1.129043579E0
2.779083252E0,-4.345016479E0,-7.373687744E0,-1.073989868E0
2.784118653E0,-4.194183350E0,-7.445510864E0,-1.018920898E0
2.789184571E0,-4.012222290E0,-7.423965454E0,-1.152984619E0
2.794250489E0,-3.904479980E0,-7.287506104E0,-1.430725098E0
2.799285889E0,-3.794357300E0,-7.110336304E0,-1.579162598E0
2.804351807E0,-3.605209351E0,-7.009765625E0,-1.744354248E0
2.809417725E0,-3.399307251E0,-6.830215454E0,-1.856887817E0
2.814453125E0,-3.186218262E0,-6.593185425E0,-1.823364258E0
2.819488526E0,-3.044967651E0,-6.389678955E0,-1.770690918E0
2.824554444E0,-2.752868652E0,-6.131103516E0,-1.698867798E0
2.829620362E0,-2.525421143E0,-5.865341187E0,-1.720413208E0
2.834655762E0,-2.171081543E0,-5.750427246E0,-1.734786987E0
2.839691163E0,-1.914901733E0,-5.601989746E0,-1.878433228E0
2.844757081E0,-1.701812744E0,-5.463119507E0,-2.208831787E0
2.849822998E0,-1.471969604E0,-5.319473267E0,-2.481781006E0
2.854858399E0,-1.361846924E0,-5.103988647E0,-2.350097656E0
2.859924317E0,-1.196640015E0,-4.929214478E0,-2.093917847E0
2.864990235E0,-1.067352295E0,-4.828659058E0,-1.708450317E0
2.870056153E0,-1.084121704E0,-4.847808838E0,-1.473815918E0
2.875091553E0,-1.163116455E0,-4.742462158E0,-1.342132568E0
2.880126954E0,-1.153549194E0,-4.538955688E0,-1.083557129E0
2.885192872E0,-1.155944824E0,-4.462341309E0,-9.279327393E-1
2.890228272E0,-1.203826904E0,-4.407272339E0,-1.033279419E0
2.895294190E0,-1.050598145E0,-4.225311279E0,-8.728637695E-1
2.900329590E0,-1.134399414E0,-4.043350220E0,-5.783843994E-1
2.905395508E0,-1.148757935E0,-3.995468140E0,-5.568389893E-1
2.910461426E0,-9.811706543E-1,-3.875762939E0,-7.411956787E-1
2.915496827E0,-8.375091553E-1,-3.684234619E0,-9.949798584E-1
2.920562745E0,-6.962585449E-1,-3.396926880E0,-1.102706909E0
2.925628663E0,-4.879608154E-1,-3.186233521E0,-1.157775879E0
2.930694581E0,-3.131866455E-1,-3.248489380E0,-9.686431885E-1
2.935729981E0,-5.700683594E-2,-4.060119629E0,-6.885223389E-1
2.940765381E0,3.332519531E-1,-6.090393066E0,-1.313400269E0
2.945831299E0,1.906250000E0,-1.139115906E1,-1.861679077E0
2.950866700E0,5.004333496E0,-1.961764526E1,-4.562835693E-1
2.955932618E0,9.704162598E0,-2.846661377E1,1.326904297E-1
2.960968018E0,1.534249878E1,-3.848634338E1,4.966125488E-1
2.966033936E0,1.625230408E1,-4.584851074E1,-1.641845703E-1
2.971099854E0,9.799926758E0,-4.546064758E1,7.336425781E-1
2.976135254E0,-1.778427124E0,-3.847676086E1,4.664916992E0
2.981201172E0,-1.385957336E1,-2.845703125E1,6.800552368E0
2.986236573E0,-1.863122559E1,-2.059208679E1,3.972991943E0
2.991302491E0,-1.628250122E1,-1.624659729E1,-9.518737793E-1
2.996368409E0,-1.142706299E1,-1.368719482E1,-5.371582031E0
3.001403809E0,-6.686553955E0,-1.183888245E1,-7.842391968E0
3.006469727E0,-3.310729980E0,-1.059867859E1,-8.802459717E0
3.011505127E0,-1.266067505E0,-9.763107300E0,-8.603744507E0
3.016571045E0,1.704406738E-1,-9.238769531E0,-7.998016357E0
3.021606446E0,1.867935181E0,-8.580368042E0,-5.649307251E0
3.026672364E0,4.037078857E0,-8.180541992E0,-3.798583984E0
3.031738282E0,4.879837036E0,-7.960266113E0,-3.987731934E0
3.036773682E0,4.300445557E0,-7.704086304E0,-4.954986572E0
3.041839600E0,2.928573608E0,-7.301864624E0,-5.579864502E0
3.046905518E0,1.271774292E0,-6.976257324E0,-5.261444092E0
3.051971436E0,5.313110352E-2,-6.892456055E0,-4.152923584E0
3.057006836E0,-5.406341553E-1,-7.160614014E0,-2.974975586E0
3.062042237E0,-4.161376953E-1,-7.704086304E0,-2.024475098E0
3.067108155E0,2.255096436E-1,-8.427139282E0,-1.251159668E0
3.072174073E0,9.892578125E-1,-9.052032471E0,-7.986450195E-1
3.077209473E0,1.860748291E0,-9.585937500E0,-5.999298096E-1
3.082275391E0,2.590988159E0,-9.997741699E0,-7.890777588E-1
3.087341309E0,3.031524658E0,-1.015814209E1,-1.277496338E0
3.092376709E0,3.091369629E0,-1.016293335E1,-1.868850708E0
3.097412110E0,2.873504639E0,-1.014378357E1,-2.321365356E0
3.102447510E0,2.602951050E0,-1.008152771E1,-2.426712036E0
3.107513428E0,2.363540649E0,-1.000970459E1,-2.417129517E0
3.112579346E0,2.193542480E0,-9.990554810E0,-2.268692017E0
3.117614747E0,2.119323730E0,-1.003604126E1,-1.981384277E0
3.122680664E0,2.164810181E0,-1.013899231E1,-1.698867798E0
3.127746582E0,2.284530640E0,-1.022758484E1,-1.289459229E0
3.132781983E0,2.315658569E0,-1.025152588E1,-6.765441895E-1
3.137817383E0,2.301284790E0,-1.027307129E1,-1.426391602E-1
3.142883301E0,2.291702271E0,-1.032574463E1,2.332458496E-1
3.147949219E0,2.306076050E0,-1.032334900E1,6.019592285E-1
3.152984620E0,2.272552490E0,-1.031376648E1,8.485565186E-1
3.158050538E0,2.179183960E0,-1.020364380E1,8.892669678E-1
3.163085938E0,2.097778320E0,-1.006477356E1,8.413848877E-1
3.168151856E0,2.047500610E0,-9.942672729E0,6.235046387E-1
3.173217774E0,1.970886230E0,-9.827743530E0,2.883148193E-1
3.178253174E0,1.918212891E0,-9.753524780E0,-1.095581055E-2
3.183319092E0,1.863143921E0,-9.712829590E0,-3.246002197E-1
3.188385010E0,1.791320801E0,-9.705642700E0,-7.316131592E-1
3.193420411E0,1.738647461E0,-9.696060181E0,-1.126663208E0
3.198486329E0,1.683578491E0,-9.734375000E0,-1.464233398E0
3.203521729E0,1.551895142E0,-9.772674561E0,-1.782669067E0
3.208587647E0,1.511199951E0,-9.779861450E0,-1.907165527E0
3.213623047E0,1.515991211E0,-9.830139160E0,-1.990966797E0
3.218688965E0,1.391494751E0,-9.806198120E0,-2.012512207E0
3.223724366E0,1.276565552E0,-9.796630859E0,-2.050811768E0
3.228790284E0,1.223892212E0,-9.794235229E0,-2.036453247E0
3.233856202E0,1.233474731E0,-9.770294189E0,-2.024475098E0
3.238891602E0,1.228683472E0,-9.739166260E0,-2.005325317E0
3.243957520E0,1.156860352E0,-9.708038330E0,-1.990966797E0
3.249023438E0,1.106582642E0,-9.681701660E0,-1.943084717E0
3.254058838E0,9.844818115E-1,-9.621841431E0,-1.792236328E0
3.259094239E0,9.126434326E-1,-9.621841431E0,-1.622253418E0
3.264160157E0,9.006805420E-1,-9.638610840E0,-1.500152588E0
3.269226075E0,9.820861816E-1,-9.693679810E0,-1.430725098E0
3.274261475E0,1.130523682E0,-9.782257080E0,-1.380447388E0
3.279296875E0,1.288543701E0,-9.878021240E0,-1.325378418E0
3.284362793E0,1.350784302E0,-9.940277100E0,-1.275100708E0
3.289428711E0,1.348388672E0,-9.889999390E0,-1.121871948E0
3.294494629E0,1.331634521E0,-9.815780640E0,-1.002151489E0
3.299530030E0,1.298110962E0,-9.700851440E0,-8.992004395E-1
3.304595948E0,1.164047241E0,-9.554809570E0,-7.770996094E-1
3.309661866E0,9.509582520E-1,-9.387222290E0,-5.759887695E-1
3.314697266E0,7.929382324E-1,-9.229202271E0,-5.376892090E-1
3.319732666E0,7.953338623E-1,-9.092727661E0,-5.472564697E-1
3.324798584E0,1.154464722E0,-9.154983521E0,-6.382446289E-1
3.329864502E0,1.441772461E0,-9.339324951E0,-8.249816895E-1
3.334899903E0,1.499221802E0,-9.363265991E0,-7.723083496E-1
3.339965821E0,1.731460571E0,-9.547622681E0,-8.106231689E-1
3.345001221E0,1.889480591E0,-9.782257080E0,-1.002151489E0
3.350067139E0,2.033142090E0,-9.954635620E0,-1.114685059E0
3.355102539E0,2.157638550E0,-1.006956482E1,-1.234390259E0
3.360168457E0,2.198333740E0,-1.026109314E1,-1.296646118E0
3.365234375E0,2.265365601E0,-1.039277649E1,-1.411560059E0
3.370269776E0,2.375503540E0,-1.053643799E1,-1.564788818E0
3.375335694E0,2.444931030E0,-1.061782837E1,-1.725204468E0
3.380371094E0,2.495223999E0,-1.070402527E1,-1.703659058E0
3.385437012E0,2.526336670E0,-1.072557068E1,-1.540847778E0
3.390502930E0,2.507186890E0,-1.070162964E1,-1.332550049E0
3.395538331E0,2.468887329E0,-1.056994629E1,-1.107498169E0
3.400604248E0,2.406631470E0,-1.043348694E1,-8.680877686E-1
3.405639649E0,2.327621460E0,-1.028982544E1,-6.932983398E-1
3.410705567E0,2.251007080E0,-1.013180542E1,-4.969787598E-1
3.415740967E0,2.145660400E0,-1.000491333E1,-3.868408203E-1
3.420806885E0,2.011581421E0,-9.911544800E0,-3.485412598E-1
3.425872803E0,1.899063110E0,-9.842117310E0,-3.006591797E-1
3.430938721E0,1.781738281E0,-9.799011230E0,-3.605041504E-1
3.435974122E0,1.700347900E0,-9.765502930E0,-4.084014893E-1
3.441009522E0,1.573455811E0,-9.741561890E0,-4.993743896E-1
3.446075440E0,1.506408691E0,-9.722396851E0,-5.783843994E-1
3.451110840E0,1.482467651E0,-9.760711670E0,-6.645812988E-1
3.456176758E0,1.422607422E0,-9.739166260E0,-8.058319092E-1
3.461212159E0,1.379516602E0,-9.736770630E0,-9.830017090E-1
3.466278077E0,1.384307861E0,-9.760711670E0,-1.093139648E0
3.471343995E0,1.372329712E0,-9.748733521E0,-1.243972778E0
3.476379395E0,1.345993042E0,-9.787048340E0,-1.325378418E0
3.481445313E0,1.329238892E0,-9.846908569E0,-1.385223389E0
3.486511231E0,1.317276001E0,-9.832534790E0,-1.425933838E0
3.491546631E0,1.317276001E0,-9.844512939E0,-1.418746948E0
3.496612549E0,1.312484741E0,-9.837326050E0,-1.363677979E0
3.501647950E0,1.302902222E0,-9.844512939E0,-1.284667969E0
3.506713868E0,1.312484741E0,-9.866058350E0,-1.191299438E0
3.511779786E0,1.317276001E0,-9.834930420E0,-1.107498169E0
3.516815186E0,1.343612671E0,-9.856475830E0,-1.035675049E0
3.521881104E0,1.374725342E0,-9.885208130E0,-9.830017090E-1
3.526947022E0,1.369934082E0,-9.882812500E0,-9.423065186E-1
3.531982422E0,1.357971191E0,-9.894790649E0,-9.087829590E-1
3.537017823E0,1.389099121E0,-9.894790649E0,-9.423065186E-1
3.542083741E0,1.432189941E0,-9.928298950E0,-9.758148193E-1
3.547119141E0,1.487258911E0,-9.925903320E0,-9.662475586E-1
3.552185059E0,1.444168091E0,-9.964218140E0,-9.327239990E-1
3.557250977E0,1.425003052E0,-9.957031250E0,-9.710388184E-1
3.562286377E0,1.432189941E0,-9.916336060E0,-1.006942749E0
3.567352295E0,1.427398682E0,-9.952239990E0,-9.399108887E-1
3.572418213E0,1.429794312E0,-9.957031250E0,-9.758148193E-1
3.577453614E0,1.374725342E0,-9.935485840E0,-1.004547119E0
3.582489014E0,1.322052002E0,-9.971405029E0,-9.806060791E-1
3.587554932E0,1.274169922E0,-9.942672729E0,-9.877929688E-1
3.592620850E0,1.214324951E0,-9.928298950E0,-1.045257568E0
3.597656250E0,1.147277832E0,-9.928298950E0,-1.021316528E0
3.602691651E0,1.092208862E0,-9.913940430E0,-1.014129639E0
3.607757569E0,1.075454712E0,-9.887603760E0,-1.076370239E0
3.612823487E0,1.020385742E0,-9.913940430E0,-1.109893799E0
3.617889405E0,9.581451416E-1,-9.937881470E0,-1.119476318E0
3.622924805E0,9.054718018E-1,-9.959426880E0,-1.129043579E0
3.627960206E0,8.743438721E-1,-9.971405029E0,-1.114685059E0
3.632995606E0,8.336334229E-1,-9.980972290E0,-1.126663208E0
3.638061524E0,8.216705322E-1,-9.995346069E0,-1.136230469E0
3.643127442E0,8.336334229E-1,-9.992950439E0,-1.109893799E0
3.648193360E0,8.887023926E-1,-9.995346069E0,-1.066802979E0
3.653259278E0,9.150390625E-1,-1.004562378E1,-1.064407349E0
3.658294678E0,9.485626221E-1,-1.006956482E1,-9.949798584E-1
3.663330079E0,1.020385742E0,-1.008871460E1,-9.925842285E-1
3.668395997E0,1.128128052E0,-1.011984253E1,-9.853973389E-1
3.673461914E0,1.190383911E0,-1.008871460E1,-9.039916992E-1
3.678497315E0,1.250228882E0,-1.005758667E1,-9.327239990E-1
3.683563233E0,1.314880371E0,-1.005041504E1,-9.039916992E-1
3.688629151E0,1.384307861E0,-1.003843689E1,-8.489227295E-1
3.693664551E0,1.468109131E0,-1.003125000E1,-8.369598389E-1
3.698730469E0,1.480072021E0,-1.000491333E1,-8.130187988E-1
3.703765870E0,1.520782471E0,-9.954635620E0,-7.818908691E-1
3.708831788E0,1.532745361E0,-9.942672729E0,-7.699127197E-1
3.713867188E0,1.556686401E0,-9.983367920E0,-7.603454590E-1
3.718933106E0,1.537536621E0,-9.954635620E0,-7.938690186E-1
3.723999024E0,1.501617432E0,-1.000251770E1,-7.699127197E-1
3.729034424E0,1.487258911E0,-1.003604126E1,-7.818908691E-1
3.734100342E0,1.484863281E0,-1.003604126E1,-7.938690186E-1
3.739135743E0,1.439376831E0,-1.010786438E1,-7.675323486E-1
3.744171143E0,1.386703491E0,-1.009590149E1,-7.794952393E-1
3.749237061E0,1.322052002E0,-1.006716919E1,-8.106231689E-1
3.754302979E0,1.281356812E0,-1.007675171E1,-8.034362793E-1
3.759368897E0,1.269378662E0,-1.007435608E1,-7.914733887E-1
3.764404297E0,1.245437622E0,-1.004322815E1,-7.794952393E-1
3.769470215E0,1.219100952E0,-1.003364563E1,-7.938690186E-1
3.774505616E0,1.185592651E0,-1.002647400E1,-7.411956787E-1
3.779571534E0,1.140090942E0,-1.001210022E1,-7.747039795E-1
3.784606934E0,1.087432861E0,-9.983367920E0,-7.435760498E-1
3.789672852E0,1.080245972E0,-9.973800659E0,-7.459716797E-1
3.794708252E0,1.099395752E0,-9.992950439E0,-7.579498291E-1
3.799774170E0,1.101791382E0,-9.985763550E0,-7.866821289E-1
3.804840088E0,1.099395752E0,-1.000491333E1,-8.034362793E-1
3.809875489E0,1.154464722E0,-9.983367920E0,-7.866821289E-1
3.814941407E0,1.183197021E0,-9.921127319E0,-8.489227295E-1
3.820007325E0,1.219100952E0,-9.928298950E0,-8.513183594E-1
3.825042725E0,1.247833252E0,-9.909149170E0,-8.776550293E-1
3.830108643E0,1.271774292E0,-9.880416870E0,-8.776550293E-1
3.835144043E0,1.283752441E0,-9.858871460E0,-9.087829590E-1
3.840209961E0,1.298110962E0,-9.842117310E0,-9.399108887E-1
3.845275879E0,1.362762451E0,-9.854080200E0,-1.002151489E0
3.850341797E0,1.413040161E0,-9.861267090E0,-1.050048828E0
3.855377198E0,1.453735352E0,-9.868453979E0,-9.901885986E-1
3.860412598E0,1.470504761E0,-9.921127319E0,-9.973754883E-1
3.865447998E0,1.513595581E0,-9.901962280E0,-9.925842285E-1
3.870513916E0,1.530349731E0,-9.911544800E0,-9.758148193E-1
3.875549317E0,1.551895142E0,-9.892395020E0,-9.710388184E-1
3.880615235E0,1.626113892E0,-9.851684570E0,-9.518737793E-1
3.885681153E0,1.628509521E0,-9.830139160E0,-8.944244385E-1
3.890747071E0,1.664428711E0,-9.825347900E0,-8.824462891E-1
3.895782471E0,1.707519531E0,-9.837326050E0,-8.728637695E-1
3.900848389E0,1.719497681E0,-9.839721680E0,-8.537139893E-1
3.905883789E0,1.760192871E0,-9.849288940E0,-8.130187988E-1
3.910949707E0,1.791320801E0,-9.909149170E0,-7.986450195E-1
3.915985108E0,1.791320801E0,-9.935485840E0,-8.369598389E-1
3.921051026E0,1.815261841E0,-9.964218140E0,-8.441467285E-1
3.926116944E0,1.855957031E0,-1.001928711E1,-8.225860596E-1
3.931152344E0,1.829635620E0,-1.005281067E1,-7.842864990E-1
3.936187745E0,1.810470581E0,-1.007435608E1,-7.747039795E-1
3.941253663E0,1.817657471E0,-1.004801941E1,-8.417510986E-1
3.946319581E0,1.791320801E0,-1.007675171E1,-8.513183594E-1
3.951385498E0,1.805679321E0,-1.011984253E1,-8.609008789E-1
3.956420899E0,1.820053101E0,-1.012463379E1,-8.800506592E-1
3.961456299E0,1.848785400E0,-1.006237793E1,-8.992004395E-1
3.966522217E0,1.846389771E0,-1.006477356E1,-8.968048096E-1
3.971588135E0,1.867935181E0,-1.002885437E1,-9.207611084E-1
3.976623536E0,1.841598511E0,-1.001689148E1,-9.758148193E-1
3.981689454E0,1.817657471E0,-1.001210022E1,-9.470977783E-1
3.986755372E0,1.764984131E0,-9.940277100E0,-9.686431885E-1
3.991790772E0,1.719497681E0,-9.923522949E0,-9.877929688E-1
3.996826172E0,1.695556641E0,-9.904357910E0,-9.614562988E-1
4.001892090E0,1.647674561E0,-9.906753540E0,-9.614562988E-1
4.006958008E0,1.599792480E0,-9.880416870E0,-9.303283691E-1
4.011993409E0,1.515991211E0,-9.868453979E0,-9.015960693E-1
4.017059327E0,1.429794312E0,-9.875625610E0,-9.039916992E-1
4.022094727E0,1.377120972E0,-9.875625610E0,-8.752593994E-1
4.027160645E0,1.314880371E0,-9.868453979E0,-8.393554688E-1
4.032226563E0,1.240661621E0,-9.887603760E0,-8.273773193E-1
4.037261963E0,1.144882202E0,-9.882812500E0,-8.680877686E-1
4.042327881E0,1.049118042E0,-9.863662720E0,-8.441467285E-1
4.047393799E0,9.748992920E-1,-9.887603760E0,-7.962493896E-1
4.052429200E0,9.078674316E-1,-9.911544800E0,-8.082275391E-1
4.057464600E0,8.527984619E-1,-9.921127319E0,-8.010406494E-1
4.062530518E0,7.833557129E-1,-9.935485840E0,-7.579498291E-1
4.067596436E0,7.689971924E-1,-9.923522949E0,-7.483673096E-1
4.072631836E0,6.995697021E-1,-9.913940430E0,-7.435760498E-1
4.077697754E0,6.875915527E-1,-9.904357910E0,-7.459716797E-1
4.082733155E0,7.091369629E-1,-9.921127319E0,-6.789398193E-1
4.087799073E0,6.588592529E-1,-9.911544800E0,-6.095123291E-1
4.092864991E0,6.540679932E-1,-9.882812500E0,-5.688018799E-1
4.097900391E0,6.588592529E-1,-9.882812500E0,-5.711975098E-1
4.102966309E0,6.421051025E-1,-9.827743530E0,-5.616302490E-1
4.108001709E0,6.492919922E-1,-9.810989380E0,-5.424652100E-1
4.113067627E0,6.540679932E-1,-9.803802490E0,-4.874114990E-1
4.118103028E0,6.851959229E-1,-9.791839600E0,-4.993743896E-1
4.123168946E0,7.163238525E-1,-9.803802490E0,-4.490966797E-1
4.128234864E0,7.833557129E-1,-9.818176270E0,-4.921875000E-1
4.133270264E0,8.072967529E-1,-9.834930420E0,-5.017700195E-1
4.138305664E0,8.432159424E-1,-9.822967529E0,-4.874114990E-1
4.143371582E0,8.982849121E-1,-9.844512939E0,-5.305023193E-1
4.148437500E0,9.509582520E-1,-9.873245239E0,-5.424652100E-1
4.153503418E0,9.844818115E-1,-9.897186279E0,-5.496520996E-1
4.158538819E0,9.916534424E-1,-9.911544800E0,-5.831756592E-1
4.163574219E0,9.988403320E-1,-9.933090210E0,-6.095123291E-1
4.168640137E0,9.677124023E-1,-9.937881470E0,-6.071166992E-1
4.173706055E0,9.437713623E-1,-9.921127319E0,-6.071166992E-1
4.178741456E0,9.389801025E-1,-9.918731689E0,-6.334533691E-1
4.183807373E0,9.030761719E-1,-9.909149170E0,-6.047210693E-1
4.188842774E0,8.839111328E-1,-9.892395020E0,-5.975341797E-1
4.193908692E0,8.599700928E-1,-9.897186279E0,-6.119079590E-1
4.198944092E0,8.527984619E-1,-9.961822510E0,-5.807800293E-1
4.204010010E0,7.833557129E-1,-1.000730896E1,-5.879669189E-1
4.209075928E0,7.187194824E-1,-9.983367920E0,-5.616302490E-1
4.214111329E0,7.378692627E-1,-1.002407837E1,-5.711975098E-1
4.219177247E0,7.594146729E-1,-1.009829712E1,-5.328979492E-1
4.224243164E0,7.666015625E-1,-1.012463379E1,-5.400695801E-1
4.229309082E0,8.384246826E-1,-1.017970276E1,-5.544433594E-1
4.234344483E0,8.863067627E-1,-1.025631714E1,-5.735931396E-1
4.239379883E0,9.437713623E-1,-1.026348877E1,-6.119079590E-1
4.244445801E0,1.037155151E0,-1.030180359E1,-6.693572998E-1
4.249511719E0,1.104187012E0,-1.026109314E1,-7.052764893E-1
4.254547120E0,1.159255981E0,-1.020364380E1,-7.483673096E-1
4.259613038E0,1.199951172E0,-1.019645691E1,-7.244262695E-1
4.264648438E0,1.300506592E0,-1.018447876E1,-8.297729492E-1
4.269714356E0,1.420227051E0,-1.012702942E1,-8.776550293E-1
4.274749756E0,1.504013062E0,-1.008392334E1,-8.585052490E-1
4.279815674E0,1.592605591E0,-1.004322815E1,-8.728637695E-1
4.284851075E0,1.721893311E0,-9.961822510E0,-9.087829590E-1
4.289916993E0,1.798507690E0,-9.889999390E0,-9.590606689E-1
4.294952393E0,1.891876221E0,-9.799011230E0,-9.710388184E-1
4.300018311E0,1.934967041E0,-9.796630859E0,-1.014129639E0
4.305053711E0,1.951736450E0,-9.755920410E0,-9.686431885E-1
4.310119629E0,1.992431641E0,-9.679306030E0,-9.279327393E-1
4.315185547E0,1.994827271E0,-9.652969360E0,-9.231414795E-1
4.320220948E0,1.975677490E0,-9.621841431E0,-8.992004395E-1
4.325286866E0,1.963699341E0,-9.595504761E0,-8.513183594E-1
4.330352784E0,1.927795410E0,-9.605087280E0,-8.585052490E-1
4.335388184E0,1.882293701E0,-9.576354980E0,-8.225860596E-1
4.340454102E0,1.841598511E0,-9.609878540E0,-8.225860596E-1
4.345489502E0,1.743438721E0,-9.612274170E0,-8.561096191E-1
4.350555420E0,1.650070190E0,-9.655364990E0,-8.393554688E-1
4.355590821E0,1.515991211E0,-9.700851440E0,-7.962493896E-1
4.360656739E0,1.432189941E0,-9.741561890E0,-7.316131592E-1
4.365722657E0,1.386703491E0,-9.784652710E0,-7.483673096E-1
4.370788575E0,1.331634521E0,-9.791839600E0,-6.885223389E-1
4.375823975E0,1.336425781E0,-9.834930420E0,-6.526031494E-1
4.380859375E0,1.334030151E0,-9.875625610E0,-6.238708496E-1
4.385925293E0,1.374725342E0,-9.878021240E0,-6.166839600E-1
4.390991211E0,1.436981201E0,-9.887603760E0,-5.879669189E-1
4.396026612E0,1.470504761E0,-9.921127319E0,-5.520477295E-1
4.401092530E0,1.492050171E0,-9.933090210E0,-5.065612793E-1
4.406127930E0,1.539932251E0,-9.954635620E0,-5.233154297E-1
4.411193848E0,1.597396851E0,-9.947463989E0,-4.802246094E-1
4.416229248E0,1.650070190E0,-9.949859619E0,-4.706420898E-1
4.421295166E0,1.678787231E0,-9.947463989E0,-4.634552002E-1
4.426361084E0,1.733856201E0,-9.983367920E0,-4.107818604E-1
4.431396485E0,1.741043091E0,-1.005041504E1,-4.323425293E-1
4.436431885E0,1.767379761E0,-1.010308838E1,-4.395141602E-1
4.441467286E0,1.719497681E0,-1.010786438E1,-3.868408203E-1
4.446533204E0,1.731460571E0,-1.012463379E1,-3.868408203E-1
4.451599122E0,1.717102051E0,-1.010546875E1,-3.461456299E-1
4.456665039E0,1.647674561E0,-1.012223816E1,-3.437500000E-1
4.461700440E0,1.623733521E0,-1.014378357E1,-3.844604492E-1
4.466766358E0,1.549499512E0,-1.012942505E1,-3.222045898E-1
4.471801758E0,1.530349731E0,-1.012223816E1,-3.150177002E-1
4.476867676E0,1.475280762E0,-1.006716919E1,-3.030548096E-1
4.481933594E0,1.362762451E0,-1.004322815E1,-3.485412598E-1
4.486968995E0,1.338821411E0,-1.001689148E1,-3.557281494E-1
4.492034913E0,1.271774292E0,-9.990554810E0,-3.652954102E-1
4.497100831E0,1.211929321E0,-1.000251770E1,-4.036102295E-1
4.502136231E0,1.152069092E0,-1.000013733E1,-4.036102295E-1
4.507202149E0,1.077850342E0,-9.942672729E0,-4.538879395E-1
4.512237549E0,9.988403320E-1,-9.954635620E0,-5.113525391E-1
4.517303467E0,9.437713623E-1,-9.969009399E0,-5.257110596E-1
4.522338868E0,8.599700928E-1,-9.937881470E0,-5.520477295E-1
4.527404786E0,7.833557129E-1,-9.921127319E0,-6.143035889E-1
4.532470704E0,7.187194824E-1,-9.923522949E0,-6.502075195E-1
4.537506104E0,6.732330322E-1,-9.966613770E0,-6.861267090E-1
4.542572022E0,6.181640625E-1,-9.940277100E0,-6.909179688E-1
4.547637940E0,5.822448730E-1,-9.959426880E0,-6.956939697E-1
4.552673340E0,5.128173828E-1,-9.988159180E0,-7.220306396E-1
4.557708741E0,5.056304932E-1,-9.985763550E0,-6.861267090E-1
4.562774659E0,4.912719727E-1,-9.992950439E0,-6.789398193E-1
4.567810059E0,4.840850830E-1,-9.978576660E0,-6.861267090E-1
4.572875977E0,5.200042725E-1,-9.952239990E0,-6.669616699E-1
4.577911377E0,5.606994629E-1,-9.954635620E0,-6.023254395E-1
4.582977295E0,6.037902832E-1,-9.964218140E0,-5.305023193E-1
4.588043213E0,6.373138428E-1,-9.980972290E0,-4.778289795E-1
4.593109131E0,6.947784424E-1,-9.978576660E0,-4.538879395E-1
4.598144532E0,7.666015625E-1,-9.947463989E0,-4.155731201E-1
4.603179932E0,7.929382324E-1,-9.969009399E0,-3.940277100E-1
4.608245850E0,8.767395020E-1,-9.976196289E0,-3.964233398E-1
4.613311768E0,9.342041016E-1,-9.980972290E0,-3.988189697E-1
4.618347168E0,9.533538818E-1,-9.985763550E0,-4.227600098E-1
4.623413086E0,1.010818481E0,-9.973800659E0,-4.395141602E-1
4.628479004E0,1.056304932E0,-9.966613770E0,-4.514923096E-1
4.633514405E0,1.044326782E0,-9.964218140E0,-4.778289795E-1
4.638549805E0,1.065872192E0,-9.954635620E0,-4.682464600E-1
4.643615723E0,1.056304932E0,-9.940277100E0,-4.778289795E-1
4.648681641E0,1.025177002E0,-9.916336060E0,-5.113525391E-1
4.653747559E0,9.988403320E-1,-9.904357910E0,-5.281066895E-1
4.658782959E0,9.796905518E-1,-9.942672729E0,-5.544433594E-1
4.663848877E0,9.701080322E-1,-9.918731689E0,-5.855712891E-1
4.668884278E0,9.389801025E-1,-9.918731689E0,-6.119079590E-1
4.673950196E0,9.174346924E-1,-9.901962280E0,-5.999298096E-1
4.678985596E0,8.719482422E-1,-9.882812500E0,-6.023254395E-1
4.684051514E0,8.743438721E-1,-9.882812500E0,-6.286621094E-1
4.689117432E0,9.102478027E-1,-9.911544800E0,-5.879669189E-1
4.694152832E0,8.934936523E-1,-9.913940430E0,-5.544433594E-1
4.699188233E0,9.222259521E-1,-9.928298950E0,-5.735931396E-1
4.704254151E0,9.318084717E-1,-9.964218140E0,-5.400695801E-1
4.709320069E0,9.461669922E-1,-9.973800659E0,-5.305023193E-1
4.714355469E0,9.653167725E-1,-9.992950439E0,-5.161285400E-1
4.719421387E0,1.003631592E0,-1.002885437E1,-5.017700195E-1
4.724456788E0,1.032363892E0,-1.002407837E1,-4.802246094E-1
4.729522706E0,1.089813232E0,-1.004322815E1,-4.658508301E-1
4.734588623E0,1.118545532E0,-1.006956482E1,-4.395141602E-1
4.739624024E0,1.149673462E0,-1.003604126E1,-4.562835693E-1
4.744689942E0,1.161651611E0,-1.002407837E1,-4.586791992E-1
4.749725342E0,1.166427612E0,-1.001928711E1,-4.467010498E-1
4.754791260E0,1.183197021E0,-9.997741699E0,-4.323425293E-1
4.759826661E0,1.216705322E0,-9.983367920E0,-4.251556396E-1
4.764892579E0,1.221496582E0,-9.937881470E0,-4.443054199E-1
4.769927979E0,1.199951172E0,-9.971405029E0,-4.802246094E-1
4.774993897E0,1.178405762E0,-1.000491333E1,-4.826202393E-1
4.780059815E0,1.180801392E0,-9.985763550E0,-4.730377197E-1
4.785095215E0,1.168823242E0,-1.000491333E1,-4.634552002E-1
4.790161133E0,1.164047241E0,-1.000730896E1,-4.945831299E-1
4.795196534E0,1.192764282E0,-9.985763550E0,-4.682464600E-1
4.800262452E0,1.197555542E0,-1.001449585E1,-4.467010498E-1
4.805297852E0,1.171218872E0,-1.001689148E1,-4.754333496E-1
4.810363770E0,1.171218872E0,-1.003125000E1,-4.826202393E-1
4.815429688E0,1.192764282E0,-9.980972290E0,-4.562835693E-1
4.820465088E0,1.202346802E0,-9.961822510E0,-4.610748291E-1
4.825531006E0,1.211929321E0,-1.000491333E1,-4.778289795E-1
4.830596924E0,1.176010132E0,-9.961822510E0,-4.850158691E-1
4.835632325E0,1.168823242E0,-9.971405029E0,-4.538879395E-1
4.840667725E0,1.159255981E0,-9.964218140E0,-4.778289795E-1
4.845733643E0,1.125732422E0,-9.964218140E0,-5.017700195E-1
4.850799561E0,1.147277832E0,-9.966613770E0,-4.897918701E-1
4.855834961E0,1.142486572E0,-9.966613770E0,-4.993743896E-1
4.860900879E0,1.085037231E0,-9.985763550E0,-5.185241699E-1
4.865966797E0,1.087432861E0,-9.959426880E0,-5.185241699E-1
4.871002198E0,1.101791382E0,-9.954635620E0,-5.400695801E-1
4.876037598E0,1.053909302E0,-9.966613770E0,-5.424652100E-1
4.881103516E0,1.053909302E0,-9.952239990E0,-5.424652100E-1
4.886169434E0,1.044326782E0,-9.959426880E0,-5.640258789E-1
4.891235352E0,1.041931152E0,-9.959426880E0,-5.568389893E-1
4.896270752E0,1.027572632E0,-9.947463989E0,-5.472564697E-1
4.901306153E0,1.017990112E0,-9.973800659E0,-5.759887695E-1
4.906372071E0,1.034759521E0,-9.952239990E0,-5.496520996E-1
4.911437989E0,1.029968262E0,-9.949859619E0,-5.424652100E-1
4.916473389E0,1.073059082E0,-9.942672729E0,-5.616302490E-1
4.921508789E0,1.049118042E0,-9.952239990E0,-5.735931396E-1
4.926574707E0,1.082641602E0,-9.925903320E0,-5.688018799E-1
4.931640625E0,1.097000122E0,-9.933090210E0,-5.879669189E-1
4.936676026E0,1.108978271E0,-9.933090210E0,-5.783843994E-1
4.941741944E0,1.135314941E0,-9.923522949E0,-5.879669189E-1
4.946807862E0,1.130523682E0,-9.935485840E0,-5.903472900E-1
4.951843262E0,1.113769531E0,-9.901962280E0,-5.807800293E-1
4.956878663E0,1.178405762E0,-9.913940430E0,-5.903472900E-1
4.961944581E0,1.166427612E0,-9.909149170E0,-6.023254395E-1
4.967010498E0,1.171218872E0,-9.916336060E0,-6.023254395E-1
4.972076416E0,1.202346802E0,-9.863662720E0,-6.286621094E-1
4.977142334E0,1.195159912E0,-9.892395020E0,-6.095123291E-1
4.982177735E0,1.183197021E0,-9.889999390E0,-5.903472900E-1
4.987213135E0,1.178405762E0,-9.880416870E0,-5.831756592E-1
4.992279053E0,1.159255981E0,-9.918731689E0,-5.783843994E-1
4.997344971E0,1.147277832E0,-9.916336060E0,-5.592346191E-1
5.002410889E0,1.135314941E0,-9.949859619E0,-5.305023193E-1
5.007476807E0,1.116149902E0,-9.961822510E0,-5.328979492E-1
5.012512207E0,1.111373901E0,-9.990554810E0,-5.137329102E-1
5.017547608E0,1.123336792E0,-1.001689148E1,-5.233154297E-1
5.022583008E0,1.094604492E0,-1.004083252E1,-5.185241699E-1
5.027648926E0,1.089813232E0,-1.005998230E1,-4.850158691E-1
5.032684327E0,1.077850342E0,-1.004801941E1,-5.065612793E-1
5.037750245E0,1.063476562E0,-1.005281067E1,-5.017700195E-1
5.042816163E0,1.049118042E0,-1.006237793E1,-4.802246094E-1
5.047851563E0,1.063476562E0,-1.004562378E1,-4.874114990E-1
5.052917481E0,1.073059082E0,-1.000013733E1,-5.161285400E-1
5.057983399E0,1.049118042E0,-1.000491333E1,-5.400695801E-1
5.063049317E0,1.032363892E0,-9.988159180E0,-5.089569092E-1
5.068084717E0,1.029968262E0,-9.966613770E0,-5.305023193E-1
5.073150635E0,1.070663452E0,-9.947463989E0,-5.544433594E-1
5.078186036E0,1.056304932E0,-9.945068359E0,-5.855712891E-1
5.083251954E0,1.037155151E0,-9.966613770E0,-5.831756592E-1
5.088287354E0,1.053909302E0,-9.947463989E0,-5.903472900E-1
5.093353272E0,1.039535522E0,-9.947463989E0,-5.903472900E-1
5.098388672E0,1.056304932E0,-9.959426880E0,-6.382446289E-1
5.103454590E0,1.037155151E0,-9.983367920E0,-6.262664795E-1
5.108489991E0,1.044326782E0,-9.961822510E0,-6.190795898E-1
5.113555909E0,1.061096191E0,-9.964218140E0,-6.095123291E-1
5.118621827E0,1.049118042E0,-9.980972290E0,-6.071166992E-1
5.123687745E0,1.063476562E0,-1.001689148E1,-6.023254395E-1
5.128723145E0,1.065872192E0,-1.000491333E1,-5.999298096E-1
5.133789063E0,1.077850342E0,-9.988159180E0,-6.119079590E-1
5.138824463E0,1.068267822E0,-9.971405029E0,-5.807800293E-1
5.143890381E0,1.089813232E0,-9.964218140E0,-5.735931396E-1
5.148925782E0,1.101791382E0,-9.995346069E0,-5.759887695E-1
5.153991700E0,1.101791382E0,-1.000491333E1,-5.879669189E-1
5.159027100E0,1.082641602E0,-1.000013733E1,-5.711975098E-1
5.164093018E0,1.082641602E0,-9.985763550E0,-5.688018799E-1
5.169128418E0,1.087432861E0,-9.988159180E0,-5.999298096E-1
5.174194336E0,1.089813232E0,-9.983367920E0,-5.688018799E-1
5.179260254E0,1.094604492E0,-9.985763550E0,-5.783843994E-1
5.184326172E0,1.061096191E0,-9.990554810E0,-5.520477295E-1
5.189361573E0,1.058700562E0,-9.973800659E0,-5.688018799E-1
5.194396973E0,1.068267822E0,-9.966613770E0,-5.783843994E-1
5.199462891E0,1.065872192E0,-9.980972290E0,-5.807800293E-1
5.204528809E0,1.075454712E0,-9.959426880E0,-5.903472900E-1
5.209564209E0,1.085037231E0,-9.966613770E0,-6.214752197E-1
5.214630127E0,1.092208862E0,-9.980972290E0,-6.382446289E-1
5.219665528E0,1.118545532E0,-9.964218140E0,-6.334533691E-1
5.224731446E0,1.108978271E0,-9.949859619E0,-6.478118896E-1
5.229766846E0,1.077850342E0,-9.935485840E0,-6.669616699E-1
5.234832764E0,1.104187012E0,-9.935485840E0,-6.980895996E-1
5.239898682E0,1.128128052E0,-9.942672729E0,-7.316131592E-1
5.244934082E0,1.135314941E0,-9.930694580E0,-7.364044189E-1
5.249969483E0,1.108978271E0,-9.937881470E0,-7.220306396E-1
5.255035401E0,1.128128052E0,-9.954635620E0,-7.220306396E-1
5.260101319E0,1.149673462E0,-9.976196289E0,-7.435760498E-1
5.265167237E0,1.166427612E0,-9.971405029E0,-7.435760498E-1
5.270202637E0,1.171218872E0,-9.966613770E0,-7.364044189E-1
5.275238038E0,1.178405762E0,-9.947463989E0,-7.124633789E-1
5.280303956E0,1.226287842E0,-9.980972290E0,-6.597900391E-1
5.285339356E0,1.221496582E0,-9.983367920E0,-6.980895996E-1
5.290405274E0,1.209533691E0,-9.978576660E0,-6.669616699E-1
5.295440674E0,1.233474731E0,-9.988159180E0,-6.334533691E-1
5.300506592E0,1.216705322E0,-9.983367920E0,-6.382446289E-1
5.305541993E0,1.240661621E0,-1.001449585E1,-6.166839600E-1
5.310607911E0,1.226287842E0,-1.001928711E1,-6.143035889E-1
5.315643311E0,1.219100952E0,-1.001449585E1,-6.286621094E-1
5.320709229E0,1.190383911E0,-1.002168274E1,-5.951385498E-1
5.325775147E0,1.178405762E0,-9.957031250E0,-6.071166992E-1
5.330841065E0,1.185592651E0,-9.959426880E0,-5.975341797E-1
5.335876465E0,1.219100952E0,-9.980972290E0,-6.119079590E-1
5.340911866E0,1.197555542E0,-9.947463989E0,-6.166839600E-1
5.345977784E0,1.166427612E0,-9.913940430E0,-6.214752197E-1
5.351043702E0,1.204742432E0,-9.925903320E0,-6.262664795E-1
5.356079102E0,1.250228882E0,-9.923522949E0,-6.693572998E-1
5.361145020E0,1.238265991E0,-9.933090210E0,-6.430206299E-1
5.366210938E0,1.247833252E0,-9.911544800E0,-6.478118896E-1
5.371246338E0,1.238265991E0,-9.909149170E0,-6.693572998E-1
5.376281739E0,1.243041992E0,-9.961822510E0,-6.573944092E-1
5.381347657E0,1.257415771E0,-9.971405029E0,-6.909179688E-1
5.386413575E0,1.266998291E0,-9.925903320E0,-6.909179688E-1
5.391479493E0,1.266998291E0,-9.940277100E0,-6.813354492E-1
5.396514893E0,1.271774292E0,-9.980972290E0,-6.502075195E-1
5.401550293E0,1.257415771E0,-9.969009399E0,-6.549987793E-1
5.406616211E0,1.257415771E0,-9.983367920E0,-6.645812988E-1
5.411682129E0,1.226287842E0,-9.971405029E0,-6.669616699E-1
5.416748047E0,1.209533691E0,-9.976196289E0,-6.621856689E-1
5.421783448E0,1.192764282E0,-9.976196289E0,-6.382446289E-1
5.426849366E0,1.156860352E0,-9.995346069E0,-6.717529297E-1
5.431915284E0,1.144882202E0,-1.000013733E1,-6.549987793E-1
5.436950684E0,1.123336792E0,-9.985763550E0,-6.454162598E-1
5.441986084E0,1.113769531E0,-9.966613770E0,-6.430206299E-1
5.447052002E0,1.094604492E0,-9.952239990E0,-6.334533691E-1
5.452117920E0,1.116149902E0,-9.942672729E0,-5.927429199E-1
5.457153321E0,1.113769531E0,-9.949859619E0,-6.071166992E-1
5.462188721E0,1.101791382E0,-9.942672729E0,-6.334533691E-1
5.467254639E0,1.101791382E0,-9.930694580E0,-6.047210693E-1
5.472290039E0,1.106582642E0,-9.957031250E0,-5.975341797E-1
5.477355957E0,1.128128052E0,-9.983367920E0,-6.549987793E-1
5.482421875E0,1.101791382E0,-9.933090210E0,-6.286621094E-1
5.487487793E0,1.137710571E0,-9.935485840E0,-6.286621094E-1
5.492553711E0,1.123336792E0,-9.973800659E0,-6.382446289E-1
5.497589112E0,1.094604492E0,-9.954635620E0,-6.047210693E-1
5.502624512E0,1.125732422E0,-9.940277100E0,-6.166839600E-1
5.507690430E0,1.142486572E0,-9.916336060E0,-6.214752197E-1
5.512756348E0,1.144882202E0,-9.933090210E0,-6.166839600E-1
5.517791748E0,1.142486572E0,-9.899581909E0,-6.382446289E-1
5.522857666E0,1.176010132E0,-9.885208130E0,-6.382446289E-1
5.527893067E0,1.199951172E0,-9.880416870E0,-6.214752197E-1
5.532958985E0,1.190383911E0,-9.880416870E0,-6.789398193E-1
5.537994385E0,1.190383911E0,-9.897186279E0,-6.741485596E-1
5.543029786E0,1.161651611E0,-9.901962280E0,-6.741485596E-1
5.548095704E0,1.183197021E0,-9.937881470E0,-6.956939697E-1
5.553161622E0,1.183197021E0,-9.961822510E0,-7.292175293E-1
5.558197022E0,1.176010132E0,-9.969009399E0,-6.813354492E-1
5.563262940E0,1.195159912E0,-9.976196289E0,-6.765441895E-1
5.568298340E0,1.221496582E0,-9.973800659E0,-6.645812988E-1
5.573364258E0,1.199951172E0,-9.988159180E0,-6.621856689E-1
5.578399659E0,1.168823242E0,-1.000013733E1,-6.238708496E-1
5.583465577E0,1.154464722E0,-9.995346069E0,-6.334533691E-1
5.588531495E0,1.171218872E0,-9.964218140E0,-6.190795898E-1
5.593566895E0,1.159255981E0,-9.988159180E0,-5.855712891E-1
5.598632813E0,1.125732422E0,-9.990554810E0,-5.568389893E-1
5.603698731E0,1.154464722E0,-9.983367920E0,-5.688018799E-1
5.608734131E0,1.135314941E0,-9.969009399E0,-6.047210693E-1
5.613800049E0,1.123336792E0,-9.973800659E0,-5.879669189E-1
5.618865967E0,1.104187012E0,-9.983367920E0,-5.975341797E-1
5.623901368E0,1.087432861E0,-9.947463989E0,-5.951385498E-1
5.628967286E0,1.080245972E0,-9.990554810E0,-5.783843994E-1
5.634033204E0,1.082641602E0,-9.959426880E0,-5.903472900E-1
5.639068604E0,1.058700562E0,-9.971405029E0,-5.975341797E-1
5.644134522E0,1.080245972E0,-9.976196289E0,-6.119079590E-1
5.649169922E0,1.073059082E0,-9.980972290E0,-5.999298096E-1
5.654235840E0,1.077850342E0,-9.952239990E0,-6.286621094E-1
5.659271241E0,1.046722412E0,-9.957031250E0,-6.334533691E-1
5.664337159E0,1.049118042E0,-9.952239990E0,-6.071166992E-1
5.669403077E0,1.053909302E0,-9.957031250E0,-6.047210693E-1
5.674438477E0,1.053909302E0,-9.990554810E0,-5.592346191E-1
5.679504395E0,1.070663452E0,-9.992950439E0,-5.568389893E-1
5.684539795E0,1.063476562E0,-1.000491333E1,-5.472564697E-1
5.689575196E0,1.061096191E0,-1.002885437E1,-5.281066895E-1
5.694641114E0,1.058700562E0,-1.002647400E1,-5.209197998E-1
5.699707032E0,1.058700562E0,-1.001210022E1,-4.993743896E-1
5.704772950E0,1.061096191E0,-1.003125000E1,-4.969787598E-1
5.709808350E0,1.027572632E0,-1.001689148E1,-5.017700195E-1
5.714874268E0,1.029968262E0,-1.001928711E1,-5.113525391E-1
5.719909668E0,1.041931152E0,-9.976196289E0,-5.137329102E-1
5.724975586E0,1.044326782E0,-9.961822510E0,-5.640258789E-1
5.730041504E0,1.034759521E0,-9.990554810E0,-6.095123291E-1
5.735076905E0,1.025177002E0,-9.997741699E0,-6.454162598E-1
5.740142823E0,1.044326782E0,-9.985763550E0,-6.478118896E-1
5.745178223E0,1.063476562E0,-9.969009399E0,-6.980895996E-1
5.750244141E0,1.063476562E0,-9.959426880E0,-7.004852295E-1
5.755279541E0,1.058700562E0,-9.949859619E0,-6.741485596E-1
5.760345459E0,1.056304932E0,-9.933090210E0,-6.549987793E-1
5.765411377E0,1.077850342E0,-9.947463989E0,-6.669616699E-1
5.770446778E0,1.097000122E0,-9.942672729E0,-6.526031494E-1
5.775512696E0,1.111373901E0,-9.949859619E0,-6.310577393E-1
5.780548096E0,1.125732422E0,-9.957031250E0,-6.023254395E-1
5.785614014E0,1.149673462E0,-9.957031250E0,-5.927429199E-1
5.790649414E0,1.154464722E0,-9.995346069E0,-6.095123291E-1
5.795715332E0,1.168823242E0,-9.983367920E0,-6.143035889E-1
5.800781250E0,1.161651611E0,-9.949859619E0,-6.166839600E-1
5.805816651E0,1.154464722E0,-9.983367920E0,-6.047210693E-1
5.810882569E0,1.195159912E0,-9.966613770E0,-5.999298096E-1
5.815917969E0,1.176010132E0,-9.961822510E0,-6.214752197E-1
5.820953370E0,1.156860352E0,-9.969009399E0,-5.951385498E-1
5.826019288E0,1.183197021E0,-9.957031250E0,-6.190795898E-1
5.831085206E0,1.156860352E0,-9.976196289E0,-6.119079590E-1
5.836120606E0,1.166427612E0,-9.978576660E0,-6.262664795E-1
5.841156006E0,1.149673462E0,-9.976196289E0,-6.645812988E-1
5.846221924E0,1.137710571E0,-9.966613770E0,-6.406402588E-1
5.851287842E0,1.149673462E0,-9.973800659E0,-6.262664795E-1
5.856323243E0,1.118545532E0,-9.983367920E0,-6.526031494E-1
5.861389161E0,1.104187012E0,-9.957031250E0,-6.526031494E-1
5.866455079E0,1.108978271E0,-9.937881470E0,-6.071166992E-1
5.871490479E0,1.116149902E0,-9.940277100E0,-6.454162598E-1
5.876525879E0,1.101791382E0,-9.947463989E0,-6.813354492E-1
5.881591797E0,1.068267822E0,-9.923522949E0,-6.837310791E-1
5.886657715E0,1.087432861E0,-9.940277100E0,-6.741485596E-1
5.891693116E0,1.070663452E0,-9.947463989E0,-6.861267090E-1
5.896759034E0,1.113769531E0,-9.964218140E0,-6.932983398E-1
5.901794434E0,1.144882202E0,-9.957031250E0,-6.813354492E-1
5.906860352E0,1.142486572E0,-9.961822510E0,-6.454162598E-1
5.911895752E0,1.137710571E0,-9.976196289E0,-6.765441895E-1
5.916961670E0,1.161651611E0,-9.980972290E0,-6.358489990E-1
5.922027588E0,1.154464722E0,-9.971405029E0,-6.502075195E-1
5.927062989E0,1.173614502E0,-9.942672729E0,-6.885223389E-1
5.932128907E0,1.176010132E0,-9.928298950E0,-6.765441895E-1
5.937164307E0,1.187988281E0,-9.954635620E0,-6.454162598E-1
5.942230225E0,1.199951172E0,-9.959426880E0,-6.238708496E-1
5.947296143E0,1.195159912E0,-9.940277100E0,-6.813354492E-1
5.952362061E0,1.216705322E0,-9.887603760E0,-6.837310791E-1
5.957397461E0,1.199951172E0,-9.918731689E0,-6.526031494E-1
5.962432862E0,1.183197021E0,-9.933090210E0,-6.741485596E-1
5.967498780E0,1.180801392E0,-9.916336060E0,-6.813354492E-1
5.972564698E0,1.166427612E0,-9.959426880E0,-6.765441895E-1
5.977600098E0,1.156860352E0,-9.954635620E0,-6.932983398E-1
5.982635498E0,1.128128052E0,-9.947463989E0,-6.956939697E-1
5.987701416E0,1.118545532E0,-9.964218140E0,-6.956939697E-1
5.992767334E0,1.113769531E0,-1.000251770E1,-7.076721191E-1
5.997802735E0,1.120941162E0,-9.992950439E0,-6.956939697E-1
6.002868653E0,1.130523682E0,-9.949859619E0,-6.861267090E-1
6.007904053E0,1.106582642E0,-1.000013733E1,-6.693572998E-1
6.012969971E0,1.128128052E0,-9.983367920E0,-6.717529297E-1
6.018035889E0,1.123336792E0,-9.954635620E0,-7.076721191E-1
6.023071289E0,1.118545532E0,-9.976196289E0,-6.980895996E-1
6.028137207E0,1.132919312E0,-9.978576660E0,-6.789398193E-1
6.033172608E0,1.130523682E0,-9.961822510E0,-6.621856689E-1
6.038238526E0,1.108978271E0,-9.971405029E0,-6.909179688E-1
6.043304444E0,1.130523682E0,-9.990554810E0,-6.430206299E-1
6.048339844E0,1.132919312E0,-9.973800659E0,-7.052764893E-1
6.053405762E0,1.159255981E0,-9.949859619E0,-6.837310791E-1
6.058441163E0,1.140090942E0,-9.933090210E0,-7.100677490E-1
6.063476563E0,1.118545532E0,-9.935485840E0,-7.172546387E-1
6.068542481E0,1.113769531E0,-9.942672729E0,-6.909179688E-1
6.073608399E0,1.128128052E0,-9.901962280E0,-7.028808594E-1
6.078643799E0,1.130523682E0,-9.930694580E0,-7.028808594E-1
6.083709717E0,1.137710571E0,-9.921127319E0,-6.765441895E-1
6.088775635E0,1.128128052E0,-9.928298950E0,-6.861267090E-1
6.093841553E0,1.116149902E0,-9.957031250E0,-6.885223389E-1
6.098876954E0,1.137710571E0,-9.947463989E0,-7.340087891E-1
6.103912354E0,1.149673462E0,-9.969009399E0,-7.004852295E-1
6.108978272E0,1.156860352E0,-9.966613770E0,-6.573944092E-1
6.114044190E0,1.173614502E0,-9.971405029E0,-6.621856689E-1
6.119079590E0,1.187988281E0,-1.000013733E1,-7.052764893E-1
6.124114991E0,1.159255981E0,-9.966613770E0,-6.573944092E-1
6.129180909E0,1.149673462E0,-9.964218140E0,-6.693572998E-1
6.134246827E0,1.166427612E0,-9.966613770E0,-6.597900391E-1
6.139282227E0,1.142486572E0,-9.973800659E0,-6.885223389E-1
6.144348145E0,1.137710571E0,-9.961822510E0,-6.669616699E-1
6.149414063E0,1.132919312E0,-9.952239990E0,-6.669616699E-1
6.154449463E0,1.128128052E0,-9.966613770E0,-6.597900391E-1
6.159515381E0,1.123336792E0,-9.966613770E0,-6.478118896E-1
6.164550782E0,1.125732422E0,-9.978576660E0,-6.382446289E-1
6.169616700E0,1.108978271E0,-9.971405029E0,-6.621856689E-1
6.174652100E0,1.132919312E0,-9.973800659E0,-6.645812988E-1
6.179718018E0,1.113769531E0,-9.957031250E0,-6.741485596E-1
6.184783936E0,1.118545532E0,-9.985763550E0,-6.813354492E-1
6.189849854E0,1.152069092E0,-9.985763550E0,-6.837310791E-1
6.194885254E0,1.140090942E0,-9.966613770E0,-7.052764893E-1
6.199951172E0,1.120941162E0,-9.969009399E0,-6.885223389E-1
6.204986573E0,1.104187012E0,-9.978576660E0,-7.172546387E-1
6.210052491E0,1.101791382E0,-9.957031250E0,-7.076721191E-1
6.215087891E0,1.087432861E0,-9.947463989E0,-6.980895996E-1
6.220123291E0,1.135314941E0,-9.940277100E0,-7.459716797E-1
6.225189209E0,1.142486572E0,-9.930694580E0,-7.076721191E-1
6.230224610E0,1.123336792E0,-9.928298950E0,-7.172546387E-1
6.235290528E0,1.142486572E0,-9.942672729E0,-7.388000488E-1
6.240356446E0,1.161651611E0,-9.988159180E0,-7.220306396E-1
6.245391846E0,1.171218872E0,-9.961822510E0,-7.388000488E-1
6.250457764E0,1.192764282E0,-9.949859619E0,-7.172546387E-1
6.255523682E0,1.240661621E0,-9.971405029E0,-7.052764893E-1
6.260559082E0,1.223892212E0,-9.937881470E0,-6.956939697E-1
6.265625000E0,1.235870361E0,-9.921127319E0,-7.196350098E-1
6.270732712E0,1.269378662E0,-9.947463989E0,-7.316131592E-1
6.275768113E0,1.264602661E0,-9.940277100E0,-7.507629395E-1
6.280834031E0,1.238265991E0,-9.904357910E0,-7.100677490E-1
6.285869431E0,1.243041992E0,-9.925903320E0,-7.364044189E-1
6.290935349E0,1.235870361E0,-9.923522949E0,-7.172546387E-1
6.295970750E0,1.233474731E0,-9.894790649E0,-7.340087891E-1
6.301036667E0,1.190383911E0,-9.889999390E0,-6.956939697E-1
6.306072068E0,1.192764282E0,-9.916336060E0,-7.220306396E-1
6.311137986E0,1.219100952E0,-9.923522949E0,-7.603454590E-1
6.316203904E0,1.197555542E0,-9.918731689E0,-7.196350098E-1
6.321239304E0,1.152069092E0,-9.937881470E0,-7.028808594E-1
6.326305222E0,1.190383911E0,-9.952239990E0,-6.597900391E-1
6.331371140E0,1.159255981E0,-9.942672729E0,-6.980895996E-1
6.336406541E0,1.125732422E0,-9.947463989E0,-6.909179688E-1
6.341441941E0,1.120941162E0,-9.935485840E0,-6.645812988E-1
6.346507859E0,1.118545532E0,-9.930694580E0,-6.478118896E-1
6.351573777E0,1.099395752E0,-9.937881470E0,-6.621856689E-1
6.356609177E0,1.080245972E0,-9.988159180E0,-6.573944092E-1
6.361675095E0,1.056304932E0,-9.973800659E0,-6.813354492E-1
6.366710496E0,1.037155151E0,-9.976196289E0,-6.861267090E-1
6.371776414E0,1.037155151E0,-9.952239990E0,-7.028808594E-1
6.376842332E0,1.010818481E0,-9.928298950E0,-7.172546387E-1
6.381877732E0,9.820861816E-1,-9.942672729E0,-7.555541992E-1
6.386943650E0,9.892578125E-1,-9.957031250E0,-7.747039795E-1
6.391979050E0,9.796905518E-1,-9.909149170E0,-7.555541992E-1
6.397044968E0,9.509582520E-1,-9.911544800E0,-7.651367188E-1
6.402080369E0,9.605255127E-1,-9.921127319E0,-7.555541992E-1
6.407146287E0,9.772949219E-1,-9.899581909E0,-7.866821289E-1
6.412212205E0,9.988403320E-1,-9.947463989E0,-7.818908691E-1
6.417247605E0,1.020385742E0,-9.983367920E0,-7.531585693E-1
6.422313523E0,1.017990112E0,-1.000491333E1,-7.723083496E-1
6.427348923E0,1.020385742E0,-1.000970459E1,-7.555541992E-1
6.432414841E0,1.032363892E0,-1.002168274E1,-7.220306396E-1
6.437450242E0,1.032363892E0,-1.000730896E1,-7.459716797E-1
6.442516160E0,1.022781372E0,-1.002407837E1,-6.909179688E-1
6.447582078E0,1.037155151E0,-1.002885437E1,-7.028808594E-1
6.452647996E0,1.017990112E0,-1.002407837E1,-7.004852295E-1
6.457683396E0,9.868621826E-1,-9.997741699E0,-7.148590088E-1
6.462718796E0,9.796905518E-1,-9.983367920E0,-6.861267090E-1
6.467784714E0,1.006027222E0,-9.990554810E0,-6.573944092E-1
6.472850632E0,9.916534424E-1,-9.988159180E0,-6.334533691E-1
6.477886033E0,9.796905518E-1,-9.978576660E0,-6.549987793E-1
6.482921433E0,9.988403320E-1,-9.971405029E0,-5.999298096E-1
6.487987351E0,9.892578125E-1,-9.992950439E0,-5.711975098E-1
6.493053269E0,9.748992920E-1,-9.940277100E0,-5.975341797E-1
6.498088669E0,9.844818115E-1,-9.925903320E0,-6.358489990E-1
6.503124070E0,9.916534424E-1,-9.918731689E0,-6.095123291E-1
6.508189988E0,9.844818115E-1,-9.925903320E0,-6.406402588E-1
6.513255906E0,9.772949219E-1,-9.921127319E0,-6.573944092E-1
6.518321824E0,9.748992920E-1,-9.937881470E0,-6.741485596E-1
6.523357224E0,9.820861816E-1,-9.940277100E0,-7.435760498E-1
6.528423142E0,9.748992920E-1,-9.937881470E0,-7.459716797E-1
6.533458542E0,9.701080322E-1,-9.959426880E0,-7.603454590E-1
6.538524460E0,9.940490723E-1,-9.945068359E0,-7.411956787E-1
6.543559861E0,1.006027222E0,-9.925903320E0,-7.770996094E-1
6.548625779E0,1.015594482E0,-9.949859619E0,-7.459716797E-1
6.553691697E0,1.046722412E0,-9.949859619E0,-7.914733887E-1
6.558727097E0,1.061096191E0,-9.916336060E0,-7.938690186E-1
6.563793015E0,1.085037231E0,-9.957031250E0,-8.082275391E-1
6.568858933E0,1.123336792E0,-9.918731689E0,-7.842864990E-1
6.573894333E0,1.152069092E0,-9.913940430E0,-7.890777588E-1
6.578929734E0,1.166427612E0,-9.964218140E0,-7.914733887E-1
6.583995652E0,1.178405762E0,-9.952239990E0,-7.388000488E-1
6.589061570E0,1.207138062E0,-9.973800659E0,-7.579498291E-1
6.594127488E0,1.216705322E0,-9.990554810E0,-7.483673096E-1
6.599162888E0,1.257415771E0,-9.983367920E0,-7.483673096E-1
6.604198289E0,1.278961182E0,-1.000013733E1,-7.364044189E-1
6.609264207E0,1.283752441E0,-9.971405029E0,-7.148590088E-1
6.614330125E0,1.264602661E0,-9.980972290E0,-7.052764893E-1
6.619365525E0,1.278961182E0,-9.985763550E0,-6.813354492E-1
6.624400925E0,1.252624512E0,-1.000970459E1,-7.124633789E-1
6.629466843E0,1.247833252E0,-1.001210022E1,-7.292175293E-1
6.634532761E0,1.216705322E0,-1.000970459E1,-7.196350098E-1
6.639568162E0,1.190383911E0,-1.000730896E1,-7.196350098E-1
6.644634080E0,1.164047241E0,-9.990554810E0,-7.148590088E-1
6.649699998E0,1.147277832E0,-9.988159180E0,-7.507629395E-1
6.654735398E0,1.130523682E0,-9.995346069E0,-7.411956787E-1
6.659801316E0,1.118545532E0,-9.959426880E0,-7.675323486E-1
6.664867234E0,1.070663452E0,-9.971405029E0,-7.818908691E-1
6.669902634E0,1.039535522E0,-9.961822510E0,-8.058319092E-1
6.674968552E0,1.044326782E0,-9.923522949E0,-8.154144287E-1
6.680003953E0,1.022781372E0,-9.885208130E0,-8.513183594E-1
6.685069871E0,1.049118042E0,-9.885208130E0,-8.417510986E-1
6.690135789E0,1.027572632E0,-9.870849609E0,-8.656921387E-1
6.695171189E0,1.063476562E0,-9.854080200E0,-8.609008789E-1
6.700206589E0,1.099395752E0,-9.861267090E0,-8.800506592E-1
6.705272507E0,1.137710571E0,-9.904357910E0,-8.752593994E-1
6.710307908E0,1.185592651E0,-9.899581909E0,-8.896331787E-1
6.715373826E0,1.223892212E0,-9.911544800E0,-8.537139893E-1
6.720409226E0,1.247833252E0,-9.937881470E0,-8.297729492E-1
6.725475144E0,1.290939331E0,-9.923522949E0,-8.417510986E-1
6.730541062E0,1.298110962E0,-9.971405029E0,-8.249816895E-1
6.735576462E0,1.305297852E0,-9.983367920E0,-7.507629395E-1
6.740642380E0,1.314880371E0,-9.966613770E0,-7.244262695E-1
6.745677781E0,1.319656372E0,-9.985763550E0,-7.507629395E-1
6.750743699E0,1.317276001E0,-9.952239990E0,-7.699127197E-1
6.755779099E0,1.300506592E0,-9.964218140E0,-7.675323486E-1
6.760845017E0,1.257415771E0,-9.961822510E0,-7.770996094E-1
6.765910935E0,1.228683472E0,-9.959426880E0,-7.364044189E-1
6.770946335E0,1.209533691E0,-9.937881470E0,-7.483673096E-1
6.776012253E0,1.180801392E0,-9.916336060E0,-8.130187988E-1
6.781078171E0,1.154464722E0,-9.916336060E0,-8.010406494E-1
6.786113572E0,1.144882202E0,-9.913940430E0,-8.058319092E-1
6.791179490E0,1.142486572E0,-9.940277100E0,-8.321685791E-1
6.796214890E0,1.123336792E0,-9.949859619E0,-8.178100586E-1
6.801280808E0,1.120941162E0,-9.906753540E0,-8.585052490E-1
6.806346726E0,1.142486572E0,-9.928298950E0,-8.944244385E-1
6.811412644E0,1.135314941E0,-9.959426880E0,-8.872375488E-1
6.816448044E0,1.154464722E0,-9.952239990E0,-8.944244385E-1
6.821483445E0,1.154464722E0,-9.976196289E0,-9.279327393E-1
6.826549363E0,1.154464722E0,-9.942672729E0,-9.351196289E-1
6.831615281E0,1.147277832E0,-9.916336060E0,-9.207611084E-1
6.836650681E0,1.142486572E0,-9.949859619E0,-9.255371094E-1
6.841686082E0,1.135314941E0,-9.935485840E0,-9.375152588E-1
6.846752000E0,1.132919312E0,-9.897186279E0,-9.327239990E-1
6.851817917E0,1.118545532E0,-9.925903320E0,-9.494781494E-1
6.856853318E0,1.147277832E0,-9.925903320E0,-9.159698486E-1
6.861888718E0,1.104187012E0,-9.918731689E0,-9.375152588E-1
6.866954636E0,1.116149902E0,-9.899581909E0,-9.111785889E-1
6.872020554E0,1.142486572E0,-9.925903320E0,-8.704833984E-1
6.877055955E0,1.137710571E0,-9.947463989E0,-8.728637695E-1
6.882121873E0,1.149673462E0,-9.964218140E0,-8.872375488E-1
6.887157273E0,1.149673462E0,-9.992950439E0,-8.704833984E-1
6.892223191E0,1.180801392E0,-1.000013733E1,-8.441467285E-1
6.897289109E0,1.219100952E0,-1.000970459E1,-8.585052490E-1
6.902355027E0,1.214324951E0,-1.000970459E1,-8.680877686E-1
6.907390427E0,1.259811401E0,-1.005519104E1,-8.369598389E-1
6.912456345E0,1.290939331E0,-1.007675171E1,-8.154144287E-1
6.917491746E0,1.341217041E0,-1.005519104E1,-8.609008789E-1
6.922527146E0,1.403457642E0,-1.005758667E1,-8.321685791E-1
6.927593064E0,1.425003052E0,-1.002647400E1,-8.800506592E-1
6.932658982E0,1.458526611E0,-1.001210022E1,-8.968048096E-1
6.937694382E0,1.475280762E0,-9.957031250E0,-9.231414795E-1
6.942760300E0,1.489654541E0,-9.940277100E0,-9.590606689E-1
6.947826218E0,1.492050171E0,-9.923522949E0,-9.734344482E-1
6.952861619E0,1.494445801E0,-9.909149170E0,-9.925842285E-1
6.957897019E0,1.506408691E0,-9.870849609E0,-1.011734009E0
6.962962937E0,1.511199951E0,-9.830139160E0,-9.949798584E-1
6.968028855E0,1.504013062E0,-9.844512939E0,-1.052429199E0
6.973094773E0,1.453735352E0,-9.830139160E0,-1.076370239E0
6.978130173E0,1.425003052E0,-9.801406860E0,-1.083557129E0
6.983165574E0,1.408248901E0,-9.787048340E0,-1.100326538E0
6.988231492E0,1.420227051E0,-9.746353149E0,-1.097930908E0
6.993297410E0,1.441772461E0,-9.782257080E0,-1.085952759E0
6.998332810E0,1.422607422E0,-9.784652710E0,-1.107498169E0
7.003398728E0,1.444168091E0,-9.763107300E0,-1.102706909E0
7.008464646E0,1.468109131E0,-9.765502930E0,-1.102706909E0
7.013500046E0,1.492050171E0,-9.753524780E0,-1.030883789E0
7.018535447E0,1.480072021E0,-9.772674561E0,-9.686431885E-1
7.023601365E0,1.460922241E0,-9.743957520E0,-9.087829590E-1
7.028667283E0,1.446548462E0,-9.748733521E0,-8.585052490E-1
7.033702683E0,1.408248901E0,-9.782257080E0,-8.776550293E-1
7.038738083E0,1.348388672E0,-9.767898560E0,-8.585052490E-1
7.043804001E0,1.312484741E0,-9.777465820E0,-8.585052490E-1
7.048869919E0,1.233474731E0,-9.813385010E0,-8.561096191E-1
7.053935837E0,1.180801392E0,-9.870849609E0,-8.752593994E-1
7.058971238E0,1.113769531E0,-9.964218140E0,-9.447021484E-1
7.064037156E0,1.073059082E0,-1.000491333E1,-9.734344482E-1
7.069103074E0,1.037155151E0,-1.007675171E1,-9.734344482E-1
7.074138474E0,1.025177002E0,-1.008392334E1,-9.710388184E-1
7.079173875E0,9.725036621E-1,-1.008152771E1,-9.399108887E-1
7.084239792E0,9.413757324E-1,-1.004083252E1,-8.848419189E-1
7.089305710E0,9.270172119E-1,-1.002168274E1,-8.537139893E-1
7.094341111E0,9.102478027E-1,-9.992950439E0,-7.651367188E-1
7.099407029E0,8.934936523E-1,-9.947463989E0,-7.148590088E-1
7.104442429E0,8.815307617E-1,-9.923522949E0,-7.459716797E-1
7.109508347E0,8.647613525E-1,-9.873245239E0,-7.172546387E-1
7.114543748E0,8.575897217E-1,-9.777465820E0,-6.956939697E-1
7.119609666E0,8.480072021E-1,-9.751129150E0,-6.717529297E-1
7.124645066E0,8.456115723E-1,-9.753524780E0,-6.621856689E-1
7.129710984E0,8.049163818E-1,-9.731979370E0,-6.406402588E-1
7.134746384E0,7.785797119E-1,-9.755920410E0,-6.549987793E-1
7.139812302E0,7.953338623E-1,-9.751129150E0,-6.717529297E-1
7.144878220E0,7.618103027E-1,-9.813385010E0,-7.364044189E-1
7.149913621E0,7.402648926E-1,-9.882812500E0,-9.231414795E-1
7.154979539E0,6.875915527E-1,-9.942672729E0,-1.105102539E0
7.160045457E0,6.564636230E-1,-1.001689148E1,-1.275100708E0
7.165080857E0,6.468963623E-1,-1.008392334E1,-1.445083618E0
7.170116257E0,6.014099121E-1,-1.011026001E1,-1.586349487E0
7.175182175E0,5.247955322E-1,-1.010546875E1,-1.639007568E0
7.180248093E0,5.319671631E-1,-1.014857483E1,-1.713241577E0
7.185314011E0,4.409942627E-1,-1.012942505E1,-1.729995728E0
7.190379929E0,3.907165527E-1,-1.008871460E1,-1.741958618E0
7.195415330E0,3.715667725E-1,-1.005998230E1,-1.765914917E0
7.200450730E0,3.141021729E-1,-9.995346069E0,-1.703659058E0
7.205516648E0,2.590332031E-1,-9.992950439E0,-1.670135498E0
7.210582566E0,2.231140137E-1,-9.985763550E0,-1.650985718E0
7.215617966E0,1.608734131E-1,-9.949859619E0,-1.653381348E0
7.220653367E0,1.249542236E-1,-9.937881470E0,-1.634231567E0
7.225719285E0,1.345367432E-1,-9.933090210E0,-1.617462158E0
7.230785203E0,1.034088135E-1,-9.925903320E0,-1.612686157E0
7.235851121E0,5.073547363E-2,-9.966613770E0,-1.605499268E0
7.240886521E0,-9.124755859E-3,-1.002647400E1,-1.595916748E0
7.245921921E0,-4.742431641E-2,-1.009350586E1,-1.631835938E0
7.250987839E0,-1.869201660E-2,-1.014138794E1,-1.631835938E0
7.256023240E0,-9.124755859E-3,-1.017251587E1,-1.598312378E0
7.261089158E0,-9.124755859E-3,-1.018447876E1,-1.615066528E0
7.266155076E0,5.313110352E-2,-1.017970276E1,-1.648590088E0
7.271190476E0,1.656646729E-1,-1.018208313E1,-1.619857788E0
7.276256394E0,2.231140137E-1,-1.018208313E1,-1.605499268E0
7.281322312E0,2.494506836E-1,-1.012463379E1,-1.540847778E0
7.286357712E0,3.164978027E-1,-1.003125000E1,-1.502548218E0
7.291423630E0,4.002838135E-1,-9.928298950E0,-1.483398438E0
7.296459031E0,4.673309326E-1,-9.882812500E0,-1.375656128E0
7.301524949E0,5.128173828E-1,-9.830139160E0,-1.227218628E0
7.306560349E0,5.583038330E-1,-9.758316040E0,-1.100326538E0
7.311626267E0,5.942230225E-1,-9.775070190E0,-1.018920898E0
7.316661667E0,6.253509521E-1,-9.779861450E0,-9.734344482E-1
7.321727585E0,6.732330322E-1,-9.765502930E0,-8.728637695E-1
7.326793503E0,6.564636230E-1,-9.777465820E0,-8.034362793E-1
7.331859421E0,6.181640625E-1,-9.775070190E0,-7.316131592E-1
7.336894822E0,5.391540527E-1,-9.767898560E0,-7.292175293E-1
7.341930222E0,4.697265625E-1,-9.734375000E0,-7.100677490E-1
7.346996140E0,3.835296631E-1,-9.720016479E0,-7.316131592E-1
7.352062058E0,3.045196533E-1,-9.717620850E0,-7.603454590E-1
7.357097458E0,1.776275635E-1,-9.753524780E0,-8.106231689E-1
7.362132859E0,1.004028320E-2,-9.763107300E0,-9.207611084E-1
7.367198777E0,-1.216430664E-1,-9.810989380E0,-9.614562988E-1
7.372264695E0,-2.844543457E-1,-9.885208130E0,-1.045257568E0
7.377330613E0,-4.472503662E-1,-9.964218140E0,-1.155380249E0
7.382366013E0,-5.693664551E-1,-9.985763550E0,-1.160171509E0
7.387431931E0,-6.555480957E-1,-1.000970459E1,-1.155380249E0
7.392467332E0,-7.058258057E-1,-1.000970459E1,-1.152984619E0
7.397533250E0,-7.082214355E-1,-1.000970459E1,-1.174545288E0
7.402568650E0,-7.010498047E-1,-1.003364563E1,-1.119476318E0
7.407634568E0,-6.651306152E-1,-9.992950439E0,-1.078765869E0
7.412700486E0,-6.244354248E-1,-9.988159180E0,-1.107498169E0
7.417735886E0,-5.621795654E-1,-9.969009399E0,-1.112289429E0
7.422771287E0,-4.903564453E-1,-9.925903320E0,-1.078765869E0
7.427837205E0,-4.400787354E-1,-9.894790649E0,-1.112289429E0
7.432903123E0,-3.969726562E-1,-9.878021240E0,-1.117080688E0
7.437938523E0,-3.419189453E-1,-9.873245239E0,-1.169754028E0
7.443004441E0,-2.485351562E-1,-9.861267090E0,-1.155380249E0
7.448039841E0,-1.599578857E-1,-9.892395020E0,-9.901885986E-1
7.453105759E0,-6.896972656E-2,-9.976196289E0,-8.345642090E-1
7.458141160E0,7.228088379E-2,-1.000491333E1,-7.483673096E-1
7.463207078E0,1.608734131E-1,-1.003364563E1,-6.526031494E-1
7.468272996E0,2.733917236E-1,-1.013659668E1,-5.496520996E-1
7.473308396E0,3.715667725E-1,-1.016293335E1,-5.257110596E-1
7.478343796E0,4.314117432E-1,-1.019645691E1,-4.945831299E-1
7.483409714E0,4.936676025E-1,-1.024433899E1,-4.227600098E-1
7.488475632E0,5.295715332E-1,-1.026828003E1,-3.341674805E-1
7.493541550E0,4.960632324E-1,-1.022518921E1,-3.461456299E-1
7.498576951E0,5.487365723E-1,-1.022279358E1,-3.533325195E-1
7.503612351E0,5.606994629E-1,-1.016053772E1,-4.155731201E-1
7.508678269E0,5.295715332E-1,-1.006237793E1,-5.017700195E-1
7.513744187E0,5.176086426E-1,-1.001449585E1,-6.143035889E-1
7.518779587E0,4.936676025E-1,-9.906753540E0,-7.220306396E-1
7.523845505E0,4.768981934E-1,-9.782257080E0,-8.704833984E-1
7.528911423E0,4.218444824E-1,-9.703247070E0,-1.050048828E0
7.533946824E0,3.141021729E-1,-9.583541870E0,-1.208053589E0
7.539012742E0,2.805786133E-1,-9.528472900E0,-1.382827759E0
7.544048142E0,2.997283936E-1,-9.554809570E0,-1.562393188E0
7.549114060E0,2.638244629E-1,-9.569168091E0,-1.612686157E0
7.554149460E0,1.991729736E-1,-9.550018311E0,-1.646194458E0
7.559215378E0,1.776275635E-1,-9.602691650E0,-1.686904907E0
7.564250779E0,1.776275635E-1,-9.612274170E0,-1.744354248E0
7.569316697E0,1.848144531E-1,-9.650573730E0,-1.746749878E0
7.574382615E0,1.872100830E-1,-9.679306030E0,-1.667739868E0
7.579418015E0,1.943817139E-1,-9.705642700E0,-1.600708008E0
7.584483933E0,2.446594238E-1,-9.720016479E0,-1.555221558E0
7.589549851E0,2.877655029E-1,-9.739166260E0,-1.521697998E0
7.594585251E0,3.284606934E-1,-9.748733521E0,-1.476211548E0
7.599620652E0,3.260650635E-1,-9.775070190E0,-1.390014648E0
7.604686570E0,3.236694336E-1,-9.782257080E0,-1.306213379E0
7.609752488E0,3.571929932E-1,-9.810989380E0,-1.191299438E0
7.614787888E0,3.667755127E-1,-9.844512939E0,-1.095535278E0
7.619853806E0,3.883209229E-1,-9.834930420E0,-9.590606689E-1
7.624889207E0,3.476104736E-1,-9.856475830E0,-8.632965088E-1
7.629955125E0,3.500061035E-1,-9.868453979E0,-7.603454590E-1
7.635021042E0,3.859252930E-1,-9.837326050E0,-6.813354492E-1
7.640056443E0,4.026794434E-1,-9.770294189E0,-6.909179688E-1
7.645122361E0,4.529571533E-1,-9.736770630E0,-7.388000488E-1
7.650188279E0,4.457855225E-1,-9.696060181E0,-7.770996094E-1
7.655223679E0,3.931121826E-1,-9.660156250E0,-8.513183594E-1
7.660259080E0,3.835296631E-1,-9.655364990E0,-9.111785889E-1
7.665324998E0,3.380432129E-1,-9.633819580E0,-9.925842285E-1
7.670390916E0,2.781829834E-1,-9.652969360E0,-1.095535278E0
7.675426316E0,2.183380127E-1,-9.672119141E0,-1.148208618E0
7.680492234E0,1.058044434E-1,-9.736770630E0,-1.224822998E0
7.685527634E0,1.721191406E-2,-9.751129150E0,-1.315795898E0
7.690593552E0,-7.855224609E-2,-9.832534790E0,-1.390014648E0
7.695628953E0,-1.910705566E-1,-9.904357910E0,-1.437896729E0
7.700694871E0,-3.514862061E-1,-9.969009399E0,-1.418746948E0
7.705760789E0,-4.927520752E-1,-1.001449585E1,-1.401992798E0
7.710826707E0,-5.262603760E-1,-1.002168274E1,-1.239181519E0
7.715862107E0,-4.855651855E-1,-1.003604126E1,-1.045257568E0
7.720928025E0,-4.257049561E-1,-1.000013733E1,-8.824462891E-1
7.725963425E0,-3.179779053E-1,-9.937881470E0,-8.225860596E-1
7.731029343E0,-2.054443359E-1,-9.885208130E0,-8.465270996E-1
7.736064744E0,-1.240386963E-1,-9.827743530E0,-8.178100586E-1
7.741130662E0,-7.615661621E-2,-9.839721680E0,-8.656921387E-1
7.746166062E0,-4.981994629E-2,-9.863662720E0,-8.824462891E-1
7.751231980E0,-4.333496094E-3,-9.901962280E0,-8.872375488E-1
7.756297898E0,-2.348327637E-2,-9.897186279E0,-1.004547119E0
7.761333298E0,-4.742431641E-2,-9.880416870E0,-1.143417358E0
7.766399216E0,-4.023742676E-2,-9.906753540E0,-1.368469238E0
7.771434617E0,-2.827453613E-2,-9.949859619E0,-1.401992798E0
7.776470017E0,-7.376098633E-2,-9.942672729E0,-1.492965698E0
7.781535935E0,-1.886901855E-1,-9.925903320E0,-1.658172607E0
7.786601853E0,-3.179779053E-1,-9.904357910E0,-1.818572998E0
7.791667771E0,-4.089508057E-1,-9.889999390E0,-1.904769897E0
7.796703171E0,-5.119018555E-1,-9.834930420E0,-1.976593018E0
7.801769089E0,-5.980987549E-1,-9.849288940E0,-2.007720947E0
7.806835007E0,-5.789337158E-1,-9.897186279E0,-1.935897827E0
7.811870408E0,-5.478210449E-1,-9.949859619E0,-1.775482178E0
7.816936326E0,-4.831695557E-1,-1.004083252E1,-1.576766968E0
7.821971726E0,-3.658599854E-1,-1.022758484E1,-1.258331299E0
7.827007126E0,-2.940216064E-1,-1.040475464E1,-8.609008789E-1
7.832073044E0,-1.815032959E-1,-1.067529297E1,-5.568389893E-1
7.837108445E0,-6.417846680E-2,-1.111582947E1,-2.455902100E-1
7.842174363E0,-4.263305664E-2,-1.164015198E1,1.039581299E-1
7.847240281E0,-1.815032959E-1,-1.229617310E1,4.152069092E-1
7.852275681E0,-3.586730957E-1,-1.291865540E1,7.384338379E-1
7.857341599E0,-3.562774658E-1,-1.348847961E1,9.946136475E-1
7.862377000E0,-2.485351562E-1,-1.391703796E1,1.169387817E0
7.867442917E0,1.560821533E-1,-1.416604614E1,1.346557617E0
7.872508835E0,6.660461426E-1,-1.423786926E1,1.514144897E0
7.877544236E0,1.029968262E0,-1.412773132E1,1.638641357E0
7.882610154E0,1.152069092E0,-1.392422485E1,1.751174927E0
7.887676072E0,1.070663452E0,-1.363453674E1,1.894821167E0
7.892711472E0,9.557495117E-1,-1.336877441E1,1.916381836E0
7.897777390E0,7.115325928E-1,-1.295697021E1,1.787094116E0
7.902812791E0,4.002838135E-1,-1.247094727E1,1.562026978E0
7.907878708E0,9.861755371E-2,-1.198731995E1,1.265151978E0
7.912914109E0,-8.573913574E-2,-1.154199219E1,1.104736328E0
7.917949509E0,-1.407928467E-1,-1.115412903E1,1.234024048E0
7.923015427E0,-1.503753662E-1,-1.078782654E1,1.456680298E0
7.928081345E0,-6.179809570E-2,-1.044305420E1,1.621887207E0
7.933147263E0,9.861755371E-2,-1.016293335E1,1.693710327E0
7.938182664E0,2.398834229E-1,-9.959426880E0,1.708084106E0
7.943248582E0,4.218444824E-1,-9.822967529E0,1.700897217E0
7.948314500E0,5.942230225E-1,-9.700851440E0,1.669769287E0
7.953349900E0,7.354736328E-1,-9.581146240E0,1.538085938E0
7.958415818E0,9.413757324E-1,-9.504531860E0,1.341766357E0
7.963451218E0,1.197555542E0,-9.499740601E0,1.224456787E0
7.968517136E0,1.604568481E0,-9.578750610E0,1.028121948E0
7.973552537E0,2.028350830E0,-9.619445801E0,8.030700684E-1
7.978587937E0,2.353958130E0,-9.741561890E0,4.822540283E-1
7.983653855E0,2.693939209E0,-9.952239990E0,1.111450195E-1
7.988719773E0,3.057861328E0,-1.027067566E1,-2.455902100E-1
7.993785691E0,3.340362549E0,-1.078303528E1,-6.166839600E-1
7.998821091E0,3.539093018E0,-1.137919617E1,-9.518737793E-1
8.003887009E0,3.661193848E0,-1.202323914E1,-1.346923828E0
8.008952927E0,3.735412598E0,-1.252841187E1,-1.662963867E0
8.013988328E0,3.677947998E0,-1.294738770E1,-1.876037598E0
8.019023728E0,3.409805298E0,-1.313414001E1,-1.878433228E0
8.024089646E0,2.717880249E0,-1.301443481E1,-1.787460327E0
8.029155564E0,1.743438721E0,-1.270797729E1,-1.974197388E0
8.034221482E0,8.863067627E-1,-1.241827393E1,-2.551208496E0
8.039256882E0,3.811340332E-1,-1.231292725E1,-2.864852905E0
8.044322800E0,-1.910705566E-1,-1.206872559E1,-3.094696045E0
8.049358201E0,-7.513275146E-1,-1.150848389E1,-2.577545166E0
8.054393601E0,-9.261016846E-1,-1.085964966E1,-1.586349487E0
8.059459519E0,-6.124572754E-1,-1.030419922E1,-7.411956787E-1
8.064525437E0,-1.336212158E-1,-9.887603760E0,-9.715270996E-2
8.069591355E0,2.662200928E-1,-9.655364990E0,3.649291992E-1
8.074626755E0,6.612548828E-1,-9.454254150E0,6.570281982E-1
8.079662156E0,9.964447021E-1,-9.236373901E0,7.432098389E-1
8.084728074E0,1.322052002E0,-9.135818481E0,6.618194580E-1
8.089793992E0,1.559082031E0,-9.080764771E0,4.894256592E-1
8.094829392E0,1.736251831E0,-9.032867432E0,3.864746094E-1
8.099895310E0,1.923004150E0,-8.992172241E0,2.188873291E-1
8.104930710E0,2.100173950E0,-9.090332031E0,-4.447937012E-2
8.109996628E0,2.207916260E0,-9.210037231E0,-1.737670898E-1
8.115032029E0,2.097778320E0,-9.324966431E0,-2.862854004E-1
8.120097947E0,2.011581421E0,-9.459045410E0,-4.084014893E-1
8.125133347E0,1.836807251E0,-9.576354980E0,-5.328979492E-1
8.130199265E0,1.681182861E0,-9.657760620E0,-6.717529297E-1
8.135234666E0,1.441772461E0,-9.746353149E0,-8.249816895E-1
8.140300583E0,1.173614502E0,-9.825347900E0,-9.111785889E-1
8.145366501E0,8.144836426E-1,-9.925903320E0,-9.303283691E-1
8.150432419E0,3.093109131E-1,-9.945068359E0,-7.770996094E-1
8.155467820E0,-4.981994629E-2,-9.928298950E0,-6.214752197E-1
8.160533738E0,-2.174072266E-1,-9.933090210E0,-4.706420898E-1
8.165569138E0,-1.886901855E-1,-9.899581909E0,-1.689758301E-1
8.170635056E0,-5.669708252E-1,-9.739166260E0,1.422729492E-1
8.175670457E0,-6.842803955E-1,-9.631423950E0,3.050842285E-1
8.180736375E0,-7.465362549E-1,-9.506927490E0,4.750671387E-1
8.185802292E0,-9.404602051E-1,-9.293838501E0,4.846343994E-1
8.190837693E0,-8.303222656E-1,-9.159759521E0,9.108123779E-1
8.195873093E0,-7.561035156E-1,-9.071182251E0,1.418380737E0
8.200939011E0,-6.723175049E-1,-8.987380981E0,1.858917236E0
8.206004929E0,-7.178039551E-1,-8.786270142E0,2.107910156E0
8.211040330E0,-8.016052246E-1,-8.776687622E0,2.230010986E0
8.216075730E0,-5.885162354E-1,-8.872467041E0,2.282684326E0
8.221141648E0,-2.940216064E-1,-8.937103271E0,2.373672485E0
8.226207566E0,-3.227539062E-1,-9.032867432E0,2.392822266E0
8.231273484E0,-4.568328857E-1,-9.143005371E0,2.311416626E0
8.236308884E0,-4.664154053E-1,-9.257934570E0,2.172561646E0
8.241344285E0,-3.275451660E-1,-9.353698730E0,1.957077026E0
8.246410203E0,-3.131866455E-1,-9.380035400E0,1.777511597E0
8.251476121E0,-2.174072266E-1,-9.427917480E0,1.490203857E0
8.256542039E0,-1.719207764E-1,-9.449462891E0,1.404022217E0
8.261577439E0,-1.455841064E-1,-9.435104370E0,1.547668457E0
8.266643357E0,-8.573913574E-2,-9.451858521E0,1.588363647E0
8.271678757E0,-8.813476562E-2,-9.430313110E0,1.619491577E0
8.276714158E0,3.877258301E-2,-9.346511841E0,1.566818237E0
8.281780076E0,1.249542236E-1,-9.269897461E0,1.382461548E0
8.286845994E0,1.082000732E-1,-9.097518921E0,1.162200928E0
8.291881394E0,1.991729736E-1,-8.939498901E0,9.754486084E-1
8.296947312E0,2.566375732E-1,-8.724014282E0,7.671508789E-1
8.301982712E0,2.853698730E-1,-8.539672852E0,6.330871582E-1
8.307048630E0,2.303009033E-1,-8.381652832E0,5.540771484E-1
8.312114548E0,2.087554932E-1,-8.170959473E0,4.319763184E-1
8.317149949E0,2.303009033E-1,-7.998580933E0,4.176025391E-1
8.322185349E0,1.034088135E-1,-7.790283203E0,4.511260986E-1
8.327251267E0,6.271362305E-2,-7.586776733E0,5.397033691E-1
8.332317185E0,1.369323730E-1,-7.402420044E0,4.918212891E-1
8.337383103E0,1.345367432E-1,-7.232437134E0,5.397033691E-1
8.342418503E0,7.228088379E-2,-7.074417114E0,6.354827881E-1
8.347484421E0,7.644653320E-3,-6.961883545E0,7.240600586E-1
8.352550339E0,-8.094787598E-2,-6.813446045E0,7.911071777E-1
8.357585740E0,-4.333496094E-3,-6.686553955E0,9.132080078E-1
8.362621140E0,-9.291076660E-2,-6.569244385E0,1.008972168E0
8.367687058E0,4.833984375E-2,-6.552474976E0,8.461608887E-1
8.372752976E0,1.960754395E-2,-6.487838745E0,9.347534180E-1
8.377788376E0,-5.940246582E-2,-6.425582886E0,1.064041138E0
8.382854294E0,-1.551666260E-1,-6.387283325E0,1.044891357E0
8.387889695E0,-1.048889160E-1,-6.430374146E0,1.054458618E0
8.392955613E0,-7.136535645E-2,-6.427978516E0,1.131072998E0
8.397991013E0,-1.390075684E-2,-6.480651855E0,1.269943237E0
8.403056931E0,-6.657409668E-2,-6.545303345E0,1.389648438E0
8.408122849E0,-1.431884766E-1,-6.655426025E0,1.425567627E0
8.413158250E0,-1.216430664E-1,-6.744018555E0,1.377685547E0
8.418193650E0,-1.886901855E-1,-6.916397095E0,1.358520508E0
8.423259568E0,-1.719207764E-1,-7.107940674E0,1.384857178E0
8.428325486E0,-6.896972656E-2,-7.397628784E0,1.518936157E0
8.433391404E0,-4.502868652E-2,-7.694519043E0,1.672164917E0
8.438426804E0,-5.700683594E-2,-8.072799683E0,1.846939087E0
8.443462205E0,-5.940246582E-2,-8.544448853E0,2.060028076E0
8.448528123E0,-1.192474365E-1,-9.047241211E0,2.378448486E0
8.453594041E0,-1.431884766E-1,-9.633819580E0,2.751953125E0
8.458629441E0,-1.144561768E-1,-1.023237610E1,3.101501465E0
8.463695359E0,-2.964172363E-1,-1.087879944E1,3.388809204E0
8.468761277E0,-5.837249756E-1,-1.154917908E1,3.640197754E0
8.473796677E0,-1.024261475E0,-1.220758057E1,3.740753174E0
8.478862595E0,-1.553375244E0,-1.275346375E1,3.795822144E0
8.483897996E0,-2.297973633E0,-1.318441772E1,3.762298584E0
8.488963914E0,-3.236495972E0,-1.345018005E1,3.623443604E0
8.494029832E0,-3.818298340E0,-1.372071838E1,3.640197754E0
8.499065232E0,-4.266006470E0,-1.389309692E1,3.688079834E0
8.504100632E0,-4.306716919E0,-1.398887634E1,3.676116943E0
8.509166550E0,-4.725692749E0,-1.383085632E1,3.783859253E0
8.514201951E0,-5.053695679E0,-1.363453674E1,3.956237793E0
8.519267869E0,-4.991455078E0,-1.344059753E1,3.989746094E0
8.524333787E0,-4.699356079E0,-1.327301025E1,4.121429443E0
8.529399705E0,-4.605987549E0,-1.301203918E1,4.284240723E0
8.534435105E0,-4.555709839E0,-1.274388123E1,4.310577393E0
8.539470505E0,-4.661056519E0,-1.236560059E1,4.360855103E0
8.544536423E0,-4.512619019E0,-1.197294617E1,4.310577393E0
8.549602341E0,-4.208541870E0,-1.153002930E1,4.169311523E0
8.554637742E0,-3.698577881E0,-1.110624695E1,3.920318604E0
8.559673142E0,-3.109603882E0,-1.078303528E1,3.441482544E0
8.564739060E0,-2.494293213E0,-1.058671570E1,2.854904175E0
8.569804978E0,-1.998703003E0,-1.058671570E1,2.167770386E0
8.574840378E0,-1.495910645E0,-1.085246277E1,1.530914307E0
8.579906296E0,-1.000320435E0,-1.135046387E1,9.898223877E-1
8.584941697E0,-4.161376953E-1,-1.191789246E1,5.109710693E-1
8.590007615E0,1.943817139E-1,-1.239193726E1,1.015625000E-1
8.595073533E0,8.910980225E-1,-1.267684937E1,-3.126220703E-1
8.600108933E0,1.640487671E0,-1.281809998E1,-7.316131592E-1
8.605174851E0,2.258193970E0,-1.283726501E1,-1.062011719E0
8.610240769E0,2.813644409E0,-1.294261169E1,-1.332550049E0
8.615306687E0,3.395431519E0,-1.293542480E1,-1.490570068E0
8.620342087E0,3.819213867E0,-1.287556458E1,-1.579162598E0
8.625408005E0,4.341140747E0,-1.280613708E1,-1.641403198E0
8.630473923E0,4.781677246E0,-1.256431580E1,-1.765914917E0
8.635509324E0,4.906173706E0,-1.217167664E1,-1.876037598E0
8.640544724E0,4.994766235E0,-1.180296326E1,-2.024475098E0
8.645610642E0,5.124053955E0,-1.138876343E1,-1.955047607E0
8.650676560E0,5.181503296E0,-1.099851990E1,-1.682113647E0
8.655711960E0,5.092926025E0,-1.047897339E1,-1.188903809E0
8.660747361E0,5.174331665E0,-9.851684570E0,-4.706420898E-1
8.665813279E0,5.258117676E0,-9.176528931E0,3.194427490E-1
8.670879197E0,5.356292725E0,-8.561218262E0,1.152618408E0
8.675914597E0,5.329956055E0,-8.163772583E0,1.636245728E0
8.680949998E0,4.920547485E0,-7.924362183E0,1.626678467E0
8.686015916E0,4.302841187E0,-7.785491943E0,1.178955078E0
8.691081833E0,3.725830078E0,-7.759155273E0,3.361968994E-1
8.696117234E0,3.237411499E0,-7.821411133E0,-4.562835693E-1
8.701183152E0,2.842376709E0,-7.895629883E0,-1.145812988E0
8.706249070E0,2.504791260E0,-8.065612793E0,-1.801818848E0
8.711284470E0,2.286926270E0,-8.348129272E0,-2.438674927E0
8.716350388E0,1.975677490E0,-8.683319092E0,-3.109054565E0
8.721385789E0,1.585418701E0,-8.946685791E0,-3.623809814E0
8.726451707E0,1.140090942E0,-9.119064331E0,-4.119415283E0
8.731517625E0,6.325225830E-1,-9.152587891E0,-4.413894653E0
8.736553025E0,3.877258301E-2,-9.071182251E0,-4.576705933E0
8.741588425E0,-3.754272461E-1,-9.056808472E0,-4.780212402E0
8.746654343E0,-6.555480957E-1,-9.126251221E0,-4.808944702E0
8.751720261E0,-6.818847656E-1,-9.286651611E0,-4.655715942E0
8.756755662E0,-7.130126953E-1,-9.468612671E0,-4.404312134E0
8.761821580E0,-7.896270752E-1,-9.674514771E0,-4.169692993E0
8.766887498E0,-8.423004150E-1,-9.849288940E0,-3.906326294E0
8.771953416E0,-1.009887695E0,-9.985763550E0,-3.585494995E0
8.776988816E0,-1.184677124E0,-1.009829712E1,-3.214401245E0
8.782024216E0,-1.419296265E0,-1.015814209E1,-2.785842896E0
8.787090134E0,-1.843078613E0,-1.011744690E1,-2.321365356E0
8.792125535E0,-2.199813843E0,-9.940277100E0,-1.993362427E0
8.797191453E0,-2.307556152E0,-9.875625610E0,-1.713241577E0
8.802226853E0,-2.391342163E0,-9.952239990E0,-1.437896729E0
8.807292771E0,-2.444015503E0,-9.973800659E0,-9.590606689E-1
8.812358689E0,-2.448806763E0,-9.961822510E0,-6.047210693E-1
8.817394089E0,-2.455993652E0,-9.949859619E0,-4.203643799E-1
8.822429490E0,-2.501480103E0,-9.985763550E0,-2.910766602E-1
8.827495408E0,-2.479934692E0,-1.001449585E1,-2.192535400E-1
8.832561326E0,-2.530212402E0,-1.005998230E1,-1.139068604E-1
8.837596726E0,-2.530212402E0,-1.007196045E1,-9.715270996E-2
8.842662644E0,-2.570907593E0,-1.011265564E1,3.453063965E-2
8.847728562E0,-2.544570923E0,-1.015097046E1,-4.208374023E-2
8.852794480E0,-2.724136353E0,-1.006237793E1,-6.602478027E-2
8.857829880E0,-2.793579102E0,-9.889999390E0,-4.447937012E-2
8.862895798E0,-3.052154541E0,-9.569168091E0,1.538085938E-2
8.867931199E0,-3.150314331E0,-9.229202271E0,8.959960938E-2
8.872966599E0,-2.989898682E0,-9.018508911E0,1.470642090E-1
8.878032517E0,-2.393737793E0,-8.910766602E0,1.135406494E-1
8.883067917E0,-1.716186523E0,-8.877243042E0,9.678649902E-2
8.888133835E0,-1.146362305E0,-8.776687622E0,9.918212891E-2
8.893199753E0,-7.561035156E-1,-8.582763672E0,2.494812012E-2
8.898265671E0,-4.257049561E-1,-8.498962402E0,3.402709961E-3
8.903301072E0,-9.051513672E-2,-8.467834473E0,-1.330566406E-1
8.908366990E0,1.273498535E-1,-8.498962402E0,-2.407989502E-1
8.913402390E0,4.577484131E-1,-8.637832642E0,-4.419097900E-1
8.918437791E0,7.737884521E-1,-8.815002441E0,-6.502075195E-1
8.923503708E0,1.118545532E0,-9.109481812E0,-9.207611084E-1
8.928569626E0,1.460922241E0,-9.372848511E0,-1.160171509E0
8.933605027E0,1.729064941E0,-9.662551880E0,-1.382827759E0
8.938670945E0,1.915817261E0,-9.947463989E0,-1.435501099E0
8.943706345E0,2.069046021E0,-1.023715210E1,-1.296646118E0
8.948772263E0,2.164810181E0,-1.046459961E1,-1.299041748E0
8.953838181E0,2.169601440E0,-1.058911133E1,-1.258331299E0
8.958873582E0,2.174392700E0,-1.063938904E1,-1.239181519E0
8.963939500E0,2.157638550E0,-1.061305237E1,-1.155380249E0
8.969005417E0,2.133697510E0,-1.059867859E1,-1.057220459E0
8.974040818E0,2.016372681E0,-1.046459961E1,-9.494781494E-1
8.979076218E0,1.657241821E0,-1.025869751E1,-7.675323486E-1
8.984142136E0,1.152069092E0,-1.007196045E1,-5.903472900E-1
8.989208054E0,7.163238525E-1,-9.810989380E0,-5.161285400E-1
8.994273972E0,4.122619629E-1,-9.686492920E0,-4.562835693E-1
8.999309373E0,2.590332031E-1,-9.641006470E0,-3.988189697E-1
9.004344773E0,1.058044434E-1,-9.576354980E0,-2.743225098E-1
9.009410691E0,-4.502868652E-2,-9.499740601E0,-2.024993896E-1
9.014446091E0,-1.000976562E-1,-9.494949341E0,-1.737670898E-1
9.019512009E0,-5.221557617E-2,-9.514114380E0,-2.527770996E-1
9.024577927E0,-1.096801758E-1,-9.526077271E0,-2.886810303E-1
9.029643845E0,-4.263305664E-2,-9.564392090E0,-3.030548096E-1
9.034679246E0,6.988525391E-2,-9.497344971E0,-2.695312500E-1
9.039714646E0,1.680450439E-1,-9.516494751E0,-3.365631104E-1
9.044780564E0,2.183380127E-1,-9.573959351E0,-4.802246094E-1
9.049846482E0,3.021240234E-1,-9.576354980E0,-5.951385498E-1
9.054881882E0,3.931121826E-1,-9.617065430E0,-7.675323486E-1
9.059947800E0,4.816894531E-1,-9.619445801E0,-9.686431885E-1
9.064983201E0,6.109771729E-1,-9.633819580E0,-1.198486328E0
9.070049119E0,6.253509521E-1,-9.597900391E0,-1.255935669E0
9.075084519E0,5.918273926E-1,-9.497344971E0,-1.251159668E0
9.080150437E0,6.636505127E-1,-9.468612671E0,-1.277496338E0
9.085216355E0,7.522430420E-1,-9.444671631E0,-1.301437378E0
9.090251755E0,8.432159424E-1,-9.435104370E0,-1.234390259E0
9.095317673E0,7.737884521E-1,-9.372848511E0,-9.973754883E-1
9.100353074E0,8.504028320E-1,-9.391998291E0,-8.656921387E-1
9.105418992E0,1.001235962E0,-9.406372070E0,-6.717529297E-1
9.110454392E0,1.097000122E0,-9.442276001E0,-5.137329102E-1
9.115520310E0,1.061096191E0,-9.540451050E0,-3.964233398E-1
9.120586228E0,1.027572632E0,-9.643402100E0,-2.455902100E-1
9.125621628E0,9.581451416E-1,-9.736770630E0,-1.474304199E-1
9.130687546E0,8.144836426E-1,-9.801406860E0,-2.216491699E-1
9.135722947E0,6.037902832E-1,-9.933090210E0,-2.479858398E-1
9.140788865E0,4.122619629E-1,-1.003364563E1,-2.384033203E-1
9.145824265E0,1.225585938E-1,-1.004322815E1,-3.317871094E-1
9.150890183E0,-2.485351562E-1,-1.008152771E1,-4.203643799E-1
9.155925583E0,-7.178039551E-1,-1.010069275E1,-3.820648193E-1
9.160991501E0,-1.153549194E0,-1.015576172E1,-5.352935791E-1
9.166057419E0,-1.534225464E0,-1.017491150E1,-6.262664795E-1
9.171123337E0,-1.852661133E0,-1.014138794E1,-6.119079590E-1
9.176158738E0,-2.156723022E0,-1.005758667E1,-5.472564697E-1
9.181224656E0,-2.324310303E0,-9.928298950E0,-7.268218994E-1
9.186260056E0,-2.405715942E0,-9.784652710E0,-1.100326538E0
9.191325974E0,-2.422470093E0,-9.605087280E0,-1.593521118E0
9.196361375E0,-2.432052612E0,-9.473403931E0,-1.974197388E0
9.201396775E0,-2.439239502E0,-9.377639771E0,-2.275878906E0
9.206462693E0,-2.386566162E0,-9.370452881E0,-2.455444336E0
9.211528611E0,-2.307556152E0,-9.511718750E0,-2.532058716E0
9.216564011E0,-2.204605103E0,-9.822967529E0,-2.551208496E0
9.221629929E0,-1.957992554E0,-1.035926819E1,-2.426712036E0
9.226695847E0,-1.675476074E0,-1.087879944E1,-2.108276367E0
9.231731248E0,-1.275650024E0,-1.130497742E1,-1.674926758E0
9.236797166E0,-8.207550049E-1,-1.166648865E1,-1.117080688E0
9.241863083E0,-3.419189453E-1,-1.193704224E1,-5.089569092E-1
9.246929001E0,1.441040039E-1,-1.211181641E1,-3.489685059E-2
9.251964402E0,5.080261230E-1,-1.221476746E1,2.739562988E-1
9.256999802E0,7.306823730E-1,-1.221955872E1,4.295806885E-1
9.262065720E0,7.929382324E-1,-1.221476746E1,4.750671387E-1
9.267131638E0,7.163238525E-1,-1.223870850E1,4.104156494E-1
9.272197556E0,4.385986328E-1,-1.239672852E1,2.787475586E-1
9.277232957E0,-4.742431641E-2,-1.264332581E1,-2.532958984E-2
9.282268357E0,-7.872314453E-1,-1.295697021E1,-3.437500000E-1
9.287334275E0,-1.584503174E0,-1.317962646E1,-5.376892090E-1
9.292369675E0,-2.379379272E0,-1.331610107E1,-4.658508301E-1
9.297405076E0,-3.092849731E0,-1.337117004E1,-1.306610107E-1
9.302470994E0,-3.686614990E0,-1.329455566E1,4.104156494E-1
9.307536912E0,-4.153488159E0,-1.313893127E1,9.682769775E-1
9.312572312E0,-4.457550049E0,-1.294499207E1,1.550064087E0
9.317638230E0,-4.646682739E0,-1.267684937E1,2.000167847E0
9.322673630E0,-4.785552979E0,-1.231292725E1,2.438308716E0
9.327739548E0,-4.835830688E0,-1.205195618E1,2.835754395E0
9.332805466E0,-4.807098389E0,-1.182690430E1,3.123046875E0
9.337871384E0,-4.653869629E0,-1.160903931E1,3.360076904E0
9.342906785E0,-4.373748779E0,-1.139595032E1,3.307403564E0
9.347942185E0,-3.959548950E0,-1.117808533E1,3.135025024E0
9.353008103E0,-3.404098511E0,-1.099372864E1,2.969818115E0
9.358074021E0,-2.716964722E0,-1.074951172E1,2.718429565E0
9.363109421E0,-1.917297363E0,-1.060346985E1,2.615478516E0
9.368175339E0,-1.009887695E0,-1.058671570E1,2.658584595E0
9.373241257E0,-1.407928467E-1,-1.070162964E1,2.809417725E0
9.378276658E0,7.929382324E-1,-1.085964966E1,3.130233765E0
9.383312058E0,1.719497681E0,-1.112780762E1,3.606674194E0
9.388377976E0,2.646057129E0,-1.150369263E1,3.798217773E0
9.393443894E0,3.455291748E0,-1.194422913E1,3.324157715E0
9.398479294E0,4.116088867E0,-1.236560059E1,2.064819336E0
9.403514695E0,4.683517456E0,-1.275106812E1,1.925506592E-1
9.408580613E0,5.059402466E0,-1.314851379E1,-1.938293457E0
9.413646531E0,5.334732056E0,-1.360820007E1,-3.796188354E0
9.418681931E0,5.514297485E0,-1.406549072E1,-5.177642822E0
9.423747849E0,5.849487305E0,-1.436715698E1,-5.936599731E0
9.428813767E0,6.187072754E0,-1.470951843E1,-6.137725830E0
9.433849167E0,6.428894043E0,-1.492260742E1,-5.974914551E0
9.438915085E0,6.630004883E0,-1.495133972E1,-5.582260132E0
9.443950486E0,6.795196533E0,-1.491542053E1,-4.983718872E0
9.449016404E0,7.032226562E0,-1.481726074E1,-4.239120483E0
9.454082322E0,7.104049683E0,-1.455628967E1,-3.700424194E0
9.459117722E0,6.811965942E0,-1.415885925E1,-3.180877686E0
9.464183640E0,6.163131714E0,-1.365847778E1,-2.656555176E0
9.469219041E0,5.334732056E0,-1.334722900E1,-2.081939697E0
9.474284958E0,4.379455566E0,-1.318920898E1,-1.332550049E0
9.479320359E0,3.452896118E0,-1.303118896E1,-7.196350098E-1
9.484386277E0,2.334808350E0,-1.285162354E1,-4.323425293E-1
9.489452195E0,8.815307617E-1,-1.252601624E1,-7.196350098E-1
9.494487595E0,-7.992095947E-1,-1.214773560E1,-1.583953857E0
9.499553513E0,-2.108840942E0,-1.173832703E1,-1.574371338E0
9.504588914E0,-2.882156372E0,-1.124272156E1,-1.354522705E-1
9.509654832E0,-3.116790771E0,-1.073994446E1,1.205291748E0
9.514690232E0,-2.599639893E0,-1.024673462E1,1.514144897E0
9.519756150E0,-1.831100464E0,-9.758316040E0,1.518936157E0
9.524822068E0,-6.938629150E-1,-9.351303101E0,1.456680298E0
9.529857468E0,5.583038330E-1,-9.116668701E0,1.150222778E0
9.534923386E0,1.314880371E0,-8.984985352E0,7.527923584E-1
9.539958787E0,2.059478760E0,-8.949081421E0,2.739562988E-1
9.545024705E0,2.516769409E0,-8.905975342E0,-7.560729980E-2
9.550060105E0,2.708297729E0,-8.922744751E0,-3.293914795E-1
9.555126023E0,2.907012939E0,-8.898803711E0,-7.483673096E-1
9.560191941E0,3.100952148E0,-8.743179321E0,-1.064407349E0
9.565227341E0,3.009963989E0,-8.542068481E0,-1.224822998E0
9.570293259E0,2.535919189E0,-8.331375122E0,-1.253555298E0
9.575328660E0,2.126510620E0,-8.106323242E0,-1.155380249E0
9.580394578E0,1.894271851E0,-7.967453003E0,-9.830017090E-1
9.585429978E0,1.638092041E0,-7.785491943E0,-7.196350098E-1
9.590495896E0,1.374725342E0,-7.603530884E0,-3.844604492E-1
9.595531296E0,1.001235962E0,-7.443130493E0,-7.560729980E-2
9.600597214E0,7.522430420E-1,-7.385665894E0,3.692626953E-2
9.605663132E0,6.899871826E-1,-7.354537964E0,7.044982910E-2
9.610729050E0,4.218444824E-1,-7.301864624E0,2.500152588E-1
9.615764451E0,3.763427734E-1,-7.323410034E0,3.218383789E-1
9.620799851E0,2.374877930E-1,-7.282714844E0,3.266296387E-1
9.625865769E0,-2.108764648E-2,-7.244400024E0,4.080200195E-1
9.630931687E0,-1.719207764E-1,-7.246795654E0,2.978973389E-1
9.635967087E0,-4.023742676E-2,-7.253982544E0,8.241271973E-2
9.641033005E0,1.776275635E-1,-7.280319214E0,4.822540283E-1
9.646098923E0,1.105957031E-1,-7.277923584E0,8.796844482E-1
9.651134324E0,5.313110352E-2,-7.309051514E0,1.064041138E0
9.656169724E0,2.255096436E-1,-7.313842773E0,9.730529785E-1
9.661235642E0,3.955078125E-1,-7.261169434E0,8.724975586E-1
9.666301560E0,4.505615234E-1,-7.253982544E0,7.743377686E-1
9.671336960E0,3.763427734E-1,-7.265945435E0,7.623748779E-1
9.676402878E0,2.949523926E-1,-7.309051514E0,7.288513184E-1
9.681438279E0,4.242248535E-1,-7.366516113E0,5.875854492E-1
9.686504197E0,4.721221924E-1,-7.380874634E0,3.769073486E-1
9.691570115E0,3.739471436E-1,-7.294677734E0,1.278991699E-1
9.696605515E0,2.686157227E-1,-7.253982544E0,-4.447937012E-2
9.701640916E0,3.571929932E-1,-7.225250244E0,3.769073486E-1
9.706706833E0,4.218444824E-1,-7.038497925E0,7.480010986E-1
9.711772751E0,2.662200928E-1,-6.851760864E0,6.426544189E-1
9.716808152E0,4.115295410E-2,-6.734436035E0,4.128112793E-1
9.721874070E0,-1.024932861E-1,-6.633880615E0,2.260742188E-1
9.726909470E0,-2.293853760E-1,-6.447128296E0,1.063537598E-1
9.731975388E0,-3.562774658E-1,-6.313064575E0,-3.250122070E-2
9.737041306E0,-5.478210449E-1,-6.176589966E0,-1.258850098E-1
9.742076707E0,-6.555480957E-1,-6.111953735E0,-9.715270996E-2
9.747142625E0,-6.699218750E-1,-6.111953735E0,-1.095581055E-2
9.752178025E0,-7.010498047E-1,-6.116729736E0,1.015625000E-1
9.757243943E0,-7.369537354E-1,-6.190963745E0,3.194427490E-1
9.762309861E0,-7.824401855E-1,-6.296295166E0,5.109710693E-1
9.767375779E0,-9.667968750E-1,-6.420806885E0,6.378784180E-1
9.772411179E0,-1.134399414E0,-6.655426025E0,9.730529785E-1
9.777446580E0,-1.440856934E0,-6.897247314E0,1.291488647E0
9.782512498E0,-1.579711914E0,-7.213287354E0,1.619491577E0
9.787547898E0,-1.579711914E0,-7.591567993E0,1.837371826E0
9.792613816E0,-1.924484253E0,-7.941116333E0,2.189315796E0
9.797679734E0,-2.202209473E0,-8.475021362E0,2.622665405E0
9.802715134E0,-2.290786743E0,-9.075973511E0,2.854904175E0
9.807781052E0,-2.274032593E0,-9.688888550E0,3.228393555E0
9.812816453E0,-2.312347412E0,-1.034729004E1,3.673721313E0
9.817882371E0,-2.649917603E0,-1.097695923E1,4.018478394E0
9.822917771E0,-2.815124512E0,-1.162818909E1,4.255508423E0
9.827983689E0,-3.155105591E0,-1.228898621E1,4.439865112E0
9.833049607E0,-3.475921631E0,-1.284443665E1,4.518875122E0
9.838085007E0,-4.081649780E0,-1.334722900E1,4.705612183E0
9.843150925E0,-4.692184448E0,-1.373747253E1,4.736740112E0
9.848216843E0,-5.506210327E0,-1.402238464E1,4.794204712E0
9.853252244E0,-5.894073486E0,-1.424266052E1,4.820541382E0
9.858318162E0,-6.097579956E0,-1.428814697E1,4.880401611E0
9.863353562E0,-6.133483887E0,-1.419477844E1,4.968978882E0
9.868419480E0,-5.872512817E0,-1.398168945E1,5.062362671E0
9.873454880E0,-5.484664917E0,-1.369438171E1,5.179672241E0
9.878490281E0,-5.065673828E0,-1.324188232E1,5.246704102E0
9.883556199E0,-4.586837769E0,-1.275825500E1,5.335296631E0
9.888622117E0,-4.000259399E0,-1.229138184E1,5.390365601E0
9.893688035E0,-3.334671021E0,-1.176226807E1,5.428665161E0
9.898723435E0,-2.657104492E0,-1.116850281E1,5.474151611E0
9.903789353E0,-1.919692993E0,-1.064178467E1,5.165313721E0
9.908855271E0,-1.203826904E0,-1.022998047E1,4.617034912E0
9.913890671E0,-5.957031250E-1,-9.997741699E0,3.870040894E0
9.918926072E0,1.721191406E-2,-1.006477356E1,3.048828125E0
9.923991990E0,5.343627930E-1,-1.055558777E1,2.344940186E0
9.929057908E0,1.001235962E0,-1.149411011E1,1.969039917E0
9.934093308E0,1.403457642E0,-1.262178040E1,1.693710327E0
9.939159226E0,1.776962280E0,-1.355073547E1,1.164596558E0
9.944194626E0,2.301284790E0,-1.420195007E1,3.098602295E-1
9.949260544E0,2.698730469E0,-1.441024780E1,-4.060058594E-1
9.954295945E0,3.201507568E0,-1.441503906E1,-1.337341309E0
9.959361863E0,3.855117798E0,-1.449644470E1,-2.553604126E0
9.964397263E0,4.549438477E0,-1.454432678E1,-3.762664795E0
9.969463181E0,5.291641235E0,-1.454911804E1,-4.524032593E0
9.974529099E0,5.760910034E0,-1.444137573E1,-4.500091553E0
9.979564500E0,5.945266724E0,-1.400323486E1,-3.686050415E0
9.984630417E0,5.614868164E0,-1.319639587E1,-2.342910767E0
9.989696335E0,5.025894165E0,-1.205195618E1,-9.063873291E-1
9.994731736E0,4.252563477E0,-1.076148987E1,1.853637695E-1
9.999767136E0,3.151229858E0,-9.617065430E0,8.078613281E-1
1.000483305E1,2.215087891E0,-8.733596802E0,6.187133789E-1
1.000989897E1,1.642883301E0,-8.015335083E0,-2.048950195E-1
1.001493437E1,1.338821411E0,-7.404815674E0,-1.033279419E0
1.002000029E1,1.120941162E0,-6.878097534E0,-1.528884888E0
1.002506621E1,9.581451416E-1,-6.449523926E0,-1.531280518E0
1.003010161E1,7.139282227E-1,-6.073638916E0,-1.354110718E0
1.003513701E1,4.625396729E-1,-5.724090576E0,-1.083557129E0
1.004020293E1,3.284606934E-1,-5.573257446E0,-8.609008789E-1
1.004526884E1,1.967773438E-1,-5.489456177E0,-7.340087891E-1
1.005033476E1,1.632690430E-1,-5.489456177E0,-8.321685791E-1
1.005537016E1,2.063598633E-1,-5.709716797E0,-1.105102539E0
1.006040556E1,4.146575928E-1,-6.243621826E0,-1.392410278E0
1.006547148E1,7.761840820E-1,-7.062438965E0,-1.844909668E0
1.007053740E1,9.701080322E-1,-7.943511963E0,-2.242355347E0
1.007557280E1,1.051513672E0,-8.822189331E0,-2.630218506E0
1.008060820E1,1.159255981E0,-9.741561890E0,-3.058776855E0
1.008567412E1,1.322052002E0,-1.055558777E1,-3.302978516E0
1.009074004E1,1.422607422E0,-1.119483948E1,-3.458602905E0
1.009577544E1,1.487258911E0,-1.179817200E1,-3.410720825E0
1.010084136E1,1.456130981E0,-1.226264954E1,-3.223983765E0
1.010590727E1,1.252624512E0,-1.260981750E1,-2.998916626E0
1.011097319E1,9.653167725E-1,-1.287796021E1,-2.687667847E0
1.011600859E1,7.594146729E-1,-1.302639771E1,-2.508117676E0
1.012107451E1,5.032348633E-1,-1.303598022E1,-2.402770996E0
1.012610991E1,2.207183838E-1,-1.300245667E1,-2.390792847E0
1.013117583E1,-1.982574463E-1,-1.271754456E1,-2.316574097E0
1.013621123E1,-5.142974854E-1,-1.245658875E1,-2.297424316E0
1.014124663E1,-6.340026855E-1,-1.222434998E1,-2.189682007E0
1.014631255E1,-6.818847656E-1,-1.184367371E1,-2.144195557E0
1.015137846E1,-6.028747559E-1,-1.119963074E1,-2.347702026E0
1.015641387E1,-6.076660156E-1,-1.068487549E1,-2.460220337E0
1.016144926E1,-7.776641846E-1,-1.020364380E1,-2.347702026E0
1.016651518E1,-9.931335449E-1,-9.832534790E0,-2.160949707E0
1.017158110E1,-1.292404175E0,-9.535659790E0,-1.883224487E0
1.017661650E1,-1.596481323E0,-9.186096191E0,-1.725204468E0
1.018168242E1,-1.804763794E0,-8.999359131E0,-1.844909668E0
1.018674834E1,-1.986724854E0,-8.836547852E0,-2.036453247E0
1.019181426E1,-2.168685913E0,-8.666564941E0,-2.168136597E0
1.019684966E1,-2.077713013E0,-8.532485962E0,-2.295028687E0
1.020188506E1,-1.907714844E0,-8.372070312E0,-2.247146606E0
1.020695097E1,-1.804763794E0,-8.125473022E0,-1.916748047E0
1.021201689E1,-1.584503174E0,-7.929153442E0,-1.662963867E0
1.021705229E1,-1.244522095E0,-7.847747803E0,-1.545639038E0
1.022211821E1,-1.024261475E0,-7.799865723E0,-1.263122559E0
1.022715361E1,-6.603393555E-1,-7.866897583E0,-1.045257568E0
1.023221953E1,-2.317810059E-1,-8.046463013E0,-7.675323486E-1
1.023725493E1,1.848144531E-1,-8.276306152E0,-4.203643799E-1
1.024232085E1,6.947784424E-1,-8.453475952E0,-2.144622803E-1
1.024738676E1,1.228683472E0,-8.652191162E0,-1.574707031E-2
1.025245268E1,1.669219971E0,-8.937103271E0,1.925506592E-1
1.025748808E1,2.138473511E0,-9.250747681E0,4.152069092E-1
1.026255400E1,2.543106079E0,-9.542831421E0,6.115417480E-1
1.026761992E1,2.909408569E0,-9.856475830E0,5.828094482E-1
1.027265532E1,3.115310669E0,-1.010308838E1,6.282958984E-1
