"Time (s)","Acceleration x (m/s^2)","Acceleration y (m/s^2)","Acceleration z (m/s^2)"
0.000000000E0,6.631416082E-1,9.767827034E0,5.152352452E-1
2.418646000E-3,6.822943687E-1,9.767827034E0,5.128411651E-1
4.838073000E-3,6.727179289E-1,9.767827034E0,5.176293850E-1
7.257500000E-3,6.751120090E-1,9.772615433E0,5.152352452E-1
9.676510000E-3,6.751120090E-1,9.772615433E0,5.128411651E-1
1.209515600E-2,6.846884489E-1,9.770220757E0,5.056588650E-1
1.451421900E-2,6.655356884E-1,9.791768074E0,4.865060449E-1
1.693364600E-2,6.966589689E-1,9.784585953E0,4.793238044E-1
1.935224000E-2,6.799002886E-1,9.784585953E0,4.865060449E-1
2.177088500E-2,6.822943687E-1,9.820496559E0,4.841119647E-1
2.419031300E-2,6.870825291E-1,9.810920715E0,4.960824847E-1
2.660974000E-2,7.086294889E-1,9.815709114E0,4.793238044E-1
2.902833300E-2,6.894766092E-1,9.822891235E0,4.769296646E-1
3.144697900E-2,6.822943687E-1,9.858802795E0,4.745355248E-1
3.386640600E-2,6.775060892E-1,9.854015350E0,4.721415043E-1
3.628583300E-2,6.631416082E-1,9.858802795E0,4.721415043E-1
3.870447900E-2,6.296241283E-1,9.861196518E0,4.793238044E-1
4.112312500E-2,6.272300482E-1,9.865984917E0,4.649592042E-1
4.354250000E-2,6.368064880E-1,9.854015350E0,4.482004642E-1
4.596192700E-2,6.703238487E-1,9.868378639E0,4.721415043E-1
4.838057300E-2,6.344124079E-1,9.856409073E0,4.721415043E-1
5.079921900E-2,6.200478077E-1,9.856409073E0,4.817178845E-1
5.321864600E-2,6.344124079E-1,9.849225998E0,4.889001846E-1
5.563807300E-2,6.152595282E-1,9.868378639E0,4.912942648E-1
5.805666700E-2,6.511710882E-1,9.854015350E0,4.936883450E-1
6.047531300E-2,6.415946484E-1,9.844437599E0,4.769296646E-1
6.289474000E-2,6.392005682E-1,9.839650154E0,5.224175453E-1
6.531416700E-2,6.320182085E-1,9.822891235E0,5.295998454E-1
6.773281300E-2,6.152595282E-1,9.844437599E0,5.415703654E-1
7.015145800E-2,6.128654480E-1,9.830074310E0,5.272057652E-1
7.257083300E-2,6.080772877E-1,9.813315392E0,5.583290458E-1
7.499026000E-2,6.104713678E-1,9.820496559E0,5.918464065E-1
7.740890600E-2,5.793480873E-1,9.818102837E0,5.774818063E-1
7.982755200E-2,5.937126875E-1,9.803737640E0,5.798759460E-1
8.224697900E-2,6.056832075E-1,9.796555519E0,5.511467457E-1
8.466640600E-2,5.961067677E-1,9.784585953E0,5.463585258E-1
8.708505200E-2,5.961067677E-1,9.760644913E0,5.248116851E-1
8.950369800E-2,5.961067677E-1,9.763038635E0,5.463585258E-1
9.192307300E-2,5.937126875E-1,9.777402878E0,5.224175453E-1
9.434250000E-2,6.056832075E-1,9.763038635E0,4.912942648E-1
9.676114600E-2,6.032890081E-1,9.753461838E0,4.817178845E-1
9.917979200E-2,6.080772877E-1,9.775009155E0,4.745355248E-1
1.015992190E-1,6.152595282E-1,9.786979675E0,4.721415043E-1
1.040186460E-1,6.008950472E-1,9.782192230E0,4.793238044E-1
1.064372400E-1,6.032890081E-1,9.782192230E0,5.032647252E-1
1.088558850E-1,6.032890081E-1,9.777402878E0,4.601709843E-1
1.112753130E-1,5.937126875E-1,9.777402878E0,4.434123039E-1
1.136947400E-1,6.080772877E-1,9.806133270E0,4.386241436E-1
1.161133330E-1,5.985008478E-1,9.810920715E0,4.434123039E-1
1.185319790E-1,6.176537275E-1,9.818102837E0,4.649592042E-1
1.209514060E-1,6.032890081E-1,9.832468033E0,4.745355248E-1
1.233708330E-1,6.200478077E-1,9.846832275E0,4.314417839E-1
1.257894790E-1,6.056832075E-1,9.865984917E0,4.410181642E-1
1.282081250E-1,5.913186073E-1,9.873167038E0,4.865060449E-1
1.306275520E-1,6.008950472E-1,9.870773315E0,4.721415043E-1
1.330469790E-1,5.913186073E-1,9.877956390E0,4.769296646E-1
1.354655730E-1,5.913186073E-1,9.889925957E0,4.721415043E-1
1.378842190E-1,5.961067677E-1,9.865984917E0,4.960824847E-1
1.403036460E-1,5.841362476E-1,9.889925957E0,4.912942648E-1
1.427230730E-1,6.200478077E-1,9.870773315E0,5.319939256E-1
1.451416670E-1,6.104713678E-1,9.868378639E0,5.080530047E-1
1.475603130E-1,6.104713678E-1,9.849225998E0,5.319939256E-1
1.499797400E-1,5.985008478E-1,9.858802795E0,5.295998454E-1
1.523991670E-1,6.128654480E-1,9.842043877E0,5.128411651E-1
1.548178130E-1,6.224418879E-1,9.842043877E0,5.248116851E-1
1.572364580E-1,6.224418879E-1,9.832468033E0,5.128411651E-1
1.596558850E-1,6.415946484E-1,9.832468033E0,5.080530047E-1
1.620753130E-1,6.415946484E-1,9.837256432E0,5.128411651E-1
1.644939060E-1,6.559592485E-1,9.815709114E0,5.128411651E-1
1.669125520E-1,6.439887285E-1,9.818102837E0,5.391762257E-1
1.693319790E-1,6.320182085E-1,9.813315392E0,5.200234056E-1
1.717514060E-1,6.463829279E-1,9.818102837E0,5.415703654E-1
1.741700520E-1,6.487768888E-1,9.782192230E0,5.319939256E-1
1.765886980E-1,6.487768888E-1,9.808526993E0,5.535408854E-1
1.790080730E-1,6.320182085E-1,9.794161797E0,5.439644456E-1
1.814275000E-1,6.296241283E-1,9.808526993E0,5.511467457E-1
1.838461460E-1,6.392005682E-1,9.791768074E0,5.559349060E-1
1.862647920E-1,6.487768888E-1,9.798950195E0,5.511467457E-1
1.886842190E-1,6.152595282E-1,9.815709114E0,5.487526059E-1
1.911036460E-1,6.415946484E-1,9.798950195E0,5.535408854E-1
1.935222400E-1,6.344124079E-1,9.779796600E0,5.583290458E-1
1.959408850E-1,6.392005682E-1,9.808526993E0,5.702995658E-1
1.983603130E-1,6.463829279E-1,9.818102837E0,5.631172657E-1
2.007797400E-1,6.439887285E-1,9.806133270E0,5.559349060E-1
2.031983850E-1,6.463829279E-1,9.798950195E0,5.631172657E-1
2.056170310E-1,6.392005682E-1,9.794161797E0,5.032647252E-1
2.080364060E-1,6.511710882E-1,9.796555519E0,5.128411651E-1
2.104558330E-1,6.775060892E-1,9.810920715E0,5.535408854E-1
2.128744790E-1,6.487768888E-1,9.820496559E0,5.535408854E-1
2.152931250E-1,6.559592485E-1,9.832468033E0,5.319939256E-1
2.177125520E-1,6.583533287E-1,9.837256432E0,5.319939256E-1
2.201319790E-1,6.439887285E-1,9.839650154E0,5.415703654E-1
2.225505730E-1,6.703238487E-1,9.849225998E0,5.343880653E-1
2.249692190E-1,6.559592485E-1,9.839650154E0,5.439644456E-1
2.273886460E-1,6.559592485E-1,9.858802795E0,5.248116851E-1
2.298080730E-1,6.679297686E-1,9.854015350E0,4.960824847E-1
2.322267190E-1,6.607474089E-1,9.849225998E0,5.128411651E-1
2.346453650E-1,6.415946484E-1,9.822891235E0,5.032647252E-1
2.370647400E-1,6.535651684E-1,9.825284958E0,5.104470253E-1
2.394841670E-1,6.535651684E-1,9.827678680E0,5.080530047E-1
2.419028130E-1,6.559592485E-1,9.827678680E0,5.032647252E-1
2.443214580E-1,6.679297686E-1,9.794161797E0,5.343880653E-1
2.467408850E-1,6.535651684E-1,9.794161797E0,5.343880653E-1
2.491603130E-1,6.487768888E-1,9.837256432E0,5.272057652E-1
2.515789060E-1,6.607474089E-1,9.813315392E0,5.295998454E-1
2.539975520E-1,6.559592485E-1,9.813315392E0,5.295998454E-1
2.564169790E-1,6.463829279E-1,9.803737640E0,5.319939256E-1
2.588364060E-1,6.607474089E-1,9.827678680E0,5.295998454E-1
2.612550520E-1,6.583533287E-1,9.818102837E0,5.415703654E-1
2.636736980E-1,6.535651684E-1,9.825284958E0,5.774818063E-1
2.660930730E-1,6.535651684E-1,9.810920715E0,5.343880653E-1
2.685125000E-1,6.415946484E-1,9.820496559E0,5.463585258E-1
2.709311460E-1,6.392005682E-1,9.810920715E0,5.032647252E-1
2.733497920E-1,6.415946484E-1,9.830074310E0,5.224175453E-1
2.757692190E-1,6.607474089E-1,9.808526993E0,5.128411651E-1
2.781886460E-1,6.272300482E-1,9.827678680E0,5.056588650E-1
2.806072400E-1,6.248359680E-1,9.801343918E0,4.984765649E-1
2.830258850E-1,6.224418879E-1,9.798950195E0,4.793238044E-1
2.854453130E-1,6.368064880E-1,9.803737640E0,4.769296646E-1
2.878647400E-1,6.296241283E-1,9.815709114E0,4.865060449E-1
2.902833850E-1,6.128654480E-1,9.779796600E0,4.697473645E-1
2.927020310E-1,6.152595282E-1,9.779796600E0,4.577768445E-1
2.951214060E-1,6.032890081E-1,9.796555519E0,4.482004642E-1
2.975408330E-1,6.224418879E-1,9.820496559E0,4.553828239E-1
2.999594790E-1,6.248359680E-1,9.801343918E0,4.362300038E-1
3.023781250E-1,6.296241283E-1,9.832468033E0,4.553828239E-1
3.047975520E-1,6.152595282E-1,9.830074310E0,4.529886842E-1
3.072169790E-1,6.224418879E-1,9.844437599E0,4.505946040E-1
3.096355730E-1,5.961067677E-1,9.839650154E0,4.529886842E-1
3.120542190E-1,6.128654480E-1,9.851619720E0,4.242594838E-1
3.144736460E-1,6.056832075E-1,9.846832275E0,4.697473645E-1
3.168930730E-1,5.985008478E-1,9.873167038E0,4.434123039E-1
3.193117190E-1,6.056832075E-1,9.851619720E0,4.266536236E-1
3.217303650E-1,5.961067677E-1,9.851619720E0,4.338359237E-1
3.241497400E-1,6.128654480E-1,9.832468033E0,4.242594838E-1
3.265691670E-1,5.961067677E-1,9.818102837E0,4.170771837E-1
3.289878130E-1,5.937126875E-1,9.813315392E0,4.194713235E-1
3.314064580E-1,6.056832075E-1,9.808526993E0,4.075008035E-1
3.338258850E-1,6.128654480E-1,9.815709114E0,4.122889638E-1
3.362453130E-1,6.056832075E-1,9.796555519E0,3.931362629E-1
3.386639060E-1,6.296241283E-1,9.798950195E0,3.931362629E-1
3.410825520E-1,6.008950472E-1,9.784585953E0,3.859539032E-1
3.435019790E-1,6.080772877E-1,9.798950195E0,3.907421231E-1
3.459214060E-1,5.913186073E-1,9.818102837E0,4.003185034E-1
3.483400520E-1,5.841362476E-1,9.813315392E0,3.883480430E-1
3.507586980E-1,6.080772877E-1,9.796555519E0,3.787716031E-1
3.531780730E-1,6.008950472E-1,9.794161797E0,4.051067233E-1
3.555975000E-1,5.865303278E-1,9.791768074E0,4.003185034E-1
3.580161460E-1,6.032890081E-1,9.784585953E0,3.859539032E-1
3.604347920E-1,6.392005682E-1,9.784585953E0,3.811657429E-1
3.628542190E-1,6.272300482E-1,9.779796600E0,3.979244232E-1
3.652736460E-1,6.176537275E-1,9.784585953E0,4.314417839E-1
3.676922400E-1,6.080772877E-1,9.789374352E0,4.098949432E-1
3.701108850E-1,6.248359680E-1,9.782192230E0,4.266536236E-1
3.725303130E-1,6.080772877E-1,9.789374352E0,4.434123039E-1
3.749497400E-1,6.200478077E-1,9.806133270E0,4.314417839E-1
3.773683850E-1,6.415946484E-1,9.815709114E0,4.314417839E-1
3.797870310E-1,6.344124079E-1,9.818102837E0,4.266536236E-1
3.822064580E-1,6.296241283E-1,9.820496559E0,4.386241436E-1
3.846258850E-1,6.224418879E-1,9.822891235E0,4.098949432E-1
3.870444790E-1,6.272300482E-1,9.815709114E0,4.170771837E-1
3.894631250E-1,6.463829279E-1,9.837256432E0,4.314417839E-1
3.918825520E-1,6.655356884E-1,9.854015350E0,4.338359237E-1
3.943019790E-1,6.679297686E-1,9.842043877E0,4.194713235E-1
3.967205730E-1,6.846884489E-1,9.858802795E0,4.386241436E-1
3.991392190E-1,6.655356884E-1,9.851619720E0,4.697473645E-1
4.015586460E-1,6.990530491E-1,9.858802795E0,4.529886842E-1
4.039780730E-1,7.086294889E-1,9.856409073E0,4.314417839E-1
4.063967190E-1,7.205998898E-1,9.849225998E0,4.841119647E-1
4.088153650E-1,7.229939699E-1,9.839650154E0,4.769296646E-1
4.112347400E-1,7.134176493E-1,9.808526993E0,4.817178845E-1
4.136541670E-1,7.325704098E-1,9.818102837E0,4.673532844E-1
4.160728130E-1,7.038412094E-1,9.813315392E0,4.817178845E-1
4.184914580E-1,7.182058096E-1,9.825284958E0,4.769296646E-1
4.209108850E-1,7.301763296E-1,9.815709114E0,4.841119647E-1
4.233303130E-1,7.301763296E-1,9.810920715E0,4.745355248E-1
4.257489060E-1,7.182058096E-1,9.806133270E0,4.817178845E-1
4.281675520E-1,7.349644899E-1,9.827678680E0,4.673532844E-1
4.305869790E-1,7.325704098E-1,9.810920715E0,4.745355248E-1
4.330064060E-1,7.205998898E-1,9.803737640E0,4.721415043E-1
4.354250520E-1,7.445409298E-1,9.772615433E0,4.745355248E-1
4.378436980E-1,7.445409298E-1,9.789374352E0,4.841119647E-1
4.402631250E-1,7.349644899E-1,9.803737640E0,4.817178845E-1
4.426825520E-1,7.469350100E-1,9.806133270E0,4.841119647E-1
4.451011460E-1,7.349644899E-1,9.798950195E0,4.697473645E-1
4.475197920E-1,7.301763296E-1,9.791768074E0,4.769296646E-1
4.499392190E-1,7.541173697E-1,9.806133270E0,4.721415043E-1
4.523586460E-1,7.732700109E-1,9.827678680E0,5.224175453E-1
4.547772400E-1,7.469350100E-1,9.813315392E0,5.128411651E-1
4.571958850E-1,7.708760500E-1,9.810920715E0,4.865060449E-1
4.596153130E-1,7.780582905E-1,9.818102837E0,5.056588650E-1
4.620347400E-1,7.684818506E-1,9.810920715E0,4.889001846E-1
4.644533850E-1,7.828465700E-1,9.813315392E0,5.152352452E-1
4.668720310E-1,7.804523706E-1,9.827678680E0,5.104470253E-1
4.692914580E-1,7.852406502E-1,9.846832275E0,4.889001846E-1
4.717108850E-1,7.972110510E-1,9.846832275E0,5.032647252E-1
4.741294790E-1,7.660877705E-1,9.810920715E0,4.865060449E-1
4.765481250E-1,7.756642103E-1,9.810920715E0,4.889001846E-1
4.789675520E-1,7.828465700E-1,9.815709114E0,5.080530047E-1
4.813869790E-1,7.780582905E-1,9.827678680E0,5.008707047E-1
4.838056250E-1,7.972110510E-1,9.813315392E0,4.745355248E-1
4.862242710E-1,7.924228907E-1,9.822891235E0,5.008707047E-1
4.886436460E-1,7.660877705E-1,9.815709114E0,5.104470253E-1
4.910630730E-1,7.852406502E-1,9.803737640E0,5.176293850E-1
4.934817190E-1,7.852406502E-1,9.803737640E0,5.248116851E-1
4.959003650E-1,7.756642103E-1,9.818102837E0,5.248116851E-1
4.983197920E-1,7.756642103E-1,9.813315392E0,5.248116851E-1
5.007392190E-1,7.804523706E-1,9.813315392E0,5.128411651E-1
5.031578130E-1,7.708760500E-1,9.810920715E0,5.272057652E-1
5.055764580E-1,7.684818506E-1,9.808526993E0,5.248116851E-1
5.079958850E-1,7.612996101E-1,9.806133270E0,5.272057652E-1
5.104153130E-1,7.397526503E-1,9.801343918E0,5.200234056E-1
5.128339580E-1,7.397526503E-1,9.798950195E0,4.721415043E-1
5.152526040E-1,7.684818506E-1,9.810920715E0,4.984765649E-1
5.176719790E-1,7.636936903E-1,9.798950195E0,4.841119647E-1
5.200914060E-1,7.780582905E-1,9.798950195E0,4.936883450E-1
5.225100520E-1,7.684818506E-1,9.827678680E0,4.936883450E-1
5.249286980E-1,7.804523706E-1,9.832468033E0,4.960824847E-1
5.273481250E-1,7.636936903E-1,9.813315392E0,4.817178845E-1
5.297675520E-1,7.828465700E-1,9.825284958E0,4.793238044E-1
5.321861460E-1,7.924228907E-1,9.825284958E0,4.889001846E-1
5.346047920E-1,7.636936903E-1,9.808526993E0,4.769296646E-1
5.370242190E-1,7.780582905E-1,9.822891235E0,4.936883450E-1
5.394436460E-1,7.612996101E-1,9.818102837E0,4.769296646E-1
5.418622400E-1,7.684818506E-1,9.834861755E0,4.625650644E-1
5.442808850E-1,7.541173697E-1,9.832468033E0,4.769296646E-1
5.467003130E-1,7.517231703E-1,9.818102837E0,4.793238044E-1
5.491197400E-1,7.660877705E-1,9.827678680E0,4.721415043E-1
5.515383850E-1,7.565113306E-1,9.825284958E0,4.841119647E-1
5.539570310E-1,7.612996101E-1,9.818102837E0,4.721415043E-1
5.563764580E-1,7.229939699E-1,9.822891235E0,4.817178845E-1
5.587958850E-1,7.349644899E-1,9.813315392E0,4.793238044E-1
5.612144790E-1,7.182058096E-1,9.808526993E0,4.984765649E-1
5.636331250E-1,7.301763296E-1,9.810920715E0,4.912942648E-1
5.660525520E-1,7.301763296E-1,9.827678680E0,4.649592042E-1
5.684719790E-1,7.277822495E-1,9.827678680E0,4.625650644E-1
5.708905730E-1,7.134176493E-1,9.820496559E0,4.912942648E-1
5.733092190E-1,7.038412094E-1,9.830074310E0,4.793238044E-1
5.757286460E-1,6.966589689E-1,9.815709114E0,4.745355248E-1
5.781480730E-1,7.301763296E-1,9.810920715E0,4.673532844E-1
5.805667190E-1,7.014471292E-1,9.815709114E0,4.817178845E-1
5.829853650E-1,7.134176493E-1,9.830074310E0,4.553828239E-1
5.854047920E-1,7.229939699E-1,9.822891235E0,4.745355248E-1
5.878242190E-1,7.134176493E-1,9.810920715E0,4.434123039E-1
5.902428130E-1,7.038412094E-1,9.815709114E0,4.625650644E-1
5.926614580E-1,7.110234499E-1,9.837256432E0,4.410181642E-1
5.950808850E-1,6.822943687E-1,9.803737640E0,4.075008035E-1
5.975003130E-1,6.966589689E-1,9.782192230E0,4.338359237E-1
5.999189060E-1,7.086294889E-1,9.777402878E0,4.075008035E-1
6.023375520E-1,6.966589689E-1,9.796555519E0,4.242594838E-1
6.047569790E-1,6.966589689E-1,9.794161797E0,4.218654037E-1
6.071764060E-1,7.014471292E-1,9.806133270E0,3.979244232E-1
6.095950520E-1,6.942647696E-1,9.803737640E0,4.122889638E-1
6.120136980E-1,6.751120090E-1,9.806133270E0,4.266536236E-1
6.144331250E-1,6.894766092E-1,9.839650154E0,4.146831036E-1
6.168525520E-1,6.799002886E-1,9.810920715E0,4.314417839E-1
6.192711460E-1,6.607474089E-1,9.832468033E0,4.003185034E-1
6.216897920E-1,6.607474089E-1,9.834861755E0,3.955302835E-1
6.241092190E-1,6.535651684E-1,9.842043877E0,4.003185034E-1
6.265286460E-1,6.463829279E-1,9.846832275E0,4.170771837E-1
6.289472920E-1,6.392005682E-1,9.822891235E0,4.194713235E-1
6.313659380E-1,6.415946484E-1,9.832468033E0,4.194713235E-1
6.337853130E-1,6.248359680E-1,9.854015350E0,4.122889638E-1
6.362047400E-1,6.439887285E-1,9.834861755E0,4.218654037E-1
6.386233850E-1,6.248359680E-1,9.854015350E0,4.362300038E-1
6.410420310E-1,6.368064880E-1,9.839650154E0,4.386241436E-1
6.434614580E-1,6.248359680E-1,9.822891235E0,3.979244232E-1
6.458808850E-1,6.176537275E-1,9.818102837E0,3.787716031E-1
6.482994790E-1,6.032890081E-1,9.813315392E0,3.979244232E-1
6.507181250E-1,6.128654480E-1,9.794161797E0,3.931362629E-1
6.531375520E-1,6.296241283E-1,9.808526993E0,3.715893030E-1
6.555569790E-1,5.985008478E-1,9.803737640E0,3.715893030E-1
6.579756250E-1,5.985008478E-1,9.784585953E0,3.859539032E-1
6.603942710E-1,5.961067677E-1,9.796555519E0,4.098949432E-1
6.628136460E-1,6.056832075E-1,9.784585953E0,3.979244232E-1
6.652330730E-1,6.032890081E-1,9.791768074E0,4.075008035E-1
6.676517190E-1,5.937126875E-1,9.786979675E0,4.098949432E-1
6.700703650E-1,5.985008478E-1,9.789374352E0,4.314417839E-1
6.724897920E-1,6.056832075E-1,9.784585953E0,3.979244232E-1
6.749092190E-1,6.176537275E-1,9.798950195E0,3.883480430E-1
6.773278130E-1,6.032890081E-1,9.818102837E0,3.859539032E-1
6.797464580E-1,6.104713678E-1,9.789374352E0,3.715893030E-1
6.821658850E-1,6.248359680E-1,9.806133270E0,3.859539032E-1
6.845853130E-1,6.224418879E-1,9.798950195E0,4.051067233E-1
6.870039580E-1,6.200478077E-1,9.803737640E0,3.811657429E-1
6.894226040E-1,6.152595282E-1,9.827678680E0,4.098949432E-1
6.918419790E-1,5.913186073E-1,9.825284958E0,3.811657429E-1
6.942614060E-1,6.248359680E-1,9.830074310E0,3.835598230E-1
6.966800520E-1,6.152595282E-1,9.830074310E0,3.787716031E-1
6.990986980E-1,6.008950472E-1,9.815709114E0,3.907421231E-1
7.015181250E-1,5.937126875E-1,9.837256432E0,3.979244232E-1
7.039375520E-1,5.697716475E-1,9.861196518E0,3.763775826E-1
7.063561460E-1,5.889245272E-1,9.846832275E0,3.859539032E-1
7.087747920E-1,5.721658468E-1,9.832468033E0,4.051067233E-1
7.111942190E-1,5.649834871E-1,9.818102837E0,3.883480430E-1
7.136136460E-1,5.578012466E-1,9.808526993E0,3.715893030E-1
7.160322920E-1,5.841362476E-1,9.798950195E0,3.835598230E-1
7.184509380E-1,5.913186073E-1,9.830074310E0,4.098949432E-1
7.208703130E-1,5.697716475E-1,9.815709114E0,3.931362629E-1
7.232897400E-1,5.625894070E-1,9.813315392E0,3.931362629E-1
7.257083850E-1,5.793480873E-1,9.791768074E0,4.003185034E-1
7.281270310E-1,5.601953268E-1,9.815709114E0,3.835598230E-1
7.305464580E-1,5.649834871E-1,9.837256432E0,3.715893030E-1
7.329658850E-1,5.721658468E-1,9.825284958E0,3.835598230E-1
7.353844790E-1,5.793480873E-1,9.813315392E0,3.811657429E-1
7.378031250E-1,5.386483669E-1,9.815709114E0,3.835598230E-1
7.402225520E-1,5.673775673E-1,9.827678680E0,3.811657429E-1
7.426419790E-1,5.841362476E-1,9.818102837E0,3.787716031E-1
7.450606250E-1,5.769540071E-1,9.832468033E0,3.811657429E-1
7.474792710E-1,6.032890081E-1,9.813315392E0,3.811657429E-1
7.498986460E-1,6.104713678E-1,9.827678680E0,3.644070625E-1
7.523180730E-1,5.961067677E-1,9.830074310E0,3.715893030E-1
7.547367190E-1,5.889245272E-1,9.825284958E0,3.476483822E-1
7.571553650E-1,5.841362476E-1,9.839650154E0,3.500424027E-1
7.595747920E-1,6.056832075E-1,9.825284958E0,3.644070625E-1
7.619942190E-1,6.008950472E-1,9.818102837E0,3.787716031E-1
7.644128130E-1,5.937126875E-1,9.801343918E0,3.835598230E-1
7.668314580E-1,5.601953268E-1,9.808526993E0,3.907421231E-1
7.692508850E-1,5.841362476E-1,9.801343918E0,3.859539032E-1
7.716703130E-1,5.649834871E-1,9.796555519E0,4.003185034E-1
7.740889580E-1,5.554070473E-1,9.810920715E0,4.098949432E-1
7.765076040E-1,5.578012466E-1,9.806133270E0,4.362300038E-1
7.789269790E-1,5.673775673E-1,9.806133270E0,4.218654037E-1
7.813464060E-1,5.841362476E-1,9.796555519E0,4.338359237E-1
7.837650520E-1,5.769540071E-1,9.801343918E0,4.290477037E-1
7.861836980E-1,5.865303278E-1,9.806133270E0,4.122889638E-1
7.886031250E-1,5.554070473E-1,9.806133270E0,4.242594838E-1
7.910225520E-1,5.601953268E-1,9.789374352E0,4.122889638E-1
7.934411460E-1,5.649834871E-1,9.779796600E0,4.362300038E-1
7.958597920E-1,5.937126875E-1,9.779796600E0,4.290477037E-1
7.982792190E-1,5.601953268E-1,9.789374352E0,4.314417839E-1
8.006986460E-1,5.745599270E-1,9.763038635E0,4.434123039E-1
8.031172920E-1,5.865303278E-1,9.765433311E0,4.577768445E-1
8.055359380E-1,5.817421675E-1,9.753461838E0,4.266536236E-1
8.079553130E-1,5.697716475E-1,9.736703873E0,4.553828239E-1
8.103747400E-1,6.008950472E-1,9.746279716E0,4.745355248E-1
8.127933850E-1,6.056832075E-1,9.751068115E0,4.529886842E-1
8.152120310E-1,5.817421675E-1,9.729520798E0,4.529886842E-1
8.176314580E-1,6.032890081E-1,9.727127075E0,4.673532844E-1
8.200508850E-1,5.961067677E-1,9.712762833E0,4.817178845E-1
8.224694790E-1,5.937126875E-1,9.710369110E0,4.865060449E-1
8.248881250E-1,6.056832075E-1,9.739097595E0,5.152352452E-1
8.273075520E-1,6.104713678E-1,9.719944954E0,4.865060449E-1
8.297269790E-1,6.272300482E-1,9.751068115E0,5.176293850E-1
8.321456250E-1,5.985008478E-1,9.746279716E0,5.080530047E-1
8.345642710E-1,6.056832075E-1,9.753461838E0,5.104470253E-1
8.369836460E-1,5.961067677E-1,9.760644913E0,5.248116851E-1
8.394030730E-1,6.032890081E-1,9.748674393E0,5.128411651E-1
8.418217190E-1,6.128654480E-1,9.758251190E0,5.128411651E-1
8.442403650E-1,5.841362476E-1,9.777402878E0,5.248116851E-1
8.466597920E-1,6.008950472E-1,9.755855560E0,5.080530047E-1
8.490792190E-1,6.176537275E-1,9.779796600E0,5.439644456E-1
8.514978130E-1,6.176537275E-1,9.755855560E0,5.439644456E-1
8.539164580E-1,6.224418879E-1,9.760644913E0,5.679054260E-1
8.563358850E-1,6.368064880E-1,9.736703873E0,5.798759460E-1
8.587553130E-1,6.487768888E-1,9.743885994E0,5.990287662E-1
8.611739580E-1,6.631416082E-1,9.722338676E0,6.157874465E-1
8.635926040E-1,6.846884489E-1,9.717551231E0,6.157874465E-1
8.660119790E-1,7.229939699E-1,9.717551231E0,6.373342872E-1
8.684314060E-1,7.205998898E-1,9.707975388E0,6.469106674E-1
8.708500520E-1,7.469350100E-1,9.722338676E0,6.564870477E-1
8.732686980E-1,8.139697313E-1,9.743885994E0,6.636693478E-1
8.756881250E-1,8.403048515E-1,9.755855560E0,6.780340075E-1
8.781075520E-1,8.211520910E-1,9.763038635E0,6.852162480E-1
8.805261460E-1,8.618518114E-1,9.758251190E0,7.330982089E-1
8.829447920E-1,8.786103725E-1,9.779796600E0,7.330982089E-1
8.853642190E-1,8.738223314E-1,9.803737640E0,7.737978101E-1
8.877836460E-1,8.738223314E-1,9.803737640E0,7.785860896E-1
8.902022920E-1,8.857927322E-1,9.803737640E0,8.168917298E-1
8.926209380E-1,8.786103725E-1,9.830074310E0,8.097093701E-1
8.950403130E-1,8.474872112E-1,9.813315392E0,8.168917298E-1
8.974597400E-1,8.403048515E-1,9.806133270E0,8.336504102E-1
8.998783850E-1,8.379107714E-1,9.798950195E0,8.288622499E-1
9.022970310E-1,8.283344507E-1,9.789374352E0,8.168917298E-1
9.047164580E-1,7.996052504E-1,9.798950195E0,8.336504102E-1
9.071358850E-1,8.163639307E-1,9.794161797E0,8.288622499E-1
9.095544790E-1,8.115757704E-1,9.763038635E0,8.240739703E-1
9.119731250E-1,8.187580109E-1,9.751068115E0,8.192856908E-1
9.143925520E-1,7.828465700E-1,9.719944954E0,8.384385705E-1
9.168119790E-1,7.948169708E-1,9.724733353E0,8.049212098E-1
9.192306250E-1,7.756642103E-1,9.734310150E0,7.977388501E-1
9.216492710E-1,7.684818506E-1,9.758251190E0,7.953448892E-1
9.240686460E-1,7.612996101E-1,9.770220757E0,7.809802890E-1
9.264880730E-1,7.660877705E-1,9.746279716E0,7.761920094E-1
9.289067190E-1,7.493290901E-1,9.786979675E0,7.378864884E-1
9.313253650E-1,7.589055300E-1,9.794161797E0,7.426746488E-1
9.337447920E-1,7.421468496E-1,9.798950195E0,7.163395286E-1
9.361642190E-1,7.158117294E-1,9.839650154E0,7.187337279E-1
9.385828130E-1,7.014471292E-1,9.825284958E0,7.115513682E-1
9.410014580E-1,6.918708086E-1,9.825284958E0,6.923986077E-1
9.434208850E-1,6.775060892E-1,9.870773315E0,6.516988873E-1
9.458403130E-1,6.487768888E-1,9.834861755E0,6.157874465E-1
9.482589580E-1,6.415946484E-1,9.846832275E0,5.966346264E-1
9.506776040E-1,6.248359680E-1,9.851619720E0,5.918464065E-1
9.530969790E-1,5.985008478E-1,9.837256432E0,5.726936460E-1
9.555164060E-1,5.865303278E-1,9.861196518E0,5.487526059E-1
9.579350520E-1,5.601953268E-1,9.861196518E0,5.511467457E-1
9.603536980E-1,5.242837667E-1,9.863591194E0,5.391762257E-1
9.627731250E-1,5.266779661E-1,9.887532234E0,5.559349060E-1
9.651925520E-1,4.859782755E-1,9.887532234E0,5.343880653E-1
9.676111460E-1,4.644313157E-1,9.877956390E0,5.104470253E-1
9.700297920E-1,4.644313157E-1,9.885137558E0,5.200234056E-1
9.724492190E-1,4.309139550E-1,9.894714355E0,5.176293850E-1
9.748686460E-1,4.261257350E-1,9.880350113E0,5.008707047E-1
9.772872920E-1,4.213375747E-1,9.885137558E0,4.769296646E-1
9.797059380E-1,4.021847546E-1,9.856409073E0,5.008707047E-1
9.821253130E-1,3.782438338E-1,9.854015350E0,5.056588650E-1
9.845447400E-1,3.662733138E-1,9.832468033E0,4.817178845E-1
9.869633850E-1,3.686673939E-1,9.832468033E0,4.505946040E-1
9.893820310E-1,3.375441134E-1,9.810920715E0,4.505946040E-1
9.918014580E-1,3.183912933E-1,9.803737640E0,4.649592042E-1
9.942208850E-1,2.968444526E-1,9.825284958E0,4.793238044E-1
9.966394790E-1,2.848739326E-1,9.822891235E0,4.673532844E-1
9.990581250E-1,2.776916325E-1,9.808526993E0,4.505946040E-1
1.001477552E0,2.824798524E-1,9.822891235E0,4.482004642E-1
1.003896979E0,3.064208329E-1,9.827678680E0,4.458063841E-1
1.006315625E0,2.729034424E-1,9.810920715E0,4.482004642E-1
1.008734271E0,2.729034424E-1,9.813315392E0,4.410181642E-1
1.011153646E0,2.705093622E-1,9.818102837E0,4.194713235E-1
1.013573073E0,2.872680128E-1,9.822891235E0,4.242594838E-1
1.015991719E0,2.752975225E-1,9.784585953E0,4.027126431E-1
1.018410365E0,2.896621525E-1,9.806133270E0,4.075008035E-1
1.020829792E0,2.776916325E-1,9.794161797E0,3.763775826E-1
1.023249219E0,2.752975225E-1,9.784585953E0,3.787716031E-1
1.025667813E0,2.920562327E-1,9.803737640E0,3.620129228E-1
1.028086458E0,2.968444526E-1,9.789374352E0,3.500424027E-1
1.030505885E0,2.968444526E-1,9.803737640E0,3.165250421E-1
1.032925313E0,2.776916325E-1,9.813315392E0,3.165250421E-1
1.035343958E0,2.824798524E-1,9.789374352E0,3.308897018E-1
1.037762604E0,2.537506521E-1,9.822891235E0,3.715893030E-1
1.040181979E0,2.537506521E-1,9.830074310E0,3.452542424E-1
1.042601406E0,2.393860817E-1,9.834861755E0,3.308897018E-1
1.045020052E0,2.441742420E-1,9.834861755E0,3.332837224E-1
1.047438698E0,2.465683520E-1,9.849225998E0,3.308897018E-1
1.049858125E0,2.561447620E-1,9.861196518E0,3.141309619E-1
1.052277552E0,2.681152523E-1,9.846832275E0,3.165250421E-1
1.054696146E0,2.776916325E-1,9.863591194E0,3.069486618E-1
1.057114792E0,2.824798524E-1,9.870773315E0,2.806135416E-1
1.059534219E0,2.776916325E-1,9.873167038E0,2.782195210E-1
1.061953646E0,2.633270323E-1,9.875560760E0,2.925840616E-1
1.064372292E0,2.824798524E-1,9.863591194E0,2.662490010E-1
1.066790938E0,2.752975225E-1,9.851619720E0,2.925840616E-1
1.069210313E0,2.489624619E-1,9.834861755E0,3.045545816E-1
1.071629740E0,2.824798524E-1,9.827678680E0,2.877958417E-1
1.074048385E0,2.896621525E-1,9.818102837E0,2.806135416E-1
1.076467031E0,2.872680128E-1,9.810920715E0,2.566726208E-1
1.078886458E0,2.848739326E-1,9.798950195E0,2.614607811E-1
1.081305885E0,2.824798524E-1,9.794161797E0,2.159729004E-1
1.083724479E0,2.729034424E-1,9.798950195E0,2.087906003E-1
1.086143125E0,2.776916325E-1,9.786979675E0,2.135788202E-1
1.088562552E0,2.848739326E-1,9.801343918E0,2.135788202E-1
1.090981979E0,2.872680128E-1,9.818102837E0,2.423080206E-1
1.093400625E0,2.992385328E-1,9.851619720E0,2.662490010E-1
1.095819271E0,3.112089932E-1,9.861196518E0,2.470961809E-1
1.098238646E0,2.944503725E-1,9.854015350E0,2.447021008E-1
1.100658073E0,3.040267527E-1,9.863591194E0,1.896378398E-1
1.103076719E0,3.136031330E-1,9.865984917E0,1.465440691E-1
1.105495365E0,3.375441134E-1,9.839650154E0,1.680909395E-1
1.107914792E0,3.255736530E-1,9.844437599E0,1.202089489E-1
1.110334219E0,3.064208329E-1,9.832468033E0,1.297853589E-1
1.112752813E0,3.088149130E-1,9.851619720E0,1.393617392E-1
1.115171458E0,3.183912933E-1,9.842043877E0,1.226030588E-1
1.117590885E0,3.566968739E-1,9.865984917E0,1.249971390E-1
1.120010313E0,3.327559531E-1,9.854015350E0,1.824555099E-1
1.122428958E0,3.207854331E-1,9.861196518E0,1.537263393E-1
1.124847604E0,3.255736530E-1,9.851619720E0,1.369676590E-1
1.127266979E0,3.447263539E-1,9.837256432E0,9.387385845E-2
1.129686406E0,3.136031330E-1,9.834861755E0,9.626799822E-2
1.132105052E0,3.136031330E-1,9.827678680E0,8.190339804E-2
1.134523698E0,3.040267527E-1,9.837256432E0,8.190339804E-2
1.136943125E0,3.088149130E-1,9.842043877E0,9.387385845E-2
1.139362552E0,3.064208329E-1,9.870773315E0,1.010561883E-1
1.141781146E0,2.944503725E-1,9.856409073E0,1.106325686E-1
1.144199792E0,3.183912933E-1,9.875560760E0,1.058443785E-1
1.146619219E0,3.112089932E-1,9.868378639E0,6.753879786E-2
1.149038646E0,3.016326129E-1,9.873167038E0,2.205091715E-2
1.151457292E0,3.064208329E-1,9.832468033E0,-1.146647334E-2
1.153875938E0,3.064208329E-1,9.837256432E0,-2.104285359E-2
1.156295313E0,3.423323333E-1,9.803737640E0,-5.695432425E-2
1.158714740E0,3.423323333E-1,9.830074310E0,-2.583107352E-2
1.161133385E0,3.303618133E-1,9.830074310E0,1.726269722E-2
1.163552031E0,2.968444526E-1,9.837256432E0,3.402140737E-2
1.165971458E0,3.231795132E-1,9.842043877E0,5.078008771E-2
1.168390885E0,3.207854331E-1,9.822891235E0,3.641551733E-2
1.170809479E0,3.231795132E-1,9.818102837E0,1.247453690E-2
1.173228125E0,3.447263539E-1,9.810920715E0,-3.780153394E-2
1.175647552E0,3.399381936E-1,9.844437599E0,-3.301334381E-2
1.178066979E0,3.782438338E-1,9.849225998E0,-6.174254417E-2
1.180485625E0,3.590910137E-1,9.868378639E0,-7.371303439E-2
1.182904271E0,3.590910137E-1,9.873167038E0,-7.371303439E-2
1.185323646E0,3.686673939E-1,9.880350113E0,-7.131892443E-2
1.187743073E0,3.590910137E-1,9.863591194E0,-6.892482936E-2
1.190161719E0,3.375441134E-1,9.856409073E0,-4.737794399E-2
1.192580365E0,3.351500332E-1,9.846832275E0,-6.653074920E-2
1.194999792E0,3.064208329E-1,9.839650154E0,-7.850122452E-2
1.197419219E0,3.112089932E-1,9.851619720E0,-7.371303439E-2
1.199837813E0,3.231795132E-1,9.844437599E0,-6.892482936E-2
1.202256458E0,3.423323333E-1,9.832468033E0,-6.653074920E-2
1.204675885E0,3.543027937E-1,9.810920715E0,-9.047172964E-2
1.207095313E0,3.830319941E-1,9.810920715E0,-7.371303439E-2
1.209513958E0,3.926083744E-1,9.791768074E0,-5.934843421E-2
1.211932604E0,4.045788944E-1,9.775009155E0,-7.131892443E-2
1.214351979E0,4.452785552E-1,9.798950195E0,-1.215950102E-1
1.216771406E0,4.572490752E-1,9.803737640E0,-1.455359906E-1
1.219190052E0,4.955546558E-1,9.803737640E0,-1.766592711E-1
1.221608698E0,5.314661264E-1,9.784585953E0,-2.197530568E-1
1.224028125E0,5.482248068E-1,9.791768074E0,-2.580586374E-1
1.226447552E0,5.625894070E-1,9.772615433E0,-2.700291276E-1
1.228866146E0,5.937126875E-1,9.772615433E0,-2.819996178E-1
1.231284792E0,6.032890081E-1,9.767827034E0,-2.580586374E-1
1.233704219E0,6.176537275E-1,9.760644913E0,-2.221471667E-1
1.236123646E0,6.080772877E-1,9.806133270E0,-2.197530568E-1
1.238542292E0,6.200478077E-1,9.858802795E0,-2.293294519E-1
1.240960938E0,6.080772877E-1,9.887532234E0,-1.718710810E-1
1.243380313E0,6.799002886E-1,9.748674393E0,-2.700291276E-1
1.245799740E0,7.636936903E-1,9.763038635E0,-2.628468275E-1
1.248218385E0,7.900288105E-1,9.767827034E0,-2.269353569E-1
1.250637031E0,7.684818506E-1,9.794161797E0,-2.077825665E-1
1.253056458E0,7.612996101E-1,9.818102837E0,-2.006002665E-1
1.255475885E0,7.373585701E-1,9.839650154E0,-1.670828760E-1
1.257894479E0,7.565113306E-1,9.863591194E0,-1.934179664E-1
1.260313125E0,7.732700109E-1,9.889925957E0,-1.383536905E-1
1.262732552E0,7.756642103E-1,9.904291153E0,-1.383536905E-1
1.265151979E0,8.043934107E-1,9.935414314E0,-1.287773103E-1
1.267570625E0,8.211520910E-1,9.944990158E0,-1.383536905E-1
1.269989271E0,7.972110510E-1,9.964142799E0,-1.479301006E-1
1.272408646E0,7.876347303E-1,9.968931198E0,-1.694769710E-1
1.274828073E0,7.636936903E-1,9.947383881E0,-1.670828760E-1
1.277246719E0,7.565113306E-1,9.940201759E0,-1.575064957E-1
1.279665365E0,7.397526503E-1,9.930625916E0,-1.742651761E-1
1.282084792E0,7.493290901E-1,9.933019638E0,-1.622947007E-1
1.284504219E0,7.421468496E-1,9.899501801E0,-2.077825665E-1
1.286922813E0,7.541173697E-1,9.916260719E0,-2.077825665E-1
1.289341458E0,7.469350100E-1,9.877956390E0,-2.221471667E-1
1.291760885E0,7.038412094E-1,9.877956390E0,-2.197530568E-1
1.294180313E0,7.110234499E-1,9.854015350E0,-2.341176569E-1
1.296598958E0,7.038412094E-1,9.842043877E0,-2.508763373E-1
1.299017604E0,7.421468496E-1,9.822891235E0,-2.748173177E-1
1.301436979E0,7.684818506E-1,9.791768074E0,-2.819996178E-1
1.303856406E0,7.660877705E-1,9.765433311E0,-2.939701080E-1
1.306275052E0,7.996052504E-1,9.777402878E0,-2.987583280E-1
1.308693698E0,8.283344507E-1,9.770220757E0,-2.987583280E-1
1.311113125E0,8.211520910E-1,9.763038635E0,-3.083347082E-1
1.313532552E0,8.594576120E-1,9.746279716E0,-3.418520987E-1
1.315951146E0,9.073396921E-1,9.763038635E0,-3.633989692E-1
1.318369792E0,9.312806129E-1,9.767827034E0,-3.969163597E-1
1.320789219E0,9.456453323E-1,9.763038635E0,-3.801576793E-1
1.323208646E0,9.719803333E-1,9.770220757E0,-3.586107790E-1
1.325627292E0,1.000709534E0,9.782192230E0,-3.777635694E-1
1.328045938E0,1.010285854E0,9.772615433E0,-3.921281695E-1
1.330465313E0,1.027044535E0,9.791768074E0,-3.825517893E-1
1.332884740E0,1.062955976E0,9.806133270E0,-3.753694892E-1
1.335303385E0,1.089291215E0,9.839650154E0,-3.442462087E-1
1.337722031E0,1.096473455E0,9.863591194E0,-3.657930791E-1
1.340141458E0,1.098867536E0,9.865984917E0,-3.729753792E-1
1.342560885E0,1.086897016E0,9.863591194E0,-3.657930791E-1
1.344979479E0,1.077320695E0,9.889925957E0,-3.657930791E-1
1.347398125E0,1.086897016E0,9.901897430E0,-3.801576793E-1
1.349817552E0,1.091685295E0,9.918655396E0,-3.969163597E-1
1.352236979E0,1.065350175E0,9.916260719E0,-4.088868499E-1
1.354655573E0,1.034226894E0,9.923442841E0,-4.160691500E-1
1.357074219E0,1.031832814E0,9.909078598E0,-3.969163597E-1
1.359493646E0,1.050985575E0,9.916260719E0,-4.112809598E-1
1.361913073E0,1.039015055E0,9.933019638E0,-4.112809598E-1
1.364331719E0,1.012680054E0,9.904291153E0,-4.112809598E-1
1.366750365E0,9.863449335E-1,9.923442841E0,-4.088868499E-1
1.369169792E0,9.911332130E-1,9.889925957E0,-3.873399794E-1
1.371589219E0,9.624038935E-1,9.906684875E0,-4.208573699E-1
1.374007813E0,9.767684937E-1,9.901897430E0,-4.424042404E-1
1.376426458E0,9.791626930E-1,9.880350113E0,-4.208573699E-1
1.378845885E0,9.815566540E-1,9.873167038E0,-4.232514501E-1
1.381265313E0,9.767684937E-1,9.868378639E0,-4.519806504E-1
1.383683958E0,9.624038935E-1,9.877956390E0,-4.304337502E-1
1.386102604E0,9.791626930E-1,9.868378639E0,-4.639511406E-1
1.388521979E0,9.815566540E-1,9.837256432E0,-4.591629505E-1
1.390941406E0,9.911332130E-1,9.851619720E0,-5.094389915E-1
1.393360052E0,9.839507341E-1,9.839650154E0,-4.854980111E-1
1.395778698E0,9.983154535E-1,9.818102837E0,-4.974685013E-1
1.398198125E0,9.983154535E-1,9.798950195E0,-4.711334109E-1
1.400617552E0,1.017468214E0,9.786979675E0,-4.471924305E-1
1.403036146E0,9.983154535E-1,9.784585953E0,-4.232514501E-1
1.405454792E0,9.983154535E-1,9.806133270E0,-3.849458694E-1
1.407874219E0,9.336748123E-1,9.921049118E0,-3.346697986E-1
1.410293646E0,9.312806129E-1,9.772615433E0,-3.466402888E-1
1.412712240E0,9.983154535E-1,9.664880753E0,-4.184632599E-1
1.415130885E0,1.048591375E0,9.707975388E0,-3.825517893E-1
1.417550313E0,1.003103495E0,9.712762833E0,-3.562166989E-1
1.419969740E0,9.647980928E-1,9.729520798E0,-3.729753792E-1
1.422388385E0,9.025514126E-1,9.755855560E0,-3.562166989E-1
1.424807031E0,9.121277332E-1,9.758251190E0,-3.394579887E-1
1.427226458E0,9.049454927E-1,9.801343918E0,-3.203051984E-1
1.429645885E0,8.618518114E-1,9.794161797E0,-3.322756886E-1
1.432064479E0,8.738223314E-1,9.803737640E0,-3.418520987E-1
1.434483125E0,8.905808926E-1,9.834861755E0,-3.514284790E-1
1.436902552E0,8.474872112E-1,9.861196518E0,-3.633989692E-1
1.439321979E0,8.355166912E-1,9.894714355E0,-3.442462087E-1
1.441740625E0,8.187580109E-1,9.935414314E0,-3.322756886E-1
1.444159271E0,8.259402514E-1,9.933019638E0,-3.179111183E-1
1.446578646E0,8.235461712E-1,9.949777603E0,-3.226993084E-1
1.448998073E0,8.259402514E-1,9.961749077E0,-3.155170083E-1
1.451416719E0,7.996052504E-1,9.985690117E0,-3.322756886E-1
1.453835365E0,7.900288105E-1,1.000005531E1,-3.394579887E-1
1.456254792E0,7.756642103E-1,9.995265961E0,-3.322756886E-1
1.458674219E0,7.684818506E-1,9.961749077E0,-3.370639086E-1
1.461092813E0,7.660877705E-1,9.952173233E0,-2.987583280E-1
1.463511458E0,7.876347303E-1,9.940201759E0,-3.226993084E-1
1.465930885E0,8.019993305E-1,9.942596436E0,-3.179111183E-1
1.468350313E0,8.091815710E-1,9.918655396E0,-3.083347082E-1
1.470768958E0,7.996052504E-1,9.901897430E0,-2.867878079E-1
1.473187604E0,8.139697313E-1,9.873167038E0,-2.293294519E-1
1.475606979E0,8.115757704E-1,9.842043877E0,-1.766592711E-1
1.478026406E0,8.211520910E-1,9.839650154E0,-1.646887958E-1
1.480445052E0,8.426990509E-1,9.856409073E0,-1.622947007E-1
1.482863698E0,8.426990509E-1,9.861196518E0,-1.383536905E-1
1.485283125E0,8.355166912E-1,9.858802795E0,-1.383536905E-1
1.487702552E0,8.474872112E-1,9.813315392E0,-9.525993466E-2
1.490121146E0,8.833986521E-1,9.803737640E0,-9.525993466E-2
1.492539792E0,8.594576120E-1,9.832468033E0,-1.000481248E-1
1.494959219E0,8.929750919E-1,9.798950195E0,-7.131892443E-2
1.497378646E0,8.881869316E-1,9.808526993E0,-8.807763457E-2
1.499797292E0,9.145219326E-1,9.820496559E0,-8.089533448E-2
1.502215938E0,9.312806129E-1,9.813315392E0,-5.695432425E-2
1.504635313E0,9.384628534E-1,9.815709114E0,-9.525993466E-2
1.507054740E0,9.528275728E-1,9.834861755E0,-5.934843421E-2
1.509473385E0,9.217042923E-1,9.940201759E0,-3.301334381E-2
1.511892031E0,9.336748123E-1,9.834861755E0,-8.807763457E-2
1.514311458E0,1.022256374E0,9.717551231E0,-1.479301006E-1
1.516730885E0,1.086897016E0,9.739097595E0,-8.089533448E-2
1.519149479E0,1.108443856E0,9.779796600E0,-8.328942955E-2
1.521568125E0,1.108443856E0,9.772615433E0,-1.215950102E-1
1.523987552E0,1.115626335E0,9.758251190E0,-8.089533448E-2
1.526406979E0,1.079714775E0,9.727127075E0,-3.540745378E-2
1.528825625E0,1.101261616E0,9.707975388E0,-1.386058331E-2
1.531244271E0,1.108443856E0,9.724733353E0,-1.864874363E-2
1.533663646E0,1.129990816E0,9.746279716E0,-9.072393179E-3
1.536083073E0,1.137173176E0,9.722338676E0,2.898126841E-3
1.538501719E0,1.125202656E0,9.700792313E0,1.008042693E-2
1.540920365E0,1.149143696E0,9.731914520E0,5.040168762E-4
1.543339792E0,1.149143696E0,9.743885994E0,6.035649776E-2
1.545759219E0,1.139567137E0,9.755855560E0,5.317419767E-2
1.548177813E0,1.115626335E0,9.758251190E0,2.923321724E-2
1.550596458E0,1.139567137E0,9.763038635E0,2.923321724E-2
1.553015885E0,1.110838056E0,9.755855560E0,6.993290782E-2
1.555435313E0,1.118020296E0,9.765433311E0,8.429747820E-2
1.557853958E0,1.137173176E0,9.758251190E0,8.669158816E-2
1.560272604E0,1.125202656E0,9.767827034E0,8.190339804E-2
1.562691979E0,1.137173176E0,9.741492271E0,7.232698798E-2
1.565111406E0,1.134778976E0,9.753461838E0,5.078008771E-2
1.567530052E0,1.122808576E0,9.755855560E0,3.880962729E-2
1.569948698E0,1.146749496E0,9.753461838E0,3.402140737E-2
1.572368125E0,1.132384896E0,9.758251190E0,2.683910728E-2
1.574787552E0,1.134778976E0,9.772615433E0,5.317419767E-2
1.577206146E0,1.129990816E0,9.777402878E0,9.147977829E-2
1.579624792E0,1.094079256E0,9.779796600E0,1.249971390E-1
1.582044219E0,1.065350175E0,9.834861755E0,1.656968296E-1
1.584463646E0,1.036620975E0,9.854015350E0,1.944260001E-1
1.586882292E0,1.029438615E0,9.880350113E0,2.135788202E-1
1.589300938E0,1.029438615E0,9.865984917E0,2.183669806E-1
1.591720365E0,1.019862294E0,9.897108078E0,2.399139404E-1
1.594139792E0,9.983154535E-1,9.913866997E0,2.279434204E-1
1.596558385E0,9.480392933E-1,9.882743835E0,2.518843412E-1
1.598977031E0,9.336748123E-1,9.877956390E0,2.447021008E-1
1.601396458E0,8.953691721E-1,9.885137558E0,2.399139404E-1
1.603815885E0,8.762164116E-1,9.856409073E0,2.183669806E-1
1.606234479E0,8.522753716E-1,9.822891235E0,2.255492806E-1
1.608653125E0,8.355166912E-1,9.822891235E0,2.159729004E-1
1.611072552E0,8.283344507E-1,9.791768074E0,2.375198007E-1
1.613491979E0,8.187580109E-1,9.904291153E0,2.614607811E-1
1.615910625E0,7.828465700E-1,9.885137558E0,2.806135416E-1
1.618329271E0,8.283344507E-1,9.662487030E0,2.063965201E-1
1.620748698E0,9.360687733E-1,9.633756638E0,1.680909395E-1
1.623168125E0,1.015074015E0,9.645728111E0,2.183669806E-1
1.625586719E0,1.017468214E0,9.667275429E0,2.183669806E-1
1.628005365E0,9.647980928E-1,9.669669151E0,2.087906003E-1
1.630424792E0,9.624038935E-1,9.664880753E0,2.375198007E-1
1.632844219E0,9.791626930E-1,9.657697678E0,2.494903207E-1
1.635262865E0,1.012680054E0,9.674456596E0,3.117368817E-1
1.637681510E0,1.060561895E0,9.734310150E0,2.901899815E-1
1.640100885E0,1.084502935E0,9.736703873E0,2.782195210E-1
1.642520313E0,1.086897016E0,9.748674393E0,2.686431408E-1
1.644938958E0,1.060561895E0,9.775009155E0,3.117368817E-1
1.647357604E0,1.101261616E0,9.772615433E0,3.213132620E-1
1.649777031E0,1.106049776E0,9.832468033E0,3.548306227E-1
1.652196458E0,1.084502935E0,9.830074310E0,3.835598230E-1
1.654615052E0,1.091685295E0,9.851619720E0,3.931362629E-1
1.657033698E0,1.108443856E0,9.854015350E0,3.907421231E-1
1.659453125E0,1.108443856E0,9.849225998E0,4.242594838E-1
1.661872552E0,1.110838056E0,9.865984917E0,4.146831036E-1
1.664291198E0,1.101261616E0,9.846832275E0,4.218654037E-1
1.666709844E0,1.072532415E0,9.846832275E0,4.673532844E-1
1.669129219E0,1.065350175E0,9.825284958E0,4.912942648E-1
1.671548646E0,1.098867536E0,9.832468033E0,4.505946040E-1
1.673967292E0,1.101261616E0,9.803737640E0,4.314417839E-1
1.676385938E0,1.106049776E0,9.796555519E0,4.529886842E-1
1.678805365E0,1.098867536E0,9.779796600E0,4.003185034E-1
1.681224792E0,1.086897016E0,9.765433311E0,4.122889638E-1
1.683643385E0,1.101261616E0,9.772615433E0,3.931362629E-1
1.686062031E0,1.098867536E0,9.758251190E0,3.548306227E-1
1.688481458E0,1.084502935E0,9.763038635E0,3.189191818E-1
1.690900885E0,1.077320695E0,9.760644913E0,3.141309619E-1
1.693319531E0,1.067744255E0,9.763038635E0,3.021605015E-1
1.695738177E0,1.084502935E0,9.753461838E0,2.997663617E-1
1.698157552E0,1.108443856E0,9.767827034E0,2.806135416E-1
1.700576979E0,1.098867536E0,9.777402878E0,3.045545816E-1
1.702995625E0,1.110838056E0,9.803737640E0,3.189191818E-1
1.705414271E0,1.129990816E0,9.813315392E0,3.308897018E-1
1.707833698E0,1.125202656E0,9.837256432E0,3.500424027E-1
1.710253125E0,1.146749496E0,9.851619720E0,3.189191818E-1
1.712671719E0,1.158720016E0,9.885137558E0,3.117368817E-1
1.715090365E0,1.120414376E0,9.863591194E0,2.806135416E-1
1.717509792E0,1.108443856E0,9.906684875E0,2.830076814E-1
1.719929219E0,1.127596736E0,9.906684875E0,2.758253813E-1
1.722347865E0,1.127596736E0,9.897108078E0,3.332837224E-1
1.724766510E0,1.103655815E0,9.930625916E0,3.069486618E-1
1.727185938E0,1.103655815E0,9.916260719E0,2.973722219E-1
1.729605365E0,1.084502935E0,9.899501801E0,2.949782014E-1
1.732023958E0,1.065350175E0,9.882743835E0,2.710371614E-1
1.734442604E0,1.034226894E0,9.882743835E0,2.782195210E-1
1.736862031E0,1.041409135E0,9.842043877E0,2.806135416E-1
1.739281458E0,1.027044535E0,9.818102837E0,2.734313011E-1
1.741700104E0,1.017468214E0,9.796555519E0,2.494903207E-1
1.744118750E0,1.027044535E0,9.765433311E0,2.183669806E-1
1.746538125E0,1.022256374E0,9.751068115E0,1.896378398E-1
1.748957552E0,1.036620975E0,9.710369110E0,1.585145593E-1
1.751376198E0,1.036620975E0,9.698397636E0,1.417558789E-1
1.753794844E0,1.072532415E0,9.662487030E0,1.369676590E-1
1.756214271E0,1.089291215E0,9.633756638E0,1.369676590E-1
1.758633698E0,1.101261616E0,9.583480835E0,1.297853589E-1
1.761052292E0,1.067744255E0,9.566722870E0,1.585145593E-1
1.763470938E0,1.060561895E0,9.530811310E0,1.226030588E-1
1.765890365E0,1.048591375E0,9.741492271E0,2.686431408E-1
1.768309792E0,1.065350175E0,9.463775635E0,1.345735490E-1
1.770728385E0,1.098867536E0,9.336889267E0,1.297853589E-1
1.773147031E0,1.137173176E0,9.315341949E0,1.968201399E-1
1.775566458E0,1.165902257E0,9.351253510E0,2.303375006E-1
1.777985885E0,1.158720016E0,9.368012428E0,2.087906003E-1
1.780404531E0,1.165902257E0,9.396741867E0,2.255492806E-1
1.782823177E0,1.168296456E0,9.447017670E0,2.518843412E-1
1.785242604E0,1.187449217E0,9.468564987E0,2.925840616E-1
1.787662031E0,1.204207897E0,9.516447067E0,2.806135416E-1
1.790080625E0,1.208996058E0,9.573904991E0,2.470961809E-1
1.792499271E0,1.197025537E0,9.602634430E0,2.447021008E-1
1.794918698E0,1.185055137E0,9.643334389E0,2.423080206E-1
1.797338125E0,1.189843297E0,9.686428070E0,2.063965201E-1
1.799756771E0,1.192237377E0,9.758251190E0,2.063965201E-1
1.802175417E0,1.182661057E0,9.779796600E0,1.704850197E-1
1.804594792E0,1.177872777E0,9.815709114E0,1.513322294E-1
1.807014219E0,1.144355416E0,9.849225998E0,1.202089489E-1
1.809432865E0,1.110838056E0,9.889925957E0,1.130266786E-1
1.811851510E0,1.086897016E0,9.916260719E0,8.190339804E-2
1.814270938E0,1.053379655E0,9.942596436E0,7.711517811E-2
1.816690365E0,1.046197414E0,9.954566956E0,8.669158816E-2
1.819108958E0,1.015074015E0,9.966536522E0,9.147977829E-2
1.821527604E0,1.010285854E0,9.983296394E0,4.599189758E-2
1.823947031E0,9.815566540E-1,9.964142799E0,1.726269722E-2
1.826366458E0,9.456453323E-1,9.949777603E0,5.292207003E-3
1.828785104E0,9.217042923E-1,9.901897430E0,2.923321724E-2
1.831203750E0,9.025514126E-1,9.849225998E0,2.205091715E-2
1.833623177E0,9.121277332E-1,9.801343918E0,3.880962729E-2
1.836042604E0,8.857927322E-1,9.731914520E0,1.489381492E-1
1.838461198E0,8.953691721E-1,9.717551231E0,2.111847401E-1
1.840879844E0,9.600098133E-1,9.696003914E0,3.162729740E-2
1.843299271E0,9.288865328E-1,9.645728111E0,1.965680718E-2
1.845718698E0,8.977632523E-1,9.624180794E0,1.417558789E-1
1.848137344E0,8.881869316E-1,9.590663910E0,2.327316403E-1
1.850555990E0,9.073396921E-1,9.614604950E0,3.165250421E-1
1.852975365E0,9.480392933E-1,9.664880753E0,3.189191818E-1
1.855394792E0,9.528275728E-1,9.681638718E0,3.284955621E-1
1.857813438E0,9.935271740E-1,9.676851273E0,3.069486618E-1
1.860232083E0,9.743744135E-1,9.662487030E0,3.021605015E-1
1.862651510E0,1.031832814E0,9.684034348E0,2.997663617E-1
1.865070938E0,1.046197414E0,9.684034348E0,2.949782014E-1
1.867489531E0,1.082108855E0,9.657697678E0,3.165250421E-1
1.869908177E0,1.077320695E0,9.643334389E0,3.069486618E-1
1.872327604E0,1.122808576E0,9.638545990E0,3.524365425E-1
1.874747031E0,1.122808576E0,9.600239754E0,3.763775826E-1
1.877165677E0,1.106049776E0,9.595452309E0,3.835598230E-1
1.879584323E0,1.151537657E0,9.561933517E0,4.146831036E-1
1.882003698E0,1.132384896E0,9.521234512E0,4.170771837E-1
1.884423125E0,1.170690536E0,9.521234512E0,4.218654037E-1
1.886841771E0,1.199419618E0,9.482929230E0,4.673532844E-1
1.889260417E0,1.151537657E0,9.435047150E0,4.841119647E-1
1.891679844E0,1.189843297E0,9.384771347E0,4.865060449E-1
1.894099271E0,1.208996058E0,9.377589226E0,5.128411651E-1
1.896517865E0,1.240119457E0,9.377589226E0,5.295998454E-1
1.898936510E0,1.271242619E0,9.365617752E0,5.679054260E-1
1.901355938E0,1.316730499E0,9.391952515E0,5.631172657E-1
1.903775365E0,1.345459700E0,9.420682907E0,5.750877261E-1
1.906194010E0,1.338277459E0,9.413499832E0,6.062110066E-1
1.908612656E0,1.441223621E0,9.521234512E0,6.756398678E-1
1.911032083E0,1.522623062E0,9.542781830E0,3.787716031E-1
1.913451510E0,1.532199383E0,9.571511269E0,1.848496199E-1
1.915870104E0,1.539381623E0,9.571511269E0,2.159729004E-1
1.918288750E0,1.548958182E0,9.588270187E0,2.470961809E-1
1.920708177E0,1.577687263E0,9.643334389E0,2.470961809E-1
1.923127604E0,1.589657784E0,9.698397636E0,2.255492806E-1
1.925546198E0,1.560928702E0,9.753461838E0,2.135788202E-1
1.927964844E0,1.604022384E0,9.782192230E0,1.896378398E-1
1.930384271E0,1.580081463E0,9.820496559E0,1.321794689E-1
1.932803698E0,1.568110943E0,9.856409073E0,8.908566833E-2
1.935222344E0,1.560928702E0,9.889925957E0,1.130266786E-1
1.937640990E0,1.611204624E0,9.925836563E0,-4.284173250E-3
1.940060417E0,1.613598824E0,9.930625916E0,-5.695432425E-2
1.942479844E0,1.582475543E0,9.913866997E0,-9.525993466E-2
1.944898438E0,1.544169903E0,9.909078598E0,-1.263832152E-1
1.947317083E0,1.527411103E0,9.894714355E0,-1.311714053E-1
1.949736510E0,1.515440822E0,9.873167038E0,-1.335655153E-1
1.952155938E0,1.474740982E0,9.882743835E0,-1.311714053E-1
1.954574583E0,1.460376382E0,9.863591194E0,-1.599005908E-1
1.956993229E0,1.414888501E0,9.863591194E0,-1.335655153E-1
1.959412656E0,1.378977060E0,9.906684875E0,-1.359595954E-1
1.961832083E0,1.381371140E0,9.976114273E0,-7.850122452E-2
1.964250677E0,1.345459700E0,9.880350113E0,-8.089533448E-2
1.966669323E0,1.299971819E0,9.839650154E0,-1.263832152E-1
1.969088750E0,1.290395379E0,9.846832275E0,-7.610712945E-2
1.971508177E0,1.189843297E0,9.813315392E0,-6.892482936E-2
1.973926823E0,1.022256374E0,9.734310150E0,2.470961809E-1
1.976345469E0,1.115626335E0,9.810920715E0,1.537263393E-1
1.978764844E0,1.223360658E0,9.885137558E0,-3.921281695E-1
1.981184271E0,1.151537657E0,9.885137558E0,-4.400101304E-1
1.983602917E0,1.034226894E0,9.803737640E0,-2.006002665E-1
1.986021563E0,9.121277332E-1,9.782192230E0,5.040168762E-4
1.988440990E0,8.307285309E-1,9.748674393E0,9.626799822E-2
1.990860417E0,7.397526503E-1,9.784585953E0,1.202089489E-1
1.993279010E0,7.421468496E-1,9.825284958E0,8.669158816E-2
1.995697656E0,6.918708086E-1,1.000963116E1,1.178148687E-1
1.998117083E0,6.942647696E-1,9.868378639E0,7.711517811E-2
2.000536510E0,7.014471292E-1,9.808526993E0,-1.890063286E-3
2.002955156E0,6.487768888E-1,9.818102837E0,7.472109795E-2
2.005373802E0,4.764018357E-1,9.693610191E0,3.859539032E-1
2.007793177E0,5.961067677E-1,9.806133270E0,6.349402070E-1
2.010212604E0,8.259402514E-1,1.008145428E1,-3.586107790E-1
2.012631250E0,8.259402514E-1,1.014609528E1,-5.573209524E-1
2.015049896E0,6.894766092E-1,1.010539532E1,-2.843937278E-1
2.017469323E0,5.913186073E-1,1.002878380E1,-6.413662434E-2
2.019888750E0,5.386483669E-1,1.000005531E1,6.753879786E-2
2.022307344E0,4.117611945E-1,9.959355354E0,9.387385845E-2
2.024725990E0,5.171015263E-1,1.000244904E1,5.040168762E-4
2.027145417E0,6.008950472E-1,1.007187843E1,-7.131892443E-2
2.029564844E0,6.320182085E-1,1.010778904E1,-1.479301006E-1
2.031983490E0,6.583533287E-1,1.009581852E1,-1.982061714E-1
2.034402135E0,6.583533287E-1,1.013651752E1,-2.580586374E-1
2.036821563E0,6.535651684E-1,1.015088272E1,-3.059406281E-1
2.039240990E0,6.775060892E-1,1.018679428E1,-3.011524081E-1
2.041659583E0,6.655356884E-1,1.022031212E1,-3.131228983E-1
2.044078229E0,6.727179289E-1,1.027058792E1,-3.394579887E-1
2.046497656E0,6.990530491E-1,1.031607628E1,-3.298816085E-1
2.048917083E0,6.415946484E-1,1.033283424E1,-2.891819179E-1
2.051335677E0,4.021847546E-1,1.013173008E1,5.248116851E-1
2.053754323E0,6.511710882E-1,1.044056892E1,-1.072304100E-1
2.056173750E0,8.283344507E-1,1.075898361E1,-6.482967138E-1
2.058593177E0,8.307285309E-1,1.090262985E1,-6.602672338E-1
2.061011823E0,7.277822495E-1,1.095290565E1,-3.753694892E-1
2.063430469E0,6.320182085E-1,1.103191090E1,-1.575064957E-1
2.065849896E0,5.625894070E-1,1.111570454E1,-1.144127101E-1
2.068269323E0,5.362542868E-1,1.123301506E1,1.486861706E-2
2.070687917E0,5.338602066E-1,1.132159710E1,4.359781742E-2
2.073106563E0,5.099191666E-1,1.136469078E1,2.683910728E-2
2.075525990E0,3.614851534E-1,1.124977398E1,6.349402070E-1
2.077945417E0,6.080772877E-1,1.149157810E1,4.599189758E-2
2.080364063E0,7.828465700E-1,1.167352962E1,-3.250933886E-1
2.082782708E0,7.828465700E-1,1.172620010E1,-4.687393308E-1
2.085202135E0,6.631416082E-1,1.169028759E1,-3.801576793E-1
2.087621563E0,1.295183659E0,1.088108253E1,-5.190154314E-1
2.090040156E0,1.311942339E0,1.067518997E1,1.360352039E0
2.092458802E0,1.531985104E-1,1.160170650E1,-5.381681919E-1
2.094878229E0,4.261257350E-1,1.180041695E1,-9.236180782E-1
2.097297656E0,6.799002886E-1,1.167831802E1,-8.182777762E-1
2.099716250E0,8.211520910E-1,1.136947918E1,-6.147793531E-1
2.102134896E0,8.355166912E-1,1.123540974E1,-4.471924305E-1
2.104554323E0,7.421468496E-1,1.116837502E1,-3.155170083E-1
2.106973750E0,7.301763296E-1,1.114922237E1,-1.742651761E-1
2.109392396E0,8.259402514E-1,1.112049294E1,7.686346769E-3
2.111811042E0,9.767684937E-1,1.106064034E1,2.016083598E-1
2.114230469E0,1.010285854E0,1.101994133E1,3.404660821E-1
2.116649896E0,9.815566540E-1,1.097205925E1,4.003185034E-1
2.119068490E0,8.762164116E-1,1.090502357E1,4.410181642E-1
2.121487135E0,8.546694517E-1,1.090502357E1,4.194713235E-1
2.123906563E0,8.690340519E-1,1.098642254E1,2.111847401E-1
2.126325990E0,8.043934107E-1,1.101994133E1,1.728791595E-1
2.128744635E0,6.990530491E-1,1.100796986E1,2.063965201E-1
2.131163281E0,5.649834871E-1,1.093854141E1,2.518843412E-1
2.133582656E0,4.883722961E-1,1.092178249E1,2.614607811E-1
2.136002083E0,3.997906744E-1,1.083798885E1,3.237073421E-1
2.138420729E0,3.375441134E-1,1.076616573E1,3.308897018E-1
2.140839375E0,2.633270323E-1,1.069194889E1,4.338359237E-1
2.143258802E0,1.962922812E-1,1.061054993E1,3.237073421E-1
2.145678229E0,5.504047871E-2,1.039747524E1,4.841119647E-1
2.148096823E0,-1.676107347E-1,1.017482376E1,6.636693478E-1
2.150515469E0,2.370283008E-3,1.020834064E1,3.069486618E-1
2.152934896E0,1.307154179E0,9.336889267E0,1.041936874E0
2.155354323E0,-2.777392566E-1,1.011018276E1,3.452542424E-1
2.157772969E0,-7.014947534E-1,1.040944481E1,-6.413662434E-2
2.160191615E0,-5.674252510E-1,1.030889320E1,1.968201399E-1
2.162611042E0,-4.716612697E-1,1.004075432E1,3.739834428E-1
2.165030469E0,-3.471681178E-1,9.935414314E0,3.237073421E-1
2.167449063E0,-4.261733890E-1,9.889925957E0,3.093427420E-1
2.169867708E0,-5.458783507E-1,9.806133270E0,2.925840616E-1
2.172287135E0,-5.985485315E-1,9.739097595E0,2.614607811E-1
2.174706563E0,-6.296718121E-1,9.650515556E0,3.189191818E-1
2.177125208E0,-5.746074915E-1,9.523629189E0,3.548306227E-1
2.179543854E0,-5.458783507E-1,9.427865028E0,3.955302835E-1
2.181963229E0,-5.410901308E-1,9.336889267E0,4.649592042E-1
2.184382656E0,-5.722134113E-1,9.267459869E0,5.535408854E-1
2.186801302E0,-5.339078307E-1,9.183667183E0,6.181814671E-1
2.189219948E0,-4.309616089E-1,9.140572548E0,6.876103282E-1
2.191639375E0,-3.998383284E-1,9.095085144E0,8.121034503E-1
2.194058802E0,-4.094147086E-1,9.028050423E0,9.102614522E-1
2.196477396E0,-3.615327477E-1,9.016079903E0,1.051513433E0
2.198896042E0,-2.370395958E-1,9.016079903E0,1.164036036E0
2.201315469E0,-1.580343246E-1,9.023262024E0,1.231070757E0
2.203734896E0,-5.029988289E-2,9.037627220E0,1.348381519E0
2.206153542E0,1.101047099E-1,9.008897781E0,1.398657799E0
2.208572188E0,2.250214815E-1,9.102268219E0,1.547091961E0
2.210991563E0,1.579867005E-1,9.092691422E0,1.290923357E0
2.213410990E0,2.034745812E-1,9.054386139E0,1.381898880E0
2.215829635E0,2.489624619E-1,9.042414665E0,1.396263599E0
2.218248281E0,3.734555542E-1,9.056779861E0,1.365140438E0
2.220667708E0,4.787959158E-1,9.054386139E0,1.334017038E0
2.223087135E0,5.745599270E-1,9.037627220E0,1.286134958E0
2.225505729E0,6.535651684E-1,9.020868301E0,1.336410999E0
2.227924375E0,7.205998898E-1,9.008897781E0,1.386687279E0
2.230343802E0,7.589055300E-1,8.999320984E0,1.458510160E0
2.232763229E0,8.019993305E-1,9.013686180E0,1.503998041E0
2.235181875E0,8.498812914E-1,9.056779861E0,1.602156162E0
2.237600521E0,8.857927322E-1,9.051990509E0,1.678767204E0
2.240019948E0,9.217042923E-1,9.092691422E0,1.769742966E0
2.242439375E0,1.027044535E0,9.114237785E0,1.848748207E0
2.244857969E0,1.103655815E0,9.154937744E0,1.908600807E0
2.247276615E0,8.762164116E-1,9.284218788E0,1.851142406E0
2.249696042E0,8.786103725E-1,9.289007187E0,2.052246809E0
2.252115469E0,8.857927322E-1,9.401530266E0,2.150404692E0
2.254534115E0,8.474872112E-1,9.473353386E0,2.150404692E0
2.256952760E0,8.307285309E-1,9.605028152E0,2.200680733E0
2.259372135E0,8.091815710E-1,9.712762833E0,2.152798891E0
2.261791563E0,7.972110510E-1,9.782192230E0,2.138434410E0
2.264210208E0,7.972110510E-1,9.844437599E0,2.157587051E0
2.266628854E0,7.636936903E-1,9.887532234E0,2.116887331E0
2.269048281E0,6.990530491E-1,9.916260719E0,2.181528091E0
2.271467708E0,6.535651684E-1,9.992872238E0,2.148010492E0
2.273886302E0,5.889245272E-1,1.005272484E1,2.124069452E0
2.276304948E0,5.482248068E-1,1.012215424E1,2.210257292E0
2.278724375E0,4.835841358E-1,1.018439960E1,2.282080412E0
2.281143802E0,4.428844154E-1,1.022509956E1,2.346720695E0
2.283562448E0,4.165493548E-1,1.025861740E1,2.420937777E0
2.285981094E0,4.404903948E-1,1.028016376E1,2.442484856E0
2.288400521E0,3.590910137E-1,1.027537632E1,2.425725937E0
2.290819948E0,1.508044004E-1,1.027777004E1,2.595706940E0
2.293238542E0,1.124988198E-1,1.023707008E1,2.722594261E0
2.295657188E0,6.940507889E-2,1.021312904E1,2.799205542E0
2.298076615E0,6.940507889E-2,1.021073532E1,2.799205542E0
2.300496042E0,5.264633894E-2,1.021073532E1,2.820752382E0
2.302914635E0,3.588768840E-2,1.019397736E1,2.815964222E0
2.305333281E0,-4.812017083E-3,1.017961216E1,2.827934742E0
2.307752708E0,-4.551167786E-2,1.017003632E1,2.815964222E0
2.310172135E0,-9.099955857E-2,1.014609528E1,2.787235022E0
2.312590781E0,-1.293051541E-1,1.012694168E1,2.792023420E0
2.315009427E0,-1.580343246E-1,1.013412380E1,2.818358183E0
2.317428854E0,-1.556402296E-1,1.011736488E1,2.801599503E0
2.319848281E0,-1.700048149E-1,1.010539532E1,2.787235022E0
2.322266875E0,-1.795812249E-1,1.013412380E1,2.710623741E0
2.324685521E0,-1.963399053E-1,1.013651752E1,2.655559540E0
2.327104948E0,-1.987340152E-1,1.013651752E1,2.588524818E0
2.329524375E0,-2.107045054E-1,1.011497116E1,2.547825098E0
2.331943021E0,-2.370395958E-1,1.011736488E1,2.487972736E0
2.334361667E0,-2.442218810E-1,1.011736488E1,2.430514336E0
2.336781042E0,-2.298572958E-1,1.008384800E1,2.399390936E0
2.339200469E0,-2.561923862E-1,1.005751324E1,2.358691216E0
2.341619115E0,-2.178868055E-1,1.003357220E1,2.322779894E0
2.344037760E0,-2.035222054E-1,1.001920700E1,2.279685974E0
2.346457188E0,-2.178868055E-1,9.995265961E0,2.236592293E0
2.348876615E0,-1.771871150E-1,9.956960678E0,2.186316252E0
2.351295208E0,-1.915517151E-1,9.935414314E0,2.100128889E0
2.353713854E0,-1.460638344E-1,9.897108078E0,2.069005251E0
2.356133281E0,-1.125464588E-1,9.849225998E0,2.023517609E0
2.358552708E0,-1.125464588E-1,9.837256432E0,1.992394209E0
2.360971354E0,-1.460638344E-1,9.765433311E0,1.978029490E0
2.363390000E0,-1.676107347E-1,9.724733353E0,1.910994768E0
2.365809427E0,-1.101523563E-1,9.676851273E0,1.836777687E0
2.368228854E0,-5.269397795E-2,9.638545990E0,1.796077967E0
2.370647448E0,3.828176856E-2,9.633756638E0,1.812836885E0
2.373066094E0,2.082627714E-1,9.643334389E0,1.812836885E0
2.375485521E0,4.785814881E-2,9.523629189E0,1.896630287E0
2.377904948E0,-3.832939267E-2,9.468564987E0,1.796077967E0
2.380323594E0,-1.077582538E-1,9.425471306E0,1.817625046E0
2.382742240E0,-7.663495839E-2,9.387165070E0,1.843960047E0
2.385161615E0,9.552583098E-3,9.425471306E0,1.867901087E0
2.387581042E0,1.148929298E-1,9.427865028E0,1.889448166E0
2.389999688E0,8.137553930E-2,9.415893555E0,1.872689247E0
2.392418333E0,2.870538831E-2,9.379982948E0,1.846354246E0
2.394837760E0,-4.790578783E-2,9.384771347E0,1.851142406E0
2.397257188E0,-6.705857813E-2,9.372800827E0,1.863112688E0
2.399675781E0,1.673488319E-2,9.430258751E0,1.887053728E0
2.402094427E0,1.460162103E-1,9.473353386E0,1.920571327E0
2.404513854E0,2.250214815E-1,9.468564987E0,1.872689247E0
2.406933281E0,3.854260743E-1,9.439834595E0,1.810442686E0
2.409351927E0,2.322037518E-1,9.408712387E0,1.966058969E0
2.411770573E0,1.915040910E-1,9.408712387E0,1.887053728E0
2.414189948E0,-7.206112146E-3,9.332100868E0,1.805654526E0
2.416609375E0,-2.370395958E-1,9.243518829E0,1.824807405E0
2.419028021E0,-2.442218810E-1,9.269853592E0,1.860718727E0
2.421446667E0,-6.705857813E-2,9.296190262E0,1.843960047E0
2.423866094E0,8.376961946E-2,9.317735672E0,1.827201605E0
2.426285521E0,1.843217909E-1,9.286612511E0,1.841566086E0
2.428704115E0,2.345978916E-1,9.269853592E0,1.774531364E0
2.431122760E0,2.657211721E-1,9.207608223E0,1.685949564E0
2.433542188E0,3.255736530E-1,9.229154587E0,1.688343763E0
2.435961615E0,2.441742420E-1,8.690483093E0,1.640461683E0
2.438380260E0,-2.381205559E-5,9.013686180E0,1.616520643E0
2.440798906E0,3.973965943E-1,9.509263992E0,1.393869400E0
2.443218333E0,7.589055300E-1,9.743885994E0,1.408234119E0
2.445637760E0,8.474872112E-1,9.686428070E0,1.492027521E0
2.448056354E0,8.067874908E-1,9.600239754E0,1.496815681E0
2.450475000E0,8.163639307E-1,9.518840790E0,1.508786201E0
2.452894427E0,7.708760500E-1,9.425471306E0,1.535121441E0
2.455313854E0,6.846884489E-1,9.346466064E0,1.556668282E0
2.457732500E0,6.032890081E-1,9.286612511E0,1.616520643E0
2.460151146E0,4.811900556E-1,9.243518829E0,1.673979044E0
2.462570521E0,3.710615337E-1,9.229154587E0,1.717072964E0
2.464989948E0,2.058686912E-1,9.207608223E0,1.793684006E0
2.467408594E0,6.940507889E-2,9.186060905E0,1.858324766E0
2.469827240E0,1.053165495E-1,9.205213547E0,1.899024248E0
2.472246667E0,1.938982010E-1,9.248308182E0,1.887053728E0
2.474666094E0,5.003428459E-1,9.217184067E0,1.604550123E0
2.477084688E0,1.292575300E-1,8.264332771E0,2.566977978E0
2.479503333E0,-5.410901308E-1,8.412767410E0,2.107311010E0
2.481922760E0,-2.154926956E-1,9.171695709E0,1.515968561E0
2.484342188E0,3.806378543E-1,9.681638718E0,1.604550123E0
2.486760833E0,7.445409298E-1,9.791768074E0,1.820019007E0
2.489179479E0,8.690340519E-1,9.741492271E0,1.930147648E0
2.491598906E0,9.001573324E-1,9.597846031E0,1.975635529E0
2.494018333E0,8.331224918E-1,9.456593513E0,1.973241568E0
2.496436927E0,8.163639307E-1,9.322525024E0,2.011547089E0
2.498855573E0,7.541173697E-1,9.212395668E0,2.033093691E0
2.501275000E0,7.205998898E-1,9.130996704E0,2.128857851E0
2.503694427E0,6.607474089E-1,9.042414665E0,2.155193090E0
2.506113073E0,4.811900556E-1,8.779064178E0,2.231804132E0
2.508531719E0,6.200478077E-1,8.951438904E0,2.227015734E0
2.510951094E0,6.368064880E-1,8.908346176E0,2.346720695E0
2.513370521E0,6.870825291E-1,8.364885330E0,2.499943256E0
2.515789167E0,5.721658468E-1,9.018473625E0,2.291656494E0
2.518207813E0,8.331224918E-1,9.334494591E0,2.270109892E0
2.520627240E0,8.618518114E-1,9.356041908E0,2.418543816E0
2.523046667E0,7.780582905E-1,9.250701904E0,2.521490097E0
2.525465260E0,7.086294889E-1,9.159726143E0,2.595706940E0
2.527883906E0,1.364398301E-1,9.011291504E0,2.787235022E0
2.530303333E0,-1.915517151E-1,8.910739899E0,2.914122343E0
2.532722760E0,-3.832939267E-2,8.972986221E0,2.875816822E0
2.535141406E0,3.088149130E-1,9.001714706E0,2.856663704E0
2.537560052E0,6.918708086E-1,9.023262024E0,2.847087622E0
2.539979427E0,1.012680054E0,9.016079903E0,2.835117102E0
2.542398854E0,1.249695778E0,9.006504059E0,2.772870541E0
2.544817500E0,1.407706261E0,8.934680939E0,2.722594261E0
2.547236146E0,1.558534503E0,8.877222061E0,2.705835581E0
2.549655573E0,1.539381623E0,8.786246300E0,2.741747141E0
2.552075000E0,1.668663025E0,8.755123138E0,2.753717661E0
2.554493594E0,1.704574585E0,8.731182098E0,2.765687943E0
2.556912240E0,1.515440822E0,8.664147377E0,2.835117102E0
2.559331667E0,1.316730499E0,8.618659973E0,2.945245504E0
2.561751094E0,1.199419618E0,8.575566292E0,2.997915745E0
2.564169740E0,1.192237377E0,8.577960014E0,3.038615227E0
2.566588385E0,1.208996058E0,8.606688499E0,3.091285467E0
2.569007813E0,1.237725258E0,8.568384171E0,3.160714626E0
2.571427240E0,1.249695778E0,8.544442177E0,3.151138067E0
2.573845833E0,1.271242619E0,8.554018974E0,3.139167547E0
2.576264479E0,1.283213139E0,8.484589577E0,3.175079107E0
2.578683906E0,1.307154179E0,8.467831612E0,3.199020147E0
2.581103333E0,1.295183659E0,8.429526329E0,3.196625710E0
2.583521979E0,1.326306939E0,8.400796890E0,3.158320189E0
2.585940625E0,1.309548259E0,8.355308533E0,3.139167547E0
2.588360000E0,1.290395379E0,8.336155891E0,3.170290709E0
2.590779427E0,1.304759979E0,8.333762169E0,3.182261229E0
2.593198073E0,1.240119457E0,8.206874847E0,3.172684908E0
2.595616719E0,1.563322663E0,8.352914810E0,3.009886265E0
2.598036146E0,1.498682022E0,8.261939049E0,3.201414108E0
2.600455573E0,1.204207897E0,8.072805405E0,3.594046354E0
2.602874167E0,1.127596736E0,8.108716965E0,3.407306433E0
2.605292813E0,1.285607338E0,8.271515846E0,3.208596230E0
2.607712240E0,1.187449217E0,8.295455933E0,3.246901989E0
2.610131667E0,8.570635319E-1,8.276303291E0,3.426459312E0
2.612550313E0,7.062352896E-1,8.271515846E0,3.495888233E0
2.614968958E0,8.450930119E-1,8.331367493E0,3.436035872E0
2.617388385E0,1.089291215E0,8.381644249E0,3.392941952E0
2.619807813E0,1.208996058E0,8.331367493E0,3.342666149E0
2.622226406E0,1.371794820E0,8.266726494E0,3.323513031E0
2.624645052E0,1.613598824E0,8.216450691E0,3.263660908E0
2.627064479E0,1.872161508E0,8.168568611E0,3.201414108E0
2.629483906E0,2.078053951E0,8.111110687E0,3.112832546E0
2.631902500E0,2.212123394E0,8.082381248E0,3.067344666E0
2.634321146E0,2.370133877E0,8.027317047E0,3.009886265E0
2.636740573E0,2.420409918E0,8.024923325E0,2.978763103E0
2.639160000E0,2.166635513E0,7.972252846E0,3.002703905E0
2.641578646E0,1.812308908E0,7.924370766E0,3.120014906E0
2.643997292E0,1.639933944E0,7.931552887E0,3.187049627E0
2.646416719E0,1.666268945E0,8.010559082E0,3.256478310E0
2.648836146E0,1.687815785E0,8.051258087E0,3.285207510E0
2.651254740E0,1.714150906E0,8.096746445E0,3.299571991E0
2.653673385E0,1.738091946E0,8.123081207E0,3.287601471E0
2.656092813E0,1.757244706E0,8.115899086E0,3.289995909E0
2.658512240E0,1.762032866E0,8.115899086E0,3.306754589E0
2.660930885E0,1.757244706E0,8.137445450E0,3.349848270E0
2.663349531E0,1.754850626E0,8.115899086E0,3.426459312E0
2.665768906E0,1.790762067E0,8.130263329E0,3.436035872E0
2.668188333E0,1.812308908E0,8.156599045E0,3.462370872E0
2.670606979E0,1.797944427E0,8.166174889E0,3.536587954E0
2.673025625E0,1.807520747E0,8.166174889E0,3.589257956E0
2.675445052E0,1.821885467E0,8.218845367E0,3.594046354E0
2.677864479E0,1.831461787E0,8.271515846E0,3.613198996E0
2.680283073E0,1.857796788E0,8.309821129E0,3.649110556E0
2.682701719E0,1.838644147E0,8.372067451E0,3.656292915E0
2.685121146E0,1.862584949E0,8.451072693E0,3.625169516E0
2.687540573E0,1.867373347E0,8.513319016E0,3.598834515E0
2.689959219E0,1.831461787E0,8.573171616E0,3.574893475E0
2.692377865E0,1.814703107E0,8.594718933E0,3.579681873E0
2.694797292E0,1.814703107E0,8.606688499E0,3.596440315E0
2.697216719E0,1.814703107E0,8.613870621E0,3.608410835E0
2.699635313E0,1.831461787E0,8.649783134E0,3.577287436E0
2.702053958E0,1.802732587E0,8.637811661E0,3.517435074E0
2.704473385E0,1.812308908E0,8.656965256E0,3.627563715E0
2.706892813E0,1.855402827E0,8.735969543E0,3.653898716E0
2.709311406E0,1.848220468E0,8.788640976E0,3.622775555E0
2.711730052E0,1.848220468E0,8.836523056E0,3.601228476E0
2.714149479E0,1.862584949E0,8.848492622E0,3.586863995E0
2.716568906E0,1.872161508E0,8.872433662E0,3.603622913E0
2.718987552E0,1.886525989E0,8.889192581E0,3.567711353E0
2.721406198E0,1.888919950E0,8.910739899E0,3.553346634E0
2.723825625E0,1.900890470E0,8.941863060E0,3.553346634E0
2.726245052E0,1.929619670E0,8.972986221E0,3.546164274E0
2.728663646E0,1.948772550E0,8.980168343E0,3.512647152E0
2.731082292E0,1.984684110E0,9.001714706E0,3.486311913E0
2.733501719E0,1.979895711E0,9.018473625E0,3.491100073E0
2.735921146E0,1.967925191E0,9.013686180E0,3.479129553E0
2.738339792E0,1.965531230E0,9.035232544E0,3.452794552E0
2.740758438E0,1.989472270E0,9.044809341E0,3.469552994E0
2.743177813E0,1.977501750E0,9.068750381E0,3.481523514E0
2.745597240E0,1.941590190E0,9.078327179E0,3.467159033E0
2.748015885E0,1.929619670E0,9.090296745E0,3.498282194E0
2.750434531E0,1.915255189E0,9.133391380E0,3.495888233E0
2.752853958E0,1.920043588E0,9.140572548E0,3.522223234E0
2.755273385E0,1.905678868E0,9.142967224E0,3.560528755E0
2.757691979E0,1.917649388E0,9.174090385E0,3.574893475E0
2.760110625E0,1.898496509E0,9.193243027E0,3.584469795E0
2.762530052E0,1.869767308E0,9.190849304E0,3.639534235E0
2.764949479E0,1.881737828E0,9.214790344E0,3.644322395E0
2.767368125E0,1.862584949E0,9.245912552E0,3.641928196E0
2.769786771E0,1.855402827E0,9.262672424E0,3.663475037E0
2.772206198E0,1.850614429E0,9.281825066E0,3.699386597E0
2.774625625E0,1.829067588E0,9.269853592E0,3.682628155E0
2.777044219E0,1.850614429E0,9.279431343E0,3.675445557E0
2.779462865E0,1.848220468E0,9.312948227E0,3.673051596E0
2.781882292E0,1.831461787E0,9.310553551E0,3.685021877E0
2.784301719E0,1.821885467E0,9.305766106E0,3.685021877E0
2.786720365E0,1.817097068E0,9.300977707E0,3.639534235E0
2.789139010E0,1.838644147E0,9.310553551E0,3.656292915E0
2.791558385E0,1.841038108E0,9.300977707E0,3.641928196E0
2.793977813E0,1.821885467E0,9.286612511E0,3.651504517E0
2.796396458E0,1.809914947E0,9.260277748E0,3.668263197E0
2.798815104E0,1.795550227E0,9.231549263E0,3.641928196E0
2.801234531E0,1.800338626E0,9.243518829E0,3.663475037E0
2.803653958E0,1.778791547E0,9.243518829E0,3.658687115E0
2.806072552E0,1.774003386E0,9.210001945E0,3.670657635E0
2.808491198E0,1.754850626E0,9.193243027E0,3.665869236E0
2.810910625E0,1.714150906E0,9.159726143E0,3.680233717E0
2.813330052E0,1.718939185E0,9.157332420E0,3.682628155E0
2.815748698E0,1.702180386E0,9.157332420E0,3.694598675E0
2.818167344E0,1.683027625E0,9.152544022E0,3.730510235E0
2.820586719E0,1.671057105E0,9.145360947E0,3.730510235E0
2.823006146E0,1.694998145E0,9.152544022E0,3.732903957E0
2.825424792E0,1.687815785E0,9.176485062E0,3.735298157E0
2.827843438E0,1.690209866E0,9.188454628E0,3.728116035E0
2.830262865E0,1.671057105E0,9.181272507E0,3.756844997E0
2.832682292E0,1.675845265E0,9.181272507E0,3.723327637E0
2.835100885E0,1.697392225E0,9.195636749E0,3.749662876E0
2.837519531E0,1.699786305E0,9.221971512E0,3.761633396E0
2.839938958E0,1.704574585E0,9.221971512E0,3.764027119E0
2.842358385E0,1.699786305E0,9.221971512E0,3.732903957E0
2.844777031E0,1.704574585E0,9.226760864E0,3.771209717E0
2.847195677E0,1.754850626E0,9.226760864E0,3.771209717E0
2.849615052E0,1.733303666E0,9.181272507E0,3.816697598E0
2.852034479E0,1.735697746E0,9.142967224E0,3.835850239E0
2.854453125E0,1.738091946E0,9.083114624E0,3.845426559E0
2.856871771E0,1.759638786E0,9.056779861E0,3.833456516E0
2.859291198E0,1.785973907E0,8.992138863E0,3.859791279E0
2.861710625E0,1.778791547E0,8.944256783E0,3.843032360E0
2.864129219E0,1.783579707E0,8.884405136E0,3.859791279E0
2.866547865E0,1.841038108E0,8.826946259E0,3.840638638E0
2.868967292E0,1.867373347E0,8.747941017E0,3.819091320E0
2.871386719E0,1.881737828E0,8.678511620E0,3.835850239E0
2.873805365E0,1.853008628E0,8.625842094E0,3.881338120E0
2.876224010E0,1.862584949E0,8.592324257E0,3.895702362E0
2.878643438E0,1.838644147E0,8.570777893E0,3.972313881E0
2.881062865E0,1.800338626E0,8.561201096E0,4.024983883E0
2.883481458E0,1.781185746E0,8.597112656E0,3.989072323E0
2.885900104E0,1.774003386E0,8.659358978E0,3.993860722E0
2.888319531E0,1.752456546E0,8.728788376E0,3.960343361E0
2.890738958E0,1.771609306E0,8.858069420E0,3.945979118E0
2.893157552E0,1.728515506E0,8.958621979E0,3.893308640E0
2.895576198E0,1.678239465E0,9.078327179E0,3.862185478E0
2.897995625E0,1.608810544E0,9.214790344E0,3.847820759E0
2.900415052E0,1.702180386E0,9.430258751E0,3.160714626E0
2.902833698E0,1.175478697E0,9.250701904E0,4.290729046E0
2.905252344E0,1.065350175E0,9.341676712E0,4.192571163E0
2.907671771E0,1.158720016E0,9.540388107E0,4.058501720E0
2.910091198E0,1.137173176E0,9.703186035E0,4.013013363E0
2.912509792E0,1.062955976E0,9.873167038E0,4.008225441E0
2.914928438E0,9.576156139E-1,9.992872238E0,3.898097038E0
2.917347865E0,8.690340519E-1,1.016045856E1,3.840638638E0
2.919767292E0,7.948169708E-1,1.030410480E1,3.797544956E0
2.922185938E0,7.014471292E-1,1.045493317E1,3.823879719E0
2.924604583E0,6.368064880E-1,1.064646053E1,3.761633396E0
2.927023958E0,5.817421675E-1,1.083559513E1,3.685021877E0
2.929443385E0,5.410424471E-1,1.100557613E1,3.629957914E0
2.931862031E0,5.171015263E-1,1.114682770E1,3.498282194E0
2.934280677E0,4.931605160E-1,1.127850342E1,3.376183271E0
2.936700104E0,5.051310062E-1,1.141257286E1,3.261266470E0
2.939119531E0,4.548549354E-1,1.148439598E1,3.067344666E0
2.941538125E0,5.075250864E-1,1.155143070E1,2.894969463E0
2.943956771E0,5.147074461E-1,1.155861282E1,2.736958981E0
2.946376198E0,5.194956064E-1,1.157297707E1,2.586130857E0
2.948795625E0,5.673775673E-1,1.158016014E1,2.476002216E0
2.951214271E0,6.415946484E-1,1.161128330E1,2.313203573E0
2.953632917E0,7.277822495E-1,1.167113495E1,2.179134130E0
2.956052292E0,8.115757704E-1,1.175253487E1,2.083369970E0
2.958471719E0,8.786103725E-1,1.189618111E1,1.973241568E0
2.960890365E0,9.384628534E-1,1.206616211E1,1.896630287E0
2.963309010E0,1.000709534E0,1.226966000E1,1.853536606E0
2.965728438E0,1.098867536E0,1.243006516E1,2.258139372E0
2.968147865E0,8.187580109E-1,1.265271568E1,1.705102444E0
2.970566458E0,7.636936903E-1,1.290170193E1,1.513574600E0
2.972985104E0,6.822943687E-1,1.314111233E1,1.628491163E0
2.975404531E0,6.080772877E-1,1.332067013E1,1.673979044E0
2.977823958E0,6.104713678E-1,1.347628593E1,1.697920084E0
2.980242604E0,6.583533287E-1,1.364387321E1,1.657220364E0
2.982661250E0,7.972110510E-1,1.373724270E1,7.809802890E-1
2.985080677E0,3.638791740E-1,1.257849884E1,3.531799793E0
2.987500104E0,-5.793957114E-1,1.304534817E1,1.444145679E0
2.989918698E0,-1.460638344E-1,1.358880901E1,1.171218395E0
2.992337344E0,3.758496940E-1,1.385455418E1,1.429780960E0
2.994756771E0,6.296241283E-1,1.381145954E1,1.690737724E0
2.997176198E0,7.086294889E-1,1.348107433E1,1.930147648E0
2.999594844E0,6.751120090E-1,1.296873665E1,1.863112688E0
3.002013490E0,5.769540071E-1,1.232951260E1,1.831989527E0
3.004432865E0,3.710615337E-1,1.166155910E1,1.827201605E0
3.006852292E0,3.279676735E-1,1.093854141E1,1.736225605E0
3.009270938E0,3.686673939E-1,1.024904060E1,1.714678764E0
3.011689583E0,4.069729745E-1,9.593057632E0,1.891842127E0
3.014109010E0,4.045788944E-1,8.958621979E0,2.052246809E0
3.016528438E0,4.380962551E-1,8.312214851E0,2.188710213E0
3.018947031E0,3.950025141E-1,7.677778721E0,2.303627014E0
3.021365677E0,2.848739326E-1,7.117559433E0,2.552613258E0
3.023785104E0,1.555925906E-1,6.607616425E0,2.727382660E0
3.026204531E0,1.673488319E-2,6.157526016E0,2.890181303E0
3.028623177E0,-9.818186611E-2,5.774470329E0,3.081709146E0
3.031041823E0,-2.178868055E-1,5.460843563E0,3.182261229E0
3.033461198E0,-3.471681178E-1,5.240585804E0,3.263660908E0
3.035880625E0,-4.501143694E-1,5.096940517E0,3.306754589E0
3.038299271E0,-4.620848894E-1,5.025117397E0,3.301966190E0
3.040717917E0,-3.998383284E-1,5.051452637E0,3.251690388E0
3.043137344E0,-3.519563377E-1,5.152004242E0,3.208596230E0
3.045556771E0,-2.394336909E-1,5.326774120E0,3.084103346E0
3.047975365E0,-1.293051541E-1,5.551818848E0,2.957216024E0
3.050394010E0,9.552583098E-3,5.841505051E0,2.875816822E0
3.052813438E0,2.010804713E-1,6.179072857E0,2.724988461E0
3.055232865E0,3.854260743E-1,6.552552223E0,2.564583778E0
3.057651510E0,5.578012466E-1,6.945184231E0,2.432908297E0
3.060070156E0,7.253881693E-1,7.395275116E0,2.274897814E0
3.062489531E0,9.288865328E-1,7.852548122E0,2.150404692E0
3.064908958E0,1.122808576E0,8.376855850E0,2.013941050E0
3.067327604E0,1.266454458E0,8.893980980E0,1.891842127E0
3.069746250E0,1.455588341E0,9.451806068E0,1.815231085E0
3.072165677E0,1.618386865E0,9.964142799E0,1.760166645E0
3.074585104E0,1.764427066E0,1.048126793E1,1.633279324E0
3.077003698E0,1.941590190E0,1.095290565E1,1.532727242E0
3.079422344E0,2.063689232E0,1.136947918E1,1.501604080E0
3.081841771E0,2.204941273E0,1.176689911E1,1.362746239E0
3.084261198E0,2.339010715E0,1.207573795E1,1.278952837E0
3.086679844E0,2.444350958E0,1.232951260E1,1.173612356E0
3.089098490E0,2.544903278E0,1.248273468E1,1.159247875E0
3.091517865E0,2.607149601E0,1.259525776E1,1.056301594E0
3.093937292E0,2.614331961E0,1.261680412E1,1.010813713E0
3.096355938E0,2.576026440E0,1.255695152E1,9.533553720E-1
3.098774583E0,2.535326719E0,1.245879364E1,9.533553720E-1
3.101194010E0,2.408439398E0,1.228402519E1,9.940549731E-1
3.103613438E0,2.250428915E0,1.205897903E1,1.044331074E0
3.106032083E0,2.034960032E0,1.178605175E1,1.120942354E0
3.108450729E0,1.769215107E0,1.151312542E1,1.159247875E0
3.110870104E0,1.527411103E0,1.119470978E1,1.204735756E0
3.113289531E0,1.340671539E0,1.090023613E1,1.269376278E0
3.115708177E0,1.134778976E0,1.059618473E1,1.312470198E0
3.118126823E0,9.504333735E-1,1.028974056E1,1.345987558E0
3.120546250E0,7.852406502E-1,1.001920700E1,1.312470198E0
3.122965677E0,6.272300482E-1,9.789374352E0,1.276558638E0
3.125384271E0,5.027369261E-1,9.569116592E0,1.357958078E0
3.127802917E0,3.686673939E-1,9.348859787E0,1.429780960E0
3.130222344E0,2.537506521E-1,9.157332420E0,1.465692520E0
3.132641771E0,1.220752299E-1,9.020868301E0,1.429780960E0
3.135060417E0,-2.635890245E-2,8.860464096E0,1.357958078E0
3.137479063E0,-1.484579295E-1,8.728788376E0,1.255011797E0
3.139898438E0,-2.418277860E-1,8.618659973E0,1.219100237E0
3.142317865E0,-3.782914281E-1,8.537260056E0,1.152065516E0
3.144736510E0,-4.764494598E-1,8.465437889E0,1.044331074E0
3.147155156E0,-6.033366919E-1,8.410372734E0,9.868727326E-1
3.149574583E0,-6.919183731E-1,8.367279053E0,9.318085313E-1
3.151994010E0,-7.757117748E-1,8.381644249E0,8.480150104E-1
3.154412604E0,-8.427466154E-1,8.405585289E0,7.642214894E-1
3.156831250E0,-8.810521364E-1,8.441496849E0,6.995808482E-1
3.159250677E0,-9.145696163E-1,8.515713692E0,6.469106674E-1
3.161670104E0,-9.265400171E-1,8.621053696E0,5.774818063E-1
3.164088750E0,-8.906285763E-1,8.735969543E0,4.697473645E-1
3.166507396E0,-8.738698959E-1,8.841310501E0,3.907421231E-1
3.168926771E0,-8.523229361E-1,8.958621979E0,3.189191818E-1
3.171346198E0,-7.685295343E-1,9.085509300E0,2.518843412E-1
3.173764844E0,-7.158593535E-1,9.193243027E0,1.944260001E-1
3.176183490E0,-6.296718121E-1,9.312948227E0,1.537263393E-1
3.178602917E0,-5.530606508E-1,9.439834595E0,8.429747820E-2
3.181022344E0,-4.716612697E-1,9.535598755E0,2.898126841E-3
3.183440938E0,-3.878678083E-1,9.664880753E0,-4.258975387E-2
3.185859583E0,-3.375917375E-1,9.767827034E0,-7.131892443E-2
3.188279010E0,-2.274631858E-1,9.858802795E0,-8.328942955E-2
3.190698438E0,-1.795812249E-1,9.968931198E0,-1.527182907E-1
3.193117083E0,-8.381725848E-2,1.006708908E1,-1.431418955E-1
3.195535729E0,-2.417922020E-3,1.017243004E1,-1.766592711E-1
3.197955104E0,7.419326901E-2,1.024185848E1,-2.197530568E-1
3.200374531E0,1.196811199E-1,1.033522797E1,-2.460881472E-1
3.202793177E0,2.393860817E-1,1.036635208E1,-2.484822422E-1
3.205211823E0,3.016326129E-1,1.040705109E1,-1.838415712E-1
3.207631250E0,3.495146334E-1,1.041662788E1,-1.838415712E-1
3.210050677E0,3.997906744E-1,1.041902161E1,-1.862356663E-1
3.212469271E0,4.668254554E-1,1.038550377E1,-1.694769710E-1
3.214887917E0,5.458307266E-1,1.036156273E1,-2.101766616E-1
3.217307344E0,6.200478077E-1,1.032325840E1,-2.436940372E-1
3.219726771E0,7.277822495E-1,1.029452896E1,-2.724232376E-1
3.222145417E0,7.828465700E-1,1.024904060E1,-2.891819179E-1
3.224564063E0,8.235461712E-1,1.021552277E1,-3.083347082E-1
3.226983438E0,8.666398525E-1,1.016764069E1,-2.819996178E-1
3.229402865E0,9.432511330E-1,1.010778904E1,-2.125707567E-1
3.231821510E0,1.003103495E0,1.007427216E1,-1.694769710E-1
3.234240156E0,1.077320695E0,1.001920700E1,-1.790533811E-1
3.236659583E0,1.091685295E0,9.978507996E0,-8.807763457E-2
3.239079010E0,1.122808576E0,9.952173233E0,-3.780153394E-2
3.241497604E0,1.146749496E0,9.916260719E0,9.147977829E-2
3.243916250E0,1.175478697E0,9.906684875E0,1.872437596E-1
3.246335677E0,1.175478697E0,9.858802795E0,2.614607811E-1
3.248755104E0,1.177872777E0,9.851619720E0,3.356778622E-1
3.251173750E0,1.156325936E0,9.882743835E0,3.500424027E-1
3.253592396E0,1.156325936E0,9.858802795E0,3.883480430E-1
3.256011823E0,1.127596736E0,9.877956390E0,4.242594838E-1
3.258431250E0,1.094079256E0,9.873167038E0,4.434123039E-1
3.260849844E0,1.079714775E0,9.870773315E0,4.841119647E-1
3.263268490E0,1.065350175E0,9.851619720E0,4.601709843E-1
3.265687917E0,1.031832814E0,9.837256432E0,4.266536236E-1
3.268107344E0,1.012680054E0,9.815709114E0,4.098949432E-1
3.270525990E0,9.671921730E-1,9.810920715E0,3.452542424E-1
3.272944635E0,9.432511330E-1,9.775009155E0,3.213132620E-1
3.275364010E0,9.121277332E-1,9.753461838E0,2.782195210E-1
3.277783438E0,9.169160128E-1,9.727127075E0,2.566726208E-1
3.280202083E0,8.714281321E-1,9.707975388E0,2.351256609E-1
3.282620729E0,8.762164116E-1,9.688821793E0,1.537263393E-1
3.285040156E0,8.714281321E-1,9.648121834E0,1.226030588E-1
3.287459583E0,8.714281321E-1,9.616998672E0,1.465440691E-1
3.289878177E0,8.426990509E-1,9.569116592E0,1.633027494E-1
3.292296823E0,8.426990509E-1,9.518840790E0,1.704850197E-1
3.294716250E0,8.618518114E-1,9.449412346E0,1.656968296E-1
3.297135677E0,8.115757704E-1,9.420682907E0,3.691952229E-1
3.299554271E0,9.049454927E-1,9.408712387E0,7.711517811E-2
3.301972917E0,9.600098133E-1,9.439834595E0,-1.146647334E-2
3.304392344E0,8.810045719E-1,9.466171265E0,4.359781742E-2
3.306811771E0,9.145219326E-1,9.430258751E0,1.034502685E-1
3.309230417E0,1.024650574E0,9.403923988E0,1.010561883E-1
3.311649063E0,1.050985575E0,9.447017670E0,3.811657429E-1
3.314068490E0,1.187449217E0,9.530811310E0,1.680909395E-1
3.316487917E0,1.232936978E0,9.571511269E0,9.147977829E-2
3.318906510E0,1.192237377E0,9.609815598E0,1.058443785E-1
3.321325156E0,1.197025537E0,9.652910233E0,1.585145593E-1
3.323744583E0,1.201813817E0,9.645728111E0,1.752732396E-1
3.326164010E0,1.228148937E0,9.705579758E0,2.375198007E-1
3.328582656E0,1.218572497E0,9.765433311E0,2.686431408E-1
3.331001302E0,1.144355416E0,9.765433311E0,3.093427420E-1
3.333420677E0,9.504333735E-1,9.684034348E0,5.367821455E-1
3.335840104E0,9.791626930E-1,9.782192230E0,5.870582461E-1
3.338258750E0,1.113232136E0,9.815709114E0,1.561204493E-1
3.340677396E0,1.122808576E0,9.834861755E0,-1.625466347E-2
3.343096823E0,1.065350175E0,9.791768074E0,4.120370746E-2
3.345516250E0,1.022256374E0,9.753461838E0,1.106325686E-1
3.347934844E0,9.624038935E-1,9.688821793E0,1.824555099E-1
3.350353490E0,9.240982533E-1,9.652910233E0,2.207611203E-1
3.352772917E0,8.379107714E-1,9.624180794E0,2.470961809E-1
3.355192344E0,7.996052504E-1,9.590663910E0,3.045545816E-1
3.357610990E0,7.349644899E-1,9.516447067E0,3.213132620E-1
3.360029635E0,7.373585701E-1,9.514053345E0,2.901899815E-1
3.362449010E0,5.123133659E-1,9.363224030E0,7.618274093E-1
3.364868438E0,7.205998898E-1,9.480534554E0,3.021605015E-1
3.367287083E0,8.522753716E-1,9.540388107E0,-9.047172964E-2
3.369705729E0,8.905808926E-1,9.533205032E0,-1.359595954E-1
3.372125156E0,8.594576120E-1,9.490112305E0,1.965680718E-2
3.374544583E0,8.474872112E-1,9.447017670E0,1.441499591E-1
3.376963177E0,8.403048515E-1,9.415893555E0,2.207611203E-1
3.379381823E0,8.187580109E-1,9.389558792E0,2.399139404E-1
3.381801250E0,8.307285309E-1,9.379982948E0,2.566726208E-1
3.384220677E0,8.187580109E-1,9.356041908E0,2.614607811E-1
3.386639323E0,8.259402514E-1,9.344071388E0,2.494903207E-1
3.389057969E0,8.331224918E-1,9.312948227E0,2.375198007E-1
3.391477344E0,8.163639307E-1,9.315341949E0,2.327316403E-1
3.393896771E0,8.594576120E-1,9.272249222E0,1.992142200E-1
3.396315417E0,8.714281321E-1,9.253095627E0,2.063965201E-1
3.398734063E0,8.642458916E-1,9.245912552E0,2.111847401E-1
3.401153490E0,8.522753716E-1,9.253095627E0,2.135788202E-1
3.403572917E0,8.666398525E-1,9.236336708E0,1.848496199E-1
3.405991510E0,8.642458916E-1,9.236336708E0,1.968201399E-1
3.408410156E0,8.786103725E-1,9.205213547E0,1.585145593E-1
3.410829583E0,8.570635319E-1,9.186060905E0,1.417558789E-1
3.413249010E0,8.714281321E-1,9.205213547E0,1.058443785E-1
3.415667656E0,8.929750919E-1,9.193243027E0,1.010561883E-1
3.418086302E0,8.953691721E-1,9.226760864E0,1.965680718E-2
3.420505677E0,9.169160128E-1,9.265066147E0,-2.583107352E-2
3.422925104E0,9.432511330E-1,9.272249222E0,-1.072304100E-1
3.425343750E0,9.288865328E-1,9.315341949E0,-1.383536905E-1
3.427762396E0,9.336748123E-1,9.351253510E0,-1.670828760E-1
3.430181823E0,9.624038935E-1,9.387165070E0,-1.646887958E-1
3.432601250E0,9.528275728E-1,9.432653427E0,-1.982061714E-1
3.435019844E0,1.000709534E0,9.470958710E0,-2.221471667E-1
3.437438490E0,1.070138454E0,9.561933517E0,-2.532704473E-1
3.439857917E0,1.070138454E0,9.605028152E0,-2.676350474E-1
3.442277344E0,1.053379655E0,9.631362915E0,-2.484822422E-1
3.444695990E0,1.065350175E0,9.712762833E0,-2.628468275E-1
3.447114635E0,1.089291215E0,9.753461838E0,-2.867878079E-1
3.449534010E0,1.065350175E0,9.818102837E0,-2.628468275E-1
3.451953438E0,1.034226894E0,9.882743835E0,-2.604527473E-1
3.454372083E0,1.010285854E0,9.923442841E0,-2.796055377E-1
3.456790729E0,9.600098133E-1,9.942596436E0,-2.412999421E-1
3.459210156E0,9.959212542E-1,1.000723743E1,-2.987583280E-1
3.461629583E0,9.887390137E-1,1.007427216E1,-2.939701080E-1
3.464048177E0,1.010285854E0,1.009342384E1,-2.939701080E-1
3.466466823E0,9.624038935E-1,1.011497116E1,-3.107288182E-1
3.468886250E0,9.552216530E-1,1.012933636E1,-3.059406281E-1
3.471305677E0,9.097337723E-1,1.014130592E1,-3.514284790E-1
3.473724323E0,9.145219326E-1,1.011497116E1,-3.753694892E-1
3.476142969E0,8.738223314E-1,1.011975861E1,-3.945222497E-1
3.478562396E0,8.570635319E-1,1.015567112E1,-4.017045498E-1
3.480981823E0,8.426990509E-1,1.014369965E1,-3.969163597E-1
3.483400417E0,8.426990509E-1,1.014848900E1,-3.873399794E-1
3.485819063E0,7.660877705E-1,1.012215424E1,-3.753694892E-1
3.488238490E0,5.123133659E-1,1.001202488E1,-2.149648666E-1
3.490657917E0,7.612996101E-1,1.017003632E1,-3.107288182E-1
3.493076510E0,1.103655815E0,1.032565212E1,-6.722377539E-1
3.495495156E0,1.108443856E0,1.034959316E1,-5.764737725E-1
3.497914583E0,9.121277332E-1,1.028016376E1,-3.346697986E-1
3.500334010E0,7.636936903E-1,1.021552277E1,-2.125707567E-1
3.502752656E0,6.559592485E-1,1.021073532E1,-2.556645274E-1
3.505171302E0,6.439887285E-1,1.019637108E1,-2.939701080E-1
3.507590677E0,6.200478077E-1,1.019397736E1,-3.610048890E-1
3.510010104E0,6.487768888E-1,1.015806484E1,-3.562166989E-1
3.512428750E0,6.535651684E-1,1.015567112E1,-3.801576793E-1
3.514847396E0,6.535651684E-1,1.011975861E1,-3.179111183E-1
3.517266823E0,7.062352896E-1,1.006948280E1,-3.274874985E-1
3.519686250E0,7.134176493E-1,1.003835964E1,-3.107288182E-1
3.522104844E0,7.325704098E-1,1.002160072E1,-2.939701080E-1
3.524523490E0,7.732700109E-1,9.966536522E0,-2.317235470E-1
3.526942917E0,8.211520910E-1,9.940201759E0,-2.197530568E-1
3.529362344E0,8.211520910E-1,9.904291153E0,-2.604527473E-1
3.531780990E0,8.546694517E-1,9.865984917E0,-2.412999421E-1
3.534199635E0,8.690340519E-1,9.861196518E0,-2.508763373E-1
3.536619010E0,8.977632523E-1,9.851619720E0,-2.556645274E-1
3.539038438E0,9.288865328E-1,9.842043877E0,-2.580586374E-1
3.541457083E0,9.528275728E-1,9.820496559E0,-2.532704473E-1
3.543875729E0,9.863449335E-1,9.784585953E0,-2.173589617E-1
3.546295156E0,9.767684937E-1,9.794161797E0,-2.245412618E-1
3.548714583E0,1.003103495E0,9.782192230E0,-2.197530568E-1
3.551133177E0,9.887390137E-1,9.753461838E0,-2.197530568E-1
3.553551823E0,1.027044535E0,9.722338676E0,-2.125707567E-1
3.555971250E0,1.036620975E0,9.703186035E0,-1.910238862E-1
3.558390677E0,1.024650574E0,9.674456596E0,-2.125707567E-1
3.560809323E0,1.070138454E0,9.631362915E0,-1.982061714E-1
3.563227969E0,1.129990816E0,9.633756638E0,-1.455359906E-1
3.565647396E0,1.182661057E0,9.624180794E0,-1.239891052E-1
3.568066823E0,1.242513418E0,9.643334389E0,-1.263832152E-1
3.570485417E0,1.182661057E0,9.688821793E0,-1.168068051E-1
3.572904063E0,1.070138454E0,9.672062874E0,-6.653074920E-2
3.575323490E0,1.010285854E0,9.628969193E0,-5.216613412E-2
3.577742917E0,1.077320695E0,9.619393349E0,-3.780153394E-2
3.580161510E0,1.175478697E0,9.621787071E0,-2.104285359E-2
3.582580156E0,1.232936978E0,9.609815598E0,-3.301334381E-2
3.584999583E0,1.319124699E0,9.616998672E0,-6.174254417E-2
3.587419010E0,1.367006660E0,9.667275429E0,-7.850122452E-2
3.589837656E0,1.412494540E0,9.655303955E0,-1.864874363E-2
3.592256302E0,1.443617821E0,9.676851273E0,2.444502711E-2
3.594675677E0,1.467558742E0,9.672062874E0,6.753879786E-2
3.597095104E0,1.489105701E0,9.696003914E0,8.190339804E-2
3.599513750E0,1.544169903E0,9.679244995E0,7.472109795E-2
3.601932396E0,1.553746343E0,9.693610191E0,8.908566833E-2
3.604351823E0,1.604022384E0,9.688821793E0,1.034502685E-1
3.606771250E0,1.651904464E0,9.703186035E0,9.626799822E-2
3.609189844E0,1.654298425E0,9.688821793E0,1.082384586E-1
3.611608490E0,1.663874865E0,9.672062874E0,9.387385845E-2
3.614027917E0,1.666268945E0,9.672062874E0,8.908566833E-2
3.616447344E0,1.668663025E0,9.643334389E0,1.178148687E-1
3.618865990E0,1.663874865E0,9.645728111E0,1.249971390E-1
3.621284635E0,1.644721985E0,9.674456596E0,1.633027494E-1
3.623704063E0,1.479529262E0,9.892319679E0,2.590667009E-1
3.626123490E0,1.436435461E0,9.612211227E0,1.992142200E-1
3.628542083E0,1.766821027E0,9.473353386E0,1.273912787E-1
3.630960729E0,2.123541594E0,9.585874557E0,6.993290782E-2
3.633380156E0,2.066083431E0,9.533205032E0,-9.047172964E-2
3.635799583E0,1.726121426E0,9.391952515E0,8.429747820E-2
3.638218177E0,1.498682022E0,9.277036667E0,2.327316403E-1
3.640636823E0,1.443617821E0,9.210001945E0,3.093427420E-1
3.643056250E0,1.503470302E0,9.159726143E0,3.356778622E-1
3.645475677E0,1.568110943E0,9.188454628E0,3.237073421E-1
3.647894323E0,1.594446063E0,9.164513588E0,3.021605015E-1
3.650312969E0,1.635145664E0,9.174090385E0,3.237073421E-1
3.652732396E0,1.635145664E0,9.119026184E0,3.380719423E-1
3.655151823E0,1.606416583E0,9.095085144E0,3.644070625E-1
3.657570417E0,1.611204624E0,9.040020943E0,4.194713235E-1
3.659989063E0,1.642327905E0,9.004109383E0,4.434123039E-1
3.662408490E0,1.702180386E0,8.987351418E0,4.649592042E-1
3.664827917E0,1.687815785E0,8.934680939E0,4.625650644E-1
3.667246510E0,1.692604065E0,8.905950546E0,4.362300038E-1
3.669665156E0,1.687815785E0,8.872433662E0,3.955302835E-1
3.672084583E0,1.694998145E0,8.862857819E0,3.691952229E-1
3.674504010E0,1.673451304E0,8.865251541E0,4.027126431E-1
3.676922656E0,1.702180386E0,8.862857819E0,4.027126431E-1
3.679341302E0,1.738091946E0,8.922710419E0,4.242594838E-1
3.681760729E0,1.762032866E0,8.951438904E0,4.194713235E-1
3.684180156E0,1.738091946E0,9.312948227E0,4.912942648E-1
3.686598750E0,1.776397586E0,9.207608223E0,4.865060449E-1
3.689017396E0,1.963137269E0,9.111844063E0,2.949782014E-1
3.691436823E0,2.066083431E0,9.202819824E0,4.386241436E-1
3.693856250E0,2.030171871E0,9.312948227E0,4.027126431E-1
3.696274844E0,1.967925191E0,9.413499832E0,3.284955621E-1
3.698693490E0,1.977501750E0,9.526022911E0,3.500424027E-1
3.701112917E0,1.955954671E0,9.660093307E0,4.003185034E-1
3.703532344E0,1.975107789E0,9.767827034E0,4.505946040E-1
3.705950990E0,1.960743070E0,9.954566956E0,4.482004642E-1
3.708369635E0,1.948772550E0,1.011497116E1,4.314417839E-1
3.710789010E0,1.896102548E0,1.022749424E1,3.715893030E-1
3.713208438E0,1.843432307E0,1.032804585E1,3.284955621E-1
3.715627083E0,1.802732587E0,1.042141628E1,2.901899815E-1
3.718045729E0,1.733303666E0,1.050760269E1,2.734313011E-1
3.720465156E0,1.644721985E0,1.056745625E1,2.470961809E-1
3.722884583E0,1.529805303E0,1.060576153E1,2.470961809E-1
3.725303177E0,1.424465060E0,1.062730789E1,2.542784810E-1
3.727721823E0,1.290395379E0,1.062251949E1,2.710371614E-1
3.730141250E0,1.175478697E0,1.057463837E1,2.997663617E-1
3.732560677E0,1.089291215E0,1.053633308E1,3.045545816E-1
3.734979323E0,1.007891774E0,1.048845100E1,3.284955621E-1
3.737397969E0,8.642458916E-1,1.039508057E1,3.691952229E-1
3.739817344E0,6.559592485E-1,1.029692268E1,4.386241436E-1
3.742236771E0,7.134176493E-1,1.028734589E1,6.014227867E-1
3.744655417E0,9.791626930E-1,1.032325840E1,2.758253813E-1
3.747074063E0,9.576156139E-1,1.021552277E1,2.830076814E-1
3.749493490E0,7.277822495E-1,1.006948280E1,4.529886842E-1
3.751912917E0,4.620372355E-1,9.885137558E0,5.583290458E-1
3.754331510E0,3.231795132E-1,9.789374352E0,6.086051464E-1
3.756750156E0,3.016326129E-1,9.700792313E0,5.415703654E-1
3.759169583E0,3.016326129E-1,9.640939713E0,4.960824847E-1
3.761589010E0,2.585388422E-1,9.545175552E0,4.697473645E-1
3.764007656E0,1.795336008E-1,9.482929230E0,5.176293850E-1
3.766426302E0,8.855783939E-2,9.391952515E0,5.750877261E-1
3.768845677E0,1.124988198E-1,9.300977707E0,5.391762257E-1
3.771265104E0,9.574013948E-2,9.372800827E0,5.128411651E-1
3.773683750E0,-2.635890245E-2,9.437440872E0,6.708517075E-1
3.776102396E0,1.531985104E-1,8.944256783E0,3.548306227E-1
3.778521823E0,2.585388422E-1,8.704847336E0,3.380719423E-1
3.780941250E0,2.872680128E-1,8.597112656E0,3.691952229E-1
3.783359844E0,2.872680128E-1,8.525289536E0,2.854018211E-1
3.785778490E0,2.369919717E-1,8.441496849E0,2.470961809E-1
3.788197917E0,2.800857723E-1,8.400796890E0,2.830076814E-1
3.790617344E0,3.662733138E-1,8.410372734E0,3.237073421E-1
3.793035990E0,4.811900556E-1,8.465437889E0,3.811657429E-1
3.795454635E0,6.176537275E-1,8.527684212E0,3.644070625E-1
3.797874010E0,7.014471292E-1,8.611476898E0,3.548306227E-1
3.800293438E0,8.522753716E-1,8.735969543E0,3.691952229E-1
3.802712083E0,9.432511330E-1,8.870039940E0,3.715893030E-1
3.805130729E0,1.077320695E0,8.968197823E0,3.213132620E-1
3.807550156E0,1.139567137E0,9.095085144E0,3.165250421E-1
3.809969583E0,1.197025537E0,9.229154587E0,3.620129228E-1
3.812388177E0,1.261666298E0,9.363224030E0,3.548306227E-1
3.814806823E0,1.343065619E0,9.475747108E0,2.973722219E-1
3.817226250E0,1.405312181E0,9.640939713E0,2.686431408E-1
3.819645677E0,1.489105701E0,9.746279716E0,2.806135416E-1
3.822064323E0,1.477135181E0,9.825284958E0,2.590667009E-1
3.824482969E0,1.517834783E0,9.961749077E0,2.327316403E-1
3.826902344E0,1.546563983E0,1.010778904E1,1.968201399E-1
3.829321771E0,1.548958182E0,1.022031212E1,1.680909395E-1
3.831740417E0,1.565716743E0,1.032804585E1,1.417558789E-1
3.834159063E0,1.484317422E0,1.032565212E1,1.202089489E-1
3.836578490E0,1.441223621E0,1.030649853E1,1.273912787E-1
3.838997917E0,1.405312181E0,1.026819420E1,1.704850197E-1
3.841416510E0,1.383765340E0,1.023467636E1,1.561204493E-1
3.843835156E0,1.331095219E0,1.018679428E1,1.106325686E-1
3.846254583E0,1.316730499E0,1.012694168E1,3.641551733E-2
3.848674010E0,1.304759979E0,1.003596592E1,-6.678253412E-3
3.851092656E0,1.340671539E0,9.980901718E0,-3.061926365E-2
3.853511302E0,1.323912740E0,9.909078598E0,-6.413662434E-2
3.855930677E0,1.350247860E0,9.834861755E0,-1.024422199E-1
3.858350104E0,1.376582980E0,9.808526993E0,-1.096245050E-1
3.860768750E0,1.419676781E0,9.782192230E0,-1.263832152E-1
3.863187396E0,1.489105701E0,9.758251190E0,-1.383536905E-1
3.865606823E0,1.434041381E0,9.942596436E0,-9.765402973E-2
3.868026250E0,1.436435461E0,1.017243004E1,1.704850197E-1
3.870444844E0,1.139567137E0,9.789374352E0,-8.089533448E-2
3.872863490E0,1.417282701E0,9.729520798E0,-2.676350474E-1
3.875282917E0,2.001442671E0,9.851619720E0,-6.985728145E-1
3.877702344E0,2.008625031E0,9.899501801E0,-7.153314948E-1
3.880120990E0,1.644721985E0,9.801343918E0,-4.064927697E-1
3.882539635E0,1.302365899E0,9.734310150E0,-2.939701080E-1
3.884959010E0,1.240119457E0,9.763038635E0,-3.203051984E-1
3.887378438E0,1.256878018E0,9.842043877E0,-3.538225889E-1
3.889797083E0,1.268848538E0,9.901897430E0,-4.160691500E-1
3.892215729E0,1.278424859E0,9.968931198E0,-4.807098210E-1
3.894635156E0,1.237725258E0,1.001920700E1,-4.950744212E-1
3.897054583E0,1.151537657E0,1.005990696E1,-5.214095116E-1
3.899473177E0,1.074926496E0,1.009821320E1,-4.615570307E-1
3.901891823E0,1.017468214E0,1.012933636E1,-5.357741117E-1
3.904311250E0,9.576156139E-1,1.014130592E1,-5.764737725E-1
3.906730677E0,8.833986521E-1,1.014609528E1,-6.602672338E-1
3.909149323E0,8.259402514E-1,1.005272484E1,-6.961786747E-1
3.911567969E0,9.959212542E-1,1.024185848E1,-7.703957558E-1
3.913987344E0,9.887390137E-1,1.051717949E1,-4.831039310E-1
3.916406771E0,1.472346902E0,1.016285324E1,-8.733420372E-1
3.918825417E0,1.101261616E0,1.045493317E1,-8.781301975E-1
3.921244063E0,-2.875299752E-2,1.055788040E1,-7.344843149E-1
3.923663490E0,2.370283008E-3,1.067279625E1,-5.692914724E-1
3.926082917E0,3.710615337E-1,1.072307205E1,-6.052029133E-1
3.928501510E0,7.565113306E-1,1.074222469E1,-5.453504920E-1
3.930920156E0,6.894766092E-1,1.072307205E1,-4.783157110E-1
3.933339583E0,5.745599270E-1,1.075180149E1,-3.490343988E-1
3.935759010E0,6.463829279E-1,1.079489517E1,-2.053884715E-1
3.938177656E0,1.108443856E0,1.105345821E1,-1.009805679E0
3.940596302E0,1.273636818E0,1.122583294E1,-1.407226086E0
3.943015677E0,1.216178417E0,1.128089714E1,-1.495807648E0
3.945435104E0,1.010285854E0,1.125934982E1,-1.337797165E0
3.947853750E0,8.786103725E-1,1.119710350E1,-1.117540121E0
3.950272396E0,8.570635319E-1,1.119710350E1,-1.005017519E0
3.952691823E0,8.810045719E-1,1.126413918E1,-9.571354389E-1
3.955111250E0,8.618518114E-1,1.121625710E1,-7.847603559E-1
3.957529844E0,1.000709534E0,1.137426662E1,-7.368783951E-1
3.959948490E0,1.118020296E0,1.149876022E1,-1.107963681E0
3.962367917E0,8.881869316E-1,1.131920338E1,-5.166212916E-1
3.964787344E0,1.000709534E0,1.144369602E1,-9.762882590E-1
3.967205938E0,1.151537657E0,1.157776642E1,-1.337797165E0
3.969624583E0,1.146749496E0,1.158494759E1,-1.366526365E0
3.972044010E0,1.031832814E0,1.158734226E1,-1.297097445E0
3.974463438E0,9.169160128E-1,1.155621910E1,-1.186968923E0
3.976882083E0,7.158117294E-1,1.149157810E1,-1.014593840E0
3.979300729E0,5.697716475E-1,1.143651390E1,-8.422187567E-1
3.981720104E0,4.883722961E-1,1.131202126E1,-8.996771574E-1
3.984139531E0,1.515440822E0,1.063927937E1,-3.945222497E-1
3.986558177E0,-2.417922020E-3,1.160649490E1,-1.416802406E0
3.988976823E0,-2.705569863E-1,1.183872223E1,-1.208515882E0
3.991396250E0,-1.484579295E-1,1.183393383E1,-1.062475801E0
3.993815677E0,-9.099955857E-2,1.166634655E1,-1.031352520E0
3.996234271E0,-9.818186611E-2,1.159452438E1,-1.040928960E0
3.998652917E0,-3.088625669E-1,1.154664230E1,-1.007411599E0
4.001072344E0,-5.554547310E-1,1.135272026E1,-6.985728145E-1
4.003491771E0,-5.291196108E-1,1.130244350E1,-4.352219403E-1
4.005910417E0,-3.447740376E-1,1.139102554E1,-8.685538173E-1
4.008329063E0,-2.322513908E-1,1.145087814E1,-1.062475801E0
4.010748438E0,-2.442218810E-1,1.143651390E1,-9.116475582E-1
4.013167865E0,-2.897097468E-1,1.142933178E1,-9.403767586E-1
4.015586510E0,-3.830795884E-1,1.142693710E1,-9.140416980E-1
4.018005156E0,-4.572966695E-1,1.136708450E1,-8.134895563E-1
4.020424583E0,-4.716612697E-1,1.125456238E1,-7.153314948E-1
4.022844010E0,-5.243314505E-1,1.115879822E1,-6.075971127E-1
4.025262604E0,-6.248835921E-1,1.102712250E1,-5.812619925E-1
4.027681250E0,-7.350121737E-1,1.088108253E1,-6.435085535E-1
4.030100677E0,-6.464304924E-1,1.047647953E1,-9.978351593E-1
4.032520104E0,-5.029988289E-2,9.650515556E0,4.482004642E-1
4.034938750E0,-1.237772822E0,1.028255749E1,-5.022566915E-1
4.037357396E0,-1.127644300E0,1.075658989E1,-1.237245083E0
4.039776771E0,-9.025990963E-1,1.071110153E1,-1.335402966E0
4.042196198E0,-8.140174150E-1,1.049084473E1,-1.098387241E0
4.044614844E0,-7.852882147E-1,1.032086372E1,-8.134895563E-1
4.047033490E0,-8.762639761E-1,1.027058792E1,-6.099911928E-1
4.049452917E0,-9.624514580E-1,1.019158173E1,-5.357741117E-1
4.051872344E0,-9.385105371E-1,1.006230068E1,-4.807098210E-1
4.054290938E0,-9.121754169E-1,9.906684875E0,-4.088868499E-1
4.056709583E0,-8.547170162E-1,9.743885994E0,-2.796055377E-1
4.059129010E0,-8.259878159E-1,9.636152267E0,-2.436940372E-1
4.061548438E0,-8.020468950E-1,9.514053345E0,-2.149648666E-1
4.063967083E0,-7.828941345E-1,9.387165070E0,-1.862356663E-1
4.066385729E0,-7.709236145E-1,9.245912552E0,-1.575064957E-1
4.068805104E0,-8.020468950E-1,9.171695709E0,-1.144127101E-1
4.071224531E0,-7.733176947E-1,9.090296745E0,-3.780153394E-2
4.073643177E0,-7.445884943E-1,8.994532585E0,3.880962729E-2
4.076061823E0,-7.828941345E-1,8.917922020E0,1.393617392E-1
4.078481250E0,-7.589530945E-1,8.826946259E0,1.920319200E-1
4.080900677E0,-7.805000544E-1,8.731182098E0,3.237073421E-1
4.083319271E0,-7.637412548E-1,8.678511620E0,3.955302835E-1
4.085737917E0,-7.350121737E-1,8.592324257E0,4.553828239E-1
4.088157344E0,-7.038888335E-1,8.575566292E0,4.673532844E-1
4.090576771E0,-6.464304924E-1,8.534866333E0,5.224175453E-1
4.092995417E0,-6.560068727E-1,8.503743172E0,5.487526059E-1
4.095414063E0,-6.607950926E-1,8.465437889E0,6.133933067E-1
4.097833438E0,-6.560068727E-1,8.458254814E0,6.923986077E-1
4.100252865E0,-6.153072119E-1,8.467831612E0,7.163395286E-1
4.102671510E0,-5.650311112E-1,8.508530617E0,7.977388501E-1
4.105090156E0,-5.267255306E-1,8.527684212E0,8.360444903E-1
4.107509583E0,-4.836317599E-1,8.539654732E0,8.839264512E-1
4.109929010E0,-2.705569863E-1,8.580353737E0,1.185582876E0
4.112347604E0,-3.519563377E-1,8.767093658E0,7.163395286E-1
4.114766250E0,-4.429320693E-1,8.728788376E0,8.025271297E-1
4.117185677E0,-4.572966695E-1,8.702452660E0,9.222319722E-1
4.119605104E0,-3.782914281E-1,8.740758896E0,9.772964120E-1
4.122023698E0,-2.298572958E-1,8.822157860E0,9.820844531E-1
4.124442344E0,-9.818186611E-2,8.884405136E0,1.017996073E0
4.126861771E0,-2.635890245E-2,8.949045181E0,1.013207674E0
4.129281198E0,1.029224396E-1,9.008897781E0,1.022784233E0
4.131699844E0,1.843217909E-1,9.085509300E0,1.099395275E0
4.134118490E0,2.058686912E-1,9.181272507E0,1.120942354E0
4.136537917E0,2.920562327E-1,9.255490303E0,1.154459715E0
4.138957344E0,3.638791740E-1,9.363224030E0,1.185582876E0
4.141375938E0,4.740077555E-1,9.451806068E0,1.120942354E0
4.143794583E0,6.152595282E-1,9.576298714E0,1.235858917E0
4.146214010E0,5.194956064E-1,9.731914520E0,1.085030794E0
4.148633438E0,5.769540071E-1,9.791768074E0,1.195159197E0
4.151052031E0,5.769540071E-1,9.901897430E0,1.190371037E0
4.153470677E0,6.224418879E-1,9.992872238E0,1.195159197E0
4.155890104E0,6.799002886E-1,1.009342384E1,1.120942354E0
4.158309531E0,7.038412094E-1,1.020115852E1,1.097001314E0
4.160728177E0,7.636936903E-1,1.033283424E1,1.080242634E0
4.163146823E0,7.852406502E-1,1.042859840E1,1.099395275E0
4.165566250E0,8.067874908E-1,1.045493317E1,1.111365795E0
4.167985677E0,7.948169708E-1,1.049084473E1,1.190371037E0
4.170404271E0,8.618518114E-1,1.058182049E1,1.240647078E0
4.172822917E0,9.288865328E-1,1.067279625E1,1.288529158E0
4.175242344E0,9.408570528E-1,1.075180149E1,1.355563879E0
4.177661771E0,9.001573324E-1,1.082122993E1,1.338805199E0
4.180080365E0,8.331224918E-1,1.090262985E1,1.350775719E0
4.182499010E0,8.043934107E-1,1.093375301E1,1.374716759E0
4.184918438E0,7.325704098E-1,1.099360561E1,1.389081240E0
4.187337865E0,6.846884489E-1,1.103430462E1,1.506392002E0
4.189756510E0,5.745599270E-1,1.106303406E1,1.578215122E0
4.192175156E0,4.716136158E-1,1.107500458E1,1.669190884E0
4.194594583E0,3.662733138E-1,1.110373402E1,1.774531364E0
4.197014010E0,2.800857723E-1,1.108936882E1,1.910994768E0
4.199432604E0,1.675631106E-1,1.109176350E1,2.011547089E0
4.201851250E0,7.898142934E-2,1.106542778E1,2.107311010E0
4.204270677E0,-7.206112146E-3,1.101515198E1,2.219833612E0
4.206690104E0,-8.381725848E-2,1.099600029E1,2.325174093E0
4.209108698E0,-1.819753200E-1,1.100318241E1,2.413755655E0
4.211527344E0,-2.681628764E-1,1.092178249E1,2.476002216E0
4.213946771E0,-3.375917375E-1,1.090262985E1,2.581342459E0
4.216366198E0,-3.950501084E-1,1.085714149E1,2.705835581E0
4.218784844E0,-4.333556890E-1,1.082601929E1,2.832722902E0
4.221203490E0,-4.261733890E-1,1.077813721E1,2.969186544E0
4.223622865E0,-4.189910889E-1,1.074701309E1,2.990733385E0
4.226042292E0,-4.261733890E-1,1.073504257E1,3.005098104E0
4.228460938E0,-4.046264887E-1,1.070631409E1,3.021856785E0
4.230879583E0,-3.854737282E-1,1.068237305E1,3.029039145E0
4.233299010E0,-3.447740376E-1,1.065364361E1,3.067344666E0
4.235718438E0,-3.902618885E-1,1.060815620E1,2.978763103E0
4.238137031E0,-3.304094374E-1,1.056745625E1,2.890181303E0
4.240555677E0,-2.609805763E-1,1.052196789E1,2.784841061E0
4.242975104E0,-1.939458102E-1,1.046211624E1,2.653165579E0
4.245394531E0,-1.005759537E-1,1.039508057E1,2.566977978E0
4.247813125E0,-2.396479249E-2,1.031128693E1,2.464031696E0
4.250231771E0,3.349357843E-2,1.022509956E1,2.361085653E0
4.252651198E0,8.855783939E-2,1.011736488E1,2.260533333E0
4.255070625E0,1.196811199E-1,1.003596592E1,2.186316252E0
4.257489271E0,1.675631106E-1,9.892319679E0,2.114493370E0
4.259907917E0,2.393860817E-1,9.815709114E0,2.064217329E0
4.262327344E0,3.471204937E-1,9.734310150E0,1.982817888E0
4.264746771E0,3.878202140E-1,9.616998672E0,1.954088449E0
4.267165365E0,4.141552746E-1,9.518840790E0,1.908600807E0
4.269584010E0,4.261257350E-1,9.458988190E0,1.810442686E0
4.272003438E0,4.668254554E-1,9.379982948E0,1.764954805E0
4.274422865E0,5.218896866E-1,9.329707146E0,1.743407965E0
4.276841458E0,6.080772877E-1,9.312948227E0,1.700314283E0
4.279260104E0,6.344124079E-1,9.279431343E0,1.671585083E0
4.281679531E0,6.918708086E-1,9.296190262E0,1.623703003E0
4.284098958E0,7.780582905E-1,9.312948227E0,1.606944323E0
4.286517604E0,7.158117294E-1,9.291400909E0,1.650038004E0
4.288936250E0,6.870825291E-1,9.243518829E0,1.604550123E0
4.291355677E0,6.344124079E-1,9.210001945E0,1.484845161E0
4.293775104E0,6.296241283E-1,9.248308182E0,1.472874641E0
4.296193698E0,5.793480873E-1,9.245912552E0,1.446539640E0
4.298612344E0,4.835841358E-1,9.238731384E0,1.396263599E0
4.301031771E0,3.447263539E-1,9.195636749E0,1.408234119E0
4.303451198E0,4.093670547E-1,9.231549263E0,1.391475439E0
4.305869792E0,4.955546558E-1,9.221971512E0,1.348381519E0
4.308288438E0,4.859782755E-1,9.221971512E0,1.286134958E0
4.310707865E0,4.380962551E-1,9.210001945E0,1.288529158E0
4.313127292E0,3.710615337E-1,9.241125107E0,1.274164677E0
4.315545938E0,3.136031330E-1,9.219577789E0,1.290923357E0
4.317964583E0,1.986863911E-1,9.205213547E0,1.305287838E0
4.320383958E0,8.855783939E-2,9.178878784E0,1.310075998E0
4.322803385E0,-3.832939267E-2,9.142967224E0,1.338805199E0
4.325222031E0,-8.860546350E-2,9.183667183E0,1.334017038E0
4.327640677E0,-9.099955857E-2,9.219577789E0,1.334017038E0
4.330060104E0,-2.466159761E-1,9.166908264E0,1.451327801E0
4.332479531E0,-4.333556890E-1,9.090296745E0,1.417810440E0
4.334898125E0,-5.099668503E-1,9.085509300E0,1.334017038E0
4.337316771E0,-5.123609304E-1,9.111844063E0,1.331623077E0
4.339736198E0,-5.746074915E-1,9.085509300E0,1.343593359E0
4.342155625E0,-5.817898512E-1,9.102268219E0,1.329228878E0
4.344574219E0,-7.134652138E-1,9.054386139E0,1.377110958E0
4.346992865E0,-9.456927776E-1,8.972986221E0,1.389081240E0
4.349412292E0,-8.092291355E-1,8.987351418E0,1.401051760E0
4.351831719E0,-6.368540525E-1,9.030445099E0,1.377110958E0
4.354250365E0,-4.716612697E-1,9.075931549E0,1.345987558E0
4.356669010E0,-3.208330274E-1,9.119026184E0,1.305287838E0
4.359088438E0,-5.508808792E-2,9.214790344E0,1.132912636E0
4.361507865E0,-1.125464588E-1,9.171695709E0,1.365140438E0
4.363926458E0,-3.902618885E-1,9.006504059E0,1.472874641E0
4.366345104E0,-5.458783507E-1,8.891587257E0,1.389081240E0
4.368764531E0,-5.554547310E-1,8.937074661E0,1.298105478E0
4.371183958E0,-4.549025893E-1,8.999320984E0,1.295711517E0
4.373602552E0,-3.615327477E-1,9.040020943E0,1.278952837E0
4.376021198E0,-2.801333666E-1,9.080720901E0,1.286134958E0
4.378440625E0,-2.418277860E-1,9.130996704E0,1.312470198E0
4.380860052E0,-2.514041662E-1,9.166908264E0,1.314864159E0
4.383278698E0,-1.867635101E-1,9.210001945E0,1.104183435E0
4.385697344E0,-2.059163004E-1,9.214790344E0,1.623703003E0
4.388116719E0,-3.112566471E-1,9.152544022E0,1.640461683E0
4.390536146E0,-3.519563377E-1,9.138178825E0,1.501604080E0
4.392954792E0,-1.891576052E-1,9.262672424E0,1.377110958E0
4.395373438E0,-3.354120255E-2,9.353648186E0,1.305287838E0
4.397792865E0,8.137553930E-2,9.437440872E0,1.307682037E0
4.400212292E0,1.986863911E-1,9.537993431E0,1.348381519E0
4.402630885E0,2.298096716E-1,9.557146072E0,1.348381519E0
4.405049531E0,2.489624619E-1,9.590663910E0,1.341199398E0
4.407468958E0,3.231795132E-1,9.612211227E0,1.317258358E0
4.409888385E0,3.782438338E-1,9.619393349E0,1.061089754E0
4.412307031E0,9.552583098E-3,9.451806068E0,1.597367764E0
4.414725677E0,-1.508520246E-1,9.341676712E0,1.786501884E0
4.417145052E0,-1.029700562E-1,9.372800827E0,1.647644043E0
4.419564479E0,4.764378071E-3,9.408712387E0,1.561456442E0
4.421983125E0,4.067587852E-2,9.449412346E0,1.532727242E0
4.424401771E0,4.785814881E-2,9.439834595E0,1.561456442E0
4.426821198E0,8.376961946E-2,9.466171265E0,1.542303562E0
4.429240625E0,1.412279904E-1,9.463775635E0,1.566244602E0
4.431659219E0,1.508044004E-1,9.466171265E0,1.602156162E0
4.434077865E0,1.699571908E-1,9.425471306E0,1.640461683E0
4.436497292E0,2.896621525E-1,9.435047150E0,1.571032763E0
4.438916719E0,2.154450715E-1,9.382376671E0,1.525544882E0
4.441335365E0,4.306995869E-2,9.212395668E0,1.963665009E0
4.443754010E0,7.419326901E-2,9.205213547E0,1.970847368E0
4.446173385E0,1.915040910E-1,9.274642944E0,1.827201605E0
4.448592813E0,2.920562327E-1,9.329707146E0,1.796077967E0
4.451011458E0,3.423323333E-1,9.358435631E0,1.831989527E0
4.453430104E0,4.835841358E-1,9.370407104E0,1.910994768E0
4.455849531E0,4.117611945E-1,9.336889267E0,1.963665009E0
4.458268958E0,4.069729745E-1,9.312948227E0,1.925359488E0
4.460687552E0,6.679297686E-1,9.406317711E0,1.709890604E0
4.463106198E0,5.075250864E-1,9.322525024E0,2.104916811E0
4.465525625E0,4.333080947E-1,9.255490303E0,2.301233053E0
4.467945052E0,5.027369261E-1,9.279431343E0,2.238986254E0
4.470363646E0,5.075250864E-1,9.272249222E0,2.126463890E0
4.472782292E0,5.051310062E-1,9.262672424E0,2.073793650E0
4.475201719E0,5.410424471E-1,9.312948227E0,2.073793650E0
4.477621146E0,6.415946484E-1,9.375194550E0,2.097734451E0
4.480039792E0,5.482248068E-1,9.358435631E0,2.152798891E0
4.482458438E0,4.620372355E-1,9.344071388E0,2.238986254E0
4.484877865E0,4.907664359E-1,9.382376671E0,2.303627014E0
4.487297292E0,3.519087136E-1,9.324918747E0,2.380238295E0
4.489715885E0,4.764018357E-1,9.296190262E0,2.404179335E0
4.492134531E0,8.498812914E-1,9.363224030E0,2.392208815E0
4.494553958E0,1.043803334E0,9.363224030E0,2.358691216E0
4.496973385E0,1.082108855E0,9.377589226E0,2.392208815E0
4.499391979E0,1.106049776E0,9.358435631E0,2.385026455E0
4.501810625E0,1.139567137E0,9.329707146E0,2.327568054E0
4.504230052E0,1.189843297E0,9.303372383E0,2.279685974E0
4.506649479E0,1.175478697E0,9.250701904E0,2.317991495E0
4.509068125E0,1.309548259E0,9.277036667E0,2.370661736E0
4.511486771E0,1.630357385E0,9.401530266E0,1.978029490E0
4.513906146E0,1.189843297E0,9.130996704E0,2.564583778E0
4.516325573E0,9.360687733E-1,8.951438904E0,2.748929501E0
4.518744219E0,9.073396921E-1,8.949045181E0,2.650771379E0
4.521162865E0,9.025514126E-1,8.963410378E0,2.612465858E0
4.523582292E0,8.810045719E-1,8.949045181E0,2.610071898E0
4.526001719E0,9.576156139E-1,8.994532585E0,2.545431137E0
4.528420313E0,1.086897016E0,9.083114624E0,2.516701698E0
4.530838958E0,1.137173176E0,9.138178825E0,2.552613258E0
4.533258385E0,1.129990816E0,9.133391380E0,2.590919018E0
4.535677813E0,1.103655815E0,9.104661942E0,2.660347700E0
4.538096458E0,1.079714775E0,9.109450340E0,2.693865299E0
4.540515104E0,1.050985575E0,9.073537827E0,2.703441620E0
4.542934479E0,1.048591375E0,9.066355705E0,2.763293982E0
4.545353906E0,9.671921730E-1,9.035232544E0,2.811176062E0
4.547772552E0,7.684818506E-1,8.968197823E0,2.849481583E0
4.550191198E0,7.684818506E-1,8.980168343E0,2.873422623E0
4.552610625E0,1.986863911E-1,8.915528297E0,2.983551025E0
4.555030052E0,3.854260743E-1,8.937074661E0,2.981157064E0
4.557448646E0,7.301763296E-1,9.013686180E0,2.897363663E0
4.559867292E0,1.000709534E0,9.049596786E0,2.880604744E0
4.562286719E0,1.242513418E0,9.073537827E0,2.830328703E0
4.564706146E0,1.402917981E0,9.102268219E0,2.763293982E0
4.567124792E0,1.462770581E0,9.092691422E0,2.717806101E0
4.569543438E0,1.805126548E0,9.272249222E0,2.351509094E0
4.571962813E0,1.876949430E0,9.207608223E0,2.365873575E0
4.574382240E0,1.323912740E0,8.949045181E0,2.842299223E0
4.576800885E0,8.594576120E-1,8.767093658E0,2.973974705E0
4.579219531E0,6.368064880E-1,8.747941017E0,2.844693184E0
4.581638958E0,5.745599270E-1,8.738365173E0,2.835117102E0
4.584058385E0,5.913186073E-1,8.769488335E0,2.918910503E0
4.586476979E0,7.612996101E-1,8.893980980E0,2.856663704E0
4.588895625E0,9.073396921E-1,9.004109383E0,2.827934742E0
4.591315052E0,9.576156139E-1,9.083114624E0,2.882998943E0
4.593734479E0,9.121277332E-1,9.068750381E0,2.911728144E0
4.596153073E0,7.517231703E-1,9.011291504E0,2.983551025E0
4.598571719E0,4.596431553E-1,8.903556824E0,3.024250746E0
4.600991146E0,3.399381936E-1,8.903556824E0,3.060162306E0
4.603410573E0,3.159972131E-1,8.927497864E0,3.124803066E0
4.605829219E0,5.338602066E-1,8.984956741E0,3.041009665E0
4.608247865E0,7.565113306E-1,9.071144104E0,2.993127584E0
4.610667240E0,9.408570528E-1,9.080720901E0,2.918910503E0
4.613086667E0,1.055773735E0,9.085509300E0,2.861452103E0
4.615505313E0,1.144355416E0,9.066355705E0,2.868634224E0
4.617923958E0,1.149143696E0,9.049596786E0,2.839905262E0
4.620343385E0,1.165902257E0,9.054386139E0,2.811176062E0
4.622762813E0,1.177872777E0,9.049596786E0,2.772870541E0
4.625181406E0,1.158720016E0,9.049596786E0,2.727382660E0
4.627600052E0,1.177872777E0,9.095085144E0,2.691471100E0
4.630019479E0,1.029438615E0,9.102268219E0,2.696259260E0
4.632438906E0,1.043803334E0,9.181272507E0,2.533460617E0
4.634857552E0,1.182661057E0,9.339282990E0,1.769742966E0
4.637276198E0,6.727179289E-1,9.054386139E0,2.887787104E0
4.639695573E0,4.835841358E-1,8.882009506E0,3.141561508E0
4.642115000E0,4.907664359E-1,8.877222061E0,3.124803066E0
4.644533646E0,6.128654480E-1,8.934680939E0,3.036221266E0
4.646952292E0,7.397526503E-1,9.006504059E0,2.988339186E0
4.649371719E0,8.905808926E-1,9.150149345E0,2.911728144E0
4.651791146E0,1.027044535E0,9.257884026E0,2.835117102E0
4.654209740E0,1.072532415E0,9.329707146E0,2.815964222E0
4.656628385E0,9.887390137E-1,9.322525024E0,2.792023420E0
4.659047813E0,7.469350100E-1,9.245912552E0,2.825540543E0
4.661467240E0,7.828465700E-1,9.265066147E0,2.851875782E0
4.663885833E0,5.625894070E-1,9.224367142E0,2.938063383E0
4.666304479E0,5.673775673E-1,9.226760864E0,2.957216024E0
4.668723906E0,8.666398525E-1,9.315341949E0,2.890181303E0
4.671143333E0,1.106049776E0,9.372800827E0,2.823146582E0
4.673561979E0,1.228148937E0,9.370407104E0,2.765687943E0
4.675980625E0,1.323912740E0,9.356041908E0,2.739352942E0
4.678400000E0,1.343065619E0,9.336889267E0,2.696259260E0
4.680819427E0,1.405312181E0,9.344071388E0,2.645983219E0
4.683238073E0,1.469952941E0,9.344071388E0,2.614859819E0
4.685656719E0,1.431647301E0,9.320131302E0,2.605283499E0
4.688076146E0,1.266454458E0,9.265066147E0,2.650771379E0
4.690495573E0,1.110838056E0,9.226760864E0,2.636406898E0
4.692914167E0,1.010285854E0,9.193243027E0,2.665136099E0
4.695332813E0,1.019862294E0,9.229154587E0,2.679500580E0
4.697752240E0,1.005497694E0,9.241125107E0,2.715412140E0
4.700171667E0,1.015074015E0,9.221971512E0,2.765687943E0
4.702590313E0,1.015074015E0,9.214790344E0,2.830328703E0
4.705008958E0,1.034226894E0,9.238731384E0,2.839905262E0
4.707428333E0,1.015074015E0,9.229154587E0,2.902151823E0
4.709847760E0,9.767684937E-1,9.224367142E0,2.892575264E0
4.712266406E0,8.642458916E-1,9.166908264E0,2.954822063E0
4.714685052E0,8.067874908E-1,9.159726143E0,2.973974705E0
4.717104479E0,7.134176493E-1,9.126209259E0,3.002703905E0
4.719523906E0,6.990530491E-1,9.102268219E0,3.021856785E0
4.721942500E0,6.392005682E-1,9.097478867E0,3.005098104E0
4.724361146E0,9.025514126E-1,9.111844063E0,2.962004185E0
4.726780573E0,1.065350175E0,9.126209259E0,2.950033903E0
4.729200000E0,1.185055137E0,9.133391380E0,2.959609985E0
4.731618594E0,1.182661057E0,9.102268219E0,2.947639465E0
4.734037240E0,1.185055137E0,9.068750381E0,2.962004185E0
4.736456667E0,1.304759979E0,9.063961983E0,2.973974705E0
4.738876094E0,1.431647301E0,9.061568260E0,2.947639465E0
4.741294740E0,1.510652542E0,9.073537827E0,2.935668945E0
4.743713385E0,1.477135181E0,9.054386139E0,2.995521545E0
4.746132813E0,1.326306939E0,8.982563019E0,3.007492065E0
4.748552240E0,1.197025537E0,8.951438904E0,3.067344666E0
4.750970833E0,1.120414376E0,8.927497864E0,3.069738865E0
4.753389479E0,1.122808576E0,8.915528297E0,3.110438347E0
4.755808906E0,1.122808576E0,8.910739899E0,3.117620468E0
4.758228333E0,1.132384896E0,8.893980980E0,3.115226507E0
4.760646927E0,1.134778976E0,8.865251541E0,3.100862026E0
4.763065573E0,1.115626335E0,8.834128380E0,3.103255987E0
4.765485000E0,1.096473455E0,8.776669502E0,3.084103346E0
4.767904427E0,1.129990816E0,8.752729416E0,3.072132826E0
4.770323073E0,1.127596736E0,8.723999977E0,3.064950466E0
4.772741719E0,1.127596736E0,8.695270538E0,3.081709146E0
4.775161094E0,1.120414376E0,8.654570580E0,3.064950466E0
4.777580521E0,1.108443856E0,8.633024216E0,3.048191786E0
4.779999167E0,1.106049776E0,8.635417938E0,3.029039145E0
4.782417813E0,1.120414376E0,8.606688499E0,3.009886265E0
4.784837240E0,1.125202656E0,8.616265297E0,3.005098104E0
4.787256667E0,1.108443856E0,8.613870621E0,3.017068624E0
4.789675260E0,1.146749496E0,8.601901054E0,2.988339186E0
4.792093906E0,1.120414376E0,8.604294777E0,3.017068624E0
4.794513333E0,1.125202656E0,8.575566292E0,3.009886265E0
4.796932760E0,1.132384896E0,8.589929581E0,3.000309706E0
4.799351406E0,1.197025537E0,8.561201096E0,3.012280226E0
4.801770052E0,1.185055137E0,8.570777893E0,3.045797825E0
4.804189427E0,1.187449217E0,8.537260056E0,3.033827305E0
4.806608854E0,1.220966578E0,8.565988541E0,3.021856785E0
4.809027500E0,1.242513418E0,8.549230576E0,2.990733385E0
4.811446146E0,1.254483938E0,8.537260056E0,3.026644707E0
4.813865573E0,1.367006660E0,8.582748413E0,2.952427864E0
4.816285000E0,1.431647301E0,8.594718933E0,2.950033903E0
4.818703594E0,1.472346902E0,8.592324257E0,2.882998943E0
4.821122240E0,1.496287942E0,8.585142136E0,2.854269743E0
4.823541667E0,1.541775823E0,8.601901054E0,2.813570023E0
4.825961094E0,1.587263703E0,8.618659973E0,2.756111860E0
4.828379688E0,1.618386865E0,8.656965256E0,2.748929501E0
4.830798333E0,1.642327905E0,8.652176857E0,2.717806101E0
4.833217760E0,1.663874865E0,8.685693741E0,2.732170820E0
4.835637188E0,1.673451304E0,8.680906296E0,2.720200300E0
4.838055833E0,1.675845265E0,8.723999977E0,2.741747141E0
4.840474479E0,1.687815785E0,8.714424133E0,2.760900021E0
4.842893906E0,1.704574585E0,8.728788376E0,2.758505821E0
4.845313333E0,1.714150906E0,8.728788376E0,2.796811342E0
4.847731927E0,1.718939185E0,8.733575821E0,2.813570023E0
4.850150573E0,1.740486026E0,8.726393700E0,2.832722902E0
4.852570000E0,1.742880106E0,8.750334740E0,2.918910503E0
4.854989427E0,1.733303666E0,8.791034698E0,3.019462585E0
4.857408021E0,1.694998145E0,8.858069420E0,3.086497307E0
4.859826667E0,1.644721985E0,8.865251541E0,3.179867268E0
4.862246094E0,1.618386865E0,8.917922020E0,3.249295950E0
4.864665521E0,1.601628304E0,8.994532585E0,3.275630951E0
4.867084167E0,1.599234104E0,9.042414665E0,3.294784069E0
4.869502813E0,1.594446063E0,9.078327179E0,3.316330910E0
4.871922188E0,1.589657784E0,9.135785103E0,3.390547752E0
4.874341615E0,1.615992904E0,9.255490303E0,3.440824032E0
4.876760260E0,1.613598824E0,9.332100868E0,3.527011633E0
4.879178906E0,1.587263703E0,9.394348145E0,3.589257956E0
4.881598333E0,1.548958182E0,9.442230225E0,3.615593195E0
4.884017760E0,1.491499782E0,9.468564987E0,3.634746075E0
4.886436354E0,1.472346902E0,9.537993431E0,3.658687115E0
4.888855000E0,1.455588341E0,9.585874557E0,3.668263197E0
4.891274427E0,1.448405862E0,9.676851273E0,3.680233717E0
4.893693854E0,1.448405862E0,9.825284958E0,3.682628155E0
4.896112448E0,1.438829541E0,9.992872238E0,3.706569195E0
4.898531094E0,1.398129940E0,1.013651752E1,3.696992397E0
4.900950521E0,1.355036139E0,1.027298164E1,3.673051596E0
4.903369948E0,1.304759979E0,1.046690369E1,3.658687115E0
4.905788594E0,1.333489180E0,1.071110153E1,3.582075834E0
4.908207240E0,1.362218380E0,1.097924137E1,3.462370872E0
4.910626667E0,1.357430100E0,1.124498558E1,3.354636669E0
4.913046094E0,1.390947580E0,1.148200226E1,3.196625710E0
4.915464688E0,1.395735741E0,1.171422863E1,3.029039145E0
4.917883333E0,1.395735741E0,1.189857483E1,2.835117102E0
4.920302760E0,1.400524020E0,1.209967899E1,2.650771379E0
4.922722188E0,1.479529262E0,1.226966000E1,2.509519577E0
4.925140781E0,1.615992904E0,1.254498196E1,2.413755655E0
4.927559427E0,1.477135181E0,1.249949360E1,2.310809374E0
4.929978854E0,1.290395379E0,1.233430099E1,2.090552330E0
4.932398281E0,1.228148937E0,1.225050735E1,1.963665009E0
4.934816927E0,1.266454458E0,1.226247787E1,1.875083208E0
4.937235573E0,1.381371140E0,1.235345364E1,1.887053728E0
4.939654948E0,1.553746343E0,1.206616211E1,2.947639465E0
4.942074375E0,7.134176493E-1,1.102712250E1,2.894969463E0
4.944493021E0,9.384628534E-1,1.206855583E1,1.249971390E-1
4.946911667E0,1.752456546E0,1.285142612E1,1.503998041E0
4.949331094E0,2.030171871E0,1.311956501E1,2.104916811E0
4.951750521E0,1.924831510E0,1.315787125E1,2.262927294E0
4.954169115E0,1.479529262E0,1.281551456E1,1.817625046E0
4.956587760E0,1.134778976E0,1.167352962E1,2.868634224E0
4.959007188E0,3.926083744E-1,1.148918438E1,2.332356215E0
4.961426615E0,6.487768888E-1,1.184829903E1,2.049852610E0
4.963845260E0,1.129990816E0,1.218347263E1,1.920571327E0
4.966263906E0,1.395735741E0,1.231035995E1,2.006758690E0
4.968683281E0,1.299971819E0,1.193209171E1,2.095340490E0
4.971102708E0,1.302365899E0,1.096248150E1,3.517435074E0
4.973521354E0,6.822943687E-1,1.097205925E1,1.752984524E0
4.975940000E0,1.074926496E0,1.157058334E1,1.879871607E0
4.978359427E0,1.592051864E0,1.192730427E1,2.148010492E0
4.980778854E0,1.635145664E0,1.173577595E1,2.361085653E0
4.983197448E0,1.405312181E0,1.135750866E1,2.617254019E0
4.985616094E0,1.235331178E0,1.099360561E1,2.794417381E0
4.988035521E0,1.129990816E0,1.063688469E1,3.026644707E0
4.990454948E0,1.082108855E0,1.024904060E1,3.380971670E0
4.992873594E0,9.863449335E-1,9.803737640E0,3.479129553E0
4.995292240E0,8.570635319E-1,9.439834595E0,3.141561508E0
4.997711615E0,8.043934107E-1,9.016079903E0,3.067344666E0
5.000131042E0,7.541173697E-1,8.565988541E0,3.244507790E0
5.002549688E0,6.727179289E-1,8.170963287E0,3.436035872E0
5.004968333E0,5.913186073E-1,7.802271843E0,3.522223234E0
5.007387760E0,4.500667751E-1,7.471886635E0,3.491100073E0
5.009807188E0,3.231795132E-1,7.225294113E0,3.426459312E0
5.012225781E0,2.417801619E-1,6.995460510E0,3.361818790E0
5.014644427E0,1.843217909E-1,6.863784790E0,3.275630951E0
5.017063854E0,1.340457201E-1,6.770415306E0,3.184655190E0
