"Time (s)","Gyroscope x (rad/s)","Gyroscope y (rad/s)","Gyroscope z (rad/s)"
1.351949480E-1,-3.432312310E-1,-6.378698349E-1,-5.041093230E-1
1.371914060E-1,-3.421659768E-1,-6.623709202E-1,-5.083703995E-1
1.391878640E-1,-3.432312310E-1,-6.900677681E-1,-5.158272386E-1
1.411843230E-1,-3.464270234E-1,-7.252214551E-1,-5.243493319E-1
1.431807810E-1,-3.453617692E-1,-7.710278034E-1,-5.360672474E-1
1.451772390E-1,-3.613407016E-1,-8.487920165E-1,-5.467198491E-1
1.471736980E-1,-3.730586171E-1,-9.244257212E-1,-5.648293495E-1
1.491701560E-1,-3.901028335E-1,-9.915373325E-1,-5.829388499E-1
1.511666140E-1,-4.028860033E-1,-1.053322554E0,-6.031788588E-1
1.531630730E-1,-4.316481054E-1,-1.103389859E0,-6.308757067E-1
1.551595310E-1,-4.486923218E-1,-1.156653047E0,-6.585725546E-1
1.571559890E-1,-4.710628688E-1,-1.192872047E0,-6.905304193E-1
1.591524480E-1,-4.966291785E-1,-1.221634150E0,-7.182272673E-1
1.611489060E-1,-5.189997554E-1,-1.250396252E0,-7.523157001E-1
1.631453640E-1,-5.392397642E-1,-1.274897337E0,-7.810778618E-1
1.651418230E-1,-5.637407899E-1,-1.294072032E0,-8.162315488E-1
1.671382810E-1,-5.818502903E-1,-1.312181473E0,-8.524504900E-1
1.691347390E-1,-5.978292227E-1,-1.326030016E0,-8.886694312E-1
1.711311980E-1,-6.138082147E-1,-1.337747812E0,-9.259536862E-1
1.731276560E-1,-6.255260706E-1,-1.345204711E0,-9.706947207E-1
1.751241140E-1,-6.340482235E-1,-1.351596236E0,-1.010109544E0
1.771205730E-1,-6.457660794E-1,-1.353726864E0,-1.049524307E0
1.791170310E-1,-6.521576643E-1,-1.355857372E0,-1.091069579E0
1.811134890E-1,-6.585492492E-1,-1.354792118E0,-1.130484343E0
1.831099480E-1,-6.617450714E-1,-1.349465728E0,-1.167768598E0
1.851064060E-1,-6.617450714E-1,-1.339878440E0,-1.205052733E0
1.871028640E-1,-6.628103256E-1,-1.326030016E0,-1.247663379E0
1.890993230E-1,-6.617450714E-1,-1.311116219E0,-1.279621243E0
1.910957810E-1,-6.553534865E-1,-1.295137286E0,-1.317970753E0
1.930922390E-1,-6.553534865E-1,-1.275962591E0,-1.349928617E0
1.950886980E-1,-6.521576643E-1,-1.264244676E0,-1.387212873E0
1.970851560E-1,-6.564187407E-1,-1.248265743E0,-1.421301246E0
1.990816140E-1,-6.542882323E-1,-1.234417319E0,-1.445802331E0
2.010780730E-1,-6.542882323E-1,-1.221634150E0,-1.474564433E0
2.030745310E-1,-6.553534865E-1,-1.209916234E0,-1.496935010E0
2.050709890E-1,-6.553534865E-1,-1.204589963E0,-1.519305468E0
2.070674480E-1,-6.532229781E-1,-1.197133064E0,-1.538480282E0
2.090639060E-1,-6.532229781E-1,-1.193937302E0,-1.552328706E0
2.110603640E-1,-6.553534865E-1,-1.191806793E0,-1.561916113E0
2.130568230E-1,-6.542882323E-1,-1.193937302E0,-1.575764537E0
2.150533850E-1,-6.553534865E-1,-1.195002556E0,-1.583221316E0
2.170499480E-1,-6.542882323E-1,-1.203524709E0,-1.592808723E0
2.190465100E-1,-6.468313932E-1,-1.213111997E0,-1.598134995E0
2.210430730E-1,-6.383092403E-1,-1.225895166E0,-1.600265503E0
2.230396350E-1,-6.329829693E-1,-1.242939353E0,-1.601330876E0
2.250361980E-1,-6.297871470E-1,-1.265309930E0,-1.603461385E0
2.270327600E-1,-6.212650537E-1,-1.290876269E0,-1.605591893E0
2.290293230E-1,-6.148734689E-1,-1.315377355E0,-1.607722402E0
2.310258850E-1,-6.063513756E-1,-1.345204711E0,-1.606657147E0
2.330224480E-1,-5.956987143E-1,-1.380358338E0,-1.605591893E0
2.350190100E-1,-5.839807987E-1,-1.420838356E0,-1.604526639E0
2.370155730E-1,-5.754587054E-1,-1.458122611E0,-1.604526639E0
2.390121350E-1,-5.626755357E-1,-1.498602629E0,-1.602396131E0
2.410086980E-1,-5.562839508E-1,-1.541213155E0,-1.606657147E0
2.430052600E-1,-5.445660949E-1,-1.583823681E0,-1.611983418E0
2.450018230E-1,-5.307176709E-1,-1.625368953E0,-1.614113927E0
2.469983850E-1,-5.200650096E-1,-1.661587954E0,-1.621570826E0
2.489949480E-1,-5.094123483E-1,-1.704198480E0,-1.627962351E0
2.509915100E-1,-4.976944327E-1,-1.739352226E0,-1.639680266E0
2.529880730E-1,-4.827807546E-1,-1.779832244E0,-1.651398182E0
2.549846350E-1,-4.699975848E-1,-1.810724854E0,-1.658855081E0
2.569811980E-1,-4.561491609E-1,-1.846943855E0,-1.673768759E0
2.589777600E-1,-4.444312751E-1,-1.878901720E0,-1.686551929E0
2.609743230E-1,-4.295175672E-1,-1.911924839E0,-1.701465607E0
2.629708850E-1,-4.146038890E-1,-1.949209094E0,-1.718509793E0
2.649674480E-1,-3.996902108E-1,-1.980101705E0,-1.736619234E0
2.669640100E-1,-3.932986259E-1,-2.018451214E0,-1.753663540E0
2.689605730E-1,-3.762544096E-1,-2.059996605E0,-1.770707726E0
2.709571350E-1,-3.624059856E-1,-2.104737520E0,-1.793078303E0
2.729536980E-1,-3.400354385E-1,-2.151609182E0,-1.807991982E0
2.749502600E-1,-3.219259679E-1,-2.213394403E0,-1.827166677E0
2.769468230E-1,-2.995554209E-1,-2.278375626E0,-1.839949846E0
2.789433850E-1,-2.686627805E-1,-2.348682880E0,-1.845276117E0
2.809399480E-1,-2.335091084E-1,-2.426447153E0,-1.845276117E0
2.829365100E-1,-1.962248832E-1,-2.498885155E0,-1.838884592E0
2.849330730E-1,-1.546796113E-1,-2.572388172E0,-1.829297185E0
2.869296350E-1,-1.131343096E-1,-2.648021936E0,-1.825036168E0
2.889261980E-1,-8.330693841E-2,-2.715133667E0,-1.820775151E0
2.909227600E-1,-6.200166792E-2,-2.776918888E0,-1.817579269E0
2.929193230E-1,-4.815323651E-2,-2.834443092E0,-1.827166677E0
2.949158850E-1,-4.815323651E-2,-2.884510517E0,-1.837819338E0
2.969124480E-1,-6.732798368E-2,-2.920729399E0,-1.858059287E0
2.989090100E-1,-8.437220007E-2,-2.949491501E0,-1.879364610E0
3.009054690E-1,-1.120690480E-1,-2.972927332E0,-1.901735187E0
3.029019270E-1,-1.461575031E-1,-2.986775875E0,-1.932627797E0
3.048983850E-1,-1.834417135E-1,-3.005950451E0,-1.957128882E0
3.068948440E-1,-2.228564769E-1,-3.026190519E0,-1.986956239E0
3.088913020E-1,-2.686627805E-1,-3.043234825E0,-2.009326696E0
3.108877600E-1,-3.155343831E-1,-3.064539909E0,-2.042349815E0
3.128842190E-1,-3.592101932E-1,-3.081584215E0,-2.061524630E0
3.148806770E-1,-4.018207192E-1,-3.098628521E0,-2.082829714E0
3.168771350E-1,-4.380396903E-1,-3.110346317E0,-2.106265545E0
3.188735940E-1,-4.753239155E-1,-3.117803097E0,-2.126505613E0
3.208700520E-1,-5.094123483E-1,-3.119933844E0,-2.160593987E0
3.228665100E-1,-5.392397642E-1,-3.112476826E0,-2.182964563E0
3.248629690E-1,-5.626755357E-1,-3.102889538E0,-2.207465649E0
3.268594270E-1,-5.807850361E-1,-3.081584215E0,-2.233031988E0
3.288558850E-1,-5.978292227E-1,-3.059213638E0,-2.259663582E0
3.308523440E-1,-6.127429605E-1,-3.028321028E0,-2.277773142E0
3.328488020E-1,-6.180692315E-1,-2.986775875E0,-2.298012972E0
3.348452600E-1,-6.201997995E-1,-2.949491501E0,-2.308665752E0
3.368417190E-1,-6.201997995E-1,-2.900489330E0,-2.316122532E0
3.388381770E-1,-6.170039773E-1,-2.860009432E0,-2.319318295E0
3.408346350E-1,-6.159387231E-1,-2.811007261E0,-2.312926769E0
3.428310940E-1,-6.138082147E-1,-2.780114651E0,-2.300143480E0
3.448275520E-1,-6.180692315E-1,-2.763070345E0,-2.285229921E0
3.468240100E-1,-6.340482235E-1,-2.759874582E0,-2.257533073E0
3.488204690E-1,-6.660060883E-1,-2.769462109E0,-2.239423513E0
3.508169270E-1,-7.022250891E-1,-2.776918888E0,-2.213857174E0
3.528133850E-1,-7.384440303E-1,-2.759874582E0,-2.204269886E0
3.548098440E-1,-7.778587937E-1,-2.719394684E0,-2.196813107E0
3.568063020E-1,-8.172735572E-1,-2.661870480E0,-2.197878361E0
3.588027600E-1,-8.556230068E-1,-2.594758749E0,-2.201074123E0
3.607992190E-1,-8.939725161E-1,-2.514863968E0,-2.207465649E0
3.627956770E-1,-9.301914573E-1,-2.430708170E0,-2.218118191E0
3.647921350E-1,-9.717367291E-1,-2.340160847E0,-2.227705717E0
3.667885940E-1,-1.002629399E0,-2.251744032E0,-2.242619276E0
3.687850520E-1,-1.036717653E0,-2.155870199E0,-2.254337311E0
3.707815100E-1,-1.063349247E0,-2.063192368E0,-2.261794090E0
3.727779690E-1,-1.091046095E0,-1.973710179E0,-2.271381378E0
3.747744270E-1,-1.116612434E0,-1.883162737E0,-2.279903650E0
3.767708850E-1,-1.138983011E0,-1.791550159E0,-2.292686701E0
3.787673440E-1,-1.158157706E0,-1.698872209E0,-2.299078226E0
3.807638020E-1,-1.177332520E0,-1.610455275E0,-2.304404736E0
3.827602600E-1,-1.192246199E0,-1.522038460E0,-2.316122532E0
3.847567190E-1,-1.201833606E0,-1.432556272E0,-2.319318295E0
3.867531770E-1,-1.209290385E0,-1.343074203E0,-2.325709820E0
3.887496350E-1,-1.215682030E0,-1.254657269E0,-2.326775074E0
3.907460940E-1,-1.221008301E0,-1.165175200E0,-2.329970837E0
3.927425520E-1,-1.218877792E0,-1.081019402E0,-2.321448803E0
3.947390100E-1,-1.219943047E0,-1.001124620E0,-2.319318295E0
3.967354690E-1,-1.214616656E0,-9.180341363E-1,-2.306535244E0
3.987319270E-1,-1.201833606E0,-8.434656858E-1,-2.301208735E0
4.007283850E-1,-1.182658792E0,-7.752888203E-1,-2.288425684E0
4.027248440E-1,-1.156027198E0,-7.166993618E-1,-2.282034159E0
4.047213020E-1,-1.132591367E0,-6.581098437E-1,-2.267120361E0
4.067177600E-1,-1.105959773E0,-6.027161479E-1,-2.251141548E0
4.087142190E-1,-1.076132417E0,-5.537140369E-1,-2.231966734E0
4.107106770E-1,-1.046305060E0,-5.153645277E-1,-2.217052937E0
4.127072390E-1,-1.014347196E0,-4.823413193E-1,-2.200008869E0
4.147038020E-1,-9.823893905E-1,-4.567750096E-1,-2.181899309E0
4.167003640E-1,-9.504314661E-1,-4.386655390E-1,-2.165920258E0
4.186969270E-1,-9.163430333E-1,-4.312086999E-1,-2.149941444E0
4.206934890E-1,-8.865156770E-1,-4.248171151E-1,-2.133962393E0
4.226900520E-1,-8.556230068E-1,-4.312086999E-1,-2.119048834E0
4.246866140E-1,-8.225998282E-1,-4.471876323E-1,-2.100939274E0
4.266831770E-1,-7.980988026E-1,-4.599708021E-1,-2.087090969E0
4.286797390E-1,-7.725324631E-1,-4.802108109E-1,-2.079633951E0
4.306763020E-1,-7.459008694E-1,-5.089729428E-1,-2.066850901E0
4.326728640E-1,-7.203345299E-1,-5.409308672E-1,-2.058328867E0
4.346694270E-1,-7.011598349E-1,-5.760845542E-1,-2.046610832E0
4.366659890E-1,-6.883766651E-1,-6.059119105E-1,-2.041284561E0
4.386625520E-1,-6.798545122E-1,-6.400003433E-1,-2.032762527E0
4.406591140E-1,-6.723976731E-1,-6.751540899E-1,-2.018913984E0
4.426556770E-1,-6.702671647E-1,-7.198951244E-1,-2.015718222E0
4.446522390E-1,-6.660060883E-1,-7.593098879E-1,-2.004000425E0
4.466488020E-1,-6.670714021E-1,-8.008551598E-1,-2.001869678E0
4.486453640E-1,-6.787892580E-1,-8.477267623E-1,-1.985890985E0
4.506419270E-1,-6.862460971E-1,-8.935331106E-1,-1.981629848E0
4.526384890E-1,-6.968987584E-1,-9.414699674E-1,-1.976303577E0
4.546350520E-1,-7.086166739E-1,-9.957984090E-1,-1.973107815E0
4.566316140E-1,-7.331176996E-1,-1.060779333E0,-1.973107815E0
4.586281770E-1,-7.661408782E-1,-1.121499300E0,-1.983760476E0
4.606247390E-1,-8.119472265E-1,-1.185415149E0,-2.007196188E0
4.626213020E-1,-8.588188291E-1,-1.239743590E0,-2.029566526E0
4.646178640E-1,-8.992988467E-1,-1.272766829E0,-2.057263374E0
4.666144270E-1,-9.344525337E-1,-1.310050964E0,-2.076438189E0
4.686109890E-1,-9.728019834E-1,-1.342008948E0,-2.103069782E0
4.706075520E-1,-1.002629399E0,-1.378227830E0,-2.125440359E0
4.726041140E-1,-1.030326128E0,-1.420838356E0,-2.147810936E0
4.746006770E-1,-1.048435569E0,-1.470905781E0,-2.160593987E0
4.765972390E-1,-1.068675637E0,-1.516712070E0,-2.175507784E0
4.785938020E-1,-1.091046095E0,-1.561453223E0,-2.175507784E0
4.805903640E-1,-1.110220909E0,-1.599802732E0,-2.180834055E0
4.825869270E-1,-1.140048265E0,-1.622173190E0,-2.188290834E0
4.845834890E-1,-1.166679859E0,-1.630695343E0,-2.197878361E0
4.865800520E-1,-1.192246199E0,-1.607259512E0,-2.207465649E0
4.885766140E-1,-1.226334572E0,-1.529495239E0,-2.207465649E0
4.905731770E-1,-1.265749335E0,-1.425099492E0,-2.214922428E0
4.925697390E-1,-1.307294607E0,-1.319638371E0,-2.214922428E0
4.945663020E-1,-1.347774625E0,-1.237613082E0,-2.213857174E0
4.965628640E-1,-1.398907304E0,-1.163044691E0,-2.217052937E0
4.985593230E-1,-1.440452576E0,-1.098063588E0,-2.214922428E0
5.005557810E-1,-1.474541068E0,-1.043735147E0,-2.212791920E0
5.025522390E-1,-1.508629441E0,-9.851457477E-1,-2.210661411E0
5.045486980E-1,-1.542717814E0,-9.159036279E-1,-2.203204632E0
5.065451560E-1,-1.575741053E0,-8.509225249E-1,-2.191486597E0
5.085416140E-1,-1.611960053E0,-7.774193883E-1,-2.173377275E0
5.105380730E-1,-1.638591647E0,-6.890025139E-1,-2.154202461E0
5.125345310E-1,-1.668419003E0,-6.016508937E-1,-2.126505613E0
5.145309890E-1,-1.696115851E0,-5.270824432E-1,-2.096678257E0
5.165274480E-1,-1.712094784E0,-4.493181705E-1,-2.061524630E0
5.185239060E-1,-1.742987394E0,-3.704886734E-1,-2.024240255E0
5.205203640E-1,-1.763227463E0,-2.969854772E-1,-1.988021493E0
5.225168230E-1,-1.784532666E0,-2.277433574E-1,-1.943280458E0
5.245132810E-1,-1.801576853E0,-1.627622843E-1,-1.901735187E0
5.265097390E-1,-1.819686413E0,-1.041727886E-1,-1.855928779E0
5.285061980E-1,-1.839926362E0,-5.090961233E-2,-1.811187744E0
5.305026560E-1,-1.863362193E0,-8.299068548E-3,-1.768577218E0
5.324991140E-1,-1.871884346E0,1.939778216E-2,-1.722770810E0
5.344955730E-1,-1.874014854E0,4.070305452E-2,-1.684421420E0
5.364920310E-1,-1.865492702E0,5.561674014E-2,-1.645006657E0
5.384884890E-1,-1.843122244E0,5.774727091E-2,-1.596004486E0
5.404849480E-1,-1.811164260E0,4.496410862E-2,-1.557654977E0
5.424814060E-1,-1.779206395E0,1.300620195E-2,-1.520370841E0
5.444778640E-1,-1.737661123E0,-3.706118464E-2,-1.490543365E0
5.464743230E-1,-1.691854715E0,-1.063033193E-1,-1.460716009E0
5.484707810E-1,-1.643917918E0,-1.904591322E-1,-1.442606568E0
5.504672390E-1,-1.599176884E0,-2.735496759E-1,-1.417040229E0
5.524636980E-1,-1.551239967E0,-3.672928810E-1,-1.404257059E0
5.544601560E-1,-1.490520000E0,-4.695581794E-1,-1.402126551E0
5.564566140E-1,-1.435126305E0,-5.750193000E-1,-1.395734906E0
5.584530730E-1,-1.383993626E0,-6.751540899E-1,-1.395734906E0
5.604495310E-1,-1.330730438E0,-7.731583118E-1,-1.399996042E0
5.624459890E-1,-1.278532505E0,-8.732931018E-1,-1.401061296E0
5.644424480E-1,-1.232726216E0,-9.702320695E-1,-1.409583330E0
5.664389060E-1,-1.187985063E0,-1.060779333E0,-1.419170737E0
5.684353640E-1,-1.145374537E0,-1.139608860E0,-1.425562382E0
5.704318230E-1,-1.109155655E0,-1.221634150E0,-1.445802331E0
5.724282810E-1,-1.076132417E0,-1.300463676E0,-1.455389738E0
5.744247390E-1,-1.044174552E0,-1.370771050E0,-1.476694942E0
5.764211980E-1,-1.018608212E0,-1.442143679E0,-1.494804502E0
5.784176560E-1,-9.951725602E-1,-1.499667883E0,-1.522501349E0
5.804141140E-1,-9.791935682E-1,-1.558257461E0,-1.552328706E0
5.824105730E-1,-9.600188732E-1,-1.605129004E0,-1.584286571E0
5.844070310E-1,-9.408441186E-1,-1.657326937E0,-1.618375063E0
5.864034890E-1,-9.259304404E-1,-1.705263734E0,-1.655659199E0
5.883999480E-1,-9.120819569E-1,-1.732960582E0,-1.695073962E0
5.903964060E-1,-9.014293551E-1,-1.743613243E0,-1.735553980E0
5.923928640E-1,-9.003641009E-1,-1.741482735E0,-1.770707726E0
5.943893230E-1,-9.003641009E-1,-1.732960582E0,-1.810122490E0
5.963857810E-1,-9.056904316E-1,-1.722308040E0,-1.846341372E0
5.983822390E-1,-9.099514484E-1,-1.701002717E0,-1.884690881E0
6.003786980E-1,-9.120819569E-1,-1.672240615E0,-1.918779373E0
6.023751560E-1,-9.248651266E-1,-1.631760597E0,-1.944345713E0
6.043716140E-1,-9.344525337E-1,-1.591280580E0,-1.972042561E0
6.063680730E-1,-9.408441186E-1,-1.555061579E0,-1.995478272E0
6.083645310E-1,-9.419093728E-1,-1.518842697E0,-2.015718222E0
6.103609890E-1,-9.408441186E-1,-1.492211103E0,-2.039154053E0
6.123575520E-1,-9.365830421E-1,-1.474101543E0,-2.054067612E0
6.143541140E-1,-9.323219657E-1,-1.464514256E0,-2.066850901E0
6.163506770E-1,-9.248651266E-1,-1.459187865E0,-2.084960222E0
6.183472390E-1,-9.152777791E-1,-1.465579510E0,-2.083894968E0
6.203438020E-1,-9.046251178E-1,-1.475166798E0,-2.086025715E0
6.223403640E-1,-8.939725161E-1,-1.504994273E0,-2.088156223E0
6.243369270E-1,-8.843851089E-1,-1.553996325E0,-2.094547749E0
6.263334890E-1,-8.833198547E-1,-1.593411088E0,-2.098808765E0
6.283300520E-1,-8.929072618E-1,-1.649870038E0,-2.104135036E0
6.303266140E-1,-9.195388556E-1,-1.714851141E0,-2.088156223E0
6.323231770E-1,-9.664103985E-1,-1.788354278E0,-2.056198120E0
6.343197390E-1,-1.012216687E0,-1.827769041E0,-2.005065680E0
6.363163020E-1,-1.068675637E0,-1.825638533E0,-1.948606730E0
6.383128640E-1,-1.112351418E0,-1.788354278E0,-1.871907711E0
6.403094270E-1,-1.159222960E0,-1.739352226E0,-1.784556150E0
6.423059890E-1,-1.195441961E0,-1.688219547E0,-1.684421420E0
6.443025520E-1,-1.224204063E0,-1.640282750E0,-1.587482333E0
6.462991140E-1,-1.243378878E0,-1.607259512E0,-1.482021332E0
6.482956770E-1,-1.262553573E0,-1.594476342E0,-1.382951736E0
6.502922390E-1,-1.270010352E0,-1.584888935E0,-1.297730684E0
6.522888020E-1,-1.278532505E0,-1.567844748E0,-1.212509632E0
6.542853640E-1,-1.291315675E0,-1.552931070E0,-1.139006495E0
6.562819270E-1,-1.303033590E0,-1.531625867E0,-1.074025393E0
6.582784890E-1,-1.308359861E0,-1.501798391E0,-1.026088476E0
6.602750520E-1,-1.307294607E0,-1.475166798E0,-9.856084585E-1
6.622716140E-1,-1.305164099E0,-1.452796340E0,-9.632378817E-1
6.642681770E-1,-1.311555743E0,-1.422968984E0,-9.504547715E-1
6.662647390E-1,-1.314751506E0,-1.409120560E0,-9.483242035E-1
6.682613020E-1,-1.320077777E0,-1.404859424E0,-9.525852799E-1
6.702578640E-1,-1.325404167E0,-1.394206762E0,-9.557810426E-1
6.722544270E-1,-1.328599930E0,-1.369705796E0,-9.664337039E-1
6.742509890E-1,-1.324338794E0,-1.356922626E0,-9.802821279E-1
6.762475520E-1,-1.334991455E0,-1.343074203E0,-9.856084585E-1
6.782441140E-1,-1.350970387E0,-1.321768880E0,-9.909347296E-1
6.802406770E-1,-1.366949439E0,-1.300463676E0,-9.920000434E-1
6.822372390E-1,-1.374406219E0,-1.270636201E0,-9.920000434E-1
6.842338020E-1,-1.380797863E0,-1.245069981E0,-9.845432043E-1
6.862303640E-1,-1.389319897E0,-1.215242505E0,-9.824126363E-1
6.882269270E-1,-1.395711541E0,-1.186480403E0,-9.760210514E-1
6.902234890E-1,-1.406364083E0,-1.157718301E0,-9.728252888E-1
6.922200520E-1,-1.413820982E0,-1.124695182E0,-9.824126363E-1
6.942166140E-1,-1.419147253E0,-1.087410927E0,-9.824126363E-1
6.962131770E-1,-1.418081999E0,-1.043735147E0,-1.002652764E0
6.982096350E-1,-1.421277881E0,-1.001124620E0,-1.015435934E0
7.002060940E-1,-1.423408389E0,-9.681015015E-1,-1.030349612E0
7.022025520E-1,-1.428734660E0,-9.233604670E-1,-1.048459053E0
7.041990100E-1,-1.426604152E0,-8.903372884E-1,-1.053785324E0
7.061954690E-1,-1.428734660E0,-8.477267623E-1,-1.067633748E0
7.081919270E-1,-1.429799914E0,-8.040509224E-1,-1.076155901E0
7.101883850E-1,-1.435126305E0,-7.667667270E-1,-1.081482172E0
7.121848440E-1,-1.441517830E0,-7.358740568E-1,-1.092134833E0
7.141813020E-1,-1.447909474E0,-7.060467005E-1,-1.100656986E0
7.161777600E-1,-1.448974729E0,-6.708930135E-1,-1.112374902E0
7.181742190E-1,-1.454301000E0,-6.410656571E-1,-1.125158072E0
7.201706770E-1,-1.468149424E0,-6.282824874E-1,-1.134745359E0
7.221671350E-1,-1.492650509E0,-6.176298261E-1,-1.148593783E0
7.241635940E-1,-1.521412611E0,-6.016508937E-1,-1.158181190E0
7.261600520E-1,-1.551239967E0,-5.739540458E-1,-1.170964360E0
7.281565100E-1,-1.582132578E0,-5.409308672E-1,-1.178421140E0
7.301529690E-1,-1.622612596E0,-5.079076886E-1,-1.188008547E0
7.321494270E-1,-1.664157867E0,-4.748844802E-1,-1.191204309E0
7.341458850E-1,-1.709964275E0,-4.386655390E-1,-1.198661208E0
7.361423440E-1,-1.752574801E0,-3.875328898E-1,-1.197595954E0
7.381388020E-1,-1.794120073E0,-3.289434016E-1,-1.196530700E0
7.401352600E-1,-1.829273820E0,-2.618317902E-1,-1.192269683E0
7.421317190E-1,-1.867623210E0,-1.947201788E-1,-1.184812784E0
7.441281770E-1,-1.904907465E0,-1.297391057E-1,-1.175225377E0
7.461246350E-1,-1.938995957E0,-4.877908155E-2,-1.165638089E0
7.481210940E-1,-1.963496923E0,2.791989036E-2,-1.152854919E0
7.501175520E-1,-1.983736992E0,1.067493856E-1,-1.135810614E0
7.521140100E-1,-1.993324399E0,1.781220436E-1,-1.116635919E0
7.541104690E-1,-2.000781298E0,2.505599558E-1,-1.095330596E0
7.561069270E-1,-2.009303331E0,2.963663042E-1,-1.080416918E0
7.581033850E-1,-2.011433840E0,3.293894827E-1,-1.067633748E0
7.600998440E-1,-2.009303331E0,3.538905382E-1,-1.069764376E0
7.620963020E-1,-2.007172823E0,3.890442252E-1,-1.062307477E0
7.640927600E-1,-1.996520162E0,4.295242429E-1,-1.064437985E0
7.660892190E-1,-1.981606483E0,4.700042605E-1,-1.054850578E0
7.680856770E-1,-1.972019076E0,4.987663627E-1,-1.050589561E0
7.700821350E-1,-1.959235907E0,5.158105493E-1,-1.039936900E0
7.720785940E-1,-1.938995957E0,5.403116345E-1,-1.034610629E0
7.740750520E-1,-1.919821143E0,5.744000673E-1,-1.025023222E0
7.760715100E-1,-1.908103228E0,6.095537543E-1,-1.026088476E0
7.780679690E-1,-1.889993787E0,6.510990262E-1,-1.019696951E0
7.800644270E-1,-1.874014854E0,6.905137897E-1,-1.011174798E0
7.820608850E-1,-1.858035922E0,7.309938073E-1,-1.012240052E0
7.840573440E-1,-1.844187498E0,7.693432570E-1,-1.003718019E0
7.860538020E-1,-1.830339074E0,7.991706729E-1,-1.003718019E0
7.880502600E-1,-1.819686413E0,8.268675208E-1,-1.009044290E0
7.900467190E-1,-1.803707480E0,8.566948771E-1,-1.013305306E0
7.920431770E-1,-1.785597920E0,8.811959624E-1,-1.023957968E0
7.940396350E-1,-1.764292717E0,8.833264709E-1,-1.022892714E0
7.960360940E-1,-1.728073716E0,8.684127927E-1,-1.023957968E0
7.980325520E-1,-1.699311614E0,8.417811990E-1,-1.013305306E0
8.000290100E-1,-1.651374698E0,7.831916809E-1,-1.004783273E0
8.020254690E-1,-1.604503155E0,6.873179674E-1,-9.856084585E-1
8.040219270E-1,-1.552305222E0,5.754653215E-1,-9.643031955E-1
8.060183850E-1,-1.504368424E0,4.625474215E-1,-9.408673644E-1
8.080148440E-1,-1.460692525E0,3.464336991E-1,-9.089094400E-1
8.100113020E-1,-1.436191559E0,2.345810235E-1,-8.780168295E-1
8.120077600E-1,-1.419147253E0,1.344462484E-1,-8.513852358E-1
8.140043230E-1,-1.412755728E0,5.348621681E-2,-8.236883879E-1
8.160008850E-1,-1.418081999E0,-2.853907645E-2,-7.970567942E-1
8.179974480E-1,-1.437256813E0,-1.201517433E-1,-7.682946920E-1
8.199940100E-1,-1.463888407E0,-1.947201788E-1,-7.501851916E-1
8.219905730E-1,-1.499042034E0,-2.660928369E-1,-7.299451828E-1
8.239871350E-1,-1.534195781E0,-3.321391642E-1,-7.203578353E-1
8.259836980E-1,-1.578936815E0,-3.939244747E-1,-7.118357420E-1
8.279802600E-1,-1.622612596E0,-4.418613315E-1,-7.139662504E-1
8.299768230E-1,-1.659896851E0,-4.716886878E-1,-7.129009962E-1
8.319733850E-1,-1.696115851E0,-4.972549975E-1,-7.160967588E-1
8.339699480E-1,-1.722747445E0,-5.356045365E-1,-7.256841660E-1
8.359665100E-1,-1.745117903E0,-5.579750538E-1,-7.363367677E-1
8.379630730E-1,-1.754705310E0,-5.664972067E-1,-7.480546832E-1
8.399596350E-1,-1.750444293E0,-5.654318929E-1,-7.587072849E-1
8.419561980E-1,-1.747248530E0,-5.654318929E-1,-7.693599463E-1
8.439527600E-1,-1.725943208E0,-5.760845542E-1,-7.832083702E-1
8.459493230E-1,-1.701442122E0,-5.920634866E-1,-8.013178706E-1
8.479458850E-1,-1.668419003E0,-6.037814021E-1,-8.194273114E-1
8.499424480E-1,-1.632200003E0,-6.197603345E-1,-8.417978883E-1
8.519390100E-1,-1.582132578E0,-6.442614198E-1,-8.631031513E-1
8.539355730E-1,-1.532065272E0,-6.698277593E-1,-8.865389228E-1
8.559321350E-1,-1.478802085E0,-6.879372001E-1,-9.067789316E-1
8.579286980E-1,-1.428734660E0,-7.198951244E-1,-9.280841947E-1
8.599252600E-1,-1.373340964E0,-7.710278034E-1,-9.440631866E-1
8.619218230E-1,-1.319012523E0,-8.019204140E-1,-9.621726274E-1
8.639183850E-1,-1.261488318E0,-8.178993464E-1,-9.706947207E-1
8.659149480E-1,-1.202898860E0,-8.232256770E-1,-9.653684497E-1
8.679115100E-1,-1.153896689E0,-8.413351774E-1,-9.643031955E-1
8.699080730E-1,-1.113416672E0,-8.658362627E-1,-9.515200257E-1
8.719046350E-1,-1.074001908E0,-8.828804493E-1,-9.461936951E-1
8.739011980E-1,-1.031391382E0,-8.850109577E-1,-9.280841947E-1
8.758977600E-1,-1.002629399E0,-8.860762119E-1,-9.099747539E-1
8.778943230E-1,-9.759978056E-1,-8.850109577E-1,-8.907999992E-1
8.798908850E-1,-9.600188732E-1,-8.722277880E-1,-8.758863211E-1
8.818874480E-1,-9.483009577E-1,-8.583793640E-1,-8.577768207E-1
8.838840100E-1,-9.419093728E-1,-8.381393552E-1,-8.417978883E-1
8.858805730E-1,-9.333872795E-1,-8.136383295E-1,-8.311452270E-1
8.878771350E-1,-9.248651266E-1,-7.784846425E-1,-8.183620572E-1
8.898736980E-1,-9.120819569E-1,-7.625056505E-1,-8.119704723E-1
8.918702600E-1,-9.014293551E-1,-7.529183030E-1,-8.130357265E-1
8.938668230E-1,-8.833198547E-1,-7.358740568E-1,-8.343409896E-1
8.958633850E-1,-8.705366850E-1,-6.996551156E-1,-8.481894732E-1
8.978599480E-1,-8.545577526E-1,-6.463919282E-1,-8.780168295E-1
8.998564060E-1,-8.279261589E-1,-6.091077328E-1,-9.099747539E-1
9.018528640E-1,-8.108819723E-1,-5.654318929E-1,-9.451284409E-1
9.038493230E-1,-7.885113955E-1,-5.228213668E-1,-9.824126363E-1
9.058457810E-1,-7.682713866E-1,-4.972549975E-1,-1.025023222E0
9.078422390E-1,-7.459008694E-1,-4.919286966E-1,-1.075090647E0
9.098386980E-1,-7.320524454E-1,-4.940592349E-1,-1.123027444E0
9.118351560E-1,-7.075513601E-1,-5.036466122E-1,-1.178421140E0
9.138316140E-1,-6.894419193E-1,-5.185603499E-1,-1.230619073E0
9.158280730E-1,-6.660060883E-1,-5.430613756E-1,-1.290273905E0
9.178245310E-1,-6.436355710E-1,-5.814108849E-1,-1.346732855E0
9.198209890E-1,-6.223303080E-1,-6.410656571E-1,-1.408518076E0
9.218174480E-1,-5.988945365E-1,-7.060467005E-1,-1.464977145E0
9.238139060E-1,-5.807850361E-1,-7.646362185E-1,-1.521436095E0
9.258103640E-1,-5.701323748E-1,-8.019204140E-1,-1.589612961E0
9.278068230E-1,-5.690671206E-1,-8.178993464E-1,-1.667377114E0
9.298032810E-1,-5.978292227E-1,-7.433309555E-1,-1.847406745E0
9.317997390E-1,-6.340482235E-1,-7.369393706E-1,-2.001869678E0
9.337961980E-1,-6.649408340E-1,-7.880719900E-1,-2.137158155E0
9.357926560E-1,-6.862460971E-1,-8.573141098E-1,-2.262859344E0
9.377891140E-1,-6.968987584E-1,-9.372088909E-1,-2.382168770E0
9.397855730E-1,-7.086166739E-1,-1.040539384E0,-2.498282671E0
9.417820310E-1,-7.160735130E-1,-1.156653047E0,-2.610135317E0
9.437784890E-1,-7.192692757E-1,-1.279158354E0,-2.712400436E0
9.457749480E-1,-7.203345299E-1,-1.406989932E0,-2.835971117E0
9.477714060E-1,-7.171387672E-1,-1.532691121E0,-2.970194340E0
9.497678640E-1,-7.160735130E-1,-1.697806954E0,-3.099091291E0
9.517643230E-1,-7.213998437E-1,-1.867183805E0,-3.221596479E0
9.537607810E-1,-7.213998437E-1,-2.016320705E0,-3.327057600E0
9.557572390E-1,-7.203345299E-1,-2.144152403E0,-3.422931433E0
9.577536980E-1,-7.192692757E-1,-2.244287014E0,-3.501760721E0
9.597501560E-1,-7.054208517E-1,-2.317790270E0,-3.569937706E0
9.617466140E-1,-6.819850802E-1,-2.344421864E0,-3.629592419E0
9.637430730E-1,-6.617450714E-1,-2.302876711E0,-3.672203064E0
9.657395310E-1,-6.383092403E-1,-2.240025997E0,-3.705226183E0
9.677359890E-1,-6.106123924E-1,-2.189958572E0,-3.723335743E0
9.697324480E-1,-5.711976290E-1,-2.160131216E0,-3.724400997E0
9.717289060E-1,-5.275218487E-1,-2.144152403E0,-3.716943979E0
9.737253640E-1,-4.785197079E-1,-2.142021894E0,-3.690312386E0
9.757218230E-1,-4.284523129E-1,-2.146282911E0,-3.656224012E0
9.777182810E-1,-3.592101932E-1,-2.139891386E0,-3.600830317E0
9.797147390E-1,-2.899680436E-1,-2.127108097E0,-3.536914587E0
9.817111980E-1,-2.164648920E-1,-2.112194538E0,-3.462346077E0
9.837076560E-1,-1.365701258E-1,-2.091954470E0,-3.370733500E0
9.857041140E-1,-5.667534471E-2,-2.065322876E0,-3.289773464E0
9.877005730E-1,2.534994297E-2,-2.036560774E0,-3.192834377E0
9.896970310E-1,1.148320809E-1,-2.001407146E0,-3.100156546E0
9.916934890E-1,1.904657781E-1,-1.950274348E0,-3.009608984E0
9.936899480E-1,2.703605592E-1,-1.897011161E0,-2.925453186E0
9.956864060E-1,3.417332172E-1,-1.839486957E0,-2.837036371E0
9.976828640E-1,4.131058753E-1,-1.788354278E0,-2.758206844E0
9.996793230E-1,4.759564102E-1,-1.747874260E0,-2.680442572E0
1.001675781E0,5.281543136E-1,-1.716981649E0,-2.612265825E0
1.003672239E0,5.824827552E-1,-1.695676446E0,-2.551545858E0
1.005668698E0,6.314848661E-1,-1.686089039E0,-2.491890907E0
1.007665156E0,6.794217229E-1,-1.678632140E0,-2.439692974E0
1.009661614E0,7.220322490E-1,-1.677566886E0,-2.401343584E0
1.011658073E0,7.657080889E-1,-1.685023785E0,-2.361928940E0
1.013654531E0,8.008617759E-1,-1.698872209E0,-2.340623617E0
1.015651094E0,8.338849545E-1,-1.716981649E0,-2.325709820E0
1.017647656E0,8.551902175E-1,-1.739352226E0,-2.316122532E0
1.019644219E0,8.807564974E-1,-1.765983820E0,-2.318253040E0
1.021640781E0,9.073880911E-1,-1.801137447E0,-2.326775074E0
1.023637344E0,9.254975915E-1,-1.846943855E0,-2.340623617E0
1.025633906E0,9.393460155E-1,-1.891684890E0,-2.368320465E0
1.027630469E0,9.521291852E-1,-1.954535484E0,-2.405604601E0
1.029627031E0,9.638471007E-1,-2.016320705E0,-2.445019484E0
1.031623594E0,9.713039398E-1,-2.090889215E0,-2.495086908E0
1.033620156E0,9.787607789E-1,-2.168653488E0,-2.548349857E0
1.035616719E0,9.766302705E-1,-2.253874540E0,-2.604809046E0
1.037613281E0,9.744997025E-1,-2.356139898E0,-2.666594267E0
1.039609844E0,9.755649567E-1,-2.463731289E0,-2.737966776E0
1.041606406E0,9.713039398E-1,-2.564931393E0,-2.811470032E0
1.043602969E0,9.723691940E-1,-2.681045055E0,-2.881777525E0
1.045599531E0,9.585207701E-1,-2.798224211E0,-2.964868069E0
1.047596094E0,9.457376003E-1,-2.919664145E0,-3.042632341E0
1.049592656E0,9.340196848E-1,-3.037908554E0,-3.119331121E0
1.051589219E0,9.137796760E-1,-3.163609505E0,-3.202421665E0
1.053585781E0,8.935396671E-1,-3.286114931E0,-3.279120684E0
1.055582344E0,8.690386415E-1,-3.404359102E0,-3.354754448E0
1.057578906E0,8.381459713E-1,-3.526864290E0,-3.430388212E0
1.059575469E0,8.072533607E-1,-3.644043446E0,-3.502825975E0
1.061572031E0,7.731649280E-1,-3.751635075E0,-3.571002960E0
1.063568594E0,7.348154187E-1,-3.854965448E0,-3.632788181E0
1.065565156E0,6.975312233E-1,-3.949774027E0,-3.694573641E0
1.067561719E0,6.613122225E-1,-4.033929825E0,-3.746771336E0
1.069558281E0,6.208322048E-1,-4.099976063E0,-3.795773506E0
1.071554844E0,5.878090858E-1,-4.147912979E0,-3.829861879E0
1.073551406E0,5.505248308E-1,-4.183066845E0,-3.856493473E0
1.075547969E0,5.143058896E-1,-4.210763454E0,-3.875668287E0
1.077544531E0,4.770216644E-1,-4.223546982E0,-3.879929304E0
1.079541094E0,4.471943080E-1,-4.224612236E0,-3.861819983E0
1.081537656E0,4.216279685E-1,-4.223546982E0,-3.840514660E0
1.083534219E0,3.971269131E-1,-4.221415997E0,-3.802165031E0
1.085530781E0,3.726258576E-1,-4.208632946E0,-3.749967337E0
1.087527344E0,3.577121794E-1,-4.201176167E0,-3.691377640E0
1.089523906E0,3.396026790E-1,-4.185197353E0,-3.623200893E0
1.091520469E0,3.268195093E-1,-4.172414303E0,-3.548632383E0
1.093517031E0,3.129710853E-1,-4.150043488E0,-3.467672348E0
1.095513594E0,3.087100387E-1,-4.131934166E0,-3.386712313E0
1.097510156E0,2.959268689E-1,-4.102106571E0,-3.299360752E0
1.099506719E0,2.916658223E-1,-4.073344707E0,-3.215204954E0
1.101503177E0,2.863395214E-1,-4.031799316E0,-3.124657631E0
1.103499635E0,2.831437290E-1,-3.987058163E0,-3.037305832E0
1.105496094E0,2.820784450E-1,-3.940186739E0,-2.954215288E0
1.107492552E0,2.810131907E-1,-3.891184568E0,-2.862602711E0
1.109489010E0,2.788826525E-1,-3.842182398E0,-2.777381659E0
1.111485469E0,2.788826525E-1,-3.795310736E0,-2.693225861E0
1.113481927E0,2.820784450E-1,-3.756961346E0,-2.619722605E0
1.115478385E0,2.927310765E-1,-3.719677210E0,-2.547284603E0
1.117474844E0,3.033837378E-1,-3.682392836E0,-2.475912094E0
1.119471302E0,3.087100387E-1,-3.653630733E0,-2.414126873E0
1.121467760E0,3.246890008E-1,-3.631260157E0,-2.357667685E0
1.123464219E0,3.385374248E-1,-3.619542360E0,-2.306535244E0
1.125460677E0,3.502553105E-1,-3.611020327E0,-2.257533073E0
1.127457135E0,3.577121794E-1,-3.614216089E0,-2.220248699E0
1.129453594E0,3.619732261E-1,-3.621672869E0,-2.184029818E0
1.131450052E0,3.598426878E-1,-3.635521173E0,-2.157398224E0
1.133446510E0,3.502553105E-1,-3.656826496E0,-2.136092901E0
1.135442969E0,3.364068866E-1,-3.679197073E0,-2.115853071E0
1.137439427E0,3.065795004E-1,-3.706893921E0,-2.100939274E0
1.139435885E0,2.682300210E-1,-3.729264498E0,-2.091351986E0
1.141432344E0,2.277500033E-1,-3.764418125E0,-2.087090969E0
1.143428802E0,1.734215617E-1,-3.808094025E0,-2.081764460E0
1.145425260E0,1.158973426E-1,-3.854965448E0,-2.078568697E0
1.147421719E0,4.985100776E-2,-3.896510839E0,-2.083894968E0
1.149418177E0,-2.152165212E-2,-3.948708773E0,-2.089221478E0
1.151414635E0,-1.035469398E-1,-3.998775959E0,-2.096678257E0
1.153411094E0,-1.802459359E-1,-4.050973892E0,-2.099874020E0
1.155407552E0,-2.580101490E-1,-4.096780300E0,-2.102004528E0
1.157404010E0,-3.389701843E-1,-4.128738403E0,-2.102004528E0
1.159400469E0,-4.209954739E-1,-4.161761284E0,-2.105200291E0
1.161396927E0,-4.955639243E-1,-4.193719387E0,-2.108396053E0
1.163393385E0,-5.701323748E-1,-4.231003761E0,-2.113722563E0
1.165389844E0,-6.393744946E-1,-4.253374100E0,-2.116918325E0
1.167386302E0,-7.000945210E-1,-4.259765625E0,-2.113722563E0
1.169382760E0,-7.533577085E-1,-4.255504608E0,-2.115853071E0
1.171379219E0,-7.970335484E-1,-4.237395287E0,-2.119048834E0
1.173375677E0,-8.343177438E-1,-4.207567692E0,-2.124375105E0
1.175372135E0,-8.598840833E-1,-4.172414303E0,-2.139288664E0
1.177368594E0,-8.726672530E-1,-4.136195183E0,-2.151006699E0
1.179365052E0,-8.833198547E-1,-4.108498096E0,-2.165920258E0
1.181361510E0,-8.801240921E-1,-4.081866741E0,-2.178703547E0
1.183357969E0,-8.726672530E-1,-4.052039146E0,-2.186160326E0
1.185354427E0,-8.577535748E-1,-4.020081520E0,-2.196813107E0
1.187350885E0,-8.332524896E-1,-3.989188671E0,-2.203204632E0
1.189347344E0,-7.917072177E-1,-3.963622332E0,-2.217052937E0
1.191343802E0,-7.480313778E-1,-3.944447756E0,-2.217052937E0
1.193340260E0,-7.022250891E-1,-3.927403450E0,-2.224509954E0
1.195336719E0,-6.404398084E-1,-3.912489891E0,-2.225575209E0
1.197333177E0,-5.722629428E-1,-3.894380331E0,-2.223444700E0
1.199329635E0,-5.062165260E-1,-3.874140263E0,-2.218118191E0
1.201326094E0,-4.348438978E-1,-3.850704432E0,-2.210661411E0
1.203322552E0,-3.624059856E-1,-3.834725618E0,-2.209596157E0
1.205319010E0,-2.878375351E-1,-3.808094025E0,-2.193617105E0
1.207315469E0,-2.122038305E-1,-3.779331923E0,-2.178703547E0
1.209311927E0,-1.259174794E-1,-3.751635075E0,-2.157398224E0
1.211308385E0,-4.069639742E-2,-3.725003481E0,-2.133962393E0
1.213304844E0,4.132889956E-2,-3.699437141E0,-2.102004528E0
1.215301302E0,1.233541891E-1,-3.673870802E0,-2.068981409E0
1.217297760E0,2.107057869E-1,-3.649369717E0,-2.032762527E0
1.219294323E0,2.980574071E-1,-3.630194902E0,-1.993347764E0
1.221290885E0,3.854090273E-1,-3.615281343E0,-1.944345713E0
1.223287448E0,4.727606177E-1,-3.596106529E0,-1.896408796E0
1.225284010E0,5.515900850E-1,-3.582257986E0,-1.845276117E0
1.227280573E0,6.272237897E-1,-3.574801207E0,-1.793078303E0
1.229277135E0,6.996617317E-1,-3.564148664E0,-1.739815116E0
1.231273698E0,7.635775208E-1,-3.551365376E0,-1.689747691E0
1.233270260E0,8.168407083E-1,-3.543908596E0,-1.642876148E0
1.235266823E0,8.658428192E-1,-3.540712833E0,-1.593873978E0
1.237263385E0,9.041923285E-1,-3.534321308E0,-1.548067689E0
1.239259948E0,9.404112697E-1,-3.526864290E0,-1.505457044E0
1.241256510E0,9.691733718E-1,-3.521538019E0,-1.464977145E0
1.243253073E0,9.947398305E-1,-3.516211748E0,-1.426627636E0
1.245249635E0,1.007523060E0,-3.511950731E0,-1.394669652E0
1.247246198E0,1.018175602E0,-3.506624460E0,-1.365907550E0
1.249242760E0,1.026697755E0,-3.500232697E0,-1.343537092E0
1.251239323E0,1.032024026E0,-3.500232697E0,-1.319036007E0
1.253235885E0,1.028828263E0,-3.494906425E0,-1.306252837E0
1.255232448E0,1.020306110E0,-3.495971680E0,-1.292404413E0
1.257229010E0,1.021371484E0,-3.494906425E0,-1.286012769E0
1.259225573E0,1.005392432E0,-3.505559206E0,-1.284947515E0
1.261222135E0,1.000066161E0,-3.507689714E0,-1.286012769E0
1.263218698E0,9.883481264E-1,-3.501298189E0,-1.292404413E0
1.265215260E0,9.766302705E-1,-3.499167442E0,-1.297730684E0
1.267211823E0,9.585207701E-1,-3.494906425E0,-1.310513854E0
1.269208385E0,9.436070919E-1,-3.500232697E0,-1.316905499E0
1.271204948E0,9.212365150E-1,-3.501298189E0,-1.325427532E0
1.273201510E0,9.009965062E-1,-3.511950731E0,-1.333949685E0
1.275198073E0,8.764954805E-1,-3.521538019E0,-1.342471838E0
1.277194635E0,8.541249633E-1,-3.530060291E0,-1.353124380E0
1.279191198E0,8.285586238E-1,-3.532190800E0,-1.358450770E0
1.281187760E0,8.072533607E-1,-3.536451817E0,-1.363777041E0
1.283184323E0,7.774259448E-1,-3.538582325E0,-1.368038058E0
1.285180885E0,7.561206818E-1,-3.534321308E0,-1.369103312E0
1.287177448E0,7.316196561E-1,-3.519407511E0,-1.369103312E0
1.289174010E0,7.039228082E-1,-3.503428698E0,-1.365907550E0
1.291170573E0,6.804869771E-1,-3.485319138E0,-1.364842296E0
1.293167135E0,6.559859514E-1,-3.467209578E0,-1.358450770E0
1.295163698E0,6.293543577E-1,-3.453361273E0,-1.350993872E0
1.297160260E0,6.123101115E-1,-3.436316967E0,-1.343537092E0
1.299156823E0,5.920701027E-1,-3.421403408E0,-1.330753922E0
1.301153385E0,5.739606023E-1,-3.405424356E0,-1.310513854E0
1.303149844E0,5.558511615E-1,-3.394771814E0,-1.293469667E0
1.305146302E0,5.441332459E-1,-3.385184288E0,-1.270033836E0
1.307142760E0,5.356111526E-1,-3.376662254E0,-1.244467497E0
1.309139219E0,5.270890594E-1,-3.368140221E0,-1.215705395E0
1.311135677E0,5.143058896E-1,-3.344704390E0,-1.190139055E0
1.313132135E0,5.015227199E-1,-3.325529575E0,-1.153920174E0
1.315128594E0,4.876743257E-1,-3.291441202E0,-1.129419088E0
1.317125052E0,4.823479950E-1,-3.262679100E0,-1.092134833E0
1.319121510E0,4.770216644E-1,-3.238178015E0,-1.066568494E0
1.321117969E0,4.684995711E-1,-3.198763132E0,-1.034610629E0
1.323114427E0,4.653037786E-1,-3.165740013E0,-1.005848527E0
1.325110885E0,4.684995711E-1,-3.133782148E0,-9.813473821E-1
1.327107344E0,4.706301093E-1,-3.090106249E0,-9.621726274E-1
1.329103802E0,4.802174568E-1,-3.053887367E0,-9.429978728E-1
1.331100260E0,4.951311350E-1,-3.019798994E0,-9.323452711E-1
1.333096719E0,5.121753216E-1,-2.980384111E0,-9.174315929E-1
1.335093177E0,5.313500762E-1,-2.947360992E0,-9.078441858E-1
1.337089635E0,5.526553392E-1,-2.911142111E0,-9.046484232E-1
1.339086094E0,5.782216787E-1,-2.880249500E0,-8.982568383E-1
1.341082552E0,6.059185266E-1,-2.854683161E0,-8.993220925E-1
1.343079010E0,6.432027817E-1,-2.828051567E0,-8.971915841E-1
1.345075469E0,6.772912145E-1,-2.808876753E0,-8.971915841E-1
1.347071927E0,7.156406641E-1,-2.792897940E0,-8.993220925E-1
1.349068385E0,7.582511902E-1,-2.779049397E0,-8.950610161E-1
1.351064844E0,8.008617759E-1,-2.768396854E0,-9.014526010E-1
1.353061302E0,8.413417935E-1,-2.758809328E0,-8.961263299E-1
1.355057760E0,8.860828280E-1,-2.747091532E0,-8.971915841E-1
1.357054219E0,9.276280999E-1,-2.739634752E0,-8.918652534E-1
1.359050677E0,9.713039398E-1,-2.730047226E0,-8.929305077E-1
1.361047135E0,1.010718822E0,-2.715133667E0,-8.844084144E-1
1.363043594E0,1.050133586E0,-2.699154615E0,-8.769515753E-1
1.365040052E0,1.090613604E0,-2.679979801E0,-8.652336597E-1
1.367036510E0,1.124701977E0,-2.649087191E0,-8.545809984E-1
1.369032969E0,1.157725215E0,-2.619259834E0,-8.428631425E-1
1.371029427E0,1.187552571E0,-2.585171461E0,-8.247536421E-1
1.373025885E0,1.218445182E0,-2.544691324E0,-8.087747097E-1
1.375022344E0,1.249337792E0,-2.499950409E0,-7.885347009E-1
1.377018802E0,1.274904132E0,-2.448817730E0,-7.714904547E-1
1.379015260E0,1.298339963E0,-2.394489288E0,-7.512504458E-1
1.381011719E0,1.319645166E0,-2.341226101E0,-7.299451828E-1
1.383008177E0,1.340950489E0,-2.280506134E0,-7.097051740E-1
1.385004635E0,1.355864167E0,-2.207002878E0,-6.841388345E-1
1.387001094E0,1.366516829E0,-2.136695385E0,-6.511157155E-1
1.388997552E0,1.378234744E0,-2.058931351E0,-6.191577911E-1
1.390994010E0,1.391017914E0,-1.973710179E0,-5.797430277E-1
1.392990469E0,1.402735829E0,-1.881032228E0,-5.350019932E-1
1.394986927E0,1.416584253E0,-1.792615414E0,-4.891956449E-1
1.396983385E0,1.427236795E0,-1.703133225E0,-4.401935041E-1
1.398979844E0,1.432563186E0,-1.606194258E0,-3.943871856E-1
1.400976302E0,1.441085219E0,-1.517777443E0,-3.421892822E-1
1.402972760E0,1.444281101E0,-1.428295255E0,-2.921218872E-1
1.404969219E0,1.437889457E0,-1.333486795E0,-2.473808080E-1
1.406965677E0,1.345211506E0,-1.140674114E0,-2.079660594E-1
1.408962135E0,1.188617826E0,-9.393393993E-1,-1.823997498E-1
1.410958594E0,1.000066161E0,-7.752888203E-1,-1.536376327E-1
1.412955052E0,7.806217670E-1,-6.197603345E-1,-1.344628781E-1
1.414951510E0,5.260237455E-1,-4.802108109E-1,-1.067660376E-1
1.416947969E0,2.629037201E-1,-3.864676058E-1,-7.906918973E-2
1.418944427E0,2.002362534E-2,-3.587707579E-1,-3.965443373E-2
1.420940989E0,-2.122038305E-1,-3.651623428E-1,1.890843036E-3
1.422937552E0,-4.348438978E-1,-3.768802583E-1,2.745716833E-2
1.424934114E0,-6.297871470E-1,-3.981855214E-1,5.621927977E-2
1.426930677E0,-7.895767093E-1,-4.333392084E-1,6.687191874E-2
1.428927239E0,-9.163430333E-1,-5.121687651E-1,6.580664963E-2
1.430923802E0,-1.013281941E0,-5.899329782E-1,5.195822567E-2
1.432920364E0,-1.077197671E0,-6.591750979E-1,2.106558718E-2
1.434916927E0,-1.119808197E0,-7.209603786E-1,-2.154495381E-2
1.436913489E0,-1.145374537E0,-7.742235661E-1,-7.374287397E-2
1.438910052E0,-1.147505164E0,-8.168340921E-1,-1.312671006E-1
1.440906614E0,-1.132591367E0,-8.583793640E-1,-1.919871122E-1
1.442903177E0,-1.093176723E0,-9.041857123E-1,-2.431197613E-1
1.444899739E0,-1.035652399E0,-9.574488997E-1,-2.899913490E-1
1.446896302E0,-9.557577968E-1,-1.009646654E0,-3.272755742E-1
1.448892864E0,-8.630798459E-1,-1.057583570E0,-3.549724221E-1
1.450889427E0,-7.693367004E-1,-1.073562503E0,-3.805387616E-1
1.452885989E0,-6.777240038E-1,-1.074627757E0,-3.965177238E-1
1.454882552E0,-5.861113667E-1,-1.055453062E0,-4.071703553E-1
1.456879114E0,-4.966291785E-1,-1.025625587E0,-3.954524398E-1
1.458875677E0,-4.103428423E-1,-9.926025867E-1,-3.943871856E-1
1.460872239E0,-3.219259679E-1,-9.499920607E-1,-3.794735074E-1
1.462868802E0,-2.409659475E-1,-8.903372884E-1,-3.602987528E-1
1.464865364E0,-1.653322428E-1,-8.242909312E-1,-3.251450658E-1
1.466861927E0,-8.863325417E-2,-7.507877946E-1,-2.889260948E-1
1.468858489E0,-1.619533449E-2,-6.730235219E-1,-2.463155538E-1
1.470855052E0,5.411206186E-2,-5.824761391E-1,-1.951829046E-1
1.472851614E0,1.276152283E-1,-4.951244891E-1,-1.419197321E-1
1.474848177E0,1.979226172E-1,-4.056423604E-1,-8.226498216E-2
1.476844739E0,2.778173983E-1,-3.118991554E-1,-2.474074438E-2
1.478841302E0,3.513205945E-1,-1.979159713E-1,2.639190480E-2
1.480837864E0,4.163016677E-1,-7.008435577E-2,6.900244206E-2
1.482834427E0,4.802174568E-1,5.987779424E-2,1.073519289E-1
1.484830989E0,5.505248308E-1,1.685346812E-1,1.488972157E-1
1.486827552E0,6.272237897E-1,2.686694562E-1,1.925730109E-1
1.488824114E0,7.007269859E-1,3.698695004E-1,2.362488210E-1
1.490820677E0,7.657080889E-1,4.657432139E-1,2.703372538E-1
1.492817239E0,8.349502087E-1,5.648126602E-1,3.012298942E-1
1.494813802E0,8.956702352E-1,6.596211195E-1,3.257309496E-1
1.496810364E0,9.468028545E-1,7.576254010E-1,3.406446576E-1
1.498806927E0,9.926091433E-1,8.566948771E-1,3.534277976E-1
1.500803489E0,1.034154534E0,9.536338449E-1,3.566235900E-1
1.502799948E0,1.070373535E0,1.055899262E0,3.470362425E-1
1.504796406E0,1.102331400E0,1.162425637E0,3.321225345E-1
1.506792864E0,1.135354638E0,1.250842452E0,3.193393648E-1
1.508789323E0,1.168377757E0,1.334998369E0,2.990993857E-1
1.510785781E0,1.199270487E0,1.408501506E0,2.767288387E-1
1.512782239E0,1.230163097E0,1.468156219E0,2.564888299E-1
1.514778698E0,1.254664183E0,1.525680542E0,2.405098826E-1
1.516775156E0,1.281295776E0,1.574682593E0,2.128130198E-1
1.518771614E0,1.301535726E0,1.615162611E0,1.861814409E-1
1.520768073E0,1.320710540E0,1.655642629E0,1.563540548E-1
1.522764531E0,1.334558964E0,1.687600613E0,1.297224760E-1
1.524760989E0,1.349472642E0,1.706775308E0,1.041561365E-1
1.526757448E0,1.356929421E0,1.725950003E0,8.817718178E-2
1.528753906E0,1.361190438E0,1.741929054E0,5.941507220E-2
1.530750364E0,1.362255812E0,1.755777478E0,3.704454005E-2
1.532746823E0,1.356929421E0,1.764299512E0,2.956106560E-3
1.534743281E0,1.338819981E0,1.767495275E0,-2.474074438E-2
1.536739739E0,1.320710540E0,1.757907987E0,-5.563338846E-2
1.538736198E0,1.296209455E0,1.730211139E0,-8.013445139E-2
1.540732656E0,1.274904132E0,1.685469985E0,-1.078313068E-1
1.542729114E0,1.249337792E0,1.632206798E0,-1.206144616E-1
1.544725573E0,1.215249419E0,1.582139492E0,-1.387239397E-1
1.546722031E0,1.190748334E0,1.511832118E0,-1.515070945E-1
1.548718489E0,1.157725215E0,1.437263608E0,-1.664207876E-1
1.550714948E0,1.125767231E0,1.360564709E0,-1.717471033E-1
1.552711406E0,1.090613604E0,1.288126707E0,-1.781386882E-1
1.554707864E0,1.059720874E0,1.205036163E0,-1.834650040E-1
1.556704323E0,1.024567246E0,1.128337145E0,-1.760081649E-1
1.558700781E0,9.840871096E-1,1.051638246E0,-1.792039573E-1
1.560697239E0,9.457376003E-1,9.792001843E-1,-1.823997498E-1
1.562693698E0,9.084534049E-1,9.078275561E-1,-1.728123724E-1
1.564690156E0,8.669080734E-1,8.364548683E-1,-1.717471033E-1
1.566686614E0,8.328196406E-1,7.736043334E-1,-1.589639485E-1
1.568683073E0,8.051227927E-1,7.160801291E-1,-1.504418403E-1
1.570679531E0,7.667733431E-1,6.574906111E-1,-1.312671006E-1
1.572675989E0,7.433375120E-1,5.978358388E-1,-1.099618301E-1
1.574672448E0,7.167059183E-1,5.467032194E-1,-7.267760485E-2
1.576668906E0,6.932701468E-1,5.115495324E-1,-4.817654192E-2
1.578665364E0,6.708996296E-1,4.838526845E-1,-1.728389971E-2
1.580661823E0,6.559859514E-1,4.700042605E-1,9.347687475E-3
1.582658281E0,6.410722136E-1,4.700042605E-1,3.491400927E-2
1.584654739E0,6.336153746E-1,4.753305614E-1,5.834981054E-2
1.586651198E0,6.304196119E-1,4.870484769E-1,7.858981192E-2
1.588647656E0,6.400069594E-1,5.115495324E-1,9.669928998E-2
1.590644114E0,6.591817141E-1,5.371158123E-1,1.148087755E-1
1.592640573E0,6.783564687E-1,5.722694993E-1,1.243961453E-1
1.594637031E0,7.007269859E-1,6.074232459E-1,1.339835227E-1
1.596633489E0,7.241628170E-1,6.479032636E-1,1.382445842E-1
1.598629948E0,7.507943511E-1,6.894485354E-1,1.414403617E-1
1.600626406E0,7.784911990E-1,7.363201380E-1,1.435709000E-1
1.602622864E0,8.040575385E-1,7.863875031E-1,1.329182684E-1
1.604619323E0,8.264280558E-1,8.343243599E-1,1.254614145E-1
1.606615781E0,8.424070477E-1,8.748043776E-1,1.094824597E-1
1.608612239E0,8.583859801E-1,9.131538272E-1,9.350350499E-2
1.610608698E0,8.647775650E-1,9.504380822E-1,6.687191874E-2
1.612605156E0,8.679733872E-1,9.845265150E-1,4.556664824E-2
1.614601614E0,8.647775650E-1,1.013288736E0,1.254347805E-2
1.616598073E0,8.647775650E-1,1.030332923E0,-1.515337266E-2
1.618594531E0,8.519943953E-1,1.045246601E0,-5.137233436E-2
1.620590989E0,8.328196406E-1,1.050572991E0,-8.333024383E-2
1.622587552E0,8.136449456E-1,1.051638246E0,-1.174186766E-1
1.624584114E0,7.923396826E-1,1.051638246E0,-1.536376327E-1
1.626580677E0,7.614470124E-1,1.038855076E0,-1.919871122E-1
1.628577239E0,7.348154187E-1,1.020745635E0,-2.250102758E-1
1.630573802E0,7.007269859E-1,1.001570821E0,-2.537724078E-1
1.632570364E0,6.708996296E-1,9.813306928E-1,-2.931871414E-1
1.634566927E0,6.432027817E-1,9.600254297E-1,-3.187534809E-1
1.636563489E0,6.144406199E-1,9.365896583E-1,-3.539071679E-1
1.638560052E0,5.888743401E-1,9.174149036E-1,-3.784082234E-1
1.640556614E0,5.707648396E-1,8.961096406E-1,-4.039745629E-1
1.642553177E0,5.547859073E-1,8.833264709E-1,-4.338019490E-1
1.644549739E0,5.398721695E-1,8.726738691E-1,-4.540419281E-1
1.646546302E0,5.334806442E-1,8.556296229E-1,-4.764124751E-1
1.648542864E0,5.356111526E-1,8.396506906E-1,-4.923914373E-1
1.650539427E0,5.388069153E-1,8.258022666E-1,-5.073051453E-1
1.652535989E0,5.473290682E-1,8.108885288E-1,-5.115661621E-1
1.654532552E0,5.558511615E-1,7.981054187E-1,-5.211535692E-1
1.656529114E0,5.665037632E-1,7.842569947E-1,-5.222188234E-1
1.658525677E0,5.760911703E-1,7.736043334E-1,-5.200882554E-1
1.660522239E0,5.771564245E-1,7.608211637E-1,-5.190230012E-1
1.662518802E0,5.814175010E-1,7.491032481E-1,-5.115661621E-1
1.664515364E0,5.718300939E-1,7.320590615E-1,-5.073051453E-1
1.666511927E0,5.654385090E-1,7.214064002E-1,-4.945219457E-1
1.668508489E0,5.515900850E-1,7.032969594E-1,-4.838693142E-1
1.670505052E0,5.356111526E-1,6.894485354E-1,-4.646945894E-1
1.672501614E0,5.206974745E-1,6.798611283E-1,-4.412587881E-1
1.674498177E0,4.961963892E-1,6.702737808E-1,-4.178229868E-1
1.676494739E0,4.695648253E-1,6.596211195E-1,-3.911913931E-1
1.678491302E0,4.482595623E-1,6.532295346E-1,-3.645597994E-1
1.680487864E0,4.226932526E-1,6.447074413E-1,-3.368629515E-1
1.682484427E0,3.928658664E-1,6.351200938E-1,-3.155576885E-1
1.684480989E0,3.672995269E-1,6.223369241E-1,-2.910566330E-1
1.686477552E0,3.417332172E-1,6.052926779E-1,-2.718818784E-1
1.688474114E0,3.161668777E-1,5.882484913E-1,-2.484460622E-1
1.690470677E0,2.948616147E-1,5.744000673E-1,-2.260755450E-1
1.692467239E0,2.756868601E-1,5.594863892E-1,-2.111618519E-1
1.694463802E0,2.586426437E-1,5.435073972E-1,-1.898565888E-1
1.696460364E0,2.458595037E-1,5.222021341E-1,-1.781386882E-1
1.698456927E0,2.362721115E-1,4.998316169E-1,-1.696165800E-1
1.700453489E0,2.213584185E-1,4.763958454E-1,-1.610944718E-1
1.702450052E0,2.096405178E-1,4.497642517E-1,-1.568334103E-1
1.704446510E0,2.032489330E-1,4.231326580E-1,-1.547028869E-1
1.706442969E0,1.957920939E-1,3.933052719E-1,-1.557681561E-1
1.708439427E0,1.904657781E-1,3.656084239E-1,-1.589639485E-1
1.710435885E0,1.808784008E-1,3.336505294E-1,-1.632249951E-1
1.712432344E0,1.659647077E-1,3.027578890E-1,-1.642902642E-1
1.714428802E0,1.563773453E-1,2.622778714E-1,-1.674860567E-1
1.716425260E0,1.393331289E-1,2.271241695E-1,-1.749428958E-1
1.718421719E0,1.212236509E-1,1.898399442E-1,-1.792039573E-1
1.720418177E0,1.031141803E-1,1.514904648E-1,-1.845302731E-1
1.722414635E0,8.606996387E-2,1.163367555E-1,-1.909218431E-1
1.724411094E0,6.476469338E-2,8.118306100E-2,-2.026397437E-1
1.726407552E0,4.345942289E-2,4.602937028E-2,-2.132923901E-1
1.728404010E0,2.108888887E-2,6.614620797E-3,-2.282060683E-1
1.730400469E0,4.044672474E-3,-2.853907645E-2,-2.409892380E-1
1.732396927E0,-1.619533449E-2,-5.943172053E-2,-2.569682002E-1
1.734393385E0,-3.217428923E-2,-8.925910294E-2,-2.761429250E-1
1.736389844E0,-4.282692075E-2,-1.201517433E-1,-2.953176796E-1
1.738386302E0,-5.454482138E-2,-1.467833221E-1,-3.102313578E-1
1.740382760E0,-6.306692958E-2,-1.691538543E-1,-3.272755742E-1
1.742379219E0,-7.158903778E-2,-1.883285940E-1,-3.421892822E-1
1.744375677E0,-7.904587686E-2,-2.000464946E-1,-3.549724221E-1
1.746372135E0,-8.543746173E-2,-2.064380795E-1,-3.645597994E-1
1.748368594E0,-8.969851583E-2,-2.064380795E-1,-3.752124310E-1
1.750365052E0,-9.928588569E-2,-2.064380795E-1,-3.784082234E-1
1.752361510E0,-1.110037863E-1,-1.925896555E-1,-3.794735074E-1
1.754357969E0,-1.195258945E-1,-1.755454391E-1,-3.847998083E-1
1.756354427E0,-1.344396025E-1,-1.521096379E-1,-3.826692700E-1
1.758350885E0,-1.418964416E-1,-1.254780591E-1,-3.826692700E-1
1.760347344E0,-1.472227573E-1,-9.778121114E-2,-3.805387616E-1
1.762343802E0,-1.546796113E-1,-6.795383245E-2,-3.688208461E-1
1.764340260E0,-1.653322428E-1,-4.238750413E-2,-3.656250834E-1
1.766336719E0,-1.759848744E-1,-1.042959560E-2,-3.528419137E-1
1.768333177E0,-1.791806668E-1,2.791989036E-2,-3.453850746E-1
1.770329635E0,-1.855722517E-1,6.307358295E-2,-3.389934897E-1
1.772326094E0,-1.898332983E-1,9.716201574E-2,-3.368629515E-1
1.774322552E0,-1.919638366E-1,1.312504560E-1,-3.315366507E-1
1.776319010E0,-1.908985674E-1,1.674694121E-1,-3.262103200E-1
1.778315469E0,-1.887680441E-1,1.994273216E-1,-3.272755742E-1
1.780311927E0,-1.781153977E-1,2.313852310E-1,-3.251450658E-1
1.782308385E0,-1.770501435E-1,2.601473331E-1,-3.368629515E-1
1.784304844E0,-1.717238277E-1,2.857136726E-1,-3.411239982E-1
1.786301302E0,-1.674627662E-1,3.155410588E-1,-3.560377061E-1
1.788297760E0,-1.536143422E-1,3.474989533E-1,-3.645597994E-1
1.790294219E0,-1.429617107E-1,3.869136870E-1,-3.720166385E-1
1.792290677E0,-1.365701258E-1,4.316547811E-1,-3.869303465E-1
1.794287135E0,-1.259174794E-1,4.678737223E-1,-4.050398171E-1
1.796283594E0,-1.173953712E-1,5.126147866E-1,-4.146271944E-1
1.798280052E0,-1.184606329E-1,5.498989820E-1,-4.252798259E-1
1.800276510E0,-1.237869486E-1,5.797263980E-1,-4.274103642E-1
1.802272969E0,-1.227216870E-1,6.138148308E-1,-4.359324574E-1
1.804269427E0,-1.248522103E-1,6.457726955E-1,-4.465850890E-1
1.806265885E0,-1.248522103E-1,6.766653657E-1,-4.551072121E-1
1.808262344E0,-1.248522103E-1,7.096885443E-1,-4.689556360E-1
1.810258802E0,-1.291132718E-1,7.469727397E-1,-4.796082675E-1
1.812255260E0,-1.280480027E-1,7.768000960E-1,-4.891956449E-1
1.814251719E0,-1.259174794E-1,8.055622578E-1,-4.945219457E-1
1.816248177E0,-1.248522103E-1,8.311285377E-1,-5.083703995E-1
1.818244635E0,-1.248522103E-1,8.534991145E-1,-5.190230012E-1
1.820241094E0,-1.195258945E-1,8.737391233E-1,-5.243493319E-1
1.822237552E0,-1.141995788E-1,8.886528015E-1,-5.360672474E-1
1.824234010E0,-1.024816781E-1,8.993054032E-1,-5.477851033E-1
1.826230469E0,-8.650272340E-2,9.078275561E-1,-5.531114340E-1
1.828226927E0,-6.839324534E-2,9.131538272E-1,-5.669598579E-1
1.830223489E0,-4.815323651E-2,9.259369969E-1,-5.818735361E-1
1.832220052E0,-3.537007794E-2,9.238064885E-1,-6.031788588E-1
1.834216614E0,-2.152165212E-2,9.184801579E-1,-6.308757067E-1
1.836213177E0,-9.803753346E-3,9.195454121E-1,-6.628335714E-1
1.838209739E0,-5.542699713E-3,9.078275561E-1,-6.947914958E-1
1.840206302E0,1.914145425E-3,8.961096406E-1,-7.331410050E-1
1.842202864E0,1.914145425E-3,8.694780469E-1,-7.693599463E-1
1.844199427E0,1.256678067E-2,8.417811990E-1,-8.066441417E-1
1.846195989E0,1.789309829E-2,8.130190969E-1,-8.471241593E-1
1.848192552E0,1.895836182E-2,7.821264267E-1,-8.822779059E-1
1.850189114E0,2.534994297E-2,7.416464090E-1,-9.153010249E-1
1.852185677E0,2.748047002E-2,7.086232305E-1,-9.472589493E-1
1.854182239E0,2.961099707E-2,6.734695435E-1,-9.738905430E-1
1.856178802E0,3.067625873E-2,6.372506022E-1,-9.994568825E-1
1.858175364E0,2.641520463E-2,6.095537543E-1,-1.025023222E0
1.860171927E0,2.215415239E-2,5.733348131E-1,-1.047393799E0
1.862168489E0,1.682783477E-2,5.467032194E-1,-1.060176969E0
1.864165052E0,1.682783477E-2,5.264632106E-1,-1.072960138E0
1.866161614E0,2.002362534E-2,5.030274391E-1,-1.081482172E0
1.868158177E0,3.600257635E-2,4.742653072E-1,-1.085743308E0
1.870154739E0,5.304679275E-2,4.540252984E-1,-1.083612800E0
1.872151302E0,7.115627825E-2,4.359158278E-1,-1.079351664E0
1.874147864E0,9.139628708E-2,4.241979122E-1,-1.071894884E0
1.876144427E0,1.190931275E-1,4.050231874E-1,-1.065503240E0
1.878140989E0,1.425289214E-1,3.911747634E-1,-1.054850578E0
1.880137552E0,1.702257693E-1,3.858484328E-1,-1.041002154E0
1.882134114E0,1.915310472E-1,3.762610555E-1,-1.028218985E0
1.884130677E0,2.117710412E-1,3.666737080E-1,-1.012240052E0
1.886127239E0,2.320110500E-1,3.506947458E-1,-1.000522137E0
1.888123802E0,2.447942197E-1,3.389768302E-1,-9.792168736E-1
1.890120364E0,2.597079277E-1,3.166063130E-1,-9.568462968E-1
1.892116927E0,2.778173983E-1,2.921052575E-1,-9.248884320E-1
1.894113489E0,2.948616147E-1,2.761262953E-1,-9.025178552E-1
1.896110052E0,3.193626702E-1,2.612126172E-1,-8.865389228E-1
1.898106614E0,3.417332172E-1,2.537557483E-1,-8.620378971E-1
1.900103177E0,3.683648109E-1,2.431031317E-1,-8.524504900E-1
1.902099739E0,3.907353282E-1,2.335157543E-1,-8.439283967E-1
1.904096302E0,4.194974601E-1,2.217978537E-1,-8.332757354E-1
1.906092864E0,4.493248165E-1,2.143410146E-1,-8.300799727E-1
1.908089427E0,4.802174568E-1,2.068841606E-1,-8.258188963E-1
1.910085885E0,5.175016522E-1,1.983620524E-1,-8.236883879E-1
1.912082344E0,5.537205935E-1,1.919704825E-1,-8.204925656E-1
1.914078802E0,5.942006111E-1,1.855788976E-1,-8.215578794E-1
1.916075260E0,6.442680359E-1,1.823831052E-1,-8.236883879E-1
1.918071719E0,6.975312233E-1,1.664041579E-1,-8.311452270E-1
1.920068177E0,7.486638427E-1,1.600125730E-1,-8.396673203E-1
1.922064635E0,7.955354452E-1,1.504251957E-1,-8.449936509E-1
1.924061094E0,8.392112255E-1,1.461641490E-1,-8.535157442E-1
1.926057552E0,8.722344041E-1,1.504251957E-1,-8.577768207E-1
1.928054010E0,9.009965062E-1,1.557515115E-1,-8.694947362E-1
1.930050469E0,9.223018289E-1,1.568167806E-1,-8.662989140E-1
1.932046927E0,9.414765239E-1,1.610778272E-1,-8.684294820E-1
1.934043385E0,9.563902617E-1,1.600125730E-1,-8.609725833E-1
1.936039844E0,9.670428634E-1,1.536209881E-1,-8.567115664E-1
1.938036302E0,9.766302705E-1,1.504251957E-1,-8.481894732E-1
1.940032760E0,9.819565415E-1,1.387072951E-1,-8.417978883E-1
1.942029219E0,9.851523638E-1,1.333809793E-1,-8.386020660E-1
1.944025677E0,9.819565415E-1,1.312504560E-1,-8.311452270E-1
1.946022135E0,9.808912873E-1,1.163367555E-1,-8.332757354E-1
1.948018594E0,9.723691940E-1,1.003578082E-1,-8.364715576E-1
1.950015052E0,9.574555159E-1,9.396622330E-2,-8.386020660E-1
1.952011510E0,9.404112697E-1,9.077043086E-2,-8.460589051E-1
1.954007969E0,9.180407524E-1,8.118306100E-2,-8.513852358E-1
1.956004427E0,8.946049213E-1,7.585674524E-2,-8.577768207E-1
1.958000885E0,8.679733872E-1,5.881253257E-2,-8.662989140E-1
1.959997344E0,8.434723020E-1,3.963778913E-2,-8.662989140E-1
1.961993802E0,8.125796318E-1,1.833251864E-2,-8.758863211E-1
1.963990260E0,7.848827839E-1,-1.042959560E-2,-8.790820837E-1
1.965986719E0,7.539901733E-1,-3.599591926E-2,-8.854736686E-1
1.967983177E0,7.188364863E-1,-5.836645514E-2,-8.854736686E-1
1.969979635E0,6.847480536E-1,-8.499804884E-2,-8.822779059E-1
1.971976094E0,6.517248750E-1,-1.137601659E-1,-8.801473379E-1
1.973972552E0,6.165711880E-1,-1.371959448E-1,-8.748210073E-1
1.975969010E0,5.899395943E-1,-1.595664918E-1,-8.769515753E-1
1.977965469E0,5.643732548E-1,-1.861980706E-1,-8.716252446E-1
1.979961927E0,5.377416611E-1,-2.011117637E-1,-8.726904988E-1
1.981958385E0,5.153711438E-1,-2.213517725E-1,-8.726904988E-1
1.983954844E0,4.961963892E-1,-2.447875738E-1,-8.844084144E-1
1.985951302E0,4.812827408E-1,-2.692886293E-1,-8.897347450E-1
1.987947760E0,4.706301093E-1,-2.873980999E-1,-8.939957619E-1
1.989944219E0,4.589121938E-1,-3.001812696E-1,-9.014526010E-1
1.991940677E0,4.503901005E-1,-3.150949478E-1,-9.089094400E-1
1.993937135E0,4.344111383E-1,-3.332044482E-1,-9.184968472E-1
1.995933594E0,4.226932526E-1,-3.427918255E-1,-9.216926098E-1
1.997930052E0,4.067142904E-1,-3.491833806E-1,-9.248884320E-1
1.999926510E0,3.918006122E-1,-3.534444571E-1,-9.344757795E-1
2.001922969E0,3.790174425E-1,-3.598360419E-1,-9.366063476E-1
2.003919427E0,3.694300652E-1,-3.651623428E-1,-9.515200257E-1
2.005915885E0,3.491900563E-1,-3.630318344E-1,-9.611073732E-1
2.007912344E0,3.385374248E-1,-3.598360419E-1,-9.643031955E-1
2.009908802E0,3.321458399E-1,-3.683581352E-1,-9.621726274E-1
2.011905260E0,3.321458399E-1,-3.864676058E-1,-9.376716018E-1
2.013901719E0,3.289500475E-1,-3.779455125E-1,-9.504547715E-1
2.015898177E0,3.246890008E-1,-3.662275970E-1,-9.760210514E-1
2.017894635E0,3.236237466E-1,-3.502486646E-1,-9.898694754E-1
2.019891094E0,3.236237466E-1,-3.353349566E-1,-1.001587510E0
2.021887552E0,3.385374248E-1,-3.342697024E-1,-1.016501188E0
2.023884010E0,3.609079421E-1,-3.332044482E-1,-1.036741138E0
2.025880469E0,3.864742815E-1,-3.353349566E-1,-1.051654816E0
2.027876927E0,4.152363837E-1,-3.406612873E-1,-1.066568494E0
2.029873385E0,4.471943080E-1,-3.374654949E-1,-1.069764376E0
2.031869844E0,4.759564102E-1,-3.289434016E-1,-1.090004325E0
2.033866302E0,5.143058896E-1,-3.236170709E-1,-1.108113766E0
2.035862760E0,5.441332459E-1,-2.991160154E-1,-1.120896935E0
2.037859219E0,5.675690770E-1,-2.820717990E-1,-1.150724292E0
2.039855781E0,5.888743401E-1,-2.575707436E-1,-1.170964360E0
2.041852344E0,6.005921960E-1,-2.298738807E-1,-1.200791717E0
2.043848906E0,6.123101115E-1,-2.064380795E-1,-1.225292802E0
2.045845469E0,6.197669506E-1,-1.776759624E-1,-1.247663379E0
2.047842031E0,6.187016964E-1,-1.563706994E-1,-1.266838074E0
2.049838594E0,6.218974590E-1,-1.318696290E-1,-1.281751752E0
2.051835156E0,6.229627728E-1,-1.222822741E-1,-1.295600176E0
2.053831719E0,6.187016964E-1,-1.126948968E-1,-1.308383346E0
2.055828281E0,6.187016964E-1,-1.094991043E-1,-1.322231770E0
2.057824844E0,6.197669506E-1,-1.063033193E-1,-1.331819177E0
2.059821406E0,6.165711880E-1,-1.009769961E-1,-1.339275956E0
2.061817969E0,6.133753657E-1,-1.105643734E-1,-1.349928617E0
2.063814531E0,6.080490351E-1,-1.158906892E-1,-1.360581279E0
2.065811094E0,6.005921960E-1,-1.212170050E-1,-1.369103312E0
2.067807656E0,5.878090858E-1,-1.212170050E-1,-1.378690720E0
2.069804219E0,5.739606023E-1,-1.158906892E-1,-1.384017110E0
2.071800781E0,5.515900850E-1,-1.158906892E-1,-1.390408635E0
2.073797344E0,5.302848220E-1,-1.126948968E-1,-1.395734906E0
2.075793906E0,5.057837367E-1,-1.116296351E-1,-1.403191805E0
2.077790469E0,4.812827408E-1,-1.116296351E-1,-1.405322313E0
2.079787031E0,4.471943080E-1,-1.084338427E-1,-1.407452822E0
2.081783594E0,4.141711295E-1,-1.009769961E-1,-1.410648704E0
2.083780156E0,3.832784891E-1,-1.041727886E-1,-1.409583330E0
2.085776719E0,3.481248021E-1,-1.009769961E-1,-1.413844466E0
2.087773281E0,3.129710853E-1,-9.671594948E-2,-1.412779212E0
2.089769844E0,2.778173983E-1,-9.671594948E-2,-1.415974975E0
2.091766406E0,2.394679040E-1,-8.925910294E-2,-1.420235991E0
2.093762969E0,2.032489330E-1,-7.114962488E-2,-1.433019161E0
2.095759531E0,1.659647077E-1,-6.156224385E-2,-1.436214924E0
2.097756094E0,1.233541891E-1,-5.730118975E-2,-1.451128602E0
2.099752656E0,8.180890977E-2,-5.836645514E-2,-1.461781263E0
2.101749219E0,3.387205303E-2,-5.730118975E-2,-1.474564433E0
2.103745781E0,-1.086901687E-2,-6.262751669E-2,-1.487347603E0
2.105742344E0,-5.134902894E-2,-7.541067153E-2,-1.500130773E0
2.107738906E0,-9.076377749E-2,-8.180225641E-2,-1.517174959E0
2.109735469E0,-1.280480027E-1,-9.032436460E-2,-1.536349773E0
2.111732031E0,-1.653322428E-1,-1.073685810E-1,-1.555524468E0
2.113728594E0,-1.994206756E-1,-1.201517433E-1,-1.573633909E0
2.115725156E0,-2.335091084E-1,-1.382612139E-1,-1.597069740E0
2.117721614E0,-2.558796406E-1,-1.542401612E-1,-1.610918164E0
2.119718073E0,-2.803806961E-1,-1.659580618E-1,-1.625831842E0
2.121714531E0,-3.059470057E-1,-1.702191234E-1,-1.634353995E0
2.123710989E0,-3.315133452E-1,-1.691538543E-1,-1.648202419E0
2.125707448E0,-3.613407016E-1,-1.670233309E-1,-1.652463436E0
2.127703906E0,-3.932986259E-1,-1.691538543E-1,-1.668442369E0
2.129700364E0,-4.231260121E-1,-1.776759624E-1,-1.665246606E0
2.131696823E0,-4.593449533E-1,-1.830022782E-1,-1.667377114E0
2.133693281E0,-4.923681319E-1,-1.851328164E-1,-1.652463436E0
2.135689739E0,-5.147386789E-1,-1.957854480E-1,-1.627962351E0
2.137686198E0,-5.189997554E-1,-2.128296643E-1,-1.598134995E0
2.139682656E0,-4.923681319E-1,-2.352001965E-1,-1.552328706E0
2.141679114E0,-4.550839067E-1,-2.437223047E-1,-1.511848688E0
2.143675573E0,-4.486923218E-1,-1.936549246E-1,-1.471368670E0
2.145672031E0,-4.423007369E-1,-1.830022782E-1,-1.451128602E0
2.147668489E0,-4.305828512E-1,-1.830022782E-1,-1.434084415E0
2.149664948E0,-4.114080966E-1,-1.510443836E-1,-1.413844466E0
2.151661406E0,-3.996902108E-1,-8.286751807E-2,-1.394669652E0
2.153657864E0,-4.007554650E-1,-3.066960350E-2,-1.364842296E0
2.155654323E0,-4.050165117E-1,3.324620798E-2,-1.363777041E0
2.157650781E0,-4.199302197E-1,1.280546635E-1,-1.372299194E0
2.159647239E0,-4.444312751E-1,1.951662600E-1,-1.384017110E0
2.161643698E0,-4.774544537E-1,2.548210323E-1,-1.370168686E0
2.163640156E0,-4.976944327E-1,2.953010499E-1,-1.342471838E0
2.165636614E0,-5.126081705E-1,3.336505294E-1,-1.303057075E0
2.167633073E0,-5.168692470E-1,3.443031609E-1,-1.264707565E0
2.169629531E0,-5.179345012E-1,3.304547369E-1,-1.229553819E0
2.171625989E0,-5.232607722E-1,3.176715672E-1,-1.184812784E0
2.173622448E0,-5.552186966E-1,3.091494739E-1,-1.137941241E0
2.175618906E0,-6.095471382E-1,3.293894827E-1,-1.105983257E0
2.177615364E0,-6.649408340E-1,3.421726227E-1,-1.087873816E0
2.179611823E0,-7.224650979E-1,3.379115760E-1,-1.095330596E0
2.181608281E0,-7.895767093E-1,3.304547369E-1,-1.103852749E0
2.183604739E0,-8.694714308E-1,3.400421143E-1,-1.108113766E0
2.185601198E0,-9.600188732E-1,3.688042164E-1,-1.098526478E0
2.187597656E0,-1.056957722E0,4.007621408E-1,-1.070829630E0
2.189594114E0,-1.151766181E0,4.284589887E-1,-1.056981206E0
2.191590573E0,-1.238052487E0,4.348505735E-1,-1.044198036E0
2.193587031E0,-1.320077777E0,4.199368656E-1,-1.029284358E0
2.195583489E0,-1.389319897E0,3.783915937E-1,-1.027153730E0
2.197579948E0,-1.462823153E0,3.624126315E-1,-1.012240052E0
2.199576406E0,-1.538456798E0,3.464336991E-1,-1.001587510E0
2.201572864E0,-1.615155816E0,3.411073685E-1,-9.930652976E-1
2.203569323E0,-1.679071546E0,3.134105206E-1,-9.856084585E-1
2.205565781E0,-1.732334733E0,2.441683859E-1,-9.834778905E-1
2.207562239E0,-1.772814751E0,1.695999503E-1,-9.802821279E-1
2.209558698E0,-1.816490650E0,9.077043086E-2,-9.706947207E-1
2.211555156E0,-1.862296939E0,5.348621681E-2,-9.515200257E-1
2.213551614E0,-1.898515940E0,3.418829991E-3,-9.312800169E-1
2.215548073E0,-1.937930584E0,-3.812645003E-2,-9.035831690E-1
2.217544531E0,-1.958170652E0,-9.991173446E-2,-8.886694312E-1
2.219540989E0,-1.960301161E0,-1.425222754E-1,-8.822779059E-1
2.221537448E0,-1.960301161E0,-1.702191234E-1,-8.673641682E-1
2.223533906E0,-1.951779008E0,-1.957854480E-1,-8.577768207E-1
2.225530364E0,-1.945387483E0,-2.106991410E-1,-8.396673203E-1
2.227526823E0,-1.933669567E0,-2.266780883E-1,-8.247536421E-1
2.229523281E0,-1.924082160E0,-1.893938631E-1,-7.959915400E-1
2.231519739E0,-1.900646448E0,-1.776759624E-1,-7.714904547E-1
2.233516198E0,-1.870819092E0,-1.755454391E-1,-7.427283525E-1
2.235512656E0,-1.847383261E0,-1.212170050E-1,-7.086399198E-1
2.237509114E0,-1.801576853E0,-5.090961233E-2,-6.745514870E-1
2.239505573E0,-1.731269479E0,2.046304569E-2,-6.340714693E-1
2.241502031E0,-1.662027359E0,8.757464588E-2,-5.946567059E-1
2.243498489E0,-1.586393714E0,1.387072951E-1,-5.413935781E-1
2.245495052E0,-1.528869390E0,2.537557483E-1,-4.913261533E-1
2.247491614E0,-1.457496762E0,3.783915937E-1,-4.444545805E-1
2.249488177E0,-1.380797863E0,4.604168832E-1,-3.954524398E-1
2.251484739E0,-1.301968336E0,5.893137455E-1,-3.400587440E-1
2.253481302E0,-1.225269318E0,7.373853922E-1,-3.006439805E-1
2.255477864E0,-1.120873570E0,8.694780469E-1,-2.793387175E-1
2.257474427E0,-9.930419922E-1,9.376549125E-1,-2.761429250E-1
2.259470989E0,-8.524272442E-1,9.195454121E-1,-2.686860859E-1
2.261467552E0,-7.160735130E-1,9.067622423E-1,-2.665555477E-1
2.263464114E0,-5.871766210E-1,9.238064885E-1,-2.676208317E-1
2.265460677E0,-4.646712840E-1,9.610906839E-1,-2.665555477E-1
2.267457239E0,-3.432312310E-1,9.962444305E-1,-2.772082090E-1
2.269453802E0,-2.153996229E-1,1.033528805E0,-2.953176796E-1
2.271450364E0,-8.224166930E-2,1.034594059E0,-3.091661036E-1
2.273446927E0,5.091626942E-2,1.015419245E0,-3.176881969E-1
2.275443489E0,1.819436699E-1,9.823960066E-1,-3.070355654E-1
2.277440052E0,3.033837378E-1,9.270022511E-1,-2.740124166E-1
2.279436614E0,4.045837522E-1,8.694780469E-1,-2.250102758E-1
2.281433177E0,4.844785333E-1,7.874527574E-1,-1.387239397E-1
2.283429739E0,5.451985002E-1,7.139495611E-1,-3.858917207E-2
2.285426302E0,6.016575098E-1,6.297937632E-1,6.580664963E-2
2.287422864E0,6.304196119E-1,5.136800408E-1,1.616803706E-1
2.289419427E0,6.474637985E-1,3.815873861E-1,2.469014525E-1
2.291415989E0,6.517248750E-1,2.313852310E-1,3.150783181E-1
2.293412552E0,6.368111968E-1,7.798727602E-2,3.598193824E-1
2.295409114E0,6.091143489E-1,-4.451802745E-2,3.928425610E-1
2.297405677E0,5.643732548E-1,-1.265433133E-1,4.013646841E-1
2.299402239E0,5.121753216E-1,-2.341349274E-1,3.960383534E-1
2.301398802E0,4.514553547E-1,-3.619665504E-1,3.672762513E-1
2.303395364E0,3.928658664E-1,-4.866023958E-1,3.150783181E-1
2.305391927E0,3.225584626E-1,-6.272171736E-1,2.607498765E-1
2.307388489E0,2.373373657E-1,-7.752888203E-1,2.064214498E-1
2.309385052E0,1.372026056E-1,-9.308173060E-1,1.510277390E-1
2.311381614E0,4.239416122E-2,-1.094867826E0,8.391613513E-2
2.313378177E0,-6.626272202E-2,-1.272766829E0,3.065295890E-2
2.315374739E0,-1.930290908E-1,-1.451731086E0,8.255795110E-4
2.317371302E0,-3.304480612E-1,-1.632825851E0,5.086633377E-3
2.319367864E0,-4.699975848E-1,-1.810724854E0,1.147821452E-2
2.321364427E0,-6.138082147E-1,-1.980101705E0,3.704454005E-2
2.323360989E0,-7.533577085E-1,-2.138826132E0,6.261086464E-2
2.325357448E0,-8.822546005E-1,-2.297550201E0,8.817718178E-2
2.327353906E0,-9.941073060E-1,-2.438165188E0,1.105477214E-1
2.329350364E0,-1.096372485E0,-2.587301970E0,1.371793151E-1
2.331346823E0,-1.183724046E0,-2.736438751E0,1.563540548E-1
2.333343281E0,-1.266814590E0,-2.862139940E0,1.691372246E-1
2.335339739E0,-1.332860947E0,-2.979318857E0,1.893772334E-1
2.337336198E0,-1.390385151E0,-3.081584215E0,1.947035491E-1
2.339332656E0,-1.428734660E0,-3.175327539E0,2.032256573E-1
2.341329114E0,-1.459627271E0,-3.247765303E0,2.074867040E-1
2.343325573E0,-1.470279932E0,-3.305289507E0,2.128130198E-1
2.345322031E0,-1.462823153E0,-3.347900152E0,2.213351279E-1
2.347318489E0,-1.442583084E0,-3.359617949E0,2.245309204E-1
2.349314948E0,-1.398907304E0,-3.345769644E0,2.341182977E-1
2.351311406E0,-1.339252591E0,-3.301028490E0,2.405098826E-1
2.353307864E0,-1.270010352E0,-3.232851744E0,2.479667217E-1
2.355304323E0,-1.187985063E0,-3.140173674E0,2.586193681E-1
2.357300781E0,-1.095307231E0,-3.020864248E0,2.639456689E-1
2.359297239E0,-9.941073060E-1,-2.888771534E0,2.745983005E-1
2.361293698E0,-8.886461854E-1,-2.728981972E0,2.756635845E-1
2.363290156E0,-7.757282257E-1,-2.552148342E0,2.735330462E-1
2.365286614E0,-6.681366563E-1,-2.350813389E0,2.682067156E-1
2.367283073E0,-5.520229340E-1,-2.124977589E0,2.543582916E-1
2.369279531E0,-4.433660209E-1,-1.889554381E0,2.458361983E-1
2.371275989E0,-3.357743919E-1,-1.636021614E0,2.309225053E-1
2.373272448E0,-2.303133160E-1,-1.378227830E0,2.096172273E-1
2.375268906E0,-1.355048567E-1,-1.116173029E0,1.989645958E-1
2.377265364E0,-5.454482138E-2,-8.498572707E-1,1.744635403E-1
2.379261823E0,2.002362534E-2,-5.856719017E-1,1.552888006E-1
2.381258281E0,8.713522553E-2,-3.278781176E-1,1.435709000E-1
2.383254739E0,1.457247138E-1,-7.754120231E-2,1.339835227E-1
2.385251198E0,1.883352548E-1,1.589473039E-1,1.222656146E-1
2.387247656E0,2.256194800E-1,3.815873861E-1,1.073519289E-1
2.389244114E0,2.533163428E-1,5.839874148E-1,1.009603515E-1
2.391240573E0,2.746216059E-1,7.672127485E-1,9.882982075E-2
2.393237031E0,2.863395214E-1,9.248717427E-1,8.924245089E-2
2.395233489E0,2.884700298E-1,1.062290907E0,7.965507358E-2
2.397229948E0,2.810131907E-1,1.180535078E0,7.326349616E-2
2.399226406E0,2.660995126E-1,1.263625622E0,6.048033386E-2
2.401222864E0,2.426636964E-1,1.321149945E0,5.089296401E-2
2.403219323E0,2.139015794E-1,1.356303573E0,3.704454005E-2
2.405215781E0,1.755520850E-1,1.362695217E0,1.573926955E-2
2.407212239E0,1.254847050E-1,1.345650911E0,-1.304947771E-3
2.409208698E0,6.689522415E-2,1.326476216E0,-2.474074438E-2
2.411205156E0,-4.477436189E-3,1.288126707E0,-5.350286514E-2
2.413201614E0,-7.691535354E-2,1.238059402E0,-8.439550549E-2
2.415198073E0,-1.600059271E-1,1.179469824E0,-1.184839383E-1
2.417194531E0,-2.526838481E-1,1.124076128E0,-1.536376327E-1
2.419190989E0,-3.389701843E-1,1.063356161E0,-1.909218431E-1
2.421187448E0,-4.305828512E-1,9.973096848E-1,-2.260755450E-1
2.423183906E0,-5.200650096E-1,9.355244040E-1,-2.622945011E-1
2.425180364E0,-6.063513756E-1,8.726738691E-1,-3.006439805E-1
2.427176823E0,-6.894419193E-1,8.130190969E-1,-3.283408582E-1
2.429173281E0,-7.704019547E-1,7.629516721E-1,-3.592334986E-1
2.431169739E0,-8.417745829E-1,7.150148153E-1,-3.826692700E-1
2.433166198E0,-9.142125249E-1,6.819916964E-1,-4.018440247E-1
2.435162656E0,-9.759978056E-1,6.521642804E-1,-4.146271944E-1
2.437159114E0,-1.037782907E0,6.383158565E-1,-4.220840335E-1
2.439155573E0,-1.089980841E0,6.340547800E-1,-4.252798259E-1
2.441152031E0,-1.129395604E0,6.404463649E-1,-4.252798259E-1
2.443148489E0,-1.157092452E0,6.500337720E-1,-4.156924486E-1
2.445144948E0,-1.177332520E0,6.681432724E-1,-4.103661478E-1
2.447141406E0,-1.181593537E0,6.756001115E-1,-3.965177238E-1
2.449137864E0,-1.174136639E0,6.883832216E-1,-3.826692700E-1
2.451134427E0,-1.154961944E0,6.979706287E-1,-3.624292910E-1
2.453130989E0,-1.124069333E0,7.086232305E-1,-3.379282057E-1
2.455127552E0,-1.082524061E0,7.235369682E-1,-3.155576885E-1
2.457124114E0,-1.027130365E0,7.267327309E-1,-2.867955565E-1
2.459120677E0,-9.621493816E-1,7.309938073E-1,-2.580334544E-1
2.461117239E0,-8.939725161E-1,7.320590615E-1,-2.282060683E-1
2.463113802E0,-8.172735572E-1,7.256674767E-1,-1.951829046E-1
2.465110364E0,-7.352482677E-1,7.160801291E-1,-1.664207876E-1
2.467106927E0,-6.542882323E-1,7.001011372E-1,-1.344628781E-1
2.469103489E0,-5.690671206E-1,6.670779586E-1,-1.152881458E-1
2.471100052E0,-4.881070852E-1,6.351200938E-1,-8.865655959E-2
2.473096614E0,-4.018207192E-1,6.010316610E-1,-6.735128909E-2
2.475093177E0,-3.155343831E-1,5.584210753E-1,-5.776391923E-2
2.477089739E0,-2.388354242E-1,5.136800408E-1,-3.965443373E-2
2.479086302E0,-1.695932895E-1,4.753305614E-1,-3.326285630E-2
2.481082864E0,-1.003511548E-1,4.465684593E-1,-3.113232739E-2
2.483079427E0,-5.347955972E-2,4.188716114E-1,-3.219759464E-2
2.485075989E0,-1.832586154E-2,3.954358101E-1,-4.604601860E-2
2.487072552E0,4.044672474E-3,3.815873861E-1,-4.711128026E-2
2.489069114E0,1.256678067E-2,3.549557924E-1,-6.841655076E-2
2.491065677E0,9.370990098E-3,3.336505294E-1,-8.333024383E-2
2.493062239E0,-7.673226763E-3,3.198021054E-1,-1.025049835E-1
2.495058802E0,-3.430481255E-2,2.984968424E-1,-1.302018315E-1
2.497055364E0,-7.478483021E-2,2.771915495E-1,-1.525723636E-1
2.499051927E0,-1.184606329E-1,2.526904941E-1,-1.792039573E-1
2.501048489E0,-1.642669737E-1,2.281894386E-1,-2.047702819E-1
2.503045052E0,-2.132690996E-1,1.951662600E-1,-2.282060683E-1
2.505041614E0,-2.612059414E-1,1.589473039E-1,-2.473808080E-1
2.507038177E0,-3.016859591E-1,1.237936020E-1,-2.697513402E-1
2.509034739E0,-3.411007226E-1,8.863990754E-2,-2.889260948E-1
2.511031302E0,-3.730586171E-1,5.987779424E-2,-3.006439805E-1
2.513027864E0,-4.018207192E-1,3.218094632E-2,-3.091661036E-1
2.515024427E0,-4.231260121E-1,1.300620195E-2,-3.102313578E-1
2.517020989E0,-4.369744360E-1,-1.907487633E-3,-3.070355654E-1
2.519017552E0,-4.486923218E-1,-1.149485912E-2,-3.027745187E-1
2.521014114E0,-4.497575760E-1,-1.149485912E-2,-2.889260948E-1
2.523010677E0,-4.465617836E-1,-1.362538617E-2,-2.729471326E-1
2.525007239E0,-4.380396903E-1,-1.042959560E-2,-2.580334544E-1
2.527003802E0,-4.263217747E-1,-4.038014915E-3,-2.314018607E-1
2.529000364E0,-4.114080966E-1,8.745147847E-3,-2.069008052E-1
2.530996823E0,-3.911680877E-1,1.939778216E-2,-1.802692115E-1
2.532993281E0,-3.677322865E-1,2.898515388E-2,-1.536376327E-1
2.534989739E0,-3.442964852E-1,4.070305452E-2,-1.206144616E-1
2.536986198E0,-3.240564764E-1,5.135568604E-2,-9.185235202E-2
2.538982656E0,-2.974249125E-1,5.774727091E-2,-6.841655076E-2
2.540979114E0,-2.675975263E-1,6.733463705E-2,-4.285022616E-2
2.542975573E0,-2.153996229E-1,4.602937028E-2,-2.047969028E-2
2.544972031E0,-1.099385247E-1,-8.422241663E-4,-7.800392061E-2
2.546968489E0,-6.945850700E-2,4.496410862E-2,-3.773429692E-1
2.548964948E0,-1.866375059E-1,2.399073392E-1,-9.419326186E-1
2.550961406E0,-3.986249268E-1,5.147452950E-1,-1.490543365E0
2.552957864E0,-6.276566386E-1,7.885180116E-1,-1.782425642E0
2.554954323E0,-7.778587937E-1,9.898528457E-1,-1.821840405E0
2.556950781E0,-8.108819723E-1,1.093183517E0,-1.674834013E0
2.558947239E0,-7.448356152E-1,1.111292958E0,-1.446867585E0
2.560943698E0,-6.383092403E-1,1.087857246E0,-1.163507462E0
2.562940156E0,-5.019555092E-1,1.044181347E0,-8.652336597E-1
2.564936614E0,-3.624059856E-1,9.930486083E-1,-5.733514428E-1
2.566933073E0,-2.324438393E-1,9.333938360E-1,-3.027745187E-1
2.568929531E0,-1.259174794E-1,8.971748948E-1,-5.776391923E-2
2.570925989E0,-6.200166792E-2,8.716085553E-1,1.478319466E-1
2.572922448E0,-2.152165212E-2,8.566948771E-1,3.172088563E-1
2.574918906E0,-1.832586154E-2,8.481727839E-1,4.503667951E-1
2.576915364E0,-4.176165909E-2,8.375201225E-1,5.430447459E-1
2.578911823E0,-9.076377749E-2,8.279327750E-1,6.058952808E-1
2.580908281E0,-1.504185498E-1,8.108885288E-1,6.517015696E-1
2.582904739E0,-2.271175236E-1,7.853222489E-1,6.815289855E-1
2.584901198E0,-3.070122898E-1,7.533643246E-1,6.985731721E-1
2.586897656E0,-3.901028335E-1,7.064927220E-1,7.145521641E-1
2.588894114E0,-4.657365382E-1,6.521642804E-1,7.198784351E-1
2.590890573E0,-5.349786878E-1,5.935748219E-1,7.230742574E-1
2.592887031E0,-5.871766210E-1,5.371158123E-1,7.188131809E-1
2.594883489E0,-6.415050626E-1,4.763958454E-1,7.113563418E-1
2.596879948E0,-6.830503345E-1,4.135452807E-1,6.932469010E-1
2.598876406E0,-7.192692757E-1,3.624126315E-1,6.676805615E-1
2.600872864E0,-7.501619458E-1,3.166063130E-1,6.431794763E-1
2.602869323E0,-7.831851244E-1,2.825178802E-1,6.186784506E-1
2.604865781E0,-8.183388114E-1,2.612126172E-1,5.984384418E-1
2.606862239E0,-8.428398371E-1,2.494947016E-1,5.718068480E-1
2.608858698E0,-8.716019988E-1,2.452336550E-1,5.483710170E-1
2.610855156E0,-8.929072618E-1,2.537557483E-1,5.249352455E-1
2.612851614E0,-9.152777791E-1,2.622778714E-1,5.025647283E-1
2.614848073E0,-9.365830421E-1,2.782568336E-1,4.844552279E-1
2.616844531E0,-9.493662119E-1,2.995620966E-1,4.578236341E-1
2.618840989E0,-9.600188732E-1,3.315199912E-1,4.343878329E-1
2.620837448E0,-9.664103985E-1,3.741305470E-1,4.130825698E-1
2.622833906E0,-9.600188732E-1,4.263284504E-1,3.896467686E-1
2.624830364E0,-9.451051354E-1,4.923747778E-1,3.694067597E-1
2.626826823E0,-9.280609488E-1,5.648126602E-1,3.470362425E-1
2.628823281E0,-9.046251178E-1,6.447074413E-1,3.225351572E-1
2.630819739E0,-8.769282699E-1,7.363201380E-1,2.959035933E-1
2.632816198E0,-8.492314219E-1,8.439117074E-1,2.650109529E-1
2.634812656E0,-8.225998282E-1,9.728085995E-1,2.213351279E-1
2.636809114E0,-7.959682345E-1,1.125141382E0,1.787245870E-1
2.638805573E0,-7.565535307E-1,1.283865690E0,1.286572069E-1
2.640802031E0,-7.086166739E-1,1.445785761E0,6.580664963E-2
2.642798489E0,-6.596145034E-1,1.594922662E0,8.255795110E-4
2.644794948E0,-6.180692315E-1,1.737667918E0,-7.480813563E-2
2.646791406E0,-5.690671206E-1,1.867630124E0,-1.547028869E-1
2.648787864E0,-5.221955180E-1,1.986939549E0,-2.516418695E-1
2.650784323E0,-4.763891697E-1,2.105183840E0,-3.496461213E-1
2.652780781E0,-4.412354827E-1,2.207449198E0,-4.540419281E-1
2.654777239E0,-4.028860033E-1,2.302257538E0,-5.541766882E-1
2.656773802E0,-3.773196638E-1,2.374695539E0,-6.479198933E-1
2.658770364E0,-3.506880701E-1,2.423697710E0,-7.405978441E-1
2.660766927E0,-3.208607137E-1,2.462047100E0,-8.194273114E-1
2.662763489E0,-2.952943742E-1,2.478026152E0,-8.801473379E-1
2.664760052E0,-2.601406872E-1,2.475895643E0,-9.355410337E-1
2.666756614E0,-2.249870002E-1,2.468438625E0,-9.781516194E-1
2.668753177E0,-1.983554065E-1,2.454590321E0,-1.007979035E0
2.670749739E0,-1.749196202E-1,2.441807032E0,-1.036741138E0
2.672746302E0,-1.663974971E-1,2.438611269E0,-1.049524307E0
2.674742864E0,-1.781153977E-1,2.449264050E0,-1.068699002E0
2.676739427E0,-1.951596141E-1,2.475895643E0,-1.086808562E0
2.678735989E0,-2.164648920E-1,2.507853508E0,-1.108113766E0
2.680732552E0,-2.335091084E-1,2.544072390E0,-1.121962190E0
2.682729114E0,-2.612059414E-1,2.587748289E0,-1.125158072E0
2.684725677E0,-2.920985818E-1,2.631423950E0,-1.117701173E0
2.686722239E0,-3.315133452E-1,2.669773579E0,-1.105983257E0
2.688718802E0,-3.528186083E-1,2.694274664E0,-1.084678054E0
2.690715364E0,-3.613407016E-1,2.701731443E0,-1.051654816E0
2.692711927E0,-3.730586171E-1,2.704927206E0,-9.994568825E-1
2.694708489E0,-3.879722953E-1,2.716645002E0,-9.366063476E-1
2.696705052E0,-4.092775881E-1,2.741146088E0,-8.748210073E-1
2.698701614E0,-4.369744360E-1,2.790148258E0,-8.098399639E-1
2.700698177E0,-4.636059999E-1,2.840215683E0,-7.533810139E-1
2.702694739E0,-4.753239155E-1,2.855129480E0,-7.118357420E-1
2.704691302E0,-4.668017924E-1,2.846607208E0,-6.777473092E-1
2.706687864E0,-4.391049445E-1,2.808257818E0,-6.457893848E-1
2.708684427E0,-4.124733508E-1,2.757125139E0,-5.914609432E-1
2.710680989E0,-3.794502020E-1,2.695339918E0,-5.286104083E-1
2.712677552E0,-3.421659768E-1,2.628228188E0,-4.572377205E-1
2.714674114E0,-2.974249125E-1,2.565377712E0,-3.826692700E-1
2.716670677E0,-2.580101490E-1,2.525962830E0,-3.155576885E-1
2.718667239E0,-2.217912078E-1,2.539811373E0,-2.473808080E-1
2.720663802E0,-2.196606845E-1,2.621836662E0,-1.866607964E-1
2.722660364E0,-2.484228015E-1,2.726232529E0,-1.600292027E-1
2.724656927E0,-2.952943742E-1,2.862586260E0,-1.461807787E-1
2.726653489E0,-3.698628247E-1,3.029832602E0,-1.387239397E-1
2.728650052E0,-4.657365382E-1,3.157664299E0,-1.387239397E-1
2.730646614E0,-5.829155445E-1,3.210927486E0,-1.504418403E-1
2.732643177E0,-7.128776908E-1,3.211992741E0,-1.770734191E-1
2.734639635E0,-8.524272442E-1,3.213057995E0,-2.069008052E-1
2.736636094E0,-9.855851531E-1,3.247146368E0,-2.654902935E-1
2.738632552E0,-1.097437739E0,3.350476980E0,-3.336671591E-1
2.740629010E0,-1.173071384E0,3.485765457E0,-4.433892965E-1
2.742625469E0,-1.187985063E0,3.635967493E0,-5.914609432E-1
2.744621927E0,-1.089980841E0,3.817062378E0,-7.853388786E-1
2.746618385E0,-8.886461854E-1,4.020527840E0,-1.020762205E0
2.748614844E0,-6.255260706E-1,4.159011841E0,-1.288143396E0
2.750611302E0,-3.432312310E-1,4.184578419E0,-1.590678215E0
2.752607760E0,-8.969851583E-2,4.081247807E0,-1.907061458E0
2.754604219E0,1.297457516E-1,3.862868786E0,-2.227705717E0
2.756600677E0,3.161668777E-1,3.563529730E0,-2.507869959E0
2.758597135E0,4.748911560E-1,3.198144197E0,-2.772055387E0
2.760593594E0,6.016575098E-1,2.797605038E0,-2.981912136E0
2.762590052E0,7.071185708E-1,2.355520725E0,-3.192834377E0
2.764586510E0,7.987312078E-1,1.898522735E0,-3.392038584E0
2.766582969E0,8.594512343E-1,1.442589998E0,-3.571002960E0
2.768579427E0,8.796912432E-1,1.011158228E0,-3.718009233E0
2.770575885E0,8.594512343E-1,6.383158565E-1,-3.823470354E0
2.772572344E0,8.115143776E-1,3.368463218E-1,-3.879929304E0
2.774568802E0,7.529249191E-1,9.609675407E-2,-3.872472525E0
2.776565260E0,6.900743246E-1,-7.754120231E-2,-3.816013575E0
2.778561719E0,6.250932813E-1,-1.712843776E-1,-3.712682962E0
2.780558177E0,5.654385090E-1,-2.085686028E-1,-3.571002960E0
2.782554635E0,5.121753216E-1,-1.861980706E-1,-3.405887127E0
2.784551094E0,4.695648253E-1,-1.190864816E-1,-3.209878683E0
2.786547552E0,4.322806001E-1,-8.299068548E-3,-3.005347967E0
2.788544010E0,4.035184979E-1,1.323157251E-1,-2.774185896E0
2.790540469E0,3.854090273E-1,2.622778714E-1,-2.544088840E0
2.792536927E0,3.736911118E-1,3.858484328E-1,-2.307600498E0
2.794533385E0,3.736911118E-1,4.689390063E-1,-2.056198120E0
2.796529844E0,3.822132349E-1,5.126147866E-1,-1.816514015E0
2.798526302E0,3.939311206E-1,5.243326426E-1,-1.582156062E0
2.800522760E0,4.226932526E-1,5.030274391E-1,-1.356320262E0
2.802519219E0,4.482595623E-1,4.540252984E-1,-1.134745359E0
2.804515677E0,4.759564102E-1,3.762610555E-1,-9.270189404E-1
2.806512135E0,5.036532283E-1,2.814526260E-1,-7.331410050E-1
2.808508594E0,5.313500762E-1,1.685346812E-1,-5.445893407E-1
2.810505052E0,5.547859073E-1,6.520411372E-2,-3.677555919E-1
2.812501510E0,5.803521872E-1,-2.747381292E-2,-1.951829046E-1
2.814497969E0,6.027227640E-1,-1.073685810E-1,-3.965443373E-2
2.816494427E0,6.187016964E-1,-1.755454391E-1,1.052213982E-1
2.818490885E0,6.293543577E-1,-2.256128192E-1,2.415751368E-1
2.820487344E0,6.432027817E-1,-2.628970444E-1,3.566235900E-1
2.822483802E0,6.495943666E-1,-2.778107226E-1,4.588888884E-1
2.824480260E0,6.474637985E-1,-2.703538835E-1,5.430447459E-1
2.826476719E0,6.485290527E-1,-2.362654656E-1,6.122868657E-1
2.828473177E0,6.538553834E-1,-1.915243864E-1,6.559626460E-1
2.830469635E0,6.666385531E-1,-1.382612139E-1,6.762026548E-1
2.832466094E0,6.772912145E-1,-7.860646397E-2,6.730068922E-1
2.834462552E0,6.932701468E-1,-2.214749530E-2,6.570279002E-1
2.836459010E0,7.103143334E-1,2.578936331E-2,6.367878914E-1
2.838455469E0,7.262933254E-1,6.307358295E-2,6.176131368E-1
2.840451927E0,7.369459271E-1,9.929253906E-2,5.963078737E-1
2.842448385E0,7.422722578E-1,1.216630787E-1,5.824594498E-1
2.844444844E0,7.412070036E-1,1.387072951E-1,5.750026107E-1
2.846441302E0,7.294890881E-1,1.514904648E-1,5.707415938E-1
2.848437760E0,7.049880624E-1,1.493599415E-1,5.760678649E-1
2.850434219E0,6.719648838E-1,1.408378333E-1,5.899162889E-1
2.852430677E0,6.336153746E-1,1.248588637E-1,6.026994586E-1
2.854427135E0,5.856785178E-1,9.183569998E-2,6.272005439E-1
2.856423594E0,5.334806442E-1,5.135568604E-2,6.559626460E-1
2.858420052E0,4.770216644E-1,-4.038014915E-3,6.889858246E-1
2.860416510E0,4.184321761E-1,-6.369277835E-2,7.230742574E-1
2.862413073E0,3.619732261E-1,-1.414570063E-1,7.550321817E-1
2.864409635E0,3.129710853E-1,-2.234822959E-1,7.944468856E-1
2.866406198E0,2.639689744E-1,-3.055076003E-1,8.306658864E-1
2.868402760E0,2.170973569E-1,-3.896633983E-1,8.754069209E-1
2.870399323E0,1.776826084E-1,-4.855371118E-1,9.201480150E-1
2.872395885E0,1.489204913E-1,-5.856719017E-1,9.670196176E-1
2.874392448E0,1.222889200E-1,-6.847414374E-1,1.011760592E0
2.876389010E0,1.009836569E-1,-7.763540745E-1,1.058632255E0
2.878385573E0,8.926575631E-2,-8.669015169E-1,1.104438543E0
2.880382135E0,7.967838645E-2,-9.436004758E-1,1.151310086E0
2.882378698E0,7.541733235E-2,-1.003255129E0,1.199247003E0
2.884375260E0,7.541733235E-2,-1.060779333E0,1.243988037E0
2.886371823E0,7.328680158E-2,-1.110846758E0,1.294055462E0
2.888368385E0,7.541733235E-2,-1.151326776E0,1.339861751E0
2.890364948E0,7.967838645E-2,-1.186480403E0,1.388863921E0
2.892361510E0,9.352681041E-2,-1.216307759E0,1.426148176E0
2.894358073E0,9.565733373E-2,-1.231221557E0,1.467693448E0
2.896354635E0,1.031141803E-1,-1.247200489E0,1.495390296E0
2.898351198E0,1.127015501E-1,-1.262114167E0,1.536935568E0
2.900347760E0,1.169626117E-1,-1.281288862E0,1.566762924E0
2.902344323E0,1.190931275E-1,-1.295137286E0,1.582741857E0
2.904340885E0,1.318762749E-1,-1.303659439E0,1.597655535E0
2.906337448E0,1.372026056E-1,-1.303659439E0,1.598720789E0
2.908334010E0,1.457247138E-1,-1.293006778E0,1.591264009E0
2.910330573E0,2.288152575E-1,-1.291941524E0,1.457040787E0
2.912327135E0,3.406679332E-1,-1.293006778E0,1.152375340E0
2.914323698E0,4.312153459E-1,-1.264244676E0,8.679500818E-1
2.916320260E0,5.132406354E-1,-1.222699404E0,5.813941956E-1
2.918316823E0,5.995269418E-1,-1.188610911E0,3.033604324E-1
2.920313385E0,6.783564687E-1,-1.137478352E0,5.408875644E-2
2.922309948E0,7.444027662E-1,-1.074627757E0,-1.664207876E-1
2.924306510E0,7.806217670E-1,-1.016038299E0,-3.326019049E-1
2.926303073E0,7.859480977E-1,-9.563836455E-1,-4.540419281E-1
2.928299635E0,7.667733431E-1,-8.999246359E-1,-5.264798403E-1
2.930296198E0,7.390764952E-1,-8.392046690E-1,-5.626988411E-1
2.932292760E0,7.060533166E-1,-7.657014728E-1,-5.626988411E-1
2.934289323E0,6.730301380E-1,-6.730235219E-1,-5.339366794E-1
2.936285885E0,6.325501204E-1,-5.707582235E-1,-4.668250978E-1
2.938282448E0,5.856785178E-1,-4.567750096E-1,-3.890608549E-1
2.940279010E0,5.398721695E-1,-3.268128633E-1,-2.878608406E-1
2.942275469E0,4.919353426E-1,-1.851328164E-1,-1.760081649E-1
2.944271927E0,4.397374690E-1,-3.919171169E-2,-6.202497333E-2
2.946268385E0,3.907353282E-1,9.822727740E-2,4.982770234E-2
2.948264844E0,3.449290097E-1,2.356462777E-1,1.446361542E-1
2.950261302E0,3.044489920E-1,3.698695004E-1,2.149435580E-1
2.952257760E0,2.682300210E-1,4.902442694E-1,2.543582916E-1
2.954254219E0,2.362721115E-1,5.903789997E-1,2.660762072E-1
2.956250677E0,2.085752636E-1,6.702737808E-1,2.596846223E-1
2.958247135E0,1.925963014E-1,7.373853922E-1,2.213351279E-1
2.960243594E0,1.776826084E-1,7.799959183E-1,1.851161718E-1
2.962240052E0,1.680952460E-1,8.034316897E-1,1.393098384E-1
2.964236510E0,1.648994535E-1,8.076927662E-1,9.350350499E-2
2.966232969E0,1.723562926E-1,8.013011813E-1,5.408875644E-2
2.968229427E0,1.808784008E-1,7.853222489E-1,1.147821452E-2
2.970225885E0,1.915310472E-1,7.565600872E-1,-1.302284561E-2
2.972222344E0,2.139015794E-1,7.277979851E-1,-2.687127143E-2
2.974218802E0,2.341415733E-1,6.979706287E-1,-3.858917207E-2
2.976215260E0,2.597079277E-1,6.617516875E-1,-4.178496450E-2
2.978211719E0,2.842089832E-1,6.276632547E-1,-3.858917207E-2
2.980208177E0,3.055142462E-1,5.871832371E-1,-4.071970284E-2
2.982204635E0,3.225584626E-1,5.552253127E-1,-3.432811797E-2
2.984201094E0,3.374721706E-1,5.253979564E-1,-2.687127143E-2
2.986197552E0,3.449290097E-1,4.987663627E-1,-2.474074438E-2
2.988194010E0,3.491900563E-1,4.710695148E-1,-1.621863618E-2
2.990190469E0,3.491900563E-1,4.444379210E-1,-1.408810914E-2
2.992186927E0,3.438637257E-1,4.252631962E-1,-1.408810914E-2
2.994183385E0,3.385374248E-1,4.060884416E-1,-1.195758302E-2
2.996179844E0,3.268195093E-1,3.975663483E-1,-2.047969028E-2
2.998176302E0,3.214932084E-1,3.901094794E-1,-1.834916323E-2
3.000172760E0,3.097752929E-1,3.805221319E-1,-2.687127143E-2
3.002169219E0,2.980574071E-1,3.783915937E-1,-3.645864874E-2
3.004165677E0,2.874047756E-1,3.720000088E-1,-4.711128026E-2
3.006162135E0,2.778173983E-1,3.634779155E-1,-5.669865012E-2
3.008158594E0,2.629037201E-1,3.602821231E-1,-6.202497333E-2
3.010155052E0,2.575773895E-1,3.570863307E-1,-7.161234319E-2
3.012151510E0,2.426636964E-1,3.464336991E-1,-7.693865895E-2
3.014147969E0,2.352068424E-1,3.411073685E-1,-8.439550549E-2
3.016144427E0,2.245542109E-1,3.357810676E-1,-8.972182125E-2
3.018140885E0,2.202931494E-1,3.272589445E-1,-9.291761369E-2
3.020137344E0,2.117710412E-1,3.251284063E-1,-9.824392945E-2
3.022133802E0,2.117710412E-1,3.198021054E-1,-1.003744602E-1
3.024130260E0,2.096405178E-1,3.176715672E-1,-1.035702452E-1
3.026126719E0,2.075099945E-1,3.112799823E-1,-1.035702452E-1
3.028123177E0,2.107057869E-1,3.134105206E-1,-1.046355143E-1
3.030119635E0,2.107057869E-1,3.187368214E-1,-1.035702452E-1
3.032116094E0,2.107057869E-1,3.176715672E-1,-1.110270917E-1
3.034112552E0,2.096405178E-1,3.166063130E-1,-1.110270917E-1
3.036109010E0,2.181626260E-1,3.198021054E-1,-1.131576225E-1
3.038105469E0,2.202931494E-1,3.144757748E-1,-1.152881458E-1
3.040101927E0,2.256194800E-1,3.166063130E-1,-1.120923534E-1
3.042098385E0,2.224236876E-1,3.155410588E-1,-1.110270917E-1
3.044094844E0,2.234889418E-1,3.070189357E-1,-1.142228842E-1
3.046091302E0,2.213584185E-1,3.016926348E-1,-1.067660376E-1
3.048087760E0,2.202931494E-1,2.963663042E-1,-1.078313068E-1
3.050084219E0,2.192278951E-1,2.889094651E-1,-1.035702452E-1
3.052080677E0,2.170973569E-1,2.825178802E-1,-9.930919856E-2
3.054077135E0,2.117710412E-1,2.803873420E-1,-9.185235202E-2
3.056073594E0,2.075099945E-1,2.750610411E-1,-8.439550549E-2
3.058070052E0,2.043142021E-1,2.750610411E-1,-8.226498216E-2
3.060066510E0,2.043142021E-1,2.771915495E-1,-6.948181242E-2
3.062062969E0,2.075099945E-1,2.835831344E-1,-6.628602743E-2
3.064059427E0,2.096405178E-1,2.889094651E-1,-5.882918090E-2
3.066055885E0,2.075099945E-1,2.942357659E-1,-5.456812680E-2
3.068052344E0,2.085752636E-1,3.016926348E-1,-4.924181104E-2
3.070048802E0,2.128363103E-1,3.059536815E-1,-5.243759602E-2
3.072045364E0,2.117710412E-1,3.048883975E-1,-5.030707270E-2
3.074041927E0,2.064447254E-1,2.995620966E-1,-5.350286514E-2
3.076038489E0,2.011184096E-1,2.910399735E-1,-5.882918090E-2
3.078035052E0,1.947268248E-1,2.857136726E-1,-5.989444256E-2
3.080031614E0,1.872699857E-1,2.676042020E-1,-7.054708153E-2
3.082028177E0,1.819436699E-1,2.526904941E-1,-7.374287397E-2
3.084024739E0,1.723562926E-1,2.367115468E-1,-8.226498216E-2
3.086021302E0,1.617036611E-1,2.186020613E-1,-8.865655959E-2
3.088017864E0,1.521162838E-1,2.036883831E-1,-9.504813701E-2
3.090014427E0,1.446594447E-1,1.866441667E-1,-1.046355143E-1
3.092010989E0,1.350720674E-1,1.738609970E-1,-1.120923534E-1
3.094007552E0,1.297457516E-1,1.632083654E-1,-1.163534150E-1
3.096004114E0,1.190931275E-1,1.568167806E-1,-1.248755231E-1
3.098000677E0,1.169626117E-1,1.461641490E-1,-1.302018315E-1
3.099997239E0,1.148320809E-1,1.419030875E-1,-1.333976239E-1
3.101993802E0,1.095057651E-1,1.419030875E-1,-1.365934163E-1
3.103990364E0,1.041794419E-1,1.323157251E-1,-1.344628781E-1
3.105986927E0,1.009836569E-1,1.280546635E-1,-1.397891939E-1
3.107983489E0,9.991839528E-2,1.269894093E-1,-1.387239397E-1
3.109980052E0,9.459207207E-2,1.184672862E-1,-1.355281472E-1
3.111976614E0,9.565733373E-2,1.142062321E-1,-1.312671006E-1
3.113973177E0,9.033101797E-2,1.056841239E-1,-1.302018315E-1
3.115969739E0,8.713522553E-2,1.003578082E-1,-1.259407699E-1
3.117966302E0,9.033101797E-2,9.183569998E-2,-1.238102540E-1
3.119962864E0,8.926575631E-2,8.437885344E-2,-1.174186766E-1
3.121959427E0,9.139628708E-2,7.905253768E-2,-1.195491999E-1
3.123955989E0,9.033101797E-2,7.159569114E-2,-1.152881458E-1
3.125952552E0,9.246154875E-2,6.626937538E-2,-1.163534150E-1
3.127949114E0,9.991839528E-2,5.881253257E-2,-1.216797307E-1
3.129945677E0,1.009836569E-1,5.242095143E-2,-1.248755231E-1
3.131942239E0,1.020489186E-1,4.389884323E-2,-1.312671006E-1
3.133938802E0,1.063099727E-1,3.537673503E-2,-1.365934163E-1
3.135935364E0,1.063099727E-1,3.218094632E-2,-1.451155245E-1
3.137931927E0,1.041794419E-1,2.152830921E-2,-1.451155245E-1
3.139928489E0,1.052447110E-1,1.513672899E-2,-1.589639485E-1
3.141925052E0,1.041794419E-1,1.300620195E-2,-1.610944718E-1
3.143921614E0,9.778786451E-2,1.194093842E-2,-1.706818491E-1
3.145918177E0,1.041794419E-1,1.300620195E-2,-1.781386882E-1
3.147914739E0,9.885312617E-2,1.726725511E-2,-1.813344806E-1
3.149911198E0,9.885312617E-2,2.152830921E-2,-1.855955273E-1
3.151907656E0,1.009836569E-1,3.005041741E-2,-1.898565888E-1
3.153904114E0,1.020489186E-1,4.070305452E-2,-1.909218431E-1
3.155900573E0,1.063099727E-1,5.348621681E-2,-1.941176355E-1
3.157897031E0,1.105710268E-1,6.626937538E-2,-1.951829046E-1
3.159893489E0,1.116362885E-1,8.011779934E-2,-1.909218431E-1
3.161889948E0,1.190931275E-1,9.183569998E-2,-1.962481737E-1
3.163886406E0,1.222889200E-1,1.035536006E-1,-1.898565888E-1
3.165882864E0,1.276152283E-1,1.152714938E-1,-1.898565888E-1
3.167879323E0,1.329415441E-1,1.237936020E-1,-1.919871122E-1
3.169875781E0,1.403983980E-1,1.323157251E-1,-1.898565888E-1
3.171872239E0,1.425289214E-1,1.387072951E-1,-1.855955273E-1
3.173868698E0,1.467899680E-1,1.419030875E-1,-1.823997498E-1
3.175865156E0,1.542468220E-1,1.461641490E-1,-1.813344806E-1
3.177861614E0,1.574426144E-1,1.472294033E-1,-1.770734191E-1
3.179858073E0,1.585078686E-1,1.504251957E-1,-1.696165800E-1
3.181854531E0,1.617036611E-1,1.504251957E-1,-1.642902642E-1
3.183850989E0,1.627689302E-1,1.514904648E-1,-1.600292027E-1
3.185847448E0,1.670299768E-1,1.514904648E-1,-1.525723636E-1
3.187843906E0,1.691605002E-1,1.504251957E-1,-1.461807787E-1
3.189840364E0,1.680952460E-1,1.493599415E-1,-1.429849863E-1
3.191836823E0,1.691605002E-1,1.450988799E-1,-1.376586705E-1
3.193833281E0,1.670299768E-1,1.419030875E-1,-1.344628781E-1
3.195829739E0,1.648994535E-1,1.365767717E-1,-1.259407699E-1
3.197826198E0,1.691605002E-1,1.248588637E-1,-1.248755231E-1
3.199822656E0,1.648994535E-1,1.120757088E-1,-1.184839383E-1
3.201819114E0,1.638341844E-1,9.822727740E-2,-1.131576225E-1
3.203815573E0,1.617036611E-1,8.437885344E-2,-1.067660376E-1
3.205812031E0,1.617036611E-1,6.839989871E-2,-1.057007760E-1
3.207808489E0,1.553120762E-1,5.455147848E-2,-9.824392945E-2
3.209804948E0,1.542468220E-1,3.963778913E-2,-9.398287535E-2
3.211801406E0,1.542468220E-1,2.472409979E-2,-9.185235202E-2
3.213797864E0,1.542468220E-1,4.484093748E-3,-8.226498216E-2
3.215794323E0,1.521162838E-1,-1.575591415E-2,-8.546076715E-2
3.217790781E0,1.521162838E-1,-3.919171169E-2,-8.013445139E-2
3.219787239E0,1.467899680E-1,-6.369277835E-2,-8.119971305E-2
3.221783698E0,1.414636523E-1,-8.712857217E-2,-8.119971305E-2
3.223780156E0,1.361373365E-1,-1.094991043E-1,-7.906918973E-2
3.225776614E0,1.308110207E-1,-1.286738515E-1,-8.333024383E-2
3.227773073E0,1.244194433E-1,-1.499791145E-1,-8.652602881E-2
3.229769531E0,1.212236509E-1,-1.691538543E-1,-8.546076715E-2
3.231765989E0,1.158973426E-1,-1.840675473E-1,-8.439550549E-2
3.233762448E0,1.084405035E-1,-1.989812404E-1,-9.291761369E-2
3.235758906E0,9.885312617E-2,-2.085686028E-1,-9.504813701E-2
3.237755364E0,9.459207207E-2,-2.202865034E-1,-9.504813701E-2
3.239751823E0,9.033101797E-2,-2.320044041E-1,-1.003744602E-1
3.241748281E0,8.926575631E-2,-2.405265123E-1,-1.046355143E-1
3.243744739E0,8.606996387E-2,-2.469180822E-1,-1.088965684E-1
3.245741198E0,7.861311734E-2,-2.490486205E-1,-1.142228842E-1
3.247737656E0,7.222153991E-2,-2.533096671E-1,-1.142228842E-1
3.249734114E0,7.009100914E-2,-2.490486205E-1,-1.184839383E-1
3.251730573E0,6.902574748E-2,-2.437223047E-1,-1.216797307E-1
3.253727031E0,7.009100914E-2,-2.352001965E-1,-1.270060390E-1
3.255723489E0,7.115627825E-2,-2.266780883E-1,-1.312671006E-1
3.257719948E0,6.796048582E-2,-2.128296643E-1,-1.291365623E-1
3.259716406E0,6.796048582E-2,-2.000464946E-1,-1.397891939E-1
3.261712864E0,6.582996249E-2,-1.830022782E-1,-1.344628781E-1
3.263709323E0,6.050363928E-2,-1.648928076E-1,-1.429849863E-1
3.265705781E0,5.943837762E-2,-1.457180679E-1,-1.419197321E-1
3.267702239E0,6.050363928E-2,-1.297391057E-1,-1.483113170E-1
3.269698698E0,5.943837762E-2,-1.126948968E-1,-1.493765712E-1
3.271695156E0,5.837311596E-2,-9.458541870E-2,-1.578986794E-1
3.273691614E0,5.730785429E-2,-8.712857217E-2,-1.589639485E-1
3.275688073E0,5.517732352E-2,-7.328014821E-2,-1.685513109E-1
3.277684531E0,5.091626942E-2,-6.156224385E-2,-1.674860567E-1
3.279680989E0,4.878573865E-2,-4.558329284E-2,-1.706818491E-1
3.281677552E0,4.558995366E-2,-3.173486516E-2,-1.717471033E-1
3.283674114E0,4.452468455E-2,-2.427802235E-2,-1.717471033E-1
3.285670677E0,3.919836879E-2,-2.972751157E-3,-1.717471033E-1
3.287667239E0,3.813310713E-2,9.810411371E-3,-1.706818491E-1
3.289663802E0,3.174152225E-2,2.152830921E-2,-1.696165800E-1
3.291660364E0,2.534994297E-2,3.537673503E-2,-1.642902642E-1
3.293656927E0,2.002362534E-2,4.389884323E-2,-1.621597409E-1
3.295653489E0,1.043625362E-2,5.135568604E-2,-1.610944718E-1
3.297650052E0,6.175199524E-3,5.455147848E-2,-1.536376327E-1
3.299646614E0,8.488814346E-4,5.135568604E-2,-1.568334103E-1
3.301643177E0,-9.803753346E-3,4.496410862E-2,-1.536376327E-1
3.303639739E0,-1.726059802E-2,3.324620798E-2,-1.525723636E-1
3.305636302E0,-2.152165212E-2,2.046304569E-2,-1.493765712E-1
3.307632864E0,-2.684796974E-2,8.745147847E-3,-1.429849863E-1
3.309629427E0,-3.430481255E-2,-8.299068548E-3,-1.429849863E-1
3.311625989E0,-4.176165909E-2,-2.747381292E-2,-1.376586705E-1
3.313622552E0,-4.602271318E-2,-4.664855823E-2,-1.387239397E-1
3.315619114E0,-5.028376728E-2,-6.582330167E-2,-1.312671006E-1
3.317615677E0,-5.241429061E-2,-7.967173308E-2,-1.291365623E-1
3.319612239E0,-5.667534471E-2,-9.458541870E-2,-1.291365623E-1
3.321608802E0,-5.667534471E-2,-1.105643734E-1,-1.216797307E-1
3.323605364E0,-5.880587548E-2,-1.169559509E-1,-1.216797307E-1
3.325601927E0,-6.200166792E-2,-1.329348981E-1,-1.131576225E-1
3.327598489E0,-6.626272202E-2,-1.403917372E-1,-1.120923534E-1
3.329595052E0,-7.052377611E-2,-1.403917372E-1,-1.099618301E-1
3.331591614E0,-7.052377611E-2,-1.403917372E-1,-1.067660376E-1
3.333588177E0,-7.798061520E-2,-1.446527988E-1,-1.078313068E-1
3.335584739E0,-8.011114597E-2,-1.425222754E-1,-1.014397219E-1
3.337581302E0,-9.076377749E-2,-1.446527988E-1,-1.057007760E-1
3.339577864E0,-9.715536237E-2,-1.457180679E-1,-1.057007760E-1
3.341574427E0,-1.088732630E-1,-1.521096379E-1,-1.046355143E-1
3.343570989E0,-1.163301021E-1,-1.553054303E-1,-1.131576225E-1
3.345567552E0,-1.216564178E-1,-1.585012227E-1,-1.110270917E-1
3.347564114E0,-1.312437952E-1,-1.616970152E-1,-1.206144616E-1
3.349560677E0,-1.408311874E-1,-1.638275385E-1,-1.184839383E-1
3.351557239E0,-1.472227573E-1,-1.606317461E-1,-1.184839383E-1
3.353553802E0,-1.472227573E-1,-1.542401612E-1,-1.163534150E-1
3.355550364E0,-1.482880265E-1,-1.425222754E-1,-1.131576225E-1
3.357546927E0,-1.514838189E-1,-1.276085824E-1,-1.088965684E-1
3.359543385E0,-1.514838189E-1,-1.052380577E-1,-1.025049835E-1
3.361539844E0,-1.472227573E-1,-8.712857217E-2,-9.504813701E-2
3.363536302E0,-1.450922340E-1,-6.582330167E-2,-8.865655959E-2
3.365532760E0,-1.482880265E-1,-4.238750413E-2,-8.226498216E-2
3.367529219E0,-1.440269649E-1,-2.640854940E-2,-8.119971305E-2
3.369525677E0,-1.408311874E-1,-1.042959560E-2,-7.267760485E-2
3.371522135E0,-1.387006491E-1,3.418829991E-3,-7.161234319E-2
3.373518594E0,-1.376353949E-1,1.513672899E-2,-6.735128909E-2
3.375515052E0,-1.387006491E-1,3.431147337E-2,-6.309023499E-2
3.377511510E0,-1.291132718E-1,4.602937028E-2,-6.202497333E-2
3.379507969E0,-1.269827485E-1,5.668200552E-2,-5.882918090E-2
3.381504427E0,-1.205911562E-1,6.946516782E-2,-5.563338846E-2
3.383500885E0,-1.141995788E-1,8.224832267E-2,-4.817654192E-2
3.385497344E0,-1.110037863E-1,9.396622330E-2,-4.817654192E-2
3.387493802E0,-1.078079939E-1,1.003578082E-1,-4.071970284E-2
3.389490260E0,-1.003511548E-1,1.088799164E-1,-4.178496450E-2
3.391486719E0,-9.928588569E-2,1.099451780E-1,-4.071970284E-2
3.393483177E0,-9.609009326E-2,1.152714938E-1,-4.071970284E-2
3.395479635E0,-9.395956993E-2,1.152714938E-1,-3.858917207E-2
3.397476094E0,-9.822062403E-2,1.195325479E-1,-4.071970284E-2
3.399472552E0,-1.014164165E-1,1.237936020E-1,-4.071970284E-2
3.401469010E0,-1.035469398E-1,1.269894093E-1,-4.498075694E-2
3.403465469E0,-1.024816781E-1,1.259241402E-1,-4.071970284E-2
3.405461927E0,-1.046122015E-1,1.227283403E-1,-4.604601860E-2
3.407458385E0,-1.035469398E-1,1.227283403E-1,-4.391548783E-2
3.409454844E0,-1.003511548E-1,1.163367555E-1,-4.604601860E-2
3.411451302E0,-1.046122015E-1,1.067493856E-1,-3.858917207E-2
3.413447760E0,-9.928588569E-2,1.035536006E-1,-4.071970284E-2
3.415444219E0,-9.715536237E-2,9.609675407E-2,-4.071970284E-2
3.417440677E0,-9.609009326E-2,8.437885344E-2,-3.645864874E-2
3.419437135E0,-9.502483159E-2,7.585674524E-2,-3.432811797E-2
3.421433594E0,-8.437220007E-2,6.307358295E-2,-3.006706201E-2
3.423430052E0,-7.371956110E-2,5.881253257E-2,-2.793653496E-2
3.425426510E0,-6.945850700E-2,5.242095143E-2,-2.154495381E-2
3.427422969E0,-6.519745290E-2,4.709463194E-2,-2.154495381E-2
3.429419427E0,-6.093639880E-2,3.963778913E-2,-1.302284561E-2
3.431415885E0,-5.347955972E-2,3.537673503E-2,-1.302284561E-2
3.433412344E0,-5.667534471E-2,3.857252374E-2,-3.435474820E-3
3.435408802E0,-5.454482138E-2,4.389884323E-2,8.255795110E-4
3.437405260E0,-5.987113714E-2,4.602937028E-2,8.282423951E-3
3.439401719E0,-5.987113714E-2,4.176831618E-2,1.254347805E-2
3.441398177E0,-6.519745290E-2,4.176831618E-2,1.786979660E-2
3.443394635E0,-7.052377611E-2,4.176831618E-2,1.893506013E-2
3.445391094E0,-7.052377611E-2,3.963778913E-2,2.319611423E-2
3.447387552E0,-7.798061520E-2,4.070305452E-2,2.745716833E-2
3.449384010E0,-8.650272340E-2,3.750726208E-2,3.065295890E-2
3.451380469E0,-8.224166930E-2,3.857252374E-2,3.384875134E-2
3.453376927E0,-8.011114597E-2,3.431147337E-2,3.065295890E-2
3.455373385E0,-7.478483021E-2,3.644200042E-2,3.384875134E-2
3.457369844E0,-7.371956110E-2,3.324620798E-2,3.384875134E-2
3.459366302E0,-7.265429944E-2,2.791989036E-2,3.278348595E-2
3.461362760E0,-7.265429944E-2,1.726725511E-2,3.384875134E-2
3.463359219E0,-7.371956110E-2,1.194093842E-2,3.491400927E-2
3.465355677E0,-6.732798368E-2,2.230393584E-4,3.384875134E-2
3.467352135E0,-6.626272202E-2,-1.149485912E-2,3.597927094E-2
3.469348594E0,-6.093639880E-2,-1.362538617E-2,2.958769538E-2
3.471345052E0,-5.774061382E-2,-2.214749530E-2,2.745716833E-2
3.473341510E0,-5.667534471E-2,-2.001696825E-2,2.639190480E-2
3.475337969E0,-5.667534471E-2,-1.575591415E-2,2.000032365E-2
3.477334427E0,-5.987113714E-2,-1.469064970E-2,1.893506013E-2
3.479330885E0,-5.880587548E-2,-1.149485912E-2,1.680453122E-2
3.481327344E0,-6.306692958E-2,-1.149485912E-2,1.147821452E-2
3.483323802E0,-6.945850700E-2,-9.364332072E-3,1.041295100E-2
3.485320260E0,-7.371956110E-2,-8.299068548E-3,1.890843036E-3
3.487316719E0,-8.011114597E-2,-8.422241663E-4,8.255795110E-4
3.489313177E0,-8.224166930E-2,6.614620797E-3,-6.631265394E-3
3.491309739E0,-8.756798506E-2,1.300620195E-2,-4.500738345E-3
3.493306302E0,-8.863325417E-2,1.726725511E-2,-8.761792444E-3
3.495302864E0,-8.969851583E-2,1.513672899E-2,-1.728389971E-2
3.497299427E0,-8.969851583E-2,1.407146547E-2,-1.834916323E-2
3.499295989E0,-8.756798506E-2,1.300620195E-2,-1.941442676E-2
3.501292552E0,-8.330693841E-2,1.300620195E-2,-2.154495381E-2
3.503289114E0,-8.330693841E-2,1.194093842E-2,-2.367548086E-2
3.505285677E0,-8.330693841E-2,1.939778216E-2,-1.834916323E-2
3.507282239E0,-8.863325417E-2,4.815989733E-2,-1.621863618E-2
3.509278802E0,-1.024816781E-1,7.372621447E-2,-6.631265394E-3
3.511275364E0,-1.131343096E-1,9.290096164E-2,-2.370211296E-3
3.513271927E0,-1.237869486E-1,1.120757088E-1,-3.435474820E-3
3.515268489E0,-1.355048567E-1,1.195325479E-1,-6.631265394E-3
3.517265052E0,-1.472227573E-1,1.301851869E-1,-3.435474820E-3
3.519261614E0,-1.557448655E-1,1.450988799E-1,-9.827055968E-3
3.521258177E0,-1.632017195E-1,1.525557339E-1,-1.302284561E-2
3.523254739E0,-1.674627662E-1,1.546862572E-1,-1.515337266E-2
3.525251302E0,-1.653322428E-1,1.568167806E-1,-2.261021733E-2
3.527247864E0,-1.546796113E-1,1.536209881E-1,-2.793653496E-2
3.529244427E0,-1.461575031E-1,1.461641490E-1,-2.687127143E-2
3.531240989E0,-1.418964416E-1,1.301851869E-1,-3.539337963E-2
3.533237552E0,-1.344396025E-1,1.184672862E-1,-3.326285630E-2
3.535234114E0,-1.301785260E-1,1.035536006E-1,-3.858917207E-2
3.537230677E0,-1.195258945E-1,9.609675407E-2,-4.071970284E-2
3.539227239E0,-1.120690480E-1,8.437885344E-2,-4.285022616E-2
3.541223802E0,-1.024816781E-1,7.159569114E-2,-4.178496450E-2
3.543220364E0,-9.928588569E-2,6.839989871E-2,-4.817654192E-2
3.545216927E0,-9.928588569E-2,6.413884461E-2,-4.924181104E-2
3.547213489E0,-9.502483159E-2,6.520411372E-2,-5.030707270E-2
3.549210052E0,-9.502483159E-2,5.987779424E-2,-5.030707270E-2
3.551206614E0,-9.502483159E-2,6.946516782E-2,-5.243759602E-2
3.553203177E0,-9.822062403E-2,7.159569114E-2,-5.350286514E-2
3.555199739E0,-1.014164165E-1,7.798727602E-2,-5.030707270E-2
3.557196302E0,-1.024816781E-1,7.159569114E-2,-4.604601860E-2
3.559192864E0,-1.067427322E-1,7.372621447E-2,-4.817654192E-2
3.561189427E0,-1.035469398E-1,7.266095281E-2,-4.498075694E-2
3.563185989E0,-1.024816781E-1,7.798727602E-2,-4.498075694E-2
3.565182552E0,-9.715536237E-2,7.053042948E-2,-3.965443373E-2
3.567179114E0,-9.609009326E-2,6.413884461E-2,-3.326285630E-2
3.569175573E0,-9.609009326E-2,5.561674014E-2,-3.326285630E-2
3.571172031E0,-9.395956993E-2,4.496410862E-2,-2.687127143E-2
3.573168489E0,-8.863325417E-2,2.259357274E-2,-2.047969028E-2
3.575164948E0,-8.011114597E-2,9.810411371E-3,-1.834916323E-2
3.577161406E0,-7.371956110E-2,-5.103277974E-3,-1.302284561E-2
3.579157864E0,-6.626272202E-2,-2.427802235E-2,-3.435474820E-3
3.581154323E0,-5.667534471E-2,-3.066960350E-2,-4.500738345E-3
3.583150781E0,-4.921850562E-2,-3.599591926E-2,4.021369852E-3
3.585147239E0,-3.856586665E-2,-4.132223874E-2,1.890843036E-3
3.587143698E0,-3.217428923E-2,-5.304013565E-2,5.086633377E-3
3.589140156E0,-2.471744269E-2,-5.623592809E-2,4.021369852E-3
3.591136614E0,-1.832586154E-2,-5.304013565E-2,5.086633377E-3
3.593133073E0,-1.193428040E-2,-5.410540104E-2,1.147821452E-2
3.595129531E0,-8.738489822E-3,-5.517066643E-2,1.573926955E-2
3.597125989E0,-1.086901687E-2,-6.049698219E-2,2.000032365E-2
3.599122448E0,-1.299954392E-2,-5.943172053E-2,2.213085070E-2
3.601118906E0,-7.673226763E-3,-5.943172053E-2,2.639190480E-2
3.603115364E0,-8.738489822E-3,-5.836645514E-2,2.639190480E-2
3.605111823E0,-9.803753346E-3,-5.943172053E-2,2.745716833E-2
3.607108281E0,-1.086901687E-2,-6.369277835E-2,2.426137775E-2
3.609104739E0,-1.513007097E-2,-6.262751669E-2,2.213085070E-2
3.611101198E0,-1.832586154E-2,-6.475804001E-2,2.213085070E-2
3.613097656E0,-2.152165212E-2,-6.475804001E-2,1.680453122E-2
3.615094114E0,-2.258691564E-2,-6.156224385E-2,1.680453122E-2
3.617090573E0,-2.684796974E-2,-6.582330167E-2,1.360874157E-2
3.619087031E0,-3.004376031E-2,-6.582330167E-2,9.347687475E-3
3.621083489E0,-3.750060499E-2,-6.369277835E-2,6.151896901E-3
3.623079948E0,-4.069639742E-2,-7.008435577E-2,8.255795110E-4
3.625076406E0,-4.602271318E-2,-6.582330167E-2,-2.396840136E-4
3.627072864E0,-4.815323651E-2,-6.369277835E-2,-6.631265394E-3
3.629069323E0,-5.241429061E-2,-6.369277835E-2,-6.631265394E-3
3.631065781E0,-5.241429061E-2,-6.901909411E-2,-1.195758302E-2
3.633062239E0,-5.028376728E-2,-7.008435577E-2,-1.089231949E-2
3.635058698E0,-4.921850562E-2,-7.434540987E-2,-1.515337266E-2
3.637055156E0,-4.602271318E-2,-7.647594064E-2,-1.834916323E-2
3.639051614E0,-4.495745152E-2,-8.073699474E-2,-2.047969028E-2
3.641048073E0,-4.602271318E-2,-8.606331050E-2,-1.941442676E-2
3.643044531E0,-4.069639742E-2,-9.245488793E-2,-1.834916323E-2
3.645040989E0,-4.069639742E-2,-9.245488793E-2,-2.367548086E-2
3.647037448E0,-4.176165909E-2,-9.138962626E-2,-2.261021733E-2
3.649033906E0,-4.176165909E-2,-9.565068036E-2,-2.900180034E-2
3.651030364E0,-3.856586665E-2,-9.138962626E-2,-2.687127143E-2
3.653026823E0,-4.069639742E-2,-9.245488793E-2,-2.793653496E-2
3.655023281E0,-3.963113576E-2,-9.032436460E-2,-3.113232739E-2
3.657019739E0,-3.963113576E-2,-8.606331050E-2,-3.219759464E-2
3.659016198E0,-4.069639742E-2,-7.860646397E-2,-3.326285630E-2
3.661012656E0,-4.495745152E-2,-7.967173308E-2,-3.539337963E-2
3.663009114E0,-4.815323651E-2,-7.008435577E-2,-3.432811797E-2
3.665005573E0,-5.028376728E-2,-6.262751669E-2,-3.539337963E-2
3.667002031E0,-4.921850562E-2,-5.730118975E-2,-3.539337963E-2
3.668998489E0,-5.241429061E-2,-5.410540104E-2,-3.539337963E-2
3.670994948E0,-5.241429061E-2,-4.984434694E-2,-3.965443373E-2
3.672991406E0,-5.134902894E-2,-4.664855823E-2,-3.858917207E-2
3.674987864E0,-5.134902894E-2,-4.664855823E-2,-3.965443373E-2
3.676984323E0,-5.134902894E-2,-4.558329284E-2,-3.965443373E-2
3.678980781E0,-5.134902894E-2,-4.451802745E-2,-3.858917207E-2
3.680977239E0,-5.241429061E-2,-4.664855823E-2,-3.858917207E-2
3.682973698E0,-4.602271318E-2,-4.984434694E-2,-4.071970284E-2
3.684970156E0,-4.069639742E-2,-5.623592809E-2,-3.858917207E-2
3.686966614E0,-3.963113576E-2,-6.369277835E-2,-4.178496450E-2
3.688963073E0,-3.537007794E-2,-7.114962488E-2,-3.645864874E-2
3.690959531E0,-3.323955089E-2,-7.434540987E-2,-3.858917207E-2
3.692955989E0,-2.152165212E-2,-8.499804884E-2,-3.539337963E-2
3.694952448E0,-1.726059802E-2,-9.245488793E-2,-3.539337963E-2
3.696948906E0,-1.726059802E-2,-9.671594948E-2,-3.539337963E-2
3.698945364E0,-1.726059802E-2,-1.041727886E-1,-3.113232739E-2
3.700941823E0,-9.803753346E-3,-1.084338427E-1,-3.219759464E-2
3.702938281E0,-8.738489822E-3,-1.190864816E-1,-3.006706201E-2
3.704934844E0,-1.086901687E-2,-1.244127974E-1,-2.900180034E-2
3.706931406E0,-1.299954392E-2,-1.286738515E-1,-3.006706201E-2
3.708927969E0,-9.803753346E-3,-1.340001673E-1,-2.580600791E-2
3.710924531E0,-1.406480744E-2,-1.414570063E-1,-3.113232739E-2
3.712921094E0,-1.513007097E-2,-1.457180679E-1,-3.006706201E-2
3.714917656E0,-1.832586154E-2,-1.467833221E-1,-3.006706201E-2
3.716914219E0,-2.258691564E-2,-1.510443836E-1,-3.113232739E-2
3.718910781E0,-2.471744269E-2,-1.553054303E-1,-2.900180034E-2
3.720907344E0,-2.791323327E-2,-1.531749070E-1,-2.687127143E-2
3.722903906E0,-2.471744269E-2,-1.531749070E-1,-2.580600791E-2
3.724900469E0,-2.791323327E-2,-1.521096379E-1,-2.047969028E-2
3.726897031E0,-2.791323327E-2,-1.489138454E-1,-2.047969028E-2
3.728893594E0,-2.791323327E-2,-1.425222754E-1,-1.728389971E-2
3.730890156E0,-1.939112507E-2,-1.393264830E-1,-1.728389971E-2
3.732886719E0,-1.832586154E-2,-1.350654215E-1,-9.827055968E-3
3.734883281E0,-1.406480744E-2,-1.286738515E-1,-1.408810914E-2
3.736879844E0,-1.193428040E-2,-1.233475283E-1,-1.195758302E-2
3.738876406E0,-8.738489822E-3,-1.180212125E-1,-8.761792444E-3
3.740872969E0,-5.542699713E-3,-1.158906892E-1,-1.089231949E-2
3.742869531E0,-2.163820900E-4,-1.137601659E-1,-6.631265394E-3
3.744866094E0,-2.346909139E-3,-1.063033193E-1,-6.631265394E-3
3.746862656E0,-1.281645615E-3,-1.020422652E-1,-6.631265394E-3
3.748859219E0,2.979408950E-3,-1.041727886E-1,-6.631265394E-3
3.750855781E0,8.305726573E-3,-1.041727886E-1,-7.696528919E-3
3.752852344E0,1.469730772E-2,-1.041727886E-1,-1.304947771E-3
3.754848906E0,1.469730772E-2,-1.073685810E-1,-4.500738345E-3
3.756845469E0,1.576257125E-2,-1.052380577E-1,-1.304947771E-3
3.758842031E0,2.215415239E-2,-1.105643734E-1,-3.435474820E-3
3.760838594E0,2.748047002E-2,-1.063033193E-1,-3.435474820E-3
3.762835156E0,2.961099707E-2,-1.116296351E-1,1.890843036E-3
3.764831719E0,3.706784546E-2,-1.169559509E-1,-2.396840136E-4
3.766828281E0,3.813310713E-2,-1.148254275E-1,-1.304947771E-3
3.768824844E0,4.239416122E-2,-1.233475283E-1,2.956106560E-3
3.770821406E0,4.132889956E-2,-1.286738515E-1,-1.304947771E-3
3.772817969E0,4.665521532E-2,-1.329348981E-1,-2.396840136E-4
3.774814531E0,4.985100776E-2,-1.361306906E-1,1.890843036E-3
3.776811094E0,4.772047698E-2,-1.435875297E-1,-2.396840136E-4
3.778807656E0,4.665521532E-2,-1.435875297E-1,2.956106560E-3
3.780804219E0,4.878573865E-2,-1.478485912E-1,8.255795110E-4
3.782800677E0,4.772047698E-2,-1.510443836E-1,1.890843036E-3
3.784797135E0,4.452468455E-2,-1.574359536E-1,-2.396840136E-4
3.786793594E0,3.919836879E-2,-1.606317461E-1,5.086633377E-3
3.788790052E0,3.919836879E-2,-1.670233309E-1,1.890843036E-3
3.790786510E0,3.813310713E-2,-1.723496467E-1,6.151896901E-3
3.792782969E0,3.174152225E-2,-1.787412316E-1,4.021369852E-3
3.794779427E0,2.428468131E-2,-1.840675473E-1,8.282423951E-3
3.796775885E0,2.321941592E-2,-1.915243864E-1,9.347687475E-3
3.798772344E0,2.215415239E-2,-1.957854480E-1,8.282423951E-3
3.800768802E0,2.002362534E-2,-2.053728104E-1,5.086633377E-3
3.802765260E0,1.363204420E-2,-2.106991410E-1,8.282423951E-3
3.804761719E0,1.256678067E-2,-2.181559801E-1,7.217160426E-3
3.806758177E0,7.240463048E-3,-2.298738807E-1,5.086633377E-3
3.808754635E0,5.109935999E-3,-2.341349274E-1,5.086633377E-3
3.810751094E0,4.044672474E-3,-2.405265123E-1,-2.396840136E-4
3.812747552E0,-3.412172664E-3,-2.415917814E-1,2.956106560E-3
3.814744010E0,8.488814346E-4,-2.469180822E-1,-2.396840136E-4
3.816740469E0,-2.346909139E-3,-2.469180822E-1,-6.631265394E-3
3.818736927E0,-2.346909139E-3,-2.479833663E-1,-6.631265394E-3
3.820733385E0,-2.346909139E-3,-2.447875738E-1,-1.089231949E-2
3.822729844E0,-3.412172664E-3,-2.394612432E-1,-1.302284561E-2
3.824726302E0,-5.542699713E-3,-2.341349274E-1,-1.515337266E-2
3.826722760E0,-3.412172664E-3,-2.309391499E-1,-1.515337266E-2
3.828719219E0,-4.477436189E-3,-2.224170268E-1,-2.367548086E-2
3.830715677E0,-6.607963238E-3,-2.213517725E-1,-2.474074438E-2
3.832712135E0,-5.542699713E-3,-2.096338719E-1,-2.900180034E-2
3.834708594E0,-1.281645615E-3,-2.032422870E-1,-3.113232739E-2
3.836705052E0,2.979408950E-3,-1.968507171E-1,-3.219759464E-2
3.838701510E0,8.488814346E-4,-1.872633398E-1,-3.645864874E-2
3.840697969E0,-2.163820900E-4,-1.734149158E-1,-4.071970284E-2
3.842694427E0,8.488814346E-4,-1.638275385E-1,-4.071970284E-2
3.844690885E0,8.488814346E-4,-1.510443836E-1,-4.071970284E-2
3.846687344E0,-3.412172664E-3,-1.414570063E-1,-4.071970284E-2
3.848683802E0,-1.281645615E-3,-1.350654215E-1,-4.391548783E-2
3.850680260E0,2.979408950E-3,-1.190864816E-1,-4.604601860E-2
3.852676719E0,-2.163820900E-4,-1.126948968E-1,-3.965443373E-2
3.854673177E0,-2.346909139E-3,-1.052380577E-1,-4.285022616E-2
3.856669635E0,-4.477436189E-3,-1.020422652E-1,-4.285022616E-2
3.858666094E0,-3.412172664E-3,-9.138962626E-2,-4.178496450E-2
3.860662552E0,-4.477436189E-3,-8.499804884E-2,-4.071970284E-2
3.862659010E0,-1.281645615E-3,-8.925910294E-2,-4.285022616E-2
3.864655469E0,-3.412172664E-3,-8.606331050E-2,-4.178496450E-2
3.866651927E0,8.488814346E-4,-9.245488793E-2,-3.965443373E-2
3.868648385E0,1.914145425E-3,-9.352015704E-2,-3.752391040E-2
3.870644844E0,5.109935999E-3,-9.352015704E-2,-3.219759464E-2
3.872641302E0,5.109935999E-3,-9.884647280E-2,-3.432811797E-2
3.874637760E0,1.150151715E-2,-1.084338427E-1,-3.432811797E-2
3.876634219E0,1.256678067E-2,-1.137601659E-1,-3.326285630E-2
3.878630677E0,1.256678067E-2,-1.212170050E-1,-3.326285630E-2
3.880627135E0,1.150151715E-2,-1.222822741E-1,-3.113232739E-2
3.882623594E0,1.469730772E-2,-1.244127974E-1,-3.219759464E-2
3.884620052E0,1.150151715E-2,-1.244127974E-1,-2.900180034E-2
3.886616510E0,1.150151715E-2,-1.318696290E-1,-3.113232739E-2
3.888612969E0,7.240463048E-3,-1.286738515E-1,-2.793653496E-2
3.890609427E0,4.044672474E-3,-1.318696290E-1,-2.687127143E-2
3.892605885E0,-2.163820900E-4,-1.329348981E-1,-2.687127143E-2
3.894602344E0,1.914145425E-3,-1.393264830E-1,-2.474074438E-2
3.896598802E0,-4.477436189E-3,-1.382612139E-1,-2.474074438E-2
3.898595260E0,-5.542699713E-3,-1.393264830E-1,-2.474074438E-2
3.900591719E0,-7.673226763E-3,-1.478485912E-1,-2.047969028E-2
3.902588177E0,-7.673226763E-3,-1.489138454E-1,-2.154495381E-2
3.904584635E0,-7.673226763E-3,-1.531749070E-1,-1.834916323E-2
3.906581094E0,-4.477436189E-3,-1.606317461E-1,-1.941442676E-2
3.908577552E0,-3.412172664E-3,-1.659580618E-1,-1.515337266E-2
3.910574010E0,-3.412172664E-3,-1.712843776E-1,-1.089231949E-2
3.912570469E0,1.914145425E-3,-1.851328164E-1,-2.370211296E-3
3.914566927E0,7.240463048E-3,-1.883285940E-1,-2.396840136E-4
3.916563385E0,1.256678067E-2,-1.936549246E-1,5.086633377E-3
3.918559844E0,2.108888887E-2,-1.968507171E-1,7.217160426E-3
3.920556406E0,2.641520463E-2,-2.064380795E-1,1.786979660E-2
3.922552969E0,3.600257635E-2,-2.053728104E-1,2.000032365E-2
3.924549531E0,4.026363045E-2,-2.096338719E-1,2.639190480E-2
3.926546094E0,4.985100776E-2,-2.053728104E-1,2.532664128E-2
3.928542656E0,5.517732352E-2,-2.000464946E-1,2.852243185E-2
3.930539219E0,5.943837762E-2,-1.947201788E-1,2.852243185E-2
3.932535781E0,6.156890094E-2,-1.851328164E-1,3.065295890E-2
3.934532344E0,6.369943172E-2,-1.744801700E-1,3.278348595E-2
3.936528906E0,6.582996249E-2,-1.595664918E-1,3.704454005E-2
3.938525469E0,6.796048582E-2,-1.435875297E-1,3.384875134E-2
3.940522031E0,6.796048582E-2,-1.286738515E-1,4.024032503E-2
3.942518594E0,7.222153991E-2,-1.158906892E-1,3.171822429E-2
3.944515156E0,6.902574748E-2,-1.063033193E-1,3.597927094E-2
3.946511719E0,7.009100914E-2,-9.138962626E-2,3.491400927E-2
3.948508281E0,6.902574748E-2,-8.606331050E-2,3.704454005E-2
3.950504844E0,6.582996249E-2,-8.180225641E-2,3.171822429E-2
3.952501406E0,6.582996249E-2,-7.967173308E-2,2.852243185E-2
3.954497969E0,6.156890094E-2,-7.221488655E-2,2.958769538E-2
3.956494531E0,6.050363928E-2,-6.582330167E-2,2.319611423E-2
3.958491094E0,5.837311596E-2,-6.049698219E-2,2.000032365E-2
3.960487656E0,6.050363928E-2,-5.943172053E-2,1.893506013E-2
3.962484219E0,6.156890094E-2,-5.517066643E-2,1.893506013E-2
3.964480781E0,6.050363928E-2,-5.304013565E-2,1.467400510E-2
3.966477344E0,5.837311596E-2,-4.984434694E-2,1.680453122E-2
3.968473906E0,5.517732352E-2,-4.771381989E-2,1.467400510E-2
3.970470469E0,5.624258518E-2,-5.197487399E-2,8.282423951E-3
3.972467031E0,5.730785429E-2,-4.984434694E-2,7.217160426E-3
3.974463594E0,5.517732352E-2,-5.197487399E-2,2.956106560E-3
3.976460156E0,5.624258518E-2,-5.623592809E-2,4.021369852E-3
3.978456719E0,5.730785429E-2,-5.943172053E-2,-4.500738345E-3
3.980453281E0,5.943837762E-2,-6.475804001E-2,-2.370211296E-3
3.982449844E0,6.582996249E-2,-6.156224385E-2,-8.761792444E-3
3.984446406E0,6.476469338E-2,-5.730118975E-2,-4.500738345E-3
3.986442969E0,6.689522415E-2,-5.730118975E-2,-1.089231949E-2
3.988439531E0,7.541733235E-2,-4.984434694E-2,-1.302284561E-2
3.990436094E0,7.648259401E-2,-4.664855823E-2,-1.408810914E-2
3.992432656E0,7.328680158E-2,-3.706118464E-2,-1.302284561E-2
3.994429219E0,7.541733235E-2,-2.960434183E-2,-1.621863618E-2
3.996425677E0,7.648259401E-2,-1.788644120E-2,-1.941442676E-2
3.998422135E0,7.435207069E-2,-1.575591415E-2,-2.474074438E-2
4.000418594E0,7.328680158E-2,-1.149485912E-2,-2.793653496E-2
4.002415052E0,7.648259401E-2,-5.103277974E-3,-2.793653496E-2
4.004411510E0,7.754785568E-2,-8.422241663E-4,-3.326285630E-2
4.006407969E0,8.180890977E-2,-2.972751157E-3,-3.539337963E-2
4.008404427E0,8.393944055E-2,-6.168541498E-3,-3.539337963E-2
4.010400885E0,8.393944055E-2,-6.168541498E-3,-4.178496450E-2
4.012397344E0,8.820049465E-2,-1.362538617E-2,-4.391548783E-2
4.014393802E0,8.926575631E-2,-1.895170473E-2,-5.030707270E-2
4.016390260E0,8.606996387E-2,-2.214749530E-2,-4.604601860E-2
4.018386719E0,9.139628708E-2,-3.493065760E-2,-5.030707270E-2
4.020383177E0,9.139628708E-2,-3.812645003E-2,-5.030707270E-2
4.022379635E0,9.991839528E-2,-4.132223874E-2,-5.563338846E-2
4.024376094E0,9.778786451E-2,-4.877908155E-2,-5.137233436E-2
4.026372552E0,9.778786451E-2,-5.090961233E-2,-5.243759602E-2
4.028369010E0,9.885312617E-2,-5.836645514E-2,-5.350286514E-2
4.030365469E0,1.009836569E-1,-6.156224385E-2,-5.137233436E-2
4.032361927E0,9.991839528E-2,-7.008435577E-2,-5.030707270E-2
4.034358385E0,1.052447110E-1,-7.221488655E-2,-4.178496450E-2
4.036354844E0,1.073752344E-1,-7.221488655E-2,-4.285022616E-2
4.038351302E0,1.052447110E-1,-7.008435577E-2,-3.858917207E-2
4.040347760E0,1.084405035E-1,-7.328014821E-2,-3.113232739E-2
4.042344219E0,1.116362885E-1,-7.754120231E-2,-3.539337963E-2
4.044340677E0,1.158973426E-1,-8.286751807E-2,-2.474074438E-2
4.046337135E0,1.180278659E-1,-8.925910294E-2,-2.154495381E-2
4.048333594E0,1.212236509E-1,-9.458541870E-2,-1.834916323E-2
4.050330052E0,1.233541891E-1,-1.031075269E-1,-1.302284561E-2
4.052326510E0,1.286804974E-1,-1.105643734E-1,-1.408810914E-2
4.054322969E0,1.308110207E-1,-1.180212125E-1,-5.566001870E-3
4.056319427E0,1.340068132E-1,-1.244127974E-1,-4.500738345E-3
4.058315885E0,1.382678598E-1,-1.308043748E-1,8.255795110E-4
4.060312344E0,1.403983980E-1,-1.361306906E-1,1.890843036E-3
4.062308802E0,1.403983980E-1,-1.478485912E-1,9.347687475E-3
4.064305260E0,1.414636523E-1,-1.510443836E-1,1.041295100E-2
4.066301719E0,1.382678598E-1,-1.542401612E-1,1.573926955E-2
4.068298177E0,1.403983980E-1,-1.616970152E-1,2.213085070E-2
4.070294635E0,1.457247138E-1,-1.638275385E-1,2.426137775E-2
4.072291094E0,1.435941756E-1,-1.670233309E-1,2.532664128E-2
4.074287552E0,1.425289214E-1,-1.627622843E-1,2.639190480E-2
4.076284010E0,1.435941756E-1,-1.616970152E-1,3.278348595E-2
4.078280469E0,1.446594447E-1,-1.638275385E-1,2.852243185E-2
4.080276927E0,1.403983980E-1,-1.627622843E-1,3.491400927E-2
4.082273385E0,1.414636523E-1,-1.531749070E-1,3.278348595E-2
4.084269844E0,1.425289214E-1,-1.510443836E-1,3.491400927E-2
4.086266302E0,1.425289214E-1,-1.510443836E-1,3.704454005E-2
4.088262760E0,1.382678598E-1,-1.446527988E-1,3.810980171E-2
4.090259219E0,1.414636523E-1,-1.446527988E-1,4.237085581E-2
4.092255677E0,1.393331289E-1,-1.361306906E-1,4.024032503E-2
4.094252135E0,1.403983980E-1,-1.308043748E-1,4.237085581E-2
4.096248594E0,1.425289214E-1,-1.244127974E-1,4.237085581E-2
4.098245052E0,1.446594447E-1,-1.158906892E-1,4.769717157E-2
