"Time (s)","Gyroscope x (rad/s)","Gyroscope y (rad/s)","Gyroscope z (rad/s)"
-1.403809000E-3,-3.611755371E-1,-1.733505249E0,-8.902740479E-1
1.098633000E-3,-3.686370850E-1,-1.721786499E0,-8.934631348E-1
3.631592000E-3,-3.846130371E-1,-1.699417114E0,-9.051818848E-1
6.134033000E-3,-4.091186523E-1,-1.655746460E0,-9.200897217E-1
8.666992000E-3,-4.240264893E-1,-1.603546143E0,-9.371337891E-1
1.119995100E-2,-4.293518066E-1,-1.539627075E0,-9.531250000E-1
1.373291000E-2,-4.293518066E-1,-1.469314575E0,-9.701690674E-1
1.626586900E-2,-4.389495850E-1,-1.401138306E0,-9.872131348E-1
1.879882800E-2,-4.432067871E-1,-1.327636719E0,-1.006378174E0
2.130126900E-2,-4.453430176E-1,-1.256271362E0,-1.015975952E0
2.383422800E-2,-4.474639893E-1,-1.178497314E0,-1.033020020E0
2.636718700E-2,-4.378814697E-1,-1.090087891E0,-1.050064087E0
2.890014600E-2,-4.208374023E-1,-9.984741211E-1,-1.067108154E0
3.143310500E-2,-4.037933350E-1,-9.036712646E-1,-1.083084106E0
3.396606400E-2,-3.792877197E-1,-8.173828125E-1,-1.099060059E0
3.649902300E-2,-3.505249023E-1,-7.460021973E-1,-1.111846924E0
3.903198200E-2,-3.207092285E-1,-6.778259277E-1,-1.118240356E0
4.153442400E-2,-2.919464111E-1,-6.139068604E-1,-1.127822876E0
4.406738300E-2,-2.642364502E-1,-5.531921387E-1,-1.126754761E0
4.660034200E-2,-2.312164307E-1,-5.020599365E-1,-1.121429443E0
4.910278300E-2,-1.886138916E-1,-4.647827148E-1,-1.112915039E0
5.163574200E-2,-1.470642090E-1,-4.424133301E-1,-1.093734741E0
5.416870100E-2,-1.044464111E-1,-4.317474365E-1,-1.076690674E0
5.670166000E-2,-5.863952637E-2,-4.296264648E-1,-1.055389404E0
5.923461900E-2,-1.177978516E-2,-4.296264648E-1,-1.031951904E0
6.176757800E-2,3.295898438E-2,-4.285583496E-1,-1.006378174E0
6.430053700E-2,8.622741699E-2,-4.317474365E-1,-9.872131348E-1
6.683349600E-2,1.341705322E-1,-4.509277344E-1,-9.627075195E-1
6.933593700E-2,1.799774170E-1,-4.743652344E-1,-9.360809326E-1
7.186889600E-2,2.257843018E-1,-4.967346191E-1,-9.105072021E-1
7.440185500E-2,2.705230713E-1,-5.329589844E-1,-8.892059326E-1
7.693481400E-2,3.131256104E-1,-5.713043213E-1,-8.700256348E-1
7.946777300E-2,3.546752930E-1,-6.139068604E-1,-8.476562500E-1
8.200073200E-2,3.930206299E-1,-6.597137451E-1,-8.316802979E-1
8.453369100E-2,4.260559082E-1,-7.033996582E-1,-8.188934326E-1
8.706665000E-2,4.526824951E-1,-7.417449951E-1,-8.039855957E-1
8.956909200E-2,4.718475342E-1,-7.758331299E-1,-7.965240479E-1
9.210205100E-2,4.825134277E-1,-8.099212646E-1,-7.837371826E-1
9.463501000E-2,4.910278320E-1,-8.450775146E-1,-7.773437500E-1
9.716796900E-2,4.888916016E-1,-8.663787842E-1,-7.720184326E-1
9.970092800E-2,4.803771973E-1,-8.844909668E-1,-7.720184326E-1
1.022338870E-1,4.697265625E-1,-9.004669189E-1,-7.762908936E-1
1.047363280E-1,4.537506104E-1,-9.089965820E-1,-7.837371826E-1
1.072692870E-1,4.303131104E-1,-9.239044189E-1,-7.869415283E-1
1.098022460E-1,4.015502930E-1,-9.366912842E-1,-7.997283936E-1
1.123352050E-1,3.685302734E-1,-9.494781494E-1,-8.125000000E-1
1.148681640E-1,3.333740234E-1,-9.633178711E-1,-8.284912109E-1
1.174011230E-1,3.003540039E-1,-9.792938232E-1,-8.455352783E-1
1.199035640E-1,2.779693604E-1,-9.910125732E-1,-8.679046631E-1
1.224365230E-1,2.534790039E-1,-9.984741211E-1,-8.870697021E-1
1.249694820E-1,2.332305908E-1,-1.003799438E0,-9.115753174E-1
1.275024410E-1,2.076721191E-1,-1.004867554E0,-9.339447021E-1
1.300354000E-1,1.757049561E-1,-9.995422363E-1,-9.541778564E-1
1.325683590E-1,1.490783691E-1,-9.856872559E-1,-9.765625000E-1
1.350708010E-1,1.235198975E-1,-9.675750732E-1,-9.978637695E-1
1.376037600E-1,9.048461914E-2,-9.484100342E-1,-1.019165039E0
1.401367190E-1,5.427551270E-2,-9.239044189E-1,-1.037277222E0
1.426696780E-1,2.230834961E-2,-8.919525146E-1,-1.048995972E0
1.452026370E-1,-1.177978516E-2,-8.621215820E-1,-1.054321289E0
1.477355960E-1,-4.693603516E-2,-8.365478516E-1,-1.060714722E0
1.502380370E-1,-8.207702637E-2,-8.109893799E-1,-1.057510376E0
1.527709960E-1,-1.193695068E-1,-7.811584473E-1,-1.047927856E0
1.553039550E-1,-1.609191895E-1,-7.609252930E-1,-1.035140991E0
1.578369140E-1,-2.013854980E-1,-7.428131104E-1,-1.019165039E0
1.603698730E-1,-2.461395264E-1,-7.151184082E-1,-9.882812500E-1
1.629028320E-1,-2.983245850E-1,-6.927490234E-1,-9.573822021E-1
1.654052730E-1,-3.451995850E-1,-6.757049561E-1,-9.200897217E-1
1.679382320E-1,-3.973999023E-1,-6.597137451E-1,-8.732299805E-1
1.704711910E-1,-4.506683350E-1,-6.384124756E-1,-8.242187500E-1
1.730041500E-1,-5.018005371E-1,-6.085815430E-1,-7.720184326E-1
1.755371090E-1,-5.497283936E-1,-5.734405518E-1,-7.176971436E-1
1.780700680E-1,-5.944671631E-1,-5.340118408E-1,-6.591033936E-1
1.805725100E-1,-6.360168457E-1,-4.978027344E-1,-6.026458740E-1
1.831054690E-1,-6.743621826E-1,-4.530639648E-1,-5.493774414E-1
1.856384280E-1,-7.041931152E-1,-4.029846191E-1,-4.982452393E-1
1.881713870E-1,-7.308349609E-1,-3.422698975E-1,-4.481811523E-1
1.907043460E-1,-7.478790283E-1,-2.698364258E-1,-4.002532959E-1
1.932373050E-1,-7.617187500E-1,-1.910095215E-1,-3.533782959E-1
1.957397460E-1,-7.723693848E-1,-1.175079346E-1,-3.128967285E-1
1.982727050E-1,-7.755737305E-1,-4.719543457E-2,-2.745513916E-1
2.008056640E-1,-7.659759521E-1,2.204895020E-2,-2.404632568E-1
2.033386230E-1,-7.574615479E-1,9.022521973E-2,-2.053070068E-1
2.058715820E-1,-7.340240479E-1,1.541442871E-1,-1.808013916E-1
2.084045410E-1,-7.052612305E-1,2.201843262E-1,-1.584320068E-1
2.109375000E-1,-6.743621826E-1,2.766418457E-1,-1.403198242E-1
2.134399410E-1,-6.381530762E-1,3.299102783E-1,-1.254119873E-1
2.159729000E-1,-5.944671631E-1,3.863677979E-1,-1.168823242E-1
2.185058590E-1,-5.540008545E-1,4.385681152E-1,-1.126251221E-1
2.210388180E-1,-5.092468262E-1,4.854431152E-1,-1.104888916E-1
2.235717770E-1,-4.591827393E-1,5.280456543E-1,-1.136932373E-1
2.261047360E-1,-4.037933350E-1,5.642700195E-1,-1.104888916E-1
2.286071780E-1,-3.526611328E-1,6.004943848E-1,-1.094360352E-1
2.311401370E-1,-2.962036133E-1,6.303100586E-1,-1.200866699E-1
2.336730960E-1,-2.386779785E-1,6.516265869E-1,-1.254119873E-1
2.362060550E-1,-1.726226807E-1,6.537475586E-1,-1.286010742E-1
2.387084960E-1,-9.700012207E-2,6.409606934E-1,-1.339263916E-1
2.412414550E-1,-2.243041992E-2,6.090087891E-1,-1.456451416E-1
2.437744140E-1,5.213928223E-2,5.610656738E-1,-1.509704590E-1
2.463073730E-1,1.267089844E-1,5.120697021E-1,-1.573638916E-1
2.488403320E-1,2.055358887E-1,4.620056152E-1,-1.562957764E-1
2.513732910E-1,2.779693604E-1,4.183349609E-1,-1.477813721E-1
2.539062500E-1,3.557434082E-1,3.778533936E-1,-1.339263916E-1
2.564392090E-1,4.303131104E-1,3.480224609E-1,-1.190185547E-1
2.589416500E-1,4.974212646E-1,3.256530762E-1,-9.558105469E-2
2.614746090E-1,5.730590820E-1,3.032836914E-1,-7.107543945E-2
2.640075680E-1,6.486816406E-1,2.691955566E-1,-4.231262207E-2
2.665405270E-1,7.211303711E-1,2.212524414E-1,-6.103515625E-3
2.690734860E-1,8.020935059E-1,1.584014893E-1,2.586364746E-2
2.716064450E-1,8.798522949E-1,9.555053711E-2,6.420898438E-2
2.741088870E-1,9.565429688E-1,3.590393066E-2,1.036224365E-1
2.766418460E-1,1.035385132E0,-1.950073242E-2,1.462402344E-1
2.791748050E-1,1.114212036E0,-7.275390625E-2,1.888427734E-1
2.817077640E-1,1.186645508E0,-1.175079346E-1,2.346496582E-1
2.842407230E-1,1.256958008E0,-1.505279541E-1,2.868499756E-1
2.867736820E-1,1.313415527E0,-1.760864258E-1,3.411712646E-1
2.893066410E-1,1.354965210E0,-2.048492432E-1,4.093475342E-1
2.918396000E-1,1.376266479E0,-2.431945801E-1,4.892425537E-1
2.943725590E-1,1.387985229E0,-2.783508301E-1,5.542297363E-1
2.969055170E-1,1.383728027E0,-3.049926758E-1,6.245422363E-1
2.994384760E-1,1.379455566E0,-3.167114258E-1,6.937713623E-1
3.019714350E-1,1.367736816E0,-3.124389648E-1,7.619628906E-1
3.044738770E-1,1.347503662E0,-2.932739258E-1,8.280029297E-1
3.070068360E-1,1.319808960E0,-2.730255127E-1,8.865966797E-1
3.095397950E-1,1.285720825E0,-2.485351562E-1,9.366607666E-1
3.120727540E-1,1.238845825E0,-2.261505127E-1,9.771423340E-1
3.146057130E-1,1.184509277E0,-2.101745605E-1,1.009094238E0
3.171386720E-1,1.116333008E0,-1.995239258E-1,1.035736084E0
3.196411130E-1,1.044967651E0,-1.910095215E-1,1.057037354E0
3.221740720E-1,9.608154297E-1,-1.686401367E-1,1.068756104E0
3.247070310E-1,8.617401123E-1,-1.409301758E-1,1.076202393E0
3.272399900E-1,7.626647949E-1,-1.111145020E-1,1.082595825E0
3.297729490E-1,6.582794189E-1,-7.702636719E-2,1.081527710E0
3.323059080E-1,5.570831299E-1,-3.440856934E-2,1.074081421E0
3.348083500E-1,4.548034668E-1,9.262084961E-3,1.059158325E0
3.373413090E-1,3.472137451E-1,5.932617188E-2,1.038925171E0
3.398742670E-1,2.406921387E-1,1.189880371E-1,1.013351440E0
3.424072260E-1,1.384277344E-1,1.850280762E-1,9.782104492E-1
3.449401850E-1,3.509521484E-2,2.436218262E-1,9.398498535E-1
3.474731440E-1,-6.610107422E-2,3.150024414E-1,8.983154297E-1
3.500061030E-1,-1.630401611E-1,3.852996826E-1,8.546295166E-1
3.525085450E-1,-2.535858154E-1,4.662628174E-1,8.045654297E-1
3.550415040E-1,-3.441314697E-1,5.504150391E-1,7.630157471E-1
3.575744630E-1,-4.346923828E-1,6.345825195E-1,7.161560059E-1
3.601074220E-1,-5.231018066E-1,7.144775391E-1,6.650238037E-1
3.626403810E-1,-6.104583740E-1,7.911682129E-1,6.202697754E-1
3.651733400E-1,-6.935424805E-1,8.604125977E-1,5.734100342E-1
3.676757810E-1,-7.702484131E-1,9.168701172E-1,5.254669189E-1
3.702087400E-1,-8.458709717E-1,9.658660889E-1,4.764709473E-1
3.727416990E-1,-9.097900391E-1,1.007415771E0,4.242706299E-1
3.752746580E-1,-9.705200195E-1,1.041503906E0,3.699340820E-1
3.778076170E-1,-1.028030396E0,1.075592041E0,3.145446777E-1
3.803405760E-1,-1.081298828E0,1.116073608E0,2.612762451E-1
3.828430170E-1,-1.131362915E0,1.158691406E0,2.090911865E-1
3.853759760E-1,-1.178237915E0,1.186386108E0,1.590118408E-1
3.879089350E-1,-1.217651367E0,1.211944580E0,1.068115234E-1
3.904418940E-1,-1.245346069E0,1.240707397E0,5.674743652E-2
3.929443360E-1,-1.276245117E0,1.259887695E0,6.683349609E-3
3.954772950E-1,-1.299682617E0,1.281188965E0,-4.444885254E-2
3.980102540E-1,-1.318847656E0,1.304626465E0,-9.983825684E-2
4.005432130E-1,-1.331634521E0,1.322738647E0,-1.509704590E-1
4.030761720E-1,-1.342285156E0,1.336578369E0,-2.021026611E-1
4.056091310E-1,-1.346557617E0,1.350433350E0,-2.553710938E-1
4.081420900E-1,-1.347610474E0,1.363220215E0,-3.054351807E-1
4.106750490E-1,-1.344421387E0,1.377059937E0,-3.501739502E-1
4.131774900E-1,-1.345489502E0,1.384521484E0,-3.938598633E-1
4.157104490E-1,-1.339096069E0,1.400497437E0,-4.343414307E-1
4.182434080E-1,-1.329513550E0,1.418609619E0,-4.694824219E-1
4.207763670E-1,-1.317794800E0,1.437789917E0,-5.014495850E-1
4.233093260E-1,-1.297546387E0,1.471878052E0,-5.302124023E-1
4.258422850E-1,-1.280502319E0,1.510223389E0,-5.536499023E-1
4.283447260E-1,-1.257064819E0,1.549636841E0,-5.717620850E-1
4.308776850E-1,-1.232574463E0,1.596511841E0,-5.877380371E-1
4.334106440E-1,-1.200607300E0,1.641250610E0,-6.005249023E-1
4.359436030E-1,-1.166519165E0,1.684921265E0,-6.101074219E-1
4.384765620E-1,-1.134567261E0,1.730728149E0,-6.122283936E-1
4.410095210E-1,-1.100479126E0,1.775466919E0,-6.111755371E-1
4.435119630E-1,-1.065322876E0,1.822341919E0,-6.069030762E-1
4.460449220E-1,-1.025909424E0,1.863891602E0,-5.994567871E-1
4.485778810E-1,-9.971466064E-1,1.910766602E0,-5.888061523E-1
4.511108400E-1,-9.737091064E-1,1.957641602E0,-5.792083740E-1
4.536437990E-1,-9.438781738E-1,1.998107910E0,-5.706939697E-1
4.561767580E-1,-9.172515869E-1,2.017288208E0,-5.610961914E-1
4.587097170E-1,-8.852844238E-1,2.010894775E0,-5.536499023E-1
4.612121580E-1,-8.448181152E-1,1.975738525E0,-5.472564697E-1
4.637451170E-1,-7.958068848E-1,1.908630371E0,-5.451202393E-1
4.662780760E-1,-7.414855957E-1,1.803176880E0,-5.493774414E-1
4.688110350E-1,-6.828918457E-1,1.667877197E0,-5.515136719E-1
4.713439940E-1,-6.242980957E-1,1.512359619E0,-5.557708740E-1
4.738464350E-1,-5.603790283E-1,1.332321167E0,-5.600433350E-1
4.763793940E-1,-4.911499023E-1,1.142700195E0,-5.653686523E-1
4.789123530E-1,-4.250946045E-1,9.434967041E-1,-5.674896240E-1
4.814453120E-1,-3.526611328E-1,7.442932129E-1,-5.674896240E-1
4.839782710E-1,-2.823486328E-1,5.493621826E-1,-5.664215088E-1
4.865112300E-1,-2.184295654E-1,3.682556152E-1,-5.600433350E-1
4.890136720E-1,-1.545257568E-1,2.010192871E-1,-5.536499023E-1
4.915466310E-1,-1.033935547E-1,4.867553711E-2,-5.419311523E-1
4.940795900E-1,-6.184387207E-2,-8.128356934E-2,-5.270080566E-1
4.966125490E-1,-2.029418945E-2,-1.974029541E-1,-5.089111328E-1
4.991455080E-1,1.486206055E-2,-3.103179932E-1,-4.833374023E-1
5.016784670E-1,5.213928223E-2,-4.125823975E-1,-4.471130371E-1
5.042114260E-1,8.622741699E-2,-5.084533691E-1,-4.034423828E-1
5.067138670E-1,1.213836670E-1,-5.894165039E-1,-3.512420654E-1
5.092468260E-1,1.533355713E-1,-6.693115234E-1,-2.958526611E-1
5.117797850E-1,1.820983887E-1,-7.310943604E-1,-2.425842285E-1
5.143127440E-1,2.066040039E-1,-7.758331299E-1,-1.850585938E-1
5.168457030E-1,2.257843018E-1,-8.035278320E-1,-1.254119873E-1
5.193786620E-1,2.353668213E-1,-8.163146973E-1,-6.681823730E-2
5.218811030E-1,2.428283691E-1,-8.109893799E-1,-1.142883301E-2
5.244140620E-1,2.460174561E-1,-7.960815430E-1,4.502868652E-2
5.269470210E-1,2.417602539E-1,-7.651824951E-1,1.014862061E-1
5.294799800E-1,2.385559082E-1,-7.300262451E-1,1.536865234E-1
5.320129390E-1,2.268371582E-1,-6.959381104E-1,2.112121582E-1
5.345458980E-1,2.183227539E-1,-6.639862061E-1,2.676696777E-1
5.370483400E-1,2.087402344E-1,-6.245727539E-1,3.283996582E-1
5.395812990E-1,1.927490234E-1,-5.926055908E-1,3.912506104E-1
5.421142580E-1,1.820983887E-1,-5.649108887E-1,4.541015625E-1
5.446472170E-1,1.661224365E-1,-5.372161865E-1,5.084228516E-1
5.471801760E-1,1.480102539E-1,-5.073852539E-1,5.712738037E-1
5.497131350E-1,1.341705322E-1,-4.807586670E-1,6.309356689E-1
5.522155760E-1,1.181945801E-1,-4.562530518E-1,6.969757080E-1
5.547485350E-1,1.107330322E-1,-4.360198975E-1,7.726135254E-1
5.572814940E-1,1.096649170E-1,-4.253692627E-1,8.493041992E-1
5.598144530E-1,1.054077148E-1,-4.157714844E-1,9.206848145E-1
5.623474120E-1,9.687805176E-2,-4.104461670E-1,9.835357666E-1
5.648803710E-1,9.155273438E-2,-4.072570801E-1,1.031463623E0
5.674133300E-1,8.622741699E-2,-4.147033691E-1,1.069824219E0
5.699157710E-1,8.197021484E-2,-4.338836670E-1,1.096450806E0
5.724487300E-1,8.090209961E-2,-4.732971191E-1,1.110290527E0
5.749816890E-1,8.515930176E-2,-5.340118408E-1,1.116683960E0
5.775146480E-1,9.368896484E-2,-6.085815430E-1,1.109237671E0
5.800476070E-1,1.107330322E-1,-7.001953125E-1,1.054901123E0
5.825805660E-1,1.235198975E-1,-7.747650146E-1,8.802032471E-1
5.851135250E-1,8.943176270E-2,-7.886199951E-1,7.310638428E-1
5.876464840E-1,1.591491699E-2,-7.673187256E-1,6.469116211E-1
5.901794430E-1,-5.758666992E-2,-8.024597168E-1,5.393218994E-1
5.927124020E-1,-9.912109375E-2,-9.334869385E-1,3.976287842E-1
5.952453610E-1,-9.700012207E-2,-1.158264160E0,2.250671387E-1
5.977783200E-1,-5.651855469E-2,-1.428848267E0,4.396057129E-2
6.002807620E-1,-3.250122070E-3,-1.705810547E0,-1.339263916E-1
6.028137210E-1,5.960083008E-2,-1.944427490E0,-3.033142090E-1
6.053466800E-1,1.224517822E-1,-2.115936279E0,-4.652252197E-1
6.078796390E-1,1.746520996E-1,-2.213943481E0,-6.143646240E-1
6.104125980E-1,2.129974365E-1,-2.229919434E0,-7.443237305E-1
6.129455570E-1,2.449493408E-1,-2.180923462E0,-8.668365479E-1
6.154479980E-1,2.641296387E-1,-2.081848145E0,-9.808197021E-1
6.179809570E-1,2.801055908E-1,-1.946563721E0,-1.084152222E0
6.205139160E-1,2.939605713E-1,-1.783569336E0,-1.182144165E0
6.230468750E-1,3.120727539E-1,-1.606735229E0,-1.260986328E0
6.255798340E-1,3.429565430E-1,-1.426712036E0,-1.338745117E0
6.281127930E-1,3.770446777E-1,-1.249877930E0,-1.396270752E0
6.306152340E-1,4.196624756E-1,-1.074111938E0,-1.436752319E0
6.331481930E-1,4.675903320E-1,-8.962097168E-1,-1.466583252E0
6.356811520E-1,5.197906494E-1,-7.183074951E-1,-1.486816406E0
6.382141110E-1,5.624084473E-1,-5.169677734E-1,-1.509185791E0
6.407470700E-1,6.007537842E-1,-2.836761475E-1,-1.535812378E0
6.432800290E-1,6.423034668E-1,-6.530761719E-2,-1.575241089E0
6.457824710E-1,6.923675537E-1,1.349639893E-1,-1.618911743E0
6.483154300E-1,7.573394775E-1,3.096771240E-1,-1.652999878E0
6.508483890E-1,8.319091797E-1,4.588012695E-1,-1.679626465E0
6.533813480E-1,9.181976318E-1,5.866394043E-1,-1.706268311E0
6.559143070E-1,1.001296997E0,6.814422607E-1,-1.728637695E0
6.584472660E-1,1.088638306E0,7.325744629E-1,-1.741409302E0
6.609497070E-1,1.179183960E0,7.421722412E-1,-1.749938965E0
6.634826660E-1,1.269744873E0,6.931610107E-1,-1.749938965E0
6.660156250E-1,1.366683960E0,5.866394043E-1,-1.744613647E0
6.685485840E-1,1.466812134E0,4.353790283E-1,-1.740356445E0
6.710815430E-1,1.565887451E0,2.585449219E-1,-1.735031128E0
6.736145020E-1,1.652160645E0,8.276367188E-2,-1.732894897E0
6.761169430E-1,1.726730347E0,-8.874511719E-2,-1.724365234E0
6.786499020E-1,1.786392212E0,-2.559814453E-1,-1.705200195E0
6.811828610E-1,1.835388184E0,-4.115142822E-1,-1.686019897E0
6.837158200E-1,1.875869751E0,-5.606536865E-1,-1.662582397E0
6.862487790E-1,1.908889771E0,-6.906127930E-1,-1.646606445E0
6.887817380E-1,1.937652588E0,-8.014068604E-1,-1.639144897E0
6.912841800E-1,1.957901001E0,-8.823547363E-1,-1.641281128E0
6.938171390E-1,1.964294434E0,-9.281616211E-1,-1.657257080E0
6.963500980E-1,1.961090088E0,-9.292297363E-1,-1.693481445E0
6.988830570E-1,1.948318481E0,-8.887481689E-1,-1.739288330E0
7.014160160E-1,1.924880981E0,-8.099212646E-1,-1.790420532E0
7.039489750E-1,1.891845703E0,-6.970062256E-1,-1.852203369E0
7.064514160E-1,1.853500366E0,-5.553283691E-1,-1.907592773E0
7.089843750E-1,1.808761597E0,-3.997955322E-1,-1.952331543E0
7.115173340E-1,1.759765625E0,-2.485351562E-1,-1.981094360E0
7.140502930E-1,1.718215942E0,-1.036529541E-1,-1.993881226E0
7.165832520E-1,1.675598145E0,2.737426758E-2,-1.988555908E0
7.191162110E-1,1.645782471E0,1.360321045E-1,-1.961929321E0
7.216491700E-1,1.612747192E0,2.084655762E-1,-1.929962158E0
7.241516110E-1,1.583984375E0,2.276458740E-1,-1.888427734E0
7.266845700E-1,1.555221558E0,1.956939697E-1,-1.850067139E0
7.292175290E-1,1.519012451E0,1.221771240E-1,-1.811721802E0
7.317504880E-1,1.473205566E0,2.844238281E-2,-1.766983032E0
7.342834470E-1,1.422073364E0,-7.063293457E-2,-1.721176147E0
7.368164060E-1,1.370941162E0,-1.718292236E-1,-1.665786743E0
7.393188480E-1,1.322998047E0,-2.815551758E-1,-1.595474243E0
7.418518070E-1,1.270797729E0,-4.019317627E-1,-1.512390137E0
7.443847660E-1,1.214340210E0,-5.372161865E-1,-1.396270752E0
7.469177250E-1,1.147232056E0,-6.906127930E-1,-1.256713867E0
7.494506840E-1,1.066268921E0,-8.567962646E-1,-1.097991943E0
7.519836420E-1,9.693298340E-1,-1.035751343E0,-9.222259521E-1
7.544860840E-1,8.542785645E-1,-1.220046997E0,-7.475280762E-1
7.570190430E-1,7.211303711E-1,-1.413925171E0,-5.802764893E-1
7.595520020E-1,5.751800537E-1,-1.620590210E0,-4.322052002E-1
7.620849610E-1,4.484252930E-1,-1.813400269E0,-3.150329590E-1
7.646179200E-1,3.632049561E-1,-1.968933105E0,-2.319335938E-1
7.671508790E-1,3.088684082E-1,-2.111679077E0,-1.722869873E-1
7.696533200E-1,2.758483887E-1,-2.254425049E0,-1.296691895E-1
7.721862790E-1,2.641296387E-1,-2.400360107E0,-1.009063721E-1
7.747192380E-1,2.524108887E-1,-2.543106079E0,-8.706665039E-2
7.772521970E-1,2.428283691E-1,-2.682662964E0,-8.706665039E-2
7.797851560E-1,2.300415039E-1,-2.816879272E0,-1.041107178E-1
7.823181150E-1,2.183227539E-1,-2.930862427E0,-1.264801025E-1
7.848205570E-1,2.044677734E-1,-3.041656494E0,-1.520385742E-1
7.873535160E-1,1.853027344E-1,-3.154571533E0,-1.744079590E-1
7.898864750E-1,1.618652344E-1,-3.252578735E0,-1.989135742E-1
7.924194340E-1,1.256408691E-1,-3.342056274E0,-2.234191895E-1
7.949523920E-1,7.664489746E-2,-3.412368774E0,-2.457885742E-1
7.974853510E-1,1.911926270E-2,-3.465621948E0,-2.819976807E-1
7.999877930E-1,-4.693603516E-2,-3.502914429E0,-3.384552002E-1
8.025207520E-1,-1.236267090E-1,-3.512496948E0,-4.172973633E-1
8.050537110E-1,-2.109832764E-1,-3.506103516E0,-5.014495850E-1
8.075866700E-1,-3.025970459E-1,-3.470947266E0,-5.685577393E-1
8.101196290E-1,-3.920745850E-1,-3.405975342E0,-6.186218262E-1
8.126525880E-1,-4.847564697E-1,-3.301574707E0,-6.537780762E-1
8.151550290E-1,-5.784912109E-1,-3.144989014E0,-6.846771240E-1
8.176879880E-1,-6.551971436E-1,-2.955368042E0,-7.166290283E-1
8.202209470E-1,-7.201690674E-1,-2.760421753E0,-7.443237305E-1
8.227539060E-1,-7.819671631E-1,-2.547363281E0,-7.741546631E-1
8.252868650E-1,-8.480072021E-1,-2.322601318E0,-8.018493652E-1
8.278198240E-1,-9.161834717E-1,-2.092498779E0,-8.210296631E-1
8.303222660E-1,-9.801025391E-1,-1.854949951E0,-8.252868652E-1
8.328552250E-1,-1.039749146E0,-1.618453979E0,-8.071746826E-1
8.353881840E-1,-1.094085693E0,-1.387298584E0,-7.741546631E-1
8.379211420E-1,-1.147354126E0,-1.162521362E0,-7.304840088E-1
8.404541010E-1,-1.199539185E0,-9.388122559E-1,-6.825408936E-1
8.429870600E-1,-1.257064819E0,-7.151184082E-1,-6.409912109E-1
8.455200190E-1,-1.312469482E0,-4.945983887E-1,-6.111755371E-1
8.480224610E-1,-1.360397339E0,-2.815551758E-1,-5.983886719E-1
8.505554200E-1,-1.400878906E0,-8.340454102E-2,-6.005249023E-1
8.530883790E-1,-1.426452637E0,8.596801758E-2,-6.122283936E-1
8.556213380E-1,-1.441360474E0,1.999511719E-1,-6.239471436E-1
8.581237790E-1,-1.439224243E0,2.510833740E-1,-6.463165283E-1
8.606567380E-1,-1.407272339E0,2.201843262E-1,-6.676330566E-1
8.631896970E-1,-1.344421387E0,1.083374023E-1,-6.921234131E-1
8.657226560E-1,-1.251739502E0,-7.063293457E-2,-7.198333740E-1
8.682556150E-1,-1.144149780E0,-3.007202148E-1,-7.507171631E-1
8.707885740E-1,-1.031234741E0,-5.510559082E-1,-7.826843262E-1
8.733215330E-1,-9.129943848E-1,-8.067321777E-1,-8.135681152E-1
8.758544920E-1,-7.883453369E-1,-1.051742554E0,-8.519134521E-1
8.783874510E-1,-6.637115479E-1,-1.277572632E0,-8.785552979E-1
8.809204100E-1,-5.422821045E-1,-1.472518921E0,-9.019927979E-1
8.834533690E-1,-4.229736328E-1,-1.636566162E0,-9.200897217E-1
8.859863280E-1,-3.175048828E-1,-1.762268066E0,-9.360809326E-1
8.885192870E-1,-2.173767090E-1,-1.851745605E0,-9.445953369E-1
8.910522460E-1,-1.300201416E-1,-1.901824951E0,-9.520568848E-1
8.935546870E-1,-6.610107422E-2,-1.902877808E0,-9.648437500E-1
8.960876460E-1,-1.817321777E-2,-1.869857788E0,-9.808197021E-1
8.986206050E-1,1.911926270E-2,-1.821929932E0,-9.946594238E-1
9.011535640E-1,5.534362793E-2,-1.784637451E0,-9.850769043E-1
9.036865230E-1,9.687805176E-2,-1.768661499E0,-9.595184326E-1
9.062194820E-1,1.320343018E-1,-1.756942749E0,-9.254302979E-1
9.087219240E-1,1.522827148E-1,-1.762268066E0,-8.806762695E-1
9.112548830E-1,1.629333496E-1,-1.767593384E0,-8.242187500E-1
9.137878420E-1,1.682586670E-1,-1.782516479E0,-7.496490479E-1
9.163208010E-1,1.629333496E-1,-1.798492432E0,-6.495208740E-1
9.188537600E-1,1.490783691E-1,-1.781448364E0,-5.078430176E-1
9.213867190E-1,1.213836670E-1,-1.745223999E0,-3.278045654E-1
9.238891600E-1,7.664489746E-2,-1.702621460E0,-1.179504395E-1
9.264221190E-1,1.805114746E-2,-1.664260864E0,9.616088867E-2
9.289550780E-1,-6.077575684E-2,-1.646148682E0,2.655487061E-1
9.314880370E-1,-1.630401611E-1,-1.639770508E0,3.592834473E-1
9.340209960E-1,-2.844848633E-1,-1.625915527E0,3.805847168E-1
9.365539550E-1,-4.176483154E-1,-1.581176758E0,3.497009277E-1
9.390563960E-1,-5.507965088E-1,-1.505538940E0,2.996368408E-1
9.415893550E-1,-6.764984131E-1,-1.402206421E0,2.559509277E-1
9.441223140E-1,-7.798309326E-1,-1.287155151E0,2.516937256E-1
9.466552730E-1,-8.533325195E-1,-1.172119141E0,2.879180908E-1
9.491882320E-1,-9.119262695E-1,-1.061325073E0,3.539581299E-1
9.517211910E-1,-9.651794434E-1,-9.484100342E-1,4.359893799E-1
9.542541500E-1,-1.022705078E0,-8.386840820E-1,5.180053711E-1
9.567565920E-1,-1.084503174E0,-7.193756104E-1,6.021728516E-1
9.592895510E-1,-1.145217896E0,-5.968627930E-1,6.809997559E-1
9.618225100E-1,-1.202743530E0,-4.796905518E-1,7.502441406E-1
9.643554690E-1,-1.249618530E0,-3.688964844E-1,8.067016602E-1
9.668884280E-1,-1.278381348E0,-2.709045410E-1,8.546295166E-1
9.694213870E-1,-1.295425415E0,-1.878051758E-1,8.855285645E-1
9.719238280E-1,-1.302871704E0,-1.377410889E-1,8.929901123E-1
9.744567870E-1,-1.306076050E0,-1.175079346E-1,8.727416992E-1
9.769897460E-1,-1.308197021E0,-1.324157715E-1,8.237457275E-1
9.795227050E-1,-1.316726685E0,-1.835479736E-1,7.555694580E-1
9.820556640E-1,-1.324188232E0,-2.687683105E-1,6.628875732E-1
9.845886230E-1,-1.334838867E0,-3.891448975E-1,5.723419189E-1
9.870910640E-1,-1.349746704E0,-5.627746582E-1,4.956359863E-1
9.896240230E-1,-1.371047974E0,-7.918090820E-1,4.455718994E-1
9.921569820E-1,-1.393417358E0,-1.071975708E0,4.157409668E-1
9.946899410E-1,-1.411529541E0,-1.375579834E0,3.997650146E-1
9.972229000E-1,-1.437103271E0,-1.678115845E0,3.891143799E-1
9.997558590E-1,-1.479705811E0,-1.973190308E0,3.678131104E-1
1.002258301E0,-1.526580811E0,-2.250152588E0,3.390502930E-1
1.004791260E0,-1.589431763E0,-2.484512329E0,3.124084473E-1
1.007324219E0,-1.661865234E0,-2.671997070E0,2.889709473E-1
1.009857178E0,-1.728988647E0,-2.821136475E0,2.836456299E-1
1.012390137E0,-1.792892456E0,-2.928726196E0,2.868499756E-1
1.014923096E0,-1.848297119E0,-2.999038696E0,3.017578125E-1
1.017425537E0,-1.891967773E0,-3.055496216E0,3.326568604E-1
1.019958496E0,-1.919662476E0,-3.114089966E0,3.710021973E-1
1.022491455E0,-1.937774658E0,-3.166290283E0,4.157409668E-1
1.025024414E0,-1.947357178E0,-3.209960938E0,4.679412842E-1
1.027557373E0,-1.951614380E0,-3.249374390E0,5.222778320E-1
1.030090332E0,-1.958007812E0,-3.299438477E0,5.787353516E-1
1.032592773E0,-1.971862793E0,-3.378280640E0,6.213378906E-1
1.035125732E0,-1.991043091E0,-3.492263794E0,6.618194580E-1
1.037658691E0,-2.012344360E0,-3.644592285E0,6.991119385E-1
1.040191650E0,-2.035781860E0,-3.835266113E0,7.321319580E-1
1.042724609E0,-2.065597534E0,-4.069625854E0,7.640838623E-1
1.045257568E0,-2.093307495E0,-4.321029663E0,7.949829102E-1
1.047760010E0,-2.130584717E0,-4.577758789E0,8.301391602E-1
1.050292969E0,-2.204086304E0,-4.852600098E0,8.556976318E-1
1.052825928E0,-2.309555054E0,-5.145553589E0,8.802032471E-1
1.055358887E0,-2.454421997E0,-5.447021484E0,9.057617188E-1
1.057891846E0,-2.616348267E0,-5.732513428E0,9.366607666E-1
1.060424805E0,-2.768676758E0,-6.005218506E0,9.728851318E-1
1.062927246E0,-2.896514893E0,-6.264083862E0,1.018692017E0
1.065460205E0,-2.994522095E0,-6.489913940E0,1.038925171E0
1.067993164E0,-3.075469971E0,-6.709350586E0,1.008026123E0
1.070526123E0,-3.157501221E0,-6.931991577E0,9.345245361E-1
1.073059082E0,-3.254440308E0,-7.149307251E0,8.439788818E-1
1.075592041E0,-3.365234375E0,-7.367691040E0,7.790069580E-1
1.078094482E0,-3.456832886E0,-7.554107666E0,7.523651123E-1
1.080627441E0,-3.532470703E0,-7.691528320E0,7.523651123E-1
1.083160400E0,-3.582534790E0,-7.786346436E0,7.662200928E-1
1.085693359E0,-3.608108521E0,-7.840667725E0,7.896575928E-1
1.088226318E0,-3.612365723E0,-7.873687744E0,8.205413818E-1
1.090759277E0,-3.589996338E0,-7.890731812E0,8.599548340E-1
1.093261719E0,-3.546325684E0,-7.884338379E0,8.769989014E-1
1.095794678E0,-3.465362549E0,-7.875823975E0,8.578338623E-1
1.098327637E0,-3.326873779E0,-7.804443359E0,7.758026123E-1
1.100860596E0,-3.128738403E0,-7.571151733E0,6.362609863E-1
1.103363037E0,-2.913558960E0,-7.276077271E0,4.892425537E-1
1.105895996E0,-2.739913940E0,-7.120544434E0,3.710021973E-1
1.108428955E0,-2.636581421E0,-7.082199097E0,2.804565430E-1
1.110961914E0,-2.568405151E0,-7.050247192E0,2.154693604E-1
1.113494873E0,-2.516204834E0,-6.976745605E0,1.387786865E-1
1.116027832E0,-2.455490112E0,-6.877670288E0,5.462646484E-2
1.118560791E0,-2.381988525E0,-6.793518066E0,-3.166198730E-2
1.121093750E0,-2.295700073E0,-6.734924316E0,-1.296691895E-1
1.123626709E0,-2.221130371E0,-6.677398682E0,-2.351379395E-1
1.126129150E0,-2.147628784E0,-6.603897095E0,-3.501739502E-1
1.128662109E0,-2.080520630E0,-6.524002075E0,-4.790802002E-1
1.131195068E0,-2.014465332E0,-6.433456421E0,-6.154327393E-1
1.133728027E0,-1.942031860E0,-6.342910767E0,-7.592468262E-1
1.136230469E0,-1.857879639E0,-6.272598267E0,-9.083862305E-1
1.138763428E0,-1.750289917E0,-6.235321045E0,-1.059646606E0
1.141296387E0,-1.630981445E0,-6.210815430E0,-1.204528809E0
1.143829346E0,-1.493560791E0,-6.191635132E0,-1.348327637E0
1.146362305E0,-1.342285156E0,-6.188446045E0,-1.482559204E0
1.148895264E0,-1.184631348E0,-6.190567017E0,-1.607192993E0
1.151428223E0,-1.021652222E0,-6.218276978E0,-1.731826782E0
1.153961182E0,-8.618621826E-1,-6.258743286E0,-1.858596802E0
1.156494141E0,-7.105865479E-1,-6.307754517E0,-1.983230591E0
1.159027100E0,-5.720977783E-1,-6.366348267E0,-2.113189697E0
1.161560059E0,-4.453430176E-1,-6.430252075E0,-2.235702515E0
1.164093017E0,-3.302917480E-1,-6.505889893E0,-2.367797852E0
1.166625976E0,-2.173767090E-1,-6.599639893E0,-2.499877930E0
1.169158935E0,-1.087188721E-1,-6.695510864E0,-2.628784180E0
1.171661377E0,-7.507324219E-3,-6.783920288E0,-2.755554199E0
1.174194336E0,8.090209961E-2,-6.871276855E0,-2.881256104E0
1.176727295E0,1.639862061E-1,-6.957565308E0,-3.002685547E0
1.179260254E0,2.406921387E-1,-7.059829712E0,-3.125198364E0
1.181793213E0,3.078002930E-1,-7.183395386E0,-3.249832153E0
1.184295654E0,3.738555908E-1,-7.327209473E0,-3.368072510E0
1.186828613E0,4.324340820E-1,-7.502975464E0,-3.485260010E0
1.189361572E0,4.931640625E-1,-7.697921753E0,-3.601364136E0
1.191894531E0,5.538787842E-1,-7.898193359E0,-3.712158203E0
1.194427490E0,6.092681885E-1,-8.083541870E0,-3.817611694E0
1.196960449E0,6.486816406E-1,-8.265701294E0,-3.911361694E0
1.199493408E0,6.849060059E-1,-8.442535400E0,-3.982727051E0
1.201995850E0,7.126007080E-1,-8.607650757E0,-4.042388916E0
1.204528809E0,7.062072754E-1,-8.687545776E0,-4.060501099E0
1.207061767E0,6.348419189E-1,-8.644943237E0,-4.015762329E0
1.209594726E0,5.048828125E-1,-8.591674805E0,-3.888992310E0
1.212097168E0,3.418884277E-1,-8.558654785E0,-3.667419434E0
1.214630127E0,1.831665039E-1,-8.578903198E0,-3.359558105E0
1.217163086E0,8.197021484E-2,-8.719512939E0,-3.019729614E0
1.219696045E0,8.409118652E-2,-9.014587402E0,-2.706542969E0
1.222229004E0,2.097930908E-1,-9.422592163E0,-2.460464478E0
1.224761963E0,3.791809082E-1,-9.724060059E0,-2.270858765E0
1.227294922E0,5.166015625E-1,-9.862533569E0,-2.114257812E0
1.229827881E0,5.847778320E-1,-9.934982300E0,-1.986419678E0
1.232360840E0,5.719909668E-1,-9.980789185E0,-1.862854004E0
1.234863281E0,4.814453125E-1,-9.986114502E0,-1.726501465E0
1.237396240E0,3.546752930E-1,-9.948822021E0,-1.575241089E0
1.239929199E0,2.161865234E-1,-9.869995117E0,-1.415451050E0
1.242462158E0,8.943176270E-2,-9.784774780E0,-1.257781982E0
1.244995117E0,-4.318237305E-3,-9.735778809E0,-1.111846924E0
1.247528076E0,-6.823730469E-2,-9.734710693E0,-9.808197021E-1
1.250030517E0,-9.912109375E-2,-9.792236328E0,-8.689575195E-1
1.252563476E0,-1.097869873E-1,-9.896621704E0,-7.698974609E-1
1.255096435E0,1.139221191E-1,-9.651611328E0,-6.708221436E-1
1.257629394E0,3.823699951E-1,-6.769012451E0,-5.973205566E-1
1.260162353E0,-1.129150391E-3,-5.837966919E0,-5.568389893E-1
1.262695312E0,-1.065826416E-1,-6.653961182E0,-5.600433350E-1
1.265197754E0,-1.364135742E-1,-6.689117432E0,-4.875946045E-1
1.267730713E0,-1.438751221E-1,-6.644378662E0,-4.013061523E-1
1.270263672E0,-1.907348633E-1,-6.627334595E0,-2.873229980E-1
1.272796631E0,-2.898101807E-1,-6.397232056E0,-1.616210938E-1
1.275329590E0,-3.505249023E-1,-5.690963745E0,-4.231262207E-2
1.277862549E0,-4.261627197E-1,-4.791885376E0,9.083557129E-2
1.280364990E0,-5.145874023E-1,-4.008911133E0,2.133483887E-1
1.282897949E0,-5.507965088E-1,-3.208892822E0,3.156127930E-1
1.285430908E0,-5.625152588E-1,-2.396102905E0,4.125518799E-1
1.287963867E0,-5.912780762E-1,-1.601409912E0,5.116119385E-1
1.290496826E0,-6.541290283E-1,-8.727722168E-1,6.042938232E-1
1.293029785E0,-7.329559326E-1,-2.538604736E-1,6.841888428E-1
1.295532226E0,-8.256378174E-1,2.244567871E-1,7.481079102E-1
1.298065185E0,-9.332275391E-1,5.578765869E-1,7.885894775E-1
1.300598144E0,-1.050415039E0,8.114166260E-1,8.269348145E-1
1.303131103E0,-1.171844482E0,9.786529541E-1,8.589019775E-1
1.305664062E0,-1.285827637E0,1.083053589E0,8.855285645E-1
1.308197021E0,-1.392364502E0,1.187454224E0,9.047088623E-1
1.310729980E0,-1.488235474E0,1.276931763E0,9.206848145E-1
1.313232422E0,-1.573455811E0,1.342971802E0,9.313354492E-1
1.315765381E0,-1.643753052E0,1.380264282E0,9.334564209E-1
1.318298340E0,-1.698089600E0,1.365341187E0,9.281311035E-1
1.320831299E0,-1.752410889E0,1.298233032E0,9.068298340E-1
1.323364258E0,-1.802490234E0,1.202362061E0,8.812713623E-1
1.325866699E0,-1.848297119E0,1.074523926E0,8.461151123E-1
1.328399658E0,-1.885574341E0,9.253997803E-1,8.045654297E-1
1.330932617E0,-1.912200928E0,7.773284912E-1,7.502441406E-1
1.333465576E0,-1.935638428E0,6.409606934E-1,6.895141602E-1
1.335998535E0,-1.948425293E0,5.365753174E-1,6.319885254E-1
1.338531494E0,-1.935638428E0,4.556121826E-1,5.734100342E-1
1.341064453E0,-1.903686523E0,3.938293457E-1,5.148162842E-1
1.343566894E0,-1.855743408E0,3.629302979E-1,4.647521973E-1
1.346099853E0,-1.786499023E0,3.501434326E-1,4.200134277E-1
1.348632812E0,-1.698089600E0,3.522796631E-1,3.773956299E-1
1.351165771E0,-1.600082397E0,3.629302979E-1,3.347778320E-1
1.353698730E0,-1.492492676E0,3.767852783E-1,2.868499756E-1
1.356231689E0,-1.377441406E0,3.885040283E-1,2.367858887E-1
1.358734131E0,-1.270919800E0,4.108734131E-1,1.867065430E-1
1.361267090E0,-1.167587280E0,4.385681152E-1,1.366424561E-1
1.363800049E0,-1.070648193E0,4.630737305E-1,8.444213867E-2
1.366333008E0,-9.832916260E-1,4.907684326E-1,3.118896484E-2
1.368865967E0,-9.236450195E-1,5.184631348E-1,-1.994323730E-2
1.371398926E0,-8.767700195E-1,5.386962891E-1,-6.575012207E-2
1.373901367E0,-8.480072021E-1,5.504150391E-1,-1.019744873E-1
1.376434326E0,-8.469390869E-1,5.727844238E-1,-1.318054199E-1
1.378967285E0,-8.661193848E-1,5.972900391E-1,-1.499176025E-1
1.381500244E0,-8.959503174E-1,6.271209717E-1,-1.648254395E-1
1.384033203E0,-9.481353760E-1,6.739959717E-1,-1.669616699E-1
1.386566162E0,-1.018447876E0,7.176666260E-1,-1.477813721E-1
1.389068603E0,-1.106872559E0,7.634735107E-1,-1.168823242E-1
1.391601562E0,-1.216583252E0,8.156738281E-1,-7.853698730E-2
1.394134521E0,-1.330566406E0,8.614807129E-1,-3.698730469E-2
1.396667480E0,-1.455215454E0,9.008941650E-1,7.751464844E-3
1.399200439E0,-1.593688965E0,9.264526367E-1,5.142211914E-2
1.401733398E0,-1.735366821E0,9.456329346E-1,8.976745605E-2
1.404235840E0,-1.880249023E0,9.562835693E-1,1.249237061E-1
1.406768799E0,-2.033645630E0,9.701385498E-1,1.600799561E-1
1.409301758E0,-2.191299438E0,9.882507324E-1,1.984252930E-1
1.411834717E0,-2.348968506E0,1.011672974E0,2.453002930E-1
1.414367676E0,-2.503433228E0,1.042572021E0,3.028259277E-1
1.416900635E0,-2.658950806E0,1.090515137E0,3.614196777E-1
1.419403076E0,-2.821945190E0,1.154418945E0,4.285278320E-1
1.421936035E0,-2.973205566E0,1.233261108E0,5.030975342E-1
1.424468994E0,-3.112762451E0,1.326995850E0,5.797882080E-1
1.427001953E0,-3.245910645E0,1.426071167E0,6.671447754E-1
1.429534912E0,-3.374816895E0,1.538986206E0,7.608947754E-1
1.432067871E0,-3.495193481E0,1.651901245E0,8.556976318E-1
1.434600830E0,-3.607040405E0,1.760559082E0,9.526367188E-1
1.437133789E0,-3.712509155E0,1.861755371E0,1.050643921E0
1.439666748E0,-3.820098877E0,1.962966919E0,1.149719238E0
1.442199707E0,-3.942596436E0,2.058837891E0,1.237060547E0
1.444732666E0,-4.074691772E0,2.138732910E0,1.318023682E0
1.447265625E0,-4.216369629E0,2.216491699E0,1.400054932E0
1.449768066E0,-4.365509033E0,2.307037354E0,1.474624634E0
1.452301025E0,-4.508255005E0,2.403976440E0,1.542800903E0
1.454833984E0,-4.641418457E0,2.507308960E0,1.610977173E0
1.457366943E0,-4.761795044E0,2.622360229E0,1.672760010E0
1.459899902E0,-4.866180420E0,2.743804932E0,1.736679077E0
1.462432861E0,-4.955673218E0,2.862045288E0,1.791000366E0
1.464965820E0,-5.036621094E0,2.968566895E0,1.843200684E0
1.467468262E0,-5.108001709E0,3.055923462E0,1.892196655E0
1.470001221E0,-5.166595459E0,3.125167847E0,1.934814453E0
1.472534180E0,-5.214523315E0,3.180557251E0,1.973159790E0
1.475067139E0,-5.246490479E0,3.223175049E0,2.014709473E0
1.477600098E0,-5.265655518E0,3.262588501E0,2.053054810E0
1.480133057E0,-5.274185181E0,3.328628540E0,2.095672607E0
1.482635498E0,-5.268859863E0,3.391479492E0,2.145736694E0
1.485168457E0,-5.260330200E0,3.408523560E0,2.194732666E0
1.487701416E0,-5.247543335E0,3.409591675E0,2.246932983E0
1.490234375E0,-5.229446411E0,3.403198242E0,2.307647705E0
1.492767334E0,-5.212402344E0,3.392547607E0,2.389678955E0
1.495300293E0,-5.188964844E0,3.364852905E0,2.495147705E0
1.497802734E0,-5.146347046E0,3.310516357E0,2.610183716E0
1.500335693E0,-5.089889526E0,3.247665405E0,2.736953735E0
1.502868652E0,-5.028106689E0,3.176300049E0,2.876510620E0
1.505401611E0,-4.959930420E0,3.084686279E0,3.029907227E0
1.507934570E0,-4.885360718E0,2.978164673E0,3.197143555E0
1.510467529E0,-4.805465698E0,2.853515625E0,3.370788574E0
1.512969971E0,-4.723434448E0,2.720367432E0,3.548690796E0
1.515502930E0,-4.641418457E0,2.572296143E0,3.734039307E0
1.518035889E0,-4.556198120E0,2.413574219E0,3.922592163E0
1.520568848E0,-4.470977783E0,2.254837036E0,4.114349365E0
1.523101807E0,-4.393203735E0,2.092926025E0,4.306091309E0
1.525634766E0,-4.314376831E0,1.923553467E0,4.495712280E0
1.528137207E0,-4.234481812E0,1.736053467E0,4.670410156E0
1.530670166E0,-4.162048340E0,1.553894043E0,4.840850830E0
1.533203125E0,-4.088546753E0,1.377059937E0,4.993179321E0
1.535736084E0,-4.006515503E0,1.172531128E0,5.143386841E0
1.538269043E0,-3.917037964E0,9.285888672E-1,5.297851562E0
1.540802002E0,-3.810501099E0,7.016906738E-1,5.457641602E0
1.543304443E0,-3.689071655E0,4.928894043E-1,5.609970093E0
1.545837402E0,-3.561233521E0,2.926330566E-1,5.746322632E0
1.548370361E0,-3.424880981E0,9.555053711E-2,5.860305786E0
1.550903320E0,-3.268295288E0,-9.619140625E-2,5.950851440E0
1.553436279E0,-3.091461182E0,-2.804870605E-1,6.017974854E0
1.555969238E0,-2.892257690E0,-4.221649170E-1,6.046737671E0
1.558471680E0,-2.646179199E0,-4.381408691E-1,6.023300171E0
1.561004639E0,-2.343643188E0,-3.934020996E-1,5.919967651E0
1.563537598E0,-1.995300293E0,-3.646392822E-1,5.754852295E0
1.566070557E0,-1.617126465E0,-3.859405518E-1,5.556716919E0
1.568603516E0,-1.236831665E0,-4.679718018E-1,5.339401245E0
1.571136475E0,-8.650512695E-1,-5.787658691E-1,5.108230591E0
1.573638916E0,-5.060577393E-1,-6.959381104E-1,4.865356445E0
1.576171875E0,-1.779632568E-1,-8.120574951E-1,4.623535156E0
1.578704834E0,1.118011475E-1,-8.919525146E-1,4.399841309E0
1.581237793E0,3.472137451E-1,-9.260406494E-1,4.200622559E0
1.583770752E0,5.261840820E-1,-9.345550537E-1,4.034454346E0
1.586303711E0,6.518859863E-1,-9.249725342E-1,3.915145874E0
1.588836670E0,7.317810059E-1,-9.217681885E-1,3.816070557E0
1.591339111E0,7.775878906E-1,-9.388122559E-1,3.730850220E0
1.593872070E0,8.042144775E-1,-9.792938232E-1,3.654144287E0
1.596405029E0,8.223266602E-1,-1.022979736E0,3.590240479E0
1.598937988E0,8.276519775E-1,-1.069839478E0,3.541229248E0
1.601470947E0,8.244628906E-1,-1.126312256E0,3.500747681E0
1.604003906E0,8.138122559E-1,-1.181701660E0,3.471984863E0
1.606506348E0,8.020935059E-1,-1.242416382E0,3.459197998E0
1.609039307E0,7.754516602E-1,-1.299942017E0,3.450683594E0
1.611572266E0,7.328491211E-1,-1.335098267E0,3.444290161E0
1.614105225E0,6.689300537E-1,-1.360656738E0,3.468795776E0
1.616638184E0,5.986175537E-1,-1.425643921E0,3.498626709E0
1.619171142E0,5.080718994E-1,-1.515121460E0,3.513534546E0
1.621673584E0,4.068756104E-1,-1.611007690E0,3.522048950E0
1.624206543E0,2.982177734E-1,-1.714324951E0,3.532714844E0
1.626739502E0,1.799774170E-1,-1.825119019E0,3.550811768E0
1.629272461E0,5.427551270E-2,-1.954010010E0,3.576385498E0
1.631805420E0,-6.291198730E-2,-2.086105347E0,3.606216431E0
1.634338379E0,-1.726226807E-1,-2.218200684E0,3.638168335E0
1.636840820E0,-2.759552002E-1,-2.344970703E0,3.674392700E0
1.639373779E0,-3.718414307E-1,-2.470672607E0,3.711669922E0
1.641906738E0,-4.655761719E-1,-2.582519531E0,3.746826172E0
1.644439697E0,-5.454711914E-1,-2.661346436E0,3.777725220E0
1.646972656E0,-6.168518066E-1,-2.740188599E0,3.805419922E0
1.649505615E0,-6.818237305E-1,-2.815811157E0,3.826721191E0
1.652008057E0,-7.372131348E-1,-2.877593994E0,3.829910278E0
1.654541016E0,-7.872924805E-1,-2.943649292E0,3.830978394E0
1.657073975E0,-8.277740479E-1,-3.000106812E0,3.823532104E0
1.659606934E0,-8.586578369E-1,-3.022476196E0,3.808609009E0
1.662139892E0,-8.746337891E-1,-3.033126831E0,3.786239624E0
1.664672851E0,-8.789062500E-1,-3.022476196E0,3.750015259E0
1.667175293E0,-8.735809326E-1,-3.001174927E0,3.707412720E0
1.669708252E0,-8.533325195E-1,-2.985198975E0,3.652023315E0
1.672241211E0,-8.320312500E-1,-2.946838379E0,3.594497681E0
1.674774170E0,-8.171081543E-1,-2.910629272E0,3.536972046E0
1.677307129E0,-7.968750000E-1,-2.893585205E0,3.477310181E0
1.679840088E0,-7.851562500E-1,-2.896774292E0,3.421920776E0
1.682342529E0,-7.755737305E-1,-2.907424927E0,3.375045776E0
1.684875488E0,-7.649230957E-1,-2.908493042E0,3.345214844E0
1.687408447E0,-7.595977783E-1,-2.908493042E0,3.326049805E0
1.689941406E0,-7.670440674E-1,-2.908493042E0,3.315399170E0
1.692474365E0,-7.734375000E-1,-2.904235840E0,3.312194824E0
1.695007324E0,-7.851562500E-1,-2.906356812E0,3.312194824E0
1.697509766E0,-8.054046631E-1,-2.918075562E0,3.314331055E0
1.700042725E0,-8.288269043E-1,-2.920211792E0,3.317520142E0
1.702575684E0,-8.565368652E-1,-2.924468994E0,3.321792603E0
1.705108642E0,-8.863525391E-1,-2.930862427E0,3.327117920E0
1.707641601E0,-9.161834717E-1,-2.927673340E0,3.329238892E0
1.710174560E0,-9.545288086E-1,-2.914886475E0,3.333511353E0
1.712677002E0,-9.992828369E-1,-2.902099609E0,3.344161987E0
1.715209961E0,-1.047210693E0,-2.883987427E0,3.356933594E0
1.717742920E0,-1.111129761E0,-2.840316772E0,3.364395142E0
1.720275879E0,-1.191024780E0,-2.763610840E0,3.364395142E0
1.722808838E0,-1.289031982E0,-2.679458618E0,3.343093872E0
1.725341797E0,-1.372116089E0,-2.629394531E0,3.289825439E0
1.727874756E0,-1.432830811E0,-2.597442627E0,3.210998535E0
1.730407715E0,-1.494628906E0,-2.523925781E0,3.109802246E0
1.732940674E0,-1.568130493E0,-2.355621338E0,2.980895996E0
1.735473633E0,-1.634170532E0,-2.097824097E0,2.789154053E0
1.738006592E0,-1.690628052E0,-1.841094971E0,2.537750244E0
1.740539551E0,-1.732177734E0,-1.664260864E0,2.257583618E0
1.743072510E0,-1.744964600E0,-1.551345825E0,1.974227905E0
1.745574951E0,-1.751358032E0,-1.443756104E0,1.690872192E0
1.748107910E0,-1.722595215E0,-1.388366699E0,1.381942749E0
1.750640869E0,-1.646957397E0,-1.293548584E0,1.031463623E0
1.753173828E0,-1.546813965E0,-1.239227295E0,6.703491211E-1
1.755706787E0,-1.423248291E0,-1.299942017E0,3.220062256E-1
1.758239746E0,-1.292221069E0,-1.426712036E0,6.683349609E-3
1.760742187E0,-1.159057617E0,-1.589691162E0,-2.756042480E-1
1.763275146E0,-1.045074463E0,-1.753753662E0,-4.822692871E-1
1.765808105E0,-9.651794434E-1,-1.899688721E0,-5.877380371E-1
1.768341064E0,-9.236450195E-1,-2.053085327E0,-6.228942871E-1
1.770874023E0,-9.076690674E-1,-2.248031616E0,-6.037139893E-1
1.773406982E0,-8.938140869E-1,-2.505828857E0,-5.280761719E-1
1.775909424E0,-8.852844238E-1,-2.793441772E0,-4.194183350E-1
1.778442383E0,-8.810272217E-1,-3.098114014E0,-2.788085938E-1
1.780975342E0,-8.725128174E-1,-3.394256592E0,-1.147613525E-1
1.783508301E0,-8.639831543E-1,-3.665893555E0,6.527709961E-2
1.786041260E0,-8.565368652E-1,-3.894927979E0,2.612762451E-1
1.788574219E0,-8.416137695E-1,-4.086669922E0,4.530334473E-1
1.791076660E0,-8.224487305E-1,-4.225158691E0,6.266632080E-1
1.793609619E0,-8.054046631E-1,-4.321029663E0,7.758026123E-1
1.796142578E0,-7.904815674E-1,-4.368972778E0,8.961791992E-1
1.798675537E0,-7.808990479E-1,-4.372161865E0,9.941864014E-1
1.801208496E0,-7.798309326E-1,-4.319961548E0,1.060226440E0
1.803741455E0,-7.904815674E-1,-4.216644287E0,1.098587036E0
1.806243896E0,-8.096618652E-1,-4.068572998E0,1.104965210E0
1.808776855E0,-8.298950195E-1,-3.876815796E0,1.084732056E0
1.811309814E0,-8.480072021E-1,-3.647781372E0,1.037857056E0
1.813842773E0,-8.639831543E-1,-3.376144409E0,9.686126709E-1
1.816375732E0,-8.682403564E-1,-3.081069946E0,8.695526123E-1
1.818908691E0,-8.597259521E-1,-2.768936157E0,7.598266602E-1
1.821411133E0,-8.416137695E-1,-2.450424194E0,6.522369385E-1
1.823944092E0,-8.160552979E-1,-2.115936279E0,5.552978516E-1
1.826477051E0,-7.808990479E-1,-1.782516479E0,4.796600342E-1
1.829010010E0,-7.393493652E-1,-1.470382690E0,4.242706299E-1
1.831542969E0,-7.031250000E-1,-1.168914795E0,3.869781494E-1
1.834075928E0,-6.690368652E-1,-8.749084473E-1,3.742065430E-1
1.836578369E0,-6.306915283E-1,-6.043243408E-1,3.742065430E-1
1.839111328E0,-5.870208740E-1,-3.486633301E-1,3.837890625E-1
1.841644287E0,-5.454711914E-1,-1.228332520E-1,3.944396973E-1
1.844177246E0,-5.124511719E-1,7.531738281E-2,4.093475342E-1
1.846710205E0,-4.954071045E-1,2.329711914E-1,4.434356689E-1
1.849243164E0,-4.900817871E-1,3.373718262E-1,5.254669189E-1
1.851776123E0,-5.049896240E-1,3.821105957E-1,6.522369385E-1
1.854278564E0,-5.358886719E-1,3.778533936E-1,8.205413818E-1
1.856811523E0,-5.635833740E-1,3.650665283E-1,1.019744873E0
1.859344482E0,-5.720977783E-1,3.821105957E-1,1.234939575E0
1.861877441E0,-5.486755371E-1,4.151306152E-1,1.444793701E0
1.864410400E0,-5.156402588E-1,4.534759521E-1,1.645065308E0
1.866943359E0,-4.836883545E-1,5.216522217E-1,1.851715088E0
1.869445801E0,-4.112548828E-1,6.100769043E-1,2.061584473E0
1.871978760E0,-3.324127197E-1,6.590728760E-1,2.242675781E0
1.874511719E0,-2.866058350E-1,6.729278564E-1,2.376892090E0
1.877044678E0,-2.823486328E-1,6.548156738E-1,2.474899292E0
1.879577637E0,-3.249664307E-1,6.356353760E-1,2.563323975E0
1.882110596E0,-3.888854980E-1,6.739959717E-1,2.602737427E0
1.884613037E0,-4.751586914E-1,7.453613281E-1,2.559051514E0
1.887145996E0,-5.720977783E-1,8.369750977E-1,2.439743042E0
1.889678955E0,-6.637115479E-1,9.392395020E-1,2.266113281E0
1.892211914E0,-7.436065674E-1,1.059616089E0,2.065841675E0
1.894744873E0,-8.064575195E-1,1.197036743E0,1.873031616E0
1.897277832E0,-8.565368652E-1,1.319534302E0,1.715362549E0
1.899780273E0,-8.895568848E-1,1.417541504E0,1.602447510E0
1.902313232E0,-9.129943848E-1,1.483596802E0,1.525756836E0
1.904846191E0,-9.300384521E-1,1.517684937E0,1.470352173E0
1.907379150E0,-9.406890869E-1,1.519805908E0,1.429870605E0
1.909912109E0,-9.396209717E-1,1.494247437E0,1.400054932E0
1.912445068E0,-9.268341064E-1,1.445236206E0,1.386199951E0
1.914947510E0,-9.002075195E-1,1.372802734E0,1.375549316E0
1.917480469E0,-8.565368652E-1,1.264144897E0,1.355300903E0
1.920013428E0,-8.075256348E-1,1.128860474E0,1.324417114E0
1.922546387E0,-7.478790283E-1,9.989013672E-1,1.287124634E0
1.925079346E0,-6.797027588E-1,8.817138672E-1,1.253036499E0
1.927612305E0,-6.040649414E-1,7.741241455E-1,1.223220825E0
1.930114746E0,-5.326843262E-1,6.707916260E-1,1.181671143E0
1.932647705E0,-4.623870850E-1,5.695953369E-1,1.130538940E0
1.935180664E0,-3.984680176E-1,4.737243652E-1,1.087921143E0
1.937713623E0,-3.345489502E-1,3.885040283E-1,1.026138306E0
1.940246582E0,-2.791595459E-1,3.128662109E-1,9.451751709E-1
1.942779541E0,-2.258911133E-1,2.595977783E-1,8.674163818E-1
1.945281982E0,-1.875457764E-1,2.244567871E-1,8.024291992E-1
1.947814941E0,-1.523895264E-1,2.010192871E-1,7.512969971E-1
1.950347900E0,-1.289520264E-1,1.978149414E-1,6.980438232E-1
1.952880859E0,-1.214904785E-1,2.063446045E-1,6.469116211E-1
1.955413818E0,-1.236267090E-1,2.223205566E-1,6.011047363E-1
1.957946777E0,-1.300201416E-1,2.446899414E-1,5.627441406E-1
1.960449219E0,-1.396026611E-1,2.734527588E-1,5.371856689E-1
1.962982178E0,-1.577148438E-1,3.086090088E-1,5.116119385E-1
1.965515137E0,-1.715698242E-1,3.458862305E-1,4.977722168E-1
1.968048096E0,-1.907348633E-1,3.810424805E-1,4.956359863E-1
1.970581055E0,-2.120513916E-1,4.055480957E-1,5.041656494E-1
1.973114014E0,-2.365417480E-1,4.247131348E-1,5.062866211E-1
1.975646973E0,-2.599792480E-1,4.428253174E-1,5.116119385E-1
1.978149414E0,-2.823486328E-1,4.673309326E-1,5.201416016E-1
1.980682373E0,-2.951354980E-1,5.152740479E-1,5.297241211E-1
1.983215332E0,-3.111114502E-1,5.386962891E-1,5.467681885E-1
1.985748291E0,-3.366851807E-1,5.216522217E-1,5.712738037E-1
1.988281250E0,-3.697052002E-1,4.971618652E-1,5.957794189E-1
1.990783691E0,-4.048614502E-1,4.875640869E-1,6.245422363E-1
1.993316650E0,-4.272308350E-1,4.801177979E-1,6.543579102E-1
1.995849609E0,-4.485321045E-1,4.694671631E-1,6.809997559E-1
1.998382568E0,-4.591827393E-1,4.598693848E-1,7.065582275E-1
2.000915527E0,-4.591827393E-1,4.460296631E-1,7.332000732E-1
2.003448486E0,-4.581146240E-1,4.502868652E-1,7.683410645E-1
2.005981445E0,-4.527893066E-1,4.683990479E-1,8.130950928E-1
2.008514404E0,-4.517364502E-1,4.811706543E-1,8.589019775E-1
2.011047363E0,-4.485321045E-1,5.024871826E-1,9.110870361E-1
2.013580322E0,-4.485321045E-1,5.216522217E-1,9.622192383E-1
2.016113281E0,-4.485321045E-1,5.323181152E-1,1.004837036E0
2.018646240E0,-4.463958740E-1,5.440216064E-1,1.047439575E0
2.021179199E0,-4.400177002E-1,5.834503174E-1,1.081527710E0
2.023681641E0,-4.325561523E-1,6.803894043E-1,1.104965210E0
2.026214600E0,-4.304199219E-1,7.368469238E-1,1.115631104E0
2.028747559E0,-4.357452393E-1,7.602844238E-1,1.123077393E0
2.031280517E0,-4.474639893E-1,7.645416260E-1,1.116683960E0
2.033813476E0,-4.645080566E-1,7.581481934E-1,1.097518921E0
2.036346435E0,-4.794311523E-1,7.453613281E-1,1.075149536E0
2.038848877E0,-4.847564697E-1,7.378997803E-1,1.054901123E0
2.041381836E0,-4.772949219E-1,7.411041260E-1,1.028274536E0
2.043914795E0,-4.709014893E-1,7.560119629E-1,1.002700806E0
2.046447754E0,-4.591827393E-1,7.783813477E-1,9.771423340E-1
2.048980713E0,-4.432067871E-1,8.092803955E-1,9.494476318E-1
2.051513672E0,-4.357452393E-1,8.348388672E-1,9.132232666E-1
2.054016113E0,-4.272308350E-1,8.678741455E-1,8.706054688E-1
2.056549072E0,-4.187011719E-1,9.094085693E-1,8.237457275E-1
2.059082031E0,-4.059295654E-1,9.477691650E-1,7.747344971E-1
2.061614990E0,-3.942108154E-1,9.967651367E-1,7.246704102E-1
2.064147949E0,-3.814239502E-1,1.041503906E0,6.724700928E-1
2.066680908E0,-3.654479980E-1,1.053222656E0,6.213378906E-1
2.069183350E0,-3.590545654E-1,1.053222656E0,5.734100342E-1
2.071716309E0,-3.526611328E-1,1.043640137E0,5.329284668E-1
2.074249267E0,-3.366851807E-1,1.028717041E0,4.924468994E-1
2.076782226E0,-3.185729980E-1,1.013809204E0,4.583587646E-1
2.079315185E0,-2.940673828E-1,9.989013672E-1,4.349212646E-1
2.081848144E0,-2.589111328E-1,9.850463867E-1,4.061584473E-1
2.084350586E0,-2.227020264E-1,9.807891846E-1,3.859100342E-1
2.086883545E0,-1.886138916E-1,9.861145020E-1,3.742065430E-1
2.089385986E0,-1.523895264E-1,9.967651367E-1,3.603515625E-1
2.091918945E0,-1.204376221E-1,1.003158569E0,3.390502930E-1
2.094451904E0,-9.806823730E-2,1.003158569E0,3.166809082E-1
2.096984863E0,-7.995605469E-2,9.829101562E-1,2.921752930E-1
2.099517822E0,-6.930541992E-2,9.530944824E-1,2.538299561E-1
2.102050781E0,-6.930541992E-2,9.115447998E-1,2.261352539E-1
2.104583740E0,-8.207702637E-2,8.518829346E-1,2.090911865E-1
2.107116699E0,-9.272766113E-2,8.039550781E-1,1.994934082E-1
2.109649658E0,-1.012573242E-1,7.666625977E-1,1.909790039E-1
2.112182617E0,-1.108398438E-1,7.208557129E-1,1.792602539E-1
2.114715576E0,-1.161651611E-1,6.846466064E-1,1.600799561E-1
2.117218017E0,-1.108398438E-1,6.569519043E-1,1.398468018E-1
2.119750976E0,-1.012573242E-1,6.356353760E-1,1.078796387E-1
2.122283935E0,-9.272766113E-2,6.143341064E-1,7.379150391E-2
2.124816894E0,-9.486389160E-2,5.738525391E-1,4.396057129E-2
2.127349853E0,-9.806823730E-2,5.312500000E-1,1.521301270E-2
2.129882812E0,-1.055145264E-1,4.875640869E-1,-8.224487305E-3
2.132385254E0,-1.129760742E-1,4.470825195E-1,-3.273010254E-2
2.134918213E0,-1.193695068E-1,4.023437500E-1,-5.297851562E-2
2.137451172E0,-1.289520264E-1,3.533477783E-1,-7.534790039E-2
2.139984131E0,-1.353454590E-1,3.150024414E-1,-9.983825684E-2
2.142517090E0,-1.396026611E-1,2.745208740E-1,-1.211547852E-1
2.145050049E0,-1.449279785E-1,2.244567871E-1,-1.296691895E-1
2.147552490E0,-1.609191895E-1,1.733093262E-1,-1.307373047E-1
2.150085449E0,-1.800842285E-1,1.062011719E-1,-1.328735352E-1
2.152618408E0,-2.024536133E-1,3.802490234E-2,-1.392517090E-1
2.155151367E0,-2.205657959E-1,-1.843261719E-2,-1.403198242E-1
2.157684326E0,-2.376098633E-1,-6.956481934E-2,-1.403198242E-1
2.160217285E0,-2.503967285E-1,-1.281585693E-1,-1.467132568E-1
2.162719726E0,-2.642364502E-1,-1.824798584E-1,-1.541748047E-1
2.165252685E0,-2.802276611E-1,-2.559814453E-1,-1.562957764E-1
2.167785644E0,-2.876739502E-1,-3.220367432E-1,-1.616210938E-1
2.170318603E0,-2.962036133E-1,-3.646392822E-1,-1.595001221E-1
2.172851562E0,-3.025970459E-1,-4.008636475E-1,-1.573638916E-1
2.175384521E0,-3.047180176E-1,-4.381408691E-1,-1.616210938E-1
2.177886963E0,-3.057861328E-1,-4.669036865E-1,-1.669616699E-1
2.180419922E0,-3.057861328E-1,-4.839477539E-1,-1.744079590E-1
2.182952881E0,-2.972717285E-1,-5.031280518E-1,-1.882629395E-1
2.185485840E0,-2.908782959E-1,-5.159149170E-1,-2.095642090E-1
2.188018799E0,-2.876739502E-1,-5.148468018E-1,-2.457885742E-1
2.190551758E0,-2.706298828E-1,-4.945983887E-1,-2.894592285E-1
2.193054199E0,-2.440032959E-1,-4.551849365E-1,-3.352661133E-1
2.195587158E0,-2.131042480E-1,-4.019317627E-1,-3.778839111E-1
2.198120117E0,-1.832885742E-1,-3.529205322E-1,-4.258117676E-1
2.200653076E0,-1.481323242E-1,-3.017883301E-1,-4.833374023E-1
2.203186035E0,-1.204376221E-1,-2.559814453E-1,-5.461883545E-1
2.205718994E0,-8.953857422E-2,-2.091064453E-1,-6.069030762E-1
2.208221435E0,-5.651855469E-2,-1.579742432E-1,-6.676330566E-1
2.210754394E0,-2.775573730E-2,-9.407043457E-2,-7.251586914E-1
2.213287353E0,1.007080078E-3,-2.694702148E-2,-7.848052979E-1
2.215820312E0,3.616333008E-2,3.802490234E-2,-8.338165283E-1
2.218322754E0,7.771301270E-2,1.008758545E-1,-8.785552979E-1
2.220855713E0,1.192474365E-1,1.743774414E-1,-9.158325195E-1
2.223388672E0,1.533355713E-1,2.510833740E-1,-9.477996826E-1
2.225921631E0,1.778411865E-1,3.235168457E-1,-9.925384521E-1
2.228424072E0,1.948852539E-1,3.703918457E-1,-1.035140991E0
2.230957031E0,2.129974365E-1,3.959503174E-1,-1.085220337E0
2.233489990E0,2.268371582E-1,4.300384521E-1,-1.135284424E0
2.236022949E0,2.311096191E-1,4.673309326E-1,-1.180023193E0
2.238555908E0,2.364349365E-1,4.960937500E-1,-1.209854126E0
2.241088867E0,2.353668213E-1,5.078125000E-1,-1.229019165E0
2.243621826E0,2.257843018E-1,5.142059326E-1,-1.234344482E0
2.246154785E0,2.119293213E-1,5.142059326E-1,-1.221572876E0
2.248687744E0,1.991424561E-1,5.067443848E-1,-1.195999146E0
2.251190185E0,1.820983887E-1,4.928894043E-1,-1.166168213E0
2.253723144E0,1.661224365E-1,4.769134521E-1,-1.136352539E0
2.256256103E0,1.671905518E-1,5.067443848E-1,-1.074554443E0
2.258789062E0,1.799774170E-1,5.536193848E-1,-9.882812500E-1
2.261322021E0,1.853027344E-1,5.685272217E-1,-9.264831543E-1
2.263854980E0,1.831665039E-1,5.813140869E-1,-8.742828369E-1
2.266357422E0,1.820983887E-1,5.855712891E-1,-8.114471436E-1
2.268890381E0,1.767730713E-1,5.674591064E-1,-7.549743652E-1
2.271423340E0,1.586608887E-1,5.291137695E-1,-7.027893066E-1
2.273956299E0,1.352386475E-1,4.950256348E-1,-6.612396240E-1
2.276489258E0,1.118011475E-1,4.588012695E-1,-6.282196045E-1
2.279022217E0,8.303833008E-2,4.268493652E-1,-6.015777588E-1
2.281555176E0,5.107116699E-2,4.087371826E-1,-5.888061523E-1
2.284088135E0,2.551269531E-2,3.885040283E-1,-5.813446045E-1
2.286590576E0,1.007080078E-3,3.522796631E-1,-5.738830566E-1
2.289123535E0,-1.071166992E-2,2.894287109E-1,-5.696258545E-1
2.291656494E0,-2.136230469E-2,2.116699219E-1,-5.728149414E-1
2.294189453E0,-3.201293945E-2,1.232452393E-1,-5.834655762E-1
2.296722412E0,-4.693603516E-2,3.376770020E-2,-6.026458740E-1
2.299255371E0,-5.226135254E-2,-3.761291504E-2,-6.282196045E-1
2.301788330E0,-5.545043945E-2,-1.068420410E-1,-6.580352783E-1
2.304321289E0,-5.651855469E-2,-1.686401367E-1,-6.804046631E-1
2.306854248E0,-5.119323730E-2,-2.272186279E-1,-6.836090088E-1
2.309387207E0,-4.373168945E-2,-2.613067627E-1,-6.644287109E-1
2.311920166E0,-4.266357422E-2,-2.932739258E-1,-6.282196045E-1
2.314453125E0,-3.947448730E-2,-3.252258301E-1,-5.813446045E-1
2.316955566E0,-3.733825684E-2,-3.571777344E-1,-5.302124023E-1
2.319488525E0,-4.054260254E-2,-3.859405518E-1,-4.769439697E-1
2.322021484E0,-4.479980469E-2,-4.157714844E-1,-4.268798828E-1
2.324554443E0,-4.693603516E-2,-4.392089844E-1,-3.800048828E-1
2.327087402E0,-4.479980469E-2,-4.530639648E-1,-3.374023438E-1
2.329620361E0,-5.012512207E-2,-4.466705322E-1,-2.926635742E-1
2.332122803E0,-6.077575684E-2,-4.306945801E-1,-2.543029785E-1
2.334655762E0,-7.568359375E-2,-3.997955322E-1,-2.319335938E-1
2.337188721E0,-9.272766113E-2,-3.497314453E-1,-2.170257568E-1
2.339721680E0,-1.140441895E-1,-2.911376953E-1,-2.084960938E-1
2.342254639E0,-1.534576416E-1,-2.240295410E-1,-1.967773438E-1
2.344787598E0,-1.619720459E-1,-8.979797363E-2,-1.776123047E-1
2.347320557E0,-1.523895264E-1,9.875488281E-2,-1.595001221E-1
2.349822998E0,-1.459960938E-1,2.968902588E-1,-1.424560547E-1
2.352355957E0,-1.449279785E-1,4.875640869E-1,-1.435241699E-1
2.354888916E0,-1.577148438E-1,7.048797607E-1,-1.541748047E-1
2.357421875E0,-1.790161133E-1,9.434967041E-1,-1.754760742E-1
2.359954834E0,-2.120513916E-1,1.173599243E0,-1.999816895E-1
2.362487793E0,-2.482604980E-1,1.415420532E0,-2.244720459E-1
2.364990234E0,-2.887420654E-1,1.673202515E0,-2.372589111E-1
2.367523193E0,-3.377532959E-1,1.932067871E0,-2.447204590E-1
2.370056152E0,-3.910064697E-1,2.190933228E0,-2.415161133E-1
2.372589111E0,-4.400177002E-1,2.447662354E0,-2.298126221E-1
2.375122070E0,-5.007324219E-1,2.696929932E0,-2.084960938E-1
2.377655029E0,-5.657196045E-1,2.927032471E0,-1.850585938E-1
2.380157471E0,-6.434783936E-1,3.135818481E0,-1.520385742E-1
2.382690430E0,-7.201690674E-1,3.332885742E0,-9.451293945E-2
2.385223389E0,-8.043365479E-1,3.507598877E0,-3.166198730E-2
2.387756348E0,-8.874206543E-1,3.660995483E0,2.586364746E-2
2.390289307E0,-9.598541260E-1,3.796279907E0,8.764648438E-2
2.392822266E0,-1.022705078E0,3.925170898E0,1.654052734E-1
2.395324707E0,-1.071716309E0,4.048751831E0,2.516937256E-1
2.397857666E0,-1.106872559E0,4.173385620E0,3.518218994E-1
2.400390625E0,-1.131362915E0,4.296951294E0,4.615478516E-1
2.402923584E0,-1.169723511E0,4.403488159E0,5.670166016E-1
2.405456543E0,-1.215530396E0,4.497222900E0,6.586303711E-1
2.407989502E0,-1.273040771E0,4.577117920E0,7.427825928E-1
2.410491943E0,-1.336959839E0,4.653823853E0,8.205413818E-1
2.413024902E0,-1.408340454E0,4.717727661E0,9.004364014E-1
2.415557861E0,-1.499954224E0,4.753952026E0,9.792633057E-1
2.418090820E0,-1.606475830E0,4.765670776E0,1.045318604E0
2.420623779E0,-1.722595215E0,4.756088257E0,1.101776123E0
2.423156738E0,-1.861068726E0,4.726257324E0,1.146514893E0
2.425659180E0,-2.002761841E0,4.681518555E0,1.185928345E0
2.428192139E0,-2.121002197E0,4.626129150E0,1.229614258E0
2.430725098E0,-2.204086304E0,4.569656372E0,1.264755249E0
2.433258057E0,-2.257354736E0,4.506805420E0,1.289260864E0
2.435791016E0,-2.293579102E0,4.454620361E0,1.319091797E0
2.438323975E0,-2.313812256E0,4.404541016E0,1.356369019E0
2.440826416E0,-2.321273804E0,4.325714111E0,1.369155884E0
2.443359375E0,-2.324462891E0,4.215988159E0,1.372344971E0
2.445892334E0,-2.309555054E0,4.111602783E0,1.384063721E0
2.448425293E0,-2.290374756E0,4.011459351E0,1.414962769E0
2.450958252E0,-2.280792236E0,3.933700562E0,1.444793701E0
2.453491211E0,-2.268005371E0,3.900680542E0,1.476745605E0
2.455993652E0,-2.249893188E0,3.881500244E0,1.501251221E0
2.458526611E0,-2.229660034E0,3.860198975E0,1.503387451E0
2.461059570E0,-2.196640015E0,3.855941772E0,1.491668701E0
2.463592529E0,-2.147628784E0,3.891082764E0,1.481002808E0
2.466125488E0,-2.100753784E0,3.956069946E0,1.476745605E0
2.468658447E0,-2.058151245E0,4.029571533E0,1.479949951E0
2.471160889E0,-2.008087158E0,4.127578735E0,1.491668701E0
2.473693848E0,-1.952682495E0,4.277786255E0,1.519363403E0
2.476226807E0,-1.902618408E0,4.492965698E0,1.553451538E0
2.478759766E0,-1.870666504E0,4.723068237E0,1.588607788E0
2.481292725E0,-1.861068726E0,4.931854248E0,1.624816895E0
2.483825684E0,-1.884506226E0,5.121475220E0,1.637603760E0
2.486358642E0,-1.936706543E0,5.298309326E0,1.621627808E0
2.488861084E0,-2.017669678E0,5.477264404E0,1.583267212E0
2.491394043E0,-2.117797852E0,5.642379761E0,1.526809692E0
2.493927002E0,-2.205154419E0,5.785125732E0,1.442657471E0
2.496459961E0,-2.275466919E0,5.912963867E0,1.325485229E0
2.498992920E0,-2.327667236E0,6.015228271E0,1.182739258E0
2.501525879E0,-2.323394775E0,6.061035156E0,1.018692017E0
2.504028320E0,-2.269073486E0,6.038665771E0,8.567657471E-1
2.506561279E0,-2.171066284E0,5.983276367E0,7.449188232E-1
2.509094238E0,-2.047500610E0,5.896987915E0,6.543579102E-1
2.511627197E0,-1.913269043E0,5.793655396E0,5.691375732E-1
2.514160156E0,-1.802490234E0,5.700973511E0,5.243988037E-1
2.516693115E0,-1.725784302E0,5.633865356E0,5.094909668E-1
2.519195557E0,-1.670394897E0,5.544372559E0,4.849853516E-1
2.521728516E0,-1.617126465E0,5.405899048E0,4.423828125E-1
2.524261475E0,-1.555343628E0,5.238647461E0,3.923034668E-1
2.526794434E0,-1.504211426E0,5.072463989E0,3.518218994E-1
2.529327392E0,-1.470123291E0,4.890304565E0,3.113555908E-1
2.531860351E0,-1.461593628E0,4.737976074E0,2.591552734E-1
2.534362793E0,-1.443496704E0,4.627182007E0,2.016296387E-1
2.536895752E0,-1.378509521E0,4.486572266E0,1.377105713E-1
2.539428711E0,-1.265594482E0,4.311874390E0,6.420898438E-2
2.541961670E0,-1.112197876E0,4.146759033E0,-1.846313477E-3
2.544494629E0,-9.524078369E-1,3.997619629E0,-5.616760254E-2
2.547027588E0,-8.022003174E-1,3.874038696E0,-7.960510254E-2
2.549530029E0,-6.733093262E-1,3.750473022E0,-6.575012207E-2
2.552062988E0,-5.678405762E-1,3.633300781E0,-3.698730469E-2
2.554595947E0,-4.943389893E-1,3.555526733E0,-1.249694824E-2
2.557128906E0,-4.421386719E-1,3.505462646E0,1.414489746E-2
2.559631348E0,-3.995361328E-1,3.495880127E0,4.502868652E-2
2.562164307E0,-3.611755371E-1,3.537414551E0,8.018493652E-2
2.564697266E0,-3.270874023E-1,3.624771118E0,1.025543213E-1
2.567230225E0,-2.908782959E-1,3.737686157E0,9.829711914E-2
2.569763184E0,-2.344207764E-1,3.885757446E0,9.509277344E-2
2.572296142E0,-1.523895264E-1,4.093490601E0,8.444213867E-2
2.574798584E0,-6.930541992E-2,4.334243774E0,6.527709961E-2
2.577331543E0,-4.318237305E-3,4.552612305E0,2.265930176E-2
2.579864502E0,3.935241699E-2,4.768875122E0,-3.912353516E-2
2.582397461E0,9.475708008E-2,4.998962402E0,-8.386230469E-2
2.584930420E0,1.458892822E-1,5.238647461E0,-1.254119873E-1
2.587463379E0,1.725158691E-1,5.471939087E0,-1.754760742E-1
2.589996338E0,1.767730713E-1,5.629608154E0,-2.575073242E-1
2.592529297E0,1.373596191E-1,5.702041626E0,-3.587036133E-1
2.595062256E0,5.320739746E-2,5.716949463E0,-4.535064697E-1
2.597595215E0,-5.226135254E-2,5.711624146E0,-5.238189697E-1
2.600128174E0,-1.555786133E-1,5.723342896E0,-5.802764893E-1
2.602661133E0,-2.514648438E-1,5.749969482E0,-6.335449219E-1
2.605194092E0,-3.420104980E-1,5.763824463E0,-6.665649414E-1
2.607727051E0,-4.357452393E-1,5.763824463E0,-6.718902588E-1
2.610260010E0,-5.188446045E-1,5.751037598E0,-6.644287109E-1
2.612762451E0,-5.806274414E-1,5.731872559E0,-6.473846436E-1
2.615295410E0,-5.816955566E-1,5.804306030E0,-6.228942871E-1
2.617828369E0,-5.156402588E-1,5.920425415E0,-5.792083740E-1
2.620361328E0,-4.602508545E-1,5.935333252E0,-5.621643066E-1
2.622894287E0,-4.314880371E-1,5.906570435E0,-5.749511719E-1
2.625427246E0,-3.899383545E-1,5.894851685E0,-5.600433350E-1
2.627929687E0,-4.783630371E-1,5.625335693E0,-5.163574219E-1
2.630462646E0,-7.223052979E-1,5.183258057E0,-4.822692871E-1
2.632995605E0,-9.492034912E-1,4.854095459E0,-4.439239502E-1
2.635528564E0,-1.082366943E0,4.620788574E0,-3.949279785E-1
2.638061523E0,-1.127105713E0,4.412002563E0,-3.352661133E-1
2.640594482E0,-1.121780396E0,4.206405640E0,-2.713470459E-1
2.643096924E0,-1.094085693E0,4.051940918E0,-2.042388916E-1
2.645629883E0,-1.056793213E0,3.918792725E0,-1.318054199E-1
2.648162842E0,-9.928894043E-1,3.810134888E0,-7.427978516E-2
2.650695801E0,-9.257659912E-1,3.731292725E0,-4.019165039E-2
2.653228760E0,-8.884887695E-1,3.747283936E0,-1.354980469E-2
2.655761719E0,-8.554687500E-1,3.815460205E0,2.426147461E-3
2.658264160E0,-8.469390869E-1,3.879379272E0,2.053833008E-2
2.660797119E0,-8.298950195E-1,3.927307129E0,1.414489746E-2
2.663330078E0,-7.968750000E-1,3.934768677E0,-1.994323730E-2
2.665863037E0,-7.521362305E-1,3.962463379E0,-4.977416992E-2
2.668395996E0,-7.084655762E-1,4.044494629E0,-7.214355469E-2
2.670928955E0,-6.988677979E-1,4.184036255E0,-8.493041992E-2
2.673431396E0,-7.500000000E-1,4.390701294E0,-8.067321777E-2
2.675964355E0,-8.149871826E-1,4.632507324E0,-1.296691895E-1
2.678497314E0,-8.533325195E-1,4.892440796E0,-2.244720459E-1
2.681030273E0,-8.458709717E-1,5.121475220E0,-3.320770264E-1
2.683563232E0,-7.755737305E-1,5.274871826E0,-4.311370850E-1
2.686096191E0,-6.509399414E-1,5.435729980E0,-4.631042480E-1
2.688598633E0,-5.401458740E-1,5.626403809E0,-4.812011719E-1
2.691131592E0,-4.932708740E-1,5.849044800E0,-5.536499023E-1
2.693664551E0,-4.985961914E-1,6.119628906E0,-6.963958740E-1
2.696197510E0,-4.591827393E-1,6.425354004E0,-8.135681152E-1
2.698730469E0,-3.068542480E-1,6.576614380E0,-8.892059326E-1
2.701263428E0,-7.995605469E-2,6.651184082E0,-9.137115479E-1
2.703765869E0,3.829956055E-2,6.884475708E0,-9.307556152E-1
2.706298828E0,4.042053223E-2,7.207260132E0,-9.904022217E-1
2.708831787E0,7.025146484E-2,7.375564575E0,-1.072433472E0
2.711364746E0,1.085968018E-1,7.347869873E0,-1.064971924E0
2.713897705E0,4.467773438E-2,7.381958008E0,-9.861450195E-1
2.716430664E0,-1.459960938E-1,7.532165527E0,-9.414062500E-1
2.718933105E0,-3.185729980E-1,7.499145508E0,-8.881378174E-1
2.721466064E0,-4.804840088E-1,7.407531738E0,-8.125000000E-1
2.723999023E0,-6.903533936E-1,7.538558960E0,-7.944030762E-1
2.726531982E0,-8.043365479E-1,7.728164673E0,-7.997283936E-1
2.729064941E0,-7.500000000E-1,7.761199951E0,-7.933349609E-1
2.731597900E0,-5.944671631E-1,7.649337769E0,-7.752227783E-1
2.734130859E0,-3.537292480E-1,7.612060547E0,-7.400665283E-1
2.736633301E0,6.332397461E-3,7.698348999E0,-6.761474609E-1
2.739166260E0,4.931640625E-1,8.029647827E0,-5.397949219E-1
2.741699219E0,1.205825806E0,8.670928955E0,-2.074279785E-1
2.744232178E0,1.963226318E0,9.421936035E0,3.017578125E-1
2.746765137E0,2.520355225E0,1.003128052E1,7.608947754E-1
2.749298096E0,2.655639648E0,1.014099121E1,9.686126709E-1
2.751800537E0,2.534210205E0,1.001316833E1,9.047088623E-1
2.754333496E0,2.451110840E0,9.920486450E0,7.821960449E-1
2.756866455E0,2.531005859E0,9.971618652E0,8.034973145E-1
2.759399414E0,2.652450562E0,1.012715149E1,9.952545166E-1
2.761932373E0,2.739807129E0,1.040304565E1,1.232803345E0
2.764465332E0,2.739807129E0,1.049572754E1,1.391525269E0
2.766967773E0,2.532073975E0,1.029119873E1,1.454376221E0
2.769500732E0,2.172012329E0,9.870422363E0,1.418151855E0
2.772033691E0,1.694778442E0,9.252563477E0,1.278610229E0
2.774566650E0,1.209014893E0,8.669860840E0,1.135864258E0
2.777099609E0,8.042144775E-1,8.200088501E0,1.069824219E0
2.779632568E0,4.899597168E-1,7.723907471E0,1.059158325E0
2.782135010E0,2.097930908E-1,7.142272949E0,1.031463623E0
2.784667969E0,-7.463073730E-2,6.455184937E0,9.803314209E-1
2.787200928E0,-3.537292480E-1,5.732925415E0,9.121551514E-1
2.789733887E0,-5.912780762E-1,5.046905518E0,8.301391602E-1
2.792266846E0,-7.659759521E-1,4.442901611E0,7.566223145E-1
2.794799805E0,-8.789062500E-1,3.983764648E0,6.959075928E-1
2.797302246E0,-9.374847412E-1,3.652465820E0,6.533050537E-1
2.799835205E0,-9.385528564E-1,3.380828857E0,6.405181885E-1
2.802368164E0,-8.906250000E-1,3.176300049E0,6.415863037E-1
2.804901123E0,-7.894134521E-1,3.034622192E0,6.543579102E-1
2.807434082E0,-6.509399414E-1,2.931289673E0,6.852569580E-1
2.809967041E0,-4.804840088E-1,2.843933105E0,7.065582275E-1
2.812469482E0,-2.940673828E-1,2.784286499E0,7.118835449E-1
2.815002441E0,-1.012573242E-1,2.704391479E0,7.108306885E-1
2.817535400E0,8.515930176E-2,2.627685547E0,7.140197754E-1
2.820068359E0,2.481536865E-1,2.587203979E0,7.193450928E-1
2.822601318E0,3.834381104E-1,2.612777710E0,7.214813232E-1
2.825103760E0,4.910278320E-1,2.718231201E0,7.214813232E-1
2.827636719E0,5.805053711E-1,2.848190308E0,7.225341797E-1
2.830169678E0,6.508178711E-1,2.961120605E0,7.299957275E-1
2.832702637E0,7.136688232E-1,3.066574097E0,7.694091797E-1
2.835235596E0,7.722625732E-1,3.130493164E0,8.343963623E-1
2.837768555E0,8.297882080E-1,3.162445068E0,9.217529297E-1
2.840301514E0,8.937072754E-1,3.179489136E0,1.039993286E0
2.842803955E0,9.576110840E-1,3.198669434E0,1.178466797E0
2.845336914E0,1.025787354E0,3.251937866E0,1.329742432E0
2.847869873E0,1.102493286E0,3.341415405E0,1.481002808E0
2.850402832E0,1.177062988E0,3.461791992E0,1.630142212E0
2.852935791E0,1.226058960E0,3.609863281E0,1.763305664E0
2.855468750E0,1.251632690E0,3.753677368E0,1.897521973E0
2.858001709E0,1.258026123E0,3.894287109E0,2.021102905E0
2.860504150E0,1.244171143E0,4.029571533E0,2.146804810E0
2.863037109E0,1.220733643E0,4.155273438E0,2.269302368E0
2.865570068E0,1.199432373E0,4.272460938E0,2.385421753E0
2.868103027E0,1.174926758E0,4.453552246E0,2.494079590E0
2.870635986E0,1.136581421E0,4.710281372E0,2.608062744E0
2.873168945E0,1.071594238E0,5.050094604E0,2.720977783E0
2.875701904E0,1.002349854E0,5.434661865E0,2.824310303E0
2.878234863E0,9.363098145E-1,5.840530396E0,2.926574707E0
2.880767822E0,8.926391602E-1,6.234664917E0,3.041625977E0
2.883300781E0,8.542785645E-1,6.601119995E0,3.150283813E0
2.885833740E0,7.988891602E-1,6.927093506E0,3.253616333E0
2.888366699E0,7.200622559E-1,7.233886719E0,3.358001709E0
2.890869141E0,6.018218994E-1,7.551345825E0,3.459197998E0
2.893402100E0,4.313812256E-1,7.841094971E0,3.550811768E0
2.895935059E0,2.268371582E-1,8.053085327E0,3.621124268E0
2.898468017E0,-1.603698730E-2,8.172393799E0,3.665863037E0
2.901000976E0,-2.866058350E-1,8.151077271E0,3.687179565E0
2.903533935E0,-5.774230957E-1,7.791015625E0,3.655212402E0
2.906036377E0,-9.066009521E-1,6.935607910E0,3.564666748E0
2.908569336E0,-1.246414185E0,5.675415039E0,3.415527344E0
2.911102295E0,-1.510604858E0,4.272460938E0,3.220581055E0
2.913635254E0,-1.687438965E0,2.968566895E0,2.983032227E0
2.916168213E0,-1.784378052E0,1.950180054E0,2.732696533E0
2.918701172E0,-1.771591187E0,1.383453369E0,2.508987427E0
2.921203613E0,-1.679977417E0,1.209823608E0,2.333221436E0
2.923736572E0,-1.583038330E0,1.231124878E0,2.199005127E0
2.926269531E0,-1.466918945E0,1.414352417E0,2.077560425E0
2.928802490E0,-1.329513550E0,1.714752197E0,1.955047607E0
2.931335449E0,-1.193145752E0,2.040725708E0,1.837875366E0
2.933868408E0,-1.066390991E0,2.356048584E0,1.724960327E0
2.936370850E0,-9.726409912E-1,2.650054932E0,1.604583740E0
2.938903809E0,-9.076690674E-1,2.879089355E0,1.496994019E0
2.941436767E0,-8.373565674E-1,2.973892212E0,1.400054932E0
2.943939209E0,-7.883453369E-1,2.925964355E0,1.312698364E0
2.946472168E0,-7.510681152E-1,2.774688721E0,1.234939575E0
2.949005127E0,-7.105865479E-1,2.549926758E0,1.165695190E0
2.951538086E0,-6.733093262E-1,2.260162354E0,1.097518921E0
2.954071045E0,-6.509399414E-1,1.946975708E0,1.033599854E0
2.956604004E0,-6.605224609E-1,1.627395630E0,9.686126709E-1
2.959136963E0,-6.988677979E-1,1.333389282E0,9.047088623E-1
2.961669922E0,-7.755737305E-1,1.115005493E0,8.535614014E-1
2.964202881E0,-8.895568848E-1,9.829101562E-1,8.152160645E-1
2.966705322E0,-1.015258789E0,8.934326172E-1,7.949829102E-1
2.969238281E0,-1.138824463E0,7.879791260E-1,7.939147949E-1
2.971771240E0,-1.257064819E0,6.367034912E-1,8.130950928E-1
2.974304199E0,-1.352935791E0,4.321746826E-1,8.333282471E-1
2.976837158E0,-1.431777954E0,1.935577393E-1,8.471832275E-1
2.979370117E0,-1.483963013E0,-5.145263672E-2,8.589019775E-1
2.981872559E0,-1.525512695E0,-2.922058105E-1,8.589019775E-1
2.984405517E0,-1.559600830E0,-5.191040039E-1,8.482360840E-1
2.986938476E0,-1.580902100E0,-7.225646973E-1,8.343963623E-1
2.989471435E0,-1.588363647E0,-8.940734863E-1,8.141479492E-1
2.992004394E0,-1.567062378E0,-1.036819458E0,7.939147949E-1
2.994537353E0,-1.534042358E0,-1.146545410E0,7.672882080E-1
2.997070312E0,-1.493560791E0,-1.210464478E0,7.491760254E-1
2.999572754E0,-1.446685791E0,-1.240295410E0,7.438507080E-1
3.002105713E0,-1.392364502E0,-1.252014160E0,7.512969971E-1
3.004638672E0,-1.327377319E0,-1.246673584E0,7.736663818E-1
3.007171631E0,-1.257064819E0,-1.224304199E0,8.120269775E-1
3.009704590E0,-1.189956665E0,-1.218978882E0,8.482360840E-1
3.012237549E0,-1.132431030E0,-1.227508545E0,8.812713623E-1
3.014739990E0,-1.082366943E0,-1.206207275E0,9.174804688E-1
3.017272949E0,-1.030166626E0,-1.158264160E0,9.494476318E-1
3.019805908E0,-9.843597412E-1,-1.101806641E0,9.963073730E-1
3.022338867E0,-9.460144043E-1,-1.037887573E0,1.045318604E0
3.024871826E0,-9.044647217E-1,-9.739685059E-1,1.097518921E0
3.027404785E0,-8.607940674E-1,-9.196472168E-1,1.151840210E0
3.029907226E0,-8.309631348E-1,-8.940734863E-1,1.201904297E0
3.032440185E0,-8.032684326E-1,-8.791656494E-1,1.253036499E0
3.034973144E0,-7.968750000E-1,-8.791656494E-1,1.309509277E0
3.037506103E0,-8.139190674E-1,-8.951416016E-1,1.372344971E0
3.040039062E0,-8.448181152E-1,-9.324340820E-1,1.450119019E0
3.042572021E0,-8.682403564E-1,-9.579925537E-1,1.525756836E0
3.045074463E0,-8.682403564E-1,-9.441528320E-1,1.599258423E0
3.047607422E0,-8.426818848E-1,-8.887481689E-1,1.661041260E0
3.050140381E0,-7.862243652E-1,-8.099212646E-1,1.715362549E0
3.052673340E0,-6.946105957E-1,-7.321624756E-1,1.753723145E0
3.055206299E0,-5.540008545E-1,-7.619781494E-1,1.746261597E0
3.057739258E0,-3.633117676E-1,-9.494781494E-1,1.694061279E0
3.060241699E0,-1.758270264E-1,-1.174240112E0,1.612030029E0
3.062774658E0,-6.291198730E-2,-1.276504517E0,1.519363403E0
3.065307617E0,-3.094482422E-2,-1.248809814E0,1.435195923E0
3.067840576E0,-4.479980469E-2,-1.229629517E0,1.372344971E0
3.070373535E0,-6.610107422E-2,-1.269058228E0,1.327606201E0
3.072906494E0,-7.995605469E-2,-1.330841064E0,1.275405884E0
3.075408935E0,-6.291198730E-2,-1.407531738E0,1.228546143E0
3.077941894E0,-3.201293945E-2,-1.436294556E0,1.185928345E0
3.080474853E0,-3.250122070E-3,-1.418182373E0,1.166763306E0
3.083007812E0,3.616333008E-2,-1.388366699E0,1.160369873E0
3.085540771E0,8.836364746E-2,-1.338287354E0,1.189132690E0
3.088073730E0,1.512145996E-1,-1.280761719E0,1.232803345E0
3.090576172E0,2.236480713E-1,-1.227508545E0,1.266891479E0
3.093109131E0,3.184509277E-1,-1.178497314E0,1.318023682E0
3.095642090E0,4.271087646E-1,-1.124176025E0,1.374481201E0
3.098175049E0,5.421600342E-1,-1.070907593E0,1.444793701E0
3.100708008E0,6.476287842E-1,-9.995422363E-1,1.512969971E0
3.103240967E0,7.221984863E-1,-9.132537842E-1,1.574752808E0
3.105743408E0,7.807769775E-1,-8.386840820E-1,1.645065308E0
3.108276367E0,8.244628906E-1,-7.587890625E-1,1.733474731E0
3.110809326E0,8.436279297E-1,-6.437377930E-1,1.847457886E0
3.113342285E0,8.596038818E-1,-5.436096191E-1,1.968902588E0
3.115875244E0,8.713226318E-1,-4.562530518E-1,2.092468262E0
3.118408203E0,8.606719971E-1,-3.625183105E-1,2.199005127E0
3.120941162E0,8.361816406E-1,-2.900695801E-1,2.306594849E0
3.123443603E0,8.127441406E-1,-2.357482910E-1,2.420578003E0
3.125976562E0,7.669372559E-1,-1.899414062E-1,2.503662109E0
3.128509521E0,7.019500732E-1,-1.526489258E-1,2.559051514E0
3.131042480E0,6.401672363E-1,-1.217651367E-1,2.614456177E0
3.133575439E0,5.996856689E-1,-4.931640625E-2,2.680496216E0
3.136108398E0,5.964965820E-1,6.678771973E-2,2.764648438E0
3.138610840E0,5.932922363E-1,1.893005371E-1,2.830703735E0
3.141143799E0,5.932922363E-1,3.288421631E-1,2.892486572E0
3.143676758E0,5.975494385E-1,4.641265869E-1,2.948944092E0
3.146209717E0,5.805053711E-1,6.633453369E-1,3.008605957E0
3.148742676E0,5.645294189E-1,9.094085693E-1,3.075714111E0
3.151275635E0,5.261840820E-1,1.149093628E0,3.110870361E0
3.153808594E0,4.622650146E-1,1.418609619E0,3.133239746E0
3.156341553E0,3.845062256E-1,1.688125610E0,3.156677246E0
3.158874512E0,2.843627930E-1,1.925674438E0,3.176910400E0
3.161407471E0,1.607971191E-1,2.149383545E0,3.179046631E0
3.163940430E0,1.007080078E-3,2.374145508E0,3.131103516E0
3.166473389E0,-1.939392090E-1,2.593597412E0,3.034164429E0
3.168975830E0,-4.325561523E-1,2.764038086E0,2.919113159E0
3.171508789E0,-6.903533936E-1,2.803451538E0,2.781692505E0
3.174041748E0,-9.768981934E-1,2.732086182E0,2.633621216E0
3.176574707E0,-1.266662598E0,2.602127075E0,2.504730225E0
3.179107666E0,-1.526580811E0,2.444458008E0,2.425903320E0
3.181640625E0,-1.774780273E0,2.278274536E0,2.372634888E0
3.184143066E0,-2.010208130E0,2.071624756E0,2.333221436E0
3.186676025E0,-2.221130371E0,1.852172852E0,2.307647705E0
3.189208984E0,-2.409683228E0,1.631668091E0,2.289550781E0
3.191741943E0,-2.570541382E0,1.393051147E0,2.267181396E0
3.194274902E0,-2.700500488E0,1.139511108E0,2.226699829E0
3.196807861E0,-2.798507690E0,8.966369629E-1,2.148925781E0
3.199310303E0,-2.861358643E0,6.750488281E-1,2.047729492E0
3.201843262E0,-2.869873047E0,4.801177979E-1,1.928421021E0
3.204376221E0,-2.817687988E0,3.650665283E-1,1.793136597E0
3.206909180E0,-2.689849854E0,3.725280762E-1,1.646118164E0
3.209442139E0,-2.501296997E0,4.673309326E-1,1.506576538E0
3.211975098E0,-2.254150391E0,5.845031738E-1,1.362762451E0
3.214477539E0,-1.996368408E0,7.048797607E-1,1.224273682E0
3.217010498E0,-1.765197754E0,8.146057129E-1,1.119888306E0
3.219543457E0,-1.537231445E0,9.168701172E-1,1.052780151E0
3.222076416E0,-1.316726685E0,1.019134521E0,1.009094238E0
3.224609375E0,-1.139892578E0,1.115005493E0,9.718170166E-1
3.227142334E0,-1.016326904E0,1.186386108E0,9.355926514E-1
3.229644775E0,-9.470825195E-1,1.218338013E0,9.057617188E-1
3.232177734E0,-9.161834717E-1,1.198104858E0,8.610229492E-1
3.234710693E0,-9.097900391E-1,1.153366089E0,8.088226318E-1
3.237243652E0,-9.119262695E-1,1.099029541E0,7.555694580E-1
3.239776611E0,-9.172515869E-1,1.007415771E0,6.969757080E-1
3.242309570E0,-9.215087891E-1,8.795928955E-1,6.341247559E-1
3.244842529E0,-9.236450195E-1,7.368469238E-1,5.744628906E-1
3.247344971E0,-9.119262695E-1,6.015472412E-1,5.169525146E-1
3.249877930E0,-8.895568848E-1,5.078125000E-1,4.572906494E-1
3.252410889E0,-8.533325195E-1,4.460296631E-1,3.997650146E-1
3.254943848E0,-8.064575195E-1,3.842315674E-1,3.464965820E-1
3.257476807E0,-7.478790283E-1,3.512115479E-1,3.070831299E-1
3.260009766E0,-6.733093262E-1,3.064727783E-1,2.783203125E-1
3.262512207E0,-6.008605957E-1,2.063446045E-1,2.538299561E-1
3.265045166E0,-5.497283936E-1,1.008758545E-1,2.378387451E-1
3.267578125E0,-4.954071045E-1,4.122924805E-2,2.357177734E-1
3.270111084E0,-4.378814697E-1,3.376770020E-2,2.346496582E-1
3.272644043E0,-4.091186523E-1,2.844238281E-2,2.293243408E-1
3.275146484E0,-4.069824219E-1,-3.204345703E-4,2.218627930E-1
3.277679443E0,-4.197692871E-1,-4.080200195E-2,2.005615234E-1
3.280212402E0,-4.400177002E-1,-4.931640625E-2,1.696624756E-1
3.282745361E0,-4.751586914E-1,-3.015136719E-2,1.313171387E-1
3.285278320E0,-5.177764893E-1,-3.761291504E-2,9.829711914E-2
3.287811279E0,-5.550537109E-1,-7.382202148E-2,7.804870605E-2
3.290313721E0,-5.646514893E-1,-7.807922363E-2,4.716491699E-2
3.292846680E0,-5.710449219E-1,-3.015136719E-2,1.307678223E-2
3.295379639E0,-5.806274414E-1,1.991271973E-2,-1.568603516E-2
3.297912598E0,-5.753021240E-1,5.613708496E-2,-5.509948730E-2
3.300415039E0,-5.476074219E-1,8.703613281E-2,-9.983825684E-2
3.302947998E0,-5.167083740E-1,1.477508545E-1,-1.413879395E-1
3.305480957E0,-4.879455566E-1,2.244567871E-1,-1.871948242E-1
3.308013916E0,-4.623870850E-1,3.000793457E-1,-2.319335938E-1
3.310546875E0,-4.442749023E-1,3.639984131E-1,-2.809448242E-1
3.313079834E0,-4.187011719E-1,4.183349609E-1,-3.341979980E-1
3.315582275E0,-3.782196045E-1,4.683990479E-1,-3.768157959E-1
3.318115234E0,-3.324127197E-1,5.110015869E-1,-3.970489502E-1
3.320648193E0,-2.791595459E-1,5.429687500E-1,-4.151611328E-1
3.323181152E0,-2.194976807E-1,5.749206543E-1,-4.375305176E-1
3.325714111E0,-1.651763916E-1,6.484222412E-1,-4.631042480E-1
3.328247070E0,-1.097869873E-1,7.315216064E-1,-4.918670654E-1
3.330780029E0,-5.863952637E-2,7.762603760E-1,-5.216827393E-1
3.333282471E0,-1.496887207E-2,8.188629150E-1,-5.483245850E-1
3.335815430E0,2.125549316E-2,8.433685303E-1,-5.717620850E-1
3.338348389E0,4.895019531E-2,8.529510498E-1,-5.792083740E-1
3.340881348E0,7.344055176E-2,8.731994629E-1,-5.813446045E-1
3.343414307E0,9.155273438E-2,8.913116455E-1,-5.792083740E-1
3.345947266E0,9.901428223E-2,9.147338867E-1,-5.547180176E-1
3.348449707E0,9.687805176E-2,9.232635498E-1,-5.323333740E-1
3.350982666E0,8.409118652E-2,9.030303955E-1,-5.248870850E-1
3.353515625E0,7.771301270E-2,8.742675781E-1,-4.982452393E-1
3.356048584E0,6.492614746E-2,8.561553955E-1,-4.705505371E-1
3.358581543E0,5.107116699E-2,8.455047607E-1,-4.449920654E-1
3.361114502E0,2.870178223E-2,8.252563477E-1,-4.247436523E-1
3.363647461E0,-3.250122070E-3,7.783813477E-1,-4.098358154E-1
3.366180420E0,-3.627014160E-2,6.782531738E-1,-3.672180176E-1
3.368682861E0,-7.142639160E-2,5.706634521E-1,-3.033142090E-1
3.371215820E0,-9.806823730E-2,5.195312500E-1,-2.500457764E-1
3.373748779E0,-1.225585938E-1,5.035552979E-1,-2.170257568E-1
3.376281738E0,-1.428070068E-1,4.811706543E-1,-1.999816895E-1
3.378814697E0,-1.502532959E-1,4.683990479E-1,-1.946563721E-1
3.381317139E0,-1.459960938E-1,4.790496826E-1,-1.935882568E-1
3.383850098E0,-1.374816895E-1,5.099334717E-1,-2.053070068E-1
3.386383057E0,-1.257629395E-1,5.195312500E-1,-2.330017090E-1
3.388916016E0,-1.087188721E-1,5.259246826E-1,-2.713470459E-1
3.391448975E0,-9.806823730E-2,5.312500000E-1,-3.150329590E-1
3.393981934E0,-9.486389160E-2,5.291137695E-1,-3.480529785E-1
3.396514892E0,-8.421325684E-2,5.312500000E-1,-3.736114502E-1
3.399047851E0,-7.249450684E-2,5.450897217E-1,-3.970489502E-1
3.401550293E0,-6.503295898E-2,5.419006348E-1,-4.098358154E-1
3.404083252E0,-6.716918945E-2,5.216522217E-1,-4.194183350E-1
3.406616211E0,-6.930541992E-2,5.280456543E-1,-4.279479980E-1
3.409149170E0,-6.823730469E-2,5.610656738E-1,-4.343414307E-1
3.411682129E0,-5.758666992E-2,5.727844238E-1,-4.503173828E-1
3.414215088E0,-5.119323730E-2,5.791778564E-1,-4.545745850E-1
3.416717529E0,-4.693603516E-2,5.653381348E-1,-4.535064697E-1
3.419250488E0,-3.947448730E-2,5.280456543E-1,-4.417877197E-1
3.421783447E0,-2.668762207E-2,4.939575195E-1,-4.300689697E-1
3.424316406E0,-1.071166992E-2,4.875640869E-1,-4.226226807E-1
3.426849365E0,2.075195312E-3,5.003509521E-1,-4.087677002E-1
3.429382324E0,9.536743164E-3,5.078125000E-1,-3.885345459E-1
3.431884766E0,1.272583008E-2,5.088806152E-1,-3.608398438E-1
3.434417725E0,1.698303223E-2,5.003509521E-1,-3.235473633E-1
3.436950684E0,2.337646484E-2,4.801177979E-1,-2.819976807E-1
3.439483642E0,2.658081055E-2,4.236602783E-1,-2.351379395E-1
3.442016601E0,2.870178223E-2,3.885040283E-1,-1.903839111E-1
3.444549560E0,3.616333008E-2,4.609375000E-1,-1.424560547E-1
3.447082519E0,4.895019531E-2,5.610656738E-1,-9.132385254E-2
3.449615478E0,5.000305176E-2,6.175384521E-1,-9.292602539E-3
3.452148437E0,4.255676270E-2,5.642700195E-1,8.657836914E-2
3.454681396E0,3.935241699E-2,4.449615479E-1,1.963043213E-1
3.457214355E0,6.172180176E-2,3.448181152E-1,3.124084473E-1
3.459747314E0,1.054077148E-1,2.681274414E-1,4.232025146E-1
3.462249756E0,1.565399170E-1,2.297821045E-1,5.361175537E-1
3.464782715E0,2.023468018E-1,2.297821045E-1,6.394500732E-1
3.467315674E0,2.460174561E-1,2.393646240E-1,7.427825928E-1
3.469848633E0,3.003540039E-1,2.287139893E-1,8.556976318E-1
3.472381592E0,3.632049561E-1,1.775817871E-1,9.771423340E-1
3.474914551E0,4.494781494E-1,1.062011719E-1,1.094314575E0
3.477416992E0,5.549468994E-1,2.098083496E-2,1.217895508E0
3.479949951E0,6.763916016E-1,-5.252075195E-2,1.352111816E0
3.482482910E0,7.807769775E-1,-9.300231934E-2,1.496994019E0
3.485015869E0,8.574829102E-1,-1.111145020E-1,1.638671875E0
3.487548828E0,9.224548340E-1,-1.452026367E-1,1.775024414E0
3.490081787E0,9.650726318E-1,-1.899414062E-1,1.898590088E0
3.492614746E0,9.544219971E-1,-1.846160889E-1,1.995529175E0
3.495117187E0,9.150085449E-1,-1.643676758E-1,2.059448242E0
3.497650146E0,8.681335449E-1,-1.601104736E-1,2.110580444E0
3.500183105E0,8.127441406E-1,-1.739654541E-1,2.149993896E0
3.502716064E0,7.541503906E-1,-2.027282715E-1,2.158523560E0
3.505249023E0,6.966247559E-1,-2.357482910E-1,2.145736694E0
3.507781982E0,6.231231689E-1,-2.559814453E-1,2.128692627E0
3.510284424E0,5.272521973E-1,-2.613067627E-1,2.091400146E0
3.512817383E0,4.260559082E-1,-2.645111084E-1,2.049865723E0
3.515350342E0,3.227233887E-1,-2.655792236E-1,2.004058838E0
3.517883301E0,2.076721191E-1,-2.570495605E-1,1.955047607E0
3.520416260E0,8.409118652E-2,-2.378692627E-1,1.897521973E0
3.522949219E0,-3.733825684E-2,-2.027282715E-1,1.837875366E0
3.525451660E0,-1.470642090E-1,-1.665039062E-1,1.766494751E0
3.527984619E0,-2.557220459E-1,-1.217651367E-1,1.689804077E0
3.530517578E0,-3.665008545E-1,-4.293823242E-2,1.617370605E0
3.533050537E0,-4.719696045E-1,4.441833496E-2,1.540664673E0
3.535583496E0,-5.657196045E-1,1.434936523E-1,1.447982788E0
3.538116455E0,-6.424102783E-1,2.425537109E-1,1.339324951E0
3.540618896E0,-6.935424805E-1,3.490905762E-1,1.226409912E0
3.543151855E0,-7.340240479E-1,4.662628174E-1,1.107101440E0
3.545684814E0,-7.478790283E-1,5.823822021E-1,9.877929688E-1
3.548217773E0,-7.585296631E-1,6.846466064E-1,8.748779297E-1
3.550750732E0,-7.617187500E-1,7.666625977E-1,7.726135254E-1
3.553283691E0,-7.553253174E-1,8.316497803E-1,6.852569580E-1
3.555786133E0,-7.510681152E-1,8.817138672E-1,6.149444580E-1
3.558319092E0,-7.574615479E-1,9.062194824E-1,5.542297363E-1
3.560852051E0,-7.691802979E-1,9.062194824E-1,4.998931885E-1
3.563385010E0,-7.819671631E-1,9.030303955E-1,4.519653320E-1
3.565917969E0,-7.851562500E-1,8.849182129E-1,4.104156494E-1
3.568450928E0,-7.702484131E-1,8.465576172E-1,3.710021973E-1
3.570953369E0,-7.446746826E-1,8.039550781E-1,3.177337646E-1
3.573486328E0,-7.116546631E-1,7.570800781E-1,2.495574951E-1
3.576019287E0,-6.647796631E-1,7.080841064E-1,1.792602539E-1
3.578552246E0,-6.040649414E-1,6.814422607E-1,1.132049561E-1
3.581085205E0,-5.412139893E-1,6.622772217E-1,7.272338867E-2
3.583618164E0,-4.719696045E-1,6.335144043E-1,8.125305176E-2
3.586120605E0,-4.101867676E-1,5.972900391E-1,1.504974365E-1
3.588653564E0,-3.579864502E-1,5.791778564E-1,2.857818604E-1
3.591186523E0,-3.143157959E-1,6.100769043E-1,4.402465820E-1
3.593719482E0,-2.791595459E-1,7.187347412E-1,5.552978516E-1
3.596252441E0,-2.450714111E-1,8.593444824E-1,5.734100342E-1
3.598785400E0,-2.173767090E-1,9.403076172E-1,4.903106689E-1
3.601287842E0,-2.045898438E-1,9.275207520E-1,3.518218994E-1
3.603820801E0,-2.067260742E-1,8.433685303E-1,2.090911865E-1
3.606353760E0,-2.088470459E-1,7.134094238E-1,9.509277344E-2
3.608886719E0,-2.163085938E-1,5.621337891E-1,4.290771484E-2
3.611419678E0,-2.152404785E-1,4.407043457E-1,6.100463867E-2
3.613952637E0,-2.237701416E-1,3.288421631E-1,1.078796387E-1
3.616455078E0,-2.397460938E-1,1.967468262E-1,1.579437256E-1
3.618988037E0,-2.621154785E-1,5.720520020E-2,1.984252930E-1
3.621520996E0,-2.919464111E-1,-3.547668457E-2,2.463684082E-1
3.624053955E0,-3.111114502E-1,-5.784606934E-2,2.921752930E-1
3.626586914E0,-3.249664307E-1,-7.595825195E-2,3.145446777E-1
3.629119873E0,-3.228302002E-1,-9.300231934E-2,3.060302734E-1
3.631622314E0,-3.249664307E-1,-1.025848389E-1,2.783203125E-1
3.634155273E0,-3.430786133E-1,-1.036529541E-1,2.399749756E-1
3.636688232E0,-3.622436523E-1,-1.100463867E-1,1.984252930E-1
3.639221191E0,-3.963317871E-1,-1.324157715E-1,1.771240234E-1
3.641754150E0,-4.080505371E-1,-1.462554932E-1,1.579437256E-1
3.644287109E0,-4.250946045E-1,-1.483917236E-1,1.228027344E-1
3.646820068E0,-4.559936523E-1,-1.324157715E-1,8.338928223E-2
3.649322510E0,-4.932708740E-1,-9.939575195E-2,5.355834961E-2
3.651855469E0,-5.231018066E-1,-6.956481934E-2,3.118896484E-2
3.654388428E0,-5.518646240E-1,-2.801513672E-2,1.733398438E-2
3.656921387E0,-5.859527588E-1,1.458740234E-2,1.094055176E-2
3.659454346E0,-6.221771240E-1,5.294799805E-2,1.414489746E-2
3.661987305E0,-6.551971436E-1,9.875488281E-2,2.372741699E-2
3.664489746E0,-7.084655762E-1,1.594696045E-1,3.118896484E-2
3.667022705E0,-7.894134521E-1,2.340393066E-1,3.758239746E-2
3.669555664E0,-8.831634521E-1,2.904968262E-1,5.035400391E-2
3.672088623E0,-9.737091064E-1,3.394927979E-1,5.995178223E-2
3.674621582E0,-1.068511963E0,4.172668457E-1,7.167053223E-2
3.677154541E0,-1.159057617E0,4.822387695E-1,1.025543213E-1
3.679656982E0,-1.247482300E0,5.386962891E-1,1.387786865E-1
3.682189941E0,-1.331634521E0,5.717315674E-1,1.728668213E-1
3.684722900E0,-1.401947021E0,5.823822021E-1,2.112121582E-1
3.687255859E0,-1.469055176E0,5.823822021E-1,2.698059082E-1
3.689788818E0,-1.550018311E0,5.930328369E-1,3.560943604E-1
3.692321777E0,-1.632049561E0,6.377716064E-1,3.752593994E-1
3.694824219E0,-1.731109619E0,7.719879150E-1,3.582153320E-1
3.697357178E0,-1.830184937E0,8.806457520E-1,3.390502930E-1
3.699890137E0,-1.889831543E0,9.030303955E-1,3.092193604E-1
3.702423096E0,-1.936706543E0,9.307250977E-1,2.804565430E-1
3.704956055E0,-1.988906860E0,9.914398193E-1,2.538299561E-1
3.707489014E0,-2.012344360E0,1.010620117E0,2.261352539E-1
3.709991455E0,-2.001693726E0,9.839782715E-1,2.229309082E-1
3.712524414E0,-1.966537476E0,9.413757324E-1,2.335815430E-1
3.715057373E0,-1.905822754E0,8.976898193E-1,2.069549561E-1
3.717590332E0,-1.842971802E0,8.849182129E-1,1.441040039E-1
3.720123291E0,-1.770523071E0,8.945007324E-1,7.272338867E-2
3.722656250E0,-1.690628052E0,9.200744629E-1,1.094055176E-2
3.725189209E0,-1.615005493E0,9.839782715E-1,-5.616760254E-2
3.727722168E0,-1.537231445E0,1.100097656E0,-1.296691895E-1
3.730255127E0,-1.465866089E0,1.284393311E0,-2.170257568E-1
3.732788086E0,-1.403015137E0,1.463348389E0,-3.128967285E-1
3.735321045E0,-1.330566406E0,1.632736206E0,-4.076995850E-1
3.737854004E0,-1.242156982E0,1.769088745E0,-4.939880371E-1
3.740356445E0,-1.135635376E0,1.861755371E0,-5.515136719E-1
3.742889404E0,-1.029098511E0,1.957641602E0,-5.888061523E-1
3.745422363E0,-9.204406738E-1,2.081207275E0,-6.015777588E-1
3.747955322E0,-7.915496826E-1,2.162170410E0,-5.845336914E-1
3.750488281E0,-6.466674805E-1,2.211166382E0,-5.366058350E-1
3.753021240E0,-5.177764893E-1,2.239929199E0,-4.801483154E-1
3.755554199E0,-3.867492676E-1,2.190933228E0,-4.162292480E-1
3.758056641E0,-2.567901611E-1,2.096115112E0,-3.501739502E-1
3.760589600E0,-1.289520264E-1,1.995986938E0,-2.894592285E-1
3.763122559E0,-2.349853516E-2,1.905441284E0,-2.436523438E-1
3.765655517E0,4.895019531E-2,1.884124756E0,-2.138214111E-1
3.768188476E0,1.256408691E-1,1.861755371E0,-1.935882568E-1
3.770721435E0,2.183227539E-1,1.773345947E0,-1.552429199E-1
3.773223877E0,3.088684082E-1,1.685989380E0,-1.051635742E-1
3.775756836E0,3.908996582E-1,1.597579956E0,-7.960510254E-2
3.778289795E0,4.920959473E-1,1.463348389E0,-7.427978516E-2
3.780822754E0,6.092681885E-1,1.285446167E0,-6.149291992E-2
3.783355713E0,7.413635254E-1,1.073471069E0,-5.084228516E-2
3.785888672E0,8.702697754E-1,8.636016846E-1,-5.297851562E-2
3.788391113E0,9.789276123E-1,6.857147217E-1,-5.935668945E-2
3.790924072E0,1.077987671E0,5.248565674E-1,-6.895446777E-2
3.793457031E0,1.168533325E0,3.799743652E-1,-6.575012207E-2
3.795989990E0,1.252700806E0,2.872924805E-1,-6.575012207E-2
3.798522949E0,1.327255249E0,2.351074219E-1,-1.083679199E-1
3.801055908E0,1.406097412E0,1.914215088E-1,-1.989135742E-1
3.803558350E0,1.490249634E0,1.562652588E-1,-3.203582764E-1
3.806091309E0,1.575469971E0,1.094055176E-1,-4.726867676E-1
3.808624267E0,1.656433105E0,9.448242188E-2,-6.569824219E-1
3.811157226E0,1.734191895E0,1.307067871E-1,-8.604431152E-1
3.813690185E0,1.804504395E0,2.020721436E-1,-1.083084106E0
3.816223144E0,1.878005981E0,2.787780762E-1,-1.320632935E0
3.818725586E0,1.966415405E0,3.863677979E-1,-1.563522339E0
3.821258545E0,2.069747925E0,5.450897217E-1,-1.805328369E0
3.823791504E0,2.168823242E0,7.464294434E-1,-2.056732178E0
3.826324463E0,2.264694214E0,9.584197998E-1,-2.312393188E0
3.828857422E0,2.356307983E0,1.208755493E0,-2.589370728E0
3.831390381E0,2.452178955E0,1.473999023E0,-2.888702393E0
3.833892822E0,2.567230225E0,1.732864380E0,-3.218933105E0
3.836425781E0,2.675888062E0,1.991729736E0,-3.578994751E0
3.838958740E0,2.757919312E0,2.262298584E0,-3.934799194E0
3.841491699E0,2.803726196E0,2.566970825E0,-4.232009888E0
3.844024658E0,2.826095581E0,2.892944336E0,-4.463165283E0
3.846557617E0,2.842071533E0,3.213577271E0,-4.657043457E0
3.849060059E0,2.899597168E0,3.534225464E0,-4.922302246E0
3.851593017E0,3.042343140E0,3.902801514E0,-5.242935181E0
3.854125976E0,3.173370361E0,4.394958496E0,-5.542282104E0
3.856658935E0,3.306518555E0,4.955291748E0,-5.790481567E0
3.859191894E0,3.481231689E0,5.490051270E0,-6.008865356E0
3.861724853E0,3.685760498E0,6.000320435E0,-6.187835693E0
3.864257812E0,3.917984009E0,6.442398071E0,-6.366790771E0
3.866760254E0,4.137435913E0,6.797134399E0,-6.583038330E0
3.869293213E0,4.329177856E0,7.115646362E0,-6.789703369E0
3.871826172E0,4.503875732E0,7.459732056E0,-6.962280273E0
3.874359131E0,4.682846069E0,7.818725586E0,-7.084777832E0
3.876892090E0,4.861816406E0,8.127639771E0,-7.155090332E0
3.879394531E0,5.031188965E0,8.396087646E0,-7.211547852E0
3.881927490E0,5.175003052E0,8.617660522E0,-7.217941284E0
3.884460449E0,5.213348389E0,8.722061157E0,-7.051757812E0
3.886993408E0,4.978988647E0,8.700759888E0,-6.605407715E0
3.889495850E0,4.220520020E0,8.405685425E0,-5.866119385E0
3.892028809E0,3.121170044E0,7.753738403E0,-4.984085083E0
3.894561767E0,2.226348877E0,6.961181641E0,-4.235198975E0
3.897094726E0,1.561614990E0,6.084472656E0,-3.604568481E0
3.899627685E0,9.608154297E-1,5.128921509E0,-3.081512451E0
3.902160644E0,4.697265625E-1,4.221328735E0,-2.602142334E0
3.904693603E0,7.131958008E-2,3.390411377E0,-2.186691284E0
3.907226562E0,-2.855529785E-1,2.625549316E0,-1.803207397E0
3.909759521E0,-6.211090088E-1,1.844711304E0,-1.432495117E0
3.912261963E0,-9.247131348E-1,1.097961426E0,-1.076690674E0
3.914794922E0,-1.167587280E0,4.875640869E-1,-7.560424805E-1
3.917327881E0,-1.349746704E0,4.548645020E-2,-4.780120850E-1
3.919860840E0,-1.488235474E0,-2.421417236E-1,-2.670898438E-1
3.922393799E0,-1.593688965E0,-4.445343018E-1,-1.552429199E-1
3.924926758E0,-1.673583984E0,-5.947418213E-1,-1.286010742E-1
3.927429199E0,-1.731109619E0,-7.140502930E-1,-1.616210938E-1
3.929962158E0,-1.774780273E0,-8.014068604E-1,-2.255401611E-1
3.932495117E0,-1.796096802E0,-8.663787842E-1,-3.075714111E-1
3.935028076E0,-1.785446167E0,-9.057922363E-1,-3.970489502E-1
3.937561035E0,-1.742828369E0,-9.164428711E-1,-4.865264893E-1
3.940093994E0,-1.673583984E0,-9.111175537E-1,-5.792083740E-1
3.942596435E0,-1.570251465E0,-9.036712646E-1,-6.676330566E-1
3.945129394E0,-1.446685791E0,-8.770294189E-1,-7.422027588E-1
3.947662353E0,-1.313522339E0,-8.354949951E-1,-8.039855957E-1
3.950195312E0,-1.166519165E0,-7.918090820E-1,-8.732299805E-1
3.952728271E0,-1.014190674E0,-7.385559082E-1,-9.339447021E-1
3.955261230E0,-8.544006348E-1,-6.725006104E-1,-9.861450195E-1
3.957763672E0,-6.860809326E-1,-5.915374756E-1,-1.026626587E0
3.960296631E0,-5.220336914E-1,-4.860839844E-1,-1.055389404E0
3.962829590E0,-3.675689697E-1,-3.593139648E-1,-1.082015991E0
3.965362549E0,-2.194976807E-1,-2.272186279E-1,-1.099060059E0
3.967895508E0,-7.781982422E-2,-8.660888672E-2,-1.107589722E0
3.970428467E0,5.427551270E-2,5.400085449E-2,-1.100128174E0
3.972930908E0,1.725158691E-1,1.786499023E-1,-1.079879761E0
3.975463867E0,2.790374756E-1,2.915649414E-1,-1.048995972E0
3.977996826E0,3.717193604E-1,3.831787109E-1,-1.009582520E0
3.980529785E0,4.548034668E-1,4.502868652E-1,-9.797515869E-1
3.983062744E0,5.123291016E-1,4.833068848E-1,-9.552459717E-1
3.985595703E0,5.570831299E-1,4.737243652E-1,-9.243621826E-1
3.988098144E0,5.996856689E-1,4.428253174E-1,-8.977203369E-1
3.990631103E0,6.295166016E-1,4.151306152E-1,-8.689575195E-1
3.993164062E0,6.550750732E-1,4.161987305E-1,-8.465881348E-1
3.995697021E0,6.753234863E-1,4.726562500E-1,-8.316802979E-1
3.998229980E0,6.891632080E-1,5.578765869E-1,-8.093109131E-1
4.000762939E0,6.795806885E-1,6.857147217E-1,-7.816162109E-1
4.003265381E0,6.699981689E-1,7.815856934E-1,-7.251586914E-1
4.005798340E0,6.540222168E-1,7.901000977E-1,-6.761474609E-1
4.008331299E0,6.305847168E-1,7.272491455E-1,-6.431274414E-1
4.010864258E0,6.092681885E-1,6.249847412E-1,-5.919952393E-1
4.013397217E0,5.815734863E-1,5.546875000E-1,-5.515136719E-1
4.015930176E0,5.453643799E-1,5.301818848E-1,-5.248870850E-1
4.018463135E0,4.942321777E-1,4.609375000E-1,-4.780120850E-1
4.020996094E0,4.558715820E-1,3.586730957E-1,-3.991851807E-1
4.023529053E0,4.313812256E-1,2.351074219E-1,-3.043670654E-1
4.026062012E0,4.217834473E-1,8.064270020E-2,-2.148895264E-1
4.028594971E0,4.249877930E-1,-8.235168457E-2,-1.509704590E-1
4.031127930E0,4.303131104E-1,-2.261505127E-1,-1.179504395E-1
4.033660889E0,4.548034668E-1,-3.806152344E-1,-8.811950684E-2
4.036163330E0,4.803771973E-1,-5.329589844E-1,-6.362915039E-2
4.038696289E0,4.963531494E-1,-6.511993408E-1,-6.256103516E-2
4.041229248E0,5.070037842E-1,-7.193756104E-1,-6.362915039E-2
4.043762207E0,5.251159668E-1,-7.630462646E-1,-6.681823730E-2
4.046295166E0,5.602722168E-1,-7.832946777E-1,-7.107543945E-2
4.048828125E0,6.103363037E-1,-7.928771973E-1,-8.279418945E-2
4.051330566E0,6.593475342E-1,-7.854156494E-1,-8.386230469E-2
4.053863525E0,6.902313232E-1,-7.822265625E-1,-8.493041992E-2
4.056396484E0,7.094116211E-1,-7.864837646E-1,-7.746887207E-2
4.058929443E0,7.296447754E-1,-8.099212646E-1,-7.640075684E-2
4.061462402E0,7.434997559E-1,-8.291015625E-1,-8.493041992E-2
4.063995361E0,7.573394775E-1,-8.280334473E-1,-8.599853516E-2
4.066497803E0,7.861022949E-1,-8.216400146E-1,-6.788635254E-2
4.069030762E0,8.351135254E-1,-8.344268799E-1,-4.763793945E-2
4.071563721E0,8.745269775E-1,-8.813018799E-1,-1.782226562E-2
4.074096680E0,8.649444580E-1,-9.462738037E-1,3.544616699E-2
4.076629639E0,8.468322754E-1,-1.028305054E0,9.297180176E-2
4.079162598E0,8.308563232E-1,-1.090087891E0,1.643371582E-1
4.081665039E0,8.020935059E-1,-1.163589478E0,2.559509277E-1
4.084197998E0,7.786560059E-1,-1.265853882E0,3.560943604E-1
4.086730957E0,7.243194580E-1,-1.359603882E0,4.391784668E-1
4.089263916E0,6.486816406E-1,-1.444824219E0,4.998931885E-1
4.091796875E0,5.602722168E-1,-1.487426758E0,5.659484863E-1
4.094329834E0,4.729156494E-1,-1.500213623E0,6.319885254E-1
4.096832275E0,4.015502930E-1,-1.526840210E0,7.172088623E-1
4.099365234E0,3.493499756E-1,-1.558807373E0,8.269348145E-1
4.101898193E0,2.896881104E-1,-1.602478027E0,9.568939209E-1
4.104431152E0,2.172546387E-1,-1.645095825E0,1.099639893E0
4.106964111E0,1.607971191E-1,-1.647216797E0,1.260498047E0
4.109497070E0,1.245727539E-1,-1.647216797E0,1.433074951E0
4.111999512E0,1.096649170E-1,-1.689834595E0,1.590728760E0
4.114532471E0,1.085968018E-1,-1.756942749E0,1.689804077E0
4.117065430E0,1.171264648E-1,-1.818725586E0,1.701522827E0
4.119598389E0,1.203155518E-1,-1.825119019E0,1.652511597E0
4.122131348E0,1.128540039E-1,-1.810211182E0,1.612030029E0
4.124664307E0,7.876586914E-2,-1.791030884E0,1.625885010E0
4.127166748E0,2.018737793E-2,-1.733505249E0,1.707916260E0
4.129699707E0,-5.012512207E-2,-1.631240845E0,1.866638184E0
4.132232666E0,-1.758270264E-1,-1.488494873E0,2.009384155E0
4.134765625E0,-2.727661133E-1,-1.422454834E0,2.113769531E0
4.137298584E0,-3.185729980E-1,-1.354278564E0,2.214981079E0
4.139831543E0,-3.324127197E-1,-1.256271362E0,2.293807983E0
4.142364502E0,-2.929992676E-1,-1.111389160E0,2.331085205E0
4.144866943E0,-2.237701416E-1,-8.802337646E-1,2.376892090E0
4.147399902E0,-1.385345459E-1,-6.437377930E-1,2.439743042E0
4.149932861E0,-3.308105469E-2,-4.945983887E-1,2.494079590E0
4.152465820E0,7.876586914E-2,-3.912658691E-1,2.490875244E0
4.154998779E0,2.044677734E-1,-3.539886475E-1,2.409927368E0
4.157531738E0,3.376312256E-1,-2.922058105E-1,2.263977051E0
4.160034180E0,4.686584473E-1,-1.601104736E-1,2.096725464E0
4.162567139E0,6.050109863E-1,-4.293823242E-2,1.916702271E0
4.165100098E0,7.275238037E-1,2.204895020E-2,1.713241577E0
4.167633057E0,8.191375732E-1,8.064270020E-2,1.511901855E0
4.170166016E0,8.681335449E-1,1.157989502E-1,1.337203979E0
4.172698975E0,8.787841797E-1,1.030120850E-1,1.183807373E0
4.175201416E0,8.393707275E-1,3.936767578E-3,1.069824219E0
4.177734375E0,7.616119385E-1,-1.398773193E-1,1.011230469E0
4.180267334E0,6.433563232E-1,-2.709045410E-1,1.001647949E0
4.182800293E0,5.187225342E-1,-4.051208496E-1,1.005905151E0
4.185333252E0,3.887634277E-1,-5.691680908E-1,9.931182861E-1
4.187866211E0,2.555999756E-1,-7.247009277E-1,9.611663818E-1
4.190368652E0,1.245727539E-1,-8.514709473E-1,9.664916992E-1
4.192901611E0,2.763366699E-2,-1.008056641E0,1.008026123E0
4.195434570E0,-6.291198730E-2,-1.120986938E0,9.771423340E-1
4.197967529E0,-1.662445068E-1,-1.179565430E0,8.929901123E-1
4.200500488E0,-2.525177002E-1,-1.216857910E0,7.981719971E-1
4.203033447E0,-3.324127197E-1,-1.218978882E0,7.512969971E-1
4.205535889E0,-4.005889893E-1,-1.207260132E0,7.523651123E-1
4.208068848E0,-4.549255371E-1,-1.173171997E0,7.523651123E-1
4.210601807E0,-4.996643066E-1,-1.109268188E0,7.640838623E-1
4.213134766E0,-5.348205566E-1,-1.047470093E0,8.237457275E-1
4.215667725E0,-5.710449219E-1,-9.835662842E-1,8.887176514E-1
4.218200684E0,-6.168518066E-1,-9.228363037E-1,9.537048340E-1
4.220703125E0,-6.690368652E-1,-8.642578125E-1,1.014419556E0
4.223236084E0,-7.073974609E-1,-8.152465820E-1,1.081527710E0
4.225769043E0,-7.382812500E-1,-7.822265625E-1,1.147583008E0
4.228302002E0,-7.723693848E-1,-7.577209473E-1,1.192321777E0
4.230834961E0,-8.022003174E-1,-7.385559082E-1,1.214691162E0
4.233367920E0,-8.256378174E-1,-7.172393799E-1,1.213623047E0
4.235870361E0,-8.373565674E-1,-7.044677734E-1,1.224273682E0
4.238403320E0,-8.426818848E-1,-6.799621582E-1,1.234939575E0
4.240936279E0,-8.448181152E-1,-6.117858887E-1,1.238128662E0
4.243469238E0,-8.426818848E-1,-5.414733887E-1,1.255172729E0
4.246002197E0,-8.469390869E-1,-4.786224365E-1,1.286071777E0
4.248535156E0,-8.480072021E-1,-4.083251953E-1,1.320159912E0
4.251068115E0,-8.565368652E-1,-3.465270996E-1,1.358505249E0
4.253570557E0,-8.661193848E-1,-3.124389648E-1,1.402175903E0
4.256103516E0,-8.650512695E-1,-3.199005127E-1,1.439468384E0
4.258636475E0,-8.639831543E-1,-3.412017822E-1,1.430938721E0
4.261169434E0,-8.671875000E-1,-3.571777344E-1,1.381942749E0
4.263702392E0,-8.682403564E-1,-3.795623779E-1,1.336135864E0
4.266204834E0,-8.671875000E-1,-4.424133301E-1,1.321212769E0
4.268737793E0,-8.607940674E-1,-5.425415039E-1,1.328674316E0
4.271270752E0,-8.341522217E-1,-6.511993408E-1,1.344650269E0
4.273803711E0,-7.936859131E-1,-7.694396973E-1,1.377685547E0
4.276336670E0,-7.649230957E-1,-8.706359863E-1,1.412826538E0
4.278869629E0,-7.457427979E-1,-9.196472168E-1,1.425613403E0
4.281402588E0,-7.276306152E-1,-9.345550537E-1,1.423492432E0
4.283905029E0,-7.041931152E-1,-9.153900146E-1,1.408569336E0
4.286437988E0,-6.775665283E-1,-8.962097168E-1,1.397918701E0
4.288970947E0,-6.509399414E-1,-8.940734863E-1,1.396850586E0
4.291503906E0,-6.349487305E-1,-9.068603516E-1,1.397918701E0
4.294036865E0,-6.306915283E-1,-9.015350342E-1,1.420288086E0
4.296569824E0,-6.434783936E-1,-8.834228516E-1,1.462905884E0
4.299102783E0,-6.594543457E-1,-8.823547363E-1,1.505508423E0
4.301635742E0,-6.797027588E-1,-9.015350342E-1,1.538528442E0
4.304168701E0,-7.031250000E-1,-9.153900146E-1,1.565170288E0
4.306701660E0,-7.223052979E-1,-9.281616211E-1,1.586471558E0
4.309234619E0,-7.446746826E-1,-9.441528320E-1,1.604583740E0
4.311767578E0,-7.638549805E-1,-9.526672363E-1,1.610977173E0
4.314270019E0,-7.691802979E-1,-9.718475342E-1,1.633346558E0
4.316802978E0,-7.691802979E-1,-9.963378906E-1,1.643997192E0
4.319335937E0,-7.574615479E-1,-1.026168823E0,1.656784058E0
4.321868896E0,-7.233734131E-1,-1.043212891E0,1.663162231E0
4.324401855E0,-6.743621826E-1,-1.041091919E0,1.663162231E0
4.326934814E0,-6.168518066E-1,-1.043212891E0,1.659973145E0
4.329437256E0,-5.561218262E-1,-1.071975708E0,1.665298462E0
4.331970215E0,-4.922027588E-1,-1.113525391E0,1.661041260E0
4.334503174E0,-4.208374023E-1,-1.156127930E0,1.646118164E0
4.337036133E0,-3.377532959E-1,-1.185958862E0,1.628021240E0
4.339538574E0,-2.471923828E-1,-1.204071045E0,1.609909058E0
4.342071533E0,-1.545257568E-1,-1.215789795E0,1.586471558E0
4.344604492E0,-5.226135254E-2,-1.224304199E0,1.586471558E0
4.347137451E0,5.427551270E-2,-1.228576660E0,1.632278442E0
4.349670410E0,1.576080322E-1,-1.216857910E0,1.687667847E0
4.352203369E0,2.588043213E-1,-1.203002930E0,1.745193481E0
4.354736328E0,3.536071777E-1,-1.188095093E0,1.778213501E0
4.357269287E0,4.335021973E-1,-1.167846680E0,1.792068481E0
4.359771728E0,5.027465820E-1,-1.148681641E0,1.820831299E0
4.362304687E0,5.719909668E-1,-1.112457275E0,1.850662231E0
4.364837646E0,6.412353516E-1,-1.065582275E0,1.882614136E0
4.367370605E0,6.998291016E-1,-1.031494141E0,1.906051636E0
4.369903564E0,7.498931885E-1,-1.010192871E0,1.892196655E0
4.372436523E0,7.882385254E-1,-9.984741211E-1,1.847457886E0
4.374938965E0,8.116760254E-1,-9.974060059E-1,1.792068481E0
4.377471924E0,8.127441406E-1,-9.984741211E-1,1.739868164E0
4.380004883E0,7.924957275E-1,-9.931488037E-1,1.697265625E0
4.382537842E0,7.765197754E-1,-9.665222168E-1,1.673828125E0
4.385070801E0,7.605438232E-1,-9.185791016E-1,1.646118164E0
4.387603760E0,7.296447754E-1,-8.908843994E-1,1.639739990E0
4.390136719E0,6.944885254E-1,-8.813018799E-1,1.638671875E0
4.392639160E0,6.497497559E-1,-8.823547363E-1,1.619491577E0
4.395172119E0,5.986175537E-1,-8.844909668E-1,1.588607788E0
4.397705078E0,5.346984863E-1,-8.972778320E-1,1.561965942E0
4.400238037E0,4.611968994E-1,-9.665222168E-1,1.541732788E0
4.402770996E0,3.717193604E-1,-9.697113037E-1,1.512969971E0
4.405303955E0,2.907562256E-1,-9.121856689E-1,1.470352173E0
4.407806396E0,2.193908691E-1,-8.546600342E-1,1.411773682E0
4.410339355E0,1.618652344E-1,-8.429412842E-1,1.354248047E0
4.412872314E0,1.107330322E-1,-8.610534668E-1,1.308441162E0
4.415374756E0,7.025146484E-2,-9.185791016E-1,1.258361816E0
4.417907715E0,3.083801270E-2,-9.878234863E-1,1.205108643E0
4.420440674E0,-1.177978516E-2,-1.004867554E0,1.161422729E0
4.422973633E0,-3.733825684E-2,-1.000610352E0,1.123077393E0
4.425506592E0,-6.077575684E-2,-9.899597168E-1,1.102844238E0
4.428039551E0,-7.463073730E-2,-9.761047363E-1,1.110290527E0
4.430541992E0,-7.995605469E-2,-9.622497559E-1,1.127334595E0
4.433074951E0,-7.142639160E-2,-9.654541016E-1,1.143325806E0
4.435607910E0,-5.863952637E-2,-9.878234863E-1,1.146514893E0
4.438140869E0,-5.119323730E-2,-9.995422363E-1,1.124145508E0
4.440673828E0,-5.012512207E-2,-9.686431885E-1,1.085800171E0
4.443206787E0,-6.077575684E-2,-9.643859863E-1,1.033599854E0
4.445739746E0,-8.528137207E-2,-9.739685059E-1,9.888610840E-1
4.448272705E0,-9.912109375E-2,-9.856872559E-1,9.686126709E-1
4.450805664E0,-9.806823730E-2,-9.729003906E-1,9.686126709E-1
4.453308105E0,-8.528137207E-2,-9.441528320E-1,9.867248535E-1
4.455841064E0,-6.930541992E-2,-9.633178711E-1,1.003768921E0
4.458374023E0,-5.438232422E-2,-1.037887573E0,1.004837036E0
4.460906982E0,-5.651855469E-2,-1.065582275E0,1.005905151E0
4.463409424E0,-6.610107422E-2,-1.090087891E0,9.899291992E-1
4.465942383E0,-7.995605469E-2,-1.106063843E0,9.654235840E-1
4.468475342E0,-7.888793945E-2,-1.194488525E0,9.547729492E-1
4.471008301E0,-8.421325684E-2,-1.294616699E0,9.355926514E-1
4.473541260E0,-8.953857422E-2,-1.387298584E0,9.068298340E-1
4.476074219E0,-7.675170898E-2,-1.530044556E0,8.844604492E-1
4.478576660E0,-9.167480469E-2,-1.551345825E0,8.237457275E-1
4.481109619E0,-1.044464111E-1,-1.591827393E0,7.758026123E-1
4.483642578E0,-1.087188721E-1,-1.636566162E0,7.640838623E-1
4.486175537E0,-1.108398438E-1,-1.672790527E0,7.438507080E-1
4.488677978E0,-1.172332764E-1,-1.738830566E0,7.246704102E-1
4.491210937E0,-1.268310547E-1,-1.793167114E0,7.044372559E-1
4.493743896E0,-1.396026611E-1,-1.844299316E0,6.756744385E-1
4.496276855E0,-1.630401611E-1,-1.838973999E0,6.554260254E-1
4.498809814E0,-1.747589111E-1,-1.832580566E0,6.319885254E-1
4.501342773E0,-1.758270264E-1,-1.845352173E0,6.011047363E-1
4.503875732E0,-1.768951416E-1,-1.841094971E0,5.648803711E-1
4.506408691E0,-1.822204590E-1,-1.801681519E0,5.297241211E-1
4.508941650E0,-1.832885742E-1,-1.748413086E0,4.903106689E-1
4.511474609E0,-1.672973633E-1,-1.681304932E0,4.423828125E-1
4.514007568E0,-1.470642090E-1,-1.629104614E0,3.976287842E-1
4.516510010E0,-1.342773438E-1,-1.572647095E0,3.571624756E-1
4.519042969E0,-1.246948242E-1,-1.516189575E0,3.145446777E-1
4.521575928E0,-1.172332764E-1,-1.441619873E0,2.751312256E-1
4.524108887E0,-1.140441895E-1,-1.351074219E0,2.346496582E-1
4.526641846E0,-1.023254395E-1,-1.259460449E0,1.941680908E-1
4.529174805E0,-8.314514160E-2,-1.168914795E0,1.451721191E-1
4.531677246E0,-5.438232422E-2,-1.081558228E0,1.004333496E-1
4.534210205E0,-2.668762207E-2,-9.856872559E-1,5.567932129E-2
4.536743164E0,6.332397461E-3,-8.759613037E-1,3.494262695E-3
4.539276123E0,4.148864746E-2,-7.598571777E-1,-4.870605469E-2
4.541809082E0,7.876586914E-2,-6.469421387E-1,-1.104888916E-1
4.544342041E0,1.160583496E-1,-5.361480713E-1,-1.712188721E-1
4.546844482E0,1.533355713E-1,-4.370727539E-1,-2.404632568E-1
4.549377441E0,1.863708496E-1,-3.475952148E-1,-3.075714111E-1
4.551910400E0,2.140655518E-1,-2.517242432E-1,-3.704223633E-1
4.554443359E0,2.375030518E-1,-1.579742432E-1,-4.215545654E-1
4.556976318E0,2.651977539E-1,-6.742858887E-2,-4.492492676E-1
4.559509277E0,2.939605713E-1,1.033020020E-2,-4.694824219E-1
4.562011719E0,3.024749756E-1,8.596801758E-2,-4.844055176E-1
4.564544678E0,3.078002930E-1,1.562652588E-1,-4.907989502E-1
4.567077637E0,3.195190430E-1,2.436218262E-1,-4.939880371E-1
4.569610596E0,3.227233887E-1,3.256530762E-1,-5.014495850E-1
4.572143555E0,3.482818604E-1,3.852996826E-1,-5.131683350E-1
4.574676514E0,3.674621582E-1,4.343109131E-1,-5.238189697E-1
4.577178955E0,3.951568604E-1,4.396362305E-1,-5.461883545E-1
4.579711914E0,4.281768799E-1,4.034118652E-1,-5.802764893E-1
4.582244873E0,4.356384277E-1,4.055480957E-1,-5.973205566E-1
4.584777832E0,4.132690430E-1,4.992828369E-1,-5.973205566E-1
4.587310791E0,3.727874756E-1,6.313781738E-1,-5.962524414E-1
4.589843750E0,3.504180908E-1,7.453613281E-1,-5.994567871E-1
4.592376709E0,3.610687256E-1,7.986297607E-1,-6.218261719E-1
4.594909668E0,3.685302734E-1,8.486938477E-1,-6.527099609E-1
4.597442627E0,3.632049561E-1,9.488220215E-1,-6.718902588E-1
4.599975586E0,3.333740234E-1,1.077728271E0,-6.793518066E-1
4.602508545E0,3.014068604E-1,1.215148926E0,-6.931915283E-1
4.605041504E0,2.864990234E-1,1.287582397E0,-7.208862305E-1
4.607543945E0,2.758483887E-1,1.288650513E0,-7.560424805E-1
4.610076904E0,2.332305908E-1,1.335525513E0,-7.762908936E-1
4.612609863E0,1.607971191E-1,1.450561523E0,-7.933349609E-1
4.615142822E0,9.155273438E-2,1.580535889E0,-8.210296631E-1
4.617675781E0,2.230834961E-2,1.704101562E0,-8.540496826E-1
4.620208740E0,-3.947448730E-2,1.776535034E0,-9.041137695E-1
4.622711182E0,-9.700012207E-2,1.809570312E0,-9.605712891E-1
4.625244141E0,-1.513214111E-1,1.837265015E0,-1.013839722E0
4.627777100E0,-1.992645264E-1,1.867080688E0,-1.063903809E0
4.630310059E0,-2.333526611E-1,1.896911621E0,-1.107589722E0
4.632843017E0,-2.610473633E-1,1.919281006E0,-1.151260376E0
4.635375976E0,-2.727661133E-1,1.951248169E0,-1.192810059E0
4.637908935E0,-2.727661133E-1,1.989593506E0,-1.236480713E0
4.640411377E0,-2.599792480E-1,2.039657593E0,-1.284423828E0
4.642944336E0,-2.525177002E-1,2.119552612E0,-1.335556030E0
4.645477295E0,-2.503967285E-1,2.193054199E0,-1.390945435E0
4.648010254E0,-2.429351807E-1,2.276153564E0,-1.434616089E0
4.650543213E0,-2.386779785E-1,2.366699219E0,-1.464447021E0
4.653076172E0,-2.312164307E-1,2.442337036E0,-1.497467041E0
4.655578613E0,-2.194976807E-1,2.500915527E0,-1.515579224E0
4.658111572E0,-2.035217285E-1,2.552047729E0,-1.532623291E0
4.660644531E0,-1.918029785E-1,2.596786499E0,-1.542205811E0
4.663177490E0,-1.832885742E-1,2.615966797E0,-1.545410156E0
4.665710449E0,-1.800842285E-1,2.626617432E0,-1.545410156E0
4.668243408E0,-1.950073242E-1,2.619171143E0,-1.537948608E0
4.670745850E0,-2.141723633E-1,2.614898682E0,-1.532623291E0
4.673278809E0,-2.290954590E-1,2.602127075E0,-1.540084839E0
4.675811767E0,-2.397460938E-1,2.573364258E0,-1.568847656E0
4.678344726E0,-2.450714111E-1,2.563766479E0,-1.600799561E0
4.680877685E0,-2.567901611E-1,2.566970825E0,-1.641281128E0
4.683410644E0,-2.663726807E-1,2.573364258E0,-1.687088013E0
4.685913086E0,-2.780914307E-1,2.601058960E0,-1.746734619E0
4.688446045E0,-3.015289307E-1,2.637268066E0,-1.813858032E0
4.690979004E0,-3.356170654E-1,2.677749634E0,-1.883102417E0
4.693511963E0,-3.697052002E-1,2.711837769E0,-1.960861206E0
4.696044922E0,-3.984680176E-1,2.755523682E0,-2.036499023E0
4.698577881E0,-4.155120850E-1,2.798126221E0,-2.095077515E0
4.701080322E0,-4.272308350E-1,2.831146240E0,-2.146209717E0
4.703613281E0,-4.240264893E-1,2.898269653E0,-2.209060669E0
4.706146240E0,-4.005889893E-1,2.974960327E0,-2.274047852E0
4.708679199E0,-3.686370850E-1,3.045272827E0,-2.330505371E0
4.711212158E0,-3.441314697E-1,3.083618164E0,-2.372055054E0
4.713745117E0,-3.207092285E-1,3.108123779E0,-2.404006958E0
4.716247559E0,-2.844848633E-1,3.142211914E0,-2.427444458E0
4.718780517E0,-2.354736328E-1,3.181625366E0,-2.458343506E0
4.721313476E0,-1.683654785E-1,3.194412231E0,-2.495620728E0
4.723846435E0,-7.675170898E-2,3.202926636E0,-2.512664795E0
4.726379394E0,5.264282227E-3,3.186950684E0,-2.480712891E0
4.728912353E0,6.599426270E-2,3.156051636E0,-2.414657593E0
4.731414795E0,1.224517822E-1,3.118774414E0,-2.342224121E0
4.733947754E0,1.714477539E-1,3.102798462E0,-2.259140015E0
4.736480713E0,2.076721191E-1,3.079360962E0,-2.167526245E0
4.739013672E0,2.279052734E-1,3.034622192E0,-2.078033447E0
4.741546631E0,2.353668213E-1,2.985610962E0,-1.992813110E0
4.744079590E0,2.417602539E-1,2.960052490E0,-1.912918091E0
4.746582031E0,2.598724365E-1,2.972824097E0,-1.829833984E0
4.749114990E0,2.758483887E-1,2.996261597E0,-1.744613647E0
4.751647949E0,2.705230713E-1,2.974960327E0,-1.708389282E0
4.754180908E0,2.406921387E-1,2.920639038E0,-1.754196167E0
4.756713867E0,2.002105713E-1,2.893997192E0,-1.844741821E0
4.759246826E0,1.671905518E-1,2.899322510E0,-1.904403687E0
4.761779785E0,1.373596191E-1,2.916366577E0,-1.955535889E0
4.764282226E0,1.331024170E-1,2.939804077E0,-2.015182495E0
4.766815185E0,1.245727539E-1,2.908920288E0,-2.064193726E0
4.769348144E0,1.000823975E-1,2.871627808E0,-2.104675293E0
4.771881103E0,6.066894531E-2,2.886550903E0,-2.136627197E0
4.774414062E0,3.829956055E-2,2.899322510E0,-2.171783447E0
4.776947021E0,2.658081055E-2,2.864181519E0,-2.208007812E0
4.779449463E0,1.165771484E-2,2.818374634E0,-2.245285034E0
4.781982422E0,-1.603698730E-2,2.771499634E0,-2.274047852E0
4.784515381E0,-4.479980469E-2,2.700119019E0,-2.296417236E0
4.787048340E0,-8.314514160E-2,2.613830566E0,-2.288955688E0
4.789550781E0,-1.513214111E-1,2.506240845E0,-2.268722534E0
4.792083740E0,-2.482604980E-1,2.368820190E0,-2.247421265E0
4.794616699E0,-3.441314697E-1,2.209030151E0,-2.211196899E0
4.797149658E0,-4.133758545E-1,2.040725708E0,-2.184570312E0
4.799682617E0,-4.581146240E-1,1.893722534E0,-2.190963745E0
4.802215576E0,-4.858245850E-1,1.731796265E0,-2.228240967E0
4.804748535E0,-4.943389893E-1,1.575210571E0,-2.276184082E0
4.807281494E0,-4.932708740E-1,1.464416504E0,-2.321990967E0
4.809783935E0,-4.123077393E-1,1.399429321E0,-2.386962891E0
4.812316894E0,-1.886138916E-1,1.511291504E0,-2.457275391E0
4.814849853E0,2.976989746E-2,1.560287476E0,-2.477508545E0
4.817382812E0,1.320343018E-1,1.410095215E0,-2.467926025E0
4.819915771E0,1.820983887E-1,1.284393311E0,-2.470062256E0
4.822448730E0,2.172546387E-1,1.218338013E0,-2.460464478E0
4.824951172E0,2.193908691E-1,1.162948608E0,-2.394424438E0
4.827484131E0,1.970214844E-1,1.066009521E0,-2.343292236E0
4.830017090E0,1.629333496E-1,9.115447998E-1,-2.334762573E0
4.832550049E0,6.066894531E-2,7.709350586E-1,-2.321990967E0
4.835083008E0,-1.076507568E-1,6.718597412E-1,-2.318786621E0
4.837615967E0,-2.258911133E-1,5.738525391E-1,-2.417861938E0
4.840118408E0,-2.205657959E-1,5.376434326E-1,-2.644760132E0
4.842651367E0,-7.888793945E-2,5.642700195E-1,-2.839706421E0
4.845184326E0,7.450866699E-2,5.046081543E-1,-2.891906738E0
4.847717285E0,1.426849365E-1,3.480224609E-1,-2.805618286E0
4.850250244E0,1.352386475E-1,1.988830566E-1,-2.647949219E0
4.852783203E0,8.090209961E-2,1.392211914E-1,-2.475387573E0
4.855285644E0,2.444458008E-2,1.498870850E-1,-2.356079102E0
4.857818603E0,1.272583008E-2,2.340393066E-1,-2.331573486E0
4.860351562E0,4.042053223E-2,3.032836914E-1,-2.328369141E0
4.862884521E0,7.664489746E-2,2.649230957E-1,-2.264465332E0
4.865417480E0,9.687805176E-2,1.733093262E-1,-2.134490967E0
4.867950439E0,1.139221191E-1,8.064270020E-2,-1.922515869E0
4.870483398E0,8.943176270E-2,-1.417541504E-2,-1.735031128E0
4.873016357E0,2.870178223E-2,-8.660888672E-2,-1.692413330E0
4.875549316E0,-3.250122070E-3,-1.185607910E-1,-1.631698608E0
4.878082275E0,-2.136230469E-2,-1.441345215E-1,-1.496398926E0
4.880615234E0,-5.545043945E-2,-1.260223389E-1,-1.348327637E0
4.883148193E0,-8.207702637E-2,-1.843261719E-2,-1.269500732E0
4.885681152E0,-9.912109375E-2,8.703613281E-2,-1.224761963E0
4.888183594E0,-9.486389160E-2,1.051330566E-1,-1.167236328E0
4.890716553E0,-6.823730469E-2,9.022521973E-2,-1.110778809E0
4.893249512E0,-2.029418945E-2,5.294799805E-2,-1.053253174E0
4.895782471E0,3.295898438E-2,-2.456665039E-3,-1.004257202E0
4.898315430E0,7.771301270E-2,-8.340454102E-2,-9.488525391E-1
4.900817871E0,1.298980713E-1,-1.601104736E-1,-8.955993652E-1
4.903350830E0,1.874237061E-1,-2.154998779E-1,-8.561859131E-1
4.905883789E0,2.342987061E-1,-2.645111084E-1,-8.178253174E-1
4.908416748E0,2.705230713E-1,-3.081817627E-1,-7.677612305E-1
4.910949707E0,3.003540039E-1,-3.380126953E-1,-7.113037109E-1
4.913482666E0,3.205871582E-1,-3.529205322E-1,-6.559143066E-1
4.916015625E0,3.291168213E-1,-3.646392822E-1,-5.962524414E-1
4.918518066E0,3.344421387E-1,-3.731689453E-1,-5.334014893E-1
4.921051025E0,3.323059082E-1,-3.721008301E-1,-4.854736328E-1
4.923583984E0,3.216552734E-1,-3.752899170E-1,-4.652252197E-1
4.926116943E0,3.110046387E-1,-4.093780518E-1,-4.620361328E-1
4.928649902E0,3.014068604E-1,-3.625183105E-1,-4.620361328E-1
4.931182861E0,2.779693604E-1,-2.421417236E-1,-4.620361328E-1
4.933685303E0,2.513427734E-1,-1.419982910E-1,-4.907989502E-1
4.936218262E0,2.257843018E-1,-7.170104980E-2,-5.483245850E-1
4.938751221E0,2.215118408E-1,-2.694702148E-2,-6.165008545E-1
4.941284180E0,2.311096191E-1,7.141113281E-3,-6.857452393E-1
4.943817139E0,2.428283691E-1,2.951049805E-2,-7.485961914E-1
4.946350098E0,2.619934082E-1,5.613708496E-2,-8.082427979E-1
4.948852539E0,2.822418213E-1,7.850646973E-2,-8.593750000E-1
4.951385498E0,3.024749756E-1,9.980773926E-2,-9.105072021E-1
4.953918457E0,3.227233887E-1,1.307067871E-1,-9.744262695E-1
4.956451416E0,3.514862061E-1,1.509399414E-1,-1.047927856E0
4.958984375E0,3.919525146E-1,1.893005371E-1,-1.134216309E0
4.961517334E0,4.260559082E-1,2.415008545E-1,-1.223693848E0
4.964019775E0,4.494781494E-1,2.862396240E-1,-1.309982300E0
4.966552734E0,4.526824951E-1,3.245849609E-1,-1.383483887E0
4.969085693E0,4.324340820E-1,4.385681152E-1,-1.431427002E0
4.971618652E0,4.303131104E-1,5.642700195E-1,-1.478302002E0
4.974151611E0,3.717193604E-1,5.142059326E-1,-1.442077637E0
4.976684570E0,2.779693604E-1,4.375000000E-1,-1.381362915E0
4.979217529E0,1.618652344E-1,3.757171631E-1,-1.291870117E0
4.981719971E0,3.935241699E-2,3.181915283E-1,-1.178955078E0
4.984252930E0,-7.142639160E-2,2.723846436E-1,-1.134216309E0
4.986785889E0,-1.534576416E-1,2.468261719E-1,-1.092666626E0
4.989318848E0,-2.194976807E-1,2.542724609E-1,-9.691009521E-1
4.991851807E0,-2.663726807E-1,2.521514893E-1,-8.401947021E-1
4.994354248E0,-2.812805176E-1,2.063446045E-1,-7.230224609E-1
4.996887207E0,-2.621154785E-1,1.338958740E-1,-6.165008545E-1
4.999420166E0,-2.301483154E-1,5.081176758E-2,-4.982452393E-1
5.001953125E0,-2.003326416E-1,-2.589416504E-2,-3.629608154E-1
5.004486084E0,-1.566467285E-1,-2.080535889E-1,-2.425842285E-1
5.007019043E0,-1.396026611E-1,-3.752899170E-1,-1.669616699E-1
5.009552002E0,-1.566467285E-1,-4.189758301E-1,-3.059387207E-2
5.012054443E0,-1.630401611E-1,-4.168395996E-1,8.871459961E-2
5.014587402E0,-1.545257568E-1,-3.507995605E-1,1.973724365E-1
5.017120361E0,-1.385345459E-1,-2.762298584E-1,2.751312256E-1
5.019653320E0,-1.257629395E-1,-2.325439453E-1,3.497009277E-1
5.022186279E0,-1.172332764E-1,-2.059173584E-1,4.541015625E-1
5.024719238E0,-1.225585938E-1,-2.187042236E-1,5.318603516E-1
5.027221680E0,-1.385345459E-1,-2.772827148E-1,5.808563232E-1
5.029754639E0,-1.736907959E-1,-3.816833496E-1,6.298675537E-1
5.032287598E0,-2.269592285E-1,-5.041961670E-1,7.001647949E-1
5.034820557E0,-2.844848633E-1,-6.224365234E-1,8.173522949E-1
5.037353516E0,-3.207092285E-1,-6.991424561E-1,9.398498535E-1
5.039886475E0,-3.420104980E-1,-7.726440430E-1,1.064483643E0
5.042388916E0,-3.537292480E-1,-8.514709473E-1,1.185928345E0
5.044921875E0,-3.728942871E-1,-9.548034668E-1,1.303115845E0
5.047454834E0,-3.856811523E-1,-1.049606323E0,1.417098999E0
5.049987793E0,-3.984680176E-1,-1.122039795E0,1.527877808E0
5.052520752E0,-4.144439697E-1,-1.198745728E0,1.653579712E0
5.055053711E0,-4.357452393E-1,-1.289291382E0,1.817626953E0
5.057556152E0,-4.602508545E-1,-1.352142334E0,2.020034790E0
5.060089111E0,-4.804840088E-1,-1.409667969E0,2.248001099E0
5.062622070E0,-4.964752197E-1,-1.475708008E0,2.475967407E0
5.065155029E0,-5.060577393E-1,-1.531112671E0,2.692214966E0
5.067687988E0,-4.709014893E-1,-1.460800171E0,2.874374390E0
5.070220947E0,-4.069824219E-1,-1.326568604E0,3.027770996E0
5.072723389E0,-3.569183350E-1,-1.236022949E0,3.180099487E0
5.075256348E0,-3.249664307E-1,-1.175308228E0,3.333511353E0
5.077789307E0,-3.228302002E-1,-1.131637573E0,3.471984863E0
5.080322266E0,-3.505249023E-1,-1.126312256E0,3.597686768E0
