"Time (s)","Gyroscope x (rad/s)","Gyroscope y (rad/s)","Gyroscope z (rad/s)"
3.052000000E-5,4.271840751E-1,2.364959270E-1,7.169448137E-1
5.013802000E-3,4.239881933E-1,2.354306281E-1,7.148142457E-1
1.014864600E-2,4.101393223E-1,2.428877056E-1,7.180101275E-1
1.510677200E-2,3.930945694E-1,2.503447831E-1,7.180101275E-1
2.020125100E-2,3.771151006E-1,2.801730931E-1,7.212060094E-1
2.518208500E-2,3.568744659E-1,3.366338313E-1,7.361201644E-1
3.027182500E-2,3.259808719E-1,4.037475288E-1,7.595567107E-1
3.525448200E-2,2.961525619E-1,4.623388648E-1,7.989727259E-1
4.034036700E-2,2.684548199E-1,5.124078393E-1,8.511722684E-1
4.533594200E-2,2.407571077E-1,5.507585406E-1,9.076330066E-1
5.042255600E-2,2.215817571E-1,5.752603412E-1,9.630284309E-1
5.541333800E-2,2.173205763E-1,5.763256550E-1,1.016293287E0
6.049667100E-2,2.237123549E-1,5.411708355E-1,1.073819280E0
6.547776700E-2,2.460835874E-1,4.751224220E-1,1.145194173E0
7.058917200E-2,2.780424953E-1,3.888333738E-1,1.226156831E0
7.558151800E-2,3.249155581E-1,2.950872481E-1,1.309249878E0
8.066589200E-2,3.845722079E-1,2.130593807E-1,1.385951281E0
8.564313300E-2,4.527511895E-1,1.757739931E-1,1.464783311E0
9.073229900E-2,5.262566805E-1,1.065296903E-1,1.519113421E0
9.572459200E-2,5.976315737E-1,2.237123623E-2,1.539354086E0
1.008159980E-1,6.711370945E-1,-4.474247247E-2,1.537223458E0
1.057956870E-1,7.478384376E-1,-3.089361079E-2,1.542549968E0
1.108901140E-1,8.224092126E-1,3.302420676E-2,1.568117142E0
1.158757400E-1,8.895229697E-1,1.075949892E-1,1.596880078E0
1.209657920E-1,9.449183941E-1,1.715128124E-1,1.622447252E0
1.259650640E-1,9.875302315E-1,2.269082516E-1,1.638426661E0
1.310421470E-1,1.017358541E0,2.780424953E-1,1.655471444E0
1.360458460E-1,1.040795088E0,3.195890784E-1,1.681038618E0
1.411268360E-1,1.053578615E0,3.526133001E-1,1.714062810E0
1.461203790E-1,1.063166380E0,3.792456985E-1,1.750282884E0
1.512162120E-1,1.070623398E0,3.941598535E-1,1.788633585E0
1.561892340E-1,1.084472299E0,3.888333738E-1,1.824853659E0
1.612816290E-1,1.108974099E0,3.622009456E-1,1.854681969E0
1.662705370E-1,1.144128919E0,3.100014031E-1,1.878118515E0
1.713732970E-1,1.186740756E0,2.386265099E-1,1.899424434E0
1.763449130E-1,1.234679103E0,1.565986425E-1,1.927122116E0
1.814510060E-1,1.287943959E0,7.030959427E-2,1.955885172E0
1.864200700E-1,1.343339443E0,-8.522375487E-3,1.977191091E0
1.915151740E-1,1.391277790E0,-7.670138031E-2,1.981452346E0
1.965002800E-1,1.420040846E0,-1.225091442E-1,1.969734073E0
2.016333520E-1,1.427497864E0,-1.502068639E-1,1.946297526E0
2.065903850E-1,1.411518455E0,-1.587292403E-1,1.921795726E0
2.116730930E-1,1.367841244E0,-1.459456831E-1,1.898359179E0
2.166759590E-1,1.301792860E0,-1.193132550E-1,1.875987887E0
2.217505940E-1,1.225091457E0,-8.522375673E-2,1.857877851E0
2.267346060E-1,1.140933037E0,-5.326484516E-2,1.845094323E0
2.318325740E-1,1.058905125E0,-2.556712553E-2,1.834441304E0
2.368192940E-1,9.843343496E-1,3.195890691E-3,1.830180168E0
2.419232520E-1,9.193512797E-1,3.089361079E-2,1.826984286E0
2.468932010E-1,8.682169914E-1,5.219954997E-2,1.825918913E0
2.519914300E-1,8.319969177E-1,4.687306657E-2,1.826984286E0
2.569717960E-1,8.138868809E-1,1.704475097E-2,1.834441304E0
2.620739310E-1,8.064298034E-1,-2.982831374E-2,1.847224832E0
2.670590370E-1,8.085603714E-1,-8.628904819E-2,1.866400242E0
2.721441400E-1,8.160174489E-1,-1.395539045E-1,1.890902042E0
2.771450270E-1,8.266704082E-1,-1.853616685E-1,1.923926234E0
2.822220580E-1,8.383886814E-1,-2.247776538E-1,1.961211681E0
2.872125800E-1,8.501069546E-1,-2.673895359E-1,2.007019520E0
2.923032570E-1,8.586293459E-1,-3.089361191E-1,2.062414885E0
2.972857060E-1,8.671516776E-1,-3.451561928E-1,2.118875504E0
3.024102370E-1,8.756740689E-1,-3.771151006E-1,2.177466869E0
3.073702390E-1,8.916535378E-1,-4.133352041E-1,2.227535963E0
3.124596130E-1,9.118942022E-1,-4.591429830E-1,2.262690783E0
3.174439370E-1,9.342654347E-1,-5.145384073E-1,2.296780109E0
3.225841460E-1,9.672896266E-1,-5.720644593E-1,2.321281910E0
3.275380010E-1,1.010966778E0,-6.178722382E-1,2.333000183E0
3.326277400E-1,1.066362262E0,-6.455699205E-1,2.328739166E0
3.376127940E-1,1.128149509E0,-6.551576257E-1,2.301041365E0
3.426930540E-1,1.188871384E0,-6.381128430E-1,2.250972509E0
3.476934200E-1,1.254919767E0,-5.891091824E-1,2.182793379E0
3.527737840E-1,1.316707015E0,-4.996242523E-1,2.105026722E0
3.577590460E-1,1.371037126E0,-3.813762963E-1,2.028325319E0
3.628558680E-1,1.450934410E0,-2.087981999E-1,1.945232153E0
3.678392550E-1,1.605402470E0,6.391781569E-2,1.845094323E0
3.729872240E-1,1.849355459E0,4.293146729E-1,1.751348138E0
3.779269640E-1,2.148703814E0,8.085603714E-1,1.682103872E0
3.830215990E-1,2.416093349E0,1.095125198E0,1.650144935E0
3.880005590E-1,2.564169645E0,1.206981421E0,1.639492035E0
3.930992050E-1,2.564169645E0,1.163304210E0,1.629904270E0
3.980710810E-1,2.442725897E0,1.005640268E0,1.608598351E0
4.031949350E-1,2.254168272E0,8.256051540E-1,1.579835415E0
4.081608740E-1,1.894097924E0,8.810005784E-1,1.550006986E0
4.132868630E-1,1.339078307E0,1.159043074E0,1.522309303E0
4.182450930E-1,1.144128919E0,8.852617741E-1,1.455195665E0
4.233386870E-1,1.206981421E0,4.506205916E-1,1.382755399E0
4.283151990E-1,1.188871384E0,4.378370345E-1,1.374233007E0
4.333984790E-1,1.035468578E0,4.399676323E-1,1.347600579E0
4.384002000E-1,8.309316039E-1,4.346411526E-1,1.243201494E0
4.434913970E-1,6.455699205E-1,4.048128426E-1,1.106843472E0
4.484726480E-1,4.804489315E-1,3.653968573E-1,1.036533952E0
4.535633250E-1,3.270461559E-1,4.303799570E-1,9.949873090E-1
4.585602540E-1,1.896228492E-1,5.017548800E-1,9.672896266E-1
4.636471280E-1,6.072192639E-2,5.113425255E-1,9.406571984E-1
4.686195780E-1,-2.556712553E-2,4.783183336E-1,8.916535378E-1
4.737682230E-1,-6.498311460E-2,4.069434404E-1,8.554334641E-1
4.787098390E-1,-6.711370498E-2,3.227849603E-1,8.469110727E-1
4.838260370E-1,-4.261187837E-2,2.396918088E-1,8.607599139E-1
4.887771840E-1,-4.261187743E-3,1.736433953E-1,8.831311464E-1
4.938712460E-1,5.433014408E-2,1.289009303E-1,9.044371247E-1
4.988847890E-1,1.320968270E-1,6.817900389E-2,9.779425859E-1
5.039509340E-1,2.183858752E-1,8.522375487E-3,1.074884653E0
5.089557270E-1,3.163931966E-1,-2.556712553E-2,1.161173701E0
5.140275500E-1,4.261187613E-1,-3.941598535E-2,1.230417967E0
5.190132800E-1,5.369096398E-1,-6.072192639E-2,1.283682823E0
5.241118220E-1,6.498311162E-1,-1.001379117E-1,1.325229406E0
5.290891670E-1,7.627525926E-1,-1.203785539E-1,1.372102499E0
5.341990620E-1,8.479763865E-1,-8.735434711E-2,1.456260920E0
5.391717200E-1,9.097635746E-1,-2.034717202E-1,1.498872757E0
5.442660430E-1,9.747467041E-1,-3.430256248E-1,1.460522056E0
5.492489610E-1,1.046121597E0,-4.378370345E-1,1.406191945E0
5.556887000E-1,1.102582335E0,-5.006895661E-1,1.355057716E0
5.593264090E-1,1.128149509E0,-4.985589683E-1,1.311380506E0
5.644222420E-1,1.149455428E0,-4.985589683E-1,1.266638041E0
5.694022960E-1,1.182479620E0,-5.379749537E-1,1.151585937E0
5.744976600E-1,1.196328402E0,-5.177342892E-1,9.726160765E-1
5.794968800E-1,1.172891974E0,-4.207922816E-1,8.426498771E-1
5.845802130E-1,1.100451708E0,-3.270461559E-1,7.808626294E-1
5.895741730E-1,9.747467041E-1,-3.036096394E-1,7.222713232E-1
5.946594850E-1,8.266704082E-1,-2.929566503E-1,6.647452712E-1
5.996380280E-1,6.881818175E-1,-2.865648866E-1,6.274598837E-1
6.047378710E-1,5.731297731E-1,-3.249155581E-1,5.933703780E-1
6.097188620E-1,4.879060090E-1,-3.440909088E-1,5.816521049E-1
6.148397480E-1,4.261187613E-1,-3.313073516E-1,5.880439281E-1
6.198024570E-1,4.037475288E-1,-3.206543922E-1,5.891091824E-1
6.249230820E-1,4.144005179E-1,-3.302420378E-1,5.859133005E-1
6.298792810E-1,4.548817873E-1,-3.696580231E-1,5.784562230E-1
6.349742810E-1,5.241261125E-1,-4.442288280E-1,5.667379498E-1
6.399569380E-1,6.125457287E-1,-5.635420680E-1,5.518237948E-1
6.450471460E-1,7.009654045E-1,-7.222713232E-1,5.305178761E-1
6.500447000E-1,7.787320614E-1,-8.458457589E-1,5.198649168E-1
6.551275120E-1,8.394539952E-1,-9.001759291E-1,5.124078393E-1
6.601210550E-1,8.735435009E-1,-9.342654347E-1,5.038854480E-1
6.652394920E-1,8.671516776E-1,-9.704855084E-1,4.996242523E-1
6.701924620E-1,8.042991757E-1,-1.018423915E0,4.964283705E-1
6.752997540E-1,7.169448137E-1,-1.100451708E0,4.900365770E-1
6.802693380E-1,6.040233374E-1,-1.127084136E0,4.729918540E-1
6.853769420E-1,4.825794995E-1,-1.066362262E0,4.431635141E-1
6.903501730E-1,3.781804144E-1,-9.545060396E-1,4.122699201E-1
6.954410060E-1,2.865648866E-1,-8.117562532E-1,3.856374919E-1
7.004273610E-1,2.130593807E-1,-6.668758988E-1,3.675274551E-1
7.055248090E-1,1.640557349E-1,-4.868406951E-1,3.568744659E-1
7.105034040E-1,1.342274100E-1,-2.535406649E-1,3.664621413E-1
7.155973620E-1,1.320968270E-1,-2.663242258E-2,3.803110123E-1
7.205867900E-1,1.523374617E-1,1.502068639E-1,3.920292854E-1
7.256779360E-1,1.821657717E-1,2.972178459E-1,4.080087245E-1
7.306694990E-1,2.141246796E-1,4.367717505E-1,4.282493591E-1
7.357692910E-1,2.396918088E-1,5.688685775E-1,4.452941120E-1
7.407537190E-1,2.503447831E-1,6.753982306E-1,4.506205916E-1
7.458770000E-1,2.503447831E-1,7.744708657E-1,4.463594258E-1
7.508195010E-1,2.492794842E-1,8.767393827E-1,4.506205916E-1
7.559272620E-1,2.407571077E-1,9.907261729E-1,4.538165033E-1
7.608952840E-1,2.354306281E-1,1.084472299E0,4.570123851E-1
7.660189290E-1,2.354306281E-1,1.171826601E0,4.676653445E-1
7.709761180E-1,2.439530045E-1,1.255985141E0,4.761877358E-1
7.760654410E-1,2.588671446E-1,1.327360034E0,4.847100973E-1
7.810813270E-1,2.993484437E-1,1.395539045E0,4.932324886E-1
7.861505460E-1,3.675274551E-1,1.451999664E0,4.953630865E-1
7.911437760E-1,4.516859055E-1,1.494611621E0,4.825794995E-1
7.962679430E-1,5.401055217E-1,1.515917540E0,4.580776691E-1
8.012220060E-1,6.295905113E-1,1.508460402E0,4.261187613E-1
8.063212770E-1,7.094877362E-1,1.492480993E0,3.941598535E-1
8.112889350E-1,7.734055519E-1,1.476501584E0,3.675274551E-1
8.163849240E-1,8.224092126E-1,1.453065038E0,3.398297131E-1
8.213709150E-1,8.458457589E-1,1.424301982E0,3.131972849E-1
8.264620080E-1,8.575640321E-1,1.380624771E0,2.886954844E-1
8.314447180E-1,8.618252277E-1,1.332686424E0,2.599324584E-1
8.365418530E-1,8.447804451E-1,1.334817052E0,2.407571077E-1
8.415375310E-1,7.893850207E-1,1.392343044E0,2.194511741E-1
8.466201870E-1,7.254672050E-1,1.424301982E0,2.098634988E-1
8.516066470E-1,6.636800170E-1,1.383820772E0,2.247776538E-1
8.567018550E-1,6.072192788E-1,1.271964550E0,2.354306281E-1
8.616804500E-1,5.156037211E-1,1.130280018E0,2.450182885E-1
8.667918560E-1,3.622009456E-1,9.619631171E-1,2.918913662E-1
8.717675340E-1,1.928187460E-1,7.616873384E-1,4.282493591E-1
8.768837840E-1,9.374613315E-2,5.646073818E-1,6.082845330E-1
8.818416500E-1,3.195890784E-2,4.175963998E-1,7.531649470E-1
8.869384200E-1,-3.089361079E-2,3.398297131E-1,8.586293459E-1
8.919181610E-1,-9.800732136E-2,3.185237944E-1,9.246777296E-1
8.970108690E-1,-1.502068639E-1,3.259808719E-1,9.651589990E-1
9.020118600E-1,-1.842963696E-1,3.536785841E-1,9.747467041E-1
9.070922250E-1,-2.045370042E-1,3.867027760E-1,9.545060396E-1
9.120999340E-1,-1.864269674E-1,3.707233369E-1,9.204165339E-1
9.171699340E-1,-1.257050335E-1,2.908260524E-1,8.884576559E-1
9.221683730E-1,-2.876301669E-2,1.672516167E-1,8.714128733E-1
9.272582160E-1,9.587672353E-2,2.556712553E-2,8.767393827E-1
9.322332700E-1,2.066676021E-1,-9.161553532E-2,9.023064971E-1
9.373491550E-1,3.014790416E-1,-1.864269674E-1,9.342654347E-1
9.423137390E-1,3.600703776E-1,-2.205164731E-1,9.608978629E-1
9.474095200E-1,3.707233369E-1,-1.779045910E-1,9.758120179E-1
9.523949380E-1,3.302420378E-1,-5.326484516E-2,9.619631171E-1
9.575113960E-1,2.620630562E-1,1.470109820E-1,9.289389253E-1
9.624683250E-1,1.629904360E-1,3.408950269E-1,8.533028364E-1
9.675647830E-1,3.408950195E-2,5.209302306E-1,7.361201644E-1
9.725452010E-1,-9.374613315E-2,6.753982306E-1,5.912398100E-1
9.776375440E-1,-1.842963696E-1,7.638179064E-1,4.357064366E-1
9.826347850E-1,-2.460835874E-1,8.213439584E-1,2.950872481E-1
9.877545240E-1,-3.068055212E-1,9.406571984E-1,2.077329010E-1
9.927153070E-1,-3.579397798E-1,1.082341671E0,1.651210189E-1
9.978267650E-1,-3.451561928E-1,1.050382733E0,1.470109820E-1
1.002796193E0,-2.364959270E-1,7.861891389E-1,2.034717202E-1
1.007890776E0,-1.129214764E-1,4.580776691E-1,3.100014031E-1
1.012860934E0,-4.261187743E-3,1.651210189E-1,3.898986876E-1
1.017956194E0,1.257050335E-1,-1.587292403E-1,3.984210491E-1
1.022950570E0,2.684548199E-1,-4.325105548E-1,4.080087245E-1
1.028037705E0,3.717886209E-1,-5.124078393E-1,4.175963998E-1
1.033031925E0,4.378370345E-1,-3.994863629E-1,4.165311158E-1
1.038112706E0,5.038854480E-1,-2.524753809E-1,4.080087245E-1
1.043096145E0,5.837827325E-1,-1.459456831E-1,3.845722079E-1
1.048191145E0,6.647452712E-1,-3.408950195E-2,3.696580231E-1
1.053175625E0,7.510343194E-1,5.433014408E-2,3.856374919E-1
1.058293802E0,8.447804451E-1,1.139867753E-1,4.357064366E-1
1.063253231E0,9.086982608E-1,1.672516167E-1,4.942977726E-1
1.068349949E0,9.438530803E-1,2.141246796E-1,5.379749537E-1
1.073348804E0,9.427877665E-1,2.673895359E-1,5.337137580E-1
1.078442346E0,9.044371247E-1,3.206543922E-1,4.815142155E-1
1.083418493E0,8.501069546E-1,3.355685472E-1,4.112046063E-1
1.088507607E0,7.989727259E-1,3.163931966E-1,3.451561928E-1
1.093510890E0,7.574261427E-1,2.886954844E-1,2.833689749E-1
1.098583702E0,7.233366370E-1,2.641936541E-1,2.333000302E-1
1.103567870E0,6.988347769E-1,2.492794842E-1,1.938840449E-1
1.108668755E0,6.743329763E-1,2.269082516E-1,1.619251370E-1
1.113656517E0,6.572881937E-1,1.917534471E-1,1.395539045E-1
1.118751308E0,6.391781569E-1,1.619251370E-1,1.182479635E-1
1.123720632E0,6.263945699E-1,1.352927089E-1,1.043990999E-1
1.128824226E0,6.072192788E-1,1.150520667E-1,8.948494494E-2
1.133796415E0,5.699338317E-1,9.268083423E-2,7.030959427E-2
1.138897768E0,5.209302306E-1,7.030959427E-2,5.752603337E-2
1.143875218E0,4.634041786E-1,6.498311460E-2,6.072192639E-2
1.148971467E0,4.026822448E-1,5.539543927E-2,6.072192639E-2
1.153972198E0,3.494173884E-1,3.408950195E-2,4.793836176E-2
1.159065531E0,3.153278828E-1,1.171826664E-2,4.580776766E-2
1.164049282E0,2.823036909E-1,1.065296959E-2,6.711370498E-2
1.169133396E0,2.514100671E-1,2.130593918E-2,9.374613315E-2
1.174129804E0,2.141246796E-1,3.195890784E-2,1.203785539E-1
1.179224960E0,1.800351888E-1,2.556712553E-2,1.427497864E-1
1.184192722E0,1.608598381E-1,-5.326484796E-3,1.459456831E-1
1.189289857E0,1.491415650E-1,-4.154657945E-2,1.470109820E-1
1.194275848E0,1.384886056E-1,-9.268083423E-2,1.459456831E-1
1.199380379E0,1.310315281E-1,-1.502068639E-1,1.416844875E-1
1.204354963E0,1.171826646E-1,-2.098634988E-1,1.278356314E-1
1.209489703E0,1.043990999E-1,-2.833689749E-1,1.139867753E-1
1.214429339E0,8.415845782E-2,-3.568744659E-1,1.075949892E-1
1.219533141E0,6.604841352E-2,-4.495553076E-1,9.481142461E-2
1.224522413E0,5.859133229E-2,-5.646073818E-1,7.776667923E-2
1.229605538E0,5.646073818E-2,-6.711370945E-1,6.178722158E-2
1.234597154E0,5.113425106E-2,-7.510343194E-1,4.474247247E-2
1.239684237E0,4.900366068E-2,-8.032338619E-1,2.876301669E-2
1.244663926E0,6.072192639E-2,-8.596946001E-1,1.917534508E-2
1.249758300E0,8.096256852E-2,-9.268083572E-1,4.261187743E-3
1.254749448E0,9.800732136E-2,-9.598325491E-1,-7.457078435E-3
1.259854343E0,1.246397421E-1,-9.747467041E-1,-5.326484796E-3
1.264823355E0,1.491415650E-1,-9.715508223E-1,-4.261187743E-3
1.269942886E0,1.523374617E-1,-9.470489621E-1,0.000000000E0
1.274903929E0,1.331621110E-1,-9.129594564E-1,-2.130593872E-3
1.280000074E0,1.097255871E-1,-8.735435009E-1,-1.704475097E-2
1.284976898E0,9.800732136E-2,-8.533028364E-1,-3.728539124E-2
1.290088825E0,9.800732136E-2,-8.426498771E-1,-4.580776766E-2
1.295058618E0,9.481142461E-2,-8.288010359E-1,-3.835069016E-2
1.300154816E0,8.735434711E-2,-7.968420982E-1,-2.130593918E-2
1.305157161E0,7.563608140E-2,-7.520996332E-1,4.261187743E-3
1.310233567E0,6.072192639E-2,-7.052266002E-1,2.663242258E-2
1.315230495E0,5.113425106E-2,-6.540923119E-1,4.687306657E-2
1.320316641E0,6.178722158E-2,-5.837827325E-1,6.817900389E-2
1.325296798E0,9.268083423E-2,-4.825794995E-1,1.086602882E-1
1.330389819E0,1.225091442E-1,-3.440909088E-1,2.066676021E-1
1.335371903E0,1.470109820E-1,-1.906881481E-1,3.771151006E-1
1.340562059E0,1.789698899E-1,-4.154657945E-2,5.837827325E-1
1.345451592E0,2.183858752E-1,8.735434711E-2,7.904503345E-1
1.350557425E0,2.514100671E-1,2.194511741E-1,1.034403324E0
1.355582114E0,2.886954844E-1,3.696580231E-1,1.258115649E0
1.360629926E0,3.227849603E-1,5.358443856E-1,1.399800181E0
1.365620292E0,3.174584806E-1,6.860512495E-1,1.457326174E0
1.370722323E0,2.450182885E-1,7.989727259E-1,1.459456801E0
1.375699876E0,1.629904360E-1,8.266704082E-1,1.377428889E0
1.380784928E0,9.374613315E-2,7.009654045E-1,1.210177302E0
1.385767117E0,-2.024064213E-2,5.230607986E-1,1.053578615E0
1.391044669E0,-1.459456831E-1,2.759118974E-1,8.980453014E-1
1.396174462E0,-2.471488863E-1,-5.433014408E-2,7.073571682E-1
1.401237274E0,-3.121320009E-1,-3.930945694E-1,4.495553076E-1
1.406277119E0,-3.270461559E-1,-6.349169612E-1,1.672516167E-1
1.411330452E0,-3.526133001E-1,-7.094877362E-1,-2.663242258E-2
1.416260401E0,-3.771151006E-1,-7.084224820E-1,-7.244019210E-2
1.421455140E0,-3.941598535E-1,-6.519617438E-1,-2.663242258E-2
1.426519517E0,-4.431635141E-1,-5.401055217E-1,2.130593918E-2
1.431423423E0,-5.017548800E-1,-4.250534773E-1,4.900366068E-2
1.436418632E0,-5.496932268E-1,-2.663242221E-1,6.711370498E-2
1.441539622E0,-5.944356918E-1,-1.129214764E-1,1.811004803E-2
1.446507019E0,-6.317210793E-1,5.006895587E-2,-2.130593918E-2
1.451619310E0,-6.306557655E-1,1.800351888E-1,-5.113425106E-2
1.456679207E0,-5.837827325E-1,2.673895359E-1,-1.171826646E-1
1.461801811E0,-5.145384073E-1,3.163931966E-1,-1.917534471E-1
1.466642594E0,-4.367717505E-1,3.185237944E-1,-2.695201337E-1
1.471783218E0,-3.632662594E-1,2.748466134E-1,-3.163931966E-1
1.476847647E0,-3.121320009E-1,1.747086942E-1,-3.302420378E-1
1.481840876E0,-3.036096394E-1,4.367717355E-2,-3.153278828E-1
1.486584783E0,-3.121320009E-1,-1.086602882E-1,-2.833689749E-1
1.491679418E0,-3.163931966E-1,-2.439530045E-1,-2.343653291E-1
1.496922909E0,-3.174584806E-1,-3.291767538E-1,-1.683169156E-1
1.502056242E0,-3.036096394E-1,-3.430256248E-1,-7.989726961E-2
1.507080358E0,-2.854995728E-1,-3.163931966E-1,2.024064213E-2
1.512059056E0,-2.759118974E-1,-3.046749234E-1,8.415845782E-2
1.517043849E0,-2.588671446E-1,-2.641936541E-1,1.193132550E-1
1.522225046E0,-2.279735506E-1,-1.139867753E-1,1.917534471E-1
1.527308068E0,-1.960146427E-1,1.171826646E-1,2.929566503E-1
1.532257287E0,-1.768392920E-1,2.652589381E-1,2.982831299E-1
1.537242288E0,-1.800351888E-1,3.867027760E-1,2.631283402E-1
1.542369059E0,-1.747086942E-1,4.974936545E-1,2.354306281E-1
1.547289529E0,-1.555333585E-1,5.955010056E-1,1.715128124E-1
1.552410987E0,-1.054643989E-1,6.306557655E-1,4.687306657E-2
1.557365988E0,-3.835069016E-2,6.072192788E-1,-7.776667923E-2
1.562447029E0,2.876301669E-2,5.379749537E-1,-1.193132550E-1
1.567440833E0,9.587672353E-2,4.591429830E-1,-6.498311460E-2
1.572673645E0,1.544680595E-1,3.984210491E-1,-2.556712553E-2
1.577549323E0,2.024064213E-1,3.590050638E-1,-5.965662748E-2
1.582643750E0,2.364959270E-1,3.163931966E-1,-1.448803842E-1
1.587689481E0,2.258429527E-1,3.131972849E-1,-2.237123549E-1
1.592692137E0,1.928187460E-1,3.100014031E-1,-2.791078091E-1
1.597691044E0,1.661863178E-1,2.833689749E-1,-2.695201337E-1
1.602900158E0,1.320968270E-1,1.768392920E-1,-2.087981999E-1
1.607875048E0,1.033338010E-1,0.000000000E0,-1.299662292E-1
1.612910628E0,9.268083423E-2,-1.565986425E-1,-8.522375673E-2
1.617850994E0,1.267703325E-1,-3.195890784E-1,-7.030959427E-2
1.622954744E0,1.608598381E-1,-4.793836176E-1,-7.350549102E-2
1.627969328E0,1.395539045E-1,-5.805868506E-1,-9.694202244E-2
1.633119328E0,9.055023640E-2,-6.583535075E-1,-1.512721628E-1
1.638070892E0,5.646073818E-2,-7.744708657E-1,-2.354306281E-1
1.643157715E0,4.900366068E-2,-8.916535378E-1,-3.227849603E-1
1.648174174E0,-4.261187743E-3,-9.118942022E-1,-4.026822448E-1
1.653181205E0,-1.129214764E-1,-8.937841058E-1,-4.783183336E-1
1.658190686E0,-2.215817571E-1,-9.182859659E-1,-5.454320312E-1
1.663283967E0,-1.629904360E-1,-1.141998291E0,-5.582156181E-1
1.668297926E0,5.859133229E-2,-1.496742249E0,-5.305178761E-1
1.673352718E0,2.673895359E-1,-1.691691518E0,-5.443667173E-1
1.678383761E0,3.952251673E-1,-1.672516227E0,-6.104151607E-1
1.683415219E0,4.612735808E-1,-1.502068639E0,-6.690064669E-1
1.688212824E0,5.433014631E-1,-1.324164033E0,-7.435772419E-1
1.693504855E0,6.200028062E-1,-1.242136240E0,-9.097635746E-1
1.698600585E0,6.881818175E-1,-1.113235354E0,-1.049317479E0
1.703838658E0,7.584913969E-1,-9.076330066E-1,-1.111104727E0
1.708627409E0,8.138868809E-1,-7.648832202E-1,-1.136671782E0
1.713662357E0,8.341274858E-1,-7.403813601E-1,-1.135606527E0
1.718695952E0,8.309316039E-1,-8.042991757E-1,-1.112169981E0
1.723837931E0,8.074950576E-1,-9.172206521E-1,-1.096190572E0
1.728786578E0,7.329242826E-1,-1.007770896E0,-1.037599206E0
1.733810432E0,6.349169612E-1,-1.113235354E0,-9.342654347E-1
1.738842360E0,5.315831900E-1,-1.222960830E0,-8.511722684E-1
1.743897360E0,4.431635141E-1,-1.334817052E0,-7.915156484E-1
1.748893715E0,3.803110123E-1,-1.449869156E0,-7.680791020E-1
1.753978559E0,3.398297131E-1,-1.557464123E0,-7.936462164E-1
1.758698144E0,3.238502741E-1,-1.627773762E0,-8.394539952E-1
1.764156060E0,3.323726356E-1,-1.665059090E0,-8.778046966E-1
1.769048145E0,3.419603109E-1,-1.668254972E0,-8.905882239E-1
1.774132675E0,3.472867906E-1,-1.653340816E0,-8.799352646E-1
1.779161739E0,3.643315434E-1,-1.587292433E0,-8.309316039E-1
1.784202624E0,4.005516469E-1,-1.455195665E0,-7.627525926E-1
1.789227469E0,4.389023483E-1,-1.273029804E0,-6.945735812E-1
1.794280073E0,4.602082670E-1,-1.075949907E0,-6.551576257E-1
1.799288616E0,4.644694626E-1,-9.246777296E-1,-6.540923119E-1
1.804460387E0,4.666000605E-1,-8.405193090E-1,-7.190754414E-1
1.809412315E0,4.729918540E-1,-7.989727259E-1,-8.149521351E-1
1.814554190E0,4.783183336E-1,-7.797973752E-1,-8.767393827E-1
1.819570025E0,4.729918540E-1,-7.797973752E-1,-8.937841058E-1
1.824639191E0,4.666000605E-1,-7.893850207E-1,-8.724781871E-1
1.829547786E0,4.974936545E-1,-7.936462164E-1,-7.989727259E-1
1.834673723E0,5.006895661E-1,-9.055023789E-1,-8.064298034E-1
1.839618985E0,4.175963998E-1,-1.048252225E0,-8.437151909E-1
1.844701068E0,3.238502741E-1,-1.100451708E0,-8.383886814E-1
1.849726382E0,2.364959270E-1,-1.139867663E0,-8.170827627E-1
1.854781486E0,1.789698899E-1,-1.133475900E0,-8.000379801E-1
1.859782008E0,1.619251370E-1,-1.034403324E0,-7.797973752E-1
1.864900549E0,1.725780964E-1,-8.927188516E-1,-7.744708657E-1
1.869859509E0,1.938840449E-1,-7.467731237E-1,-7.861891389E-1
1.874972321E0,2.098634988E-1,-6.253293157E-1,-8.170827627E-1
1.879998676E0,2.141246796E-1,-5.443667173E-1,-8.447804451E-1
1.885065128E0,2.130593807E-1,-4.879060090E-1,-8.724781871E-1
1.890003834E0,2.087981999E-1,-4.538165033E-1,-9.086982608E-1
1.895205448E0,2.045370042E-1,-4.452941120E-1,-9.310694933E-1
1.900076022E0,2.141246796E-1,-4.101393223E-1,-9.374613166E-1
1.905142474E0,2.801730931E-1,-3.142625988E-1,-8.948494196E-1
1.910152794E0,3.313073516E-1,-3.749845326E-1,-9.140247703E-1
1.915367898E0,2.609977424E-1,-5.624767542E-1,-9.449183941E-1
1.920249930E0,1.651210189E-1,-6.327863932E-1,-9.470489621E-1
1.925327274E0,1.033338010E-1,-6.700717807E-1,-9.523754716E-1
1.930300817E0,7.030959427E-2,-6.764635444E-1,-9.619631171E-1
1.935367269E0,7.350549102E-2,-5.997622013E-1,-9.523754716E-1
1.940372680E0,1.118561774E-1,-5.017548800E-1,-9.310694933E-1
1.945535818E0,1.832310706E-1,-3.739192188E-1,-8.810005784E-1
1.950165871E0,2.716507316E-1,-3.217196763E-1,-8.373233676E-1
1.955283266E0,2.609977424E-1,-4.697959423E-1,-8.650211096E-1
1.960243320E0,1.789698899E-1,-5.592808723E-1,-9.161553383E-1
1.965348059E0,1.043990999E-1,-5.592808723E-1,-9.736813903E-1
1.970321550E0,3.941598535E-2,-5.454320312E-1,-1.029076815E0
1.975418529E0,-4.261187743E-3,-5.092119575E-1,-1.062101007E0
1.980403322E0,-2.769771963E-2,-4.815142155E-1,-1.074884653E0
1.985493374E0,-4.687306657E-2,-4.783183336E-1,-1.101517081E0
1.990485302E0,-7.883197069E-2,-4.293146729E-1,-1.119627118E0
1.995578010E0,-1.310315281E-1,-3.025443256E-1,-1.078080535E0
2.000549886E0,-1.779045910E-1,-2.343653291E-1,-1.064231634E0
2.005648167E0,-1.885575503E-1,-1.853616685E-1,-1.030142188E0
2.010705148E0,-1.054643989E-1,-1.970799267E-1,-9.459837079E-1
2.015729106E0,-2.130593872E-3,-5.464973450E-1,-9.683549404E-1
2.020711190E0,9.694202244E-2,-9.129594564E-1,-1.117496490E0
2.025818378E0,1.811004728E-1,-1.042925715E0,-1.205916166E0
2.030796296E0,2.013411224E-1,-9.619631171E-1,-1.172891974E0
2.035880462E0,1.800351888E-1,-8.096256852E-1,-1.124953508E0
2.040862703E0,1.725780964E-1,-6.999000907E-1,-1.092994690E0
2.045963380E0,2.151899785E-1,-6.253293157E-1,-1.066362262E0
2.050944058E0,2.162552774E-1,-6.775288582E-1,-1.088733435E0
2.056038381E0,1.640557349E-1,-6.722023487E-1,-1.141998291E0
2.061039684E0,1.235744432E-1,-6.157416105E-1,-1.166500092E0
2.066132913E0,9.055023640E-2,-5.379749537E-1,-1.188871384E0
2.071101248E0,5.752603337E-2,-4.591429830E-1,-1.196328402E0
2.076211299E0,1.704475097E-2,-4.005516469E-1,-1.187806129E0
2.081220884E0,-1.065296959E-2,-2.897607684E-1,-1.104712963E0
2.086425780E0,2.663242258E-2,-4.005516469E-1,-1.208046675E0
2.091264583E0,1.842963696E-1,-5.741950274E-1,-1.516982794E0
2.096398749E0,3.408950269E-1,-6.988347769E-1,-1.787568212E0
2.101341251E0,3.952251673E-1,-9.236124158E-1,-1.887706161E0
2.106449271E0,2.482141852E-1,-1.040795088E0,-1.569182396E0
2.111427814E0,-2.087981999E-1,-9.459837079E-1,-6.050886512E-1
2.116519741E0,-4.932324886E-1,-4.463594258E-1,-6.391781382E-3
2.121497815E0,-3.994863629E-1,5.539543927E-2,-1.715128124E-1
2.126600263E0,-1.619251370E-1,2.151899785E-1,-4.080087245E-1
2.131574066E0,-4.580776766E-2,2.002758235E-1,-4.655347466E-1
2.136668962E0,-2.024064213E-2,1.278356314E-1,-5.337137580E-1
2.141674067E0,-1.811004803E-2,4.154657945E-2,-5.933703780E-1
2.146750004E0,-3.302420676E-2,-2.663242258E-2,-6.210681200E-1
2.151785936E0,-6.285251677E-2,-1.384885982E-2,-5.933703780E-1
2.157249849E0,-6.604841352E-2,8.522375673E-2,-5.433014631E-1
2.162103340E0,-3.622009605E-2,2.226470560E-1,-5.102772117E-1
2.167135579E0,-1.917534508E-2,3.696580231E-1,-4.793836176E-1
2.172166466E0,-3.835069016E-2,4.687306583E-1,-4.399676323E-1
2.177247559E0,-7.883197069E-2,5.081466436E-1,-4.026822448E-1
2.182213915E0,-1.150520667E-1,5.219954848E-1,-3.685927391E-1
2.187312769E0,-1.534027606E-1,5.315831900E-1,-3.323726356E-1
2.192319020E0,-1.864269674E-1,5.166690350E-1,-3.153278828E-1
2.197410322E0,-2.524753809E-1,4.357064366E-1,-3.163931966E-1
2.202377406E0,-3.195890784E-1,3.568744659E-1,-3.025443256E-1
2.207540531E0,-3.526133001E-1,3.270461559E-1,-2.727160156E-1
2.212570949E0,-3.504827023E-1,3.749845326E-1,-2.311694324E-1
2.217586209E0,-3.206543922E-1,3.845722079E-1,-2.588671446E-1
2.222635117E0,-2.993484437E-1,3.643315434E-1,-2.791078091E-1
2.227708971E0,-2.791078091E-1,3.664621413E-1,-2.684548199E-1
2.232694389E0,-2.418224066E-1,3.547438681E-1,-2.471488863E-1
2.237788243E0,-1.981452256E-1,3.323726356E-1,-2.024064213E-1
2.242455640E0,-1.459456831E-1,2.886954844E-1,-1.502068639E-1
2.247814754E0,-1.139867753E-1,2.045370042E-1,-1.278356314E-1
2.252784287E0,-1.043990999E-1,1.981452256E-1,-1.012032107E-1
2.258044338E0,-1.043990999E-1,2.237123549E-1,-9.055023640E-2
2.262990538E0,-9.268083423E-2,2.386265099E-1,-8.628904819E-2
2.268004600E0,-7.137489319E-2,2.524753809E-1,-7.776667923E-2
2.272969028E0,-5.752603337E-2,2.652589381E-1,-5.965662748E-2
2.278059913E0,-4.687306657E-2,2.769772112E-1,-3.302420676E-2
2.283090435E0,-3.728539124E-2,2.961525619E-1,-3.195890691E-3
2.288167779E0,-3.941598535E-2,3.142625988E-1,3.195890784E-2
2.293163978E0,-4.687306657E-2,3.217196763E-1,3.835069016E-2
2.298253301E0,-5.326484516E-2,3.004137278E-1,2.663242258E-2
2.303201323E0,-7.030959427E-2,2.588671446E-1,2.663242258E-2
2.308284708E0,-8.096256852E-2,1.917534471E-1,1.597945392E-2
2.313268876E0,-8.415845782E-2,1.022685021E-1,-2.130593872E-3
2.318392782E0,-9.161553532E-2,2.237123623E-2,-3.728539124E-2
2.323076846E0,-9.268083423E-2,-3.302420676E-2,-8.309315890E-2
2.329219762E0,-7.457078248E-2,-5.646073818E-2,-1.225091442E-1
2.333605024E0,-4.580776766E-2,-5.539543927E-2,-1.565986425E-1
2.338672524E0,-1.491415687E-2,-2.450183034E-2,-1.917534471E-1
2.343521796E0,1.811004803E-2,9.587672539E-3,-2.173205763E-1
2.348655389E0,5.113425106E-2,2.024064213E-2,-2.301041335E-1
2.353705026E0,7.776667923E-2,3.515479714E-2,-2.226470560E-1
2.358745077E0,1.086602882E-1,5.539543927E-2,-2.119940966E-1
2.363671537E0,1.470109820E-1,5.646073818E-2,-2.226470560E-1
2.368829662E0,1.896228492E-1,3.835069016E-2,-2.343653291E-1
2.373762632E0,2.428877056E-1,5.326484796E-3,-2.364959270E-1
2.378836954E0,2.865648866E-1,-2.130593918E-2,-2.226470560E-1
2.383943622E0,3.131972849E-1,-2.450183034E-2,-2.141246796E-1
2.388916695E0,3.185237944E-1,-3.195890784E-2,-2.077329010E-1
2.393892061E0,3.078708053E-1,-3.515479714E-2,-2.066676021E-1
2.399086436E0,2.972178459E-1,-3.195890784E-2,-2.205164731E-1
2.404093624E0,2.769772112E-1,-1.811004803E-2,-2.290388346E-1
2.409165395E0,2.386265099E-1,-3.195890691E-3,-2.354306281E-1
2.414146282E0,2.024064213E-1,-2.130593872E-3,-2.546059787E-1
2.419163052E0,1.619251370E-1,-1.384885982E-2,-2.663242221E-1
2.424205918E0,1.214438528E-1,-2.876301669E-2,-2.769772112E-1
2.429245189E0,9.268083423E-2,-5.859133229E-2,-2.940219641E-1
2.434196075E0,7.883197069E-2,-1.012032107E-1,-3.046749234E-1
2.439161179E0,7.670138031E-2,-1.470109820E-1,-3.078708053E-1
2.444336597E0,9.481142461E-2,-1.725780964E-1,-3.089361191E-1
2.449376284E0,1.320968270E-1,-1.800351888E-1,-3.238502741E-1
2.454355765E0,1.832310706E-1,-2.087981999E-1,-3.398297131E-1
2.459556494E0,2.407571077E-1,-2.077329010E-1,-3.558091819E-1
2.464447745E0,2.961525619E-1,-1.619251370E-1,-3.728539348E-1
2.469532745E0,3.366338313E-1,-1.203785539E-1,-3.909639716E-1
2.474547069E0,3.600703776E-1,-9.161553532E-2,-4.122699201E-1
2.479680715E0,3.696580231E-1,-8.735434711E-2,-4.271840751E-1
2.484631185E0,3.504827023E-1,-9.907261282E-2,-4.399676323E-1
2.489701653E0,3.153278828E-1,-9.374613315E-2,-4.516859055E-1
2.494709988E0,2.737812996E-1,-8.522375673E-2,-4.719265401E-1
2.499819102E0,2.226470560E-1,-9.587672353E-2,-4.942977726E-1
2.504821082E0,1.725780964E-1,-1.193132550E-1,-4.996242523E-1
2.509848061E0,1.427497864E-1,-1.406191885E-1,-5.060160160E-1
2.514847073E0,1.416844875E-1,-1.512721628E-1,-5.230607986E-1
2.519939469E0,1.619251370E-1,-1.523374617E-1,-5.422361493E-1
2.524945720E0,1.864269674E-1,-1.576639414E-1,-5.326484442E-1
2.530001657E0,2.269082516E-1,-1.544680595E-1,-5.028201342E-1
2.534980669E0,2.759118974E-1,-1.182479635E-1,-4.836448133E-1
2.540198950E0,3.195890784E-1,-5.752603337E-2,-4.623388648E-1
2.545102805E0,3.440909088E-1,9.587672539E-3,-4.452941120E-1
2.550230930E0,3.515479863E-1,6.924430281E-2,-4.239881933E-1
2.555225410E0,3.366338313E-1,1.086602882E-1,-3.888333738E-1
2.560303014E0,3.014790416E-1,1.470109820E-1,-3.440909088E-1
2.565227755E0,2.546059787E-1,1.842963696E-1,-2.940219641E-1
2.570343067E0,1.949493438E-1,2.034717202E-1,-2.599324584E-1
2.575313954E0,1.374233067E-1,2.024064213E-1,-2.258429527E-1
2.580574058E0,9.800732136E-2,1.725780964E-1,-1.715128124E-1
2.585527549E0,8.096256852E-2,1.352927089E-1,-1.257050335E-1
2.590533434E0,8.309315890E-2,9.907261282E-2,-9.481142461E-2
2.595461248E0,1.043990999E-1,5.859133229E-2,-8.096256852E-2
2.600556820E0,1.459456831E-1,-1.065296959E-2,-6.285251677E-2
2.605614322E0,2.077329010E-1,-9.481142461E-2,-6.285251677E-2
2.610668540E0,2.769772112E-1,-1.757739931E-1,-8.415845782E-2
2.615637708E0,3.451561928E-1,-2.215817571E-1,-1.193132550E-1
2.620767447E0,4.133352041E-1,-2.546059787E-1,-1.480762810E-1
2.625708438E0,4.676653445E-1,-2.524753809E-1,-1.608598381E-1
2.630787917E0,4.847100973E-1,-2.034717202E-1,-1.704475135E-1
2.635779793E0,4.751224220E-1,-1.352927089E-1,-1.747086942E-1
2.640895574E0,4.335758388E-1,-6.604841352E-2,-1.597945392E-1
2.645995472E0,3.515479863E-1,2.130593918E-2,-1.555333585E-1
2.650991357E0,2.556712627E-1,9.055023640E-2,-1.523374617E-1
2.655926045E0,1.683169156E-1,1.193132550E-1,-1.342274100E-1
2.661223128E0,8.841964602E-2,1.075949892E-1,-1.139867753E-1
2.666212661E0,1.811004803E-2,7.137489319E-2,-9.055023640E-2
2.671163494E0,-4.580776766E-2,2.769771963E-2,-6.498311460E-2
2.676094537E0,-9.161553532E-2,-3.835069016E-2,-4.793836176E-2
2.681321203E0,-1.150520667E-1,-1.012032107E-1,-3.728539124E-2
2.686199330E0,-1.214438528E-1,-1.416844875E-1,-3.728539124E-2
2.691312142E0,-1.129214764E-1,-1.534027606E-1,-5.219954997E-2
2.696256518E0,-9.374613315E-2,-1.448803842E-1,-6.817900389E-2
2.701356205E0,-8.628904819E-2,-1.299662292E-1,-7.030959427E-2
2.706392561E0,-8.735434711E-2,-1.075949892E-1,-6.391781569E-2
2.711493082E0,-1.075949892E-1,-8.522375673E-2,-6.178722158E-2
2.716574906E0,-1.267703325E-1,-6.072192639E-2,-6.072192639E-2
2.721564020E0,-1.502068639E-1,-2.130593918E-2,-1.384885982E-2
2.726500480E0,-1.800351888E-1,1.065296959E-2,1.384885982E-2
2.731639594E0,-2.109287977E-1,2.769771963E-2,2.556712553E-2
2.736579803E0,-2.333000302E-1,2.237123623E-2,2.769771963E-2
2.741704230E0,-2.492794842E-1,3.195890691E-3,1.811004803E-2
2.746835638E0,-2.609977424E-1,-3.835069016E-2,-1.171826664E-2
2.751771263E0,-2.801730931E-1,-1.118561774E-1,-6.817900389E-2
2.756739649E0,-2.812383771E-1,-1.629904360E-1,-9.800732136E-2
2.761856107E0,-2.705854177E-1,-2.077329010E-1,-1.438150853E-1
2.766815171E0,-2.588671446E-1,-2.482141852E-1,-1.949493438E-1
2.771949389E0,-2.546059787E-1,-2.631283402E-1,-2.364959270E-1
2.776971682E0,-2.620630562E-1,-2.641936541E-1,-2.641936541E-1
2.782065693E0,-2.716507316E-1,-2.439530045E-1,-2.780424953E-1
2.786949027E0,-2.759118974E-1,-2.066676021E-1,-2.801730931E-1
2.792070225E0,-2.716507316E-1,-1.693822145E-1,-2.727160156E-1
2.797060174E0,-2.620630562E-1,-1.374233067E-1,-2.514100671E-1
2.802281528E0,-2.428877056E-1,-1.107908785E-1,-2.109287977E-1
2.807143717E0,-2.130593807E-1,-9.481142461E-2,-1.597945392E-1
2.812266789E0,-1.811004728E-1,-8.948494494E-2,-1.139867753E-1
2.817239134E0,-1.576639414E-1,-9.481142461E-2,-9.694202244E-2
2.822282207E0,-1.118561774E-1,-9.587672353E-2,-7.563608140E-2
2.827365542E0,-5.433014408E-2,-1.129214764E-1,-4.687306657E-2
2.832405177E0,2.130593872E-3,-1.619251370E-1,-2.982831374E-2
2.837336011E0,5.965662748E-2,-2.002758235E-1,-7.457078435E-3
2.842472730E0,1.193132550E-1,-2.162552774E-1,1.597945392E-2
2.847525127E0,1.768392920E-1,-2.045370042E-1,2.343653329E-2
2.852607054E0,2.162552774E-1,-1.949493438E-1,3.302420676E-2
2.857560284E0,2.343653291E-1,-1.928187460E-1,4.793836176E-2
2.862715596E0,2.524753809E-1,-1.693822145E-1,4.900366068E-2
2.867615494E0,2.684548199E-1,-1.406191885E-1,3.515479714E-2
2.872673254E0,2.759118974E-1,-1.086602882E-1,1.065296959E-2
2.877865495E0,2.737812996E-1,-7.137489319E-2,1.278356276E-2
2.882810182E0,2.631283402E-1,-2.024064213E-2,3.622009605E-2
2.887746589E0,2.460835874E-1,3.195890784E-2,5.219954997E-2
2.892888933E0,2.258429527E-1,6.498311460E-2,5.006895587E-2
2.897876017E0,2.311694324E-1,8.628904819E-2,2.769771963E-2
2.902908778E0,2.450182885E-1,8.309315890E-2,-1.704475097E-2
2.907957425E0,2.684548199E-1,7.137489319E-2,-4.900366068E-2
2.913055133E0,2.844342887E-1,4.367717355E-2,-5.965662748E-2
2.918200238E0,2.876301706E-1,6.391781382E-3,-7.563608140E-2
2.923129873E0,2.929566503E-1,-1.811004803E-2,-9.481142461E-2
2.928078104E0,2.823036909E-1,-5.219954997E-2,-1.075949892E-1
2.933167478E0,2.578018606E-1,-6.817900389E-2,-1.214438528E-1
2.938178313E0,2.396918088E-1,-6.817900389E-2,-1.352927089E-1
2.943377375E0,2.151899785E-1,-5.752603337E-2,-1.480762810E-1
2.948258679E0,1.842963696E-1,-4.900366068E-2,-1.555333585E-1
2.953320085E0,1.427497864E-1,-3.622009605E-2,-1.597945392E-1
2.958317169E0,1.075949892E-1,-2.024064213E-2,-1.715128124E-1
2.963399929E0,8.415845782E-2,-1.171826664E-2,-1.853616685E-1
2.968437118E0,6.178722158E-2,-2.237123623E-2,-2.002758235E-1
2.973459774E0,4.474247247E-2,-2.556712553E-2,-2.130593807E-1
2.978486494E0,5.646073818E-2,-3.302420676E-2,-2.471488863E-1
2.983547640E0,8.948494494E-2,-5.113425106E-2,-2.823036909E-1
2.988521964E0,1.225091442E-1,-8.415845782E-2,-2.929566503E-1
2.993631703E0,1.629904360E-1,-1.012032107E-1,-3.121320009E-1
2.998602382E0,2.141246796E-1,-9.374613315E-2,-3.163931966E-1
3.003693006E0,2.599324584E-1,-6.924430281E-2,-3.142625988E-1
3.008704049E0,3.046749234E-1,-2.343653329E-2,-3.004137278E-1
3.013785820E0,3.387644291E-1,2.024064213E-2,-2.844342887E-1
3.018764623E0,3.558091819E-1,6.817900389E-2,-2.673895359E-1
3.023862227E0,3.558091819E-1,1.267703325E-1,-2.503447831E-1
3.029009051E0,3.451561928E-1,2.013411224E-1,-2.535406649E-1
3.033931134E0,3.163931966E-1,2.620630562E-1,-2.695201337E-1
3.038968896E0,2.748466134E-1,3.025443256E-1,-3.014790416E-1
3.044035302E0,2.311694324E-1,2.652589381E-1,-3.206543922E-1
3.049033272E0,1.779045910E-1,1.672516167E-1,-3.270461559E-1
3.054157647E0,1.523374617E-1,1.054643989E-1,-3.707233369E-1
3.059095513E0,1.683169156E-1,9.587672353E-2,-4.623388648E-1
3.064301346E0,2.056023031E-1,5.752603337E-2,-5.113425255E-1
3.069171451E0,2.301041335E-1,8.522375487E-3,-5.230607986E-1
3.074284368E0,2.599324584E-1,2.663242258E-2,-5.326484442E-1
3.079298483E0,2.961525619E-1,1.054643989E-1,-5.347790718E-1
3.084507702E0,3.270461559E-1,2.279735506E-1,-5.166690350E-1
3.089338693E0,3.376991153E-1,3.281114697E-1,-4.506205916E-1
3.094436453E0,3.004137278E-1,3.526133001E-1,-3.792456985E-1
3.099394735E0,2.578018606E-1,4.037475288E-1,-3.419603109E-1
3.104477339E0,2.301041335E-1,5.230607986E-1,-3.419603109E-1
3.109532914E0,2.290388346E-1,6.604840755E-1,-3.749845326E-1
3.114588747E0,1.896228492E-1,7.052266002E-1,-3.888333738E-1
3.119773800E0,1.289009303E-1,7.190754414E-1,-4.207922816E-1
3.124664685E0,1.065296903E-1,7.052266002E-1,-5.006895661E-1
3.129654999E0,1.107908785E-1,6.455699205E-1,-5.933703780E-1
3.134815936E0,1.619251370E-1,6.231986880E-1,-7.307937145E-1
3.139723802E0,2.375612110E-1,5.816521049E-1,-8.469110727E-1
3.144801145E0,3.078708053E-1,5.475625992E-1,-9.427877665E-1
3.149794688E0,3.920292854E-1,5.635420680E-1,-1.023750305E0
3.154935521E0,4.186616838E-1,5.038854480E-1,-1.099386454E0
3.159896252E0,5.060160160E-1,5.528891087E-1,-1.236809731E0
3.165003699E0,6.530269980E-1,6.370475888E-1,-1.344404697E0
3.169940680E0,8.064298034E-1,6.913776994E-1,-1.428563237E0
3.175093440E0,9.917914271E-1,7.361201644E-1,-1.518048167E0
3.180062348E0,1.159043074E0,7.915156484E-1,-1.547876477E0
3.185125993E0,1.308184624E0,9.332001209E-1,-1.571313024E0
3.190157088E0,1.440281510E0,1.120692372E0,-1.642687917E0
3.195203234E0,1.504199266E0,1.350796461E0,-1.685299754E0
3.200174537E0,1.444542646E0,1.467979193E0,-1.648014307E0
3.205271203E0,1.130280018E0,1.159043074E0,-1.518048167E0
3.210271153E0,6.562229395E-1,5.752603412E-1,-1.426432610E0
3.215398704E0,3.898986876E-1,2.737812996E-1,-1.352927089E0
3.220354227E0,3.291767538E-1,1.629904360E-1,-1.296466351E0
3.225443549E0,3.451561928E-1,1.054643989E-1,-1.274095178E0
3.230422978E0,3.632662594E-1,1.075949892E-1,-1.253854513E0
3.235515165E0,3.600703776E-1,1.587292403E-1,-1.244266868E0
3.240510062E0,3.195890784E-1,1.608598381E-1,-1.217634439E0
3.245726468E0,2.258429527E-1,9.907261282E-2,-1.164369583E0
3.250594021E0,2.024064213E-1,1.480762810E-1,-1.140933037E0
3.255701834E0,2.226470560E-1,1.800351888E-1,-1.163304210E0
3.260718814E0,1.970799267E-1,1.438150853E-1,-1.156912446E0
3.265865585E0,1.853616685E-1,2.599324584E-1,-1.136671782E0
3.270733971E0,1.864269674E-1,3.366338313E-1,-1.103647590E0
3.275835950E0,1.534027606E-1,3.771151006E-1,-1.051448107E0
3.280907462E0,1.534027606E-1,5.049507618E-1,-1.028011560E0
3.285903868E0,1.470109820E-1,5.209302306E-1,-1.028011560E0
3.290923713E0,1.491415650E-1,4.676653445E-1,-9.907261729E-1
3.295755275E0,1.363580078E-1,3.941598535E-1,-9.406571984E-1
3.301010485E0,1.118561774E-1,2.759118974E-1,-9.502448440E-1
3.306082047E0,1.342274100E-1,2.396918088E-1,-9.182859659E-1
3.311043402E0,1.416844875E-1,2.087981999E-1,-9.076330066E-1
3.316149756E0,1.608598381E-1,1.502068639E-1,-9.086982608E-1
3.321134080E0,1.832310706E-1,1.246397421E-1,-8.181480169E-1
3.326213820E0,1.374233067E-1,6.072192639E-2,-7.723402977E-1
3.331321061E0,1.139867753E-1,-9.587672539E-3,-7.510343194E-1
3.337457571E0,9.694202244E-2,-3.302420676E-2,-6.466352344E-1
3.341327312E0,1.811004803E-2,-5.752603337E-2,-5.923051238E-1
3.346180118E0,-4.474247247E-2,-1.214438528E-1,-6.082845330E-1
3.351380125E0,-3.408950195E-2,-7.137489319E-2,-5.358443856E-1
3.356531375E0,-6.391781569E-2,1.384885982E-2,-4.335758388E-1
3.361477574E0,-1.523374617E-1,-2.130593918E-2,-4.261187613E-1
3.366642626E0,-1.683169156E-1,-4.261187743E-3,-3.962904513E-1
3.371602575E0,-1.459456831E-1,1.267703325E-1,-2.791078091E-1
3.376618564E0,-1.768392920E-1,1.480762810E-1,-2.045370042E-1
3.381725336E0,-2.066676021E-1,1.459456831E-1,-1.874922663E-1
3.386814503E0,-1.608598381E-1,2.823036909E-1,-5.646073818E-2
3.391713671E0,-9.481142461E-2,4.484900236E-1,5.859133229E-2
3.396807733E0,-5.646073818E-2,4.857754111E-1,1.193132550E-1
3.401781432E0,-4.793836176E-2,4.921671748E-1,1.736433953E-1
3.406854505E0,-1.278356276E-2,5.582156181E-1,2.705854177E-1
3.411853881E0,1.597945392E-2,6.008274555E-1,3.771151006E-1
3.416919558E0,1.278356276E-2,5.997622013E-1,4.495553076E-1
3.421916070E0,2.343653329E-2,5.624767542E-1,5.156037211E-1
3.427047580E0,6.604841352E-2,5.550196767E-1,5.773909688E-1
3.432017685E0,5.433014408E-2,4.623388648E-1,6.530269980E-1
3.437107112E0,4.261187743E-3,3.920292854E-1,7.435772419E-1
3.442110238E0,-1.917534508E-2,3.600703776E-1,8.671516776E-1
3.447244821E0,-2.663242258E-2,3.185237944E-1,1.009901524E0
3.452213000E0,-4.154657945E-2,2.833689749E-1,1.161173701E0
3.457253781E0,-5.752603337E-2,2.386265099E-1,1.301792860E0
3.462325292E0,-9.161553532E-2,1.395539045E-1,1.388081908E0
3.467377532E0,-1.139867753E-1,-7.350549102E-2,1.309249878E0
3.472313366E0,-7.457078248E-2,-4.218575954E-1,9.534407854E-1
3.477432220E0,3.941598535E-2,-6.242640018E-1,4.474247098E-1
3.482531284E0,1.629904360E-1,-6.817900538E-1,-8.948494494E-2
3.487602482E0,2.439530045E-1,-6.594188213E-1,-5.582156181E-1
3.492480764E0,2.588671446E-1,-6.210681200E-1,-7.872544527E-1
3.497562066E0,1.896228492E-1,-5.635420680E-1,-8.288010359E-1
3.502561599E0,6.285251677E-2,-5.358443856E-1,-8.362581134E-1
3.507660661E0,-5.965662748E-2,-5.347790718E-1,-8.479763865E-1
3.512690350E0,-1.352927089E-1,-5.305178761E-1,-8.554334641E-1
3.517718318E0,-1.587292403E-1,-5.315831900E-1,-8.469110727E-1
3.522694517E0,-1.565986425E-1,-5.262566805E-1,-8.021686077E-1
3.527836861E0,-1.320968270E-1,-4.836448133E-1,-7.169448137E-1
3.532924414E0,-1.012032107E-1,-4.410329461E-1,-6.168069243E-1
3.537861757E0,-9.055023640E-2,-4.293146729E-1,-5.017548800E-1
3.542752905E0,-9.268083423E-2,-4.399676323E-1,-3.728539348E-1
3.548004623E0,-1.075949892E-1,-4.527511895E-1,-2.450182885E-1
3.552945301E0,-1.246397421E-1,-4.580776691E-1,-1.363580078E-1
3.558088687E0,-1.320968270E-1,-4.420982301E-1,-6.924430281E-2
3.563029521E0,-1.267703325E-1,-4.016169310E-1,-5.006895587E-2
3.568118010E0,-1.171826646E-1,-3.771151006E-1,-4.687306657E-2
3.573229001E0,-1.107908785E-1,-3.707233369E-1,-4.261187837E-2
3.578402803E0,-1.043990999E-1,-3.611356616E-1,-3.408950195E-2
3.583165096E0,-1.001379117E-1,-3.611356616E-1,-2.556712553E-2
3.588248117E0,-9.481142461E-2,-3.707233369E-1,-2.556712553E-2
3.593254680E0,-8.735434711E-2,-3.728539348E-1,-2.876301669E-2
3.598457076E0,-7.776667923E-2,-3.739192188E-1,-3.089361079E-2
3.603379734E0,-7.137489319E-2,-3.611356616E-1,-3.302420676E-2
3.608419108E0,-6.711370498E-2,-3.408950269E-1,-2.130593918E-2
3.613392339E0,-6.178722158E-2,-3.281114697E-1,-1.065296959E-2
3.618522390E0,-5.859133229E-2,-2.961525619E-1,-3.195890691E-3
3.623469423E0,-4.154657945E-2,-2.833689749E-1,4.261187743E-3
3.628580464E0,-3.302420676E-2,-3.121320009E-1,1.384885982E-2
3.633552393E0,-3.515479714E-2,-2.982831299E-1,1.917534508E-2
3.638750778E0,-2.982831374E-2,-2.844342887E-1,2.663242258E-2
3.643629165E0,-2.450183034E-2,-2.759118974E-1,3.408950195E-2
3.648733435E0,-1.491415687E-2,-2.609977424E-1,3.941598535E-2
3.653695936E0,-1.065296936E-3,-2.364959270E-1,4.793836176E-2
3.658818384E0,-3.195890691E-3,-2.364959270E-1,5.006895587E-2
3.663796510E0,-1.597945392E-2,-2.418224066E-1,5.326484516E-2
3.668863073E0,-2.024064213E-2,-2.311694324E-1,6.924430281E-2
3.673864845E0,-2.130593918E-2,-2.226470560E-1,7.244019210E-2
3.678969376E0,-2.024064213E-2,-2.237123549E-1,6.604841352E-2
3.683959169E0,-1.917534508E-2,-2.290388346E-1,6.285251677E-2
3.689084585E0,-1.597945392E-2,-2.322347313E-1,6.072192639E-2
3.694022555E0,-1.597945392E-2,-2.343653291E-1,6.391781569E-2
3.699281982E0,6.391781382E-3,-2.396918088E-1,7.670138031E-2
3.704088337E0,2.024064213E-1,-2.641936541E-1,5.539543927E-2
3.709434743E0,5.784562230E-1,-3.185237944E-1,-1.544680595E-1
3.714169849E0,7.520996332E-1,-3.494173884E-1,-3.291767538E-1
3.719379744E0,4.580776691E-1,-2.716507316E-1,-2.396918088E-1
3.724260631E0,9.694202244E-2,-1.853616685E-1,-1.683169156E-1
3.729359329E0,-1.012032107E-1,-1.715128124E-1,-2.056023031E-1
3.734329590E0,-2.258429527E-1,-1.821657717E-1,-2.269082516E-1
3.739495423E0,-3.057402074E-1,-1.832310706E-1,-2.247776538E-1
3.744419383E0,-3.462215066E-1,-2.024064213E-1,-2.237123549E-1
3.749543862E0,-3.579397798E-1,-2.546059787E-1,-2.173205763E-1
3.754484280E0,-3.408950269E-1,-3.504827023E-1,-2.056023031E-1
3.759600373E0,-3.046749234E-1,-4.559471011E-1,-2.056023031E-1
3.764577979E0,-2.578018606E-1,-4.825794995E-1,-1.874922663E-1
3.769758499E0,-2.151899785E-1,-4.602082670E-1,-1.225091442E-1
3.774667980E0,-1.906881481E-1,-4.293146729E-1,-5.859133229E-2
3.779759386E0,-1.960146427E-1,-4.197269976E-1,-3.195890784E-2
3.784795318E0,-2.247776538E-1,-4.367717505E-1,-3.941598535E-2
3.789846158E0,-2.652589381E-1,-4.666000605E-1,-7.030959427E-2
3.794931263E0,-3.078708053E-1,-4.879060090E-1,-1.203785539E-1
3.799991055E0,-3.355685472E-1,-4.985589683E-1,-1.768392920E-1
3.804910066E0,-3.419603109E-1,-4.921671748E-1,-2.183858752E-1
3.810004805E0,-3.185237944E-1,-4.719265401E-1,-2.343653291E-1
3.814997671E0,-2.631283402E-1,-4.463594258E-1,-2.450182885E-1
3.820083036E0,-1.970799267E-1,-4.357064366E-1,-2.482141852E-1
3.825067099E0,-1.374233067E-1,-4.559471011E-1,-2.375612110E-1
3.830237203E0,-7.670138031E-2,-5.049507618E-1,-2.237123549E-1
3.835135069E0,-3.515479714E-2,-5.763256550E-1,-2.045370042E-1
3.840222308E0,-2.130593918E-2,-6.210681200E-1,-2.024064213E-1
3.845269081E0,-1.065296959E-2,-6.434393525E-1,-2.258429527E-1
3.850314289E0,-3.195890691E-3,-6.679411530E-1,-2.556712627E-1
3.855307623E0,3.195890691E-3,-7.073571682E-1,-2.865648866E-1
3.860396060E0,2.343653329E-2,-6.956388950E-1,-3.174584806E-1
3.865390437E0,3.835069016E-2,-6.711370945E-1,-3.483521044E-1
3.870464291E0,4.474247247E-2,-6.583535075E-1,-3.600703776E-1
3.875550438E0,4.261187837E-2,-6.508964300E-1,-3.813762963E-1
3.880608927E0,2.237123623E-2,-6.402434707E-1,-4.016169310E-1
3.885525074E0,0.000000000E0,-5.880439281E-1,-3.984210491E-1
3.890624657E0,-3.728539124E-2,-5.092119575E-1,-3.558091819E-1
3.895651117E0,-2.876301669E-2,-5.219954848E-1,-3.089361191E-1
3.900747887E0,-4.900366068E-2,-5.976315737E-1,-2.737812996E-1
3.905709660E0,-1.289009303E-1,-6.285251975E-1,-2.290388346E-1
3.910914555E0,-5.326484516E-2,-6.551576257E-1,-1.651210189E-1
3.915761796E0,3.515479714E-2,-6.274598837E-1,-8.522375673E-2
3.920937160E0,7.244019210E-2,-5.923051238E-1,-3.089361079E-2
3.925871432E0,1.193132550E-1,-5.933703780E-1,-1.491415687E-2
3.930975442E0,1.139867753E-1,-5.443667173E-1,-9.694202244E-2
3.935895496E0,1.416844875E-1,-5.709991455E-1,-2.183858752E-1
3.941036381E0,1.129214764E-1,-3.941598535E-1,-5.273219943E-1
3.946032997E0,-6.711370498E-2,-3.302420676E-2,-8.234745264E-1
3.951121590E0,-1.470109820E-1,9.055023640E-2,-1.033338070E0
3.956169612E0,-1.384886056E-1,3.728539124E-2,-1.161173701E0
3.961215498E0,-8.948494494E-2,-6.924430281E-2,-1.220830321E0
3.966410395E0,-8.841964602E-2,-1.406191885E-1,-1.281552196E0
3.971306801E0,-1.384886056E-1,-1.203785539E-1,-1.347600579E0
3.975979250E0,-1.779045910E-1,-9.587672539E-3,-1.255985141E0
3.981375083E0,-1.502068639E-1,-3.089361079E-2,-1.059970498E0
3.986343209E0,-1.470109820E-1,-1.821657717E-1,-9.353306890E-1
3.991646594E0,-1.597945392E-1,-2.748466134E-1,-7.947115302E-1
3.996499401E0,-1.544680595E-1,-3.355685472E-1,-6.487658620E-1
4.001493627E0,-1.747086942E-1,-3.345032334E-1,-5.560849905E-1
4.006466805E0,-2.098634988E-1,-3.376991153E-1,-5.017548800E-1
4.011606857E0,-2.407571077E-1,-3.419603109E-1,-4.942977726E-1
4.016544775E0,-2.854995728E-1,-3.259808719E-1,-5.017548800E-1
4.021656962E0,-3.281114697E-1,-3.068055212E-1,-5.081466436E-1
4.026797692E0,-3.590050638E-1,-2.769772112E-1,-5.017548800E-1
4.031756703E0,-3.462215066E-1,-2.556712627E-1,-4.676653445E-1
4.036714516E0,-2.673895359E-1,-2.375612110E-1,-4.250534773E-1
4.041820141E0,-1.715128124E-1,-2.066676021E-1,-3.749845326E-1
4.046971913E0,-1.012032107E-1,-1.715128124E-1,-3.281114697E-1
4.051883267E0,-2.769771963E-2,-1.555333585E-1,-2.833689749E-1
4.056855456E0,5.006895587E-2,-1.906881481E-1,-2.375612110E-1
4.062017330E0,1.065296903E-1,-2.322347313E-1,-2.226470560E-1
4.066962019E0,1.161173657E-1,-2.844342887E-1,-1.864269674E-1
4.072041290E0,9.587672353E-2,-2.119940966E-1,3.195890784E-2
4.077077333E0,9.268083423E-2,7.457078435E-3,1.171826646E-1
4.082335405E0,1.427497864E-1,6.072192639E-2,1.874922663E-1
4.087159938E0,2.514100671E-1,-1.278356276E-2,3.068055212E-1
4.092228792E0,3.526133001E-1,-5.646073818E-2,4.218575954E-1
4.097193897E0,5.006895661E-1,-1.075949892E-1,5.603461862E-1
4.102255459E0,6.956388950E-1,-2.439530045E-1,7.489037514E-1
4.107245565E0,1.135606527E0,-5.891091824E-1,1.016293287E0
4.112344783E0,1.617120743E0,-9.129594564E-1,1.159043074E0
4.117347493E0,1.903685570E0,-1.231483221E0,1.238940358E0
4.122500774E0,1.944166899E0,-1.525505185E0,1.087668180E0
4.127450619E0,1.469044447E0,-1.254919767E0,7.105530500E-1
4.132508848E0,9.023064971E-1,-8.820658922E-1,2.950872481E-1
4.137482026E0,5.124078393E-1,-5.315831900E-1,3.195890691E-3
4.142569786E0,3.153278828E-1,-2.791078091E-1,-1.512721628E-1
4.147596402E0,2.482141852E-1,-1.832310706E-1,-1.928187460E-1
4.152740308E0,2.066676021E-1,-1.789698899E-1,-1.555333585E-1
4.157735101E0,1.342274100E-1,-1.789698899E-1,-7.563608140E-2
4.162915986E0,2.130593918E-2,-2.045370042E-1,2.343653329E-2
4.167723279E0,-8.309315890E-2,-1.736433953E-1,1.257050335E-1
4.172807029E0,-1.715128124E-1,-1.065296903E-1,2.087981999E-1
4.177814478E0,-2.524753809E-1,-5.646073818E-2,2.737812996E-1
4.182990363E0,-3.174584806E-1,-1.491415687E-2,3.195890784E-1
4.187886823E0,-3.515479863E-1,-2.237123623E-2,3.536785841E-1
4.193473698E0,-3.590050638E-1,-6.178722158E-2,3.675274551E-1
4.198066147E0,-3.504827023E-1,-1.043990999E-1,3.632662594E-1
4.203094220E0,-3.174584806E-1,-1.374233067E-1,3.355685472E-1
4.208021460E0,-2.663242221E-1,-1.949493438E-1,2.940219641E-1
4.213169168E0,-2.279735506E-1,-2.588671446E-1,2.322347313E-1
4.218111618E0,-1.853616685E-1,-3.110667169E-1,1.832310706E-1
4.223194065E0,-1.395539045E-1,-3.014790416E-1,1.246397421E-1
4.228205369E0,-1.012032107E-1,-2.897607684E-1,7.030959427E-2
4.233283077E0,-7.030959427E-2,-2.865648866E-1,2.663242258E-2
4.238363026E0,-4.154657945E-2,-2.759118974E-1,5.326484796E-3
4.243479328E0,-1.917534508E-2,-2.588671446E-1,-4.261187743E-3
4.248573339E0,-2.130593872E-3,-2.322347313E-1,-1.171826664E-2
4.253657089E0,3.195890691E-3,-2.130593807E-1,-2.450183034E-2
4.258467663E0,3.195890691E-3,-2.151899785E-1,-3.728539124E-2
4.263537351E0,2.130593872E-3,-2.002758235E-1,-4.687306657E-2
4.268515946E0,2.130593872E-3,-1.693822145E-1,-6.498311460E-2
4.273668810E0,-1.065296936E-3,-1.427497864E-1,-7.883197069E-2
4.278583759E0,-6.391781382E-3,-1.342274100E-1,-9.694202244E-2
4.283704332E0,-1.491415687E-2,-1.352927089E-1,-1.118561774E-1
4.288669125E0,-2.024064213E-2,-1.416844875E-1,-1.193132550E-1
4.293787406E0,-2.024064213E-2,-1.459456831E-1,-1.193132550E-1
4.298754438E0,-1.811004803E-2,-1.597945392E-1,-1.193132550E-1
4.303870532E0,-9.587672539E-3,-1.800351888E-1,-1.203785539E-1
4.308841314E0,1.171826664E-2,-2.013411224E-1,-1.246397421E-1
4.313967147E0,2.876301669E-2,-2.215817571E-1,-1.331621110E-1
4.318934961E0,4.048128426E-2,-2.439530045E-1,-1.448803842E-1
4.323988867E0,4.687306657E-2,-2.578018606E-1,-1.587292403E-1
4.329000066E0,4.367717355E-2,-2.609977424E-1,-1.693822145E-1
4.334100899E0,3.515479714E-2,-2.609977424E-1,-1.768392920E-1
4.338858661E0,2.024064213E-2,-2.567365468E-1,-1.853616685E-1
4.344156317E0,3.195890691E-3,-2.556712627E-1,-1.949493438E-1
4.349140745E0,-2.556712553E-2,-2.428877056E-1,-2.034717202E-1
4.354257204E0,-5.219954997E-2,-2.269082516E-1,-2.077329010E-1
4.359288871E0,-7.989726961E-2,-2.130593807E-1,-2.066676021E-1
4.364406423E0,-1.161173657E-1,-1.896228492E-1,-2.141246796E-1
4.369334602E0,-1.470109820E-1,-1.086602882E-1,-2.407571077E-1
4.374386841E0,-1.789698899E-1,7.563608140E-2,-2.578018606E-1
4.379457623E0,-2.322347313E-1,2.396918088E-1,-2.269082516E-1
4.384684446E0,-2.652589381E-1,3.387644291E-1,-1.981452256E-1
4.389510801E0,-2.865648866E-1,3.994863629E-1,-1.789698899E-1
4.394283145E0,-3.270461559E-1,4.644694626E-1,-1.811004728E-1
4.399633771E0,-3.664621413E-1,5.102772117E-1,-1.693822145E-1
4.404633667E0,-3.302420378E-1,4.197269976E-1,-7.030959427E-2
4.409669033E0,-2.215817571E-1,2.450182885E-1,1.065296936E-3
4.414795386E0,-7.030959427E-2,4.687306657E-2,-1.065296959E-2
4.419711742E0,8.948494494E-2,-1.363580078E-1,-7.989726961E-2
4.424782106E0,1.992105246E-1,-2.471488863E-1,-1.161173657E-1
4.429806430E0,2.269082516E-1,-2.759118974E-1,-1.065296903E-1
4.434861899E0,1.832310706E-1,-2.428877056E-1,-8.522375673E-2
4.439857890E0,1.107908785E-1,-1.896228492E-1,-6.817900389E-2
4.444695754E0,3.835069016E-2,-1.459456831E-1,-5.113425106E-2
4.449918412E0,-8.522375487E-3,-1.193132550E-1,-4.580776766E-2
4.455013359E0,-3.302420676E-2,-1.075949892E-1,-5.006895587E-2
4.460034663E0,-4.793836176E-2,-1.012032107E-1,-4.580776766E-2
4.465118985E0,-5.433014408E-2,-9.374613315E-2,-3.728539124E-2
4.470086226E0,-6.178722158E-2,-7.989726961E-2,-2.982831374E-2
4.475232320E0,-6.711370498E-2,-6.604841352E-2,-2.024064213E-2
4.480312581E0,-5.965662748E-2,-7.137489319E-2,-1.917534508E-2
4.485259977E0,-3.835069016E-2,-1.043990999E-1,-3.728539124E-2
4.491930030E0,-3.302420676E-2,-9.694202244E-2,-3.728539124E-2
4.495375135E0,-4.793836176E-2,-5.326484516E-2,-2.982831374E-2
4.500399145E0,-5.539543927E-2,-5.326484516E-2,-2.982831374E-2
4.505548313E0,-5.113425106E-2,-7.989726961E-2,-3.195890784E-2
4.510612063E0,-4.687306657E-2,-9.161553532E-2,-3.195890784E-2
4.515443835E0,-4.900366068E-2,-9.800732136E-2,-2.982831374E-2
4.520558262E0,-4.900366068E-2,-1.022685021E-1,-2.876301669E-2
4.525536023E0,-5.113425106E-2,-1.065296903E-1,-2.450183034E-2
4.530666648E0,-5.006895587E-2,-1.129214764E-1,-2.237123623E-2
4.535591754E0,-5.433014408E-2,-1.097255871E-1,-2.237123623E-2
4.540703941E0,-5.752603337E-2,-1.097255871E-1,-1.811004803E-2
4.545764150E0,-6.072192639E-2,-1.097255871E-1,-1.811004803E-2
4.550895921E0,-6.604841352E-2,-1.107908785E-1,-1.917534508E-2
4.555813370E0,-7.030959427E-2,-1.150520667E-1,-1.811004803E-2
4.560955766E0,-7.137489319E-2,-1.203785539E-1,-1.704475097E-2
4.565852121E0,-7.563608140E-2,-1.267703325E-1,-1.704475097E-2
4.570938319E0,-7.776667923E-2,-1.331621110E-1,-1.704475097E-2
4.575905508E0,-7.883197069E-2,-1.384886056E-1,-1.704475097E-2
4.581054518E0,-8.522375673E-2,-1.406191885E-1,-1.811004803E-2
4.586044467E0,-8.948494494E-2,-1.363580078E-1,-2.130593918E-2
4.591120769E0,-9.161553532E-2,-1.289009303E-1,-2.237123623E-2
4.596095614E0,-9.374613315E-2,-1.246397421E-1,-2.876301669E-2
4.601241551E0,-9.907261282E-2,-1.161173657E-1,-3.302420676E-2
4.606152750E0,-1.022685021E-1,-1.075949892E-1,-3.728539124E-2
4.611234729E0,-1.043990999E-1,-1.033338010E-1,-4.048128426E-2
4.616247387E0,-1.054643989E-1,-1.043990999E-1,-4.474247247E-2
4.621331501E0,-1.075949892E-1,-1.107908785E-1,-4.900366068E-2
4.626346242E0,-1.054643989E-1,-1.193132550E-1,-5.326484516E-2
4.631428168E0,-1.054643989E-1,-1.310315281E-1,-5.539543927E-2
4.636429420E0,-1.043990999E-1,-1.459456831E-1,-5.752603337E-2
4.641465565E0,-1.012032107E-1,-1.608598381E-1,-5.859133229E-2
4.646695150E0,-1.001379117E-1,-1.693822145E-1,-5.646073818E-2
4.651679577E0,-9.800732136E-2,-1.789698899E-1,-5.433014408E-2
4.656531349E0,-9.374613315E-2,-1.896228492E-1,-4.900366068E-2
4.661599213E0,-9.161553532E-2,-1.960146427E-1,-4.261187837E-2
4.666647600E0,-9.161553532E-2,-1.992105246E-1,-3.835069016E-2
4.671732027E0,-8.948494494E-2,-1.992105246E-1,-3.408950195E-2
4.676757028E0,-8.735434711E-2,-1.960146427E-1,-2.982831374E-2
4.681906403E0,-8.735434711E-2,-1.906881481E-1,-2.343653329E-2
4.686909425E0,-8.522375673E-2,-1.821657717E-1,-1.704475097E-2
4.691871768E0,-8.202786744E-2,-1.683169156E-1,-1.065296959E-2
4.696851874E0,-8.202786744E-2,-1.587292403E-1,-6.391781382E-3
4.701949946E0,-7.776667923E-2,-1.470109820E-1,-6.391781382E-3
4.706920208E0,-7.457078248E-2,-1.363580078E-1,-1.065296936E-3
4.712058854E0,-7.137489319E-2,-1.278356314E-1,8.522375487E-3
4.717207397E0,-6.604841352E-2,-1.214438528E-1,1.704475097E-2
4.722228594E0,-6.498311460E-2,-1.182479635E-1,2.556712553E-2
4.727091095E0,-6.498311460E-2,-1.182479635E-1,2.982831374E-2
4.732194116E0,-6.604841352E-2,-1.171826646E-1,3.089361079E-2
4.737164169E0,-7.030959427E-2,-1.182479635E-1,3.195890784E-2
4.742270263E0,-7.350549102E-2,-1.246397421E-1,2.769771963E-2
4.747260681E0,-7.563608140E-2,-1.310315281E-1,2.130593918E-2
4.752388441E0,-7.883197069E-2,-1.406191885E-1,1.491415687E-2
4.757319328E0,-8.096256852E-2,-1.491415650E-1,6.391781382E-3
4.762549796E0,-8.415845782E-2,-1.587292403E-1,1.065296936E-3
4.767410214E0,-8.202786744E-2,-1.661863178E-1,-5.326484796E-3
4.772496933E0,-8.096256852E-2,-1.768392920E-1,-6.391781382E-3
4.777560580E0,-8.096256852E-2,-1.842963696E-1,-7.457078435E-3
4.782663079E0,-8.202786744E-2,-1.928187460E-1,-3.195890691E-3
4.787593706E0,-8.202786744E-2,-2.013411224E-1,1.065296936E-3
4.792705737E0,-8.202786744E-2,-2.077329010E-1,1.065296936E-3
4.797690009E0,-7.776667923E-2,-2.087981999E-1,4.261187743E-3
4.802762561E0,-7.350549102E-2,-2.098634988E-1,7.457078435E-3
4.807885895E0,-6.604841352E-2,-2.098634988E-1,9.587672539E-3
4.812845791E0,-5.859133229E-2,-2.130593807E-1,1.384885982E-2
4.817874959E0,-4.793836176E-2,-2.173205763E-1,1.597945392E-2
4.822986052E0,-3.728539124E-2,-2.205164731E-1,2.237123623E-2
4.827906001E0,-2.982831374E-2,-2.194511741E-1,2.450183034E-2
4.833019751E0,-2.450183034E-2,-2.237123549E-1,2.876301669E-2
4.837951002E0,-1.811004803E-2,-2.279735506E-1,3.195890784E-2
4.843049960E0,-1.278356276E-2,-2.364959270E-1,3.622009605E-2
4.848053035E0,-7.457078435E-3,-2.471488863E-1,4.048128426E-2
4.853225118E0,-5.326484796E-3,-2.578018606E-1,4.474247247E-2
4.858156056E0,-5.326484796E-3,-2.684548199E-1,4.580776766E-2
4.863230796E0,-2.130593872E-3,-2.759118974E-1,4.474247247E-2
4.868198349E0,-5.326484796E-3,-2.812383771E-1,4.367717355E-2
4.873285484E0,-8.522375487E-3,-2.844342887E-1,4.367717355E-2
4.878269704E0,-1.278356276E-2,-2.886954844E-1,4.261187837E-2
4.883422465E0,-1.704475097E-2,-2.929566503E-1,3.941598535E-2
4.888394184E0,-2.130593918E-2,-2.993484437E-1,3.728539124E-2
4.893472257E0,-2.343653329E-2,-3.089361191E-1,3.728539124E-2
4.898568769E0,-2.663242258E-2,-3.270461559E-1,3.728539124E-2
4.903517206E0,-2.663242258E-2,-3.451561928E-1,3.622009605E-2
4.908506582E0,-2.982831374E-2,-3.611356616E-1,3.195890784E-2
4.913616999E0,-2.876301669E-2,-3.749845326E-1,3.302420676E-2
4.918593354E0,-2.982831374E-2,-3.845722079E-1,3.302420676E-2
4.923683302E0,-2.663242258E-2,-3.888333738E-1,3.089361079E-2
4.928969136E0,-3.089361079E-2,-3.877680898E-1,3.408950195E-2
4.933768042E0,-3.195890784E-2,-3.845722079E-1,4.048128426E-2
4.938846012E0,-3.408950195E-2,-3.749845326E-1,4.900366068E-2
4.943874762E0,-3.622009605E-2,-3.675274551E-1,6.072192639E-2
4.948914086E0,-3.835069016E-2,-3.643315434E-1,6.817900389E-2
4.953921274E0,-4.048128426E-2,-3.643315434E-1,7.244019210E-2
4.959108410E0,-4.261187837E-2,-3.717886209E-1,7.670138031E-2
4.964019868E0,-5.219954997E-2,-3.813762963E-1,7.776667923E-2
4.969048203E0,-6.391781569E-2,-3.920292854E-1,7.137489319E-2
4.974103307E0,-7.244019210E-2,-4.048128426E-1,6.391781569E-2
4.979117475E0,-7.776667923E-2,-4.154658020E-1,5.006895587E-2
4.984175547E0,-7.457078248E-2,-4.282493591E-1,3.408950195E-2
4.989146017E0,-6.604841352E-2,-4.420982301E-1,1.597945392E-2
4.994236538E0,-5.433014408E-2,-4.538165033E-1,1.065296936E-3
4.999266018E0,-4.474247247E-2,-4.634041786E-1,-1.704475097E-2
5.004486851E0,-3.728539124E-2,-4.666000605E-1,-3.408950195E-2
5.009280811E0,-2.876301669E-2,-4.538165033E-1,-4.793836176E-2
5.014462373E0,-2.769771963E-2,-4.271840751E-1,-5.433014408E-2
5.019562739E0,-3.408950195E-2,-3.952251673E-1,-6.178722158E-2
5.024465656E0,-4.367717355E-2,-3.579397798E-1,-6.711370498E-2
5.029552219E0,-5.433014408E-2,-3.217196763E-1,-7.030959427E-2
5.034276125E0,-5.859133229E-2,-2.865648866E-1,-7.350549102E-2
5.039548731E0,-5.859133229E-2,-2.482141852E-1,-7.989726961E-2
5.044637949E0,-5.113425106E-2,-2.151899785E-1,-8.096256852E-2
5.049608992E0,-3.941598535E-2,-1.811004728E-1,-7.670138031E-2
5.054752950E0,-2.663242258E-2,-1.427497864E-1,-6.285251677E-2
5.059828837E0,-9.587672539E-3,-9.587672353E-2,-4.580776766E-2
5.064819722E0,0.000000000E0,-4.900366068E-2,-3.089361079E-2
5.069816546E0,5.326484796E-3,-6.391781382E-3,-1.491415687E-2
5.074849254E0,9.587672539E-3,3.515479714E-2,2.130593872E-3
5.079879985E0,1.597945392E-2,6.817900389E-2,8.522375487E-3
5.084984412E0,2.130593918E-2,9.268083423E-2,1.278356276E-2
5.089961288E0,2.663242258E-2,1.139867753E-1,1.065296959E-2
5.095019933E0,2.982831374E-2,1.320968270E-1,4.261187743E-3
5.100130872E0,3.515479714E-2,1.480762810E-1,-8.522375487E-3
5.105098580E0,4.048128426E-2,1.587292403E-1,-2.237123623E-2
5.110086602E0,3.835069016E-2,1.661863178E-1,-3.941598535E-2
5.115324988E0,3.195890784E-2,1.672516167E-1,-5.646073818E-2
5.120225666E0,2.663242258E-2,1.651210189E-1,-7.244019210E-2
5.125268061E0,3.195890784E-2,1.555333585E-1,-8.841964602E-2
5.130324781E0,4.367717355E-2,1.438150853E-1,-1.043990999E-1
5.135371969E0,6.178722158E-2,1.331621110E-1,-1.235744432E-1
5.140374887E0,7.989726961E-2,1.203785539E-1,-1.438150853E-1
5.145463584E0,9.374613315E-2,1.214438528E-1,-1.651210189E-1
5.150192179E0,1.043990999E-1,1.289009303E-1,-1.896228492E-1
5.155539106E0,1.043990999E-1,1.416844875E-1,-2.162552774E-1
5.160473639E0,1.065296903E-1,1.587292403E-1,-2.439530045E-1
5.165603378E0,1.033338010E-1,1.704475135E-1,-2.759118974E-1
5.170572025E0,9.374613315E-2,1.768392920E-1,-3.014790416E-1
5.175700254E0,8.841964602E-2,1.779045910E-1,-3.217196763E-1
5.180670099E0,8.841964602E-2,1.736433953E-1,-3.366338313E-1
5.185756192E0,9.374613315E-2,1.608598381E-1,-3.526133001E-1
5.190710881E0,9.587672353E-2,1.374233067E-1,-3.632662594E-1
5.196040829E0,1.033338010E-1,1.086602882E-1,-3.632662594E-1
5.200551403E0,1.129214764E-1,8.202786744E-2,-3.526133001E-1
5.205917653E0,1.150520667E-1,5.859133229E-2,-3.270461559E-1
5.210953644E0,1.161173657E-1,3.515479714E-2,-2.950872481E-1
5.216008227E0,1.161173657E-1,1.278356276E-2,-2.599324584E-1
5.221101561E0,1.129214764E-1,-6.391781382E-3,-2.226470560E-1
5.226023436E0,1.033338010E-1,-2.450183034E-2,-1.864269674E-1
5.231133177E0,8.309315890E-2,-5.113425106E-2,-1.480762810E-1
5.236102552E0,4.793836176E-2,-8.522375673E-2,-1.086602882E-1
5.241102865E0,2.130593872E-3,-1.193132550E-1,-7.563608140E-2
5.246287865E0,-4.154657945E-2,-1.502068639E-1,-4.261187837E-2
5.251218700E0,-8.202786744E-2,-1.874922663E-1,-1.597945392E-2
5.256300991E0,-1.214438528E-1,-2.269082516E-1,9.587672539E-3
5.261296201E0,-1.544680595E-1,-2.695201337E-1,2.556712553E-2
5.266376461E0,-1.821657717E-1,-3.089361191E-1,3.941598535E-2
5.271352348E0,-2.087981999E-1,-3.387644291E-1,5.326484516E-2
5.276423233E0,-2.194511741E-1,-3.547438681E-1,6.924430281E-2
5.281477192E0,-2.269082516E-1,-3.579397798E-1,8.096256852E-2
5.286559275E0,-2.269082516E-1,-3.419603109E-1,8.948494494E-2
5.291510423E0,-2.237123549E-1,-3.153278828E-1,9.374613315E-2
5.296653495E0,-2.151899785E-1,-2.844342887E-1,9.694202244E-2
5.301597507E0,-2.034717202E-1,-2.439530045E-1,1.022685021E-1
5.306656829E0,-1.896228492E-1,-2.024064213E-1,1.012032107E-1
5.311844435E0,-1.725780964E-1,-1.715128124E-1,9.374613315E-2
5.316759955E0,-1.597945392E-1,-1.395539045E-1,8.415845782E-2
5.321732873E0,-1.459456831E-1,-1.107908785E-1,7.989726961E-2
5.326825061E0,-1.310315281E-1,-8.841964602E-2,7.563608140E-2
5.331828604E0,-1.150520667E-1,-7.776667923E-2,7.030959427E-2
5.336949020E0,-9.800732136E-2,-7.030959427E-2,6.178722158E-2
5.341947355E0,-8.309315890E-2,-6.498311460E-2,5.113425106E-2
5.347042042E0,-7.883197069E-2,-6.072192639E-2,4.367717355E-2
5.351995689E0,-8.096256852E-2,-5.433014408E-2,4.154657945E-2
5.357087720E0,-8.202786744E-2,-5.752603337E-2,3.622009605E-2
5.362097773E0,-9.055023640E-2,-6.178722158E-2,2.982831374E-2
5.367148294E0,-9.800732136E-2,-7.137489319E-2,2.450183034E-2
5.372156056E0,-1.139867753E-1,-7.989726961E-2,2.237123623E-2
5.377267149E0,-1.352927089E-1,-8.522375673E-2,1.917534508E-2
5.382236890E0,-1.523374617E-1,-8.522375673E-2,1.917534508E-2
5.387316056E0,-1.715128124E-1,-8.841964602E-2,1.704475097E-2
5.392324703E0,-1.949493438E-1,-9.055023640E-2,1.278356276E-2
5.397466422E0,-2.098634988E-1,-9.161553532E-2,5.326484796E-3
5.402496944E0,-2.237123549E-1,-9.587672353E-2,-3.195890691E-3
5.407517985E0,-2.375612110E-1,-1.054643989E-1,-1.491415687E-2
5.412501372E0,-2.471488863E-1,-1.193132550E-1,-3.195890784E-2
5.417656684E0,-2.524753809E-1,-1.331621110E-1,-5.113425106E-2
5.422658404E0,-2.599324584E-1,-1.480762810E-1,-7.350549102E-2
5.427689914E0,-2.631283402E-1,-1.608598381E-1,-9.161553532E-2
5.432599916E0,-2.663242221E-1,-1.704475135E-1,-1.118561774E-1
5.437747988E0,-2.737812996E-1,-1.832310706E-1,-1.289009303E-1
5.442664813E0,-2.780424953E-1,-1.885575503E-1,-1.406191885E-1
5.447868094E0,-2.801730931E-1,-1.885575503E-1,-1.480762810E-1
5.452783668E0,-2.854995728E-1,-1.864269674E-1,-1.523374617E-1
5.457941480E0,-2.844342887E-1,-1.864269674E-1,-1.534027606E-1
5.462844138E0,-2.833689749E-1,-1.864269674E-1,-1.565986425E-1
5.468014033E0,-2.769772112E-1,-1.821657717E-1,-1.565986425E-1
5.472931378E0,-2.705854177E-1,-1.747086942E-1,-1.576639414E-1
5.478013982E0,-2.620630562E-1,-1.597945392E-1,-1.555333585E-1
5.483017004E0,-2.578018606E-1,-1.374233067E-1,-1.544680595E-1
5.488109452E0,-2.492794842E-1,-1.075949892E-1,-1.555333585E-1
5.493055286E0,-2.396918088E-1,-7.883197069E-2,-1.555333585E-1
5.497893255E0,-2.301041335E-1,-4.261187837E-2,-1.576639414E-1
5.503171433E0,-2.226470560E-1,-6.391781382E-3,-1.587292403E-1
5.508259662E0,-2.151899785E-1,3.515479714E-2,-1.672516167E-1
5.513246903E0,-2.077329010E-1,7.137489319E-2,-1.757739931E-1
5.518385132E0,-1.981452256E-1,9.694202244E-2,-1.853616685E-1
5.523356435E0,-1.917534471E-1,1.171826646E-1,-1.949493438E-1
5.528383414E0,-1.885575503E-1,1.342274100E-1,-2.013411224E-1
5.533452061E0,-1.874922663E-1,1.512721628E-1,-2.045370042E-1
5.538555655E0,-1.832310706E-1,1.651210189E-1,-2.024064213E-1
5.543459875E0,-1.832310706E-1,1.789698899E-1,-1.981452256E-1
5.548616645E0,-1.906881481E-1,1.853616685E-1,-1.960146427E-1
5.553646074E0,-1.970799267E-1,1.938840449E-1,-1.917534471E-1
5.558678938E0,-2.066676021E-1,2.002758235E-1,-1.896228492E-1
5.563628418E0,-2.173205763E-1,2.098634988E-1,-1.842963696E-1
5.568753054E0,-2.322347313E-1,2.258429527E-1,-1.789698899E-1
5.573694305E0,-2.439530045E-1,2.407571077E-1,-1.768392920E-1
5.578857898E0,-2.503447831E-1,2.524753809E-1,-1.811004728E-1
5.583907431E0,-2.492794842E-1,2.631283402E-1,-1.885575503E-1
5.588957483E0,-2.471488863E-1,2.727160156E-1,-1.981452256E-1
5.593966130E0,-2.396918088E-1,2.812383771E-1,-2.056023031E-1
5.599013265E0,-2.279735506E-1,2.876301706E-1,-2.151899785E-1
5.603993006E0,-2.194511741E-1,2.918913662E-1,-2.247776538E-1
5.609027849E0,-2.130593807E-1,2.950872481E-1,-2.322347313E-1
5.614028944E0,-2.087981999E-1,2.950872481E-1,-2.311694324E-1
5.619183527E0,-2.109287977E-1,2.940219641E-1,-2.258429527E-1
5.624099727E0,-2.237123549E-1,2.886954844E-1,-2.173205763E-1
5.629175455E0,-2.386265099E-1,2.886954844E-1,-2.013411224E-1
5.634279936E0,-2.588671446E-1,2.929566503E-1,-1.864269674E-1
5.639287175E0,-2.748466134E-1,2.950872481E-1,-1.736433953E-1
5.644234468E0,-2.876301706E-1,3.014790416E-1,-1.640557349E-1
5.649373062E0,-2.982831299E-1,3.036096394E-1,-1.651210189E-1
5.654322177E0,-3.004137278E-1,2.929566503E-1,-1.736433953E-1
5.659568948E0,-3.057402074E-1,2.823036909E-1,-1.917534471E-1
5.664248428E0,-3.153278828E-1,2.791078091E-1,-2.077329010E-1
5.669344991E0,-3.238502741E-1,2.737812996E-1,-2.226470560E-1
5.674528273E0,-3.334379494E-1,2.727160156E-1,-2.439530045E-1
5.679632596E0,-3.419603109E-1,2.684548199E-1,-2.652589381E-1
5.684587493E0,-3.515479863E-1,2.695201337E-1,-2.865648866E-1
5.689769211E0,-3.632662594E-1,2.780424953E-1,-3.100014031E-1
5.694651556E0,-3.739192188E-1,2.908260524E-1,-3.259808719E-1
5.699818327E0,-3.856374919E-1,3.078708053E-1,-3.387644291E-1
5.704716766E0,-3.898986876E-1,3.227849603E-1,-3.494173884E-1
5.709906557E0,-3.984210491E-1,3.270461559E-1,-3.547438681E-1
5.714919579E0,-4.080087245E-1,3.153278828E-1,-3.600703776E-1
5.719929996E0,-4.165311158E-1,2.865648866E-1,-3.547438681E-1
5.724881664E0,-4.197269976E-1,2.514100671E-1,-3.366338313E-1
5.730098330E0,-4.144005179E-1,2.077329010E-1,-3.046749234E-1
5.734991821E0,-4.016169310E-1,1.565986425E-1,-2.609977424E-1
5.740048435E0,-3.845722079E-1,1.054643989E-1,-2.119940966E-1
5.745020676E0,-3.622009456E-1,5.326484516E-2,-1.747086942E-1
5.750149738E0,-3.334379494E-1,-3.195890691E-3,-1.512721628E-1
5.755128594E0,-3.014790416E-1,-6.391781569E-2,-1.352927089E-1
5.760203906E0,-2.652589381E-1,-1.214438528E-1,-1.289009303E-1
5.765198178E0,-2.258429527E-1,-1.917534471E-1,-1.278356314E-1
5.770290261E0,-1.864269674E-1,-2.737812996E-1,-1.193132550E-1
5.775288231E0,-1.427497864E-1,-3.579397798E-1,-9.800732136E-2
5.780552918E0,-9.694202244E-2,-4.261187613E-1,-6.178722158E-2
5.785374378E0,-5.752603337E-2,-4.761877358E-1,-7.457078435E-3
5.790453753E0,-2.343653329E-2,-5.102772117E-1,6.711370498E-2
5.795427400E0,3.195890691E-3,-5.262566805E-1,1.384886056E-1
5.800540316E0,2.982831374E-2,-5.283873081E-1,1.938840449E-1
5.805534380E0,5.326484516E-2,-5.241261125E-1,2.279735506E-1
5.810600942E0,7.989726961E-2,-5.187996030E-1,2.535406649E-1
5.815618496E0,1.107908785E-1,-5.038854480E-1,2.759118974E-1
5.820740735E0,1.448803842E-1,-4.772530198E-1,2.897607684E-1
5.825730476E0,1.885575503E-1,-4.452941120E-1,3.014790416E-1
5.830878757E0,2.418224066E-1,-4.090740085E-1,3.110667169E-1
5.835757143E0,2.982831299E-1,-3.749845326E-1,3.163931966E-1
5.840971570E0,3.611356616E-1,-3.355685472E-1,3.195890784E-1
5.845852926E0,4.293146729E-1,-2.972178459E-1,3.206543922E-1
5.851025790E0,4.974936545E-1,-2.631283402E-1,3.195890784E-1
5.855919750E0,5.678032637E-1,-2.290388346E-1,3.100014031E-1
5.860983031E0,6.402434707E-1,-2.034717202E-1,3.057402074E-1
5.866011626E0,7.148142457E-1,-1.811004728E-1,3.014790416E-1
5.871111938E0,7.968420982E-1,-1.619251370E-1,2.961525619E-1
5.876121054E0,8.820658922E-1,-1.480762810E-1,2.940219641E-1
5.881199283E0,9.651589990E-1,-1.406191885E-1,2.982831299E-1
5.886200586E0,1.051448107E0,-1.395539045E-1,3.057402074E-1
5.891271836E0,1.146259546E0,-1.438150853E-1,3.206543922E-1
5.896251993E0,1.243201494E0,-1.534027606E-1,3.398297131E-1
5.901354806E0,1.342274189E0,-1.683169156E-1,3.632662594E-1
5.906314390E0,1.444542646E0,-1.906881481E-1,3.941598535E-1
5.911385015E0,1.542549968E0,-2.151899785E-1,4.420982301E-1
5.916389287E0,1.637361407E0,-2.269082516E-1,4.964283705E-1
5.921619182E0,1.721519828E0,-2.290388346E-1,5.486279130E-1
5.926458194E0,1.795025349E0,-2.247776538E-1,5.986968875E-1
5.931354913E0,1.852551341E0,-2.183858752E-1,6.455699205E-1
5.936704758E0,1.899424434E0,-2.034717202E-1,6.903123856E-1
5.941648872E0,1.938840389E0,-1.821657717E-1,7.307937145E-1
5.946603144E0,1.967603445E0,-1.651210189E-1,7.691444159E-1
5.951773821E0,1.997431755E0,-1.470109820E-1,8.021686077E-1
5.956740072E0,2.024064064E0,-1.161173657E-1,8.298662901E-1
5.961890593E0,2.041108847E0,-8.948494494E-2,8.543681502E-1
5.966782573E0,2.053892374E0,-6.711370498E-2,8.756740689E-1
5.971870437E0,2.053892374E0,-5.219954997E-2,8.895229697E-1
5.976855647E0,2.041108847E0,-4.793836176E-2,8.980453014E-1
5.982182991E0,2.012346029E0,-5.433014408E-2,9.097635746E-1
5.986940023E0,1.965472817E0,-8.309315890E-2,9.289389253E-1
5.992003877E0,1.914338589E0,-1.246397421E-1,9.502448440E-1
5.997043722E0,1.860008478E0,-1.629904360E-1,9.715508223E-1
6.002111326E0,1.798221231E0,-1.981452256E-1,9.960526228E-1
6.007074661E0,1.730042219E0,-2.290388346E-1,1.021619797E0
6.012163775E0,1.663993835E0,-2.567365468E-1,1.054643989E0
6.017205130E0,1.600075960E0,-2.737812996E-1,1.096190572E0
6.022288359E0,1.539354086E0,-2.833689749E-1,1.151585937E0
6.027256433E0,1.485023975E0,-2.876301706E-1,1.217634439E0
6.032417943E0,1.438150883E0,-2.876301706E-1,1.296466351E0
6.037436434E0,1.401930809E0,-2.865648866E-1,1.376363635E0
6.042488882E0,1.369971871E0,-2.993484437E-1,1.459456801E0
6.047445133E0,1.348665953E0,-3.036096394E-1,1.538288832E0
6.052496539E0,1.331621170E0,-3.110667169E-1,1.592618942E0
6.057478259E0,1.304988742E0,-3.366338313E-1,1.626708388E0
6.062616384E0,1.277291059E0,-3.781804144E-1,1.651210308E0
6.067663000E0,1.247462749E0,-4.207922816E-1,1.657602072E0
6.072765031E0,1.215503812E0,-4.602082670E-1,1.648014307E0
6.077621907E0,1.183544874E0,-5.028201342E-1,1.621381879E0
6.082817740E0,1.149455428E0,-5.454320312E-1,1.578770041E0
6.087853262E0,1.106843472E0,-5.869786143E-1,1.519113421E0
6.092974304E0,1.059970498E0,-6.242640018E-1,1.459456801E0
6.097804617E0,1.018423915E0,-6.434393525E-1,1.401930809E0
6.102955555E0,9.779425859E-1,-6.423740387E-1,1.338012934E0
6.107989671E0,9.449183941E-1,-6.189374924E-1,1.276225686E0
6.112959149E0,9.118942022E-1,-5.859133005E-1,1.216569066E0
6.117937484E0,8.820658922E-1,-5.539544225E-1,1.161173701E0
6.123026911E0,8.575640321E-1,-5.219954848E-1,1.106843472E0
6.128010193E0,8.341274858E-1,-4.953630865E-1,1.051448107E0
6.133228162E0,8.032338619E-1,-4.751224220E-1,9.960526228E-1
6.138115976E0,7.787320614E-1,-4.580776691E-1,9.491795897E-1
6.143265507E0,7.489037514E-1,-4.442288280E-1,9.055023789E-1
6.148270918E0,7.105530500E-1,-4.399676323E-1,8.575640321E-1
6.153279362E0,6.743329763E-1,-4.452941120E-1,8.096256852E-1
6.158260248E0,6.370475888E-1,-4.538165033E-1,7.606220245E-1
6.163327904E0,5.933703780E-1,-4.676653445E-1,7.020306587E-1
6.168319364E0,5.401055217E-1,-4.857754111E-1,6.434393525E-1
6.173416187E0,4.836448133E-1,-5.113425255E-1,5.869786143E-1
6.178388063E0,4.154658020E-1,-5.454320312E-1,5.315831900E-1
6.183515823E0,3.451561928E-1,-5.816521049E-1,4.740571380E-1
6.188629418E0,2.769772112E-1,-6.136110425E-1,4.026822448E-1
6.193576918E0,2.045370042E-1,-6.413087845E-1,3.238502741E-1
6.198558325E0,1.342274100E-1,-6.668758988E-1,2.428877056E-1
6.203661867E0,6.604841352E-2,-6.913776994E-1,1.608598381E-1
6.208673535E0,-1.065296936E-3,-7.062918544E-1,7.989726961E-2
6.213811451E0,-6.711370498E-2,-7.105530500E-1,2.130593872E-3
6.218742390E0,-1.331621110E-1,-7.009654045E-1,-6.178722158E-2
6.223829890E0,-1.970799267E-1,-6.839206219E-1,-1.118561774E-1
6.228804526E0,-2.599324584E-1,-6.572881937E-1,-1.502068639E-1
6.233903797E0,-3.217196763E-1,-6.231986880E-1,-1.821657717E-1
6.238862913E0,-3.771151006E-1,-5.827174187E-1,-2.087981999E-1
6.243936871E0,-4.293146729E-1,-5.454320312E-1,-2.215817571E-1
6.248952028E0,-4.857754111E-1,-5.166690350E-1,-2.396918088E-1
6.254057132E0,-5.379749537E-1,-5.028201342E-1,-2.588671446E-1
6.259046925E0,-5.869786143E-1,-4.921671748E-1,-2.663242221E-1
6.264119529E0,-6.381128430E-1,-4.804489315E-1,-2.748466134E-1
6.269091666E0,-6.871165037E-1,-4.825794995E-1,-2.844342887E-1
6.274255520E0,-7.371854782E-1,-4.964283705E-1,-2.961525619E-1
6.279177292E0,-7.819279432E-1,-5.092119575E-1,-3.121320009E-1
6.284273229E0,-8.170827627E-1,-5.198649168E-1,-3.313073516E-1
6.289324637E0,-8.405193090E-1,-5.283873081E-1,-3.600703776E-1
6.294337813E0,-8.469110727E-1,-5.326484442E-1,-3.920292854E-1
6.299345158E0,-8.319969177E-1,-5.422361493E-1,-4.197269976E-1
6.304495627E0,-7.915156484E-1,-5.709991455E-1,-4.399676323E-1
6.309422139E0,-7.254672050E-1,-6.040233374E-1,-4.495553076E-1
6.314536618E0,-6.413087845E-1,-6.200028062E-1,-4.431635141E-1
6.319497035E0,-5.422361493E-1,-6.327863932E-1,-4.144005179E-1
6.324585629E0,-4.325105548E-1,-6.359822750E-1,-3.675274551E-1
6.329572870E0,-3.249155581E-1,-6.370475888E-1,-3.100014031E-1
6.334680474E0,-2.258429527E-1,-6.391781569E-1,-2.439530045E-1
6.339770214E0,-1.342274100E-1,-6.434393525E-1,-1.864269674E-1
6.344764902E0,-5.326484516E-2,-6.540923119E-1,-1.427497864E-1
6.349782976E0,1.384885982E-2,-6.700717807E-1,-1.214438528E-1
6.354849428E0,5.965662748E-2,-6.924430132E-1,-1.150520667E-1
6.359854839E0,8.096256852E-2,-7.126836777E-1,-1.214438528E-1
6.364923081E0,7.670138031E-2,-7.371854782E-1,-1.406191885E-1
6.369935113E0,5.646073818E-2,-7.680791020E-1,-1.629904360E-1
6.375008238E0,2.769771963E-2,-8.117562532E-1,-1.789698899E-1
6.379994489E0,-1.384885982E-2,-8.692823052E-1,-1.917534471E-1
6.385104854E0,-6.498311460E-2,-9.310694933E-1,-2.013411224E-1
6.390084803E0,-1.246397421E-1,-9.747467041E-1,-2.087981999E-1
6.395180896E0,-1.960146427E-1,-1.010966778E0,-2.151899785E-1
6.400151002E0,-2.727160156E-1,-1.016293287E0,-2.194511741E-1
6.405256054E0,-3.600703776E-1,-9.300042391E-1,-2.226470560E-1
6.410270117E0,-4.420982301E-1,-7.233366370E-1,-2.471488863E-1
6.415323398E0,-5.081466436E-1,-3.888333738E-1,-3.046749234E-1
6.420366056E0,-5.571503043E-1,3.515479714E-2,-3.643315434E-1
6.425428556E0,-5.646073818E-1,4.751224220E-1,-4.112046063E-1
6.430395432E0,-5.166690350E-1,8.458457589E-1,-4.154658020E-1
6.435556630E0,-4.346411526E-1,1.082341671E0,-3.302420378E-1
6.440574964E0,-3.558091819E-1,1.107908845E0,-1.427497864E-1
6.445657412E0,-2.950872481E-1,9.076330066E-1,9.587672353E-2
6.450570642E0,-2.119940966E-1,5.752603412E-1,2.940219641E-1
6.455805121E0,-9.268083423E-2,2.588671446E-1,4.293146729E-1
6.460689914E0,5.752603337E-2,5.539543927E-2,5.454320312E-1
6.465699757E0,2.034717202E-1,-9.587672539E-3,6.093498468E-1
6.470486634E0,3.025443256E-1,6.817900389E-2,5.699338317E-1
6.475506998E0,3.217196763E-1,2.556712627E-1,4.346411526E-1
6.480504604E0,2.929566503E-1,4.644694626E-1,2.151899785E-1
6.485583145E0,2.716507316E-1,6.455699205E-1,-5.539543927E-2
6.490582365E0,2.375612110E-1,7.979074121E-1,-3.004137278E-1
6.495663094E0,1.491415650E-1,9.150900841E-1,-4.357064366E-1
6.500645856E0,1.171826664E-2,1.001379132E0,-5.518237948E-1
6.505752939E0,-1.629904360E-1,1.080211043E0,-7.052266002E-1
6.510728200E0,-3.771151006E-1,1.162238955E0,-8.618252277E-1
6.515818148E0,-6.306557655E-1,1.261311531E0,-1.018423915E0
6.520807993E0,-9.023064971E-1,1.347600579E0,-1.215503812E0
6.525901066E0,-1.148390055E0,1.397669554E0,-1.438150883E0
6.530868931E0,-1.332686424E0,1.406191945E0,-1.627773762E0
6.535993462E0,-1.420040846E0,1.350796461E0,-1.718323946E0
6.540975807E0,-1.398734927E0,1.195263147E0,-1.691691518E0
6.546062265E0,-1.283682823E0,9.374613166E-1,-1.544680595E0
6.551043933E0,-1.130280018E0,6.231986880E-1,-1.267703295E0
6.556439871E0,-9.960526228E-1,3.675274551E-1,-9.129594564E-1
6.561386226E0,-9.182859659E-1,2.524753809E-1,-5.827174187E-1
6.566539820E0,-8.916535378E-1,2.641936541E-1,-3.707233369E-1
6.571511748E0,-9.033718109E-1,3.355685472E-1,-2.588671446E-1
6.576617060E0,-9.289389253E-1,4.229228795E-1,-1.970799267E-1
6.581540707E0,-9.363960028E-1,5.219954848E-1,-1.629904360E-1
6.586802009E0,-9.172206521E-1,6.327863932E-1,-1.470109820E-1
6.591703729E0,-8.778046966E-1,7.339895964E-1,-1.384886056E-1
6.596786906E0,-8.309316039E-1,8.138868809E-1,-1.320968270E-1
6.601761438E0,-7.861891389E-1,8.724781871E-1,-1.342274100E-1
6.606905240E0,-7.563608289E-1,9.182859659E-1,-1.534027606E-1
6.611798210E0,-7.350549102E-1,9.566366673E-1,-1.917534471E-1
6.616910814E0,-7.244018912E-1,9.928567410E-1,-2.482141852E-1
6.621925295E0,-7.180101275E-1,1.005640268E0,-3.206543922E-1
6.627056857E0,-7.126836777E-1,1.005640268E0,-4.058781266E-1
6.631974671E0,-7.158795595E-1,9.992485046E-1,-5.017548800E-1
6.637124098E0,-7.180101275E-1,9.790078998E-1,-6.008274555E-1
6.642149620E0,-7.148142457E-1,9.566366673E-1,-6.977695227E-1
6.647118317E0,-7.052266002E-1,9.363960028E-1,-7.808626294E-1
6.652112277E0,-6.881818175E-1,9.310694933E-1,-8.426498771E-1
6.657200558E0,-6.658105850E-1,9.385265708E-1,-8.841964602E-1
6.662182799E0,-6.370475888E-1,9.545060396E-1,-8.916535378E-1
6.667367121E0,-6.082845330E-1,9.736813903E-1,-8.714128733E-1
6.672300768E0,-5.795215368E-1,9.843343496E-1,-8.256051540E-1
6.677348060E0,-5.507585406E-1,9.790078998E-1,-7.638179064E-1
6.682487019E0,-5.177342892E-1,9.438530803E-1,-6.849859357E-1
6.687483634E0,-4.847100973E-1,8.873923421E-1,-5.997622013E-1
6.692422437E0,-4.506205916E-1,8.319969177E-1,-5.219954848E-1
6.697562385E0,-4.197269976E-1,7.723402977E-1,-4.506205916E-1
6.702580146E0,-3.920292854E-1,7.105530500E-1,-3.984210491E-1
6.707648167E0,-3.685927391E-1,6.391781569E-1,-3.643315434E-1
6.712559262E0,-3.472867906E-1,5.603461862E-1,-3.526133001E-1
6.717680512E0,-3.281114697E-1,4.804489315E-1,-3.590050638E-1
6.722783221E0,-3.142625988E-1,4.037475288E-1,-3.792456985E-1
6.727782075E0,-3.100014031E-1,3.345032334E-1,-4.133352041E-1
6.732773170E0,-3.153278828E-1,2.684548199E-1,-4.527511895E-1
6.737909576E0,-3.387644291E-1,1.970799267E-1,-4.942977726E-1
6.742852598E0,-3.856374919E-1,1.267703325E-1,-5.358443856E-1
6.747893379E0,-4.516859055E-1,6.178722158E-2,-5.550196767E-1
6.752902756E0,-5.390402675E-1,6.391781382E-3,-5.496932268E-1
6.758100203E0,-6.327863932E-1,-3.089361079E-2,-5.262566805E-1
6.762954996E0,-7.307937145E-1,-5.752603337E-2,-4.889712930E-1
6.768176038E0,-8.192133307E-1,-7.563608140E-2,-4.442288280E-1
6.773159789E0,-9.001759291E-1,-8.628904819E-2,-3.952251673E-1
6.778159372E0,-9.651589990E-1,-9.374613315E-2,-3.483521044E-1
6.783157811E0,-1.009901524E0,-1.043990999E-1,-3.036096394E-1
6.788231248E0,-1.032272696E0,-1.107908785E-1,-2.599324584E-1
6.793287760E0,-1.026946187E0,-1.022685021E-1,-2.226470560E-1
6.798386041E0,-1.001379132E0,-9.587672353E-2,-1.842963696E-1
6.803301979E0,-9.555713534E-1,-9.694202244E-2,-1.491415650E-1
6.808394114E0,-8.980453014E-1,-9.161553532E-2,-1.352927089E-1
6.813408439E0,-8.351927996E-1,-7.989726961E-2,-1.491415650E-1
6.818558595E0,-7.808626294E-1,-5.752603337E-2,-1.842963696E-1
6.823489013E0,-7.339895964E-1,-2.663242258E-2,-2.354306281E-1
6.828521304E0,-6.977695227E-1,5.326484796E-3,-2.993484437E-1
6.833564326E0,-6.679411530E-1,2.663242258E-2,-3.675274551E-1
6.838644326E0,-6.402434707E-1,3.515479714E-2,-4.314452708E-1
6.843583963E0,-6.125457287E-1,2.769771963E-2,-4.815142155E-1
6.848756723E0,-5.816521049E-1,1.278356276E-2,-5.145384073E-1
6.853677297E0,-5.571503043E-1,-1.065296936E-3,-5.422361493E-1
6.858842401E0,-5.390402675E-1,-4.261187743E-3,-5.518237948E-1
6.863751152E0,-5.337137580E-1,0.000000000E0,-5.433014631E-1
6.868914641E0,-5.379749537E-1,8.522375487E-3,-5.219954848E-1
6.873848861E0,-5.550196767E-1,2.450183034E-2,-4.900365770E-1
6.879028861E0,-5.784562230E-1,4.261187837E-2,-4.495553076E-1
6.883988862E0,-6.072192788E-1,5.113425106E-2,-4.037475288E-1
6.888758862E0,-6.349169612E-1,4.687306657E-2,-3.536785841E-1
6.894020791E0,-6.477005482E-1,3.515479714E-2,-3.025443256E-1
6.899160582E0,-6.615493894E-1,1.491415687E-2,-2.588671446E-1
6.904131260E0,-6.796594262E-1,-5.326484796E-3,-2.237123549E-1
6.909196573E0,-7.062918544E-1,-1.597945392E-2,-2.045370042E-1
6.914138397E0,-7.382507920E-1,-1.811004803E-2,-1.928187460E-1
6.919278917E0,-7.670137882E-1,-7.457078435E-3,-1.832310706E-1
6.924254908E0,-7.851238251E-1,1.704475097E-2,-1.736433953E-1
6.929339231E0,-7.872544527E-1,3.728539124E-2,-1.672516167E-1
6.934328763E0,-7.734055519E-1,4.367717355E-2,-1.661863178E-1
6.939508034E0,-7.425119877E-1,2.450183034E-2,-1.683169156E-1
6.944497775E0,-7.030959725E-1,-3.195890691E-3,-1.789698899E-1
6.949562410E0,-6.604840755E-1,-4.261187837E-2,-1.917534471E-1
6.954539703E0,-6.072192788E-1,-8.415845782E-2,-2.130593807E-1
6.959595744E0,-5.550196767E-1,-1.278356314E-1,-2.386265099E-1
6.964525016E0,-5.060160160E-1,-1.651210189E-1,-2.599324584E-1
6.969678349E0,-4.655347466E-1,-1.938840449E-1,-2.812383771E-1
6.974645174E0,-4.314452708E-1,-2.024064213E-1,-2.993484437E-1
6.979800746E0,-4.048128426E-1,-1.768392920E-1,-3.110667169E-1
6.984881320E0,-3.803110123E-1,-1.214438528E-1,-3.142625988E-1
6.989818143E0,-3.632662594E-1,-5.113425106E-2,-3.078708053E-1
6.994818613E0,-3.547438681E-1,3.089361079E-2,-2.950872481E-1
6.999909342E0,-3.504827023E-1,1.086602882E-1,-2.812383771E-1
7.004658145E0,-3.515479863E-1,1.768392920E-1,-2.705854177E-1
7.009976582E0,-3.536785841E-1,2.269082516E-1,-2.652589381E-1
7.014930021E0,-3.526133001E-1,2.716507316E-1,-2.609977424E-1
7.020136584E0,-3.366338313E-1,2.993484437E-1,-2.567365468E-1
7.025072002E0,-3.131972849E-1,2.961525619E-1,-2.578018606E-1
7.030156741E0,-2.780424953E-1,2.556712627E-1,-2.599324584E-1
7.035227263E0,-2.322347313E-1,1.832310706E-1,-2.546059787E-1
7.040253721E0,-1.853616685E-1,8.628904819E-2,-2.364959270E-1
7.045220597E0,-1.406191885E-1,-1.491415687E-2,-1.960146427E-1
7.050347889E0,-1.043990999E-1,-9.587672353E-2,-1.246397421E-1
7.055323046E0,-8.202786744E-2,-1.491415650E-1,-2.237123623E-2
7.060346952E0,-6.924430281E-2,-1.789698899E-1,9.907261282E-2
7.065324974E0,-5.752603337E-2,-1.992105246E-1,2.119940966E-1
7.070535807E0,-5.326484516E-2,-2.183858752E-1,3.046749234E-1
7.075427371E0,-5.219954997E-2,-2.343653291E-1,3.803110123E-1
7.080521954E0,-4.367717355E-2,-2.354306281E-1,4.367717505E-1
7.085551591E0,-2.876301669E-2,-2.151899785E-1,4.783183336E-1
7.090618153E0,5.326484796E-3,-1.725780964E-1,5.092119575E-1
7.095567165E0,5.965662748E-2,-1.171826646E-1,5.209302306E-1
7.100674612E0,1.374233067E-1,-6.072192639E-2,5.241261125E-1
7.105710082E0,2.269082516E-1,-1.597945392E-2,5.177342892E-1
7.110735134E0,3.281114697E-1,2.024064213E-2,5.081466436E-1
7.115746177E0,4.367717505E-1,4.154657945E-2,5.017548800E-1
7.120911906E0,5.560849905E-1,5.752603337E-2,4.879060090E-1
7.125887480E0,6.775288582E-1,7.457078248E-2,4.644694626E-1
7.130878886E0,7.957767844E-1,9.055023640E-2,4.357064366E-1
7.135909617E0,9.129594564E-1,9.800732136E-2,4.058781266E-1
7.140974564E0,1.025880933E0,9.587672353E-2,3.739192188E-1
7.146002378E0,1.144128919E0,8.096256852E-2,3.515479863E-1
7.151171284E0,1.262376904E0,5.646073818E-2,3.398297131E-1
7.156110556E0,1.375298381E0,1.917534508E-2,3.291767538E-1
7.161133785E0,1.489285111E0,-2.556712553E-2,3.238502741E-1
7.166163474E0,1.601141334E0,-7.670138031E-2,3.472867906E-1
7.171381390E0,1.709801555E0,-1.299662292E-1,3.952251673E-1
7.176212798E0,1.806743622E0,-1.704475135E-1,4.399676323E-1
7.181307589E0,1.897293806E0,-1.928187460E-1,4.761877358E-1
7.186302382E0,1.975060463E0,-2.098634988E-1,5.145384073E-1
7.191392486E0,2.032586575E0,-2.162552774E-1,5.646073818E-1
7.196339571E0,2.070937157E0,-2.077329010E-1,6.242640018E-1
7.201485612E0,2.094373703E0,-1.853616685E-1,6.903123856E-1
7.206204728E0,2.099700212E0,-1.438150853E-1,7.584913969E-1
7.211541238E0,2.087981939E0,-8.948494494E-2,8.277357221E-1
7.216603427E0,2.058153629E0,-2.450183034E-2,8.991106153E-1
7.221747437E0,2.013411283E0,5.752603337E-2,9.630284309E-1
7.226586449E0,1.950558662E0,1.459456831E-1,1.008836150E0
7.231683688E0,1.882379651E0,2.279735506E-1,1.040795088E0
7.236735460E0,1.809939504E0,2.886954844E-1,1.059970498E0
7.241812960E0,1.740695238E0,3.078708053E-1,1.063166380E0
7.246776607E0,1.685299754E0,2.844342887E-1,1.053578615E0
7.251866763E0,1.638426661E0,2.333000302E-1,1.036533952E0
7.256939212E0,1.581965923E0,1.608598381E-1,1.009901524E0
7.261924576E0,1.519113421E0,6.924430281E-2,9.779425859E-1
7.266908015E0,1.451999664E0,-4.367717355E-2,9.502448440E-1
7.272051817E0,1.387016654E0,-1.491415650E-1,9.332001209E-1
7.276989266E0,1.317772269E0,-2.226470560E-1,9.236124158E-1
7.282107599E0,1.252789140E0,-2.588671446E-1,9.289389253E-1
7.287143746E0,1.202720284E0,-2.641936541E-1,9.587672353E-1
7.292169371E0,1.167565465E0,-2.482141852E-1,1.000313878E0
7.297154841E0,1.152651310E0,-2.205164731E-1,1.045056343E0
7.302286976E0,1.159043074E0,-1.874922663E-1,1.090864062E0
7.307236040E0,1.168630719E0,-1.480762810E-1,1.134541273E0
7.312310258E0,1.180348992E0,-1.022685021E-1,1.172891974E0
7.317325260E0,1.192067266E0,-6.498311460E-2,1.216569066E0
7.322558176E0,1.205916166E0,-1.597945392E-2,1.261311531E0
7.327443230E0,1.212307930E0,4.900366068E-2,1.297531724E0
7.332536563E0,1.216569066E0,1.086602882E-1,1.319902897E0
7.337569845E0,1.213373184E0,1.502068639E-1,1.322033525E0
7.342633074E0,1.194197893E0,1.640557349E-1,1.309249878E0
7.347526825E0,1.159043074E0,1.534027606E-1,1.282617569E0
7.352667033E0,1.113235354E0,1.289009303E-1,1.247462749E0
7.357624014E0,1.056774616E0,9.694202244E-2,1.204850793E0
7.362721045E0,1.001379132E0,6.817900389E-2,1.152651310E0
7.367700786E0,9.470489621E-1,5.219954997E-2,1.103647590E0
7.372809952E0,8.969800472E-1,3.622009605E-2,1.058905125E0
7.377762453E0,8.596946001E-1,2.556712553E-2,1.010966778E0
7.382852818E0,8.330622315E-1,9.587672539E-3,9.608978629E-1
7.387906725E0,8.117562532E-1,-1.704475097E-2,9.108288884E-1
7.393077767E0,7.968420982E-1,-5.326484516E-2,8.650211096E-1
7.397931726E0,7.808626294E-1,-8.628904819E-2,8.277357221E-1
7.403136518E0,7.595567107E-1,-1.118561774E-1,7.797973752E-1
7.408138081E0,7.350549102E-1,-1.416844875E-1,7.275978327E-1
7.413114748E0,6.999000907E-1,-1.832310706E-1,6.743329763E-1
7.418259749E0,6.508964300E-1,-2.151899785E-1,6.093498468E-1
7.423190009E0,5.869786143E-1,-2.386265099E-1,5.379749537E-1
7.428182354E0,5.113425255E-1,-2.556712627E-1,4.687306583E-1
7.433262302E0,4.175963998E-1,-2.673895359E-1,3.952251673E-1
7.438290636E0,3.185237944E-1,-2.737812996E-1,3.227849603E-1
7.443352251E0,2.109287977E-1,-2.780424953E-1,2.439530045E-1
7.448310429E0,9.907261282E-2,-2.791078091E-1,1.661863178E-1
7.453452043E0,-1.384885982E-2,-2.865648866E-1,9.161553532E-2
7.458480847E0,-1.203785539E-1,-3.014790416E-1,1.278356276E-2
7.463626628E0,-2.141246796E-1,-3.217196763E-1,-7.244019210E-2
7.468270119E0,-2.961525619E-1,-3.408950269E-1,-1.672516167E-1
7.473315587E0,-3.707233369E-1,-3.504827023E-1,-2.673895359E-1
7.478577828E0,-4.367717505E-1,-3.398297131E-1,-3.611356616E-1
7.483720536E0,-5.028201342E-1,-3.089361191E-1,-4.442288280E-1
7.488670954E0,-5.699338317E-1,-2.695201337E-1,-5.134730935E-1
7.493809547E0,-6.381128430E-1,-2.183858752E-1,-5.720644593E-1
7.499001267E0,-7.169448137E-1,-1.565986425E-1,-6.317210793E-1
7.503813298E0,-8.032338619E-1,-7.989726961E-2,-6.903123856E-1
7.508799341E0,-8.916535378E-1,0.000000000E0,-7.520996332E-1
7.513884393E0,-9.779425859E-1,7.457078248E-2,-8.128215671E-1
7.518608405E0,-1.047186852E0,1.374233067E-1,-8.682169914E-1
7.523982259E0,-1.096190572E0,1.811004728E-1,-9.172206521E-1
7.528969187E0,-1.122823000E0,2.024064213E-1,-9.523754716E-1
7.534083197E0,-1.118561745E0,1.960146427E-1,-9.672896266E-1
7.539111115E0,-1.085537553E0,1.534027606E-1,-9.619631171E-1
7.544146011E0,-1.010966778E0,8.096256852E-2,-9.470489621E-1
7.549093304E0,-8.927188516E-1,-2.556712553E-2,-9.140247703E-1
7.554202366E0,-7.371854782E-1,-1.565986425E-1,-8.533028364E-1
7.559243669E0,-5.486279130E-1,-3.014790416E-1,-7.648832202E-1
7.564265700E0,-3.419603109E-1,-4.474247098E-1,-6.477005482E-1
7.569266274E0,-1.459456831E-1,-5.443667173E-1,-4.974936545E-1
7.574163514E0,2.343653329E-2,-5.816521049E-1,-3.100014031E-1
7.579357734E0,1.534027606E-1,-5.443667173E-1,-8.522375673E-2
7.584471796E0,2.407571077E-1,-4.303799570E-1,1.374233067E-1
7.589490756E0,3.004137278E-1,-2.993484437E-1,3.259808719E-1
7.594536589E0,3.376991153E-1,-1.949493438E-1,4.644694626E-1
7.599544038E0,3.451561928E-1,-1.331621110E-1,5.571503043E-1
7.604601590E0,3.281114697E-1,-1.363580078E-1,6.040233374E-1
7.609599612E0,3.174584806E-1,-1.768392920E-1,5.837827325E-1
7.614712476E0,3.163931966E-1,-2.205164731E-1,5.145384073E-1
7.619689248E0,3.163931966E-1,-2.151899785E-1,4.314452708E-1
7.624771800E0,2.982831299E-1,-1.576639414E-1,3.515479863E-1
7.629765864E0,2.503447831E-1,-1.203785539E-1,2.854995728E-1
7.634963937E0,1.832310706E-1,-1.555333585E-1,2.151899785E-1
7.639877688E0,1.235744432E-1,-2.631283402E-1,1.235744432E-1
7.644913781E0,6.178722158E-2,-4.005516469E-1,2.556712553E-2
7.649880345E0,-1.811004803E-2,-4.793836176E-1,-5.006895587E-2
7.654987115E0,-1.363580078E-1,-4.303799570E-1,-1.171826646E-1
7.660023002E0,-2.993484437E-1,-2.290388346E-1,-2.066676021E-1
7.665058835E0,-4.793836176E-1,8.628904819E-2,-3.366338313E-1
7.670072430E0,-6.402434707E-1,4.229228795E-1,-4.868406951E-1
7.675252222E0,-7.393160462E-1,6.498311162E-1,-6.295905113E-1
7.680140348E0,-7.797973752E-1,7.052266002E-1,-7.275978327E-1
7.685292848E0,-7.659484744E-1,5.699338317E-1,-7.222713232E-1
7.690213162E0,-6.903123856E-1,2.908260524E-1,-6.349169612E-1
7.695304411E0,-5.209302306E-1,4.261187743E-3,-5.411708355E-1
7.700277902E0,-2.812383771E-1,-1.874922663E-1,-4.389023483E-1
7.705397693E0,-4.261187837E-2,-2.748466134E-1,-3.259808719E-1
7.710410768E0,1.491415650E-1,-2.716507316E-1,-2.173205763E-1
7.715543476E0,2.652589381E-1,-1.970799267E-1,-1.171826646E-1
7.720512227E0,3.057402074E-1,-7.883197069E-2,-5.646073818E-2
7.725556289E0,2.844342887E-1,3.622009605E-2,-6.604841352E-2
7.730508843E0,2.247776538E-1,1.395539045E-1,-1.395539045E-1
7.735601082E0,1.395539045E-1,2.237123549E-1,-2.609977424E-1
7.740606760E0,2.556712553E-2,2.631283402E-1,-3.707233369E-1
7.745710614E0,-1.235744432E-1,2.535406649E-1,-4.431635141E-1
7.750700824E0,-2.982831299E-1,2.183858752E-1,-5.315831900E-1
7.755788011E0,-4.889712930E-1,1.789698899E-1,-6.562229395E-1
7.760774991E0,-6.999000907E-1,1.661863178E-1,-8.042991757E-1
7.766046762E0,-9.321348071E-1,2.045370042E-1,-9.885955453E-1
7.770918534E0,-1.153716564E0,2.556712627E-1,-1.221895576E0
7.776042700E0,-1.320968151E0,2.823036909E-1,-1.481828094E0
7.780910098E0,-1.392343044E0,2.524753809E-1,-1.724715710E0
7.786085983E0,-1.351861835E0,1.459456831E-1,-1.894097924E0
7.791009213E0,-1.218699694E0,-3.195890691E-3,-1.937775135E0
7.796069369E0,-1.061035752E0,-1.331621110E-1,-1.829114795E0
7.801166506E0,-9.374613166E-1,-2.002758235E-1,-1.600075960E0
7.806169370E0,-8.799352646E-1,-1.789698899E-1,-1.284748077E0
7.811134788E0,-8.937841058E-1,-6.498311460E-2,-9.417225122E-1
7.816238850E0,-9.683549404E-1,1.118561774E-1,-6.349169612E-1
7.821242602E0,-1.059970498E0,2.982831299E-1,-4.026822448E-1
7.826345258E0,-1.137737155E0,4.431635141E-1,-2.546059787E-1
7.831321873E0,-1.181414247E0,5.528891087E-1,-1.608598381E-1
7.836448904E0,-1.180348992E0,6.434393525E-1,-8.948494494E-2
7.841117968E0,-1.132410645E0,7.212060094E-1,-4.048128426E-2
7.846468905E0,-1.049317479E0,7.851238251E-1,-2.024064213E-2
7.851463073E0,-9.417225122E-1,8.351927996E-1,-2.769771963E-2
7.856592969E0,-8.234745264E-1,8.703476191E-1,-6.498311460E-2
7.861562710E0,-7.116183639E-1,8.916535378E-1,-1.193132550E-1
7.866728022E0,-6.114804149E-1,8.959147334E-1,-1.928187460E-1
7.871628596E0,-5.241261125E-1,8.895229697E-1,-2.780424953E-1
7.876762346E0,-4.538165033E-1,8.671516776E-1,-3.653968573E-1
7.881752556E0,-3.952251673E-1,8.319969177E-1,-4.538165033E-1
7.886779482E0,-3.558091819E-1,7.904503345E-1,-5.401055217E-1
7.891864796E0,-3.313073516E-1,7.339895964E-1,-6.178722382E-1
7.896876098E0,-3.227849603E-1,6.551576257E-1,-6.839206219E-1
7.901892766E0,-3.355685472E-1,5.603461862E-1,-7.350549102E-1
7.906957714E0,-3.675274551E-1,4.634041786E-1,-7.659484744E-1
7.911949277E0,-4.154658020E-1,3.728539348E-1,-7.734055519E-1
7.917065110E0,-4.708612561E-1,2.972178459E-1,-7.574261427E-1
7.922101414E0,-5.294525623E-1,2.492794842E-1,-7.233366370E-1
7.927135320E0,-5.827174187E-1,2.151899785E-1,-6.732676625E-1
7.932182717E0,-6.253293157E-1,1.938840449E-1,-6.178722382E-1
7.937230477E0,-6.572881937E-1,1.896228492E-1,-5.656726956E-1
7.942398499E0,-6.849859357E-1,1.896228492E-1,-5.262566805E-1
7.947327665E0,-7.094877362E-1,1.885575503E-1,-4.942977726E-1
7.952248552E0,-7.382507920E-1,1.779045910E-1,-4.634041786E-1
7.957399750E0,-7.744708657E-1,1.672516167E-1,-4.271840751E-1
7.962509855E0,-8.160174489E-1,1.629904360E-1,-3.962904513E-1
7.967457511E0,-8.543681502E-1,1.544680595E-1,-3.749845326E-1
7.972462617E0,-8.905882239E-1,1.363580078E-1,-3.728539348E-1
7.977522616E0,-9.214818478E-1,1.086602882E-1,-3.803110123E-1
7.982479909E0,-9.438530803E-1,7.776667923E-2,-4.005516469E-1
7.987592044E0,-9.545060396E-1,5.113425106E-2,-4.229228795E-1
7.992604858E0,-9.566366673E-1,3.408950195E-2,-4.335758388E-1
7.997687462E0,-9.545060396E-1,3.302420676E-2,-4.314452708E-1
8.002641838E0,-9.491795897E-1,4.261187837E-2,-4.133352041E-1
8.007765067E0,-9.513101578E-1,6.391781569E-2,-3.898986876E-1
8.012792881E0,-9.640937448E-1,9.055023640E-2,-3.653968573E-1
8.017810745E0,-9.800731540E-1,1.182479635E-1,-3.430256248E-1
8.022818715E0,-9.939220548E-1,1.342274100E-1,-3.313073516E-1
8.027946736E0,-1.006705642E0,1.320968270E-1,-3.227849603E-1
8.033013248E0,-1.007770896E0,1.097255871E-1,-3.195890784E-1
8.038011216E0,-1.001379132E0,7.563608140E-2,-3.249155581E-1
8.042684134E0,-9.875302315E-1,2.130593918E-2,-3.408950269E-1
8.048044290E0,-9.651589990E-1,-4.793836176E-2,-3.579397798E-1
8.053039396E0,-9.363960028E-1,-1.075949892E-1,-3.696580231E-1
8.058149708E0,-9.108288884E-1,-1.534027606E-1,-3.813762963E-1
8.063106792E0,-8.810005784E-1,-1.928187460E-1,-3.909639716E-1
8.068327730E0,-8.575640321E-1,-2.194511741E-1,-3.973557651E-1
8.073215960E0,-8.341274858E-1,-2.343653291E-1,-4.058781266E-1
8.078306168E0,-8.053644896E-1,-2.482141852E-1,-4.165311158E-1
8.083449034E0,-7.755361795E-1,-2.567365468E-1,-4.261187613E-1
8.088369867E0,-7.446425557E-1,-2.578018606E-1,-4.325105548E-1
8.093372473E0,-7.148142457E-1,-2.599324584E-1,-4.389023483E-1
8.098434399E0,-6.753982306E-1,-2.556712627E-1,-4.431635141E-1
8.103427369E0,-6.317210793E-1,-2.492794842E-1,-4.506205916E-1
8.108557994E0,-5.869786143E-1,-2.396918088E-1,-4.580776691E-1
8.113541433E0,-5.422361493E-1,-2.151899785E-1,-4.676653445E-1
8.118619662E0,-5.049507618E-1,-1.715128124E-1,-4.772530198E-1
8.123582580E0,-4.751224220E-1,-1.235744432E-1,-4.857754111E-1
8.128808413E0,-4.506205916E-1,-6.924430281E-2,-4.942977726E-1
8.133677112E0,-4.282493591E-1,-1.597945392E-2,-4.953630865E-1
8.138781643E0,-4.197269976E-1,3.622009605E-2,-4.857754111E-1
8.143752478E0,-4.112046063E-1,7.989726961E-2,-4.708612561E-1
8.148875498E0,-4.048128426E-1,1.139867753E-1,-4.484900236E-1
8.153845343E0,-4.037475288E-1,1.438150853E-1,-4.165311158E-1
8.158986697E0,-3.984210491E-1,1.725780964E-1,-3.771151006E-1
8.163936855E0,-3.898986876E-1,1.960146427E-1,-3.387644291E-1
8.169021854E0,-3.792456985E-1,2.173205763E-1,-3.057402074E-1
8.173987741E0,-3.717886209E-1,2.290388346E-1,-2.759118974E-1
8.179207272E0,-3.696580231E-1,2.279735506E-1,-2.535406649E-1
8.184045659E0,-3.664621413E-1,2.056023031E-1,-2.364959270E-1
8.189188054E0,-3.643315434E-1,1.661863178E-1,-2.279735506E-1
8.194135816E0,-3.622009456E-1,1.267703325E-1,-2.258429527E-1
8.199244045E0,-3.462215066E-1,9.055023640E-2,-2.162552774E-1
8.204223525E0,-3.163931966E-1,4.793836176E-2,-2.034717202E-1
8.209391598E0,-2.801730931E-1,-1.065296936E-3,-1.885575503E-1
8.214291443E0,-2.386265099E-1,-4.474247247E-2,-1.651210189E-1
8.219422745E0,-1.960146427E-1,-7.350549102E-2,-1.299662292E-1
8.224403215E0,-1.470109820E-1,-8.735434711E-2,-7.670138031E-2
8.229518996E0,-8.948494494E-2,-1.012032107E-1,-4.261187743E-3
8.234438789E0,-2.343653329E-2,-1.097255871E-1,7.776667923E-2
8.239559570E0,4.367717355E-2,-1.086602882E-1,1.704475135E-1
8.244536498E0,1.118561774E-1,-9.055023640E-2,2.652589381E-1
8.249654831E0,1.842963696E-1,-5.752603337E-2,3.611356616E-1
8.254630353E0,2.631283402E-1,-1.171826664E-2,4.527511895E-1
8.259435040E0,3.515479863E-1,3.195890784E-2,5.358443856E-1
8.264700146E0,4.474247098E-1,7.457078248E-2,6.061539650E-1
8.269795770E0,5.496932268E-1,1.129214764E-1,6.604840755E-1
8.274811345E0,6.530269980E-1,1.427497864E-1,7.094877362E-1
8.279990459E0,7.659484744E-1,1.661863178E-1,7.606220245E-1
8.284837752E0,8.831311464E-1,1.821657717E-1,8.074950576E-1
8.290120200E0,1.004575014E0,1.938840449E-1,8.511722684E-1
8.294921815E0,1.128149509E0,2.034717202E-1,8.863270283E-1
8.300014367E0,1.244266868E0,2.087981999E-1,9.108288884E-1
8.304744629E0,1.347600579E0,1.981452256E-1,9.268083572E-1
8.310184889E0,1.441346765E0,1.768392920E-1,9.321348071E-1
8.315216140E0,1.539354086E0,1.384886056E-1,9.332001209E-1
8.320335255E0,1.639492035E0,9.694202244E-2,9.300042391E-1
8.325228641E0,1.750282884E0,5.539543927E-2,9.342654347E-1
8.330264787E0,1.866400242E0,2.130593918E-2,9.353306890E-1
8.335278538E0,1.984648228E0,-3.195890691E-3,9.363960028E-1
8.340370361E0,2.097569704E0,-1.704475097E-2,9.502448440E-1
8.345329893E0,2.189185143E0,-2.556712553E-2,9.736813903E-1
8.350397914E0,2.261625290E0,-2.876301669E-2,9.928567410E-1
8.355405207E0,2.319151402E0,-2.343653329E-2,1.010966778E0
8.360565467E0,2.343653202E0,-1.491415687E-2,1.034403324E0
8.365474427E0,2.347914457E0,3.195890691E-3,1.064231634E0
8.370603176E0,2.325543165E0,4.261187837E-2,1.097255826E0
8.375604271E0,2.276539564E0,1.022685021E-1,1.131345391E0
8.380707292E0,2.200903416E0,1.704475135E-1,1.169696093E0
8.385641304E0,2.105026722E0,2.503447831E-1,1.204850793E0
8.390790054E0,1.996366501E0,3.355685472E-1,1.236809731E0
8.395721148E0,1.891967416E0,4.144005179E-1,1.268768668E0
8.400794638E0,1.801417112E0,4.825794995E-1,1.291139841E0
8.405948545E0,1.721519828E0,5.401055217E-1,1.302858114E0
8.410920837E0,1.648014307E0,5.709991455E-1,1.297531724E0
8.415953598E0,1.579835415E0,5.678032637E-1,1.281552196E0
8.420991619E0,1.508460402E0,5.251913667E-1,1.268768668E0
8.426079849E0,1.437085509E0,4.548817873E-1,1.258115649E0
8.431139328E0,1.359318852E0,3.675274551E-1,1.248528004E0
8.436056048E0,1.273029804E0,2.567365468E-1,1.240005612E0
8.441196986E0,1.192067266E0,1.086602882E-1,1.243201494E0
8.446094226E0,1.116431236E0,-5.859133229E-2,1.253854513E0
8.451183393E0,1.058905125E0,-2.162552774E-1,1.271964550E0
8.456279227E0,1.025880933E0,-3.504827023E-1,1.291139841E0
8.461435008E0,1.017358541E0,-4.708612561E-1,1.322033525E0
8.466303187E0,1.023750305E0,-5.805868506E-1,1.367841244E0
8.471367093E0,1.042925715E0,-6.764635444E-1,1.421106100E0
8.476416886E0,1.055709243E0,-7.627525926E-1,1.470109820E0
8.481431260E0,1.056774616E0,-8.181480169E-1,1.504199266E0
8.486464126E0,1.042925715E0,-8.277357221E-1,1.513786912E0
8.491505063E0,1.019489169E0,-8.117562532E-1,1.503134012E0
8.496509752E0,9.853996634E-1,-7.819279432E-1,1.480762720E0
8.501589387E0,9.459837079E-1,-7.446425557E-1,1.446673274E0
8.506591993E0,9.012411833E-1,-7.094877362E-1,1.399800181E0
8.511739805E0,8.522375226E-1,-6.743329763E-1,1.340143561E0
8.516672983E0,7.979074121E-1,-6.423740387E-1,1.271964550E0
8.521772046E0,7.425119877E-1,-6.029580832E-1,1.201654911E0
8.526832412E0,6.924430132E-1,-5.560849905E-1,1.133475900E0
8.531826734E0,6.487658620E-1,-5.006895661E-1,1.070623398E0
8.536821475E0,6.157416105E-1,-4.452941120E-1,1.003509760E0
8.541985068E0,5.869786143E-1,-3.952251673E-1,9.491795897E-1
8.546893195E0,5.688685775E-1,-3.590050638E-1,8.991106153E-1
8.551982674E0,5.496932268E-1,-3.398297131E-1,8.501069546E-1
8.557041529E0,5.326484442E-1,-3.387644291E-1,8.011032939E-1
8.562081164E0,5.124078393E-1,-3.579397798E-1,7.510343194E-1
8.567059499E0,4.879060090E-1,-3.930945694E-1,7.073571682E-1
8.572162519E0,4.602082670E-1,-4.389023483E-1,6.636800170E-1
8.576930489E0,4.207922816E-1,-5.028201342E-1,6.221334338E-1
8.582223770E0,3.739192188E-1,-5.741950274E-1,5.773909688E-1
8.587248459E0,3.185237944E-1,-6.413087845E-1,5.262566805E-1
8.592337522E0,2.567365468E-1,-6.999000907E-1,4.697959423E-1
8.597280491E0,1.821657717E-1,-7.467731237E-1,4.112046063E-1
8.602380231E0,9.800732136E-2,-7.734055519E-1,3.472867906E-1
8.607391013E0,7.457078435E-3,-7.851238251E-1,2.801730931E-1
8.612516742E0,-8.735434711E-2,-7.851238251E-1,2.151899785E-1
8.617482056E0,-1.864269674E-1,-7.712749839E-1,1.491415650E-1
8.622550441E0,-2.791078091E-1,-7.542302012E-1,7.670138031E-2
8.627717265E0,-3.600703776E-1,-7.382507920E-1,3.195890691E-3
8.632724348E0,-4.325105548E-1,-7.233366370E-1,-7.137489319E-2
8.637653204E0,-4.942977726E-1,-7.073571682E-1,-1.523374617E-1
8.642909974E0,-5.518237948E-1,-6.967042089E-1,-2.322347313E-1
8.647712111E0,-6.082845330E-1,-6.828553081E-1,-3.131972849E-1
8.652762840E0,-6.604840755E-1,-6.594188213E-1,-3.867027760E-1
8.657825810E0,-7.190754414E-1,-6.327863932E-1,-4.410329461E-1
8.662847268E0,-7.755361795E-1,-6.018927693E-1,-4.847100973E-1
8.667868467E0,-8.351927996E-1,-5.614115000E-1,-5.273219943E-1
8.672951748E0,-8.959147334E-1,-5.092119575E-1,-5.720644593E-1
8.677902947E0,-9.587672353E-1,-4.570123851E-1,-6.178722382E-1
8.683067687E0,-1.015228033E0,-4.133352041E-1,-6.594188213E-1
8.688033209E0,-1.059970498E0,-3.803110123E-1,-6.913776994E-1
8.693092583E0,-1.089798808E0,-3.685927391E-1,-7.148142457E-1
8.698115658E0,-1.096190572E0,-3.813762963E-1,-7.254672050E-1
8.703385449E0,-1.085537553E0,-4.165311158E-1,-7.233366370E-1
8.708150763E0,-1.058905125E0,-4.708612561E-1,-7.212060094E-1
8.713317846E0,-1.014162660E0,-5.486279130E-1,-7.105530500E-1
8.718220764E0,-9.523754716E-1,-6.317210793E-1,-6.999000907E-1
8.723332222E0,-8.660864234E-1,-7.030959725E-1,-6.849859357E-1
8.728314619E0,-7.627525926E-1,-7.766014934E-1,-6.487658620E-1
8.733415504E0,-6.434393525E-1,-8.213439584E-1,-6.008274555E-1
8.738525089E0,-5.134730935E-1,-8.181480169E-1,-5.315831900E-1
8.743492953E0,-3.749845326E-1,-7.872544527E-1,-4.314452708E-1
8.748458007E0,-2.354306281E-1,-7.222713232E-1,-2.929566503E-1
8.753663944E0,-1.033338010E-1,-6.189374924E-1,-1.310315281E-1
8.758548268E0,1.811004803E-2,-5.081466436E-1,1.811004803E-2
8.763630247E0,1.225091442E-1,-4.357064366E-1,1.310315281E-1
8.768624623E0,2.034717202E-1,-4.122699201E-1,2.215817571E-1
8.773759987E0,2.567365468E-1,-4.165311158E-1,2.982831299E-1
8.778817489E0,2.727160156E-1,-4.399676323E-1,3.398297131E-1
8.783815249E0,2.482141852E-1,-4.793836176E-1,3.558091819E-1
8.788809156E0,1.949493438E-1,-5.028201342E-1,3.462215066E-1
8.793964573E0,1.320968270E-1,-5.070813298E-1,3.068055212E-1
8.798972751E0,9.587672353E-2,-5.390402675E-1,2.290388346E-1
8.803975876E0,1.022685021E-1,-6.125457287E-1,1.097255871E-1
8.808948794E0,8.735434711E-2,-6.221334338E-1,4.261187743E-3
8.814195356E0,2.237123623E-2,-5.560849905E-1,-5.113425106E-2
8.819009993E0,-6.604841352E-2,-4.666000605E-1,-1.012032107E-1
8.824280201E0,-1.555333585E-1,-3.664621413E-1,-1.693822145E-1
8.829151087E0,-2.418224066E-1,-2.439530045E-1,-2.546059787E-1
8.834194264E0,-3.259808719E-1,-6.924430281E-2,-3.494173884E-1
8.838935151E0,-3.898986876E-1,1.555333585E-1,-4.314452708E-1
8.844298484E0,-3.973557651E-1,4.335758388E-1,-4.804489315E-1
8.849252392E0,-3.334379494E-1,6.764635444E-1,-4.655347466E-1
8.855139735E0,-2.428877056E-1,8.042991757E-1,-3.664621413E-1
8.859396768E0,-1.565986425E-1,7.659484744E-1,-2.226470560E-1
8.864434111E0,-4.687306657E-2,5.571503043E-1,-5.006895587E-2
8.869392185E0,1.001379117E-1,2.727160156E-1,1.491415650E-1
8.874514164E0,2.492794842E-1,7.457078435E-3,3.504827023E-1
8.879572759E0,3.781804144E-1,-1.779045910E-1,5.145384073E-1
8.884608488E0,4.676653445E-1,-2.503447831E-1,5.933703780E-1
8.889627968E0,4.900365770E-1,-1.960146427E-1,5.784562230E-1
8.894739895E0,4.719265401E-1,-6.711370498E-2,4.847100973E-1
8.899647813E0,4.389023483E-1,8.202786744E-2,3.313073516E-1
8.904976719E0,3.707233369E-1,2.333000302E-1,1.544680595E-1
8.909845054E0,2.631283402E-1,3.590050638E-1,3.195890691E-3
8.914819012E0,1.054643989E-1,4.484900236E-1,-9.268083423E-2
8.919827815E0,-1.001379117E-1,5.092119575E-1,-1.885575503E-1
8.924898596E0,-3.526133001E-1,5.358443856E-1,-3.195890784E-1
8.929877139E0,-6.519617438E-1,5.433014631E-1,-4.932324886E-1
8.935012972E0,-9.779425859E-1,5.443667173E-1,-7.148142457E-1
8.939992765E0,-1.304988742E0,5.443667173E-1,-1.002444386E0
8.945099796E0,-1.579835415E0,5.454320312E-1,-1.347600579E0
8.950025735E0,-1.738564610E0,5.379749537E-1,-1.679973245E0
8.955182089E0,-1.749217510E0,4.953630865E-1,-1.916469216E0
8.960148913E0,-1.637361407E0,4.122699201E-1,-2.015541792E0
8.965381673E0,-1.437085509E0,2.812383771E-1,-1.946297526E0
8.970220112E0,-1.187806129E0,1.310315281E-1,-1.698083282E0
8.975340216E0,-9.481142759E-1,8.522375487E-3,-1.278356314E0
8.980287248E0,-7.638179064E-1,-3.195890784E-2,-8.000379801E-1
8.985361311E0,-6.615493894E-1,3.195890784E-2,-4.282493591E-1
8.990392822E0,-6.349169612E-1,1.363580078E-1,-2.237123549E-1
8.995448812E0,-6.434393525E-1,2.098634988E-1,-1.246397421E-1
9.000438552E0,-6.434393525E-1,2.641936541E-1,-7.137489319E-2
9.005556052E0,-6.359822750E-1,3.345032334E-1,-4.474247247E-2
9.010535116E0,-6.221334338E-1,4.154658020E-1,-4.900366068E-2
9.015720220E0,-6.221334338E-1,4.942977726E-1,-6.924430281E-2
9.020638815E0,-6.604840755E-1,5.965662599E-1,-9.907261282E-2
9.025771575E0,-7.286630869E-1,7.190754414E-1,-1.587292403E-1
9.030706680E0,-7.968420982E-1,7.936462164E-1,-2.546059787E-1
9.035871993E0,-8.533028364E-1,8.213439584E-1,-3.643315434E-1
9.040841317E0,-8.916535378E-1,8.138868809E-1,-4.772530198E-1
9.045897619E0,-9.033718109E-1,7.606220245E-1,-5.955010056E-1
9.051113141E0,-8.916535378E-1,6.423740387E-1,-7.094877362E-1
9.055958609E0,-8.596946001E-1,4.570123851E-1,-8.064298034E-1
9.060932517E0,-8.373233676E-1,2.514100671E-1,-8.724781871E-1
9.066001214E0,-8.447804451E-1,7.350549102E-2,-9.118942022E-1
9.071234966E0,-8.873923421E-1,-5.219954997E-2,-9.321348071E-1
9.076103038E0,-9.513101578E-1,-1.278356314E-1,-9.204165339E-1
9.081110852E0,-1.018423915E0,-1.608598381E-1,-8.778046966E-1
9.086182571E0,-1.074884653E0,-1.534027606E-1,-8.213439584E-1
9.091162520E0,-1.114300609E0,-1.118561774E-1,-7.393160462E-1
9.096228972E0,-1.132410645E0,-5.113425106E-2,-6.391781569E-1
9.101218250E0,-1.129214764E0,2.130593918E-2,-5.486279130E-1
9.106569500E0,-1.094059944E0,1.065296903E-1,-4.740571380E-1
9.111318459E0,-1.021619797E0,1.949493438E-1,-4.229228795E-1
9.116384136E0,-9.246777296E-1,2.663242221E-1,-3.973557651E-1
9.121530075E0,-8.138868809E-1,3.163931966E-1,-3.930945694E-1
9.126479502E0,-6.956388950E-1,3.408950269E-1,-4.037475288E-1
9.131455232E0,-5.859133005E-1,3.366338313E-1,-4.378370345E-1
9.136548721E0,-5.038854480E-1,3.025443256E-1,-4.825794995E-1
9.141525546E0,-4.580776691E-1,2.407571077E-1,-5.262566805E-1
9.146646743E0,-4.442288280E-1,1.683169156E-1,-5.624767542E-1
9.153404713E0,-4.602082670E-1,9.161553532E-2,-5.944356918E-1
9.156693360E0,-4.879060090E-1,2.663242258E-2,-6.231986880E-1
9.161962318E0,-5.358443856E-1,-3.089361079E-2,-6.402434707E-1
9.166721017E0,-5.976315737E-1,-7.350549102E-2,-6.349169612E-1
9.172020600E0,-6.604840755E-1,-9.481142461E-2,-6.093498468E-1
9.176754195E0,-7.297284007E-1,-1.022685021E-1,-5.656726956E-1
9.181912945E0,-8.021686077E-1,-9.587672353E-2,-5.124078393E-1
9.186883154E0,-8.724781871E-1,-7.670138031E-2,-4.506205916E-1
9.192066748E0,-9.289389253E-1,-5.433014408E-2,-3.867027760E-1
9.196957582E0,-9.704855084E-1,-2.450183034E-2,-3.259808719E-1
9.202051593E0,-9.971179366E-1,0.000000000E0,-2.727160156E-1
9.207040031E0,-1.015228033E0,1.491415687E-2,-2.269082516E-1
9.212141646E0,-1.014162660E0,2.130593918E-2,-1.970799267E-1
9.217124147E0,-9.992485046E-1,2.237123623E-2,-1.938840449E-1
9.222209824E0,-9.736813903E-1,1.384885982E-2,-2.066676021E-1
9.227230554E0,-9.427877665E-1,9.587672539E-3,-2.301041335E-1
9.232328210E0,-9.118942022E-1,1.065296936E-3,-2.641936541E-1
9.237282951E0,-8.810005784E-1,-1.278356276E-2,-3.036096394E-1
9.242477013E0,-8.437151909E-1,-2.769771963E-2,-3.504827023E-1
9.247434879E0,-8.042991757E-1,-4.793836176E-2,-4.016169310E-1
9.252455608E0,-7.680791020E-1,-6.498311460E-2,-4.559471011E-1
9.257456963E0,-7.425119877E-1,-8.628904819E-2,-5.124078393E-1
9.262584984E0,-7.254672050E-1,-1.150520667E-1,-5.688685775E-1
9.267525142E0,-7.190754414E-1,-1.448803842E-1,-6.221334338E-1
9.272759256E0,-7.158795595E-1,-1.715128124E-1,-6.690064669E-1
9.277325924E0,-7.190754414E-1,-2.034717202E-1,-7.073571682E-1
9.282682798E0,-7.265325189E-1,-2.322347313E-1,-7.350549102E-1
9.287673685E0,-7.361201644E-1,-2.588671446E-1,-7.531649470E-1
9.292808737E0,-7.393160462E-1,-2.631283402E-1,-7.595567107E-1
9.297750040E0,-7.361201644E-1,-2.460835874E-1,-7.499690652E-1
9.302917853E0,-7.350549102E-1,-2.002758235E-1,-7.265325189E-1
9.307845354E0,-7.254672050E-1,-1.363580078E-1,-6.913776994E-1
9.312962541E0,-6.977695227E-1,-6.711370498E-2,-6.466352344E-1
9.317913011E0,-6.604840755E-1,-4.261187743E-3,-5.955010056E-1
9.323046657E0,-6.189374924E-1,4.367717355E-2,-5.422361493E-1
9.328003325E0,-5.773909688E-1,8.522375673E-2,-4.942977726E-1
9.333187335E0,-5.379749537E-1,1.193132550E-1,-4.506205916E-1
9.338252284E0,-5.017548800E-1,1.427497864E-1,-4.133352041E-1
9.343262127E0,-4.729918540E-1,1.512721628E-1,-3.867027760E-1
9.348135306E0,-4.495553076E-1,1.502068639E-1,-3.590050638E-1
9.353223899E0,-4.239881933E-1,1.406191885E-1,-3.345032334E-1
9.358266140E0,-3.973557651E-1,1.214438528E-1,-3.131972849E-1
9.363314004E0,-3.749845326E-1,9.481142461E-2,-2.876301706E-1
9.368287027E0,-3.462215066E-1,6.391781569E-2,-2.620630562E-1
9.373503016E0,-3.110667169E-1,3.195890784E-2,-2.450182885E-1
9.378411194E0,-2.695201337E-1,-6.391781382E-3,-2.333000302E-1
9.383605517E0,-2.247776538E-1,-5.433014408E-2,-2.151899785E-1
9.388671969E0,-1.811004728E-1,-1.065296903E-1,-1.853616685E-1
9.393549945E0,-1.342274100E-1,-1.597945392E-1,-1.289009303E-1
9.398585877E0,-9.055023640E-2,-2.087981999E-1,-4.261187837E-2
9.403593540E0,-5.433014408E-2,-2.631283402E-1,7.350549102E-2
9.408720468E0,-2.663242258E-2,-3.206543922E-1,2.130593807E-1
9.413697187E0,-2.130593872E-3,-3.653968573E-1,3.622009456E-1
9.418681823E0,1.491415687E-2,-3.749845326E-1,4.964283705E-1
9.423769479E0,3.515479714E-2,-3.600703776E-1,5.986968875E-1
9.428740626E0,6.817900389E-2,-3.281114697E-1,6.700717807E-1
9.433835991E0,1.139867753E-1,-2.791078091E-1,7.148142457E-1
9.438864325E0,1.811004728E-1,-2.183858752E-1,7.393160462E-1
9.444033492E0,2.663242221E-1,-1.512721628E-1,7.361201644E-1
9.448958753E0,3.771151006E-1,-8.948494494E-2,7.148142457E-1
9.454163493E0,5.006895661E-1,-3.835069016E-2,6.817900538E-1
9.459045317E0,6.359822750E-1,1.171826664E-2,6.263945699E-1
9.464109587E0,7.819279432E-1,5.326484516E-2,5.624767542E-1
9.469104485E0,9.374613166E-1,7.350549102E-2,5.092119575E-1
9.474251568E0,1.100451708E0,7.776667923E-2,4.761877358E-1
9.479171413E0,1.260246277E0,7.457078248E-2,4.538165033E-1
9.484258548E0,1.412583709E0,7.137489319E-2,4.346411526E-1
9.489229643E0,1.558529377E0,7.457078248E-2,4.154658020E-1
9.494341101E0,1.690626264E0,1.001379117E-1,4.112046063E-1
9.499376050E0,1.811004758E0,1.470109820E-1,4.271840751E-1
9.504448237E0,1.916469216E0,2.066676021E-1,4.612735808E-1
9.509439280E0,1.996366501E0,2.716507316E-1,5.134730935E-1
9.514618603E0,2.053892374E0,3.227849603E-1,5.795215368E-1
9.519615219E0,2.095438957E0,3.430256248E-1,6.540923119E-1
9.524612562E0,2.124202013E0,3.419603109E-1,7.382507920E-1
9.529579438E0,2.135920286E0,3.302420378E-1,8.298662901E-1
9.534753813E0,2.133789778E0,3.249155581E-1,9.289389253E-1
9.539677617E0,2.116744995E0,3.238502741E-1,1.031207442E0
9.544859544E0,2.094373703E0,3.313073516E-1,1.131345391E0
9.549753086E0,2.062414885E0,3.579397798E-1,1.224026203E0
9.554797826E0,2.020868301E0,4.026822448E-1,1.301792860E0
9.559842827E0,1.971864581E0,4.761877358E-1,1.362514734E0
9.564963504E0,1.914338589E0,5.699338317E-1,1.400865436E0
9.569859963E0,1.845094323E0,6.498311162E-1,1.417910218E0
9.574996994E0,1.777980566E0,7.009654045E-1,1.413649082E0
9.579997569E0,1.712997437E0,7.201407552E-1,1.381690145E0
9.585170277E0,1.662928462E0,6.956388950E-1,1.322033525E0
9.590079653E0,1.619251370E0,6.221334338E-1,1.248528004E0
9.595137465E0,1.574508905E0,5.017548800E-1,1.175022483E0
9.600152154E0,1.518048167E0,3.430256248E-1,1.108974099E0
9.605190174E0,1.457326174E0,1.608598381E-1,1.053578615E0
9.610296165E0,1.397669554E0,-1.811004803E-2,1.014162660E0
9.615354915E0,1.341208816E0,-1.768392920E-1,9.907261729E-1
9.620311427E0,1.292205215E0,-3.174584806E-1,9.907261729E-1
9.625381374E0,1.250658631E0,-4.420982301E-1,1.015228033E0
9.630347782E0,1.224026203E0,-5.496932268E-1,1.048252225E0
9.635481011E0,1.218699694E0,-6.381128430E-1,1.096190572E0
9.640438929E0,1.228287339E0,-6.849859357E-1,1.147324800E0
9.645534605E0,1.242136240E0,-6.935083270E-1,1.186740756E0
9.650491690E0,1.259181023E0,-6.722023487E-1,1.215503812E0
9.655636846E0,1.278356314E0,-6.381128430E-1,1.249593258E0
9.660587577E0,1.289009333E0,-5.827174187E-1,1.289009333E0
9.665762941E0,1.289009333E0,-5.049507618E-1,1.317772269E0
9.670692525E0,1.281552196E0,-4.175963998E-1,1.329490542E0
9.675825025E0,1.263442159E0,-3.345032334E-1,1.322033525E0
9.680741485E0,1.241070986E0,-2.546059787E-1,1.296466351E0
9.685905651E0,1.202720284E0,-1.842963696E-1,1.260246277E0
9.690812736E0,1.157977819E0,-1.299662292E-1,1.209112048E0
9.695948465E0,1.104712963E0,-9.907261282E-2,1.156912446E0
9.700919195E0,1.043990970E0,-8.202786744E-2,1.100451708E0
9.706028049E0,9.832690954E-1,-7.776667923E-2,1.036533952E0
9.710995186E0,9.342654347E-1,-8.522375673E-2,9.640937448E-1
9.716090394E0,8.884576559E-1,-9.268083423E-2,8.841964602E-1
9.721105135E0,8.458457589E-1,-1.012032107E-1,8.032338619E-1
9.726189562E0,8.074950576E-1,-1.054643989E-1,7.307937145E-1
9.731147844E0,7.744708657E-1,-1.086602882E-1,6.647452712E-1
9.736213469E0,7.446425557E-1,-1.129214764E-1,6.040233374E-1
9.741210032E0,7.158795595E-1,-1.150520667E-1,5.507585406E-1
9.746422845E0,6.828553081E-1,-1.193132550E-1,5.028201342E-1
9.751297533E0,6.477005482E-1,-1.310315281E-1,4.559471011E-1
9.756394460E0,6.072192788E-1,-1.512721628E-1,4.090740085E-1
9.761456545E0,5.592808723E-1,-1.757739931E-1,3.675274551E-1
9.766469461E0,5.038854480E-1,-1.928187460E-1,3.270461559E-1
9.771435921E0,4.463594258E-1,-2.109287977E-1,2.854995728E-1
9.776546962E0,3.941598535E-1,-2.524753809E-1,2.311694324E-1
9.781592901E0,3.483521044E-1,-3.057402074E-1,1.587292403E-1
9.786622640E0,2.940219641E-1,-3.323726356E-1,7.563608140E-2
9.791731392E0,2.194511741E-1,-3.345032334E-1,1.065296936E-3
9.796702589E0,1.289009303E-1,-3.249155581E-1,-6.817900389E-2
9.801688216E0,2.876301669E-2,-3.174584806E-1,-1.374233067E-1
9.806781809E0,-6.604841352E-2,-2.982831299E-1,-1.992105246E-1
9.811793946E0,-1.651210189E-1,-2.716507316E-1,-2.482141852E-1
9.816967123E0,-2.482141852E-1,-2.524753809E-1,-3.131972849E-1
9.821858791E0,-3.238502741E-1,-2.269082516E-1,-3.845722079E-1
9.827056499E0,-3.930945694E-1,-1.885575503E-1,-4.357064366E-1
9.832158531E0,-4.655347466E-1,-1.555333585E-1,-4.666000605E-1
9.837006083E0,-5.464973450E-1,-1.267703325E-1,-4.911018908E-1
9.842084678E0,-6.317210793E-1,-9.161553532E-2,-5.113425255E-1
9.847084157E0,-7.169448137E-1,-5.433014408E-2,-5.283873081E-1
9.852064679E0,-7.936462164E-1,-1.597945392E-2,-5.411708355E-1
9.857177283E0,-8.671516776E-1,2.343653329E-2,-5.464973450E-1
9.862182805E0,-9.353306890E-1,6.498311460E-2,-5.486279130E-1
9.867254263E0,-9.907261729E-1,9.161553532E-2,-5.507585406E-1
9.872260723E0,-1.028011560E0,1.033338010E-1,-5.518237948E-1
9.877517806E0,-1.037599206E0,8.841964602E-2,-5.507585406E-1
9.882323797E0,-1.016293287E0,5.219954997E-2,-5.507585406E-1
9.887452703E0,-9.704855084E-1,1.065296959E-2,-5.496932268E-1
9.892414839E0,-8.969800472E-1,-2.876301669E-2,-5.464973450E-1
9.897533068E0,-8.138868809E-1,-7.457078248E-2,-5.411708355E-1
9.902502601E0,-7.254672050E-1,-1.342274100E-1,-5.251913667E-1
9.907782913E0,-6.381128430E-1,-2.173205763E-1,-4.964283705E-1
9.912662289E0,-5.550196767E-1,-3.281114697E-1,-4.431635141E-1
9.917635935E0,-4.793836176E-1,-4.484900236E-1,-3.707233369E-1
9.922613488E0,-4.165311158E-1,-5.582156181E-1,-2.886954844E-1
9.927865832E0,-3.590050638E-1,-6.423740387E-1,-2.087981999E-1
9.932727499E0,-2.993484437E-1,-6.977695227E-1,-1.331621110E-1
9.937797239E0,-2.375612110E-1,-7.233366370E-1,-6.285251677E-2
9.942792084E0,-1.725780964E-1,-7.116183639E-1,-7.457078435E-3
9.947886302E0,-1.065296903E-1,-6.690064669E-1,3.622009605E-2
9.952906772E0,-4.580776766E-2,-6.061539650E-1,6.391781569E-2
9.957855887E0,1.065296959E-2,-5.305178761E-1,8.096256852E-2
9.962945263E0,5.752603337E-2,-4.527511895E-1,7.776667923E-2
9.968028908E0,7.883197069E-2,-3.781804144E-1,5.326484516E-2
9.973138910E0,6.711370498E-2,-3.185237944E-1,1.917534508E-2
9.978138597E0,2.237123623E-2,-2.759118974E-1,-2.343653329E-2
9.983270213E0,-4.687306657E-2,-2.492794842E-1,-8.522375673E-2
9.988236619E0,-1.352927089E-1,-2.652589381E-1,-1.555333585E-1
9.993234016E0,-2.322347313E-1,-2.950872481E-1,-2.173205763E-1
