"Time (s)","Acceleration x (m/s^2)","Acceleration y (m/s^2)","Acceleration z (m/s^2)"
0.000000000E0,-2.238646984E0,1.118126392E0,9.385557175E0
1.972000000E-3,-2.238646984E0,1.060663700E0,9.443019867E0
3.959500000E-3,-2.238646984E0,1.060663700E0,9.443019867E0
5.959500000E-3,-2.238646984E0,1.060663700E0,9.443019867E0
7.959500000E-3,-2.238646984E0,1.060663700E0,9.443019867E0
9.962100000E-3,-2.238646984E0,1.060663700E0,9.443019867E0
1.196426600E-2,-1.719089270E0,9.529213905E-1,1.047734642E1
1.396612300E-2,-1.673598051E0,9.481328130E-1,1.055396366E1
1.596774800E-2,-1.596981287E0,8.834874034E-1,1.064015770E1
1.796919200E-2,-1.529941559E0,8.475732803E-1,1.064733982E1
1.997049200E-2,-1.324033976E0,8.308133483E-1,1.067607117E1
2.196931000E-2,-1.324033976E0,8.308133483E-1,1.067607117E1
2.397039300E-2,-1.314456820E0,7.948992252E-1,1.063776302E1
2.597139300E-2,-1.295302629E0,6.991282701E-1,1.050847244E1
2.797232100E-2,-1.268965602E0,6.680026650E-1,1.043664360E1
2.997318700E-2,-1.170800328E0,6.368771195E-1,1.032650757E1
3.197399900E-2,-1.058269501E0,6.057515144E-1,1.028819847E1
3.397476300E-2,-1.027143836E0,5.578660369E-1,1.026904488E1
3.597548500E-2,-1.000806928E0,4.692778587E-1,1.020918751E1
3.797616900E-2,-9.816526771E-1,4.309694767E-1,1.017327404E1
3.997671900E-2,-8.643332124E-1,3.974496126E-1,1.003201103E1
4.197590900E-2,-8.643332124E-1,3.974496126E-1,1.003201103E1
4.397640900E-2,-8.619389534E-1,4.142095447E-1,1.002243423E1
4.597688700E-2,-8.403904438E-1,4.429408312E-1,1.003201103E1
4.797734500E-2,-8.332076073E-1,5.243461728E-1,1.007271385E1
4.997778500E-2,-8.571503758E-1,5.722316504E-1,1.008468533E1
5.197820800E-2,-8.882759809E-1,6.656084061E-1,1.005595398E1
5.397861500E-2,-8.978530765E-1,7.063110471E-1,1.002243423E1
5.597893600E-2,-8.930644989E-1,8.356019258E-1,1.003919411E1
5.797924600E-2,-8.834874034E-1,9.457385540E-1,1.007989693E1
5.997954600E-2,-7.733507752E-1,1.082212210E0,9.993702888E0
6.197991200E-2,-7.733507752E-1,1.082212210E0,9.993702888E0
6.398104500E-2,-7.470137477E-1,1.127703428E0,9.929058075E0
6.598134500E-2,-7.230709791E-1,1.221080184E0,9.818921089E0
6.798164500E-2,-7.230709791E-1,1.316851139E0,9.744698524E0
6.998151100E-2,-7.374366522E-1,1.362342358E0,9.720755577E0
7.198131100E-2,-7.518022656E-1,1.446141958E0,9.680052757E0
7.398111100E-2,-7.565908432E-1,1.489238977E0,9.648927689E0
7.598091100E-2,-7.350423932E-1,1.544307232E0,9.620196342E0
7.798071100E-2,-7.398309112E-1,1.616135478E0,9.560338974E0
7.998051100E-2,-7.494080067E-1,1.680780888E0,9.383162498E0
8.198027700E-2,-7.494080067E-1,1.680780888E0,9.383162498E0
8.398007700E-2,-7.494080067E-1,1.697540879E0,9.304151535E0
8.597987700E-2,-7.613793612E-1,1.740637779E0,9.170072556E0
8.797961000E-2,-7.925049663E-1,1.817254543E0,9.052753448E0
8.997934300E-2,-8.284190893E-1,1.853168726E0,9.007262230E0
9.197907600E-2,-9.505270720E-1,1.893871427E0,8.940221786E0
9.397880900E-2,-1.019961119E0,1.910631299E0,8.882759094E0
9.597854200E-2,-1.154040456E0,1.862745762E0,8.877970695E0
9.797827500E-2,-1.192348838E0,1.759791970E0,8.897125244E0
9.997807500E-2,-1.108549237E0,2.020767927E0,8.815719604E0
1.019779410E-1,-1.108549237E0,2.020767927E0,8.815719604E0
1.039776740E-1,-1.223474383E0,2.085413456E0,8.621783257E0
1.059774070E-1,-1.276148438E0,2.133298874E0,8.516435623E0
1.079771400E-1,-1.371919513E0,2.200338602E0,8.394327164E0
1.099768730E-1,-1.407833576E0,2.209915638E0,8.363202095E0
1.119766060E-1,-1.505998850E0,2.178790092E0,8.286584854E0
1.139763390E-1,-1.640078187E0,2.154847383E0,8.231516838E0
1.159761390E-1,-1.704723716E0,2.138087511E0,8.207573891E0
1.179758720E-1,-1.836408734E0,2.085413456E0,8.183630943E0
1.199756050E-1,-2.032739401E0,2.051893473E0,8.169265747E0
1.219753050E-1,-2.032739401E0,2.051893473E0,8.169265747E0
1.239750380E-1,-2.123721838E0,2.018373728E0,7.656890869E0
1.259747710E-1,-2.106961727E0,2.030344963E0,7.616188049E0
1.279755710E-1,-2.063864946E0,2.037527800E0,7.731113434E0
1.299753040E-1,-2.011190891E0,1.980065227E0,7.798152924E0
1.319751040E-1,-1.960911036E0,1.795706153E0,7.886741161E0
1.339748370E-1,-2.130904675E0,1.613741279E0,7.932232380E0
1.359745700E-1,-2.214704275E0,1.525153041E0,7.939415455E0
1.379743030E-1,-2.358360767E0,1.345582485E0,8.028003693E0
1.399740360E-1,-2.478074312E0,1.036720991E0,8.272219658E0
1.419738020E-1,-2.478074312E0,1.036720991E0,8.272219658E0
1.439735350E-1,-2.451737404E0,8.906702399E-1,8.432636261E0
1.459732680E-1,-2.423006058E0,8.260248303E-1,8.490098000E0
1.479730680E-1,-2.332023621E0,7.182824612E-1,8.542772293E0
1.499728340E-1,-2.276955366E0,6.201171875E-1,8.595446587E0
1.519726000E-1,-2.298503876E0,5.865973234E-1,8.652909279E0
1.539723660E-1,-2.334417820E0,5.315290093E-1,8.758256912E0
1.559721320E-1,-2.339206457E0,5.219519138E-1,8.808537483E0
1.579718980E-1,-2.320052385E0,4.812492430E-1,8.928250313E0
1.599716640E-1,-2.231464148E0,4.022381604E-1,9.198803902E0
1.619713970E-1,-2.231464148E0,4.022381604E-1,9.198803902E0
1.639712300E-1,-2.178790092E0,3.902668059E-1,9.261054993E0
1.659710300E-1,-2.130904675E0,3.854782581E-1,9.299363136E0
1.679708300E-1,-2.008796453E0,3.495641351E-1,9.364008904E0
1.699706300E-1,-1.850774407E0,3.016786277E-1,9.397528648E0
1.719704300E-1,-1.769369125E0,2.968900800E-1,9.402317047E0
1.739702300E-1,-1.628106833E0,2.897072434E-1,9.407105446E0
1.759700300E-1,-1.553884387E0,2.681587934E-1,9.411893845E0
1.779698960E-1,-1.453324795E0,1.915419847E-1,9.464568138E0
1.799697620E-1,-1.324033976E0,1.101366431E-1,9.711178780E0
1.819696280E-1,-1.324033976E0,1.101366431E-1,9.711178780E0
1.839694940E-1,-1.271359921E0,1.197137404E-2,9.969759941E0
1.859693600E-1,-1.273754239E0,-1.364736706E-1,1.008947372E1
1.879681600E-1,-1.331216812E0,-2.250618339E-1,1.030735302E1
1.899680260E-1,-1.403045058E0,-3.687183261E-1,1.050847244E1
1.919678920E-1,-1.441353440E0,-4.405465722E-1,1.062339687E1
1.939678250E-1,-1.529941559E0,-5.842030644E-1,1.083169937E1
1.959676910E-1,-1.575432777E0,-7.230709791E-1,1.099929810E1
1.979675570E-1,-1.608952641E0,-7.518022656E-1,1.106633854E1
1.999674230E-1,-1.759791970E0,-7.446194887E-1,1.119562912E1
2.019672890E-1,-1.817254543E0,-7.302538157E-1,1.124830341E1
2.039671550E-1,-1.867534399E0,-7.134938836E-1,1.130097675E1
2.059670210E-1,-1.924996972E0,-6.225114465E-1,1.138238239E1
2.079668870E-1,-1.948939681E0,-5.554717779E-1,1.143266201E1
2.099667870E-1,-2.044710636E0,-3.974496126E-1,1.151167297E1
2.119666200E-1,-2.114144564E0,-3.208328187E-1,1.151885605E1
2.139664530E-1,-2.339206457E0,-1.268965602E-1,1.149970150E1
2.159662860E-1,-2.537931204E0,2.873129770E-2,1.146378803E1
2.179661190E-1,-2.626519442E0,9.816526622E-2,1.146618176E1
2.199659520E-1,-2.990449190E0,3.519583941E-1,1.160265541E1
2.219657850E-1,-2.990449190E0,3.519583941E-1,1.160265541E1
2.239656180E-1,-3.091008663E0,3.998439014E-1,1.166730118E1
2.259654840E-1,-3.270579338E0,5.004034638E-1,1.182532310E1
2.279652840E-1,-3.351984739E0,5.411061049E-1,1.189236259E1
2.299650840E-1,-3.507612705E0,6.225114465E-1,1.202404785E1
2.319648840E-1,-3.565075159E0,6.680026650E-1,1.211024189E1
2.339646840E-1,-3.703943014E0,7.015225291E-1,1.233530426E1
2.359644840E-1,-3.842811108E0,7.925049663E-1,1.249811459E1
2.379642840E-1,-3.897879362E0,8.236305118E-1,1.252684593E1
2.399640840E-1,-4.003227711E0,9.289786220E-1,1.246459484E1
2.419639170E-1,-4.029564381E0,9.313728809E-1,1.241431522E1
2.439636500E-1,-4.055901527E0,9.361614585E-1,1.237840080E1
2.459633830E-1,-4.087027073E0,9.313728809E-1,1.249571991E1
2.479631160E-1,-4.096604347E0,9.122186899E-1,1.253881741E1
2.499628490E-1,-4.110970020E0,8.332076073E-1,1.238318920E1
2.519625820E-1,-4.103786945E0,7.470137477E-1,1.202165413E1
2.539623150E-1,-4.084632874E0,7.015225291E-1,1.180616951E1
2.559621150E-1,-4.029564381E0,6.273000240E-1,1.142308521E1
2.579619150E-1,-3.993650436E0,5.842030644E-1,1.124830341E1
2.599616480E-1,-3.823656797E0,4.597007632E-1,1.079099655E1
2.619613480E-1,-3.754222870E0,4.357580245E-1,1.065212822E1
2.639610810E-1,-3.660846233E0,4.213923812E-1,1.050607777E1
2.659608140E-1,-3.536343813E0,3.567469418E-1,1.022115898E1
2.679605470E-1,-3.502824068E0,3.256213665E-1,1.008468533E1
2.699602800E-1,-3.474092722E0,2.490045726E-1,9.835680962E0
2.719600800E-1,-3.488458395E0,1.388679445E-1,9.622590065E0
2.739598800E-1,-3.500429869E0,6.703969836E-2,9.522030830E0
2.759596130E-1,-3.500429869E0,-9.577099234E-2,9.328094482E0
2.779593460E-1,-3.486064196E0,-2.418217510E-1,9.244295120E0
2.799590790E-1,-3.328042030E0,-4.261809289E-1,8.990502357E0
2.819588450E-1,-3.328042030E0,-4.261809289E-1,8.990502357E0
2.839585780E-1,-3.265790939E0,-4.860377908E-1,8.933039665E0
2.859583110E-1,-3.141288519E0,-5.913859010E-1,8.842057228E0
2.879581110E-1,-3.050306082E0,-6.584255695E-1,8.830085754E0
2.899578440E-1,-3.035940409E0,-6.871568561E-1,8.842057228E0
2.919575770E-1,-3.019180536E0,-7.302538157E-1,8.897125244E0
2.939573100E-1,-3.009603500E0,-7.518022656E-1,8.949799538E0
2.959570430E-1,-2.980872154E0,-7.661679387E-1,9.059935570E0
2.979567760E-1,-2.918621063E0,-7.589851022E-1,9.177255630E0
2.999565090E-1,-2.851581335E0,-7.278595567E-1,9.366402626E0
3.019562090E-1,-2.851581335E0,-7.278595567E-1,9.366402626E0
3.039560090E-1,-2.834821463E0,-7.063110471E-1,9.404711723E0
3.059557420E-1,-2.837215662E0,-6.584255695E-1,9.459779739E0
3.079554750E-1,-2.863552570E0,-5.674431324E-1,9.534002304E0
3.099552080E-1,-2.880312681E0,-5.147690773E-1,9.586676598E0
3.119549410E-1,-2.906649590E0,-4.142095447E-1,9.684841156E0
3.139546740E-1,-2.911438227E0,-3.663240373E-1,9.725543976E0
3.159544070E-1,-2.894678354E0,-2.322446555E-1,9.797372818E0
3.179541400E-1,-2.911438227E0,-5.267404765E-2,9.864412308E0
3.199539400E-1,-3.047911882E0,9.816526622E-2,1.003919411E1
3.219537060E-1,-3.047911882E0,9.816526622E-2,1.003919411E1
3.239534390E-1,-3.105374336E0,2.346389294E-1,1.009186840E1
3.259531720E-1,-3.213116884E0,3.016786277E-1,1.020918751E1
3.279529050E-1,-3.277762175E0,4.166038036E-1,1.024270725E1
3.299526380E-1,-3.280156374E0,4.716721475E-1,1.022834206E1
3.319523710E-1,-3.292127848E0,5.746259689E-1,1.021637058E1
3.339521040E-1,-3.323253393E0,6.727912426E-1,1.021158218E1
3.359519040E-1,-3.337619066E0,7.254652381E-1,1.022355366E1
3.379516370E-1,-3.409447432E0,7.853221297E-1,1.036481571E1
3.399513700E-1,-3.500429869E0,8.858816624E-1,1.081972790E1
3.419510360E-1,-3.538738251E0,9.050358534E-1,1.089395046E1
3.439507690E-1,-3.598595142E0,9.050358534E-1,1.091071033E1
3.459505020E-1,-3.668029070E0,8.978530765E-1,1.087958431E1
3.479502350E-1,-3.806896925E0,8.691217303E-1,1.078381348E1
3.499500350E-1,-3.857176781E0,8.643332124E-1,1.071916866E1
3.519498350E-1,-3.919427872E0,8.379961848E-1,1.058508873E1
3.539495680E-1,-3.907456398E0,8.092648983E-1,1.038397026E1
3.559493010E-1,-3.893090725E0,7.996878028E-1,1.030495834E1
3.579490340E-1,-3.890696526E0,7.685621977E-1,1.018045616E1
3.599487670E-1,-3.881119490E0,7.158881426E-1,1.001046276E1
3.619485330E-1,-3.881119490E0,7.158881426E-1,1.001046276E1
3.639482660E-1,-3.955342054E0,6.751855016E-1,9.964971542E0
3.659480660E-1,-4.022381783E0,6.488484740E-1,9.960183144E0
3.679477990E-1,-4.168432236E0,4.740664065E-1,9.929058075E0
3.699475320E-1,-4.233078003E0,3.591412306E-1,9.895537376E0
3.719472650E-1,-4.336031914E0,1.628106833E-1,9.792584419E0
3.739468650E-1,-4.381523132E0,-2.873129770E-2,9.749486923E0
3.759465980E-1,-4.388705730E0,-1.292908341E-1,9.742303848E0
3.779463310E-1,-4.319271564E0,-3.040728867E-1,9.627379417E0
3.799460640E-1,-4.151672363E0,-5.243461728E-1,9.256266594E0
3.819458300E-1,-4.151672363E0,-5.243461728E-1,9.256266594E0
3.839455630E-1,-4.039141655E0,-6.632141471E-1,8.966559410E0
3.859452960E-1,-3.996044636E0,-7.422251701E-1,8.827691078E0
3.879450290E-1,-3.857176781E0,-8.379961848E-1,8.533195496E0
3.899447620E-1,-3.696760416E0,-9.146129489E-1,8.317710876E0
3.919444950E-1,-3.603383541E0,-9.577099085E-1,8.224333763E0
3.939442280E-1,-3.445361376E0,-1.053480864E0,8.097437859E0
3.959439610E-1,-3.371139050E0,-1.113337755E0,8.051946640E0
3.979437610E-1,-3.251425266E0,-1.237840056E0,7.951386452E0
3.999434940E-1,-3.093403101E0,-1.426987767E0,7.798152924E0
4.019432940E-1,-3.052700281E0,-1.484450340E0,7.767027378E0
4.039430270E-1,-3.004814863E0,-1.537124395E0,7.721536160E0
4.059427600E-1,-2.954535007E0,-1.563461423E0,7.683228016E0
4.079424930E-1,-2.861158371E0,-1.565855742E0,7.644919395E0
4.099422260E-1,-2.777358770E0,-1.525153041E0,7.618582249E0
4.119419590E-1,-2.743839025E0,-1.510787368E0,7.637736797E0
4.139417590E-1,-2.686376333E0,-1.477267504E0,7.707170486E0
4.159414920E-1,-2.664827824E0,-1.438959122E0,7.755055904E0
4.179412250E-1,-2.576239586E0,-1.338399649E0,7.862798691E0
4.199409580E-1,-2.420611858E0,-1.103760719E0,8.087860107E0
4.219406910E-1,-2.420611858E0,-1.103760719E0,8.087860107E0
4.239404240E-1,-2.298503876E0,-9.050358534E-1,8.279402733E0
4.259401570E-1,-2.255406857E0,-7.158881426E-1,8.466156006E0
4.279399570E-1,-2.162030220E0,-6.368771195E-1,8.526012421E0
4.299397570E-1,-2.078230619E0,-5.339232683E-1,8.616994858E0
4.319394900E-1,-2.071047783E0,-5.027977228E-1,8.667274475E0
4.339404230E-1,-2.027950764E0,-4.549122155E-1,8.686429024E0
4.359401560E-1,-1.996825218E0,-3.567469418E-1,8.607418060E0
4.379398890E-1,-1.994430900E0,-3.184385598E-1,8.557138443E0
4.399396220E-1,-2.250618219E0,-3.759011328E-1,8.363202095E0
4.419393220E-1,-2.250618219E0,-4.309694767E-1,8.379961967E0
4.439391220E-1,-2.518777132E0,-4.692778587E-1,8.478127480E0
4.459389220E-1,-2.676799297E0,-4.764606953E-1,8.880365372E0
4.479386550E-1,-2.703136206E0,-4.501236677E-1,9.167677879E0
4.499383880E-1,-2.636096478E0,-4.261809289E-1,9.739910126E0
4.519381210E-1,-2.569056988E0,-4.357580245E-1,9.953000069E0
4.539378540E-1,-2.394274712E0,-4.405465722E-1,1.020200539E1
4.559375870E-1,-2.221887112E0,-3.998439014E-1,1.026904488E1
4.579373200E-1,-2.135693073E0,-3.375927508E-1,1.025707340E1
4.599371200E-1,-2.336812258E0,2.585816681E-1,1.022834206E1
4.619368530E-1,-2.336812258E0,2.585816681E-1,1.022834206E1
4.639365860E-1,-2.540325642E0,4.525179267E-1,1.016848469E1
4.659363190E-1,-2.995237827E0,8.523618579E-1,9.972154617E0
4.679360520E-1,-3.234665155E0,1.019961119E0,9.854835510E0
4.699357850E-1,-3.545921087E0,1.268965602E0,9.620196342E0
4.719355180E-1,-3.672817469E0,1.371919513E0,9.421471596E0
4.739352510E-1,-3.838022470E0,1.388679385E0,9.323306084E0
4.759350510E-1,-3.761405706E0,1.333611012E0,9.119792938E0
4.779347840E-1,-3.656057596E0,1.266571403E0,9.026415825E0
4.799345170E-1,-3.256213665E0,1.007989645E0,8.760651588E0
4.819342170E-1,-3.146077156E0,9.505270720E-1,8.686429024E0
4.839339500E-1,-3.059883118E0,8.930644989E-1,8.631361008E0
4.859336830E-1,-2.801301479E0,7.877163887E-1,8.547560692E0
4.879334160E-1,-2.583422422E0,7.637736797E-1,8.509252548E0
4.899331490E-1,-2.195549965E0,6.823683381E-1,8.504464149E0
4.919329490E-1,-1.941756845E0,6.703969240E-1,8.581081390E0
4.939316150E-1,-1.987248063E0,6.775797606E-1,8.643332481E0
4.959313480E-1,-2.322446585E0,7.422251701E-1,8.650514603E0
4.979310810E-1,-2.521171331E0,7.805336118E-1,8.569109917E0
4.999308140E-1,-3.093403101E0,6.608198285E-1,7.970541000E0
5.019306140E-1,-3.093403101E0,6.608198285E-1,7.970541000E0
5.039303470E-1,-3.191568375E0,5.722316504E-1,7.841249943E0
5.059300800E-1,-3.304099321E0,4.501236677E-1,7.565908432E0
5.079298800E-1,-3.301704884E0,4.549122155E-1,7.419857502E0
5.099296130E-1,-3.146077156E0,5.267404318E-1,7.027196407E0
5.119293460E-1,-2.944957972E0,5.411061049E-1,6.586649895E0
5.139290790E-1,-2.844398499E0,5.243461728E-1,6.407079220E0
5.159288120E-1,-2.612153769E0,5.506832004E-1,6.275394440E0
5.179285450E-1,-2.485257149E0,5.626545548E-1,6.397502422E0
5.199282780E-1,-1.755003452E0,5.913859010E-1,6.835654736E0
5.219280780E-1,-1.755003452E0,5.913859010E-1,6.835654736E0
5.239278780E-1,-1.546701550E0,6.177229285E-1,7.039167881E0
5.259276110E-1,-1.134886265E0,8.403904438E-1,7.676044941E0
5.279273440E-1,-7.829278708E-1,1.048692346E0,8.408693314E0
5.299270770E-1,-5.315290093E-1,1.177983165E0,8.621783257E0
5.319268100E-1,-3.974496126E-1,9.170072675E-1,8.854028702E0
5.339265430E-1,-5.913859010E-1,5.435003638E-1,9.225140572E0
5.359262760E-1,-4.189980924E-1,4.884320498E-1,1.047974110E1
5.379256420E-1,1.580221355E-1,8.379961848E-1,1.132491970E1
5.399253750E-1,4.118152559E-1,9.457385540E-1,1.121238899E1
5.419251410E-1,4.118152559E-1,9.457385540E-1,1.121238899E1
5.439248740E-1,4.501236677E-1,9.816526771E-1,1.103042412E1
5.459246070E-1,6.249057055E-1,1.177983165E0,1.068085957E1
5.479243400E-1,8.260248303E-1,1.472478986E0,1.037918091E1
5.499240730E-1,8.882759809E-1,1.582615614E0,1.018045616E1
5.519238060E-1,9.241901040E-1,1.702329397E0,9.663292885E0
5.539236060E-1,9.385557175E-1,1.743032098E0,9.359220505E0
5.559233390E-1,1.012778282E0,1.893871427E0,8.748680115E0
5.579230720E-1,1.046298146E0,2.123721838E0,8.188420296E0
5.599228050E-1,8.571503758E-1,2.423006058E0,7.774210453E0
5.619225050E-1,8.571503758E-1,2.423006058E0,7.774210453E0
5.639222380E-1,7.422251701E-1,2.588211060E0,7.841249943E0
5.659219710E-1,5.075862408E-1,2.672010660E0,7.963357925E0
5.679217040E-1,3.160442710E-1,2.834821463E0,8.341653824E0
5.699215040E-1,2.154847383E-1,2.877918243E0,8.569109917E0
5.719212700E-1,-1.197137404E-2,2.777358770E0,9.100638390E0
5.739210360E-1,-1.675992310E-1,2.518777132E0,9.531607628E0
5.759208020E-1,-1.771763414E-1,2.286532402E0,9.589070320E0
5.779205680E-1,8.379961550E-2,1.151646137E0,9.735121727E0
5.799203340E-1,9.122186899E-1,9.409499764E-1,9.040781975E0
5.819201000E-1,9.122186899E-1,1.429382086E0,9.040781975E0
5.839198660E-1,8.930644989E-1,1.901054144E0,8.458972931E0
5.859196990E-1,6.512427330E-1,2.200338602E0,8.332076073E0
5.879194650E-1,1.292908341E-1,2.394274712E0,8.322499275E0
5.899192310E-1,-7.182824612E-2,2.403851986E0,8.351230621E0
5.919189970E-1,-2.897072434E-1,2.298503876E0,8.408693314E0
5.939187630E-1,-3.208328187E-1,2.109356165E0,8.475732803E0
5.959185290E-1,-3.064671755E-1,2.006402254E0,8.506858826E0
5.979187290E-1,-3.375927508E-1,1.853168726E0,8.485309601E0
5.999185620E-1,-3.926610649E-1,1.697540879E0,8.315316200E0
6.019183620E-1,-3.926610649E-1,1.697540879E0,8.315316200E0
6.039181280E-1,-3.471698463E-1,1.690358043E0,8.260248184E0
6.059178940E-1,-3.304099143E-1,1.714300752E0,8.233911514E0
6.079176600E-1,-3.447755575E-1,1.838803053E0,8.178842545E0
6.099174260E-1,-3.399870098E-1,2.118933201E0,8.226728439E0
6.119171920E-1,-4.333637357E-1,2.221887112E0,8.260248184E0
6.139169580E-1,-6.368771195E-1,2.327235222E0,8.332076073E0
6.159167910E-1,-7.398309112E-1,2.336812258E0,8.367990494E0
6.179165570E-1,-8.547561169E-1,2.300898075E0,8.399115562E0
6.199163230E-1,-1.012778282E0,2.147664547E0,8.360807419E0
6.219161230E-1,-1.012778282E0,2.147664547E0,8.360807419E0
6.239158890E-1,-1.108549237E0,1.996825218E0,8.363202095E0
6.259156550E-1,-1.142069101E0,1.915419817E0,8.365595818E0
6.279154210E-1,-1.288119793E0,1.743032098E0,8.391933441E0
6.299151870E-1,-1.419804931E0,1.575432777E0,8.415876389E0
6.319149870E-1,-1.460507631E0,1.494027495E0,8.451789856E0
6.339147200E-1,-1.563461423E0,1.336005330E0,8.549955368E0
6.359144530E-1,-1.628106833E0,1.264177084E0,8.614601135E0
6.379141860E-1,-1.762186289E0,1.125309110E0,8.753468513E0
6.399139190E-1,-1.999219418E0,8.571503758E-1,8.990502357E0
6.419135850E-1,-2.078230619E0,7.518022656E-1,9.083878517E0
6.439133180E-1,-2.162030220E0,6.416656375E-1,9.177255630E0
6.459130510E-1,-2.250618219E0,5.363175869E-1,9.268238068E0
6.479128510E-1,-2.437371731E0,3.232271075E-1,9.450202942E0
6.499125840E-1,-2.645673752E0,1.101366431E-1,9.646533012E0
6.519123170E-1,-2.758204460E0,4.788549617E-3,9.732727051E0
6.539120500E-1,-2.959323645E0,-1.723877788E-1,9.869200706E0
6.559117830E-1,-3.057488918E0,-3.232271075E-1,9.912297249E0
6.579115160E-1,-3.210722446E0,-3.950553536E-1,9.957788467E0
6.599112490E-1,-3.363956213E0,-5.722316504E-1,9.936240196E0
6.619110150E-1,-3.363956213E0,-6.081457734E-1,9.919480324E0
6.639108150E-1,-3.385504484E0,-6.368771195E-1,9.902720451E0
6.659105480E-1,-3.373533249E0,-6.967339516E-1,9.881172180E0
6.679102810E-1,-3.342407703E0,-7.134938836E-1,9.881172180E0
6.699100140E-1,-3.265790939E0,-7.494080067E-1,9.917086601E0
6.719097470E-1,-3.201145411E0,-7.589851022E-1,9.957788467E0
6.739094800E-1,-3.069460392E0,-7.733507752E-1,1.007032013E1
6.759092130E-1,-2.921015263E0,-7.565908432E-1,1.018524456E1
6.779090130E-1,-2.813272953E0,-7.326480746E-1,1.023073673E1
6.799088130E-1,-2.408640385E0,-5.626545548E-1,1.028819847E1
6.819085130E-1,-2.236252785E0,-4.692778587E-1,1.028580475E1
6.839082460E-1,-2.042316437E0,-3.567469418E-1,1.028580475E1
6.859079790E-1,-1.587404251E0,-5.027977005E-2,1.029777622E1
6.879077120E-1,-1.352765322E0,1.149251908E-1,1.030256462E1
6.899074450E-1,-8.882759809E-1,4.597007632E-1,1.032650757E1
6.919071780E-1,-6.823683381E-1,6.201171875E-1,1.033129597E1
6.939069780E-1,-3.447755575E-1,9.122186899E-1,1.032890129E1
6.959067780E-1,-9.816526622E-2,1.151646137E0,1.031453609E1
6.979065110E-1,-2.154847234E-2,1.252205729E0,1.028341007E1
6.999062440E-1,1.508393139E-1,1.498816013E0,1.006313705E1
7.019060100E-1,1.508393139E-1,1.498816013E0,1.006313705E1
7.039057430E-1,1.652049571E-1,1.539518714E0,9.969759941E0
7.059054760E-1,1.675992310E-1,1.601769805E0,9.754275322E0
7.079052090E-1,1.747820675E-1,1.630501151E0,9.632167816E0
7.099050090E-1,1.675992310E-1,1.666415215E0,9.423865318E0
7.119047420E-1,2.154847383E-1,1.709512234E0,9.227535248E0
7.139044750E-1,2.944957912E-1,1.755003452E0,9.143735886E0
7.159042080E-1,4.980091453E-1,1.831620216E0,9.055147171E0
7.179039410E-1,5.818088055E-1,1.857957244E0,9.004867554E0
7.199036740E-1,9.170072675E-1,1.893871427E0,8.861210823E0
7.219034070E-1,9.170072675E-1,1.893871427E0,8.861210823E0
7.239031400E-1,9.768640995E-1,1.877111435E0,8.830085754E0
7.259029400E-1,1.106154919E0,1.822043180E0,8.758256912E0
7.279026730E-1,1.189954638E0,1.788523316E0,8.731920242E0
7.299024060E-1,1.328822494E0,1.692752242E0,8.734314919E0
7.319021390E-1,1.417410731E0,1.580221415E0,8.779806137E0
7.339018720E-1,1.455719113E0,1.537124395E0,8.822902679E0
7.359016050E-1,1.479661822E0,1.446141958E0,8.971347809E0
7.379013380E-1,1.477267504E0,1.398256540E0,9.064723969E0
7.399010710E-1,1.393467903E0,1.252205729E0,9.553156853E0
7.419008370E-1,1.340793848E0,1.252205729E0,9.553156853E0
7.439005700E-1,1.266571403E0,1.235445857E0,9.711178780E0
7.459003700E-1,1.053480864E0,1.245022893E0,1.007989693E1
7.479001030E-1,9.170072675E-1,1.292908430E0,1.027862167E1
7.498998360E-1,6.344828010E-1,1.326428294E0,1.070001411E1
7.518995690E-1,3.663240373E-1,1.434170604E0,1.114056110E1
7.538993020E-1,2.609759569E-1,1.477267504E0,1.135843945E1
7.558990350E-1,9.816526622E-2,1.510787368E0,1.174391747E1
7.578988350E-1,1.915419847E-2,1.474873304E0,1.199771118E1
7.598985680E-1,6.703969836E-2,1.309668303E0,1.239994907E1
7.618983340E-1,6.703969836E-2,1.309668303E0,1.239994907E1
7.638980670E-1,1.292908341E-1,1.242628574E0,1.253881741E1
7.658978000E-1,2.466102988E-1,1.091789365E0,1.305119228E1
7.678975330E-1,2.394274771E-1,8.882759809E-1,1.398017025E1
7.698972660E-1,2.705530524E-1,7.948992252E-1,1.428903198E1
7.718970660E-1,4.142095447E-1,7.326480746E-1,1.401608467E1
7.738971660E-1,4.453351200E-1,7.709565163E-1,1.367370319E1
7.758968990E-1,3.423812985E-1,9.792584181E-1,1.319245434E1
7.778966320E-1,9.098244458E-2,1.225868702E0,1.304400921E1
7.798963650E-1,-2.250618339E-1,1.364736676E0,1.284528446E1
7.818960650E-1,-2.250618339E-1,1.364736676E0,1.284528446E1
7.838957980E-1,-2.585816681E-1,1.345582485E0,1.275669575E1
7.858955310E-1,-2.130904645E-1,1.189954638E0,1.255557728E1
7.878953310E-1,-3.351984918E-2,1.005595446E0,1.222995567E1
7.898950640E-1,7.422251999E-2,9.170072675E-1,1.202404785E1
7.918947970E-1,2.106961906E-1,8.044763207E-1,1.150688457E1
7.938945300E-1,2.418217510E-1,7.637736797E-1,1.120520592E1
7.958942630E-1,1.795706153E-1,7.709565163E-1,1.051326084E1
7.978939960E-1,5.985686928E-2,8.451790214E-1,9.656110764E0
7.998937290E-1,-2.753416002E-1,9.816526771E-1,8.195602417E0
8.018935290E-1,-2.753416002E-1,9.816526771E-1,8.195602417E0
8.038933290E-1,-5.315290093E-1,1.108549237E0,7.280989647E0
8.058929950E-1,-6.775797606E-1,1.161223292E0,6.871568680E0
8.078927280E-1,-9.241901040E-1,1.297696948E0,6.361588001E0
8.098924610E-1,-9.768640995E-1,1.357553840E0,6.270605564E0
8.118921940E-1,-9.864411950E-1,1.434170604E0,6.131737709E0
8.138919270E-1,-1.115732074E0,1.403045058E0,5.901887417E0
8.158916600E-1,-1.060663700E0,1.424593568E0,5.830059052E0
8.178913930E-1,-7.853221297E-1,1.505998850E0,5.988081455E0
8.198911930E-1,-2.035133541E-1,1.680780888E0,6.581861496E0
8.218909260E-1,-2.035133541E-1,1.680780888E0,6.581861496E0
8.238906590E-1,1.867534369E-1,1.726272106E0,7.063110828E0
8.258903920E-1,3.687183261E-1,1.747820616E0,7.309720993E0
8.278901250E-1,7.087053657E-1,1.762186289E0,7.810124397E0
8.298898580E-1,8.691217303E-1,1.764580488E0,8.066311836E0
8.318895910E-1,1.146857619E0,1.771763325E0,8.614601135E0
8.338890240E-1,1.383890867E0,1.766974807E0,9.201197624E0
8.358888240E-1,1.479661822E0,1.750214934E0,9.464568138E0
8.378885570E-1,1.759791970E0,1.733454943E0,9.996097565E0
8.398882900E-1,2.157241583E0,1.738243461E0,1.097056675E1
8.418880560E-1,2.157241583E0,1.738243461E0,1.097056675E1
8.438877890E-1,2.291321039E0,1.561067224E0,1.397538185E1
8.458875220E-1,2.387091875E0,1.491633177E0,1.673837471E1
8.478872550E-1,2.624125242E0,1.604164124E0,1.917095757E1
8.498870550E-1,2.612153769E0,1.522758722E0,1.612544060E1
8.518868550E-1,2.588211060E0,1.460507631E0,1.477507019E1
8.538865880E-1,2.444554567E0,1.407833576E0,1.351807594E1
8.558863210E-1,2.310475111E0,1.374313712E0,1.336723614E1
8.578860540E-1,1.934574008E0,1.225868702E0,1.327864838E1
8.598857870E-1,1.565855742E0,9.313728809E-1,1.290993023E1
8.618854870E-1,1.565855742E0,9.313728809E-1,1.290993023E1
8.638852200E-1,1.424593568E0,8.140534163E-1,1.256515408E1
8.658850200E-1,1.352765322E0,7.853221297E-1,1.240234375E1
8.678847530E-1,1.228263021E0,7.925049663E-1,1.200968266E1
8.698844860E-1,1.118126392E0,8.571503758E-1,1.169842625E1
8.718842190E-1,1.082212210E0,9.313728809E-1,1.156913567E1
8.738839520E-1,1.051086664E0,1.106154919E0,1.121478367E1
8.758836850E-1,1.072635174E0,1.247417212E0,1.100648117E1
8.778834180E-1,1.256994247E0,1.594586968E0,1.057311726E1
8.798831510E-1,2.217098475E0,2.861158371E0,9.943423271E0
8.818829510E-1,2.217098475E0,2.861158371E0,9.943423271E0
8.838826840E-1,2.446948767E0,3.203539610E0,9.842864037E0
8.858824170E-1,2.612153769E0,3.529160976E0,9.792584419E0
8.878821500E-1,2.588211060E0,4.094210148E0,9.938634872E0
8.898818830E-1,2.025556564E0,4.393494129E0,1.036002731E1
8.918816160E-1,1.570644259E0,4.410254002E0,1.056593513E1
8.938813490E-1,5.171633363E-1,4.154066563E0,1.074550533E1
8.958810820E-1,-6.943397224E-2,3.507612705E0,1.052523232E1
8.978808820E-1,-1.268965602E0,3.100585938E0,1.022115898E1
8.998806150E-1,-2.614548206E0,1.740637779E0,8.693612099E0
9.018803150E-1,-2.614548206E0,1.740637779E0,8.693612099E0
9.038800480E-1,-2.944957972E0,9.194015265E-1,7.467742920E0
9.058797810E-1,-2.932986736E0,2.561874092E-1,6.325674057E0
9.078795140E-1,-2.875524044E0,2.873129770E-2,5.887521744E0
9.098792470E-1,-2.736656189E0,-2.250618339E-1,5.367964268E0
9.118789800E-1,-2.669616461E0,-2.681587934E-1,5.274587631E0
9.138787800E-1,-2.592999697E0,-1.268965602E-1,5.320078850E0
9.158785130E-1,-2.652856588E0,2.561874092E-1,5.523591995E0
9.178782460E-1,-2.719896078E0,5.123748183E-1,5.636122704E0
9.198779790E-1,-3.055094719E0,1.446141958E0,5.849213123E0
9.218777450E-1,-3.189173937E0,1.793311834E0,5.885127544E0
9.238774780E-1,-3.332830429E0,2.133298874E0,5.928224564E0
9.258772110E-1,-3.603383541E0,2.789330244E0,6.045543671E0
9.278770110E-1,-3.732674360E0,3.114951611E0,6.103006363E0
9.298768110E-1,-3.900273561E0,3.651269197E0,6.244268894E0
9.318765440E-1,-3.943370581E0,3.873936653E0,6.325674057E0
9.338762770E-1,-3.955342054E0,4.142095566E0,6.538764477E0
9.358760100E-1,-3.849993944E0,4.235472202E0,6.823683262E0
9.378757430E-1,-3.744645834E0,4.223500729E0,6.976916790E0
9.398754760E-1,-3.208328247E0,3.873936653E0,7.743084908E0
9.418751420E-1,-3.208328247E0,3.873936653E0,7.743084908E0
9.438749420E-1,-3.052700281E0,3.735068798E0,7.951386452E0
9.458747420E-1,-2.703136206E0,3.423812866E0,8.372778893E0
9.478744750E-1,-2.545114040E0,3.270579338E0,8.597841263E0
9.498742080E-1,-2.238646984E0,2.992843628E0,9.040781975E0
9.518739410E-1,-1.982459545E0,2.770175934E0,9.510059357E0
9.538736740E-1,-1.898659945E0,2.688770533E0,9.768641472E0
9.558734070E-1,-1.783734679E0,2.545114040E0,1.030016994E1
9.578731400E-1,-1.755003452E0,2.473285913E0,1.055635738E1
9.598729400E-1,-1.714300752E0,2.102173328E0,1.135843945E1
9.618727060E-1,-1.755003452E0,2.102173328E0,1.135843945E1
9.638724390E-1,-1.781340480E0,1.941756845E0,1.141829681E1
9.658721720E-1,-1.774157643E0,1.740637779E0,1.182053471E1
9.678719050E-1,-1.795706153E0,1.687963724E0,1.208629894E1
9.698716380E-1,-1.920208454E0,1.637683988E0,1.260585690E1
9.718713710E-1,-2.116539001E0,1.616135478E0,1.306316376E1
9.738711040E-1,-2.202732801E0,1.625712633E0,1.324752235E1
9.758709040E-1,-2.320052385E0,1.673598051E0,1.356117249E1
9.778706700E-1,-2.343995094E0,1.692752242E0,1.370243454E1
9.798704360E-1,-2.114144564E0,1.774157643E0,1.415495300E1
9.818701690E-1,-2.114144564E0,1.774157643E0,1.415495300E1
9.838699350E-1,-1.977671027E0,1.795706153E0,1.423635769E1
9.858697010E-1,-1.620923996E0,1.838803053E0,1.436804295E1
9.878694670E-1,-1.417410731E0,1.920208454E0,1.442071724E1
9.898692330E-1,-9.720755816E-1,1.953728199E0,1.442311192E1
9.918690660E-1,-5.051919818E-1,2.044710636E0,1.435607147E1
9.938688320E-1,-2.825244367E-1,2.104567528E0,1.429142666E1
9.958685980E-1,1.125309169E-1,2.224281311E0,1.407115269E1
9.978683640E-1,4.620950520E-1,2.351177931E0,1.371680069E1
9.998681300E-1,7.422251701E-1,2.478074312E0,1.326667690E1
1.001867930E0,7.422251701E-1,2.478074312E0,1.326667690E1
1.003867696E0,7.565908432E-1,2.492439985E0,1.319005966E1
1.005867462E0,7.254652381E-1,2.518777132E0,1.309668350E1
1.007867295E0,6.560313106E-1,2.547508478E0,1.284528446E1
1.009867061E0,6.368771195E-1,2.547508478E0,1.263219357E1
1.011866827E0,6.464542150E-1,2.535537004E0,1.205038548E1
1.013866593E0,6.703969240E-1,2.504411459E0,1.168884945E1
1.015866359E0,8.236305118E-1,2.468497276E0,1.089873886E1
1.017866125E0,9.792584181E-1,2.394274712E0,1.021397591E1
1.019865891E0,1.204320192E0,2.300898075E0,9.675264359E0
1.021865724E0,1.204320192E0,2.300898075E0,9.675264359E0
1.023865557E0,1.242628574E0,2.276955366E0,9.670475960E0
1.025865323E0,1.211503029E0,2.238646984E0,9.859623909E0
1.027865089E0,1.101366401E0,2.152452946E0,1.024989033E1
1.029864855E0,1.031932473E0,2.068653345E0,1.047016335E1
1.031864621E0,8.834874034E-1,1.843591571E0,1.090831566E1
1.033864387E0,8.308133483E-1,1.539518714E0,1.126506329E1
1.035864153E0,7.302538157E-1,1.374313712E0,1.141829681E1
1.037863953E0,6.488484740E-1,1.027143836E0,1.168406105E1
1.039863686E0,5.530774593E-1,5.099805593E-1,1.201207638E1
1.041863386E0,5.530774593E-1,5.099805593E-1,1.201207638E1
1.043863119E0,5.435003638E-1,2.466102988E-1,1.223474407E1
1.045862852E0,5.554717779E-1,1.436564922E-1,1.232572651E1
1.047862585E0,6.009629965E-1,9.577099234E-3,1.246459484E1
1.049862318E0,6.225114465E-1,-4.788549617E-2,1.251008606E1
1.051862051E0,6.919454336E-1,-1.675992310E-1,1.254121113E1
1.053861851E0,7.518022656E-1,-2.442160249E-1,1.248135471E1
1.055861584E0,8.020820618E-1,-2.873129845E-1,1.242149734E1
1.057860584E0,9.433442950E-1,-3.088614643E-1,1.228741837E1
1.059860317E0,1.177983165E0,-2.418217510E-1,1.208869362E1
1.061860083E0,1.240234375E0,-2.011190802E-1,1.205038548E1
1.063859816E0,1.285725594E0,-1.436564922E-1,1.200728798E1
1.065859549E0,1.333611012E0,-8.619388938E-2,1.194982529E1
1.067859282E0,1.501210332E0,4.070267081E-2,1.182292938E1
1.069859082E0,1.616135478E0,1.101366431E-1,1.175828362E1
1.071858815E0,1.841197371E0,2.561874092E-1,1.163378143E1
1.073858548E0,2.185972929E0,4.309694767E-1,1.148533630E1
1.075858281E0,2.389486313E0,5.243461728E-1,1.140393066E1
1.077858014E0,2.818061352E0,7.182824612E-1,1.113098335E1
1.079857747E0,3.627326250E0,1.161223292E0,1.036721039E1
1.081857447E0,3.627326250E0,1.161223292E0,1.036721039E1
1.083857180E0,4.137306690E0,1.462901950E0,9.759063721E0
1.085856980E0,4.376734257E0,1.616135478E0,9.450202942E0
1.087856713E0,4.774183750E0,1.905842781E0,8.894730568E0
1.089856446E0,5.051919937E0,2.178790092E0,8.557138443E0
1.091856179E0,5.135719299E0,2.296109438E0,8.480521202E0
1.093855912E0,5.233884811E0,2.468497276E0,8.442213058E0
1.095855645E0,5.236279011E0,2.506805658E0,8.478127480E0
1.097855378E0,5.224307537E0,2.537931204E0,8.633754730E0
1.099855178E0,5.114171028E0,2.372726440E0,9.088666916E0
1.101855044E0,5.114171028E0,2.372726440E0,9.088666916E0
1.103854777E0,4.956148624E0,2.080624819E0,9.562733650E0
1.105854510E0,4.865166187E0,1.886688590E0,9.838075638E0
1.107854243E0,4.640104771E0,1.407833576E0,1.047255802E1
1.109853976E0,4.364762783E0,9.194015265E-1,1.115253162E1
1.111853709E0,4.204346657E0,6.656084061E-1,1.149970150E1
1.113853442E0,3.802108288E0,2.226675600E-1,1.217967606E1
1.115853242E0,3.572257996E0,3.591412306E-2,1.252445126E1
1.117853708E0,3.086220264E0,-2.561874092E-1,1.318048286E1
1.119853441E0,2.367937803E0,-4.908263385E-1,1.409270191E1
1.121853174E0,2.123721838E0,-5.267404318E-1,1.437522602E1
1.123852907E0,1.884294271E0,-5.506832004E-1,1.464099026E1
1.125852640E0,1.664021015E0,-5.913859010E-1,1.487084103E1
1.127852373E0,1.321639657E0,-5.889915824E-1,1.522279930E1
1.129852106E0,1.151646137E0,-5.626545548E-1,1.549335194E1
1.131851906E0,1.122914910E0,-5.339232683E-1,1.558194065E1
1.133851639E0,1.158828974E0,-4.860377908E-1,1.560109425E1
1.135851372E0,1.333611012E0,-4.357580245E-1,1.540715885E1
1.137851105E0,1.448536277E0,-3.735068738E-1,1.522758770E1
1.139850838E0,1.908236980E0,-1.747820675E-1,1.445184231E1
1.141850604E0,2.109356165E0,-7.422251999E-2,1.410946178E1
1.143850337E0,2.334417820E0,4.309694469E-2,1.372637749E1
1.145850070E0,2.827638626E0,3.280156553E-1,1.290274715E1
1.147849870E0,3.059883118E0,5.027977228E-1,1.248135471E1
1.149849603E0,3.577046633E0,9.074301720E-1,1.159307861E1
1.151849336E0,3.852388144E0,1.146857619E0,1.115732098E1
1.153849069E0,4.424619675E0,1.635289669E0,1.037678719E1
1.155848802E0,4.932206154E0,2.126116037E0,9.766246796E0
1.157848535E0,5.140508175E0,2.367937803E0,9.490905762E0
1.159848268E0,5.650488377E0,3.002420664E0,8.815719604E0
1.161847968E0,5.789356709E0,3.208328247E0,8.645726204E0
1.163847768E0,5.918647289E0,3.387898922E0,8.509252548E0
1.165847501E0,6.100612164E0,3.629720688E0,8.262641907E0
1.167847234E0,6.182017326E0,3.708731651E0,8.133351326E0
1.169846967E0,6.272999763E0,3.852388144E0,7.941809654E0
1.171846700E0,6.287365437E0,3.876330853E0,7.891529560E0
1.173846433E0,6.246663094E0,3.881119490E0,7.790970325E0
1.175846166E0,6.095823765E0,3.878725290E0,7.733507633E0
1.177845966E0,5.983292580E0,3.854782343E0,7.759844780E0
1.179845766E0,5.312895775E0,3.701548815E0,7.879558563E0
1.181845499E0,5.312895775E0,3.701548815E0,7.879558563E0
1.183845232E0,5.128536701E0,3.644086361E0,7.960963726E0
1.185844965E0,4.687990189E0,3.490852594E0,8.178842545E0
1.187844698E0,4.460534096E0,3.407052994E0,8.288979530E0
1.189844431E0,4.031958580E0,3.261002302E0,8.535589218E0
1.191844164E0,3.596200705E0,3.088614464E0,8.904308319E0
1.193843964E0,3.368744612E0,2.985660791E0,9.107821465E0
1.195843764E0,2.913832426E0,2.767781734E0,9.502876282E0
1.197843530E0,2.710319042E0,2.667222023E0,9.699207306E0
1.199843296E0,2.130904675E0,2.396669149E0,1.035523891E1
1.201843029E0,1.958516836E0,2.308080912E0,1.056114578E1
1.203842795E0,1.812466025E0,2.243435383E0,1.073832226E1
1.205842561E0,1.628106833E0,2.197944164E0,1.103760719E1
1.207842327E0,1.568249941E0,2.202732801E0,1.117408085E1
1.209842160E0,1.503604531E0,2.269772530E0,1.137041092E1
1.211842026E0,1.551490068E0,2.372726440E0,1.147575951E1
1.213841892E0,1.594586968E0,2.423006058E0,1.151167297E1
1.215841758E0,1.738243461E0,2.523565531E0,1.153561592E1
1.217841624E0,1.831620216E0,2.626519442E0,1.154758739E1
1.219841490E0,2.276955366E0,2.765387297E0,1.163617516E1
1.221841390E0,2.276955366E0,2.765387297E0,1.163617516E1
1.223841256E0,2.375120640E0,2.810878515E0,1.164575291E1
1.225841189E0,2.578634024E0,2.861158371E0,1.164096451E1
1.227841122E0,2.786935806E0,2.916226625E0,1.157631874E1
1.229841055E0,2.889889717E0,2.954535007E0,1.150688457E1
1.231840988E0,3.074248791E0,3.031152010E0,1.130815983E1
1.233840921E0,3.136499882E0,3.088614464E0,1.117886925E1
1.235840854E0,3.244242430E0,3.217905283E0,1.086761379E1
1.237840787E0,3.304099321E0,3.344801903E0,1.048931789E1
1.239840720E0,3.232270956E0,3.517189741E0,9.773429871E0
1.241840653E0,3.232270956E0,3.517189741E0,9.773429871E0
1.243840619E0,3.184385538E0,3.579440832E0,9.534002304E0
1.245840585E0,3.102980137E0,3.672817469E0,9.079090118E0
1.247840551E0,3.011997700E0,3.739857197E0,8.664880753E0
1.249840517E0,2.947352171E0,3.770982742E0,8.475732803E0
1.251840483E0,2.767781734E0,3.818868399E0,8.133351326E0
1.253840449E0,2.691164970E0,3.840416908E0,7.968146324E0
1.255840415E0,2.559479713E0,3.878725290E0,7.649707794E0
1.257840415E0,2.399063349E0,3.926610708E0,7.331269264E0
1.259840381E0,2.140481710E0,3.969707727E0,6.878751755E0
1.261840381E0,2.140481710E0,3.969707727E0,6.878751755E0
1.263840347E0,2.056682110E0,3.981678963E0,6.742278099E0
1.265840313E0,1.881899953E0,3.979284763E0,6.567495823E0
1.267840279E0,1.738243461E0,3.960130453E0,6.505244732E0
1.269840245E0,1.683175206E0,3.943370581E0,6.502850533E0
1.271840178E0,1.575432777E0,3.933793545E0,6.555524349E0
1.273840111E0,1.489238977E0,3.933793545E0,6.684815407E0
1.275840011E0,1.438959122E0,3.931399345E0,6.744672298E0
1.277839911E0,1.347976685E0,3.873936653E0,6.878751755E0
1.279839811E0,1.237840056E0,3.775771379E0,7.027196407E0
1.281839677E0,1.237840056E0,3.775771379E0,7.027196407E0
1.283839577E0,1.175588965E0,3.739857197E0,7.079870701E0
1.285839477E0,1.166011810E0,3.708731651E0,7.096630573E0
1.287839377E0,1.235445857E0,3.699154615E0,7.115784645E0
1.289839277E0,1.319245458E0,3.687183142E0,7.132544518E0
1.291839177E0,1.549095750E0,3.670423269E0,7.163670063E0
1.293839077E0,1.810071707E0,3.708731651E0,7.261835575E0
1.295838977E0,1.934574008E0,3.727885962E0,7.331269264E0
1.297838877E0,2.147664547E0,3.787742853E0,7.453377247E0
1.299838777E0,2.312869549E0,3.816473961E0,7.515628815E0
1.301838710E0,2.312869549E0,3.816473961E0,7.515628815E0
1.303838643E0,2.346389294E0,3.826051235E0,7.458166122E0
1.305838509E0,2.360754967E0,3.818868399E0,7.429434776E0
1.307838375E0,2.384697676E0,3.821262598E0,7.367183685E0
1.309838241E0,2.399063349E0,3.826051235E0,7.343240738E0
1.311838107E0,2.446948767E0,3.833234072E0,7.364789486E0
1.313837973E0,2.502017260E0,3.840416908E0,7.467742920E0
1.315837839E0,2.513988495E0,3.840416908E0,7.525205612E0
1.317837705E0,2.545114040E0,3.842811108E0,7.644919395E0
1.319837605E0,2.633702278E0,3.792531252E0,7.862798691E0
1.321837438E0,2.633702278E0,3.792531252E0,7.862798691E0
1.323837271E0,2.719896078E0,3.797319889E0,7.994483471E0
1.325837104E0,2.762993097E0,3.799714088E0,8.051946640E0
1.327836937E0,2.889889717E0,3.818868399E0,8.152505875E0
1.329836770E0,3.002420664E0,3.881119490E0,8.241093636E0
1.331836603E0,3.059883118E0,3.919427872E0,8.277008057E0
1.333836436E0,3.143682718E0,3.996044636E0,8.334470749E0
1.335836302E0,3.172414064E0,4.022381783E0,8.367990494E0
1.337836102E0,3.196356773E0,4.060689926E0,8.432636261E0
1.339835902E0,3.150865555E0,4.034353256E0,8.554743767E0
1.341835668E0,3.150865555E0,4.034353256E0,8.554743767E0
1.343835468E0,3.081431627E0,4.019987583E0,8.607418060E0
1.345835268E0,3.043123245E0,4.015198708E0,8.609811783E0
1.347835068E0,2.956929445E0,3.976890564E0,8.542772293E0
1.349834868E0,2.906649590E0,3.948159218E0,8.384750366E0
1.351834668E0,2.897072554E0,3.938581944E0,8.286584854E0
1.353834401E0,2.897072554E0,3.919427872E0,8.073494911E0
1.355834134E0,2.911438227E0,3.940976381E0,7.975329399E0
1.357833867E0,2.956929445E0,3.972101927E0,7.824490070E0
1.359833600E0,3.000026226E0,4.058295727E0,7.723930359E0
1.361833366E0,3.007209063E0,4.079844475E0,7.719141960E0
1.363833099E0,3.009603500E0,4.101392746E0,7.731113434E0
1.365832899E0,3.023969173E0,4.087027073E0,7.812518597E0
1.367832632E0,3.028757572E0,4.072661400E0,7.855615616E0
1.369831932E0,3.059883118E0,4.058295727E0,7.958569527E0
1.371831665E0,3.086220264E0,4.046324253E0,8.006455421E0
1.373831398E0,3.138894320E0,4.039141655E0,8.078283310E0
1.375831131E0,3.158048391E0,4.041535854E0,8.097437859E0
1.377830864E0,3.146077156E0,4.048718929E0,8.073494911E0
1.379830597E0,3.047911882E0,4.082238674E0,7.989695072E0
1.381830363E0,2.990449190E0,4.094210148E0,7.946598053E0
1.383830096E0,2.930592299E0,4.089421272E0,7.908289909E0
1.385829829E0,2.760598898E0,4.094210148E0,7.836461544E0
1.387829562E0,2.660039425E0,4.082238674E0,7.786181450E0
1.389829295E0,2.490045786E0,4.060689926E0,7.647313595E0
1.391829028E0,2.418217659E0,4.055901527E0,7.580274105E0
1.393828761E0,2.286532402E0,4.039141655E0,7.436617374E0
1.395828494E0,2.152452946E0,4.051113129E0,7.273807049E0
1.397828294E0,2.094990492E0,4.063084126E0,7.187613010E0
1.399828027E0,1.968093872E0,4.146883965E0,6.962551117E0
1.401827827E0,1.913025618E0,4.170826912E0,6.914665699E0
1.403827560E0,1.872322917E0,4.187586784E0,6.883540154E0
1.405827293E0,1.790917516E0,4.240260601E0,6.816500187E0
1.407827026E0,1.743032098E0,4.261809349E0,6.790163517E0
1.409826759E0,1.640078187E0,4.297723293E0,6.744672298E0
1.411826492E0,1.573038578E0,4.352791786E0,6.696786404E0
1.413826292E0,1.541913033E0,4.367157459E0,6.677632332E0
1.415826025E0,1.501210332E0,4.400677204E0,6.632141113E0
1.417825758E0,1.496421814E0,4.427014351E0,6.615381241E0
1.419825491E0,1.628106833E0,4.587430477E0,6.608198643E0
1.421825224E0,1.628106833E0,4.587430477E0,6.608198643E0
1.423824957E0,1.666415215E0,4.635315895E0,6.629746914E0
1.425824690E0,1.745426297E0,4.719115734E0,6.713546753E0
1.427824490E0,1.788523316E0,4.738269806E0,6.766220570E0
1.429824723E0,1.855562925E0,4.783761024E0,6.895511627E0
1.431824456E0,1.812466025E0,4.826858044E0,7.051139355E0
1.433824189E0,1.783734679E0,4.841223717E0,7.163670063E0
1.435823922E0,1.743032098E0,4.838829517E0,7.417463303E0
1.437823655E0,1.723877907E0,4.824463844E0,7.549148560E0
1.439823388E0,1.826831698E0,4.716721535E0,8.095043182E0
1.441823154E0,1.826831698E0,4.716721535E0,8.095043182E0
1.443822954E0,1.879505754E0,4.709538460E0,8.226728439E0
1.445822754E0,1.987248063E0,4.685595989E0,8.456578255E0
1.447822487E0,2.044710636E0,4.687990189E0,8.554743767E0
1.449822220E0,2.111750364E0,4.716721535E0,8.700794220E0
1.451821953E0,2.166818619E0,4.747847080E0,8.779806137E0
1.453821686E0,2.181184292E0,4.752635479E0,8.782199860E0
1.455821419E0,2.164424419E0,4.762212753E0,8.772623062E0
1.457821152E0,2.142875910E0,4.745452881E0,8.712765694E0
1.459820952E0,1.977671027E0,4.690384388E0,8.573898315E0
1.461820652E0,1.977671027E0,4.690384388E0,8.573898315E0
1.463820385E0,1.932179809E0,4.702355862E0,8.511647224E0
1.465820118E0,1.879505754E0,4.690384388E0,8.360807419E0
1.467819851E0,1.853168726E0,4.743058205E0,8.176448822E0
1.469819584E0,1.848380208E0,4.793338299E0,8.066311836E0
1.471819317E0,1.857957244E0,4.901080608E0,7.838855743E0
1.473819517E0,1.877111435E0,4.968120098E0,7.723930359E0
1.475819317E0,1.910631299E0,5.071074009E0,7.534782887E0
1.477819050E0,1.922602654E0,5.142902374E0,7.371972084E0
1.479818783E0,1.824437380E0,5.193181992E0,7.190007210E0
1.481818516E0,1.824437380E0,5.193181992E0,7.190007210E0
1.483818249E0,1.786128998E0,5.202759266E0,7.144515991E0
1.485817982E0,1.666415215E0,5.188393593E0,7.082264900E0
1.487817715E0,1.539518714E0,5.200365067E0,7.041562080E0
1.489817448E0,1.467690468E0,5.197970390E0,7.017619610E0
1.491817248E0,1.314456820E0,5.181210518E0,6.964945316E0
1.493816981E0,1.249811411E0,5.176422119E0,6.931425571E0
1.495816714E0,1.110943556E0,5.147690773E0,6.854808807E0
1.497816447E0,9.864411950E-1,5.135719299E0,6.787769318E0
1.499816180E0,8.379961848E-1,5.128536701E0,6.756643295E0
1.501815880E0,8.379961848E-1,5.128536701E0,6.756643295E0
1.503815613E0,7.901107073E-1,5.090228081E0,6.787769318E0
1.505815346E0,6.775797606E-1,5.083045483E0,6.828471661E0
1.507815146E0,5.482889414E-1,5.059102535E0,6.931425571E0
1.509814879E0,4.764606953E-1,5.035160065E0,6.979310989E0
1.511814612E0,3.184385598E-1,4.992063046E0,7.079870701E0
1.513814345E0,1.628106833E-1,4.920234680E0,7.211555958E0
1.515814078E0,7.901106775E-2,4.879531860E0,7.264229774E0
1.517813811E0,-6.703969836E-2,4.826858044E0,7.367183685E0
1.519813544E0,-1.867534369E-1,4.755029678E0,7.537177086E0
1.521813377E0,-1.867534369E-1,4.755029678E0,7.537177086E0
1.523813177E0,-1.628106833E-1,4.755029678E0,7.702382088E0
1.525812910E0,-1.245022863E-1,4.759818554E0,7.795758724E0
1.527812643E0,-9.577099234E-3,4.778972626E0,7.946598053E0
1.529812376E0,5.985686928E-2,4.778972626E0,7.982511997E0
1.531812109E0,1.675992310E-1,4.778972626E0,8.063917160E0
1.533811375E0,2.106961906E-1,4.886714935E0,8.269824982E0
1.535811108E0,2.130904645E-1,4.996851444E0,8.394327164E0
1.537810908E0,2.346389294E-1,5.195576191E0,8.657697678E0
1.539810641E0,3.208328187E-1,5.358386993E0,8.889942169E0
1.541810307E0,3.208328187E-1,5.375146866E0,8.930644989E0
1.543810040E0,3.663240373E-1,5.379935265E0,8.976136208E0
1.545809773E0,3.759011328E-1,5.379935265E0,9.021627426E0
1.547809506E0,4.022381604E-1,5.360781193E0,9.117398262E0
1.549809239E0,4.237866402E-1,5.363175392E0,9.210775375E0
1.551808972E0,4.932205975E-1,5.360781193E0,9.249083519E0
1.553808772E0,5.482889414E-1,5.384724140E0,9.277814865E0
1.555808505E0,5.650488734E-1,5.408666611E0,9.280209541E0
1.557808238E0,6.033572555E-1,5.470917702E0,9.220352173E0
1.559808271E0,6.488484740E-1,5.566689014E0,9.002472878E0
1.561808004E0,6.488484740E-1,5.566689014E0,9.002472878E0
1.563807737E0,6.632141471E-1,5.655277252E0,8.810931206E0
1.565807470E0,6.560313106E-1,5.698374271E0,8.715160370E0
1.567807203E0,6.536370516E-1,5.760625362E0,8.542772293E0
1.569807003E0,6.416656375E-1,5.789356709E0,8.375173569E0
1.571806736E0,6.320885420E-1,5.806116581E0,8.296162605E0
1.573806469E0,6.153286099E-1,5.858790398E0,8.133351326E0
1.575806202E0,6.105400920E-1,5.865973473E0,8.054340363E0
1.577805968E0,5.985686779E-1,5.877944469E0,7.913078308E0
1.579805701E0,6.105400920E-1,5.913858891E0,7.752661705E0
1.581805434E0,6.105400920E-1,5.913858891E0,7.752661705E0
1.583805167E0,6.033572555E-1,5.937801361E0,7.702382088E0
1.585804967E0,6.009629965E-1,5.952167034E0,7.683228016E0
1.587804700E0,5.889915824E-1,5.976109982E0,7.640130997E0
1.589804433E0,5.889915824E-1,5.992869854E0,7.606611252E0
1.591804166E0,5.937801600E-1,6.007235527E0,7.587456703E0
1.593803899E0,6.201171875E-1,6.021601200E0,7.515628815E0
1.595803632E0,6.368771195E-1,6.035966873E0,7.460560322E0
1.597803365E0,6.919454336E-1,6.035966873E0,7.429434776E0
1.599803165E0,8.571503758E-1,6.095823765E0,7.364789486E0
1.601802998E0,8.571503758E-1,6.095823765E0,7.364789486E0
1.603802731E0,9.074301720E-1,6.112583637E0,7.360000610E0
1.605802464E0,9.936240315E-1,6.167652130E0,7.357606411E0
1.607802197E0,1.034326673E0,6.189200401E0,7.352818012E0
1.609801930E0,1.125309110E0,6.227508545E0,7.348029613E0
1.611801663E0,1.146857619E0,6.251451492E0,7.348029613E0
1.613801396E0,1.158828974E0,6.275394440E0,7.350423813E0
1.615801196E0,1.142069101E0,6.294548512E0,7.367183685E0
1.617800996E0,1.130097747E0,6.284971237E0,7.369577885E0
1.619800429E0,1.034326673E0,6.241874218E0,7.355212212E0
1.621800195E0,1.000806928E0,6.215537548E0,7.333663940E0
1.623799928E0,9.624984860E-1,6.184412003E0,7.304932594E0
1.625799661E0,8.643332124E-1,6.136526108E0,7.230710030E0
1.627799394E0,8.212362528E-1,6.110189438E0,7.197190285E0
1.629799127E0,7.661679387E-1,6.081458092E0,7.146910191E0
1.631798927E0,7.518022656E-1,6.069486618E0,7.118178844E0
1.633798493E0,7.039167881E-1,6.064698219E0,7.110996246E0
1.635798259E0,6.775797606E-1,6.083852291E0,7.158881664E0
1.637797992E0,6.775797606E-1,6.083852291E0,7.187613010E0
1.639797325E0,6.847625971E-1,6.033572674E0,7.269018173E0
1.641797191E0,6.991282701E-1,6.016812801E0,7.304932594E0
1.643796957E0,7.039167881E-1,6.012023926E0,7.338452339E0
1.645796723E0,7.278595567E-1,5.988081455E0,7.386337757E0
1.647796556E0,7.422251701E-1,5.980898380E0,7.431828976E0
1.649796322E0,7.613793612E-1,5.956955910E0,7.498868465E0
1.651796088E0,7.589851022E-1,5.952167034E0,7.556331158E0
1.653795854E0,7.589851022E-1,5.940196037E0,7.575485706E0
1.655795620E0,7.709565163E-1,5.935407162E0,7.589851379E0
1.657795386E0,7.709565163E-1,5.928224564E0,7.587456703E0
1.659795152E0,7.805336118E-1,5.949772835E0,7.539571285E0
1.661794952E0,7.805336118E-1,5.949772835E0,7.539571285E0
1.663794785E0,7.877163887E-1,5.952167034E0,7.496474266E0
1.665794551E0,7.853221297E-1,5.937801361E0,7.424646378E0
1.667794317E0,7.948992252E-1,5.942590237E0,7.391126156E0
1.669794083E0,8.068706393E-1,5.940196037E0,7.290566921E0
1.671793849E0,8.284190893E-1,5.923435688E0,7.180429935E0
1.673793615E0,8.499675393E-1,5.906675816E0,7.122967720E0
1.675793381E0,8.595446348E-1,5.870761871E0,7.010436535E0
1.677793147E0,8.427847624E-1,5.861184597E0,6.943397045E0
1.679792980E0,7.326480746E-1,5.863578796E0,6.646506786E0
1.681792946E0,7.326480746E-1,5.863578796E0,6.646506786E0
1.683792712E0,6.967339516E-1,5.858790398E0,6.562707424E0
1.685792478E0,6.081457734E-1,5.818087578E0,6.416656494E0
1.687792244E0,5.674431324E-1,5.813299179E0,6.311308384E0
1.689792010E0,5.123748183E-1,5.808510780E0,6.272999763E0
1.691791776E0,4.812492430E-1,5.808510780E0,6.241874218E0
1.693791776E0,5.004034638E-1,5.813299179E0,6.234691620E0
1.695791576E0,5.435003638E-1,5.844424725E0,6.270605564E0
1.697791309E0,6.105400920E-1,5.870761871E0,6.308914185E0
1.699791475E0,7.087053657E-1,5.868367672E0,6.342433929E0
1.701791108E0,7.087053657E-1,5.868367672E0,6.342433929E0
1.703790841E0,7.278595567E-1,5.868367672E0,6.335251331E0
1.705790574E0,7.733507752E-1,5.875550270E0,6.328068256E0
1.707790307E0,8.475732803E-1,5.880339146E0,6.301731110E0
1.709790107E0,8.906702399E-1,5.880339146E0,6.296942711E0
1.711789840E0,9.648927450E-1,5.897099018E0,6.294548512E0
1.713789573E0,9.984126091E-1,5.913858891E0,6.304125786E0
1.715789306E0,1.065452337E0,5.925830364E0,6.320885658E0
1.717789039E0,1.130097747E0,5.944984436E0,6.354405403E0
1.719788772E0,1.199531674E0,5.935407162E0,6.352011204E0
1.721788505E0,1.199531674E0,5.935407162E0,6.352011204E0
1.723788371E0,1.206714511E0,5.930618763E0,6.352011204E0
1.725788171E0,1.218685865E0,5.944984436E0,6.340039730E0
1.727787904E0,1.194743156E0,5.944984436E0,6.328068256E0
1.729787637E0,1.182771802E0,5.949772835E0,6.330462456E0
1.731787370E0,1.144463301E0,5.935407162E0,6.366376877E0
1.733787103E0,1.130097747E0,5.921041489E0,6.419050694E0
1.735786836E0,1.101366401E0,5.921041489E0,6.572284222E0
1.737786569E0,1.079817891E0,5.921041489E0,6.766220570E0
1.739786302E0,1.022355318E0,5.899493217E0,7.108602047E0
1.741785902E0,1.022355318E0,5.899493217E0,7.108602047E0
1.743785635E0,9.696813226E-1,5.873156071E0,7.297749519E0
1.745785368E0,9.433442950E-1,5.858790398E0,7.386337757E0
1.747785101E0,8.643332124E-1,5.825270653E0,7.522811413E0
1.749784834E0,8.236305118E-1,5.806116581E0,7.582668304E0
1.751784567E0,7.541965842E-1,5.796539307E0,7.673650742E0
1.753784300E0,7.039167881E-1,5.770202160E0,7.731113434E0
1.755784033E0,6.871568561E-1,5.755836487E0,7.757450581E0
1.757783833E0,6.488484740E-1,5.751048088E0,7.814912796E0
1.759783566E0,5.865973234E-1,5.729499817E0,7.896318436E0
1.761783266E0,5.865973234E-1,5.729499817E0,7.896318436E0
1.763782999E0,5.458946824E-1,5.703162670E0,7.956175327E0
1.765782732E0,5.147690773E-1,5.707951069E0,7.975329399E0
1.767782465E0,4.644893110E-1,5.688796997E0,7.975329399E0
1.769782198E0,4.357580245E-1,5.674431324E0,7.965752125E0
1.771781998E0,3.735068738E-1,5.643305779E0,7.913078308E0
1.773781798E0,3.160442710E-1,5.640911579E0,7.826884270E0
1.775781531E0,2.825244367E-1,5.633728504E0,7.755055904E0
1.777781264E0,2.394274771E-1,5.660065651E0,7.573091030E0
1.779780997E0,2.178790122E-1,5.722316742E0,7.125361919E0
1.781780730E0,2.011190802E-1,5.722316742E0,7.125361919E0
1.783780330E0,1.915419847E-1,5.743865490E0,7.012830734E0
1.785779630E0,1.987248063E-1,5.767807961E0,6.897905827E0
1.787779430E0,1.819648892E-1,5.815693378E0,6.689603806E0
1.789779163E0,1.939362586E-1,5.844424725E0,6.517216206E0
1.791778896E0,1.819648892E-1,5.863578796E0,6.433416367E0
1.793778629E0,1.675992310E-1,5.906675816E0,6.277788639E0
1.795778362E0,1.508393139E-1,5.918647289E0,6.203566074E0
1.797778095E0,1.173194647E-1,5.916253090E0,6.079063892E0
1.799777828E0,9.337671846E-2,5.935407162E0,5.880339146E0
1.801777528E0,9.337671846E-2,5.935407162E0,5.880339146E0
1.803777328E0,7.422251999E-2,5.947378635E0,5.760625362E0
1.805777061E0,6.703969836E-2,5.954561234E0,5.700768471E0
1.807776794E0,8.379961550E-2,5.973715782E0,5.604997158E0
1.809776527E0,1.628106833E-1,5.988081455E0,5.530774593E0
1.811776260E0,2.106961906E-1,6.012023926E0,5.499649048E0
1.813775993E0,3.280156553E-1,6.038361073E0,5.466129303E0
1.815775726E0,3.711125851E-1,6.067092419E0,5.451763630E0
1.817775459E0,4.644893110E-1,6.112583637E0,5.413455486E0
1.819775259E0,5.147690773E-1,6.141314983E0,5.355992794E0
1.821775025E0,5.147690773E-1,6.155680656E0,5.355992794E0
1.823774758E0,5.291347504E-1,6.155680656E0,5.377541065E0
1.825774491E0,5.315290093E-1,6.126949310E0,5.401484013E0
1.827774224E0,5.435003638E-1,6.110189438E0,5.506832123E0
1.829773957E0,5.363175869E-1,6.057515144E0,5.693585396E0
1.831773690E0,5.291347504E-1,6.035966873E0,5.798933506E0
1.833773423E0,5.219519138E-1,5.971321583E0,6.031178474E0
1.835773223E0,5.243461728E-1,5.894704342E0,6.237085819E0
1.837772956E0,5.363175869E-1,5.873156071E0,6.330462456E0
1.839772689E0,5.530774593E-1,5.842030525E0,6.565101624E0
1.841772355E0,5.578660369E-1,5.827664852E0,6.615381241E0
1.843772088E0,5.794144869E-1,5.827664852E0,6.668055534E0
1.845772254E0,6.225114465E-1,5.844424725E0,6.754249096E0
1.847771987E0,6.368771195E-1,5.844424725E0,6.785374641E0
1.849771787E0,6.727912426E-1,5.851607800E0,6.835654736E0
1.851771587E0,6.943396926E-1,5.849213123E0,6.850020409E0
1.853771320E0,7.350423932E-1,5.849213123E0,6.888328552E0
1.855771053E0,7.446194887E-1,5.849213123E0,6.912271500E0
1.857770786E0,7.446194887E-1,5.827664852E0,6.924242973E0
1.859770519E0,7.398309112E-1,5.784567833E0,6.917059898E0
1.861770252E0,7.518022656E-1,5.763019562E0,6.907482624E0
1.863769985E0,7.685621977E-1,5.748653889E0,6.902694225E0
1.865769785E0,7.853221297E-1,5.688796997E0,6.895511627E0
1.867769585E0,7.996878028E-1,5.657671452E0,6.890722752E0
1.869769318E0,8.571503758E-1,5.588237286E0,6.883540154E0
1.871769051E0,8.858816624E-1,5.494860649E0,6.883540154E0
1.873768784E0,9.672870040E-1,5.446975231E0,6.883540154E0
1.875768517E0,1.060663700E0,5.322473049E0,6.873962879E0
1.877768250E0,1.120520592E0,5.253038883E0,6.850020409E0
1.879767983E0,1.343188167E0,5.027976990E0,6.775797844E0
1.881767783E0,1.441353440E0,4.939388752E0,6.761432171E0
1.883767516E0,1.558672905E0,4.846012115E0,6.744672298E0
1.885767249E0,1.817254543E0,4.601796150E0,6.701575279E0
1.887766982E0,1.939362645E0,4.474899769E0,6.660872459E0
1.889766415E0,2.130904675E0,4.192375183E0,6.526793003E0
1.891766148E0,2.150058746E0,3.802108288E0,6.335251331E0
1.893765881E0,2.044710636E0,3.517189741E0,6.220325947E0
1.895765614E0,1.750214934E0,2.952140808E0,5.959350109E0
1.897765414E0,1.599375606E0,2.722290516E0,5.818087578E0
1.899765147E0,1.154040456E0,1.757397652E0,5.226701736E0
1.901764913E0,1.154040456E0,1.757397652E0,5.226701736E0
1.903764646E0,1.067846537E0,1.482056141E0,5.061496735E0
1.905764379E0,7.925049663E-1,9.217957854E-1,4.640104771E0
1.907764112E0,5.722316504E-1,6.512427330E-1,4.391099930E0
1.909763845E0,-4.309694469E-2,6.703969836E-2,3.888302326E0
1.911763578E0,-9.050358534E-1,-5.698373914E-1,3.392687321E0
1.913763378E0,-1.400650740E0,-9.313728809E-1,3.158048391E0
1.915763111E0,-2.446948767E0,-1.733454943E0,2.703136206E0
1.917762844E0,-2.983266354E0,-2.164424419E0,2.492439985E0
1.919762577E0,-5.032765865E0,-3.969707727E0,1.884294271E0
1.921762343E0,-5.032765865E0,-3.969707727E0,1.884294271E0
1.923762076E0,-5.504437923E0,-4.386311531E0,1.795706153E0
1.925761809E0,-6.452570438E0,-5.238673210E0,1.666415215E0
1.927761542E0,-6.941002846E0,-5.997658253E0,1.606558442E0
1.929761342E0,-7.920260906E0,-6.349617004E0,1.606558442E0
1.931761075E0,-8.868393898E0,-7.046350956E0,1.620923996E0
1.933760808E0,-9.318517685E0,-7.362394810E0,1.652049661E0
1.935760541E0,-1.015890789E1,-7.946598053E0,1.766974807E0
1.937760274E0,-1.090592194E1,-8.492492676E0,1.939362645E0
1.939760007E0,-1.180856323E1,-9.323306084E0,2.245829821E0
1.941759707E0,-1.180856323E1,-9.323306084E0,2.245829821E0
1.943759507E0,-1.205038548E1,-9.596253395E0,2.377514839E0
1.945759307E0,-1.247177792E1,-1.015651417E1,2.674404860E0
1.947759040E0,-1.277345657E1,-1.067607117E1,3.033546209E0
1.949759073E0,-1.285964966E1,-1.090831566E1,3.241847992E0
1.951758806E0,-1.294105530E1,-1.134167957E1,3.668029070E0
1.953758539E0,-1.294584370E1,-1.154040432E1,3.869148016E0
1.955758272E0,-1.282373619E1,-1.190433407E1,4.218712330E0
1.957758005E0,-1.247656631E1,-1.236164093E1,4.417437077E0
1.959757805E0,-1.170321560E1,-1.283091831E1,4.707144260E0
1.961757571E0,-1.147815323E1,-1.282373619E1,4.920234680E0
1.963757304E0,-1.147815323E1,-1.282373619E1,4.920234680E0
1.965757037E0,-1.096098995E1,-1.268486786E1,5.303318501E0
1.967756770E0,-1.029777622E1,-1.257233715E1,5.672037125E0
1.969756503E0,-9.919480324E0,-1.254121113E1,5.856396198E0
1.971756236E0,-9.119792938E0,-1.241192055E1,6.119766235E0
1.973755969E0,-8.696005821E0,-1.221798420E1,6.184412003E0
1.975755769E0,-7.853221416E0,-1.209827042E1,6.148497581E0
1.977755502E0,-7.022408009E0,-1.187799740E1,5.964138508E0
1.979755235E0,-5.916253090E0,-1.159786701E1,5.430215359E0
1.981754935E0,-5.916253090E0,-1.159786701E1,5.430215359E0
1.983754668E0,-5.248250484E0,-1.142547894E1,4.917840481E0
1.985754401E0,-4.927417755E0,-1.135604572E1,4.630527496E0
1.987754134E0,-4.268991947E0,-1.122914886E1,4.027170181E0
1.989753867E0,-3.917033672E0,-1.116210938E1,3.711125851E0
1.991753667E0,-3.162837029E0,-1.101126957E1,3.117345810E0
1.993753400E0,-2.360754967E0,-1.081254482E1,2.540325642E0
1.995753133E0,-1.915419817E0,-1.068325424E1,2.236252785E0
1.997752866E0,-9.816526771E-1,-1.036721039E1,1.625712633E0
1.999752599E0,5.147690773E-1,-9.737515450E0,7.015225291E-1
2.001752332E0,5.147690773E-1,-9.737515450E0,7.015225291E-1
2.003752065E0,1.489238977E0,-9.234718323E0,8.619388938E-2
2.005751798E0,1.924996972E0,-8.928250313E0,-2.202732861E-1
2.007751598E0,2.442160368E0,-8.162082672E0,-8.044763207E-1
2.009751331E0,2.863552570E0,-7.865192890E0,-1.087000728E0
2.011751064E0,4.003227711E0,-7.348029613E0,-1.608952641E0
2.013750797E0,5.248250484E0,-6.885934353E0,-2.097384691E0
2.015750530E0,5.947378635E0,-6.680026531E0,-2.341600657E0
2.017750263E0,7.398309231E0,-6.241874218E0,-2.818061352E0
2.019749996E0,9.380768776E0,-5.614574432E0,-3.430995703E0
2.021749762E0,9.809344292E0,-5.408666611E0,-3.428601503E0
2.023749562E0,1.021397591E1,-5.202759266E0,-3.354378939E0
2.025749295E0,1.072635078E1,-5.008822918E0,-3.419024467E0
2.027749028E0,1.163617516E1,-4.716721535E0,-3.737462997E0
2.029748761E0,1.239755535E1,-4.486870766E0,-3.957736254E0
2.031748494E0,1.275909042E1,-4.355185986E0,-4.031958580E0
2.033748227E0,1.341033363E1,-4.053507328E0,-4.077449799E0
2.035747960E0,1.367609787E1,-3.905062199E0,-4.019987583E0
2.037747760E0,1.401847935E1,-3.517189741E0,-3.761405706E0
2.039747526E0,1.413101006E1,-2.906649590E0,-3.287339211E0
2.041747326E0,1.413101006E1,-2.906649590E0,-3.287339211E0
2.043747092E0,1.413819313E1,-2.581028223E0,-3.059883118E0
2.045746858E0,1.413340378E1,-2.461314440E0,-2.966506481E0
2.047746624E0,1.417171288E1,-2.293715239E0,-2.755810261E0
2.049746390E0,1.427945518E1,-2.238646984E0,-2.475680113E0
2.051746156E0,1.435128307E1,-2.224281311E0,-2.298503876E0
2.053745989E0,1.455958557E1,-2.253012657E0,-1.860351562E0
2.055745755E0,1.470802975E1,-2.257801056E0,-1.596981287E0
2.057745521E0,1.504801750E1,-2.236252785E0,-1.051086664E0
2.059745287E0,1.574953938E1,-2.025556564E0,-2.968900800E-1
2.061745053E0,1.574953938E1,-2.025556564E0,-2.968900800E-1
2.063744819E0,1.634092522E1,-1.793311834E0,1.221080124E-1
2.065744585E0,1.668091202E1,-1.529941559E0,4.597007632E-1
2.067744351E0,1.741834831E1,-1.364736676E0,5.937801600E-1
2.069744184E0,1.832577896E1,-1.005595446E0,8.332076073E-1
2.071743950E0,1.885730934E1,-8.164477348E-1,9.624984860E-1
2.073743716E0,2.000177193E1,-3.567469418E-1,1.367130876E0
2.075743482E0,2.112468719E1,1.795706153E-1,2.035133600E0
2.077743248E0,2.162269592E1,4.740664065E-1,2.468497276E0
2.079743014E0,2.297546196E1,1.565855742E0,4.652075768E0
2.081742814E0,2.297546196E1,1.565855742E0,4.652075768E0
2.083742580E0,2.316460800E1,1.788523316E0,5.248250484E0
2.085742413E0,2.340643120E1,2.097384691E0,6.397502422E0
2.087742179E0,2.341600800E1,2.257801056E0,6.929031372E0
2.089741945E0,2.291560364E1,2.707924843E0,7.750267506E0
2.091741711E0,2.281265068E1,2.753416061E0,8.087860107E0
2.093741477E0,2.299461555E1,2.681587696E0,8.765439987E0
2.095741243E0,2.334178543E1,2.485257149E0,9.435836792E0
2.097740576E0,2.349023056E1,2.391880512E0,9.775823593E0
2.099740376E0,2.372486877E1,2.171607256E0,1.079817963E1
2.101740142E0,2.373444557E1,2.147664547E0,1.110704041E1
2.103739875E0,2.368895531E1,2.142875910E0,1.149012470E1
2.105739608E0,2.333699608E1,2.176395893E0,1.251487446E1
2.107739341E0,2.313108826E1,2.236252785E0,1.290035248E1
2.109739074E0,2.275039864E1,2.461314440E0,1.324752235E1
2.111738807E0,2.257322311E1,2.655250788E0,1.327625370E1
2.113738540E0,2.223802376E1,2.727078915E0,1.324752235E1
2.115738340E0,2.184296989E1,2.803695917E0,1.315653992E1
2.117738140E0,2.161311913E1,2.830032825E0,1.307992363E1
2.119737873E0,2.080385399E1,2.798907280E0,1.272796535E1
2.121737639E0,2.048781013E1,2.760598898E0,1.260106850E1
2.123737372E0,2.016218758E1,2.710319042E0,1.250050831E1
2.125737105E0,1.950376320E1,2.588211060E0,1.239516068E1
2.127736838E0,1.917814064E1,2.509200096E0,1.237840080E1
2.129736571E0,1.856281281E1,2.348783493E0,1.237121773E1
2.131736371E0,1.806959152E1,2.200338602E0,1.242868042E1
2.133736104E0,1.786607933E1,2.157241583E0,1.244783497E1
2.135735837E0,1.750454330E1,2.123721838E0,1.252684593E1
2.137735570E0,1.734173203E1,2.109356165E0,1.260346222E1
2.139735303E0,1.665457535E1,2.142875910E0,1.305837440E1
2.141735036E0,1.665457535E1,2.142875910E0,1.305837440E1
2.143734769E0,1.668330765E1,2.291321039E0,1.294584370E1
2.145734502E0,1.668330765E1,2.423006058E0,1.299372959E1
2.147734302E0,1.648218727E1,2.317657948E0,1.336963081E1
2.149734035E0,1.598896694E1,2.075836182E0,1.391552544E1
2.151733768E0,1.556278610E1,1.905842781E0,1.387482262E1
2.153733501E0,1.533772469E1,1.788523316E0,1.394186211E1
2.155733234E0,1.488999462E1,1.541913033E0,1.426030064E1
2.157733400E0,1.467929840E1,1.295302629E0,1.431536865E1
2.159733133E0,1.397059345E1,7.541965842E-1,1.356117249E1
2.161732866E0,1.397059345E1,7.541965842E-1,1.356117249E1
2.163732666E0,1.384609127E1,6.775797606E-1,1.330737972E1
2.165732399E0,1.374553204E1,8.475732803E-1,1.298894119E1
2.167732132E0,1.372877216E1,1.321639657E0,1.267529106E1
2.169731865E0,1.374074268E1,1.582615614E0,1.252445126E1
2.171731598E0,1.370722294E1,2.018373728E0,1.218206978E1
2.173731331E0,1.368328094E1,2.154847383E0,1.199052811E1
2.175731064E0,1.359229851E1,2.255406857E0,1.159068394E1
2.177730797E0,1.344864178E1,2.188367128E0,1.126745701E1
2.179730597E0,1.318287754E1,1.795706153E0,1.086282444E1
2.181730330E0,1.318287754E1,1.795706153E0,1.086282444E1
2.183730063E0,1.305837440E1,1.649655342E0,1.078381348E1
2.185729796E0,1.280937004E1,1.336005330E0,1.070959091E1
2.187729529E0,1.252684593E1,9.888355136E-1,1.069761944E1
2.189729262E0,1.237361240E1,8.068706393E-1,1.072395706E1
2.191728995E0,1.202404785E1,4.405465722E-1,1.085085297E1
2.193728795E0,1.183250618E1,2.681587934E-1,1.095141315E1
2.195728595E0,1.143984509E1,-4.070267081E-2,1.120520592E1
2.197728328E0,1.107352066E1,-3.040728867E-1,1.147336483E1
2.199728061E0,1.054917526E1,-5.602602959E-1,1.188278580E1
2.201727761E0,1.054917526E1,-5.602602959E-1,1.188278580E1
2.203727494E0,1.039115238E1,-6.703969240E-1,1.197616291E1
2.205727227E0,1.013017654E1,-7.230709791E-1,1.206953907E1
2.207726960E0,9.996097565E0,-8.427847624E-1,1.202883625E1
2.209726760E0,1.000327969E1,-9.122186899E-1,1.199292278E1
2.211726493E0,1.011581135E1,-1.036720991E0,1.196419144E1
2.213726226E0,1.029538155E1,-1.175588965E0,1.188757420E1
2.215725959E0,1.036002731E1,-1.218685865E0,1.185166073E1
2.217725692E0,1.035763264E1,-1.182771802E0,1.175349522E1
2.219725425E0,1.014693642E1,-9.241901040E-1,1.176546669E1
2.221725158E0,1.014693642E1,-9.241901040E-1,1.176546669E1
2.223724891E0,9.924268723E0,-6.344828010E-1,1.177743816E1
2.225724691E0,9.809344292E0,-4.740664065E-1,1.179180336E1
2.227724424E0,9.596253395E0,-1.675992310E-1,1.180616951E1
2.229724157E0,9.493299484E0,-3.591412306E-2,1.177983189E1
2.231723890E0,9.392740250E0,2.083019018E-1,1.168884945E1
2.233723623E0,9.426259995E0,4.740664065E-1,1.137519932E1
2.235723356E0,9.486116409E0,6.009629965E-1,1.118605232E1
2.237723089E0,9.648927689E0,8.188419938E-1,1.074550533E1
2.239722822E0,9.996097565E0,1.084606528E0,1.024510193E1
2.241722555E0,9.996097565E0,1.084606528E0,1.024510193E1
2.243722288E0,1.019482231E1,1.228263021E0,1.007271385E1
2.245722021E0,1.028819847E1,1.278542757E0,1.004398251E1
2.247721754E0,1.042946148E1,1.343188167E0,1.008468533E1
2.249721487E0,1.049650097E1,1.410227895E0,1.014933109E1
2.251721220E0,1.057551193E1,1.415016413E0,1.030735302E1
2.253720953E0,1.056593513E1,1.352765322E0,1.047016335E1
2.255720686E0,1.053480911E1,1.268965602E0,1.052762604E1
2.257720486E0,1.040791225E1,1.019961119E0,1.066888809E1
2.259720219E0,1.015411949E1,5.722316504E-1,1.080296803E1
2.261719985E0,1.007510853E1,4.213923812E-1,1.085324764E1
2.263719718E0,9.991309166E0,2.729473412E-1,1.090352726E1
2.265719451E0,9.909903526E0,1.125309169E-1,1.097296143E1
2.267719184E0,9.737515450E0,-2.106961906E-1,1.116689777E1
2.269718917E0,9.608224869E0,-5.004034638E-1,1.135365105E1
2.271718717E0,9.560338974E0,-6.201171875E-1,1.141590214E1
2.273718517E0,9.483722687E0,-8.068706393E-1,1.150209618E1
2.275718250E0,9.462174416E0,-8.739103079E-1,1.151646137E1
2.277717983E0,9.481328011E0,-9.361614585E-1,1.147815323E1
2.279717716E0,9.718361855E0,-9.313728809E-1,1.125548553E1
2.281717449E0,9.718361855E0,-9.313728809E-1,1.125548553E1
2.283717182E0,9.955394745E0,-8.068706393E-1,1.099929810E1
2.285716915E0,1.006553173E1,-7.063110471E-1,1.082691097E1
2.287716715E0,1.025707340E1,-4.788549542E-1,1.036002731E1
2.289716481E0,1.047974110E1,-2.346389294E-1,9.749486923E0
2.291716247E0,1.060184860E1,-1.340793967E-1,9.416683197E0
2.293716013E0,1.090113354E1,3.112557158E-2,8.712765694E0
2.295715779E0,1.107112694E1,1.436564922E-1,8.339259148E0
2.297715545E0,1.141111374E1,1.580221355E-1,7.508445740E0
2.299715311E0,1.189236259E1,1.580221355E-1,6.071880817E0
2.301715144E0,1.189236259E1,1.699935049E-1,5.569083214E0
2.303714977E0,1.214136791E1,1.699935049E-1,5.087833881E0
2.305714843E0,1.236403465E1,1.843591630E-1,4.261809349E0
2.307714709E0,1.248614311E1,2.418217510E-1,3.948159218E0
2.309714575E0,1.270402241E1,4.692778587E-1,3.543526649E0
2.311714441E0,1.277585030E1,6.033572555E-1,3.447755814E0
2.313714307E0,1.313259697E1,6.296942830E-1,3.421418667E0
2.315714173E0,1.343906403E1,5.243461728E-1,3.567469358E0
2.317714039E0,1.324033928E1,5.315290093E-1,3.668029070E0
2.319713972E0,1.153322220E1,5.985686779E-1,4.149278164E0
2.321713872E0,1.153322220E1,5.985686779E-1,4.149278164E0
2.323713805E0,1.117647457E1,5.458946824E-1,4.271386147E0
2.325713738E0,1.059706020E1,3.663240373E-1,4.549122334E0
2.327713671E0,1.039115238E1,2.801301479E-1,4.692778587E0
2.329713604E0,1.015172482E1,7.182824612E-2,4.951360226E0
2.331713537E0,1.011581135E1,-6.703969836E-2,5.051919937E0
2.333713470E0,1.019961071E1,-4.142095447E-1,5.178816319E0
2.335713470E0,1.045100975E1,-9.217957854E-1,4.939388752E0
2.337713436E0,1.062818623E1,-1.295302629E0,4.637710094E0
2.339713402E0,1.103042412E1,-1.798100352E0,4.211529255E0
2.341713402E0,1.098732662E1,-1.905842781E0,4.125335693E0
2.343713368E0,1.068085957E1,-2.317657948E0,4.079844475E0
2.345713334E0,1.038875866E1,-2.729473352E0,3.929004908E0
2.347713300E0,1.047255802E1,-2.561874151E0,3.845205307E0
2.349713300E0,1.087719059E1,-1.855562925E0,3.749434233E0
2.351713300E0,1.135365105E1,-1.007989645E0,3.885908127E0
2.353713266E0,1.159547329E1,-6.512427330E-1,3.936187744E0
2.355713232E0,1.190433407E1,-2.753416002E-1,3.797319889E0
2.357713198E0,1.200249958E1,-2.418217510E-1,3.670423269E0
2.359713164E0,1.225150394E1,-5.004034638E-1,3.282550812E0
2.361713097E0,1.239037228E1,-6.249057055E-1,3.234665155E0
2.363713063E0,1.255557728E1,-7.206767201E-1,3.244242430E0
2.365712996E0,1.300330639E1,-7.948992252E-1,3.318464994E0
2.367712929E0,1.324512863E1,-7.805336118E-1,3.385504484E0
2.369712862E0,1.353722954E1,-6.105400920E-1,3.574652195E0
2.371712795E0,1.358511543E1,-3.615354896E-1,3.701548815E0
2.373712728E0,1.351089287E1,-2.466102988E-1,3.727885962E0
2.375712661E0,1.318048286E1,-5.985686928E-2,3.696760416E0
2.377712594E0,1.294823837E1,0.000000000E0,3.653663397E0
2.379712527E0,1.239516068E1,-3.519583941E-1,3.205934048E0
2.381712493E0,1.239516068E1,-3.519583941E-1,3.205934048E0
2.383712359E0,1.228502369E1,-5.411061049E-1,3.095797300E0
2.385712225E0,1.209827042E1,-1.010383964E0,2.808484316E0
2.387712091E0,1.203841400E1,-1.486844659E0,2.648067951E0
2.389711957E0,1.191870022E1,-1.664021015E0,2.310475111E0
2.391711823E0,1.176307201E1,-1.893871427E0,1.829225898E0
2.393711689E0,1.165532970E1,-1.920208454E0,1.553884387E0
2.395711555E0,1.142547894E1,-1.793311834E0,9.170072675E-1
2.397711455E0,1.122436047E1,-1.515576005E0,1.436564922E-1
2.399711288E0,1.112619495E1,-1.237840056E0,-1.261782765E0
2.401711088E0,1.112619495E1,-1.237840056E0,-1.261782765E0
2.403710921E0,1.113577175E1,-1.247417212E0,-1.774157643E0
2.405710754E0,1.117168617E1,-1.446141958E0,-2.796513081E0
2.407710587E0,1.123154354E1,-1.834014535E0,-3.761405706E0
2.409710087E0,1.126266861E1,-2.044710636E0,-4.197163582E0
2.411709920E0,1.130815983E1,-2.451737404E0,-4.972908974E0
2.413709786E0,1.131055450E1,-2.619336605E0,-5.312895775E0
2.415709586E0,1.128421688E1,-2.889889717E0,-5.877944469E0
2.417709386E0,1.122675419E1,-3.052700281E0,-6.280182838E0
2.419709186E0,1.115013790E1,-3.351984739E0,-6.672843933E0
2.421709019E0,1.115013790E1,-3.351984739E0,-6.672843933E0
2.423708819E0,1.109267521E1,-3.466909885E0,-6.711152077E0
2.425708619E0,1.094901848E1,-3.691971779E0,-6.627352715E0
2.427708419E0,1.073114014E1,-3.895485163E0,-6.337645531E0
2.429708219E0,1.059945488E1,-3.988861799E0,-6.126949310E0
2.431707952E0,1.035763264E1,-4.187586784E0,-5.672037125E0
2.433707685E0,1.026665020E1,-4.443774223E0,-5.439792156E0
2.435707418E0,1.010862827E1,-4.575459003E0,-4.925023079E0
2.437707151E0,9.933846474E0,-4.829252243E0,-4.340820312E0
2.439706884E0,9.699207306E0,-5.248250484E0,-3.270579338E0
2.441706617E0,9.699207306E0,-5.248250484E0,-3.270579338E0
2.443706417E0,9.495694160E0,-5.564294815E0,-2.547508478E0
2.445706217E0,9.328094482E0,-5.669642925E0,-2.097384691E0
2.447705950E0,8.806142807E0,-5.667248249E0,-1.228263021E0
2.449705683E0,8.506858826E0,-5.593026161E0,-8.547561169E-1
2.451705416E0,7.937020779E0,-5.399089813E0,-2.633702159E-1
2.453705149E0,7.434223175E0,-5.233884811E0,-6.943397224E-2
2.455704882E0,7.218738556E0,-5.219519138E0,-1.245022863E-1
2.457704615E0,6.838048935E0,-5.411061287E0,-4.022381604E-1
2.459704415E0,6.431022167E0,-5.882733345E0,-9.792584181E-1
2.461704148E0,6.431022167E0,-5.882733345E0,-9.792584181E-1
2.463703881E0,6.277788639E0,-6.100612164E0,-1.347976685E0
2.465703614E0,6.220325947E0,-6.158074856E0,-1.510787368E0
2.467703347E0,6.184412003E0,-6.143709183E0,-1.810071707E0
2.469703413E0,6.191594601E0,-6.079063892E0,-2.025556564E0
2.471703146E0,6.239480019E0,-5.856396198E0,-2.743839025E0
2.473702879E0,6.275394440E0,-5.569083214E0,-3.603383541E0
2.475702679E0,6.277788639E0,-5.439792156E0,-4.130124092E0
2.477702412E0,6.263422966E0,-5.257827282E0,-5.291347504E0
2.479702145E0,5.944984436E0,-5.085439682E0,-7.017619610E0
2.481701878E0,5.944984436E0,-5.085439682E0,-7.017619610E0
2.483701611E0,5.715134144E0,-5.032765865E0,-8.171659470E0
2.485701344E0,5.609786034E0,-5.027976990E0,-8.717555046E0
2.487701077E0,5.382329941E0,-5.092622280E0,-9.584281921E0
2.489700810E0,5.257827282E0,-5.245856285E0,-1.012538815E1
2.491700610E0,5.025582790E0,-5.336838722E0,-1.025946712E1
2.493700343E0,4.826858044E0,-5.497254848E0,-1.028580475E1
2.495700076E0,4.771789551E0,-5.559505939E0,-1.017806244E1
2.497699809E0,4.733481407E0,-5.604997158E0,-9.751881599E0
2.499699542E0,4.836435318E0,-5.367964268E0,-8.351230621E0
2.501699242E0,4.929811954E0,-5.367964268E0,-8.351230621E0
2.503698975E0,5.051919937E0,-5.269798756E0,-8.078283310E0
2.505698708E0,5.183605194E0,-5.154873848E0,-7.747873306E0
2.507698508E0,5.494860649E0,-4.946571827E0,-7.084659100E0
2.509698241E0,5.820482254E0,-4.759818554E0,-6.385530949E0
2.511697974E0,5.971321583E0,-4.680807114E0,-6.031178474E0
2.513698707E0,6.263422966E0,-4.556304932E0,-5.257827282E0
2.515698440E0,6.399896622E0,-4.522785187E0,-4.850800991E0
2.517698173E0,6.648900986E0,-4.486870766E0,-4.029564381E0
2.519697906E0,6.921848297E0,-4.527573586E0,-2.899466753E0
2.521697739E0,6.921848297E0,-4.556304932E0,-2.899466753E0
2.523697539E0,6.991282463E0,-4.594613552E0,-2.346389294E0
2.525697272E0,6.984099388E0,-4.654470444E0,-2.159635782E0
2.527697005E0,6.914665699E0,-4.872349262E0,-2.027950764E0
2.529696738E0,6.917059898E0,-5.439792156E0,-2.300898075E0
2.531696471E0,6.893116951E0,-5.707951069E0,-2.379909277E0
2.533696204E0,6.780586243E0,-5.954561234E0,-2.166818619E0
2.535695937E0,6.591438770E0,-5.719922543E0,-1.836408734E0
2.537695737E0,5.968926907E0,-5.490072250E0,-1.570644259E0
2.539695470E0,5.219519138E0,-5.130930901E0,-9.744698405E-1
2.541695136E0,5.219519138E0,-5.130930901E0,-9.744698405E-1
2.543694869E0,4.683201313E0,-5.174027920E0,-6.871568561E-1
2.545694602E0,4.166038036E0,-5.379935265E0,-4.429408312E-1
2.547694335E0,3.957736254E0,-5.547534943E0,-3.711125851E-1
2.549694068E0,3.636903524E0,-5.894704342E0,-3.806896806E-1
2.551693801E0,3.514795303E0,-6.047938347E0,-4.668835998E-1
2.553693601E0,3.294522047E0,-6.294548512E0,-7.565908432E-1
2.555693334E0,3.074248791E0,-6.454965115E0,-1.161223292E0
2.557693067E0,2.947352171E0,-6.500456333E0,-1.388679385E0
2.559692800E0,2.581028223E0,-6.675238132E0,-2.525959969E0
2.561692566E0,2.581028223E0,-6.675238132E0,-2.525959969E0
2.563692299E0,2.549902678E0,-6.727912426E0,-2.913832426E0
2.565692032E0,2.569056988E0,-6.814105988E0,-3.895485163E0
2.567691765E0,2.609759569E0,-6.842837334E0,-4.486870766E0
2.569691565E0,2.772570133E0,-6.761432171E0,-5.736682415E0
2.571691298E0,2.870735407E0,-6.672843933E0,-6.344828129E0
2.573690031E0,3.148471355E0,-6.526793003E0,-7.520417213E0
2.575689764E0,3.524372578E0,-6.368771076E0,-8.499675751E0
2.577689497E0,3.720703125E0,-6.306519985E0,-8.863605499E0
2.579689230E0,4.309694767E0,-6.141314983E0,-9.294574738E0
2.581688930E0,4.506025314E0,-6.081458092E0,-9.222746849E0
2.583688663E0,4.714327335E0,-6.026389599E0,-9.059935570E0
2.585688463E0,5.147690773E0,-5.918647289E0,-8.545166969E0
2.587688196E0,5.399089813E0,-5.880339146E0,-8.224333763E0
2.589687929E0,6.043149471E0,-5.794145107E0,-7.518023014E0
2.591687662E0,6.823683262E0,-5.719922543E0,-6.797346115E0
2.593687395E0,7.233104229E0,-5.684008598E0,-6.457359314E0
2.595687128E0,7.992089272E0,-5.535563469E0,-5.863578796E0
2.597686861E0,8.332076073E0,-5.480494976E0,-5.597814560E0
2.599686661E0,9.584281921E0,-6.047938347E0,-4.846012115E0
2.601686527E0,1.015890789E1,-6.047938347E0,-4.846012115E0
2.603686260E0,1.048931789E1,-6.193988800E0,-4.585036278E0
2.605685993E0,1.068804264E1,-6.150891781E0,-4.221106529E0
2.607685726E0,1.070480251E1,-6.009629726E0,-4.043930054E0
2.609685459E0,1.079817963E1,-5.451763630E0,-3.474092722E0
2.611685192E0,1.112140656E1,-4.790944099E0,-3.043123245E0
2.613684925E0,1.134646797E1,-4.508419514E0,-2.935380936E0
2.615684725E0,1.181335163E1,-4.211529255E0,-2.980872154E0
2.617684525E0,1.201447105E1,-4.242654800E0,-3.131711483E0
2.619684258E0,1.221319580E1,-5.185999393E0,-4.048718929E0
2.621683924E0,1.221319580E1,-5.185999393E0,-4.048718929E0
2.623683657E0,1.209348202E1,-5.502043724E0,-4.261809349E0
2.625683390E0,1.167687798E1,-6.071880817E0,-4.580247879E0
2.627683123E0,1.141350842E1,-6.488484859E0,-4.778972626E0
2.629682856E0,1.085803604E1,-6.622564316E0,-4.824463844E0
2.631682656E0,1.028101635E1,-6.790163517E0,-4.867560863E0
2.633682389E0,1.000327969E1,-6.842837334E0,-4.901080608E0
2.635682122E0,9.512454033E0,-6.883540154E0,-5.030371189E0
2.637681855E0,9.122186661E0,-6.893116951E0,-5.336838722E0
2.639681588E0,8.703188896E0,-7.034379482E0,-6.069486618E0
2.641681354E0,8.703188896E0,-7.034379482E0,-6.069486618E0
2.643681087E0,8.588263512E0,-7.110996246E0,-6.361588001E0
2.645680820E0,8.451789856E0,-7.319298267E0,-6.967339516E0
2.647680620E0,8.466156006E0,-7.529994488E0,-7.525205612E0
2.649680353E0,8.526012421E0,-7.618582249E0,-7.752661705E0
2.651680086E0,8.691217422E0,-7.764633179E0,-8.042368889E0
2.653679819E0,8.777411461E0,-7.814912796E0,-8.097437859E0
2.655679552E0,8.937828064E0,-7.829278469E0,-8.039975166E0
2.657679285E0,9.162889481E0,-7.788576126E0,-7.776604652E0
2.659679018E0,9.615407944E0,-7.697593689E0,-7.118178844E0
2.661678718E0,9.615407944E0,-7.697593689E0,-7.118178844E0
2.663678518E0,9.830892563E0,-7.680833817E0,-6.826077461E0
2.665678251E0,1.030974770E1,-7.697593689E0,-6.129343510E0
2.667677984E0,1.078620815E1,-7.898712635E0,-5.281770229E0
2.669677717E0,1.098493290E1,-8.042368889E0,-4.855589390E0
2.671677450E0,1.135365105E1,-8.344047546E0,-4.041535854E0
2.673677183E0,1.153322220E1,-8.583475113E0,-3.340013266E0
2.675676916E0,1.188278580E1,-8.674457550E0,-3.050306082E0
2.677676649E0,1.223474407E1,-8.748680115E0,-2.616942406E0
2.679676449E0,1.273514748E1,-8.545166969E0,-2.286532402E0
2.681676215E0,1.290274715E1,-8.391933441E0,-2.262589693E0
2.683675948E0,1.306076908E1,-8.238699913E0,-2.267378330E0
2.685675681E0,1.318766594E1,-8.092648506E0,-2.298503876E0
2.687675414E0,1.342709351E1,-7.858009815E0,-2.415823221E0
2.689675147E0,1.353962421E1,-7.752661705E0,-2.513988495E0
2.691674880E0,1.372398281E1,-7.527599812E0,-2.834821463E0
2.693674680E0,1.381257153E1,-7.381549358E0,-3.294522047E0
2.695674480E0,1.383890820E1,-7.328875065E0,-3.565075159E0
2.697674213E0,1.382454300E1,-7.237892628E0,-4.156461239E0
2.699673946E0,1.377905178E1,-7.187613010E0,-5.056708336E0
2.701673679E0,1.377905178E1,-7.187613010E0,-5.056708336E0
2.703673412E0,1.373834896E1,-7.103813171E0,-5.638517380E0
2.705673145E0,1.369525146E1,-7.051139355E0,-5.899493217E0
2.707672878E0,1.352286434E1,-6.936213970E0,-6.328068256E0
2.709672678E0,1.339117908E1,-6.840443134E0,-6.510033131E0
2.711672411E0,1.302964306E1,-6.703969479E0,-6.756643295E0
2.713672144E0,1.258191395E1,-6.548341751E0,-6.861991405E0
2.715671877E0,1.235206413E1,-6.481301785E0,-6.917059898E0
2.717671610E0,1.189475727E1,-6.490879059E0,-6.974522591E0
2.719671343E0,1.129379463E1,-6.823683262E0,-6.950579643E0
2.721671109E0,1.129379463E1,-6.823683262E0,-6.950579643E0
2.723670842E0,1.092747021E1,-7.087053299E0,-6.917059898E0
2.725670208E0,1.071437931E1,-7.194795609E0,-6.873962879E0
2.727669941E0,1.028101635E1,-7.374366283E0,-6.756643295E0
2.729669674E0,9.888355255E0,-7.458166122E0,-6.589044094E0
2.731669407E0,9.723150253E0,-7.412674904E0,-6.500456333E0
2.733669140E0,9.529213905E0,-7.134938717E0,-6.349617004E0
2.735668873E0,9.495694160E0,-6.921848297E0,-6.320885658E0
2.737668606E0,9.371191978E0,-6.589044094E0,-6.249057293E0
2.739668339E0,8.906702042E0,-6.454965115E0,-5.928224564E0
2.741668139E0,8.669669151E0,-6.488484859E0,-5.789356709E0
2.743668139E0,8.377567291E0,-6.553130150E0,-5.636122704E0
2.745667872E0,8.078283310E0,-6.622564316E0,-5.492466450E0
2.747667605E0,7.508445740E0,-6.735095024E0,-5.308107376E0
2.749667338E0,6.943397045E0,-6.821289062E0,-5.279376030E0
2.751667071E0,6.663266659E0,-6.854808807E0,-5.305713177E0
2.753666804E0,6.086246490E0,-6.952973843E0,-5.396695614E0
2.755666537E0,5.803721905E0,-6.991282463E0,-5.439792156E0
2.757666337E0,5.217124939E0,-7.067899227E0,-5.473312378E0
2.759666103E0,4.261809349E0,-7.333663940E0,-5.365570068E0
2.761665836E0,4.261809349E0,-7.333663940E0,-5.365570068E0
2.763665602E0,3.636903524E0,-7.503657341E0,-5.185999393E0
2.765665368E0,3.359167576E0,-7.623371124E0,-5.099805355E0
2.767665134E0,2.909043789E0,-7.649707794E0,-4.946571827E0
2.769664900E0,2.645673752E0,-7.664073467E0,-4.817280769E0
2.771664733E0,2.566662550E0,-7.690410614E0,-4.723904133E0
2.773664566E0,2.399063349E0,-7.814912796E0,-4.508419514E0
2.775664332E0,2.130904675E0,-8.066311836E0,-4.161249638E0
2.777664098E0,1.953728199E0,-8.233911514E0,-3.945764780E0
2.779663864E0,1.127703428E0,-8.801354408E0,-3.141288519E0
2.781663630E0,8.379961848E-1,-8.954587936E0,-2.894678354E0
2.783663396E0,5.913859010E-1,-9.055147171E0,-2.717501879E0
2.785663596E0,2.154847383E-1,-9.115004539E0,-2.614548206E0
2.787663429E0,1.197137386E-1,-9.076695442E0,-2.691164970E0
2.789663262E0,5.027977005E-2,-8.988107681E0,-3.004814863E0
2.791663028E0,5.985686928E-2,-8.923461914E0,-3.177202702E0
2.793662794E0,8.140534163E-2,-8.827691078E0,-3.447755814E0
2.795662560E0,6.943397224E-2,-8.746285439E0,-3.691971779E0
2.797662326E0,9.577099234E-2,-8.662486076E0,-3.821262598E0
2.799662092E0,4.573064744E-1,-8.312922478E0,-4.118152618E0
2.801661892E0,4.573064744E-1,-8.312922478E0,-4.118152618E0
2.803661458E0,6.105400920E-1,-8.209968567E0,-4.158855438E0
2.805661224E0,8.595446348E-1,-8.011243820E0,-4.209135056E0
2.807660990E0,9.816526771E-1,-7.941809654E0,-4.213923454E0
2.809660756E0,1.256994247E0,-7.846038342E0,-4.178009510E0
2.811660522E0,1.417410731E0,-7.774210453E0,-4.130124092E0
2.813660288E0,1.735849261E0,-7.759844780E0,-3.976890564E0
2.815660054E0,1.963305354E0,-7.752661705E0,-3.871542454E0
2.817659820E0,2.080624819E0,-7.774210453E0,-3.838022470E0
2.819659620E0,2.466103077E0,-7.831672668E0,-3.881119490E0
2.821659386E0,2.581028223E0,-7.872375488E0,-3.883513689E0
2.823659119E0,2.695953369E0,-7.898712635E0,-3.888302326E0
2.825658852E0,2.858764172E0,-7.958569527E0,-3.919427872E0
2.827658585E0,2.897072554E0,-8.018425941E0,-3.948159218E0
2.829659718E0,2.942563772E0,-8.061523438E0,-4.024775982E0
2.831659451E0,3.071854591E0,-7.951386452E0,-4.101392746E0
2.833659184E0,3.170019865E0,-7.908289909E0,-4.161249638E0
2.835658984E0,3.450150013E0,-7.829278469E0,-4.422225475E0
2.837658717E0,3.629720688E0,-7.776604652E0,-4.553910732E0
2.839658450E0,4.082238674E0,-7.848433018E0,-5.090228081E0
2.841658116E0,4.187586784E0,-7.769421577E0,-5.071074009E0
2.843657849E0,4.245049000E0,-7.659285069E0,-5.008822918E0
2.845657582E0,4.300117493E0,-7.431828976E0,-4.783761024E0
2.847657315E0,4.331243038E0,-7.324086666E0,-4.561093330E0
2.849657048E0,4.326454639E0,-7.371972084E0,-4.187586784E0
2.851656848E0,4.292934895E0,-7.609005451E0,-3.909850836E0
2.853656581E0,4.245049000E0,-7.726325035E0,-3.799714088E0
2.855656314E0,4.156461239E0,-7.922655106E0,-3.670423269E0
2.857656047E0,4.125335693E0,-7.999272346E0,-3.644086361E0
2.859655780E0,4.113364220E0,-7.790970325E0,-3.725491524E0
2.861655513E0,4.113364220E0,-7.790970325E0,-3.725491524E0
2.863655246E0,4.127729893E0,-7.680833817E0,-3.751828671E0
2.865655046E0,4.142095566E0,-7.498868465E0,-3.797319889E0
2.867654846E0,4.108575344E0,-7.278595448E0,-3.859570980E0
2.869654579E0,4.070267200E0,-7.192401409E0,-3.878725290E0
2.871654312E0,3.969707727E0,-7.087053299E0,-3.976890564E0
2.873654045E0,3.921822071E0,-7.065505028E0,-4.046324253E0
2.875653778E0,3.833234072E0,-7.125361919E0,-4.163643837E0
2.877653511E0,3.663240433E0,-7.273807049E0,-4.201952457E0
2.879653244E0,3.332830429E0,-7.498868465E0,-4.182797909E0
2.881653010E0,3.332830429E0,-7.498868465E0,-4.182797909E0
2.883652743E0,3.244242430E0,-7.544359684E0,-4.075055599E0
2.885652476E0,3.107768774E0,-7.594639778E0,-3.854782343E0
2.887652209E0,3.031152010E0,-7.673650742E0,-3.804502726E0
2.889650542E0,2.995237827E0,-7.747873306E0,-3.806896925E0
2.891650275E0,2.925803900E0,-7.879558563E0,-3.823656797E0
2.893650008E0,2.894678354E0,-7.927443981E0,-3.852388144E0
2.895649741E0,2.844398499E0,-7.994483471E0,-3.881119490E0
2.897649541E0,2.849187136E0,-8.095043182E0,-3.830839634E0
2.899649274E0,2.916226625E0,-8.377567291E0,-3.591412306E0
2.901649074E0,2.916226625E0,-8.377567291E0,-3.591412306E0
2.903648807E0,2.918621063E0,-8.621783257E0,-3.438178539E0
2.905648540E0,2.825244188E0,-8.758256912E0,-3.011997700E0
2.907648273E0,2.731867552E0,-9.019232750E0,-2.578634024E0
2.909648006E0,2.664827824E0,-9.174860954E0,-2.401457548E0
2.911647739E0,2.561874151E0,-9.478934288E0,-1.958516836E0
2.913647539E0,2.442160368E0,-9.883566856E0,-1.443747759E0
2.915647272E0,2.365543604E0,-1.012299347E1,-1.175588965E0
2.917647005E0,2.166818619E0,-1.066409969E1,-5.674431324E-1
2.919646738E0,1.913025618E0,-1.155716419E1,5.051919818E-1
2.921646471E0,1.913025618E0,-1.155716419E1,5.051919818E-1
2.923646204E0,1.769369125E0,-1.207911682E1,1.254600048E0
2.925645937E0,1.723877907E0,-1.229460144E1,1.599375606E0
2.927645670E0,1.731060743E0,-1.253402901E1,2.092596292E0
2.929645470E0,1.755003452E0,-1.260346222E1,2.233858347E0
2.931645203E0,1.884294271E0,-1.265134811E1,2.343995094E0
2.933645136E0,2.174001455E0,-1.248374844E1,2.279349566E0
2.935644869E0,2.384697676E0,-1.234009266E1,2.241041183E0
2.937644602E0,2.901860952E0,-1.190672874E1,1.944151163E0
2.939644335E0,3.598595142E0,-1.120999432E1,1.029538155E0
2.941644101E0,3.598595142E0,-1.120999432E1,1.029538155E0
2.943643901E0,3.794925690E0,-1.089873886E1,3.423812985E-1
2.945643701E0,3.811685562E0,-1.081972790E1,-1.197137404E-2
2.947643434E0,3.747040033E0,-1.079578495E1,-6.871568561E-1
2.949643167E0,3.682394743E0,-1.086043072E1,-9.936240315E-1
2.951642900E0,3.526766777E0,-1.101845264E1,-1.630501151E0
2.953642633E0,3.411841631E0,-1.112858963E1,-2.310475111E0
2.955642366E0,3.371139050E0,-1.117168617E1,-2.643279314E0
2.957642099E0,3.282550812E0,-1.126745701E1,-3.193962574E0
2.959641899E0,3.131711483E0,-1.142069054E1,-3.531555414E0
2.961641599E0,3.131711483E0,-1.142069054E1,-3.531555414E0
2.963641332E0,3.026363373E0,-1.152125072E1,-3.466909885E0
2.965641065E0,2.947352171E0,-1.152843285E1,-3.320859194E0
2.967640798E0,2.765387297E0,-1.136562252E1,-2.837215662E0
2.969640531E0,2.815667152E0,-1.087240219E1,-2.241041183E0
2.971640264E0,2.906649590E0,-1.059466648E1,-1.872322917E0
2.973639997E0,2.918621063E0,-1.040551853E1,-1.319245458E0
2.975639797E0,2.856369734E0,-1.047255802E1,-1.211503029E0
2.977639530E0,2.679193497E0,-1.064973450E1,-1.278542757E0
2.979639263E0,2.504411459E0,-1.095859623E1,-1.302485466E0
2.981638963E0,2.571451187E0,-1.103521252E1,-1.285725594E0
2.983638696E0,2.691164970E0,-1.109506989E1,-1.247417212E0
2.985638429E0,2.827638626E0,-1.115492630E1,-1.194743156E0
2.987638162E0,3.114951611E0,-1.120520592E1,-1.108549237E0
2.989637895E0,3.277762175E0,-1.115492630E1,-9.265843630E-1
2.991637695E0,3.332830429E0,-1.111422348E1,-7.398309112E-1
2.993637228E0,3.464515686E0,-1.101605797E1,-2.777358890E-1
2.995636961E0,3.550709486E0,-1.093944168E1,-3.112557158E-2
2.997636694E0,3.691971779E0,-1.084606457E1,3.806896806E-1
2.999636427E0,3.902667999E0,-1.071677399E1,7.374366522E-1
3.001636160E0,3.902667999E0,-1.066409969E1,7.374366522E-1
3.003635893E0,4.003227711E0,-1.059945488E1,6.680026650E-1
3.005635626E0,4.084632874E0,-1.047734642E1,4.094209969E-1
3.007635426E0,4.367157459E0,-1.042946148E1,2.466102988E-1
3.009635159E0,4.731087208E0,-1.032411289E1,-7.901106775E-2
3.011634892E0,4.953754425E0,-1.025228500E1,-2.561874092E-1
3.013634625E0,5.672037125E0,-9.976943016E0,-1.268965602E0
3.015634358E0,6.651295185E0,-9.481328011E0,-3.397475958E0
3.017634091E0,6.785374641E0,-9.174860954E0,-4.118152618E0
3.019633824E0,6.079063892E0,-8.317710876E0,-4.881926537E0
3.021633657E0,5.906675816E0,-8.142929077E0,-4.728692532E0
3.023633457E0,5.760625362E0,-7.881952763E0,-4.513207912E0
3.025633190E0,5.794145107E0,-7.826884270E0,-3.912245035E0
3.027632923E0,5.818087578E0,-8.128562927E0,-3.600989342E0
3.029632656E0,5.377541065E0,-8.712765694E0,-2.822849989E0
3.031632389E0,4.872349262E0,-8.935433388E0,-2.288926601E0
3.033632122E0,3.615355015E0,-9.347249031E0,-1.098972082E0
3.035631855E0,2.499622822E0,-9.835680962E0,-2.322446555E-1
3.037631621E0,2.068653345E0,-1.010623360E1,6.943397224E-2
3.039631421E0,5.818088055E-1,-1.113098335E1,1.003201127E0
3.041631187E0,5.818088055E-1,-1.113098335E1,1.003201127E0
3.043630920E0,1.268965602E-1,-1.123633194E1,1.185166001E0
3.045630653E0,-5.770202279E-1,-1.128661156E1,1.561067224E0
3.047630386E0,-8.260248303E-1,-1.123154354E1,1.743032098E0
3.049630119E0,-1.158828974E0,-1.106633854E1,2.001613855E0
3.051629852E0,-1.292908430E0,-1.079099655E1,2.116539001E0
3.053629652E0,-1.594586968E0,-1.067846584E1,2.111750364E0
3.055629385E0,-1.810071707E0,-1.048213482E1,1.944151163E0
3.057629118E0,-1.822043180E0,-1.041988373E1,1.704723716E0
3.059628851E0,-1.695146561E0,-1.014214802E1,8.451790214E-1
3.061628551E0,-1.664021015E0,-1.008947372E1,5.722316504E-1
3.063628284E0,-1.647261024E0,-1.005116558E1,2.753416002E-1
3.065628017E0,-1.570644259E0,-1.001525116E1,-3.423812985E-1
3.067627750E0,-1.505998850E0,-1.001046276E1,-6.440598965E-1
3.069627550E0,-1.256994247E0,-9.950606346E0,-1.245022893E0
3.071627283E0,-8.403904438E-1,-9.972154617E0,-2.087807655E0
3.073627016E0,-6.105400920E-1,-9.955394745E0,-2.545114040E0
3.075626749E0,-3.998439014E-1,-9.737515450E0,-2.906649590E0
3.077626482E0,-3.711125851E-1,-9.617801666E0,-3.033546209E0
3.079626215E0,1.652049571E-1,-9.103033066E0,-3.940976381E0
3.081625948E0,1.652049571E-1,-9.103033066E0,-3.940976381E0
3.083625681E0,3.591412306E-1,-9.021627426E0,-4.134912491E0
3.085625481E0,6.871568561E-1,-8.921068192E0,-4.462928295E0
3.087625214E0,8.475732803E-1,-8.882759094E0,-4.589824677E0
3.089624947E0,1.144463301E0,-8.801354408E0,-4.762212753E0
3.091624680E0,1.376708031E0,-8.669669151E0,-4.800520897E0
3.093624413E0,1.419804931E0,-8.609811783E0,-4.800520897E0
3.095624146E0,1.455719113E0,-8.523618698E0,-4.889109135E0
3.097623912E0,1.482056141E0,-8.384750366E0,-5.039948463E0
3.099623645E0,1.697540879E0,-8.095043182E0,-5.193181992E0
3.101623411E0,1.697540879E0,-8.095043182E0,-5.193181992E0
3.103623144E0,1.699935079E0,-7.996877670E0,-5.193181992E0
3.105622877E0,1.618529797E0,-7.881952763E0,-5.135719299E0
3.107622610E0,1.438959122E0,-7.738296032E0,-5.090228081E0
3.109622343E0,1.319245458E0,-7.666468143E0,-5.066285610E0
3.111622076E0,1.036720991E0,-7.544359684E0,-5.061496735E0
3.113621809E0,8.978530765E-1,-7.508445740E0,-5.087833881E0
3.115621609E0,6.344828010E-1,-7.386337757E0,-5.205153465E0
3.117621409E0,4.142095447E-1,-7.273807049E0,-5.367964268E0
3.119621142E0,1.077423692E-1,-7.142121792E0,-5.449369431E0
3.121620908E0,1.077423692E-1,-7.142121792E0,-5.449369431E0
3.123620641E0,-1.915419847E-2,-7.115784645E0,-5.444581032E0
3.125620374E0,-3.615354896E-1,-7.178035736E0,-5.435003757E0
3.127620107E0,-6.727912426E-1,-7.328875065E0,-5.348809719E0
3.129619840E0,-8.499675393E-1,-7.391126156E0,-5.265010357E0
3.131619640E0,-1.096577883E0,-7.515628815E0,-5.035160065E0
3.133619373E0,-1.187560320E0,-7.587456703E0,-4.884320736E0
3.135619106E0,-1.304879785E0,-7.711959362E0,-4.608979225E0
3.137618839E0,-1.321639657E0,-7.834067345E0,-4.348002911E0
3.139618572E0,-1.223474383E0,-8.083071709E0,-4.187586784E0
3.141618305E0,-1.223474383E0,-8.083071709E0,-4.187586784E0
3.143717222E0,-1.173194647E0,-8.183630943E0,-4.343214512E0
3.145716522E0,-1.024749637E0,-8.265036583E0,-4.417437077E0
3.147716322E0,-9.002473354E-1,-8.463761330E0,-4.558699131E0
3.149716055E0,-8.260248303E-1,-8.518829346E0,-4.656864643E0
3.151715788E0,-6.416656375E-1,-8.506858826E0,-4.975303173E0
3.153715521E0,-4.692778587E-1,-8.504464149E0,-5.174027920E0
3.155715254E0,-3.782954216E-1,-8.516435623E0,-5.276981831E0
3.157714987E0,-2.011190802E-1,-8.554743767E0,-5.451763630E0
3.159714720E0,4.309694469E-2,-8.499675751E0,-5.557111740E0
3.161714486E0,4.309694469E-2,-8.499675751E0,-5.557111740E0
3.163714286E0,1.412622184E-1,-8.332076073E0,-5.593026161E0
3.165714052E0,1.795706153E-1,-8.248276711E0,-5.609786034E0
3.167713818E0,1.915419847E-1,-8.080677032E0,-5.643305779E0
3.169713584E0,1.915419847E-1,-8.006455421E0,-5.669642925E0
3.171713350E0,3.375927508E-1,-7.865192890E0,-5.748653889E0
3.173713116E0,5.027977228E-1,-7.714353561E0,-5.894704342E0
3.175712882E0,5.363175869E-1,-7.642525196E0,-6.033572674E0
3.177712648E0,5.171633363E-1,-7.539571285E0,-6.380742550E0
3.179712481E0,5.315290093E-1,-7.424646378E0,-6.881145954E0
3.181712214E0,5.315290093E-1,-7.424646378E0,-6.881145954E0
3.183711980E0,6.392713785E-1,-7.302538395E0,-7.166064739E0
3.185711580E0,7.087053657E-1,-7.249864101E0,-7.257047176E0
3.187711346E0,7.996878028E-1,-7.211555958E0,-7.400703430E0
3.189711112E0,8.547561169E-1,-7.245075703E0,-7.489291668E0
3.191710878E0,9.577099085E-1,-7.319298267E0,-7.527599812E0
3.193710711E0,1.029538155E0,-7.597033978E0,-7.556331158E0
3.195710544E0,1.046298146E0,-7.793364525E0,-7.553936958E0
3.197710310E0,1.125309110E0,-8.178842545E0,-7.455771923E0
3.199710076E0,1.252205729E0,-8.770228386E0,-6.883540154E0
3.201709842E0,1.252205729E0,-8.770228386E0,-6.883540154E0
3.203709608E0,1.324033976E0,-9.045570374E0,-6.284971237E0
3.205709808E0,1.343188167E0,-9.179649353E0,-5.949772835E0
3.207709574E0,1.364736676E0,-9.435836792E0,-5.233884811E0
3.209709407E0,1.343188167E0,-9.665687561E0,-4.520390987E0
3.211709173E0,1.340793848E0,-9.773429871E0,-4.199557781E0
3.213708939E0,1.381496549E0,-9.967366219E0,-3.646480560E0
3.215708705E0,1.424593568E0,-1.004398251E1,-3.397475958E0
3.217708471E0,1.618529797E0,-1.016369629E1,-2.940169573E0
3.219708237E0,2.310475111E0,-1.033129597E1,-1.996825218E0
3.221707970E0,2.310475111E0,-1.033129597E1,-1.996825218E0
3.223707736E0,2.449343204E0,-1.036721039E1,-1.750214934E0
3.225707536E0,2.516382933E0,-1.040791225E1,-1.510787368E0
3.227707269E0,2.466103077E0,-1.044861507E1,-1.118126392E0
3.229707002E0,2.260195494E0,-1.038875866E1,-8.451790214E-1
3.231706735E0,2.171607256E0,-1.029298782E1,-7.518022656E-1
3.233706468E0,2.087807655E0,-1.010144520E1,-6.105400920E-1
3.235706201E0,2.025556564E0,-9.907508850E0,-5.482889414E-1
3.237705934E0,1.941756845E0,-9.797372818E0,-5.530774593E-1
3.239705667E0,2.035133600E0,-9.469356537E0,-6.129343510E-1
3.241705433E0,2.035133600E0,-9.469356537E0,-6.129343510E-1
3.243705166E0,2.044710636E0,-9.136552811E0,-7.541965842E-1
3.245705632E0,2.106961727E0,-8.808537483E0,-1.046298146E0
3.247705365E0,2.102173328E0,-8.624177933E0,-1.197137356E0
3.249705098E0,2.083019018E0,-8.231516838E0,-1.573038578E0
3.251704831E0,2.068653345E0,-8.039975166E0,-1.783734679E0
3.253704564E0,1.994430900E0,-7.711959362E0,-2.150058746E0
3.255704297E0,1.807677507E0,-7.436617374E0,-2.530748367E0
3.257704097E0,1.709512234E0,-7.304932594E0,-2.748627424E0
3.259703830E0,1.374313712E0,-6.775797844E0,-3.380716085E0
3.261703563E0,1.252205729E0,-6.562707424E0,-3.610566378E0
3.263703296E0,1.122914910E0,-6.340039730E0,-3.861965179E0
3.265703029E0,7.709565163E-1,-5.942590237E0,-4.467716694E0
3.267702762E0,5.482889414E-1,-5.770202160E0,-4.807703972E0
3.269702495E0,7.182824425E-3,-5.509226322E0,-5.573871613E0
3.271702295E0,-3.112557232E-1,-5.446975231E0,-5.988081455E0
3.273702095E0,-1.015172482E0,-5.413455486E0,-6.835654736E0
3.275701828E0,-1.668809533E0,-5.444581032E0,-7.644919395E0
3.277701561E0,-1.927391171E0,-5.442186832E0,-8.008849144E0
3.279701294E0,-2.806090117E0,-5.437397957E0,-8.921068192E0
3.281701027E0,-2.806090117E0,-5.437397957E0,-8.921068192E0
3.283700760E0,-2.997632027E0,-5.430215359E0,-9.052753448E0
3.285700493E0,-3.397475958E0,-5.308107376E0,-9.232323647E0
3.287700293E0,-3.593806505E0,-5.207547665E0,-9.330489159E0
3.289700093E0,-4.003227711E0,-5.032765865E0,-9.581888199E0
3.291699826E0,-4.379128456E0,-4.958543301E0,-1.003440571E1
3.293699559E0,-4.503631115E0,-4.965725899E0,-1.032890129E1
3.295699292E0,-4.604190350E0,-5.063891411E0,-1.091789341E1
3.297699025E0,-4.587430477E0,-5.157268047E0,-1.118844604E1
3.299698758E0,-4.091815472E0,-5.650488377E0,-1.169842625E1
3.301698558E0,-3.794925690E0,-5.650488377E0,-1.171279240E1
3.303698358E0,-3.438178539E0,-5.765413761E0,-1.165293503E1
3.305697524E0,-2.525959969E0,-5.952167034E0,-1.128661156E1
3.307697257E0,-2.023162127E0,-6.023995399E0,-1.098493290E1
3.309696990E0,-1.012778282E0,-6.095823765E0,-1.017806244E1
3.311696723E0,-4.788549617E-2,-6.035966873E0,-9.275420189E0
3.313696456E0,4.261809289E-1,-5.942590237E0,-8.777411461E0
3.315696189E0,1.357553840E0,-5.717528343E0,-7.704776287E0
3.317695922E0,1.800494671E0,-5.590631485E0,-7.178035736E0
3.319695722E0,3.593806505E0,-5.214730740E0,-5.276981831E0
3.321695422E0,3.593806505E0,-5.214730740E0,-5.276981831E0
3.323695155E0,4.067873001E0,-5.181210518E0,-4.841223717E0
3.325694888E0,5.023188591E0,-5.250644684E0,-4.075055599E0
3.327694621E0,5.456552505E0,-5.528380394E0,-3.859570980E0
3.329694354E0,6.311308384E0,-5.676825523E0,-3.713520288E0
3.331694087E0,7.379155159E0,-5.923435688E0,-3.196356773E0
3.333693820E0,7.953781128E0,-5.988081455E0,-2.827638626E0
3.335693620E0,9.067118645E0,-6.023995399E0,-1.992036581E0
3.337693353E0,9.972154617E0,-5.944984436E0,-1.125309110E0
3.339693086E0,1.078860188E1,-5.772596359E0,2.633702159E-1
3.341692852E0,1.078860188E1,-5.772596359E0,2.633702159E-1
3.343692585E0,1.091071033E1,-5.729499817E0,6.488484740E-1
3.345692318E0,1.106633854E1,-5.593026161E0,1.223474383E0
3.347692051E0,1.122675419E1,-5.458946705E0,1.692752242E0
3.349691784E0,1.129618835E1,-5.432609558E0,1.860351562E0
3.351691584E0,1.138717079E1,-5.379935265E0,2.004008055E0
3.353691317E0,1.143026829E1,-5.346415520E0,2.013585091E0
3.355691050E0,1.148773098E1,-5.274587631E0,1.860351562E0
3.357690783E0,1.129379463E1,-5.303318501E0,1.527547359E0
3.359690516E0,1.027383327E1,-5.672037125E0,6.847625971E-1
3.361690216E0,1.027383327E1,-5.672037125E0,6.847625971E-1
3.363689949E0,9.771035194E0,-5.873156071E0,3.399870098E-1
3.365689749E0,8.619389534E0,-6.227508545E0,-5.578660369E-1
3.367689549E0,7.486897469E0,-6.555524349E0,-1.764580488E0
3.369689282E0,6.948185444E0,-6.742278099E0,-2.468497276E0
3.371689015E0,5.935407162E0,-7.096630573E0,-4.134912491E0
3.373688748E0,5.408666611E0,-7.470137596E0,-5.080651283E0
3.375688481E0,4.352791786E0,-7.668862343E0,-7.101418972E0
3.377688214E0,3.430995703E0,-8.080677032E0,-8.983319283E0
3.379687947E0,2.743839025E0,-8.887548447E0,-1.137519932E1
3.381687780E0,2.743839025E0,-8.887548447E0,-1.137519932E1
3.383687546E0,2.695953369E0,-9.462174416E0,-1.272317600E1
3.385687312E0,2.774964571E0,-9.785401344E0,-1.326667690E1
3.387687078E0,2.947352171E0,-1.048692322E1,-1.407115269E1
3.389686844E0,2.966506481E0,-1.083648777E1,-1.432255173E1
3.391686610E0,2.743839025E0,-1.147575951E1,-1.455958557E1
3.393686376E0,2.126116037E0,-1.201207638E1,-1.460028744E1
3.395686142E0,1.721483588E0,-1.225629234E1,-1.456676769E1
3.397685975E0,8.715160489E-1,-1.273754215E1,-1.431058025E1
3.399685775E0,9.337671846E-2,-1.342469883E1,-1.332413960E1
3.401685508E0,4.549122229E-2,-1.361624050E1,-1.280697632E1
3.403685141E0,1.029538140E-1,-1.374553204E1,-1.221559048E1
3.405684941E0,2.490045726E-1,-1.381257153E1,-1.156674194E1
3.407684741E0,6.727912426E-1,-1.376229191E1,-1.018763924E1
3.409684541E0,8.810931444E-1,-1.362581825E1,-9.474145889E0
3.411684341E0,1.230657220E0,-1.321160793E1,-8.078283310E0
3.413684207E0,1.510787368E0,-1.257473087E1,-6.802134514E0
3.415684073E0,1.616135478E0,-1.222037888E1,-6.239480019E0
3.417683939E0,1.496421814E0,-1.158350182E1,-6.064698219E0
3.419683805E0,1.936968327E0,-1.095620155E1,-5.243461609E0
3.421683705E0,1.936968327E0,-1.095620155E1,-5.243461609E0
3.423683571E0,2.576239586E0,-1.074790001E1,-4.575459003E0
3.425683171E0,2.870735407E0,-1.064015770E1,-4.314483166E0
3.427683037E0,3.263396502E0,-1.042467213E1,-3.854782343E0
3.429682970E0,3.347196102E0,-1.021876526E1,-3.481275558E0
3.431682836E0,3.306493521E0,-1.013017654E1,-3.340013266E0
3.433682702E0,3.086220264E0,-1.003201103E1,-3.153259993E0
3.435682568E0,2.952140808E0,-1.002004051E1,-3.124528646E0
3.437682434E0,2.592999697E0,-1.009905148E1,-3.057488918E0
3.439682300E0,1.618529797E0,-1.034326744E1,-2.952140808E0
3.441682100E0,1.618529797E0,-1.034326744E1,-2.952140808E0
3.443682000E0,8.092648983E-1,-1.046776962E1,-2.983266354E0
3.445681900E0,3.423812985E-1,-1.048931789E1,-2.992843628E0
3.447681733E0,-7.230709791E-1,-1.052762604E1,-2.944957972E0
3.449681566E0,-1.786128998E0,-1.054438591E1,-2.765387297E0
3.451682332E0,-2.276955366E0,-1.054917526E1,-2.624125242E0
3.453682165E0,-3.189173937E0,-1.064255142E1,-2.336812258E0
3.455681998E0,-3.603383541E0,-1.073592854E1,-2.224281311E0
3.457681831E0,-4.300117493E0,-1.100408745E1,-2.118933201E0
3.459681697E0,-5.305713177E0,-1.152125072E1,-2.063864946E0
3.461681630E0,-5.667248249E0,-1.171758080E1,-2.054287672E0
3.463681596E0,-6.035966873E0,-1.189715195E1,-2.025556564E0
3.465681396E0,-6.399896622E0,-1.204320240E1,-1.980065227E0
3.467681196E0,-7.101418972E0,-1.221080112E1,-1.843591571E0
3.469680996E0,-7.709564686E0,-1.232572651E1,-1.664021015E0
3.471680796E0,-7.927443981E0,-1.231136131E1,-1.587404251E0
3.473680596E0,-8.063917160E0,-1.219643593E1,-1.474873304E0
3.475680396E0,-7.867587090E0,-1.197376823E1,-1.357553840E0
3.477680129E0,-7.692804813E0,-1.184687138E1,-1.285725594E0
3.479679862E0,-7.036773682E0,-1.135125732E1,-9.481328130E-1
3.481679562E0,-7.036773682E0,-1.135125732E1,-9.481328130E-1
3.483679295E0,-6.577073097E0,-1.095859623E1,-5.985686779E-1
3.485679295E0,-6.167652130E0,-1.047974110E1,-2.753416002E-1
3.487679028E0,-5.949772835E0,-1.021397591E1,-1.101366431E-1
3.489678761E0,-5.518803596E0,-9.692024231E0,2.106961906E-1
3.491678561E0,-5.322473049E0,-9.443019867E0,3.711125851E-1
3.493678294E0,-4.953754425E0,-8.935433388E0,7.254652381E-1
3.495678027E0,-4.690384388E0,-8.382355690E0,1.331216812E0
3.497677760E0,-4.589824677E0,-8.121379852E0,1.649655342E0
3.499677493E0,-4.273780346E0,-7.496474266E0,2.255406857E0
3.501677293E0,-4.175615311E0,-7.345634937E0,2.363149166E0
3.503677026E0,-4.110970020E0,-7.223526955E0,2.413429022E0
3.505676759E0,-4.079844475E0,-7.110996246E0,2.415823221E0
3.507676559E0,-4.142095566E0,-7.154093266E0,2.375120640E0
3.509676292E0,-4.616161823E0,-7.642525196E0,2.090201855E0
3.511675092E0,-4.790944099E0,-7.721536160E0,2.056682110E0
3.513674825E0,-5.027976990E0,-7.577879906E0,2.229069948E0
3.515674558E0,-5.236279011E0,-7.271412373E0,2.475680113E0
3.517674291E0,-5.355992794E0,-7.113390446E0,2.547508478E0
3.519674024E0,-5.899493217E0,-6.720729351E0,2.286532402E0
3.521673724E0,-5.899493217E0,-6.720729351E0,2.286532402E0
3.523673524E0,-6.083852291E0,-6.730306625E0,1.977671027E0
3.525673257E0,-6.447782040E0,-6.866780281E0,1.075029373E0
3.527672990E0,-6.605803967E0,-6.986494064E0,5.578660369E-1
3.529672723E0,-6.871568680E0,-7.312115192E0,-4.189980924E-1
3.531672456E0,-7.110996246E0,-7.711959362E0,-1.304879785E0
3.533672189E0,-7.216344357E0,-7.929838181E0,-1.740637779E0
3.535671922E0,-7.388731956E0,-8.363202095E0,-2.557085514E0
3.537671722E0,-7.470137596E0,-8.581081390E0,-2.935380936E0
3.539671522E0,-7.676044941E0,-9.246688843E0,-3.962524891E0
3.541671222E0,-7.762238979E0,-9.428654671E0,-4.276175022E0
3.543670955E0,-7.865192890E0,-9.596253395E0,-4.561093330E0
3.545670688E0,-8.087860107E0,-9.845257759E0,-5.027976990E0
3.547670421E0,-8.174054146E0,-9.943423271E0,-5.197970390E0
3.549670154E0,-8.217150688E0,-1.005834866E1,-5.387118340E0
3.551669887E0,-8.118986130E0,-1.010862827E1,-5.358386993E0
3.553669687E0,-8.032792091E0,-1.010383987E1,-5.260221958E0
3.555669420E0,-7.817307472E0,-1.000088596E1,-4.956148624E0
3.557669153E0,-7.711959362E0,-9.917086601E0,-4.774183750E0
3.559668886E0,-7.381549358E0,-9.579493523E0,-3.905062199E0
3.561668619E0,-7.381549358E0,-9.579493523E0,-3.905062199E0
3.563668352E0,-7.288172722E0,-9.481328011E0,-3.656057596E0
3.565668085E0,-7.130150318E0,-9.270631790E0,-3.210722446E0
3.567667818E0,-7.065505028E0,-9.055147171E0,-2.925803900E0
3.569667618E0,-6.955368519E0,-8.945011139E0,-2.834821463E0
3.571667351E0,-6.828471661E0,-8.741497040E0,-2.782147408E0
3.573667084E0,-6.759037971E0,-8.660092354E0,-2.813272953E0
3.575666817E0,-6.653689861E0,-8.609811783E0,-3.093403101E0
3.577666550E0,-6.591438770E0,-8.526012421E0,-3.380716085E0
3.579666283E0,-6.440599442E0,-8.327287674E0,-3.658451796E0
3.581666016E0,-6.440599442E0,-8.327287674E0,-3.658451796E0
3.583665749E0,-6.363982677E0,-8.250671387E0,-3.718308687E0
3.585665449E0,-6.225114346E0,-8.126168251E0,-3.775771379E0
3.587665182E0,-6.114977837E0,-8.016032219E0,-3.723097324E0
3.589664915E0,-6.069486618E0,-7.972935200E0,-3.670423269E0
3.591664648E0,-6.062304020E0,-7.889135361E0,-3.529160976E0
3.593664381E0,-6.067092419E0,-7.826884270E0,-3.507612705E0
3.595664114E0,-5.954561234E0,-7.699987888E0,-3.759011507E0
3.597663847E0,-5.739076614E0,-7.522811413E0,-4.189980984E0
3.599663580E0,-5.217124939E0,-7.166064739E0,-5.267404556E0
3.601663446E0,-5.217124939E0,-7.166064739E0,-5.267404556E0
3.603663179E0,-5.006428719E0,-7.029590607E0,-5.727105141E0
3.605662912E0,-4.565882206E0,-6.739883423E0,-6.723123550E0
3.607662645E0,-4.077449799E0,-6.438204765E0,-7.848433018E0
3.609662378E0,-3.840416908E0,-6.280182838E0,-8.475732803E0
3.611662111E0,-3.402264595E0,-6.007235527E0,-9.727938652E0
3.613661844E0,-3.210722446E0,-5.758230686E0,-1.079578495E1
3.615661644E0,-2.887495518E0,-5.652883053E0,-1.122914886E1
3.617661444E0,-2.779752970E0,-5.537957668E0,-1.202404785E1
3.619661177E0,-2.672010660E0,-5.353598595E0,-1.234248638E1
3.621660877E0,-2.672010660E0,-5.353598595E0,-1.234248638E1
3.623660610E0,-2.688770533E0,-5.202759266E0,-1.146378803E1
3.625660343E0,-2.633702278E0,-5.147690773E0,-1.092747021E1
3.627660076E0,-2.317657948E0,-5.106987953E0,-1.024749660E1
3.629659809E0,-2.185972929E0,-5.154873848E0,-1.009426212E1
3.631659609E0,-2.090201855E0,-5.315289974E0,-9.730332375E0
3.633659342E0,-2.346389294E0,-5.458946705E0,-9.004867554E0
3.635659075E0,-2.554691315E0,-5.535563469E0,-8.502069473E0
3.637658808E0,-2.971295118E0,-5.688796997E0,-7.441406250E0
3.639658541E0,-3.359167576E0,-5.916253090E0,-6.328068256E0
3.641658307E0,-3.359167576E0,-5.956955910E0,-6.052726746E0
3.643658040E0,-3.651269197E0,-5.971321583E0,-5.822876453E0
3.645657873E0,-3.828445435E0,-6.000052452E0,-5.691191196E0
3.647657673E0,-4.221106529E0,-6.184412003E0,-5.695979595E0
3.649657406E0,-4.448562622E0,-6.306519985E0,-5.724710941E0
3.651657139E0,-4.767001152E0,-6.660872459E0,-5.842030525E0
3.653656872E0,-5.097411156E0,-7.015225410E0,-6.021601200E0
3.655656605E0,-5.286558628E0,-7.187613010E0,-6.093429565E0
3.657656338E0,-5.755836487E0,-7.498868465E0,-6.249057293E0
3.659656071E0,-6.567495823E0,-7.905895233E0,-6.428627968E0
3.661655771E0,-6.567495823E0,-7.905895233E0,-6.428627968E0
3.663655571E0,-7.053533554E0,-8.061523438E0,-6.354405403E0
3.665655304E0,-7.264229774E0,-8.109408379E0,-6.265817165E0
3.667655037E0,-7.553936958E0,-8.154899597E0,-6.170046329E0
3.669654770E0,-7.767027378E0,-8.135746002E0,-6.033572674E0
3.671654503E0,-7.848433018E0,-8.087860107E0,-5.942590237E0
3.673654236E0,-7.937020779E0,-7.944203854E0,-5.712739468E0
3.675653969E0,-7.925049782E0,-7.836461544E0,-5.593026161E0
3.677653702E0,-7.872375488E0,-7.597033978E0,-5.418243885E0
3.679653502E0,-7.767027378E0,-7.295355320E0,-5.092622280E0
3.681653235E0,-7.767027378E0,-7.295355320E0,-5.092622280E0
3.683652968E0,-7.642525196E0,-7.209161282E0,-4.886714935E0
3.685652701E0,-7.606611252E0,-7.185218811E0,-4.817280769E0
3.687652434E0,-7.529994488E0,-7.194795609E0,-4.735875607E0
3.689652167E0,-7.398309231E0,-7.254652500E0,-4.534756660E0
3.691651900E0,-7.300143719E0,-7.271412373E0,-4.417437077E0
3.693651700E0,-7.046350956E0,-7.304932594E0,-4.264203548E0
3.695651500E0,-6.900300026E0,-7.321692467E0,-4.185192585E0
3.697651233E0,-6.601015568E0,-7.388731956E0,-3.931399345E0
3.699650966E0,-6.198777676E0,-7.383943558E0,-3.787742853E0
3.701650666E0,-6.103006363E0,-7.400703430E0,-3.811685562E0
3.703650399E0,-6.059909344E0,-7.400703430E0,-3.842811108E0
3.705650132E0,-6.045543671E0,-7.388731956E0,-3.902667999E0
3.707649865E0,-6.088640690E0,-7.371972084E0,-3.919427872E0
3.709649665E0,-6.179623127E0,-7.360000610E0,-3.902667999E0
3.711649465E0,-6.246663094E0,-7.357606411E0,-3.873936653E0
3.713649198E0,-6.359193802E0,-7.364789486E0,-3.723097324E0
3.715648931E0,-6.375953674E0,-7.395915031E0,-3.533949614E0
3.717648664E0,-6.366376877E0,-7.395915031E0,-3.435784340E0
3.719648397E0,-6.284971237E0,-7.379155159E0,-3.105374336E0
3.721648163E0,-6.222720146E0,-7.348029613E0,-2.990449190E0
3.723647896E0,-6.153286457E0,-7.316903591E0,-2.882706881E0
3.725647696E0,-5.990475655E0,-7.223526955E0,-2.767781734E0
3.727647429E0,-5.918647289E0,-7.182824612E0,-2.731867552E0
3.729647162E0,-5.810904980E0,-7.125361919E0,-2.686376333E0
3.731646895E0,-5.777385235E0,-7.087053299E0,-2.703136206E0
3.733646628E0,-5.760625362E0,-7.005648136E0,-2.734261751E0
3.735646361E0,-5.798933506E0,-6.917059898E0,-2.772570133E0
3.737646094E0,-5.834847927E0,-6.873962879E0,-2.777358770E0
3.739645827E0,-6.014418125E0,-6.742278099E0,-2.739050388E0
3.741645593E0,-6.093429565E0,-6.739883423E0,-2.717501879E0
3.743645326E0,-6.179623127E0,-6.744672298E0,-2.686376333E0
3.745644726E0,-6.325674057E0,-6.749460697E0,-2.609759569E0
3.747644459E0,-6.387925148E0,-6.763826370E0,-2.573845387E0
3.749644192E0,-6.474119186E0,-6.787769318E0,-2.533142805E0
3.751643925E0,-6.490879059E0,-6.782980442E0,-2.540325642E0
3.753643658E0,-6.486090660E0,-6.763826370E0,-2.583422422E0
3.755643391E0,-6.464541912E0,-6.735095024E0,-2.686376333E0
3.757643191E0,-6.459753513E0,-6.754249096E0,-2.748627424E0
3.759642924E0,-6.529187202E0,-6.780586243E0,-3.208328247E0
3.761642690E0,-6.529187202E0,-6.780586243E0,-3.208328247E0
3.763642423E0,-6.572284222E0,-6.790163517E0,-3.342407703E0
3.765642156E0,-6.711152077E0,-6.799740314E0,-3.553103924E0
3.767641889E0,-6.771008968E0,-6.804529190E0,-3.641691923E0
3.769641622E0,-6.917059898E0,-6.806923389E0,-3.715914488E0
3.771641355E0,-7.060716629E0,-6.778192043E0,-3.725491524E0
3.773641155E0,-7.120573044E0,-6.756643295E0,-3.730280161E0
3.775640888E0,-7.197190285E0,-6.725517750E0,-3.761405706E0
3.777640621E0,-7.197190285E0,-6.701575279E0,-3.797319889E0
3.779640354E0,-7.139727592E0,-6.641718388E0,-4.039141655E0
3.781640054E0,-7.101418972E0,-6.624958515E0,-4.151672363E0
3.783639787E0,-7.055927753E0,-6.605803967E0,-4.276175022E0
3.785639520E0,-7.005648136E0,-6.569890022E0,-4.585036278E0
3.787639320E0,-7.005648136E0,-6.533976078E0,-4.769395351E0
3.789639120E0,-7.046350956E0,-6.445387840E0,-5.061496735E0
3.791638886E0,-7.110996246E0,-6.380742550E0,-5.281770229E0
3.793638652E0,-7.132544518E0,-6.368771076E0,-5.355992794E0
3.795638418E0,-7.130150318E0,-6.335251331E0,-5.415849686E0
3.797638184E0,-7.106207848E0,-6.342433929E0,-5.391906738E0
3.799637950E0,-6.873962879E0,-6.407079220E0,-5.049525738E0
3.801637750E0,-6.873962879E0,-6.407079220E0,-5.049525738E0
3.803637583E0,-6.778192043E0,-6.445387840E0,-4.936994553E0
3.805637683E0,-6.617775440E0,-6.536370277E0,-4.668835640E0
3.807637449E0,-6.431022167E0,-6.593832970E0,-4.302511692E0
3.809637215E0,-6.359193802E0,-6.605803967E0,-4.134912491E0
3.811636981E0,-6.395108223E0,-6.612987041E0,-4.048718929E0
3.813636747E0,-6.541158676E0,-6.598621368E0,-4.166038036E0
3.815636513E0,-6.756643295E0,-6.586649895E0,-4.015198708E0
3.817636279E0,-6.792557716E0,-6.567495823E0,-3.478881359E0
3.819636112E0,-7.036773682E0,-6.488484859E0,-3.160442829E0
3.821635878E0,-7.036773682E0,-6.488484859E0,-3.160442829E0
3.823635644E0,-7.192401409E0,-6.471724987E0,-3.191568375E0
3.825635410E0,-7.403097630E0,-6.414262295E0,-3.165231228E0
3.827635176E0,-7.625765324E0,-6.296942711E0,-3.375927448E0
3.829634942E0,-7.719141960E0,-6.241874218E0,-3.524372578E0
3.831634708E0,-7.858009815E0,-6.167652130E0,-3.792531252E0
3.833634474E0,-7.913078308E0,-6.117372036E0,-3.893090725E0
3.835634307E0,-7.992089272E0,-6.007235527E0,-4.039141655E0
3.837634073E0,-8.090254784E0,-5.894704342E0,-4.158855438E0
3.839633839E0,-8.224333763E0,-5.789356709E0,-4.192375183E0
3.841633572E0,-8.224333763E0,-5.789356709E0,-4.192375183E0
3.843633338E0,-8.257853508E0,-5.734288216E0,-4.173221111E0
3.845633104E0,-8.291373253E0,-5.710345268E0,-3.957736254E0
3.847632870E0,-8.248276711E0,-5.674431324E0,-3.533949614E0
3.849632636E0,-8.221940041E0,-5.655277252E0,-3.330436230E0
3.851632836E0,-8.207573891E0,-5.619362831E0,-2.877918243E0
3.853632569E0,-8.126168251E0,-5.648094177E0,-2.288926601E0
3.855632302E0,-8.061523438E0,-5.672037125E0,-1.953728199E0
3.857632035E0,-7.958569527E0,-5.760625362E0,-1.376708031E0
3.859631768E0,-7.738296032E0,-6.023995399E0,-5.147690773E-1
3.861631534E0,-7.738296032E0,-6.023995399E0,-5.147690773E-1
3.863631267E0,-7.515628815E0,-6.253845692E0,7.422251999E-2
3.865630333E0,-7.407886028E0,-6.371165276E0,2.705530524E-1
3.867630133E0,-7.132544518E0,-6.589044094E0,6.368771195E-1
3.869629866E0,-6.988888264E0,-6.711152077E0,8.212362528E-1
3.871629599E0,-6.634535313E0,-6.921848297E0,1.271359921E0
3.873629332E0,-6.222720146E0,-7.058321953E0,1.745426297E0
3.875629065E0,-6.045543671E0,-7.094236374E0,1.927391171E0
3.877628798E0,-5.676825523E0,-7.132544518E0,2.262589693E0
3.879628531E0,-5.147690773E0,-7.075081825E0,2.492439985E0
3.881628297E0,-5.147690773E0,-7.075081825E0,2.492439985E0
3.883628030E0,-4.886714935E0,-6.998465061E0,2.490045786E0
3.885627763E0,-4.783761024E0,-6.976916790E0,2.413429022E0
3.887627496E0,-4.716721535E0,-6.952973843E0,2.013585091E0
3.889627229E0,-4.793338299E0,-6.957762718E0,1.671203852E0
3.891626962E0,-5.027976990E0,-6.957762718E0,8.212362528E-1
3.893626695E0,-5.272192955E0,-6.988888264E0,-1.484450400E-1
3.895626428E0,-5.387118340E0,-7.015225410E0,-6.225114465E-1
3.897626228E0,-5.602602959E0,-6.996070862E0,-1.455719113E0
3.899625961E0,-5.930618763E0,-6.943397045E0,-2.449343204E0
3.901625727E0,-5.930618763E0,-6.943397045E0,-2.449343204E0
3.903625460E0,-6.134131908E0,-6.864386082E0,-2.897072554E0
3.905625193E0,-6.229903221E0,-6.823683262E0,-3.043123245E0
3.907624926E0,-6.368771076E0,-6.747066498E0,-3.225088120E0
3.909624659E0,-6.464541912E0,-6.656084061E0,-3.306493521E0
3.911623992E0,-6.502850533E0,-6.620169640E0,-3.316070557E0
3.913623792E0,-6.593832970E0,-6.562707424E0,-3.337619066E0
3.915623525E0,-6.651295185E0,-6.533976078E0,-3.366350412E0
3.917623258E0,-6.766220570E0,-6.471724987E0,-3.423812866E0
3.919622991E0,-6.907482624E0,-6.390319347E0,-3.390293121E0
3.921622691E0,-6.907482624E0,-6.390319347E0,-3.390293121E0
3.923622424E0,-6.948185444E0,-6.337645531E0,-3.342407703E0
3.925622890E0,-6.936213970E0,-6.330462456E0,-3.316070557E0
3.927622623E0,-6.840443134E0,-6.323279858E0,-3.234665155E0
3.929622423E0,-6.708757877E0,-6.352011204E0,-3.122134447E0
3.931622156E0,-6.658478260E0,-6.373559475E0,-3.059883118E0
3.933621889E0,-6.524398804E0,-6.442993641E0,-2.956929445E0
3.935621622E0,-6.464541912E0,-6.495667458E0,-2.918621063E0
3.937621355E0,-6.354405403E0,-6.605803967E0,-2.818061352E0
3.939621088E0,-6.239480019E0,-6.871568680E0,-2.561874151E0
3.941620854E0,-6.239480019E0,-6.871568680E0,-2.561874151E0
3.943620220E0,-6.237085819E0,-6.926637173E0,-2.485257149E0
3.945620020E0,-6.289760113E0,-7.046350956E0,-2.322446585E0
3.947619753E0,-6.318490982E0,-7.110996246E0,-2.233858347E0
3.949619486E0,-6.371165276E0,-7.235498428E0,-2.008796453E0
3.951619219E0,-6.397502422E0,-7.283383846E0,-1.891477108E0
3.953618952E0,-6.428627968E0,-7.360000610E0,-1.683175206E0
3.955618685E0,-6.483695984E0,-7.391126156E0,-1.553884387E0
3.957618418E0,-6.524398804E0,-7.393520832E0,-1.520364523E0
3.959618218E0,-6.670449734E0,-7.343240738E0,-1.453324795E0
3.961618018E0,-6.670449734E0,-7.324086666E0,-1.443747759E0
3.963617751E0,-6.775797844E0,-7.324086666E0,-1.446141958E0
3.965617484E0,-6.950579643E0,-7.304932594E0,-1.489238977E0
3.967617217E0,-7.043956280E0,-7.280989647E0,-1.510787368E0
3.969616950E0,-7.240286827E0,-7.261835575E0,-1.515576005E0
3.971616683E0,-7.326480865E0,-7.278595448E0,-1.513181686E0
3.973616416E0,-7.434223175E0,-7.290566921E0,-1.496421814E0
3.975616216E0,-7.503657341E0,-7.331269264E0,-1.517970204E0
3.977615949E0,-7.518023014E0,-7.350423813E0,-1.565855742E0
3.979615682E0,-7.496474266E0,-7.470137596E0,-1.793311834E0
3.981615448E0,-7.450983047E0,-7.527599812E0,-1.649655342E0
3.983615181E0,-7.436617374E0,-7.570696831E0,-1.364736676E0
3.985614914E0,-7.479714394E0,-7.594639778E0,-1.110943556E0
3.987614647E0,-7.503657341E0,-7.568302631E0,-1.249811411E0
3.989614380E0,-7.491685867E0,-7.474925995E0,-2.059076309E0
3.991614180E0,-7.496474266E0,-7.345634937E0,-3.237059593E0
3.993613913E0,-7.539571285E0,-7.292961121E0,-3.804502726E0
3.995613646E0,-7.628159523E0,-7.192401409E0,-4.735875607E0
3.997613379E0,-7.690410614E0,-7.130150318E0,-5.075862408E0
3.999613112E0,-7.913078308E0,-6.847625732E0,-5.626545906E0
4.001612812E0,-7.913078308E0,-6.847625732E0,-5.626545906E0
4.003612978E0,-7.920260906E0,-6.768614769E0,-5.604997158E0
4.005612711E0,-7.963357925E0,-6.680026531E0,-5.490072250E0
4.007612511E0,-8.049551964E0,-6.687209606E0,-5.454157829E0
4.009612244E0,-8.447001457E0,-6.802134514E0,-5.537957668E0
4.011611977E0,-8.971347809E0,-7.024802208E0,-5.657671452E0
4.013611710E0,-9.220352173E0,-7.156487465E0,-5.686402798E0
4.015611443E0,-9.632167816E0,-7.410280704E0,-5.672037125E0
4.017611176E0,-9.778218269E0,-7.496474266E0,-5.607391834E0
4.019610909E0,-9.737515450E0,-7.587456703E0,-4.987274647E0
4.021610675E0,-9.737515450E0,-7.587456703E0,-4.987274647E0
4.023610475E0,-9.593858719E0,-7.563514233E0,-4.733481407E0
4.025610208E0,-9.203592300E0,-7.489291668E0,-4.185192585E0
4.027609941E0,-8.933039665E0,-7.417463303E0,-3.888302326E0
4.029609674E0,-8.308133125E0,-7.266623974E0,-3.328042030E0
4.031609407E0,-7.668862343E0,-7.139727592E0,-2.801301479E0
4.033609140E0,-7.383943558E0,-7.082264900E0,-2.540325642E0
4.035608873E0,-6.993676662E0,-6.986494064E0,-2.042316437E0
4.037608673E0,-6.854808807E0,-6.921848297E0,-1.553884387E0
4.039608473E0,-6.263422966E0,-6.792557716E0,-9.601042271E-1
4.041608139E0,-6.263422966E0,-6.792557716E0,-9.601042271E-1
4.043607872E0,-6.107795238E0,-6.749460697E0,-7.901107073E-1
4.045607605E0,-5.849213123E0,-6.646506786E0,-5.435003638E-1
4.047607338E0,-5.655277252E0,-6.524398804E0,-2.873129845E-1
4.049607071E0,-5.578660488E0,-6.483695984E0,-1.652049571E-1
4.051606804E0,-5.435003757E0,-6.426233768E0,8.140534163E-2
4.053606604E0,-5.399089813E0,-6.397502422E0,2.178790122E-1
4.055606337E0,-5.286558628E0,-6.325674057E0,5.722316504E-1
4.057606070E0,-5.298530102E0,-6.268211365E0,8.715160489E-1
4.059605803E0,-5.528380394E0,-6.150891781E0,1.115732074E0
4.061605536E0,-5.528380394E0,-6.150891781E0,1.115732074E0
4.063605269E0,-5.660065651E0,-6.105400562E0,1.166011810E0
4.065605002E0,-6.014418125E0,-6.019207001E0,1.230657220E0
4.067604735E0,-6.447782040E0,-5.935407162E0,1.221080184E0
4.069604535E0,-6.651295185E0,-5.892310143E0,1.187560320E0
4.071604268E0,-6.998465061E0,-5.774991035E0,1.084606528E0
4.073604001E0,-7.175641537E0,-5.717528343E0,1.012778282E0
4.075603734E0,-7.618582249E0,-5.624151707E0,8.188419938E-1
4.077603467E0,-8.097437859E0,-5.552323341E0,5.075862408E-1
4.079603200E0,-8.832479477E0,-5.442186832E0,-1.364736706E-1
4.081602933E0,-8.832479477E0,-5.442186832E0,-1.364736706E-1
4.083602666E0,-9.076695442E0,-5.389512539E0,-6.392713785E-1
4.085602466E0,-9.464568138E0,-5.344021320E0,-8.810931444E-1
4.087602199E0,-9.732727051E0,-5.243461609E0,-1.331216812E0
4.089601932E0,-9.826104164E0,-5.202759266E0,-1.529941559E0
4.091601665E0,-9.921875000E0,-5.092622280E0,-1.884294271E0
4.093601398E0,-9.914691925E0,-5.004034519E0,-2.147664547E0
4.095601131E0,-9.871595383E0,-4.953754425E0,-2.226675510E0
4.097600864E0,-9.751881599E0,-4.855589390E0,-2.269772530E0
4.099600597E0,-9.431048393E0,-4.714327335E0,-2.094990492E0
4.101600430E0,-9.431048393E0,-4.714327335E0,-2.094990492E0
4.103600163E0,-9.201197624E0,-4.692778587E0,-1.920208454E0
4.105599896E0,-9.083878517E0,-4.678412914E0,-1.831620216E0
4.107599629E0,-8.818114281E0,-4.671230316E0,-1.707117915E0
4.109599362E0,-8.674457550E0,-4.661653042E0,-1.640078187E0
4.111599095E0,-8.406298637E0,-4.632921696E0,-1.505998850E0
4.113598828E0,-8.174054146E0,-4.568276405E0,-1.359948039E0
4.115598628E0,-8.090254784E0,-4.527573586E0,-1.292908430E0
4.117598428E0,-7.925049782E0,-4.462928295E0,-1.182771802E0
4.119598161E0,-7.755055904E0,-4.355185986E0,-8.308133483E-1
4.121597927E0,-7.685622215E0,-4.355185986E0,-8.308133483E-1
4.123597660E0,-7.632947922E0,-4.348002911E0,-7.230709791E-1
4.125597393E0,-7.587456703E0,-4.350397110E0,-6.296942830E-1
4.127597126E0,-7.484503269E0,-4.355185986E0,-4.573064744E-1
4.129596859E0,-7.446194649E0,-4.410254002E0,-3.375927508E-1
