"Time (s)","Acceleration x (m/s^2)","Acceleration y (m/s^2)","Acceleration z (m/s^2)"
0.000000000E0,-7.749454975E-1,1.874651432E0,6.738216877E0
2.487552000E-3,-7.749454975E-1,1.874651432E0,6.738216877E0
5.001302000E-3,-7.366398573E-1,1.752552152E0,6.438954830E0
7.532656000E-3,-8.252215385E-1,1.702276230E0,6.319249630E0
1.005109400E-2,-9.377442002E-1,1.594541669E0,6.249820709E0
1.256276000E-2,-1.062237382E0,1.541871548E0,6.259397030E0
1.507005200E-2,-1.059843302E0,1.410196066E0,6.290520668E0
1.757442700E-2,-1.043084502E0,1.414984345E0,6.328825951E0
2.007671900E-2,-1.112513423E0,1.412590265E0,6.455713272E0
2.257750000E-2,-1.253765225E0,1.458078027E0,6.740611076E0
2.507697900E-2,-1.392622948E0,1.510748267E0,7.056632042E0
2.757541700E-2,-1.450081348E0,1.405407906E0,6.972838879E0
3.007302100E-2,-1.591333151E0,1.233032823E0,6.855527878E0
3.257000000E-2,-1.761314154E0,1.106145620E0,6.716670036E0
3.503947900E-2,-1.811590314E0,1.060657740E0,6.637664795E0
3.748057300E-2,-1.871442795E0,1.041504979E0,6.668787956E0
3.992088500E-2,-1.840319395E0,1.034322619E0,6.680758476E0
4.236114600E-2,-1.768496513E0,1.027140379E0,6.539506435E0
4.480067700E-2,-1.670338392E0,9.912288785E-1,6.333614349E0
4.724015600E-2,-1.519510150E0,9.433469176E-1,6.192362309E0
4.968046900E-2,-1.469234109E0,9.098295569E-1,5.988863945E0
5.212072900E-2,-1.404593468E0,8.044891953E-1,5.696784019E0
5.456020800E-2,-1.354317427E0,7.159075141E-1,5.500467777E0
5.699968700E-2,-1.411775708E0,5.674734116E-1,5.311334133E0
5.944000000E-2,-1.572180390E0,4.118570089E-1,5.134170532E0
6.188026000E-2,-1.713432074E0,2.729992270E-1,4.959401608E0
6.431973900E-2,-1.857078075E0,1.556884199E-1,4.753509045E0
6.675921900E-2,-1.974389076E0,6.950087845E-2,4.614651203E0
6.919953100E-2,-2.096487999E0,1.204250753E-2,4.561981201E0
7.163979200E-2,-2.209010601E0,-7.110297680E-3,4.736750126E0
7.407932300E-2,-2.307168722E0,-2.147488296E-2,4.964189529E0
7.651880200E-2,-2.278439522E0,-6.456865370E-2,5.150929451E0
7.895911400E-2,-2.218586922E0,-8.372145891E-2,5.253875732E0
8.139937500E-2,-2.137187719E0,-6.217455864E-2,5.419068813E0
8.383885400E-2,-2.096487999E0,-5.499225855E-2,5.708754539E0
8.627833300E-2,-2.074940920E0,-4.541586339E-2,6.027169704E0
8.871864600E-2,-2.067758799E0,-5.978046358E-2,6.278550148E0
9.115890600E-2,-2.053394318E0,-5.978046358E-2,6.460501671E0
9.359838500E-2,-2.024665117E0,-1.651208103E-1,6.747793198E0
9.603786400E-2,-1.998329878E0,-2.058204859E-1,7.059026241E0
9.847817700E-2,-1.957630277E0,-2.225791812E-1,7.394200325E0
1.009184890E-1,-2.019876957E0,-2.896139622E-1,7.765285015E0
1.033579690E-1,-2.024665117E0,-3.710133135E-1,8.038212776E0
1.057974480E-1,-2.177887201E0,-4.931123257E-1,8.162705421E0
1.082377600E-1,-2.534607887E0,-7.851923704E-1,7.875413895E0
1.106780210E-1,-3.224108458E0,-1.287953138E0,6.963262081E0
1.131175000E-1,-3.829815388E0,-1.726073265E0,5.924222946E0
1.155569790E-1,-4.270329475E0,-1.987030029E0,6.043928146E0
1.179972920E-1,-4.196112633E0,-1.864930868E0,6.558659554E0
1.204375520E-1,-3.858544827E0,-1.575245023E0,7.018326759E0
1.228770830E-1,-3.080462456E0,-1.127548456E0,8.172282219E0
1.253165620E-1,-3.003851414E0,-8.881385922E-1,9.635076523E0
1.277568230E-1,-3.774751186E0,-7.109753489E-1,9.113162994E0
1.301971350E-1,-3.520976782E0,-7.653915882E-2,7.619245052E0
1.326366140E-1,-2.999063253E0,2.897579670E-1,6.771734238E0
1.350760940E-1,-2.963151693E0,1.413238198E-1,6.515565872E0
1.375164060E-1,-3.358177900E0,-1.818795055E-1,6.668787956E0
1.399566670E-1,-3.683775425E0,-2.752493620E-1,7.015932083E0
1.423961460E-1,-3.678987265E0,-9.569194913E-2,7.324771404E0
1.448356250E-1,-3.355783939E0,2.801815867E-1,7.604880810E0
1.472759370E-1,-2.774018049E0,6.249317527E-1,7.755708694E0
1.497161980E-1,-2.137187719E0,8.643416762E-1,7.978360176E0
1.521557290E-1,-1.507539749E0,9.241941571E-1,8.308745384E0
1.545952080E-1,-6.265113950E-1,1.177968621E0,1.042034149E1
1.570355210E-1,-4.206188917E-1,1.549053788E0,1.177061176E1
1.594757810E-1,-4.852595329E-1,1.455683947E0,1.151683807E1
1.619152600E-1,-1.074207902E0,9.361646771E-1,1.116490555E1
1.643547390E-1,-2.062970400E0,1.443660259E-2,1.127264023E1
1.667950520E-1,-2.781200171E0,-7.516750097E-1,1.193341160E1
1.692353120E-1,-3.044550896E0,-1.139518976E0,1.288386822E1
1.716747920E-1,-3.070886374E0,-1.472298741E0,1.366195011E1
1.741142710E-1,-3.116374016E0,-1.687767625E0,1.370504379E1
1.765545830E-1,-3.226502419E0,-1.690161824E0,1.340338802E1
1.789948440E-1,-3.104403496E0,-1.347805619E0,1.325974178E1
1.814343750E-1,-2.853023291E0,-7.660396099E-1,1.331719971E1
1.838738540E-1,-2.642342567E0,-2.704611421E-1,1.329804707E1
1.863141670E-1,-2.611219168E0,-1.189850271E-2,1.303469658E1
1.887544270E-1,-2.678253889E0,4.555988312E-2,1.257742405E1
1.911939060E-1,-2.745288849E0,-5.978046358E-2,1.217282104E1
1.936333850E-1,-2.702194929E0,-2.584906816E-1,1.193101692E1
1.960736980E-1,-2.541790247E0,-4.428362548E-1,1.189750004E1
1.985139580E-1,-2.352656603E0,-5.553588867E-1,1.194298744E1
2.009534890E-1,-2.201828241E0,-5.816940069E-1,1.201959896E1
2.033929690E-1,-2.175493240E0,-4.835359454E-1,1.210818005E1
2.058332290E-1,-2.199434280E0,-3.255254328E-1,1.216085052E1
2.082734890E-1,-2.244921923E0,-1.675149053E-1,1.216324425E1
2.107130210E-1,-2.299986601E0,-2.865718305E-2,1.215606213E1
2.131525000E-1,-2.357444763E0,5.034808815E-2,1.221112633E1
2.155928120E-1,-2.505878687E0,7.200241089E-5,1.225422001E1
2.180330730E-1,-2.742894650E0,-8.132735640E-2,1.235237789E1
2.204725520E-1,-3.015821934E0,-1.908078790E-2,1.251757145E1
2.229120310E-1,-3.343813419E0,1.006241590E-1,1.271149349E1
2.253523440E-1,-3.655046225E0,3.113048673E-1,1.278092194E1
2.277926040E-1,-3.930367470E0,5.794438720E-1,1.281204510E1
2.302321350E-1,-4.224842072E0,8.380065560E-1,1.274261570E1
2.326716140E-1,-4.402005196E0,1.127692461E0,1.258939457E1
2.351119270E-1,-4.536074638E0,1.347949624E0,1.239547253E1
2.375521870E-1,-4.674932480E0,1.484413266E0,1.212733364E1
2.399916670E-1,-4.734785080E0,1.572994828E0,1.192862320E1
2.424311460E-1,-4.844913483E0,1.493989587E0,1.173948956E1
2.448714580E-1,-4.952648163E0,1.458078027E0,1.155753803E1
2.473117190E-1,-5.048411369E0,1.412590265E0,1.129897499E1
2.497512500E-1,-5.093899727E0,1.400619745E0,1.099252987E1
2.521907290E-1,-5.091505527E0,1.517930627E0,1.057595730E1
2.546309890E-1,-5.062776566E0,1.721428990E0,1.017135429E1
2.570712500E-1,-5.026865005E0,1.984779596E0,9.761962891E0
2.595107810E-1,-5.017288685E0,2.228977919E0,9.333419800E0
2.619502600E-1,-5.055593967E0,2.403747320E0,8.947970390E0
2.643905730E-1,-5.146570206E0,2.537816763E0,8.588854790E0
2.668308330E-1,-5.316551208E0,2.604851484E0,8.366204262E0
2.692703120E-1,-5.484137535E0,2.592880964E0,8.311140060E0
2.717097920E-1,-5.668483734E0,2.430082321E0,8.339869499E0
2.741501040E-1,-5.826494217E0,2.260101318E0,8.483514786E0
2.765903640E-1,-5.931834221E0,2.039844275E0,8.643918991E0
2.790298960E-1,-5.893528461E0,1.833951473E0,8.878540993E0
2.814693750E-1,-5.804946899E0,1.611300468E0,9.168227196E0
2.839096870E-1,-5.615812778E0,1.482019067E0,9.601559639E0
2.863499480E-1,-5.381191730E0,1.513142347E0,1.008277321E1
2.887894270E-1,-5.160934448E0,1.594541669E0,1.056638145E1
2.912289060E-1,-5.074747086E0,1.620876789E0,1.095183086E1
2.936692190E-1,-5.074747086E0,1.508354187E0,1.128460979E1
2.961094790E-1,-5.136993408E0,1.312038064E0,1.159105492E1
2.985490100E-1,-5.182481289E0,1.098963380E0,1.183046532E1
3.009884890E-1,-5.213604450E0,9.265882373E-1,1.207226944E1
3.034287500E-1,-5.187269688E0,8.308243155E-1,1.223746204E1
3.058690100E-1,-5.136993408E0,7.518190145E-1,1.237392521E1
3.083085420E-1,-5.146570206E0,6.967547536E-1,1.246490097E1
3.107480210E-1,-5.175299168E0,6.464787126E-1,1.249602413E1
3.131883330E-1,-5.208816528E0,5.578970313E-1,1.242898941E1
3.156285940E-1,-5.247121811E0,4.645271301E-1,1.228534412E1
3.180680730E-1,-5.225574970E0,4.094628692E-1,1.210339260E1
3.205075520E-1,-5.132205009E0,3.735513687E-1,1.185919380E1
3.229478640E-1,-4.940677643E0,4.764976501E-1,1.164851284E1
3.253881250E-1,-4.641415119E0,5.578970313E-1,1.148571491E1
3.278276560E-1,-4.476222038E0,3.113048673E-1,1.125109291E1
3.302671350E-1,-4.294270515E0,1.149887592E-1,1.113856983E1
3.327074480E-1,-4.150624752E0,-2.322092652E-3,1.107392979E1
3.351477080E-1,-4.035707951E0,-1.292093247E-1,1.103322983E1
3.375871870E-1,-3.904032469E0,-2.489142716E-1,1.092788982E1
3.400266670E-1,-3.729263306E0,-2.489142716E-1,1.076030350E1
3.424669790E-1,-3.597588062E0,-2.991903424E-1,1.059510994E1
3.449072390E-1,-3.473094702E0,-3.039785326E-1,1.039879417E1
3.473467710E-1,-3.339025259E0,-2.967962623E-1,1.022402477E1
3.497862500E-1,-3.231290817E0,-3.566487134E-1,1.004925537E1
3.522265100E-1,-3.078068495E0,-4.500185847E-1,9.888851166E0
3.546668230E-1,-2.917663813E0,-5.625411868E-1,9.795480728E0
3.571063020E-1,-2.687830210E0,-5.912703872E-1,9.716476440E0
3.595457810E-1,-2.484332085E0,-6.606992483E-1,9.654229164E0
3.619860940E-1,-2.280833483E0,-7.253398895E-1,9.680563927E0
3.644263540E-1,-2.058182478E0,-8.426507115E-1,9.690139771E0
3.668658850E-1,-1.785255075E0,-9.599615932E-1,9.797875404E0
3.693053640E-1,-1.514721990E0,-1.055725574E0,9.975038528E0
3.717456250E-1,-1.282494426E0,-1.170642376E0,1.020247841E1
3.741858850E-1,-1.122089744E0,-1.333441019E0,1.048498154E1
3.766254170E-1,-9.904143810E-1,-1.486663461E0,1.074833202E1
3.790648960E-1,-8.587389588E-1,-1.601580143E0,1.101647091E1
3.815052080E-1,-7.270634770E-1,-1.651856184E0,1.126785183E1
3.839454690E-1,-6.025703549E-1,-1.639885664E0,1.150486755E1
3.863849480E-1,-5.020182133E-1,-1.517786622E0,1.169878960E1
3.888244270E-1,-5.187769532E-1,-1.405264020E0,1.187116432E1
3.912647390E-1,-6.193290949E-1,-1.321470499E0,1.195495796E1
3.937050000E-1,-7.605808973E-1,-1.213736057E0,1.202678108E1
3.961445310E-1,-9.952025414E-1,-1.101213455E0,1.206508636E1
3.985840100E-1,-1.246582866E0,-9.048972726E-1,1.206987476E1
4.010243230E-1,-1.526692510E0,-7.301281095E-1,1.210818005E1
4.034645830E-1,-1.859472275E0,-5.457825065E-1,1.200523376E1
4.059040620E-1,-2.144370079E0,-3.063726425E-1,1.188313484E1
4.083435420E-1,-2.393356323E0,-1.148447394E-1,1.171794224E1
4.107838540E-1,-2.680648088E0,1.269592196E-1,1.147613811E1
4.132241140E-1,-3.042156935E0,4.238275290E-1,1.122954655E1
4.156636460E-1,-3.456336021E0,7.254839540E-1,1.094943619E1
4.181031250E-1,-3.836997747E0,9.648937583E-1,1.066453934E1
4.205434370E-1,-4.193718433E0,1.197121382E0,1.030781841E1
4.229836980E-1,-4.555227280E0,1.458078027E0,1.001813221E1
4.254231770E-1,-4.931100845E0,1.673546910E0,9.764358521E0
4.278626560E-1,-5.364432812E0,1.946474314E0,9.565647125E0
4.303029690E-1,-5.816917419E0,2.190672159E0,9.431578636E0
4.327432290E-1,-6.269402027E0,2.398958921E0,9.410031319E0
4.351827600E-1,-6.717098713E0,2.631186485E0,9.491430283E0
4.376222390E-1,-7.071424961E0,2.801167488E0,9.644653320E0
4.400625000E-1,-7.339563847E0,2.944813490E0,9.833786011E0
4.425028120E-1,-7.538274288E0,3.083671093E0,1.000376701E1
4.449422920E-1,-7.655585289E0,3.157888174E0,1.016417217E1
4.473817710E-1,-7.696284771E0,3.215346575E0,1.026472378E1
4.498220830E-1,-7.588550568E0,3.246469975E0,1.033175945E1
4.522623440E-1,-7.406599045E0,3.186617374E0,1.036048794E1
4.547018230E-1,-7.136065960E0,3.294351816E0,1.046343422E1
4.571413020E-1,-6.891868114E0,3.670225382E0,1.067172146E1
4.595816140E-1,-7.023542881E0,4.268750191E0,1.084648991E1
4.620218750E-1,-7.567003727E0,4.869668961E0,1.063341522E1
4.644614060E-1,-8.258897781E0,5.190477848E0,1.007798386E1
4.669008850E-1,-8.809540749E0,5.164143085E0,9.426790237E0
4.693411980E-1,-9.029797554E0,4.939097404E0,8.995852470E0
4.717814580E-1,-9.178231239E0,4.912762642E0,9.050915718E0
4.742209370E-1,-9.482282639E0,5.166536808E0,9.216109276E0
4.766604170E-1,-9.556499481E0,5.173719406E0,9.103586197E0
4.791007290E-1,-9.568470001E0,5.245542526E0,8.912057877E0
4.815409890E-1,-9.625928879E0,5.547198772E0,8.880934715E0
4.839805210E-1,-9.601987839E0,5.810549259E0,8.828265190E0
4.864200000E-1,-9.549316406E0,6.011653900E0,8.737289429E0
4.888603120E-1,-9.587622643E0,6.026018620E0,8.574490547E0
4.913005730E-1,-9.678598404E0,5.997289658E0,8.490696907E0
4.937400520E-1,-9.779150963E0,5.949407578E0,8.485909462E0
4.961795310E-1,-9.834214211E0,5.963771820E0,8.493091583E0
4.986198440E-1,-9.922796249E0,5.994895458E0,8.557732582E0
5.010601040E-1,-9.951525688E0,6.014048100E0,8.500272751E0
5.034996350E-1,-1.000898361E1,5.939830780E0,8.426056862E0
5.059391140E-1,-9.929978371E0,5.769849777E0,8.301563263E0
5.083794270E-1,-9.757603645E0,5.506498814E0,8.169888496E0
5.108196870E-1,-9.436794281E0,5.212025166E0,8.138764381E0
5.132591670E-1,-9.036979675E0,4.941492081E0,8.150734901E0
5.156986460E-1,-8.610830307E0,4.737993240E0,8.296774864E0
5.181389580E-1,-8.285232544E0,4.548859596E0,8.557732582E0
5.205792190E-1,-8.124828339E0,4.321420193E0,8.866571426E0
5.230187500E-1,-8.084128380E0,4.137074471E0,9.103586197E0
5.254582290E-1,-8.160739899E0,3.971881866E0,9.302296638E0
5.278985420E-1,-8.323538780E0,3.828236103E0,9.443548203E0
5.303388020E-1,-8.507883072E0,3.679801702E0,9.570436478E0
5.327782810E-1,-8.665894508E0,3.631919622E0,9.690139771E0
5.352177600E-1,-8.845451355E0,3.567279100E0,9.754780769E0
5.376580730E-1,-8.986703873E0,3.543338299E0,9.773934364E0
5.400983330E-1,-9.080073357E0,3.517003059E0,9.761962891E0
5.425378640E-1,-9.120773315E0,3.598402500E0,9.723658562E0
5.449773440E-1,-9.056132317E0,3.856965065E0,9.848151207E0
5.474176040E-1,-9.266813278E0,3.646284342E0,9.757175446E0
5.498579170E-1,-9.439188957E0,3.502638578E0,9.678170204E0
5.522973960E-1,-9.511011124E0,3.306322098E0,9.546495438E0
5.547368750E-1,-9.496646881E0,3.208164215E0,9.402849197E0
5.571771870E-1,-9.362577438E0,3.540943861E0,1.023360157E1
5.596174480E-1,-9.082467079E0,3.351810217E0,1.063341522E1
5.620569790E-1,-8.981915474E0,2.712585926E0,9.503400803E0
5.644964580E-1,-8.723352432E0,2.521057844E0,8.823476791E0
5.669367190E-1,-8.251715660E0,2.602457285E0,8.244105339E0
5.693769790E-1,-7.725014210E0,2.688644886E0,7.808379173E0
5.718165100E-1,-7.234223843E0,2.650339127E0,7.482781887E0
5.742559890E-1,-6.805679798E0,2.561757803E0,7.243371487E0
5.766963020E-1,-6.422624588E0,2.446841002E0,6.936927319E0
5.791365620E-1,-6.111391544E0,2.410929441E0,6.714275837E0
5.815760940E-1,-5.850434780E0,2.415717602E0,6.637664795E0
5.840155730E-1,-5.622995377E0,2.398958921E0,6.460501671E0
5.864558330E-1,-5.505684376E0,2.358259201E0,6.415013790E0
5.888961460E-1,-5.453014374E0,2.293618441E0,6.316855907E0
5.913356250E-1,-5.453014374E0,2.212219238E0,6.266579628E0
5.937751040E-1,-5.417102814E0,2.111666918E0,6.118144989E0
5.962154170E-1,-5.381191730E0,1.982385635E0,5.950558186E0
5.986556770E-1,-5.419497013E0,1.896198273E0,5.921829224E0
6.010951560E-1,-5.453014374E0,1.659182310E0,5.771001339E0
6.035346350E-1,-5.443438053E0,1.359920144E0,5.325698853E0
6.059749480E-1,-5.254303932E0,9.960171580E-1,4.861243725E0
6.084152080E-1,-4.988559723E0,6.608432531E-1,4.523675442E0
6.108547390E-1,-4.543257236E0,3.280635476E-1,4.114284515E0
6.132942190E-1,-4.301453114E0,6.273258924E-1,4.710415363E0
6.157345310E-1,-4.179354191E0,1.206697702E0,4.880396366E0
6.181747920E-1,-3.908820868E0,1.321614504E0,4.667321682E0
6.206142710E-1,-3.640681744E0,1.276126623E0,4.322571278E0
6.230537500E-1,-3.197773457E0,1.051081300E0,4.741538525E0
6.254940620E-1,-2.498696566E0,4.022805691E-1,5.493285656E0
6.279343230E-1,-1.555421591E0,-7.175095379E-2,6.084628105E0
6.303738540E-1,-7.055166364E-1,-1.866676956E-1,6.182785988E0
6.328133330E-1,-1.740266979E-1,7.200241089E-5,5.854794502E0
6.352536460E-1,-1.500857025E-1,-3.105127811E-2,5.500467777E0
6.376939060E-1,-4.493480325E-1,7.668314874E-2,5.550743580E0
6.401333850E-1,-7.366398573E-1,1.892058104E-1,5.833247662E0
6.425728640E-1,-8.276156187E-1,2.251172811E-1,6.110963345E0
6.450131770E-1,-7.318516970E-1,1.922479272E-2,6.321643829E0
6.474534370E-1,-4.852595329E-1,-2.632788718E-1,6.541900635E0
6.498929690E-1,-2.290909588E-1,-3.877719939E-1,6.699911118E0
6.523324480E-1,4.862449318E-2,-3.590428233E-1,6.874680519E0
6.547727600E-1,2.808520794E-1,-3.111608326E-1,7.037479401E0
6.572130210E-1,4.532271922E-1,-2.896139622E-1,7.240977764E0
6.596525000E-1,5.418088436E-1,-3.422841430E-1,7.463628769E0
6.620919790E-1,5.442029238E-1,-3.758015037E-1,7.676703453E0
6.645322920E-1,5.058973432E-1,-3.590428233E-1,7.887383938E0
6.669725520E-1,4.316802621E-1,-3.159490228E-1,8.002301216E0
6.694120830E-1,3.239458501E-1,-2.321555763E-1,8.011877060E0
6.718515620E-1,2.066350132E-1,-2.034263909E-1,7.899354458E0
6.742918750E-1,4.623039439E-2,-2.537024617E-1,7.736556053E0
6.767321350E-1,-1.141742170E-1,-3.494664133E-1,7.530663490E0
6.791716140E-1,-2.386673391E-1,-4.715654850E-1,7.382229805E0
6.816110940E-1,-3.344313204E-1,-5.601471066E-1,7.305618286E0
6.840514060E-1,-4.469539523E-1,-6.415464878E-1,7.202672005E0
6.864916670E-1,-5.092005134E-1,-6.583051682E-1,7.116484642E0
6.889311980E-1,-6.528464556E-1,-6.535169482E-1,7.006356239E0
6.913706770E-1,-8.371920586E-1,-6.391523480E-1,6.908197880E0
6.938109890E-1,-1.038296342E0,-6.583051682E-1,6.822010040E0
6.962512500E-1,-1.237006545E0,-6.463346481E-1,6.771734238E0
6.986907290E-1,-1.383046508E0,-6.726697683E-1,6.692728996E0
7.011302080E-1,-1.548239350E0,-6.559110880E-1,6.673576355E0
7.035705210E-1,-1.725402594E0,-5.864821672E-1,6.695123196E0
7.060107810E-1,-1.809196115E0,-5.697234869E-1,6.728640556E0
7.084503120E-1,-1.861866236E0,-6.583051682E-1,6.699911118E0
7.108897920E-1,-1.881019115E0,-7.109753489E-1,6.745398998E0
7.133301040E-1,-1.828348875E0,-8.043451905E-1,6.776522636E0
7.157703640E-1,-1.756525993E0,-8.498330712E-1,6.850739479E0
7.182098440E-1,-1.653579712E0,-9.336264729E-1,6.869892120E0
7.206493230E-1,-1.531480670E0,-1.055725574E0,6.862709999E0
7.230896350E-1,-1.421352148E0,-1.161065936E0,6.800463676E0
7.255298960E-1,-1.395017028E0,-1.347805619E0,6.707093716E0
7.279694270E-1,-1.371076107E0,-1.529757142E0,6.644847393E0
7.304089060E-1,-1.301647305E0,-1.706920385E0,6.580206394E0
7.328492190E-1,-1.191518664E0,-1.869719148E0,6.503595352E0
7.352894790E-1,-1.038296342E0,-2.061246872E0,6.477260113E0
7.377289580E-1,-8.778917789E-1,-2.214469433E0,6.513171673E0
7.401684370E-1,-7.414280772E-1,-2.370085716E0,6.577812195E0
7.426087500E-1,-6.289054155E-1,-2.556825638E0,6.620906353E0
7.450490100E-1,-6.169349551E-1,-2.803417683E0,6.745398998E0
7.474885420E-1,-6.887579560E-1,-3.124226809E0,6.893833160E0
7.499280210E-1,-8.036746979E-1,-3.385183811E0,7.193095684E0
7.523683330E-1,-9.066209197E-1,-3.564741135E0,7.525875092E0
7.548085940E-1,-1.002384901E0,-3.679657698E0,7.849078655E0
7.572480730E-1,-9.425323606E-1,-3.864003658E0,8.291987419E0
7.596875520E-1,-8.060687780E-1,-4.029196262E0,8.593643188E0
7.621278640E-1,-6.959401965E-1,-4.218329906E0,8.780383110E0
7.645681250E-1,-6.815756559E-1,-4.388310909E0,9.065280914E0
7.670076560E-1,-7.510045171E-1,-4.479287148E0,9.369331360E0
7.694471350E-1,-8.228274584E-1,-4.594203472E0,9.692535400E0
7.718874480E-1,-8.874681592E-1,-4.701938152E0,1.002531433E1
7.743277080E-1,-9.664733410E-1,-4.776154995E0,1.031260586E1
7.767671870E-1,-1.076601863E0,-4.879101276E0,1.059989834E1
7.792066670E-1,-1.203489184E0,-4.953318596E0,1.089676571E1
7.816469790E-1,-1.272917986E0,-4.998806000E0,1.109787083E1
7.840872390E-1,-1.344740987E0,-5.008382320E0,1.121278763E1
7.865267710E-1,-1.450081348E0,-4.903041840E0,1.120560551E1
7.889662500E-1,-1.569786310E0,-4.917407036E0,1.112420654E1
7.914065620E-1,-1.660761952E0,-4.953318596E0,1.089437199E1
7.938468230E-1,-1.813984394E0,-5.022747040E0,1.060947418E1
7.962863020E-1,-1.964812517E0,-4.984441757E0,1.038442898E1
7.987257810E-1,-2.053394318E0,-5.015564919E0,9.955884933E0
8.011660940E-1,-2.158734560E0,-5.065841198E0,9.467489243E0
8.036063540E-1,-2.335897684E0,-5.180757523E0,9.017398834E0
8.060458850E-1,-2.668677568E0,-5.226245403E0,8.536185265E0
8.084853640E-1,-3.116374016E0,-5.329192162E0,8.205800056E0
8.109256770E-1,-3.667016745E0,-5.408196926E0,7.873019695E0
8.133659370E-1,-4.303846836E0,-5.369891644E0,7.602486610E0
8.158054170E-1,-4.990953445E0,-5.314826965E0,7.391805649E0
8.182448960E-1,-5.745094299E0,-5.254974842E0,7.336741447E0
8.206852080E-1,-6.475294590E0,-5.209486961E0,7.339135647E0
8.231254690E-1,-7.181553364E0,-5.137663841E0,7.406170845E0
8.255650000E-1,-7.902177334E0,-4.991623878E0,7.470811367E0
8.280044790E-1,-8.567736626E0,-4.941348076E0,7.571362972E0
8.304447390E-1,-9.003462791E0,-4.962894440E0,7.794014454E0
8.328850520E-1,-9.372153282E0,-4.891071320E0,7.803590775E0
8.353245310E-1,-9.683386803E0,-4.852766037E0,8.059759140E0
8.377640100E-1,-9.949131966E0,-4.725879192E0,8.105247498E0
8.402043230E-1,-1.030106354E1,-4.598991394E0,8.287199020E0
8.426445830E-1,-1.058596134E1,-4.462528229E0,8.282410622E0
8.450841140E-1,-1.095465279E1,-4.268606186E0,8.385356903E0
8.475235940E-1,-1.132573891E1,-4.096230984E0,8.538578987E0
8.499639060E-1,-1.170879364E1,-3.923855782E0,8.675043106E0
8.524041670E-1,-1.211818409E1,-3.823303699E0,8.895299911E0
8.548436460E-1,-1.247729969E1,-3.708387136E0,8.962334633E0
8.572831250E-1,-1.285556793E1,-3.650928497E0,8.833053589E0
8.597234370E-1,-1.318834686E1,-3.564741135E0,8.660677910E0
8.621636980E-1,-1.351155090E1,-3.468976974E0,8.301563263E0
8.646032290E-1,-1.451228333E1,-3.119438887E0,8.021453857E0
8.670427080E-1,-1.552259350E1,-2.741171122E0,7.707826614E0
8.694830210E-1,-1.590325451E1,-2.518520117E0,7.367864609E0
8.719232810E-1,-1.615224266E1,-2.312627554E0,6.869892120E0
8.743627600E-1,-1.642516899E1,-2.166587353E0,6.343190670E0
8.768022390E-1,-1.662148476E1,-2.037306070E0,6.000834465E0
8.792425520E-1,-1.672203827E1,-1.948724389E0,5.797336102E0
8.816828120E-1,-1.676034164E1,-1.869719148E0,5.629749298E0
8.841223440E-1,-1.673879623E1,-1.831413507E0,5.450191498E0
8.865618230E-1,-1.676992035E1,-1.587215543E0,5.306545734E0
8.890021350E-1,-1.672203827E1,-1.319076419E0,5.225146770E0
8.914423960E-1,-1.670288467E1,-9.839025140E-1,4.971372128E0
8.938818750E-1,-1.674358368E1,-5.984526873E-1,4.755903244E0
8.963213540E-1,-1.679146576E1,-2.369437814E-1,4.617045403E0
8.987616670E-1,-1.679625511E1,6.950087845E-2,4.571557522E0
9.012019270E-1,-1.680822372E1,1.892058104E-1,4.485370159E0
9.036414580E-1,-1.659275627E1,1.724471003E-1,4.461429119E0
9.060809370E-1,-1.620012474E1,2.299054712E-1,4.617045403E0
9.085212500E-1,-1.674118996E1,5.219855309E-1,4.485370159E0
9.109615100E-1,-1.632461739E1,8.068832755E-1,4.190896034E0
9.134009890E-1,-1.608041954E1,1.144451261E0,3.982609034E0
9.158404690E-1,-1.598226070E1,1.467654467E0,3.671376228E0
9.182807810E-1,-1.588410282E1,1.786069632E0,3.288320541E0
9.207210420E-1,-1.570693874E1,2.056602716E0,2.854988337E0
9.231605730E-1,-1.558244514E1,2.305588961E0,2.352227688E0
9.256000520E-1,-1.562553978E1,2.537816763E0,1.851861119E0
9.280403640E-1,-1.556329250E1,2.999877691E0,1.466411352E0
9.304806250E-1,-1.526163673E1,3.804295063E0,1.588510394E0
9.329201040E-1,-1.567820930E1,3.813871384E0,1.327553511E0
9.353595830E-1,-1.638446999E1,3.734865904E0,9.349213839E-1
9.377998960E-1,-1.697581291E1,3.442785978E0,8.678866029E-1
9.402401560E-1,-1.733732033E1,3.009454012E0,1.083355546E0
9.426796870E-1,-1.736605072E1,2.638368607E0,1.564569473E0
9.451191670E-1,-1.699017715E1,2.449234962E0,2.330680847E0
9.475594790E-1,-1.631264687E1,2.451628923E0,3.221285582E0
9.499997390E-1,-1.548428726E1,2.533028364E0,4.231595516E0
9.524392190E-1,-1.474690533E1,2.475569963E0,5.100653172E0
9.548786980E-1,-1.407895184E1,2.267283440E0,6.000834465E0
9.573190100E-1,-1.343493938E1,1.932109594E0,6.889045238E0
9.597592710E-1,-1.279810810E1,1.544265747E0,7.707826614E0
9.621988020E-1,-1.208466721E1,1.170786262E0,8.409297943E0
9.646382810E-1,-1.129461479E1,9.864405990E-1,8.737289429E0
9.670785940E-1,-1.065778446E1,1.082204580E0,8.572095871E0
9.695188540E-1,-1.018614769E1,1.209091783E0,8.050183296E0
9.719583330E-1,-9.908431053E0,1.058263540E0,7.308012009E0
9.743978120E-1,-9.511011124E0,4.453743696E-1,6.958474159E0
9.768381250E-1,-8.677864075E0,-7.037929893E-1,7.363076687E0
9.792783850E-1,-7.176765442E0,-2.015758991E0,8.418873787E0
9.817179170E-1,-5.254303932E0,-2.544855118E0,9.637470245E0
9.841573960E-1,-3.494641781E0,-2.104340792E0,1.062862682E1
9.865977080E-1,-2.642342567E0,-1.046149135E0,1.137319183E1
9.890379690E-1,-2.252104521E0,-4.093188643E-1,1.037964153E1
9.914774480E-1,-2.029453278E0,-7.708277702E-1,9.153862000E0
9.939169270E-1,-1.452475429E0,-1.481875181E0,8.081305504E0
9.963572390E-1,-9.521088004E-1,-2.061246872E0,7.489963531E0
9.987975000E-1,-1.134060264E0,-2.291080475E0,7.312800884E0
1.001237031E0,-1.885807276E0,-2.176163673E0,7.427717209E0
1.003676510E0,-2.477149725E0,-2.152222633E0,7.516299248E0
1.006116823E0,-2.714165449E0,-2.027729511E0,7.822743893E0
1.008557083E0,-2.697406769E0,-1.836201787E0,8.205800056E0
1.010996562E0,-2.649524689E0,-1.678191304E0,8.382962227E0
1.013436042E0,-2.740500450E0,-1.524968863E0,8.320715904E0
1.015876354E0,-3.013427734E0,-1.378928900E0,8.117218018E0
1.018316614E0,-3.437183142E0,-1.137124896E0,7.861049175E0
1.020756146E0,-3.827421427E0,-9.432029128E-1,7.705432892E0
1.023195625E0,-4.071619511E0,-8.282861710E-1,7.509116650E0
1.025635937E0,-4.220053673E0,-8.306802511E-1,7.485175610E0
1.028076198E0,-4.294270515E0,-8.594093919E-1,7.492358208E0
1.030515677E0,-4.272723675E0,-8.163156509E-1,7.540240288E0
1.032955156E0,-4.229629993E0,-7.085812092E-1,7.580939770E0
1.035395469E0,-4.107531071E0,-4.835359454E-1,7.506722450E0
1.037835729E0,-3.963884830E0,-3.063726425E-1,7.363076687E0
1.040275260E0,-3.801086187E0,-1.794854105E-1,7.126060486E0
1.042714739E0,-3.628711224E0,-5.499225855E-2,6.910592079E0
1.045155052E0,-3.485065222E0,2.640707791E-2,6.721457958E0
1.047595312E0,-3.353389740E0,1.197769493E-1,6.580206394E0
1.050034792E0,-3.219320297E0,2.658169866E-1,6.501201153E0
1.052474271E0,-3.092432976E0,4.381920695E-1,6.477260113E0
1.054914583E0,-2.924846172E0,6.440845728E-1,6.448531151E0
1.057354844E0,-2.788382530E0,8.260360360E-1,6.393466473E0
1.059794375E0,-2.577701807E0,9.313763976E-1,6.345584869E0
1.062233854E0,-2.395750284E0,1.065445900E0,6.276155472E0
1.064674167E0,-2.187463760E0,1.113327861E0,6.201938629E0
1.067114427E0,-1.964812517E0,1.122904181E0,6.185180187E0
1.069553906E0,-1.739767313E0,1.146845222E0,6.189968109E0
1.071993385E0,-1.509933710E0,1.134874701E0,6.132509708E0
1.074433698E0,-1.280100226E0,1.096569180E0,6.075051785E0
1.076873958E0,-1.146030784E0,1.000805259E0,6.010410786E0
1.079313489E0,-1.150819063E0,8.715240359E-1,5.964923382E0
1.081752969E0,-1.287282586E0,7.183016539E-1,5.938587666E0
1.084193281E0,-1.553027630E0,5.531088114E-1,5.960134506E0
1.086633542E0,-1.928901076E0,3.831278086E-1,6.034351826E0
1.089073021E0,-2.367021322E0,1.389297098E-1,6.139692307E0
1.091512500E0,-2.776412010E0,-2.147488296E-2,6.175603867E0
1.093952812E0,-3.169044256E0,-1.555444151E-1,6.151662827E0
1.096393073E0,-3.573647022E0,-3.422841430E-1,6.235455990E0
1.098832604E0,-4.069225311E0,-5.314179063E-1,6.455713272E0
1.101272083E0,-4.665356159E0,-7.277339697E-1,6.860316277E0
1.103712396E0,-5.215998650E0,-8.234979510E-1,7.348711967E0
1.106152656E0,-5.848040581E0,-9.360206127E-1,7.803590775E0
1.108592135E0,-6.527965069E0,-1.038966894E0,8.313533783E0
1.111031614E0,-7.217464924E0,-1.144307256E0,8.756442070E0
1.113471927E0,-7.741773129E0,-9.479911327E-1,9.299901962E0
1.115912187E0,-8.191863060E0,-7.109753489E-1,9.778721809E0
1.118351719E0,-8.687441826E0,-6.559110880E-1,1.010910797E1
1.120791198E0,-9.202172279E0,-5.673294067E-1,1.032936478E1
1.123231510E0,-9.635504723E0,-4.691713452E-1,1.044667625E1
1.125671771E0,-9.920402527E0,-3.063726425E-1,1.041315842E1
1.128111250E0,-1.012868881E1,-2.147488296E-2,1.017853737E1
1.130550729E0,-1.014065933E1,5.459265113E-1,9.735628128E0
1.132991042E0,-9.831820488E0,1.182756662E0,8.897694588E0
1.135431302E0,-9.446370125E0,1.546659708E0,7.710221291E0
1.137870833E0,-9.032191277E0,1.558630228E0,6.146874905E0
1.140310312E0,-8.644347191E0,1.017563939E0,4.729568005E0
1.142750625E0,-7.727407932E0,2.945461869E-1,3.968244314E0
1.145190885E0,-7.160007000E0,-1.196329296E-1,4.286659718E0
1.147630364E0,-7.732196331E0,-5.170533657E-1,5.064741611E0
1.150069844E0,-8.819116592E0,-4.548067451E-1,5.890706062E0
1.152510156E0,-9.688174248E0,-2.728552520E-1,6.685546875E0
1.154950417E0,-1.005686569E1,-1.363916248E-1,7.466022491E0
1.157389948E0,-1.007601833E1,4.555988312E-2,8.222558022E0
1.159829427E0,-1.021487617E1,9.583593905E-2,8.763624191E0
1.162269739E0,-1.063144970E1,9.648397565E-3,9.043734550E0
1.164710000E0,-1.119645691E1,-2.321555763E-1,9.280750275E0
1.167149479E0,-1.176385880E1,-4.979005456E-1,9.477066040E0
1.169588958E0,-1.219240189E1,-7.732218504E-1,9.601559639E0
1.172029271E0,-1.245814610E1,-9.862966537E-1,9.548889160E0
1.174469531E0,-1.263052177E1,-1.122760296E0,9.546495438E0
1.176909062E0,-1.278613853E1,-1.132336736E0,9.457913399E0
1.179348542E0,-1.284359646E1,-1.158671856E0,9.328632355E0
1.181788854E0,-1.281965542E1,-1.158671856E0,9.177803040E0
1.184229114E0,-1.278135014E1,-1.060513735E0,8.962334633E0
1.186668594E0,-1.271431541E1,-9.695379734E-1,8.727713585E0
1.189108073E0,-1.265685749E1,-9.048972726E-1,8.440421104E0
1.191548385E0,-1.303033638E1,-8.665917516E-1,8.054970741E0
1.193988646E0,-1.369350147E1,-7.971628308E-1,7.446870327E0
1.196428177E0,-1.403106976E1,-6.152113676E-1,6.802857876E0
1.198867656E0,-1.387784767E1,-1.627267152E-1,6.336008072E0
1.201307969E0,-1.435666752E1,-1.172388420E-1,5.821277142E0
1.203748229E0,-1.448355484E1,-7.175095379E-2,5.241905212E0
1.206187708E0,-1.422738552E1,-1.429258287E-2,4.820543766E0
1.208627187E0,-1.369350147E1,2.880118787E-2,4.281871796E0
1.211067500E0,-1.314764786E1,7.189495862E-2,3.709681749E0
1.213507760E0,-1.270473957E1,1.173828393E-1,2.996240377E0
1.215947292E0,-1.251321125E1,-1.908078790E-2,2.177458525E0
1.218386771E0,-1.262812710E1,-1.675149053E-1,1.277277589E0
1.220827083E0,-1.284120274E1,-3.255254328E-1,3.938550651E-1
1.223267344E0,-1.296808910E1,-3.781955838E-1,-3.866211772E-1
1.225706823E0,-1.292260265E1,-2.560965717E-1,-8.606526852E-1
1.228146302E0,-1.268079853E1,-1.196329296E-1,-1.076121569E0
1.230586614E0,-1.230731869E1,-9.569194913E-2,-1.054574728E0
1.233026875E0,-1.174470520E1,-3.494664133E-1,-8.367117047E-1
1.235466406E0,-1.108872223E1,-8.187097311E-1,-4.225326180E-1
1.237905885E0,-1.073678970E1,-1.038966894E0,2.190858424E-1
1.240346198E0,-1.011911297E1,-1.268800378E0,1.023503065E0
1.242786458E0,-9.482282639E0,-1.699738145E0,1.832708478E0
1.245225937E0,-8.984309196E0,-2.140252113E0,2.596426010E0
1.247665417E0,-8.675470352E0,-2.487396479E0,3.491818666E0
1.250105729E0,-8.555765152E0,-2.753141642E0,4.490158081E0
1.252545989E0,-8.594071388E0,-2.982975006E0,5.464556217E0
1.254985521E0,-8.766446114E0,-3.143379688E0,6.477260113E0
1.257425000E0,-8.984309196E0,-3.241537809E0,7.482781887E0
1.259865312E0,-9.206960678E0,-3.310966492E0,8.361415863E0
1.262305573E0,-9.400882721E0,-3.378001213E0,9.163438797E0
1.264745052E0,-9.515799522E0,-3.378001213E0,9.836181641E0
1.267184531E0,-9.513405800E0,-3.306178331E0,1.026711845E1
1.269624844E0,-9.542134285E0,-3.275054932E0,1.047061729E1
1.272065104E0,-9.503829956E0,-3.188867569E0,1.039400578E1
1.274504635E0,-9.511011124E0,-3.105073929E0,1.008995533E1
1.276944114E0,-9.582834244E0,-3.117044449E0,9.606347084E0
1.279384427E0,-9.599592209E0,-3.176897049E0,8.979093552E0
1.281824687E0,-9.451158524E0,-3.169714689E0,8.248892784E0
1.284264167E0,-9.235689163E0,-3.083527327E0,7.437293530E0
1.286703646E0,-8.965156555E0,-2.880028725E0,6.652029037E0
1.289143958E0,-8.687441826E0,-2.784264803E0,5.850006104E0
1.291584219E0,-8.481548309E0,-2.858482122E0,4.973766327E0
1.294023750E0,-8.273262978E0,-2.875240564E0,4.152590275E0
1.296463229E0,-7.990759373E0,-2.961428404E0,3.331414223E0
1.298903542E0,-7.777684689E0,-3.004522085E0,2.579667091E0
1.301343802E0,-7.571792126E0,-2.918334246E0,1.985930800E0
1.303783281E0,-7.502363205E0,-2.894393444E0,1.562175274E0
1.306222760E0,-7.559821606E0,-2.982975006E0,1.286853909E0
1.308663073E0,-7.576580048E0,-3.081133127E0,1.179119468E0
1.311103333E0,-7.540668488E0,-3.140985489E0,1.207848668E0
1.313542864E0,-7.420963287E0,-3.267872810E0,1.320371270E0
1.315982344E0,-7.286893845E0,-3.358848572E0,1.514293313E0
1.318422656E0,-7.143248081E0,-3.516859055E0,1.842284799E0
1.320862917E0,-7.066637039E0,-3.677263737E0,2.311528206E0
1.323302396E0,-7.023542881E0,-3.789786339E0,2.895688295E0
1.325741875E0,-6.973267078E0,-3.859215260E0,3.415207624E0
1.328182187E0,-6.846380234E0,-3.907097340E0,3.870086432E0
1.330622448E0,-6.781739235E0,-3.923855782E0,4.269901276E0
1.333061979E0,-6.697946072E0,-3.720357656E0,4.763085842E0
1.335501458E0,-6.566270351E0,-3.437853813E0,5.249087811E0
1.337941771E0,-6.413047791E0,-3.464189053E0,5.306545734E0
1.340382031E0,-6.123362064E0,-3.729933739E0,4.889972687E0
1.342821510E0,-5.804946899E0,-3.832880020E0,4.435093880E0
1.345260989E0,-5.649330616E0,-3.981314182E0,3.762351990E0
1.347701302E0,-5.378797531E0,-3.995678902E0,3.072851419E0
1.350141562E0,-5.026865005E0,-3.799362898E0,2.445597649E0
1.352581094E0,-4.538468361E0,-3.686840057E0,1.677092075E0
1.355020573E0,-4.057254791E0,-3.526435614E0,9.756210446E-1
1.357460885E0,-3.777145147E0,-3.514465094E0,2.334504426E-1
1.359901146E0,-3.760386467E0,-3.545588255E0,-3.794388473E-1
1.362340625E0,-3.916002989E0,-3.615016937E0,-8.175589442E-1
1.364780104E0,-4.215265274E0,-3.636564016E0,-1.054574728E0
1.367220417E0,-4.581562519E0,-3.564741135E0,-1.126397610E0
1.369660677E0,-4.892795563E0,-3.468976974E0,-1.112033129E0
1.372100208E0,-5.117840290E0,-3.404336452E0,-1.021057248E0
1.374539687E0,-5.388373852E0,-3.385183811E0,-7.696769238E-1
1.376980000E0,-5.555960655E0,-3.368425131E0,-4.249267578E-1
1.379420260E0,-5.579901695E0,-3.373213291E0,6.011046469E-3
1.381859739E0,-5.589478016E0,-3.490524054E0,5.422891378E-1
1.384299219E0,-5.678059578E0,-3.660505056E0,1.116872907E0
1.386739531E0,-5.831282139E0,-3.806545019E0,1.760885477E0
1.389179792E0,-5.831282139E0,-3.842456579E0,2.359410048E0
1.391619323E0,-5.907893181E0,-3.962161541E0,2.814288855E0
1.394058802E0,-6.197578907E0,-4.093836784E0,3.352960825E0
1.396499114E0,-6.290948868E0,-4.194388866E0,3.843751192E0
1.398939375E0,-6.118574142E0,-4.433799267E0,3.939515114E0
1.401378854E0,-5.840858459E0,-4.622932434E0,3.826992750E0
1.403818333E0,-5.599054337E0,-4.601386070E0,3.601947069E0
1.406258646E0,-5.761853218E0,-4.529562950E0,3.403237104E0
1.408698906E0,-6.386713028E0,-4.692361355E0,3.345778704E0
1.411138437E0,-6.836803436E0,-4.871919155E0,3.259591103E0
1.413577917E0,-6.836803436E0,-4.711514473E0,2.917235136E0
1.416018229E0,-7.016361237E0,-4.632509232E0,2.402503967E0
1.418458489E0,-7.478422165E0,-4.484075069E0,1.624421835E0
1.420897969E0,-7.655585289E0,-4.244665146E0,8.559161425E-1
1.423337448E0,-8.050611496E0,-4.184812546E0,-6.341781467E-2
1.425777760E0,-8.677864075E0,-3.885550261E0,-3.315568864E-1
1.428218021E0,-9.312301636E0,-3.490524054E0,-2.549457252E-1
1.430657552E0,-1.015502357E1,-3.468976974E0,-4.895673990E-1
1.433097031E0,-1.126109791E1,-3.677263737E0,-6.212428212E-1
1.435537344E0,-1.190032196E1,-4.055531025E0,-6.739130020E-1
1.437977604E0,-1.151247787E1,-5.087388039E0,-8.941700459E-1
1.440417083E0,-1.204875565E1,-4.460134029E0,-3.195863962E-1
1.442856562E0,-1.258503437E1,-3.538406134E0,8.501631021E-2
1.445296875E0,-1.335593319E1,-3.057192087E0,-1.615758836E-1
1.447737135E0,-1.424414444E1,-3.136197329E0,-6.906716824E-1
1.450176667E0,-1.415556240E1,-3.677263737E0,-1.179067850E0
1.452616146E0,-1.316440582E1,-4.163265705E0,-1.423265815E0
1.455056458E0,-1.206312084E1,-4.780942917E0,-1.504665256E0
1.457496719E0,-1.108632851E1,-5.377074242E0,-1.504665256E0
1.459936198E0,-1.017417622E1,-5.357921124E0,-1.147944450E0
1.462375677E0,-9.609169960E0,-5.511143684E0,-7.672829032E-1
1.464815989E0,-9.125561714E0,-5.592542648E0,-4.728087187E-1
1.467256250E0,-8.491125107E0,-5.494384766E0,-3.507096767E-1
1.469695781E0,-7.777684689E0,-5.673942089E0,-3.985916376E-1
1.472135260E0,-7.303653240E0,-6.138397217E0,-2.908571959E-1
1.474575573E0,-6.827227116E0,-6.650734425E0,2.516384423E-2
1.477015833E0,-6.180820465E0,-7.543733120E0,5.398950577E-1
1.479455312E0,-6.276584625E0,-8.144651413E0,1.380223751E0
1.481894792E0,-6.532752991E0,-8.168592453E0,2.220552444E0
1.484335104E0,-6.899050236E0,-7.955518246E0,2.768800974E0
1.486775364E0,-6.879897594E0,-7.407269478E0,2.821471214E0
1.489214896E0,-6.870320797E0,-7.105613232E0,2.424050570E0
1.491654375E0,-6.808074474E0,-7.558097363E0,1.612451315E0
1.494094687E0,-6.865532398E0,-9.147778511E0,-6.236369610E-1
1.496534948E0,-6.685975552E0,-1.070873165E1,-2.261200666E0
1.498974427E0,-6.381924629E0,-1.129767990E1,-2.629891872E0
1.501413906E0,-5.876770020E0,-1.068479061E1,-2.445546150E0
1.503854219E0,-5.517654896E0,-9.399159431E0,-1.820686221E0
1.506294479E0,-5.048411369E0,-8.041705132E0,-1.286802173E0
1.508734010E0,-4.789848804E0,-7.009849072E0,-1.126397610E0
1.511173489E0,-4.911948204E0,-6.483147621E0,-1.169491291E0
1.513613750E0,-5.438650131E0,-6.437659740E0,-1.332290053E0
1.516054062E0,-5.680453777E0,-6.696221828E0,-1.497482896E0
1.518493542E0,-5.656513214E0,-6.904509068E0,-1.921238542E0
1.520933021E0,-6.044356823E0,-7.019425392E0,-2.524551392E0
1.523373333E0,-6.992420197E0,-6.969149590E0,-2.593980312E0
1.525813594E0,-7.875842571E0,-6.873385429E0,-2.215712547E0
1.528253125E0,-8.402543068E0,-6.684251308E0,-1.813503981E0
1.530692604E0,-9.570863724E0,-6.487935543E0,-1.744075060E0
1.533132864E0,-1.029866982E1,-6.147973537E0,-1.590852857E0
1.535573177E0,-1.072242546E1,-5.901381493E0,-1.406507254E0
1.538012656E0,-1.092113590E1,-5.719429970E0,-1.339472413E0
1.540452135E0,-1.134249687E1,-5.566207409E0,-1.016269088E0
1.542892448E0,-1.170400524E1,-5.369891644E0,-7.074303627E-1
1.545332708E0,-1.168485260E1,-5.025141716E0,-4.680204988E-1
1.547772239E0,-1.196256828E1,-4.855160713E0,-3.507096767E-1
1.550211719E0,-1.150768948E1,-4.807278633E0,-3.435273767E-1
1.552651979E0,-1.096662331E1,-4.891071320E0,-5.829372406E-1
1.555092292E0,-1.040161610E1,-4.938953400E0,-8.271353245E-1
1.557531771E0,-9.867733002E0,-5.061053276E0,-1.332290053E0
1.559971250E0,-9.104014397E0,-5.362709045E0,-2.052913904E0
1.562411562E0,-8.560554504E0,-5.937293053E0,-2.926759958E0
1.564851823E0,-7.545456409E0,-6.279649258E0,-2.953094959E0
1.567291354E0,-7.818384171E0,-6.435265541E0,-2.486245871E0
1.569730833E0,-7.576580048E0,-6.274860859E0,-1.933208823E0
1.572171094E0,-7.100154400E0,-6.121638775E0,-1.576488256E0
1.574611354E0,-6.812862396E0,-5.889410973E0,-1.059362769E0
1.577050885E0,-6.870320797E0,-5.898987770E0,-6.571543217E-1
1.579490364E0,-6.676399231E0,-5.752947330E0,-6.116664410E-1
1.581930677E0,-6.420230389E0,-5.606907368E0,-8.917760253E-1
1.584370937E0,-8.115251541E0,-6.818321228E0,1.059414506E0
1.586810417E0,-7.282105923E0,-6.969149590E0,-5.374493599E-1
1.589249896E0,-6.592605591E0,-6.689040184E0,-1.179067850E0
1.591690208E0,-5.069958687E0,-5.812799931E0,-1.416083574E0
1.594130469E0,-3.930367470E0,-5.010776520E0,-1.497482896E0
1.596570000E0,-3.085250854E0,-4.412251949E0,-1.195826411E0
1.599009479E0,-2.888934851E0,-3.923855782E0,-1.152732730E0
1.601449792E0,-2.853023291E0,-3.921461821E0,-5.757549405E-1
1.603890052E0,-3.726869345E0,-3.945402861E0,-7.409477830E-1
1.606329531E0,-6.348407269E0,-4.402675629E0,2.047212422E-1
1.608769010E0,-8.167922020E0,-5.836740494E0,-7.744651437E-1
1.611209323E0,-8.428878784E0,-6.787198067E0,-2.646650314E0
1.613649583E0,-9.690568924E0,-7.768778324E0,-2.060096264E0
1.616089114E0,-1.337269211E1,-8.285903931E0,5.087717772E-1
1.618528594E0,-1.583622074E1,-8.740782738E0,3.568429947E0
1.620968906E0,-1.684653091E1,-9.083138466E0,4.930672169E0
1.623409167E0,-1.636531830E1,-8.963433266E0,4.095131874E0
1.625848646E0,-1.488815784E1,-8.709658623E0,2.840623856E0
1.628288125E0,-1.235759449E1,-8.072829247E0,1.447258592E0
1.630728437E0,-1.004010773E1,-7.582038403E0,4.800425768E-1
1.633168698E0,-8.263686180E0,-7.421634197E0,-1.208761856E-1
1.635608229E0,-7.341958523E0,-7.503033638E0,-5.206906796E-1
1.638047708E0,-6.870320797E0,-7.728078842E0,-6.475779414E-1
1.640488021E0,-5.867193699E0,-8.082405090E0,-8.606526852E-1
1.642928281E0,-5.366827011E0,-8.108739853E0,-9.133228660E-1
1.645367760E0,-6.029992104E0,-8.312238693E0,-1.138368130E0
1.647807239E0,-6.453747272E0,-8.453490257E0,-1.866174102E0
1.650247552E0,-4.442705154E0,-6.969149590E0,-3.024918079E0
1.652687812E0,-3.394089460E0,-6.159944057E0,-2.596374273E0
1.655127344E0,-6.465717793E0,-7.172647953E0,1.035473466E0
1.657566823E0,-1.354317427E0,-4.816854477E0,-2.962671518E0
1.660007135E0,3.007730484E0,-2.295868874E0,-4.506865025E0
1.662447396E0,5.150448799E0,-3.638310134E-1,-3.218840122E0
1.664886875E0,1.942356586E0,-1.431599021E0,-2.974642038E0
1.667326354E0,-1.271670914E1,-1.170946503E1,7.221824646E0
1.669766667E0,-1.373180771E1,-1.240614796E1,3.908391953E0
1.672206927E0,-1.111026955E1,-8.278720856E0,2.366592407E0
1.674646458E0,-1.263770485E1,-6.116850376E0,5.320910454E0
1.677085937E0,-9.800697327E0,-3.294208050E0,5.614419580E-1
1.679526198E0,-8.816722870E0,-3.131409407E0,-8.295294642E-1
1.681966510E0,-5.982110500E0,-2.121099472E0,-3.108711481E0
1.684405989E0,-1.159627151E1,-7.586827278E0,4.360876560E0
1.686845469E0,-1.229774284E1,-9.664904594E0,4.272294998E0
1.689285781E0,-1.058117390E1,-8.934704781E0,2.603608131E0
1.691726042E0,-1.047104454E1,-9.767850876E0,7.984577417E-1
1.694165521E0,-9.281177521E0,-9.791791916E0,-6.691248417E-1
1.696605000E0,-7.164794922E0,-8.635441780E0,-1.856597662E0
1.699045312E0,-2.678253889E0,-5.705065727E0,-5.737432003E0
1.701485625E0,1.043183136E1,9.243687630E0,-4.327307224E0
1.703925104E0,8.301083565E0,1.994770241E1,1.489251709E1
1.706364583E0,-6.659639835E0,-2.393378615E-1,3.405631065E0
1.708804896E0,-1.390897083E1,-1.258331013E1,-4.162114620E0
1.711245156E0,-1.520657253E1,-1.613615417E1,-5.091024876E0
1.713684635E0,-1.349479198E1,-1.415623379E1,-3.573166609E0
1.716124114E0,-1.139277267E1,-9.578716278E0,-7.744651437E-1
1.718564427E0,-9.676204681E0,-6.147973537E0,2.431232929E0
1.721004687E0,-8.505489349E0,-5.906169415E0,4.755903244E0
1.723444219E0,-7.720225811E0,-7.922000885E0,5.840429783E0
1.725883698E0,-6.805679798E0,-1.000007725E1,5.586655140E0
1.728324010E0,-6.489658833E0,-1.119712734E1,4.921096325E0
1.730764271E0,-6.058721542E0,-1.134556198E1,3.925150633E0
1.733203750E0,-5.654118538E0,-1.070873165E1,2.826259136E0
1.735643229E0,-5.412314415E0,-9.980925560E0,1.873408198E0
1.738083542E0,-5.522443295E0,-9.542805672E0,6.596000195E-1
1.740523802E0,-5.883952141E0,-9.552381516E0,-6.260309815E-1
1.742963333E0,-5.871981621E0,-9.131020546E0,-1.657887578E0
1.745402812E0,-5.271062851E0,-8.132680893E0,-1.868568182E0
1.747843125E0,-4.856884003E0,-7.218135357E0,-1.937996984E0
1.750283385E0,-4.993347645E0,-6.945208549E0,-1.830262661E0
1.752722864E0,-5.014894485E0,-6.698616505E0,-1.954755902E0
1.755162344E0,-5.417102814E0,-6.849444389E0,-2.067278624E0
1.757602656E0,-5.251910210E0,-6.607640743E0,-1.669858098E0
1.760042917E0,-5.290215492E0,-6.294013500E0,-1.554941297E0
1.762482448E0,-5.567931175E0,-6.277255058E0,-1.396930814E0
1.764921927E0,-5.711576939E0,-6.260496140E0,-1.083303809E0
1.767362239E0,-4.837730885E0,-5.372285366E0,-1.352407932E-1
1.769802500E0,-5.474561691E0,-5.994751453E0,-4.368972182E-1
1.772241979E0,-5.285427570E0,-6.179097176E0,-8.678349853E-1
1.774681458E0,-4.342152596E0,-5.089782238E0,-1.492694736E0
1.777121771E0,-5.089111328E0,-6.298801899E0,-1.724922299E0
1.779562031E0,-3.892061949E0,-5.788858891E0,-1.155126810E0
1.782001562E0,-9.640792608E-1,-2.817782402E0,-1.903050840E-1
1.784441042E0,-1.069419622E0,-2.226439953E0,-5.685726404E-1
1.786881302E0,-1.950448036E0,-3.464189053E0,-4.665913433E-2
1.789321562E0,-4.009373188E0,-6.217402458E0,-5.206906796E-1
1.791761094E0,-4.337364674E0,-6.138397217E0,-1.868568182E0
1.794200573E0,-8.100887299E0,-9.377612114E0,-3.288268805E0
1.796640885E0,-8.718564987E0,-1.000726032E1,-2.273171186E0
1.799081146E0,-7.713043690E0,-8.812604904E0,8.980450034E-2
1.801520625E0,-6.346013546E0,-7.515004158E0,2.409686089E0
1.803960104E0,-2.881752253E0,-4.335640907E0,3.247620583E0
1.806400417E0,4.453765869E0,3.593614101E0,5.756636143E0
1.808840677E0,-1.292070746E0,-4.249453068E0,3.580400467E0
1.811280208E0,-7.768107891E0,-1.102235889E1,-6.356074214E-1
1.813719687E0,-9.503829956E0,-1.274610996E1,-2.553280592E0
1.816160000E0,-7.806413651E0,-9.751091957E0,1.664156616E-1
1.818600260E0,-3.738839865E0,-3.217596769E0,2.890899897E0
1.821039739E0,-4.655779362E0,-4.771367073E0,4.674503803E0
1.823479219E0,-7.617279530E0,-7.517397881E0,9.684387445E-1
1.825919531E0,-7.341958523E0,-7.883695126E0,1.602874875E0
1.828359792E0,-6.659639835E0,-7.914818764E0,1.976354480E0
1.830799323E0,-6.925384998E0,-8.771905899E0,1.037867665E0
1.833238802E0,-7.116912842E0,-8.783875465E0,5.542596579E-1
1.835679114E0,-4.763514042E0,-6.349078178E0,1.389800191E0
1.838119375E0,-4.442705154E0,-5.302856445E0,2.062541962E0
1.840558854E0,-4.449886799E0,-4.747426033E0,2.084088802E0
1.842998333E0,-5.500896454E0,-5.683518410E0,1.198272347E0
1.845438646E0,-6.334043026E0,-6.193461418E0,6.524176598E-1
1.847878906E0,-5.797764301E0,-5.113723278E0,5.279245973E-1
1.850318437E0,-4.691690922E0,-3.638957977E0,1.191089869E0
1.852757917E0,-4.433128357E0,-3.571923256E0,1.825526118E0
1.855198177E0,-4.088378429E0,-3.799362898E0,1.449652672E0
1.857638489E0,-4.119501591E0,-3.591076136E0,7.218465805E-1
1.860077969E0,-4.172171593E0,-4.093836784E0,-7.864356637E-1
1.862517448E0,-3.844180107E0,-4.249453068E0,-2.720867634E0
1.864957760E0,-3.501823902E0,-3.528829575E0,-5.172424316E0
1.867398021E0,-2.680648088E0,-2.894393444E0,-7.056580544E0
1.869837500E0,-2.963151693E0,-2.856087685E0,-8.390092850E0
1.872276979E0,-2.563337326E0,-2.432332277E0,-8.931159973E0
1.874717292E0,-2.635160208E0,-2.628648520E0,-8.777936935E0
1.877157552E0,-2.472361565E0,-3.389971733E0,-8.399669647E0
1.879597083E0,-2.230557442E0,-3.957373381E0,-7.518641472E0
1.882036562E0,-2.589672327E0,-4.752213955E0,-5.670396805E0
1.884476875E0,-4.193718433E0,-6.068968773E0,-3.685689211E0
1.886917135E0,-4.847307682E0,-6.914084911E0,-2.354570389E0
1.889356667E0,-4.952648163E0,-7.469516277E0,-1.672252059E0
1.891796146E0,-5.108263969E0,-8.285903931E0,-7.265831828E-1
1.894236406E0,-5.306974411E0,-8.989768982E0,6.572059393E-1
1.896676667E0,-4.181747913E0,-9.514075279E0,7.769108415E-1
1.899116198E0,-3.583223343E0,-9.102290154E0,9.219860286E-2
1.901555677E0,-2.367021322E0,-8.333785057E0,-1.554941297E0
1.903995989E0,-1.414169908E0,-7.718502522E0,-2.534127712E0
1.906436250E0,-1.251371145E0,-8.656988144E0,-2.881272078E0
1.908875729E0,-1.900171876E0,-1.024906445E1,-2.854937077E0
1.911315208E0,-2.496302605E0,-1.176692295E1,-2.421605110E0
1.913755521E0,-2.996669054E0,-1.287299633E1,-1.523817897E0
1.916195781E0,-3.793904066E0,-1.364868450E1,-5.470257401E-1
1.918635312E0,-3.305507660E0,-1.317465210E1,3.531553745E-1
1.921074792E0,-2.302380562E0,-1.255218792E1,9.373154044E-1
1.923515104E0,-1.248976946E0,-1.215955544E1,1.279671669E0
1.925955364E0,-4.469539523E-1,-1.201351547E1,1.499928713E0
1.928394844E0,-3.799192011E-1,-1.201590919E1,2.007477522E0
1.930834323E0,-2.027558833E-1,-1.278680897E1,2.400109768E0
1.933274635E0,-9.497147202E-1,-1.324408150E1,2.239705086E0
1.935714896E0,-1.624850512E0,-1.306213093E1,1.942836881E0
1.938154427E0,-1.780467033E0,-1.378035927E1,2.093665123E0
1.940593906E0,-2.575307846E0,-1.430945587E1,1.229395509E0
1.943034167E0,-2.750077009E0,-1.527188396E1,6.346942484E-2
1.945474479E0,-4.033313751E0,-1.585843754E1,-1.535788417E0
1.947913958E0,-6.056327343E0,-1.634444046E1,-7.313714027E-1
1.950353437E0,-6.791315556E0,-1.693338776E1,-1.346654654E0
1.952793750E0,-7.710649490E0,-1.659342575E1,-1.679434419E0
1.955234010E0,-8.215804100E0,-1.583689022E1,-2.301900387E0
1.957673542E0,-8.979521751E0,-1.535088825E1,-2.754384756E0
1.960113021E0,-9.250054359E0,-1.578422070E1,-3.312209845E0
1.962553281E0,-1.000658989E1,-1.620797729E1,-3.407973766E0
1.964993542E0,-9.922796249E0,-1.609545326E1,-3.417550325E0
1.967433073E0,-9.843791962E0,-1.607630157E1,-3.496555567E0
1.969872552E0,-9.585228920E0,-1.613375854E1,-3.817364931E0
1.972312864E0,-9.259630203E0,-1.596138382E1,-4.245908260E0
1.974753125E0,-8.761658669E0,-1.639471626E1,-4.746274948E0
1.977192604E0,-8.404937744E0,-1.695254135E1,-5.136512756E0
1.979632083E0,-8.215804100E0,-1.730926132E1,-5.210729599E0
1.982072396E0,-8.069764137E0,-1.751276016E1,-5.227488995E0
1.984512656E0,-7.696284771E0,-1.755824661E1,-5.009625912E0
1.986952187E0,-7.138460159E0,-1.705309296E1,-4.554746628E0
1.989391667E0,-6.724280834E0,-1.654075623E1,-3.977769136E0
1.991831979E0,-6.614152431E0,-1.593504810E1,-3.508526087E0
1.994272239E0,-6.681187153E0,-1.522400188E1,-3.235598803E0
1.996711719E0,-6.915809155E0,-1.460392952E1,-3.125470161E0
1.999151198E0,-7.294076443E0,-1.422087479E1,-2.933942318E0
2.001591510E0,-7.425752163E0,-1.369177818E1,-2.701714754E0
2.004031771E0,-7.468845367E0,-1.342603397E1,-2.761567116E0
2.006471302E0,-6.920597076E0,-1.378035927E1,-3.781453371E0
2.008910781E0,-7.160007000E0,-1.310522461E1,-2.646650314E0
2.011351042E0,-7.066637039E0,-1.246121120E1,-1.454389095E0
2.013791302E0,-6.585422993E0,-1.181241035E1,-8.798055053E-1
2.016230833E0,-5.843252659E0,-1.113727474E1,-3.722565770E-1
2.018670312E0,-4.526497841E0,-9.583504677E0,1.064202666E0
2.021110625E0,-2.675859928E0,-7.577250481E0,1.981142521E0
2.023550885E0,-1.691885233E0,-6.789592266E0,2.040994883E0
2.025990364E0,-9.353500605E-1,-6.095303535E0,2.134364843E0
2.028429844E0,-3.224608302E-1,-5.523114204E0,2.100847483E0
2.030870156E0,5.580678582E-2,-4.931771755E0,2.000295162E0
2.033310417E0,8.214187622E-2,-4.335640907E0,1.696244836E0
2.035749948E0,-2.147263885E-1,-4.294941425E0,6.141121387E-1
2.038189427E0,-1.031113982E0,-4.218329906E0,7.242406607E-1
2.040629739E0,-1.928901076E0,-4.342823505E0,1.045049906E0
2.043070000E0,-2.299986601E0,-4.563079834E0,7.266347408E-1
2.045509479E0,-2.687830210E0,-5.137663841E0,1.257159859E-1
2.047948958E0,-3.070886374E0,-5.769706249E0,2.755793184E-2
2.050389271E0,-3.458730221E0,-6.116850376E0,3.952843323E-2
2.052829531E0,-3.834603786E0,-6.660310745E0,9.219860286E-2
2.055269062E0,-3.939944029E0,-7.191800594E0,-2.549457252E-1
2.057708542E0,-3.762780666E0,-7.699349403E0,-5.182965994E-1
2.060148854E0,-3.444365501E0,-8.192533493E0,-1.085698009E0
2.062589114E0,-3.207349777E0,-8.443914413E0,-1.442418694E0
2.065028594E0,-2.946393013E0,-8.704870224E0,-2.151072025E0
2.067468073E0,-2.884146452E0,-9.068773270E0,-2.541310072E0
2.069908385E0,-2.706983328E0,-9.626598358E0,-4.207602501E0
2.072348646E0,-2.572913647E0,-1.010541821E1,-5.840377808E0
2.074788177E0,-2.527425766E0,-1.060339069E1,-7.066156387E0
2.077227656E0,-2.740500450E0,-1.107742214E1,-8.059707642E0
2.079667917E0,-2.955969572E0,-1.139104939E1,-8.516980171E0
2.082108177E0,-3.173832417E0,-1.156581879E1,-8.531344414E0
2.084547708E0,-3.480277061E0,-1.139344311E1,-7.681439877E0
2.086987187E0,-3.820239067E0,-1.113966846E1,-6.345532894E0
2.089427500E0,-4.160201073E0,-1.069436646E1,-5.038354874E0
2.091867760E0,-4.390034676E0,-1.026342869E1,-3.826941013E0
2.094307239E0,-4.591138840E0,-9.801367760E0,-2.696926594E0
2.096746719E0,-4.718026161E0,-9.435070992E0,-1.887720942E0
2.099187031E0,-4.725208282E0,-9.114261627E0,-1.162309051E0
2.101627292E0,-4.643808842E0,-8.846122742E0,-7.888297439E-1
2.104066823E0,-4.514527321E0,-8.642623901E0,-5.542080998E-1
2.106506302E0,-4.320605278E0,-8.424760818E0,-4.943555593E-1
2.108946614E0,-4.212871552E0,-8.266750336E0,-6.188487411E-1
2.111386875E0,-4.081195831E0,-8.266750336E0,-7.577064633E-1
2.113826354E0,-3.844180107E0,-8.453490257E0,-1.047392368E0
2.116265833E0,-3.480277061E0,-8.776693344E0,-1.459177375E0
2.118706146E0,-3.317478180E0,-9.013710022E0,-1.923632503E0
2.121146406E0,-2.910481453E0,-9.277060509E0,-2.359358549E0
2.123585937E0,-2.869781971E0,-9.504499435E0,-2.543704033E0
2.126025417E0,-2.692618608E0,-9.686451912E0,-2.756778955E0
2.128465677E0,-2.271257162E0,-9.942619324E0,-3.036888599E0
2.130905989E0,-1.878625035E0,-1.017963600E1,-3.269116163E0
2.133345469E0,-1.746949673E0,-1.034243488E1,-3.314604044E0
2.135784948E0,-1.588938951E0,-1.055550861E1,-3.137440681E0
2.138225260E0,-1.445293188E0,-1.077097797E1,-2.998583078E0
2.140665521E0,-1.287282586E0,-1.090025997E1,-2.902819157E0
2.143105000E0,-1.131666303E0,-1.095053577E1,-2.828601837E0
2.145544479E0,-9.377442002E-1,-1.095053577E1,-2.799872875E0
2.147984792E0,-8.371920586E-1,-1.081407166E1,-2.687350035E0
2.150425052E0,-9.521088004E-1,-1.049326229E1,-2.672985554E0
2.152864583E0,-1.263341665E0,-1.007668972E1,-2.620315313E0
2.155304062E0,-1.543451071E0,-9.722362518E0,-2.649044514E0
2.157744375E0,-1.892989635E0,-9.435070992E0,-2.694532394E0
2.160184635E0,-2.175493240E0,-9.229178429E0,-2.785508156E0
2.162624114E0,-2.345474243E0,-9.061591148E0,-2.924365759E0
2.165063594E0,-2.551366806E0,-8.932309151E0,-3.039282560E0
2.167503906E0,-2.587278366E0,-8.824575424E0,-3.108711481E0
2.169944167E0,-2.601642847E0,-8.726417542E0,-3.101529121E0
2.172383698E0,-2.687830210E0,-8.654594421E0,-3.075194120E0
2.174823177E0,-2.706983328E0,-8.597136497E0,-3.060829639E0
2.177263489E0,-2.790776491E0,-8.616288185E0,-3.029706240E0
2.179703750E0,-2.881752253E0,-8.594742775E0,-3.029706240E0
2.182143229E0,-2.946393013E0,-8.630653381E0,-3.032100201E0
2.184582708E0,-3.023004293E0,-8.666564941E0,-3.039282560E0
2.187023021E0,-3.154679775E0,-8.719235420E0,-3.156593561E0
2.189463281E0,-3.262413979E0,-8.762328148E0,-3.326574564E0
2.191902760E0,-3.276778698E0,-8.724023819E0,-3.446279287E0
2.194342239E0,-3.039762974E0,-7.711319923E0,-3.278692484E0
2.196782552E0,-2.687830210E0,-6.487935543E0,-2.895636797E0
2.199222812E0,-2.158734560E0,-5.525507927E0,-2.390481710E0
2.201662344E0,-1.258553386E0,-3.277449369E0,-1.856597662E0
2.204101823E0,-6.360877752E-1,-5.050828457E-1,-1.322713733E0
2.206542135E0,-6.480582356E-1,4.549507499E-1,-1.298772693E0
2.208982396E0,-1.019143462E0,5.578970313E-1,-1.554941297E0
2.211421875E0,-1.672732472E0,1.868117005E-1,-5.486051559E0
2.213861354E0,-2.627978086E0,6.105672121E-1,-6.762105942E0
2.216301667E0,-3.322266579E0,1.783675551E0,-7.025456905E0
2.218741927E0,-3.738839865E0,2.401352882E0,-6.496360779E0
2.221181458E0,-4.198506355E0,1.331190825E0,-5.529145241E0
2.223620937E0,-4.504951477E0,-9.090374410E-2,-4.329701900E0
2.226061250E0,-4.588745117E0,-1.398081660E0,-2.684956074E0
2.228501510E0,-4.557621479E0,-2.544855118E0,-1.430448174E0
2.230940989E0,-4.318211555E0,-3.753874779E0,-6.499720216E-1
2.233380469E0,-4.052466869E0,-4.855160713E0,-2.788867056E-1
2.235820781E0,-3.947126150E0,-6.181490898E0,-4.665913433E-2
2.238261042E0,-4.042890072E0,-7.330658436E0,-2.429752350E-1
2.240700521E0,-4.141048431E0,-8.235627174E0,-4.584441185E-1
2.243140000E0,-4.346940994E0,-8.276327133E0,-5.613903999E-1
2.245580312E0,-3.978249550E0,-7.924395084E0,-7.912238240E-1
2.248020573E0,-2.884146452E0,-6.298801899E0,-1.107244849E0
2.250460104E0,-1.802013874E0,-4.364369869E0,-1.430448174E0
2.252899583E0,-9.161973000E-1,-1.838595867E0,-9.252933860E-1
2.255339896E0,-3.583722711E-1,-7.653915882E-2,-7.026422024E-1
2.257780156E0,-4.445598423E-1,1.868117005E-1,-2.990043908E-2
2.260219635E0,-5.834175944E-1,-1.728467345E0,-9.214700013E-2
2.262659114E0,-5.020182133E-1,-3.425883293E0,-4.153503776E-1
2.265099427E0,-5.642648339E-1,-4.886283398E0,-1.073727489E0
2.267539687E0,-1.114907503E0,-5.690700531E0,-1.909268022E0
2.269979219E0,-1.478810549E0,-6.399353981E0,-3.096740961E0
2.272418698E0,-1.737373114E0,-7.275594234E0,-4.312942982E0
2.274858958E0,-2.034241438E0,-7.711319923E0,-5.462110519E0
2.277299271E0,-2.235345840E0,-7.945941448E0,-5.957688808E0
2.279738750E0,-2.192251921E0,-7.802296162E0,-6.094152451E0
2.282178229E0,-2.295198202E0,-7.498245716E0,-5.943324566E0
2.284618542E0,-2.311956644E0,-7.208559513E0,-6.185128212E0
2.287058802E0,-2.484332085E0,-7.395298958E0,-5.234670639E0
2.289498281E0,-2.853023291E0,-8.166198730E0,-3.680901051E0
2.291937760E0,-3.008639574E0,-9.097502708E0,-2.967459679E0
2.294378073E0,-3.781933546E0,-9.576322556E0,-2.033761024E0
2.296818333E0,-4.667749882E0,-9.906708717E0,-1.315531492E0
2.299257864E0,-5.005318165E0,-1.003120136E1,-8.989582658E-1
2.301697344E0,-4.859278202E0,-1.050283813E1,-6.523661613E-1
2.304137656E0,-4.964618683E0,-1.011978245E1,-5.829372406E-1
2.306577917E0,-4.806608200E0,-9.583504677E0,-6.643366218E-1
2.309017396E0,-4.911948204E0,-9.882767677E0,-9.205052257E-1
2.311456875E0,-5.074747086E0,-1.001683617E1,-1.799139380E0
2.313897187E0,-5.002923965E0,-1.043580341E1,-2.795084476E0
2.316337448E0,-5.067564487E0,-1.052677917E1,-3.685689211E0
2.318776979E0,-4.852095604E0,-1.090983582E1,-4.375189304E0
2.321216458E0,-4.677326679E0,-1.062972546E1,-4.667269230E0
2.323656719E0,-4.363699436E0,-1.036637592E1,-5.007231236E0
2.326097031E0,-3.655046225E0,-1.023709393E1,-5.179606915E0
2.328536510E0,-3.281566858E0,-1.015808868E1,-5.299311638E0
2.330975989E0,-2.793170691E0,-1.028736973E1,-5.272976398E0
2.333416302E0,-2.627978086E0,-1.014372349E1,-5.251430035E0
2.335856562E0,-2.491514206E0,-1.002880764E1,-4.985684872E0
2.338296042E0,-2.338292122E0,-1.020118237E1,-4.861191273E0
2.340735521E0,-2.491514206E0,-1.002880764E1,-4.461376667E0
2.343175833E0,-2.386173964E0,-9.679268837E0,-3.946645975E0
2.345616094E0,-2.285621643E0,-9.368035316E0,-3.630625010E0
2.348055625E0,-2.034241438E0,-9.466193199E0,-3.611472368E0
2.350495104E0,-1.995935917E0,-9.377612114E0,-3.434308767E0
2.352935417E0,-1.754131913E0,-9.116655350E0,-3.412762165E0
2.355375677E0,-2.012694597E0,-8.762328148E0,-3.235598803E0
2.357815156E0,-1.904960155E0,-8.487007141E0,-3.214051723E0
2.360254635E0,-1.667944312E0,-9.006526947E0,-3.194899082E0
2.362694948E0,-1.780467033E0,-8.963433266E0,-3.240386724E0
2.365135208E0,-1.825954914E0,-9.207631111E0,-3.393609285E0
2.367574739E0,-1.754131913E0,-9.662510872E0,-3.525284529E0
2.370014219E0,-1.821166635E0,-1.016527081E1,-3.599501848E0
2.372454479E0,-2.096487999E0,-1.018681717E1,-3.716812611E0
2.374894792E0,-2.316745043E0,-1.035919285E1,-3.850882053E0
2.377334271E0,-2.376597404E0,-1.081167793E1,-4.083109379E0
2.379773750E0,-2.400538445E0,-1.100799370E1,-4.085503578E0
2.382214062E0,-2.692618608E0,-1.110854530E1,-4.104656219E0
2.384654323E0,-2.735712290E0,-1.137429047E1,-3.994528055E0
2.387093802E0,-2.704588890E0,-1.141977882E1,-4.300972462E0
2.389533281E0,-2.754865170E0,-1.168073559E1,-4.612205505E0
2.391973594E0,-2.879358292E0,-1.176931667E1,-4.786974430E0
2.394413854E0,-2.898510933E0,-1.204463863E1,-5.112571716E0
2.396853385E0,-2.790776491E0,-1.193929768E1,-5.215518475E0
2.399292864E0,-2.853023291E0,-1.195126820E1,-5.217912197E0
2.401733177E0,-2.769229650E0,-1.218828487E1,-5.088630676E0
2.404173437E0,-2.395750284E0,-1.249712276E1,-5.347193241E0
2.406612917E0,-1.576968551E0,-1.242529964E1,-5.196365356E0
2.409052396E0,-9.975967407E-1,-1.257134056E1,-5.134119034E0
2.411492708E0,-1.078996062E0,-1.274850368E1,-4.873161793E0
2.413932969E0,-1.215459585E0,-1.239896488E1,-4.954561234E0
2.416372448E0,-1.294464827E0,-1.218589020E1,-4.971319675E0
2.418811927E0,-1.562603951E0,-1.245881748E1,-4.880344391E0
2.421252239E0,-1.526692510E0,-1.251148796E1,-4.863585949E0
2.423692500E0,-1.576968551E0,-1.260485744E1,-5.086236954E0
2.426132031E0,-1.574574471E0,-1.283229637E1,-5.263400555E0
2.428571510E0,-1.648791552E0,-1.268625641E1,-5.426198959E0
2.431011823E0,-1.708644032E0,-1.260485744E1,-5.691943645E0
2.433452083E0,-1.904960155E0,-1.252824688E1,-6.055846691E0
2.435891562E0,-2.156340599E0,-1.239896488E1,-6.398202896E0
2.438331042E0,-2.402932405E0,-1.222658920E1,-6.563395977E0
2.440771354E0,-2.546578407E0,-1.209252071E1,-6.630430222E0
2.443211614E0,-2.637554169E0,-1.190578079E1,-6.561001778E0
2.445651146E0,-2.635160208E0,-1.176692295E1,-6.419749737E0
2.448090625E0,-2.565731287E0,-1.165679455E1,-6.175551891E0
2.450530885E0,-2.508272886E0,-1.166158295E1,-5.979235649E0
2.452971198E0,-2.484332085E0,-1.179804611E1,-5.840377808E0
2.455410677E0,-2.457997084E0,-1.195845032E1,-5.797284126E0
2.457850156E0,-2.532213926E0,-1.211646175E1,-5.790102005E0
2.460290469E0,-2.594460487E0,-1.223616695E1,-5.794889927E0
2.462730729E0,-2.671071768E0,-1.230559540E1,-5.701520443E0
2.465170208E0,-2.690224409E0,-1.231277752E1,-5.581815243E0
2.467609687E0,-2.740500450E0,-1.223137856E1,-5.507598400E0
2.470050000E0,-2.790776491E0,-1.212603760E1,-5.469292641E0
2.472490260E0,-2.757259369E0,-1.182916927E1,-5.579421520E0
2.474929792E0,-2.723741770E0,-1.132162094E1,-5.663214684E0
2.477369271E0,-2.647130728E0,-1.073027897E1,-5.687155724E0
2.479809531E0,-2.465179205E0,-1.004077721E1,-5.718278885E0
2.482249844E0,-2.220981121E0,-9.480558395E0,-5.416622162E0
2.484689323E0,-1.943265676E0,-9.104685783E0,-5.105389595E0
2.487128802E0,-1.521904230E0,-8.841334343E0,-4.712757111E0
2.489569114E0,-1.059843302E0,-8.776693344E0,-4.372795105E0
2.492009375E0,-6.839697361E-1,-8.829363823E0,-4.023257256E0
2.494448854E0,-3.296431005E-1,-8.908368111E0,-3.786241293E0
2.496888333E0,-8.305093646E-2,-8.989768982E0,-3.546831608E0
2.499328646E0,1.060828716E-1,-9.059197426E0,-3.362486124E0
2.501768906E0,2.616992891E-1,-9.008921623E0,-3.266721964E0
2.504208437E0,3.670396209E-1,-9.025679588E0,-3.144623041E0
2.506647917E0,4.340744019E-1,-9.135808945E0,-3.230810642E0
2.509088229E0,3.622514307E-1,-9.262695312E0,-3.350515604E0
2.511528489E0,1.563589424E-1,-9.643357277E0,-3.467826366E0
2.513967969E0,-6.389814615E-2,-9.990501404E0,-3.558802128E0
2.516407448E0,-2.243027687E-1,-1.028736973E1,-3.470220327E0
2.518847760E0,-2.913375497E-1,-1.045974445E1,-3.381638765E0
2.521288021E0,-9.209855199E-1,-1.090983582E1,-3.206869602E0
2.523727552E0,-2.316745043E0,-1.078773689E1,-3.398397207E0
2.526167031E0,-2.039029598E0,-1.047650337E1,-3.927493334E0
2.528607292E0,-1.919324636E0,-1.150357151E1,-3.781453371E0
2.531047552E0,-1.818772554E0,-1.164482403E1,-3.563590288E0
2.533487083E0,-2.343080282E0,-1.129767990E1,-3.070405722E0
2.535926562E0,-2.718953848E0,-1.046692753E1,-2.766355276E0
2.538366875E0,-2.963151693E0,-1.038073921E1,-2.404846668E0
2.540807135E0,-2.876964331E0,-1.044298649E1,-2.265988827E0
2.543246614E0,-2.651918888E0,-9.719968796E0,-2.275565147E0
2.545686094E0,-2.735712290E0,-9.289031029E0,-2.270776749E0
2.548126406E0,-2.465179205E0,-8.834151268E0,-2.514975071E0
2.550566667E0,-2.426873446E0,-8.570800781E0,-2.514975071E0
2.553006146E0,-2.249710321E0,-8.285903931E0,-2.301900387E0
2.555445625E0,-2.168311119E0,-7.802296162E0,-2.033761024E0
2.557885937E0,-2.378991842E0,-6.483147621E0,-1.916450143E0
2.560326198E0,-2.527425766E0,-5.472837448E0,-2.045731544E0
2.562765729E0,-2.692618608E0,-4.242270947E0,-2.141495466E0
2.565205208E0,-2.752470970E0,-2.666954041E0,-1.914056182E0
2.567645521E0,-1.193912745E0,-2.288686514E0,-2.122342825E0
2.570085781E0,5.341269076E-2,-3.413912773E0,-2.500610352E0
2.572525260E0,6.830607057E-1,-4.438587189E0,-2.596374273E0
2.574964739E0,1.578453660E0,-5.865469933E0,-2.797478676E0
2.577405052E0,1.784346104E0,-6.655522346E0,-2.519763231E0
2.579845312E0,2.119519949E0,-7.376145840E0,-1.966726422E0
2.582284844E0,2.009391546E0,-8.135075569E0,-1.552547216E0
2.584724323E0,1.468325019E0,-8.410396576E0,-1.052180529E0
2.587164583E0,1.370167017E0,-8.020158768E0,-4.440795183E-1
2.589604896E0,1.087663412E0,-7.831025124E0,6.069298387E-1
2.592044375E0,1.451566339E0,-6.272466660E0,1.502322793E0
2.594483854E0,2.787473440E0,-3.684446096E0,2.957934618E0
2.596924167E0,3.290234327E0,-4.476892471E0,3.405631065E0
2.599364427E0,3.065188885E0,-5.798435211E0,3.716863871E0
2.601803906E0,2.904784203E0,-6.322742939E0,4.126255035E0
2.604243385E0,2.337383032E0,-6.906903267E0,4.075979233E0
2.606683698E0,1.722099543E0,-7.455151558E0,4.655351162E0
2.609123958E0,1.422837138E0,-8.151833534E0,6.711881638E0
2.611563489E0,3.814042211E-1,-1.056508541E1,6.673576355E0
2.614002969E0,-1.572680026E-1,-1.175974083E1,5.945770264E0
2.616443229E0,-5.834175944E-1,-1.084280014E1,4.760691166E0
2.618883542E0,-7.797337174E-1,-1.012935925E1,3.843751192E0
2.621323021E0,-1.557815790E0,-1.099362850E1,3.024969339E0
2.623762500E0,-2.137187719E0,-1.083561897E1,2.617972612E0
2.626202812E0,-2.594460487E0,-1.065366650E1,2.139153004E0
2.628643073E0,-3.532947302E0,-1.017963600E1,1.540628433E0
2.631082552E0,-3.578434944E0,-9.861220360E0,1.092931867E0
2.633522031E0,-3.901638508E0,-9.523653030E0,3.387907743E-1
2.635962344E0,-3.973461628E0,-9.123837471E0,3.244261742E-1
2.638402604E0,-4.464251518E0,-9.363247871E0,1.387405992E0
2.640842135E0,-5.132205009E0,-8.757540703E0,1.926078320E0
2.643281614E0,-5.034047127E0,-7.996218204E0,1.638786435E0
2.645721927E0,-4.710844040E0,-7.014637470E0,1.765673637E0
2.648162187E0,-3.762780666E0,-6.174308777E0,1.708215356E0
2.650601667E0,-3.504218102E0,-6.387383461E0,1.298824430E0
2.653041146E0,-3.102009535E0,-6.107274055E0,1.164754868E0
2.655481458E0,-1.948053837E0,-5.037112236E0,1.282065630E0
2.657921719E0,-1.701461792E0,-5.508749008E0,1.080961347E0
2.660361198E0,-1.201094985E0,-5.848711014E0,1.504716873E0
2.662800677E0,-7.198811769E-1,-5.630848408E0,2.948358536E0
2.665240989E0,-1.117801368E-1,-7.555703640E0,6.391072750E0
2.667681250E0,-3.990719616E-1,-1.046932125E1,6.695123196E0
2.670120781E0,5.872966647E-1,-9.652933121E0,5.201205730E0
2.672560260E0,1.779557824E0,-8.594742775E0,2.278010607E0
2.675000521E0,2.801837921E0,-8.558830261E0,6.825761497E-2
2.677440833E0,3.196864128E0,-9.573928833E0,-1.430448174E0
2.679880312E0,2.947877884E0,-9.834885597E0,-1.643522978E0
2.682319792E0,3.536826134E0,-9.662510872E0,-1.849415421E0
2.684760104E0,3.546402693E0,-1.017245388E1,-2.854937077E0
2.687200364E0,3.168135166E0,-1.088350010E1,-2.797478676E0
2.689639844E0,2.579186678E0,-1.106784630E1,-3.039282560E0
2.692079323E0,1.731675863E0,-1.062014961E1,-3.022523880E0
2.694519635E0,9.727466106E-1,-1.067042542E1,-3.125470161E0
2.696959896E0,2.042409033E-1,-1.099602318E1,-2.507792711E0
2.699399427E0,9.890056401E-2,-1.195126820E1,-2.237259626E0
2.701838906E0,-2.554260790E-1,-1.283708477E1,-2.127130985E0
2.704279219E0,5.820088834E-2,-1.275807953E1,-1.315531492E0
2.706719479E0,-1.189624220E-1,-1.426875687E1,-8.893818855E-1
2.709158958E0,-9.023323655E-2,-1.460392952E1,-1.116821170E0
2.711598437E0,5.530716851E-3,-1.552565765E1,-1.095274329E0
2.714038750E0,-4.517421722E-1,-1.634204483E1,-1.124003410E0
2.716479010E0,-9.664733410E-1,-1.712970352E1,-1.325107813E0
2.718918489E0,-1.751737714E0,-1.822620201E1,-1.916450143E0
2.721357969E0,-2.355050802E0,-1.847039986E1,-2.390481710E0
2.723798281E0,-2.936816692E0,-1.845842934E1,-2.670591354E0
2.726238542E0,-3.427607059E0,-1.788624001E1,-2.665803432E0
2.728678073E0,-3.597588062E0,-1.768752861E1,-2.677773714E0
2.731117552E0,-3.595193863E0,-1.749121284E1,-2.723261595E0
2.733557864E0,-3.027792454E0,-1.710097504E1,-2.500610352E0
2.735998125E0,-2.374203444E0,-1.734756851E1,-2.491034031E0
2.738437604E0,-1.320799947E0,-1.692141724E1,-2.069672585E0
2.740877083E0,-3.176726401E-1,-1.658863831E1,-1.667463899E0
2.743317396E0,5.585675240E-1,-1.628219414E1,-1.061756968E0
2.745757656E0,1.379743338E0,-1.585843754E1,-6.140605211E-1
2.748197135E0,2.064455509E0,-1.522639561E1,-3.052217960E-1
2.750636614E0,2.660586357E0,-1.452492428E1,2.382386327E-1
2.753076927E0,3.122647285E0,-1.414665699E1,4.441311061E-1
2.755517187E0,3.469791412E0,-1.375641823E1,6.093239188E-1
2.757956719E0,3.615831852E0,-1.358404350E1,5.925652385E-1
2.760396198E0,3.630196333E0,-1.369417286E1,1.903566569E-1
2.762836458E0,3.362057209E0,-1.387133598E1,-1.023451328E0
2.765276771E0,2.892813683E0,-1.409638023E1,-2.675379515E0
2.767716250E0,2.430752754E0,-1.412271690E1,-2.933942318E0
2.770155729E0,2.042908669E0,-1.377557182E1,-2.388087749E0
2.772596042E0,1.688582063E0,-1.334463310E1,-1.782380700E0
2.775036302E0,1.559300780E0,-1.280596161E1,-1.629158378E0
2.777475781E0,1.360590577E0,-1.254261017E1,-1.715345979E0
2.779915260E0,1.216944575E0,-1.224813652E1,-2.194165707E0
2.782355573E0,1.094845653E0,-1.177649975E1,-2.639467955E0
2.784795833E0,1.020628572E0,-1.135513783E1,-3.254751682E0
2.787235364E0,1.066116452E0,-1.079491901E1,-3.649777889E0
2.789674844E0,1.190609574E0,-1.023948765E1,-4.226755142E0
2.792115104E0,1.257644415E0,-9.435070992E0,-4.667269230E0
2.794555417E0,1.468325019E0,-8.436731339E0,-4.861191273E0
2.796994896E0,1.760405064E0,-6.669887066E0,-5.268188477E0
2.799434375E0,2.097973108E0,-3.871185780E0,-4.585870266E0
2.801874687E0,1.863351345E0,-2.690895081E0,-3.340939045E0
2.804314948E0,1.616759062E0,-1.951118588E0,-1.672252059E0
2.806754427E0,1.312708616E0,-1.395687699E0,1.558744162E-2
2.809193906E0,1.001475811E0,-7.516750097E-1,1.818343759E0
2.811634219E0,1.193003774E0,-3.997424841E-1,2.534179211E0
2.814074479E0,1.865745544E0,-9.432029128E-1,-1.089056954E-1
2.816513958E0,6.974252462E-1,-1.139518976E0,-9.444461465E-1
2.818953437E0,-4.373775721E-1,-9.719320536E-1,-2.693103254E-1
2.821393750E0,-1.646397352E0,-1.149095416E0,8.128222823E-1
2.823834010E0,-2.457997084E0,-1.568062663E0,1.954807401E0
2.826273542E0,-2.891328812E0,-2.384450197E0,3.111157179E0
2.828713021E0,-3.255231857E0,-3.588681936E0,4.111890793E0
2.831153333E0,-3.499429703E0,-4.912618637E0,4.257930756E0
2.833593594E0,-3.825027227E0,-6.061786175E0,3.747987509E0
2.836033073E0,-4.071619511E0,-7.246865273E0,2.792742014E0
2.838472552E0,-4.121895313E0,-8.340967178E0,2.117606163E0
2.840912864E0,-4.184142113E0,-9.372824669E0,1.959595680E0
2.843353125E0,-4.119501591E0,-1.017963600E1,1.803979278E0
2.845792604E0,-3.925579548E0,-1.079731274E1,1.504716873E0
2.848232083E0,-3.681381226E0,-1.114924526E1,1.195878148E0
2.850672396E0,-3.406059980E0,-1.143893147E1,1.013926625E0
2.853112656E0,-3.090039015E0,-1.166397667E1,7.673344016E-1
2.855552187E0,-2.740500450E0,-1.175734615E1,5.087717772E-1
2.857991667E0,-2.376597404E0,-1.178846931E1,2.166917324E-1
2.860431979E0,-2.010300398E0,-1.170228291E1,-7.778241485E-2
2.862872239E0,-1.682308912E0,-1.152511883E1,-3.315568864E-1
2.865311719E0,-1.416563988E0,-1.134795570E1,-5.302670598E-1
2.867751198E0,-1.220247865E0,-1.109657574E1,-7.122185826E-1
2.870191510E0,-1.124483824E0,-1.090744114E1,-8.414999247E-1
2.872631771E0,-1.045478582E0,-1.061057377E1,-8.367117047E-1
2.875071250E0,-9.401383400E-1,-1.035679817E1,-9.995103478E-1
2.877510729E0,-8.850740194E-1,-1.009105396E1,-1.327501893E0
2.879951042E0,-8.922563195E-1,-9.832491875E0,-1.523817897E0
2.882391302E0,-8.467684388E-1,-9.657721519E0,-1.751257300E0
2.884830833E0,-8.300097585E-1,-9.542805672E0,-1.820686221E0
2.887270312E0,-8.850740194E-1,-9.449435234E0,-1.763227820E0
2.889710573E0,-9.784438610E-1,-9.375218391E0,-1.559729457E0
2.892150885E0,-1.076601863E0,-9.277060509E0,-1.313137293E0
2.894590364E0,-1.119695783E0,-9.348883629E0,-1.277225852E0
2.897029844E0,-1.237006545E0,-9.363247871E0,-1.162309051E0
2.899470156E0,-1.337558627E0,-9.391976357E0,-1.030633688E0
2.901910417E0,-1.380652547E0,-9.406341553E0,-1.009086847E0
2.904349896E0,-1.433322668E0,-9.470982552E0,-9.947223067E-1
2.906789375E0,-1.435716748E0,-9.506893158E0,-1.056968689E0
2.909229687E0,-1.416563988E0,-9.538016319E0,-1.073727489E0
2.911669948E0,-1.380652547E0,-9.583504677E0,-1.124003410E0
2.914109479E0,-1.383046508E0,-9.621810913E0,-1.159914970E0
2.916548958E0,-1.375864267E0,-9.614628792E0,-1.128791690E0
2.918989219E0,-1.399805307E0,-9.617022514E0,-1.078515530E0
2.921429479E0,-1.371076107E0,-9.628993034E0,-1.145550489E0
2.923869010E0,-1.371076107E0,-9.664904594E0,-1.207796931E0
2.926308489E0,-1.347135186E0,-9.664904594E0,-1.198220611E0
2.928748802E0,-1.337558627E0,-9.684056282E0,-1.200614691E0
2.931189062E0,-1.318405867E0,-9.698421478E0,-1.167097330E0
2.933628542E0,-1.325588107E0,-9.722362518E0,-1.128791690E0
2.936068021E0,-1.308829546E0,-9.746303558E0,-1.076121569E0
2.938508333E0,-1.277706265E0,-9.777426720E0,-1.083303809E0
2.940948594E0,-1.256159425E0,-9.789397240E0,-1.030633688E0
2.943388073E0,-1.237006545E0,-9.834885597E0,-9.851458669E-1
2.945827552E0,-1.239400625E0,-9.818126678E0,-9.420520663E-1
2.948267864E0,-1.208277345E0,-9.818126678E0,-9.109287858E-1
2.950708125E0,-1.186730504E0,-9.789397240E0,-9.420520663E-1
2.953147656E0,-1.165183663E0,-9.775032997E0,-1.006692648E0
2.955587135E0,-1.167577624E0,-9.777426720E0,-1.104850650E0
2.958027396E0,-1.172365904E0,-9.715180397E0,-1.080909729E0
2.960467656E0,-1.227430105E0,-9.698421478E0,-1.135973930E0
2.962907187E0,-1.256159425E0,-9.669692993E0,-1.246102571E0
2.965346667E0,-1.323194146E0,-9.626598358E0,-1.238920212E0
2.967786979E0,-1.404593468E0,-9.628993034E0,-1.351442933E0
2.970227239E0,-1.471628308E0,-9.655327797E0,-1.497482896E0
2.972666719E0,-1.538663030E0,-9.650539398E0,-1.653099298E0
2.975106198E0,-1.622456431E0,-9.674480438E0,-1.851809621E0
2.977546510E0,-1.682308912E0,-9.676874161E0,-2.040943623E0
2.979986771E0,-1.739767313E0,-9.667298317E0,-2.172618866E0
2.982426250E0,-1.823560715E0,-9.657721519E0,-2.244441748E0
2.984865729E0,-1.890595555E0,-9.612233162E0,-2.347388029E0
2.987306042E0,-1.955236077E0,-9.559563637E0,-2.414422750E0
2.989746302E0,-2.041423798E0,-9.473376274E0,-2.423999310E0
2.992185833E0,-2.141975641E0,-9.413523674E0,-2.565251112E0
2.994625312E0,-2.225769281E0,-9.360853195E0,-2.661015034E0
2.997065573E0,-2.326321602E0,-9.286636353E0,-2.684956074E0
2.999505885E0,-2.407720804E0,-9.200448990E0,-2.773537636E0
3.001945364E0,-2.474755526E0,-9.133414268E0,-2.787902355E0
3.004384844E0,-2.570519447E0,-9.042438507E0,-2.711291075E0
3.006825156E0,-2.637554169E0,-8.973009109E0,-2.665803432E0
3.009265417E0,-2.714165449E0,-8.901186943E0,-2.579615593E0
3.011704896E0,-2.778806210E0,-8.831757545E0,-2.409634590E0
3.014144375E0,-2.864993811E0,-8.803028107E0,-2.237259626E0
3.016584687E0,-2.903299332E0,-8.762328148E0,-2.033761024E0
3.019024948E0,-2.941604853E0,-8.740782738E0,-1.858991861E0
3.021464479E0,-2.994275093E0,-8.726417542E0,-1.677040339E0
3.023903958E0,-3.001457214E0,-8.700082779E0,-1.394536734E0
3.026344219E0,-2.989486694E0,-8.700082779E0,-1.097668409E0
3.028784479E0,-2.975122213E0,-8.676141739E0,-8.462881446E-1
3.031224010E0,-2.967940092E0,-8.702476501E0,-5.996959209E-1
3.033663489E0,-2.936816692E0,-8.719235420E0,-3.052217960E-1
3.036103802E0,-2.900905371E0,-8.740782738E0,-8.017649502E-2
3.038544062E0,-2.838658571E0,-8.774299622E0,1.233218908E-1
3.040983542E0,-2.805141211E0,-8.843729019E0,2.310563326E-1
3.043423021E0,-2.790776491E0,-8.929915428E0,2.693619132E-1
3.045863333E0,-2.764441490E0,-9.011315346E0,2.526032031E-1
3.048303594E0,-2.733318329E0,-9.052014351E0,3.004851937E-1
3.050743073E0,-2.687830210E0,-9.102290154E0,3.507612646E-1
3.053182552E0,-2.690224409E0,-9.157355309E0,2.933028936E-1
3.055622864E0,-2.706983328E0,-9.226784706E0,1.999330521E-1
3.058063125E0,-2.699800730E0,-9.291424751E0,1.798154414E-2
3.060502656E0,-2.690224409E0,-9.351277351E0,-1.687581539E-1
3.062942135E0,-2.716559410E0,-9.447041512E0,-3.507096767E-1
3.065382396E0,-2.718953848E0,-9.502105713E0,-5.542080998E-1
3.067822656E0,-2.704588890E0,-9.538016319E0,-7.122185826E-1
3.070262187E0,-2.675859928E0,-9.614628792E0,-8.821995854E-1
3.072701667E0,-2.663889408E0,-9.688845634E0,-1.109638929E0
3.075141979E0,-2.656707048E0,-9.791791916E0,-1.394536734E0
3.077582239E0,-2.618401527E0,-9.964166641E0,-1.686616659E0
3.080021719E0,-2.582489967E0,-1.018681717E1,-1.969120383E0
3.082461198E0,-2.558548927E0,-1.046692753E1,-2.222895145E0
3.084901510E0,-2.532213926E0,-1.078055477E1,-2.421605110E0
3.087341771E0,-2.503484726E0,-1.113248634E1,-2.574827671E0
3.089781250E0,-2.450814486E0,-1.149399567E1,-2.677773714E0
3.092220729E0,-2.441238165E0,-1.186747456E1,-2.732838154E0
3.094661042E0,-2.481937885E0,-1.220025444E1,-2.751990795E0
3.097101302E0,-2.513061285E0,-1.248515224E1,-2.768749475E0
3.099540833E0,-2.601642847E0,-1.269343948E1,-2.653832912E0
3.101980312E0,-2.728529930E0,-1.283708477E1,-2.538916111E0
3.104420573E0,-2.831476212E0,-1.296876049E1,-2.412028790E0
3.106860833E0,-3.037368774E0,-1.305494785E1,-2.234865665E0
3.109300364E0,-3.245655537E0,-1.314352989E1,-2.007426023E0
3.111739844E0,-3.504218102E0,-1.326323414E1,-1.909268022E0
3.114180156E0,-3.839391708E0,-1.340448666E1,-1.693798900E0
3.116620417E0,-4.215265274E0,-1.352419186E1,-1.449600935E0
3.119059896E0,-4.658173561E0,-1.371571922E1,-1.107244849E0
3.121499375E0,-5.110658646E0,-1.389048862E1,-7.026422024E-1
3.123939687E0,-5.563142776E0,-1.405568123E1,-2.549457252E-1
3.126379948E0,-5.982110500E0,-1.426157379E1,1.041690931E-1
3.128819427E0,-6.329254627E0,-1.453450012E1,4.177960157E-1
3.131258906E0,-6.681187153E0,-1.481221676E1,7.505757213E-1
3.133699219E0,-6.925384998E0,-1.513302517E1,9.828032851E-1
3.136139479E0,-7.114519119E0,-1.545862389E1,1.159966707E0
3.138579010E0,-7.227041721E0,-1.575788593E1,1.258124828E0
3.141018489E0,-7.246194363E0,-1.601644897E1,1.375435591E0
3.143458750E0,-7.152824402E0,-1.623909950E1,1.418529272E0
3.145899010E0,-6.963690281E0,-1.642584038E1,1.418529272E0
3.148338542E0,-6.681187153E0,-1.661257935E1,1.385011911E0
3.150778021E0,-6.389107227E0,-1.672270775E1,1.387405992E0
3.153218333E0,-6.001263142E0,-1.679931831E1,1.370647430E0
3.155658594E0,-5.536808014E0,-1.688071823E1,1.289248109E0
3.158098073E0,-5.007711887E0,-1.690465927E1,1.150390267E0
3.160537552E0,-4.457069397E0,-1.683283615E1,9.899856448E-1
3.162977864E0,-3.892061949E0,-1.667721939E1,7.816990614E-1
3.165418125E0,-3.322266579E0,-1.646414375E1,5.494714975E-1
3.167857604E0,-2.769229650E0,-1.613375854E1,3.890668452E-1
3.170297083E0,-2.156340599E0,-1.576746178E1,3.124556839E-1
3.172737396E0,-1.564998031E0,-1.533173561E1,3.435789645E-1
3.175177656E0,-9.856262207E-1,-1.483136940E1,3.435789645E-1
3.177617135E0,-4.565303624E-1,-1.436451912E1,2.358445227E-1
3.180056614E0,-6.439778954E-3,-1.384260654E1,2.478150427E-1
3.182496927E0,4.292861819E-1,-1.333745193E1,2.166917324E-1
3.184937187E0,8.362829685E-1,-1.288257217E1,7.065171748E-2
3.187376719E0,1.171456695E0,-1.238699436E1,3.234612942E-2
3.189816198E0,1.509024739E0,-1.176452827E1,3.234612942E-2
3.192256510E0,1.925597906E0,-1.114445782E1,3.616951406E-3
3.194696771E0,2.267954111E0,-1.057466125E1,-1.735463440E-1
3.197136250E0,2.648615837E0,-1.015090656E1,-5.326611996E-1
3.199575729E0,2.993366003E0,-9.688845634E0,-8.486822248E-1
3.202016042E0,3.359663010E0,-9.133414268E0,-1.114427090E0
3.204456302E0,3.728354216E0,-8.700082779E0,-1.535788417E0
3.206895781E0,4.101833820E0,-8.281115532E0,-1.851809621E0
3.209335260E0,4.453765869E0,-7.890877724E0,-2.170224905E0
3.211775573E0,4.743452072E0,-7.639496803E0,-2.586797953E0
3.214215833E0,5.037926674E0,-7.483880520E0,-3.003371000E0
3.216655312E0,5.102567196E0,-7.304323673E0,-3.271510363E0
3.219094792E0,5.322824001E0,-7.167859554E0,-3.668930531E0
3.221535104E0,5.523928642E0,-7.096036434E0,-3.984951735E0
3.223975364E0,5.725032330E0,-7.079277992E0,-4.243514061E0
3.226414896E0,5.827979088E0,-7.117583752E0,-4.408706665E0
3.228854375E0,5.861496449E0,-7.258835316E0,-4.528411865E0
3.231294635E0,5.930924892E0,-7.476698399E0,-4.643328190E0
3.233734896E0,5.906983852E0,-7.661044121E0,-4.628963947E0
3.236174427E0,5.842343330E0,-7.857359886E0,-4.542776108E0
3.238613906E0,5.689120770E0,-8.151833534E0,-4.425465107E0
3.241054219E0,5.449711323E0,-8.522918701E0,-4.260272980E0
3.243494479E0,5.179177761E0,-8.865275383E0,-4.054380417E0
3.245933958E0,4.815275192E0,-9.147778511E0,-3.688083410E0
3.248373437E0,4.367578506E0,-9.461405754E0,-3.242781162E0
3.250813750E0,3.917488098E0,-9.727150917E0,-2.706502914E0
3.253254010E0,3.448244810E0,-9.990501404E0,-2.242047787E0
3.255693489E0,2.957454443E0,-1.020597076E1,-1.739286780E0
3.258132969E0,2.461875916E0,-1.046453381E1,-1.238920212E0
3.260573281E0,1.959115267E0,-1.071351910E1,-7.696769238E-1
3.263013542E0,1.504236460E0,-1.097208214E1,-3.315568864E-1
3.265453073E0,1.051751852E0,-1.123543262E1,7.543991506E-2
3.267892552E0,7.093957663E-1,-1.151793671E1,3.699140549E-1
3.270332812E0,4.101333916E-1,-1.177649975E1,5.925652385E-1
3.272773073E0,8.932417631E-2,-1.200633240E1,7.002996802E-1
3.275212604E0,-2.721847594E-1,-1.224095440E1,8.415514827E-1
3.277652083E0,-6.241172552E-1,-1.246839333E1,9.492859244E-1
3.280092396E0,-9.545028806E-1,-1.267189217E1,1.021108985E0
3.282532656E0,-1.287282586E0,-1.288736153E1,9.995619655E-1
3.284972135E0,-1.553027630E0,-1.305734253E1,9.804092646E-1
3.287411614E0,-1.813984394E0,-1.317225838E1,1.006744385E0
3.289851927E0,-2.043817759E0,-1.325844669E1,1.013926625E0
3.292292187E0,-2.194646120E0,-1.323450565E1,9.732269049E-1
3.294731667E0,-2.268862963E0,-1.309564781E1,7.362111807E-1
3.297171146E0,-2.323927164E0,-1.294960785E1,5.638360977E-1
3.299611458E0,-2.304774523E0,-1.277483845E1,4.034314156E-1
3.302051719E0,-2.273651361E0,-1.259528160E1,2.813324034E-1
3.304491250E0,-2.189857721E0,-1.239657021E1,1.783861518E-1
3.306930729E0,-2.130005360E0,-1.225292492E1,1.448687762E-1
3.309370989E0,-2.074940920E0,-1.208773232E1,1.065631956E-1
3.311811250E0,-2.048605919E0,-1.195605659E1,1.855684519E-1
3.314250781E0,-2.077335358E0,-1.181001663E1,2.573914230E-1
3.316690260E0,-2.113246679E0,-1.168791771E1,2.837264836E-1
3.319130521E0,-2.110852480E0,-1.155624294E1,2.693619132E-1
3.321570781E0,-2.082123518E0,-1.148681355E1,2.430268228E-1
3.324010312E0,-2.103670359E0,-1.136232090E1,1.424746811E-1
3.326449792E0,-2.098881960E0,-1.122585678E1,2.995203435E-2
3.328890104E0,-2.053394318E0,-1.105587578E1,-1.232702807E-1
3.331330364E0,-1.962418556E0,-1.090983582E1,-3.650742471E-1
3.333769844E0,-1.816378355E0,-1.077816010E1,-6.451838017E-1
3.336209323E0,-1.682308912E0,-1.065127277E1,-9.109287858E-1
3.338649635E0,-1.557815790E0,-1.059142017E1,-1.104850650E0
3.341089896E0,-1.399805307E0,-1.055790234E1,-1.241314292E0
3.343529375E0,-1.215459585E0,-1.050523281E1,-1.392142534E0
3.345968854E0,-1.057449102E0,-1.042862129E1,-1.547758937E0
3.348409167E0,-8.515566587E-1,-1.034003925E1,-1.691404939E0
3.350849427E0,-6.719992757E-1,-1.031370449E1,-1.770410180E0
3.353288958E0,-4.301952422E-1,-1.024667072E1,-1.808715701E0
3.355728437E0,-1.859971881E-1,-1.022751713E1,-1.868568182E0
3.358168698E0,2.468350530E-2,-1.022272968E1,-1.930814862E0
3.360608958E0,2.593051791E-1,-1.019878864E1,-2.115160465E0
3.363048489E0,5.250501633E-1,-1.007429600E1,-2.273171186E0
3.365487969E0,7.764304876E-1,-9.983319283E0,-2.349781990E0
3.367928229E0,1.018234491E0,-9.851643562E0,-2.514975071E0
3.370368542E0,1.336649656E0,-9.645751953E0,-2.644256353E0
3.372808021E0,1.600000501E0,-9.427888870E0,-2.725655556E0
3.375247500E0,1.781952024E0,-9.200448990E0,-2.744808674E0
3.377687812E0,1.971085787E0,-8.980191231E0,-2.816631317E0
3.380128073E0,2.169795990E0,-8.735993385E0,-2.929154158E0
3.382567552E0,2.385264635E0,-8.405608177E0,-2.898030758E0
3.385007031E0,2.591157198E0,-8.094375610E0,-2.869301558E0
3.387447344E0,2.682132959E0,-7.912424564E0,-2.787902355E0
3.389887604E0,2.734803200E0,-7.620344639E0,-2.821419477E0
3.392327083E0,2.832961321E0,-7.352205753E0,-2.864513397E0
3.394766562E0,2.859296560E0,-7.172647953E0,-2.933942318E0
3.397206875E0,2.899996042E0,-7.088854313E0,-2.900424719E0
3.399647135E0,2.892813683E0,-7.036183834E0,-2.802266836E0
3.402086614E0,2.885631561E0,-7.017031670E0,-2.797478676E0
3.404526094E0,2.806626320E0,-7.029002190E0,-2.728049755E0
3.406966406E0,2.662980318E0,-7.029002190E0,-2.639467955E0
3.409406667E0,2.473846436E0,-7.043366432E0,-2.510186911E0
3.411846198E0,2.279924393E0,-7.069701672E0,-2.380905628E0
3.414285677E0,2.052485228E0,-7.124765873E0,-2.234865665E0
3.416725937E0,1.810681105E0,-7.187012672E0,-2.062490225E0
3.419166198E0,1.566483140E0,-7.230105877E0,-1.899691463E0
3.421605729E0,1.319890857E0,-7.270805836E0,-1.727316499E0
3.424045208E0,1.085269213E0,-7.366569996E0,-1.595640898E0
3.426485521E0,8.674062490E-1,-7.428816319E0,-1.456783175E0
3.428925781E0,6.950311065E-1,-7.402481556E0,-1.396930814E0
3.431365260E0,5.130796432E-1,-7.452757359E0,-1.351442933E0
3.433804739E0,3.574632108E-1,-7.452757359E0,-1.303560972E0
3.436245052E0,2.377582937E-1,-7.426422596E0,-1.392142534E0
3.438685312E0,1.372061521E-1,-7.421634197E0,-1.490300536E0
3.441124792E0,7.495957613E-2,-7.380934715E0,-1.566911817E0
3.443564271E0,1.510711014E-2,-7.316294193E0,-1.552547216E0
3.446004583E0,-5.671584979E-2,-7.234894753E0,-1.571699977E0
3.448444844E0,-5.432174727E-2,-7.196588993E0,-1.590852857E0
3.450884323E0,-2.080437168E-2,-7.127160072E0,-1.633946538E0
3.453323802E0,5.580678582E-2,-7.017031670E0,-1.677040339E0
3.455764114E0,1.084769666E-1,-6.906903267E0,-1.715345979E0
3.458204375E0,2.162114084E-1,-6.799168587E0,-1.815898061E0
3.460643906E0,3.909806311E-1,-6.643551826E0,-1.887720942E0
3.463083385E0,5.609616041E-1,-6.519059181E0,-1.937996984E0
3.465523646E0,7.429131269E-1,-6.416112423E0,-2.017002583E0
3.467963906E0,9.272587299E-1,-6.320348740E0,-2.153465986E0
3.470403437E0,1.113998413E0,-6.195855618E0,-2.189377546E0
3.472842917E0,1.353408217E0,-6.097697735E0,-2.258806229E0
3.475283229E0,1.561694860E0,-6.001933575E0,-2.328235388E0
3.477723489E0,1.743646383E0,-5.982780933E0,-2.438363791E0
3.480162969E0,1.872927785E0,-5.963627815E0,-2.476669312E0
3.482602448E0,2.026149988E0,-5.872652054E0,-2.467092991E0
3.485042760E0,2.184160471E0,-5.843923092E0,-2.428787470E0
3.487483021E0,2.284712791E0,-5.822376251E0,-2.455122471E0
3.489922500E0,2.397235155E0,-5.827164650E0,-2.433575630E0
3.492361979E0,2.538487196E0,-5.858287334E0,-2.414422750E0
3.494802292E0,2.670162439E0,-5.858287334E0,-2.426393270E0
3.497242552E0,2.789867401E0,-5.887017250E0,-2.414422750E0
3.499682031E0,2.892813683E0,-5.903775692E0,-2.419211149E0
3.502121510E0,2.955060244E0,-5.884622574E0,-2.402452230E0
3.504561823E0,3.017307043E0,-5.891805172E0,-2.356964588E0
3.507002083E0,3.017307043E0,-5.934898853E0,-2.316264868E0
3.509441562E0,3.048430204E0,-5.992357254E0,-2.297111988E0
3.511881042E0,3.086735725E0,-5.954051495E0,-2.222895145E0
3.514321354E0,3.086735725E0,-5.891805172E0,-2.189377546E0
3.516761614E0,3.237564087E0,-5.843923092E0,-2.110372305E0
3.519201146E0,3.139405966E0,-5.927716732E0,-2.170224905E0
3.521640625E0,3.053218603E0,-5.934898853E0,-2.179800987E0
3.524080885E0,2.943089962E0,-5.970810413E0,-2.153465986E0
3.526521146E0,2.909572601E0,-5.918139935E0,-2.131919384E0
3.528960677E0,2.830567360E0,-5.901381493E0,-2.081643105E0
3.531400156E0,2.672556639E0,-5.887017250E0,-1.995455384E0
3.533840469E0,2.586369276E0,-5.851105690E0,-1.928420663E0
3.536280729E0,2.445117235E0,-5.863076210E0,-1.923632503E0
3.538720208E0,2.306259394E0,-5.858287334E0,-1.945179343E0
3.541159687E0,2.126702309E0,-5.870257854E0,-1.964332223E0
3.543600000E0,1.978268147E0,-5.884622574E0,-1.964332223E0
3.546040260E0,1.827439904E0,-5.910957813E0,-2.005032063E0
3.548479739E0,1.760405064E0,-5.906169415E0,-2.096007824E0
3.550919219E0,1.655064702E0,-5.937293053E0,-2.141495466E0
3.553359531E0,1.509024739E0,-5.942080975E0,-2.146283865E0
3.555799792E0,1.346225977E0,-5.987568855E0,-2.203742027E0
3.558239271E0,1.269614816E0,-6.047421455E0,-2.270776749E0
3.560678750E0,1.171456695E0,-6.100091457E0,-2.349781990E0
3.563119062E0,1.113998413E0,-6.136003017E0,-2.445546150E0
3.565559323E0,1.044569612E0,-6.193461418E0,-2.522157431E0
3.567998802E0,9.416233301E-1,-6.294013500E0,-2.622709274E0
3.570438281E0,7.955833077E-1,-6.404141903E0,-2.771143675E0
3.572878594E0,7.022134066E-1,-6.463994503E0,-2.893242598E0
3.575318854E0,5.872966647E-1,-6.531029701E0,-2.993794918E0
3.577758385E0,5.489911437E-1,-6.590881824E0,-3.084770679E0
3.580197864E0,4.747740626E-1,-6.677069664E0,-3.178140402E0
3.582638125E0,4.077393115E-1,-6.796774387E0,-3.242781162E0
3.585078385E0,3.407045305E-1,-6.890143871E0,-3.381638765E0
3.587517917E0,3.191576600E-1,-6.997878551E0,-3.551619768E0
3.589957396E0,2.880343795E-1,-7.110401630E0,-3.712024212E0
3.592397708E0,2.233936936E-1,-7.232500553E0,-3.824547052E0
3.594837969E0,1.850881279E-1,-7.345023155E0,-3.927493334E0
3.597277448E0,1.372061521E-1,-7.440786839E0,-4.018468857E0
3.599716927E0,7.974778116E-2,-7.574856758E0,-4.181267262E0
3.602157239E0,9.411236644E-2,-7.670620441E0,-4.303366184E0
3.604597500E0,8.214187622E-2,-7.775960445E0,-4.432647705E0
3.607036979E0,7.974778116E-2,-7.919606686E0,-4.542776108E0
3.609476458E0,4.862449318E-2,-8.053675652E0,-4.633752346E0
3.611916771E0,4.383629560E-2,-8.209292412E0,-4.731910229E0
3.614357031E0,3.136616200E-3,-8.422367096E0,-4.825279713E0
3.616796510E0,-2.319847047E-2,-8.594742775E0,-4.949773312E0
3.619235989E0,-3.995715454E-2,-8.776693344E0,-5.102995396E0
3.621676302E0,-1.651577652E-3,-8.915551186E0,-5.268188477E0
3.624116562E0,-1.841026917E-2,-9.063985825E0,-5.452533722E0
3.626556042E0,5.530716851E-3,-9.207631111E0,-5.648849964E0
3.628995521E0,-2.319847047E-2,-9.372824669E0,-5.778131485E0
3.631435833E0,-2.559256554E-2,-9.516470909E0,-5.931354046E0
3.633876094E0,-8.783912659E-2,-9.655327797E0,-6.067817211E0
3.636315573E0,-1.309329122E-1,-9.803761482E0,-6.173157692E0
3.638755052E0,-1.237506121E-1,-9.992895126E0,-6.345532894E0
3.641195364E0,-1.189624220E-1,-1.012457180E1,-6.496360779E0
3.643635625E0,-1.357211173E-1,-1.030652237E1,-6.663948059E0
3.646075156E0,-1.117801368E-1,-1.049805069E1,-6.845899105E0
3.648514635E0,-5.671584979E-2,-1.072309589E1,-7.082915306E0
3.650954948E0,-6.439778954E-3,-1.097687054E1,-7.363024712E0
3.653395208E0,3.904809803E-2,-1.122346210E1,-7.554553032E0
3.655834687E0,1.419943422E-1,-1.148441982E1,-7.798750877E0
3.658274167E0,2.712756693E-1,-1.173579979E1,-7.980702400E0
3.660714479E0,3.861924112E-1,-1.200393867E1,-8.131530762E0
3.663154739E0,5.370206237E-1,-1.222658920E1,-8.265600204E0
3.665594219E0,7.165780663E-1,-1.240135956E1,-8.409245491E0
3.668033698E0,8.075538278E-1,-1.258091640E1,-8.531344414E0
3.670474010E0,9.105000496E-1,-1.273413849E1,-8.598380089E0
3.672914271E0,9.775348306E-1,-1.283229637E1,-8.742025375E0
3.675353750E0,1.013446331E0,-1.294481945E1,-8.885671616E0
3.677793229E0,1.013446331E0,-1.306691837E1,-9.053258896E0
3.680233542E0,9.416233301E-1,-1.318662357E1,-9.170568466E0
3.682673802E0,9.081059098E-1,-1.326802254E1,-9.299850464E0
3.685113281E0,8.578298688E-1,-1.334463310E1,-9.469831467E0
3.687552760E0,8.482534885E-1,-1.335421085E1,-9.646994591E0
3.689993073E0,8.769826889E-1,-1.333505726E1,-9.752334595E0
3.692433333E0,9.392292500E-1,-1.326084042E1,-9.900770187E0
3.694872812E0,1.051751852E0,-1.312437630E1,-1.005159760E1
3.697312292E0,1.152304053E0,-1.296876049E1,-1.009229660E1
3.699752604E0,1.279191256E0,-1.273892689E1,-9.927104950E0
3.702192864E0,1.439595819E0,-1.242290592E1,-9.697270393E0
3.704632396E0,1.611971021E0,-1.206618595E1,-9.304638863E0
3.707071875E0,1.791528344E0,-1.163524723E1,-8.753995895E0
3.709512135E0,1.939962506E0,-1.124740314E1,-8.296722412E0
3.711952396E0,2.145854950E0,-1.068479061E1,-7.825085640E0
3.714391927E0,2.244013071E0,-1.019878864E1,-7.430059433E0
3.716831406E0,2.325412512E0,-9.660115242E0,-7.121221066E0
3.719271667E0,2.294289112E0,-9.176507950E0,-6.862658501E0
3.721711979E0,2.253589392E0,-8.709658623E0,-6.656765938E0
3.724151458E0,2.088396549E0,-8.254779816E0,-6.479602337E0
3.726590937E0,1.803498864E0,-7.881300926E0,-6.242586136E0
3.729031250E0,1.482689619E0,-7.577250481E0,-5.964870930E0
3.731471510E0,1.159486294E0,-7.328264713E0,-5.603362560E0
3.733910989E0,8.817708492E-1,-7.143918514E0,-5.249035358E0
3.736350469E0,6.710901856E-1,-7.064913750E0,-4.916255951E0
3.738790781E0,4.963209629E-1,-7.119977474E0,-4.581081867E0
3.741231042E0,2.808520794E-1,-7.299535275E0,-4.238725662E0
3.743670521E0,4.623039439E-2,-7.582038403E0,-3.846093893E0
3.746110000E0,-1.309329122E-1,-7.835813046E0,-3.465432405E0
3.748550312E0,-2.027558833E-1,-8.072829247E0,-3.166169882E0
3.750990573E0,-2.123322636E-1,-8.321814537E0,-2.969853878E0
3.753430052E0,-1.524797976E-1,-8.558830261E0,-2.869301558E0
3.755869531E0,-8.783912659E-2,-8.860486984E0,-2.730443716E0
3.758309844E0,-6.439778954E-3,-9.286636353E0,-2.613132954E0
3.760750104E0,1.036887616E-1,-9.698421478E0,-2.555674553E0
3.763189583E0,1.802999228E-1,-1.013893509E1,-2.514975071E0
3.765629062E0,2.952166796E-1,-1.064887810E1,-2.510186911E0
3.768069375E0,3.957688212E-1,-1.118515682E1,-2.629891872E0
3.770509635E0,4.819563627E-1,-1.168552399E1,-2.799872875E0
3.772949167E0,5.872966647E-1,-1.218828487E1,-2.969853878E0
3.775388646E0,6.998193860E-1,-1.266710377E1,-3.187716722E0
3.777828906E0,8.362829685E-1,-1.309325314E1,-3.333756924E0
3.780269167E0,1.046963692E0,-1.347630978E1,-3.565984249E0
3.782708698E0,1.293555856E0,-1.384739494E1,-3.709630251E0
3.785148177E0,1.576059461E0,-1.417059803E1,-3.798211813E0
3.787588437E0,1.860957265E0,-1.451056099E1,-3.810182333E0
3.790028698E0,2.109943390E0,-1.481461048E1,-3.719206572E0
3.792468229E0,2.272742271E0,-1.515936089E1,-3.518102407E0
3.794907708E0,2.440329313E0,-1.558551025E1,-3.319391966E0
3.797347969E0,2.514546156E0,-1.594701958E1,-3.273904324E0
3.799788229E0,2.507364035E0,-1.629895210E1,-3.237992764E0
3.802227760E0,2.409205675E0,-1.661018372E1,-3.194899082E0
3.804667239E0,2.244013071E0,-1.681847191E1,-3.209263563E0
3.807107500E0,2.038120508E0,-1.693578339E1,-3.235598803E0
3.809547812E0,1.789134264E0,-1.700042343E1,-3.235598803E0
3.811987292E0,1.631123781E0,-1.693338776E1,-3.209263563E0
3.814426771E0,1.580847740E0,-1.677777100E1,-3.223628283E0
3.816867083E0,1.623941541E0,-1.656709099E1,-3.178140402E0
3.819307344E0,1.767587423E0,-1.629176903E1,-3.151805401E0
3.821746823E0,2.023756027E0,-1.597335434E1,-3.099135160E0
3.824186302E0,2.330200434E0,-1.571479130E1,-3.048859119E0
3.826626614E0,2.670162439E0,-1.536285973E1,-2.905213118E0
3.829066875E0,3.046036243E0,-1.493670940E1,-2.771143675E0
3.831506354E0,3.472185850E0,-1.441479683E1,-2.610738993E0
3.833945833E0,3.838482857E0,-1.378514862E1,-2.459910870E0
3.836386146E0,4.135351181E0,-1.292327213E1,-2.170224905E0
3.838826406E0,4.302937984E0,-1.197042179E1,-1.866174102E0
3.841265885E0,4.360396385E0,-1.091222954E1,-1.564517736E0
3.843705364E0,4.377154827E0,-9.801367760E0,-1.308349133E0
3.846145677E0,4.317302704E0,-8.630653381E0,-1.167097330E0
3.848585937E0,4.228721142E0,-7.526974678E0,-1.088092089E0
3.851025417E0,4.161686420E0,-6.463994503E0,-1.013875008E0
3.853464896E0,4.118592262E0,-5.503961086E0,-1.092880249E0
3.855905208E0,4.025222778E0,-4.668420315E0,-1.183855891E0
3.858345469E0,3.917488098E0,-3.921461821E0,-1.222161531E0
3.860784948E0,3.757083416E0,-3.272660971E0,-1.255678892E0
3.863224427E0,3.486550331E0,-2.757929802E0,-1.042604208E0
3.865664739E0,3.148982286E0,-2.348538876E0,-7.672829032E-1
3.868105000E0,2.684527159E0,-2.075611591E0,-4.297149181E-1
3.870544531E0,2.222466230E0,-1.908024788E0,-1.792994142E-2
3.872984010E0,1.765193224E0,-1.824231267E0,3.890668452E-1
3.875424271E0,1.298344016E0,-1.852960467E0,9.277390242E-1
3.877864531E0,7.955833077E-1,-1.922389269E0,1.370647430E0
3.880304062E0,3.215517402E-1,-2.092370272E0,1.693850636E0
3.882743542E0,-9.262734652E-2,-2.298262835E0,2.012265682E0
3.885183802E0,-4.685008526E-1,-2.511337519E0,2.309134007E0
3.887624114E0,-7.486103773E-1,-2.779476881E0,2.673036814E0
3.890063594E0,-8.754976392E-1,-3.030857086E0,3.089610100E0
3.892503073E0,-8.802857995E-1,-3.394760132E0,3.515759706E0
3.894943333E0,-8.802857995E-1,-3.768239498E0,3.810233831E0
3.897383594E0,-8.228274584E-1,-4.156083584E0,3.973032713E0
3.899823125E0,-6.456641555E-1,-4.625327110E0,3.956274033E0
3.902262604E0,-3.727368712E-1,-5.080205441E0,3.793475151E0
3.904702917E0,-9.023323655E-2,-5.568601608E0,3.530124426E0
3.907143177E0,1.324179471E-1,-6.078544617E0,3.163827181E0
3.909582656E0,2.976107597E-1,-6.569334984E0,2.749648094E0
3.912022135E0,3.335222602E-1,-7.036183834E0,2.433627129E0
3.914462448E0,2.880343795E-1,-7.462334156E0,2.129576445E0
3.916902708E0,1.826940328E-1,-7.876513004E0,1.691456676E0
3.919342187E0,-6.150404736E-2,-8.305055618E0,1.191089869E0
3.921781667E0,-3.511900008E-1,-8.712052345E0,6.572059393E-1
3.924221979E0,-7.342458367E-1,-9.171719551E0,1.927507520E-1
3.926662239E0,-1.134060264E0,-9.688845634E0,-2.645221055E-1
3.929101719E0,-1.598515511E0,-1.016766453E1,-6.930658221E-1
3.931541198E0,-1.986359596E0,-1.069436646E1,-1.262861252E0
3.933981510E0,-2.307168722E0,-1.111812210E1,-1.880538702E0
3.936421771E0,-2.560943365E0,-1.153708935E1,-2.536521912E0
3.938861250E0,-2.692618608E0,-1.197281551E1,-3.202081203E0
3.941300729E0,-2.817111731E0,-1.228644276E1,-3.733571291E0
3.943741042E0,-2.864993811E0,-1.260485744E1,-4.253090382E0
3.946181302E0,-2.912875652E0,-1.281553841E1,-4.693604946E0
3.948620781E0,-2.984698534E0,-1.294242573E1,-4.971319675E0
3.951060260E0,-3.051733494E0,-1.298312569E1,-5.079054356E0
3.953500573E0,-3.063704014E0,-1.296876049E1,-5.184394836E0
3.955940833E0,-3.104403496E0,-1.286102581E1,-5.134119034E0
3.958380312E0,-3.121162176E0,-1.271259117E1,-4.997655392E0
3.960819792E0,-3.070886374E0,-1.251388168E1,-4.875556469E0
3.963260104E0,-3.006245613E0,-1.229841232E1,-4.724727631E0
3.965700364E0,-2.967940092E0,-1.208533764E1,-4.425465107E0
3.968139844E0,-2.955969572E0,-1.187465763E1,-3.987345934E0
3.970579323E0,-2.932028532E0,-1.163524723E1,-3.400791645E0
3.973019635E0,-2.817111731E0,-1.136471462E1,-2.886060238E0
3.975459896E0,-2.596854448E0,-1.111333370E1,-2.469486952E0
3.977899427E0,-2.386173964E0,-1.084758854E1,-2.163042545E0
3.980338906E0,-2.151552200E0,-1.056747913E1,-1.952361703E0
3.982779167E0,-1.962418556E0,-1.027779388E1,-1.765621901E0
3.985219427E0,-1.842713475E0,-9.983319283E0,-1.473541975E0
3.987658958E0,-1.773284674E0,-9.645751953E0,-1.224555731E0
3.990098437E0,-1.706249833E0,-9.327336311E0,-1.083303809E0
3.992538698E0,-1.672732472E0,-9.018497467E0,-1.006692648E0
3.994978958E0,-1.682308912E0,-8.724023819E0,-8.821995854E-1
3.997418489E0,-1.639215112E0,-8.477431297E0,-7.912238240E-1
3.999857969E0,-1.665550232E0,-8.218868256E0,-7.074303627E-1
4.002298281E0,-1.711038113E0,-7.974670887E0,-5.374493599E-1
4.004738542E0,-1.799619794E0,-7.730473042E0,-3.411332965E-1
4.007178021E0,-1.919324636E0,-7.548521519E0,-1.831227541E-1
4.009617500E0,-2.048605919E0,-7.361781597E0,1.079925150E-2
4.012057812E0,-2.175493240E0,-7.182224274E0,2.597855031E-1
4.014498073E0,-2.201828241E0,-7.050549030E0,4.656779766E-1
4.016937552E0,-2.187463760E0,-7.014637470E0,6.117179990E-1
4.019377031E0,-2.165916681E0,-6.997878551E0,6.787527800E-1
4.021817344E0,-2.130005360E0,-6.990696430E0,7.864872217E-1
4.024257604E0,-2.046211958E0,-6.940420628E0,8.702806830E-1
4.026697083E0,-1.924112916E0,-6.878173351E0,9.133744836E-1
4.029136562E0,-1.825954914E0,-6.873385429E0,8.822512031E-1
4.031576875E0,-1.687097073E0,-6.878173351E0,8.990098834E-1
4.034017135E0,-1.605697751E0,-6.866202831E0,8.630983829E-1
4.036456614E0,-1.550633550E0,-6.878173351E0,8.032459021E-1
4.038896094E0,-1.519510150E0,-6.859021187E0,8.104282618E-1
4.041336406E0,-1.442898989E0,-6.875779629E0,8.223987222E-1
4.043776667E0,-1.354317427E0,-6.959573269E0,7.218465805E-1
4.046216146E0,-1.289676785E0,-7.002666950E0,6.428412795E-1
4.048655625E0,-1.256159425E0,-7.112795353E0,6.117179990E-1
4.051095937E0,-1.280100226E0,-7.249258995E0,6.069298387E-1
4.053536198E0,-1.237006545E0,-7.409663677E0,4.776484966E-1
4.055975677E0,-1.189124465E0,-7.531762600E0,2.454209328E-1
4.058415156E0,-1.100542903E0,-7.617949963E0,-6.341781467E-2
4.060855469E0,-1.021537662E0,-7.771172523E0,-3.602860868E-1
4.063295729E0,-8.970444798E-1,-7.922000885E0,-7.505241632E-1
4.065735208E0,-7.845218778E-1,-8.091981888E0,-1.097668409E0
4.068174687E0,-7.797337174E-1,-8.238021851E0,-1.401718974E0
4.070615000E0,-7.318516970E-1,-8.431943893E0,-1.600429177E0
4.073055260E0,-7.103047967E-1,-8.625865936E0,-1.739286780E0
4.075494739E0,-6.839697361E-1,-8.817393303E0,-1.839839101E0
4.077934219E0,-6.217231154E-1,-8.903580666E0,-1.837444901E0
4.080374531E0,-5.762352347E-1,-9.035256386E0,-1.760833859E0
4.082814792E0,-5.427178741E-1,-9.145384789E0,-1.653099298E0
4.085254271E0,-5.187769532E-1,-9.217207909E0,-1.511847496E0
4.087693750E0,-4.900477529E-1,-9.236360550E0,-1.384960294E0
4.090134062E0,-4.397716522E-1,-9.255513191E0,-1.255678892E0
4.092574323E0,-4.086483717E-1,-9.250725746E0,-1.131185770E0
4.095013854E0,-3.535841107E-1,-9.171719551E0,-9.731753469E-1
4.097453333E0,-2.673965394E-1,-9.075955391E0,-7.864356637E-1
4.099893594E0,-1.931794882E-1,-8.961039543E0,-5.733608603E-1
4.102333854E0,-1.668443978E-1,-8.831757545E0,-3.818329573E-1
4.104773333E0,-1.692385077E-1,-8.697688103E0,-9.932930022E-2
4.107212812E0,-7.826274633E-2,-8.518131256E0,1.352923810E-1
4.109653125E0,-2.319847047E-2,-8.348150253E0,4.369488060E-1
4.112093385E0,4.144219682E-2,-8.180562973E0,7.362111807E-1
4.114532917E0,1.036887616E-1,-8.044099808E0,1.078567386E0
4.116972396E0,1.731176227E-1,-7.941153526E0,1.353888631E0
4.119412656E0,2.401523888E-1,-7.890877724E0,1.629209995E0
4.121852917E0,3.071871400E-1,-7.831025124E0,1.914107800E0
4.124292448E0,3.837983012E-1,-7.821448326E0,2.141546965E0
4.126731927E0,4.268921018E-1,-7.792719364E0,2.376168728E0
4.129172187E0,5.058973432E-1,-7.795113564E0,2.625154972E0
4.131612448E0,5.729321241E-1,-7.854966164E0,2.845412254E0
4.134051979E0,6.758783460E-1,-7.950729847E0,2.943570137E0
4.136491458E0,7.644599676E-1,-8.051281929E0,3.036939859E0
4.138931771E0,8.338888884E-1,-8.147046089E0,2.960328817E0
4.141372031E0,8.745885491E-1,-8.343361855E0,2.811894655E0
4.143811510E0,9.081059098E-1,-8.458278656E0,2.646701813E0
4.146250989E0,9.320469499E-1,-8.613894463E0,2.471932650E0
4.148691302E0,8.841649294E-1,-8.752752304E0,2.242099285E0
4.151131562E0,8.434652686E-1,-8.879639626E0,1.945231080E0
4.153571042E0,7.860069275E-1,-9.035256386E0,1.590904474E0
4.156010521E0,6.902429461E-1,-9.102290154E0,1.231789708E0
4.158450833E0,5.370206237E-1,-9.169325829E0,8.750688434E-1
4.160891094E0,3.790101111E-1,-9.286636353E0,4.513134062E-1
4.163330573E0,1.587530375E-1,-9.368035316E0,5.868121982E-2
4.165770052E0,-3.756306693E-2,-9.423100471E0,-3.243745863E-1
4.168210364E0,-2.410614789E-1,-9.444647789E0,-7.624946237E-1
4.170650625E0,-4.613185227E-1,-9.454223633E0,-1.191038370E0
4.173090104E0,-7.581868172E-1,-9.502105713E0,-1.490300536E0
4.175529583E0,-9.928084612E-1,-9.530834198E0,-1.768016100E0
4.177969896E0,-1.179548144E0,-9.506893158E0,-1.937996984E0
4.180410156E0,-1.356711507E0,-9.502105713E0,-2.026578903E0
4.182849635E0,-1.517116189E0,-9.490134239E0,-2.062490225E0
4.185289114E0,-1.636821032E0,-9.533228874E0,-1.959544063E0
4.187729427E0,-1.746949673E0,-9.490134239E0,-1.801533461E0
4.190169687E0,-1.768496513E0,-9.447041512E0,-1.677040339E0
4.192609167E0,-1.756525993E0,-9.425494194E0,-1.456783175E0
4.195048646E0,-1.763708234E0,-9.411129951E0,-1.234132051E0
4.197488958E0,-1.754131913E0,-9.432676315E0,-9.181110263E-1
4.199929219E0,-1.682308912E0,-9.506893158E0,-6.619424820E-1
4.202368698E0,-1.608091831E0,-9.619416237E0,-3.411332965E-1
4.204808177E0,-1.564998031E0,-9.755879402E0,-1.208761856E-1
4.207248489E0,-1.476416349E0,-9.904314995E0,6.107531860E-2
4.209688750E0,-1.418957949E0,-1.009105396E1,1.376864761E-1
4.212128229E0,-1.359105587E0,-1.029215813E1,1.688097715E-1
4.214567708E0,-1.294464827E0,-1.052917385E1,1.233218908E-1
4.217008021E0,-1.268129826E0,-1.073746014E1,3.952843323E-2
4.219448281E0,-1.253765225E0,-1.097447681E1,-7.060011476E-2
4.221887760E0,-1.251371145E0,-1.123303890E1,-2.357929349E-1
4.224327239E0,-1.277706265E0,-1.145808411E1,-4.177444577E-1
4.226767552E0,-1.351923227E0,-1.163764191E1,-6.284251213E-1
4.229207812E0,-1.450081348E0,-1.185550499E1,-8.582586050E-1
4.231647292E0,-1.610486031E0,-1.204224491E1,-1.138368130E0
4.234086771E0,-1.782860994E0,-1.217870712E1,-1.461571455E0
4.236527083E0,-2.029453278E0,-1.231038380E1,-1.844627142E0
4.238967344E0,-2.285621643E0,-1.240614796E1,-2.182195425E0
4.241406823E0,-2.548972845E0,-1.245881748E1,-2.526945591E0
4.243846302E0,-2.795564651E0,-1.254739952E1,-2.835784435E0
4.246286614E0,-3.066097975E0,-1.259528160E1,-3.024918079E0
4.248726875E0,-3.329448700E0,-1.260964584E1,-3.168564081E0
4.251166354E0,-3.540129423E0,-1.262161636E1,-3.127864361E0
4.253605833E0,-3.698139906E0,-1.260007000E1,-3.020129919E0
4.256046146E0,-3.801086187E0,-1.259528160E1,-2.811843395E0
4.258486406E0,-3.896850348E0,-1.257612896E1,-2.538916111E0
4.260925885E0,-3.959096670E0,-1.252585220E1,-2.160648346E0
4.263365364E0,-3.978249550E0,-1.244205856E1,-1.760833859E0
4.265805677E0,-3.987825871E0,-1.237023544E1,-1.346654654E0
4.268245937E0,-3.983037949E0,-1.231995964E1,-9.324757457E-1
4.270685469E0,-3.959096670E0,-1.227925968E1,-5.853313208E-1
4.273124948E0,-3.920791149E0,-1.226968384E1,-2.238224447E-1
4.275565208E0,-3.851362228E0,-1.232474804E1,3.234612942E-2
4.278005469E0,-3.772356987E0,-1.235826588E1,2.142976373E-1
4.280444948E0,-3.695745945E0,-1.246599960E1,3.411848843E-1
4.282884427E0,-3.535341263E0,-1.249712276E1,3.459730744E-1
4.285324739E0,-3.384512901E0,-1.258570480E1,2.621796131E-1
4.287765000E0,-3.274384499E0,-1.277723217E1,1.281100810E-1
4.290204479E0,-3.157073736E0,-1.294481945E1,-7.060011476E-2
4.292643958E0,-3.106797695E0,-1.313155937E1,-3.411332965E-1
4.295084271E0,-3.049339294E0,-1.333266354E1,-6.308192015E-1
4.297524531E0,-3.066097975E0,-1.349785614E1,-9.324757457E-1
4.299964062E0,-3.104403496E0,-1.367980766E1,-1.238920212E0
4.302403542E0,-3.068491936E0,-1.377317715E1,-1.581276298E0
4.304843802E0,-3.046945333E0,-1.391921711E1,-1.971514344E0
4.307284062E0,-2.996669054E0,-1.399822235E1,-2.323446989E0
4.309723594E0,-2.934422493E0,-1.411313915E1,-2.689744234E0
4.312163073E0,-2.862599611E0,-1.414426231E1,-2.972247839E0
4.314603333E0,-2.790776491E0,-1.411313915E1,-3.147017002E0
4.317043594E0,-2.706983328E0,-1.411313915E1,-3.233204603E0
4.319483125E0,-2.697406769E0,-1.406765175E1,-3.163775921E0
4.321922604E0,-2.706983328E0,-1.412032127E1,-3.020129919E0
4.324362864E0,-2.726135969E0,-1.414905167E1,-2.826207876E0
4.326803125E0,-2.762047529E0,-1.428790855E1,-2.596374273E0
4.329242656E0,-2.738106489E0,-1.447225475E1,-2.423999310E0
4.331682135E0,-2.687830210E0,-1.468293571E1,-2.265988827E0
4.334122396E0,-2.560943365E0,-1.485291672E1,-2.172618866E0
4.336562656E0,-2.422085524E0,-1.494389153E1,-2.100795746E0
4.339002187E0,-2.347868204E0,-1.497022629E1,-2.021790504E0
4.341441667E0,-2.347868204E0,-1.489600945E1,-1.976302743E0
4.343881927E0,-2.532213926E0,-1.485770416E1,-1.930814862E0
4.346322187E0,-2.908087492E0,-1.485531044E1,-1.803927541E0
4.348761719E0,-3.396483421E0,-1.488643360E1,-1.394536734E0
4.351201198E0,-4.016555309E0,-1.496783257E1,-9.731753469E-1
4.353641458E0,-4.722814560E0,-1.508514309E1,-6.739130020E-1
4.356081719E0,-5.412314415E0,-1.514020729E1,-3.746506572E-1
4.358521250E0,-6.080268383E0,-1.510429668E1,2.995203435E-2
4.360960729E0,-6.683580875E0,-1.498219776E1,4.154019356E-1
4.363400989E0,-7.148036480E0,-1.477151680E1,7.936695814E-1
4.365841250E0,-7.538274288E0,-1.455365372E1,1.147996187E0
4.368280781E0,-7.844718933E0,-1.421369171E1,1.590904474E0
4.370720260E0,-7.976394176E0,-1.384739494E1,2.194217205E0
4.373160521E0,-8.031458855E0,-1.361995602E1,2.596426010E0
4.375600781E0,-8.038640976E0,-1.341645622E1,2.922023296E0
4.378040312E0,-7.921329975E0,-1.325605297E1,3.187768221E0
4.380479792E0,-7.708255291E0,-1.310282993E1,3.532518387E0
4.382920052E0,-7.385052204E0,-1.303340149E1,3.798263550E0
4.385360312E0,-6.944538116E0,-1.294003201E1,3.987397194E0
4.387799844E0,-6.223914146E0,-1.282272053E1,4.186107635E0
4.390239323E0,-5.381191730E0,-1.263837433E1,4.327359676E0
4.392679583E0,-4.447493076E0,-1.237981224E1,4.327359676E0
4.395119844E0,-3.420424461E0,-1.204703236E1,4.212442875E0
4.397559375E0,-2.431661844E0,-1.165200615E1,3.985003233E0
4.399998854E0,-1.445293188E0,-1.123782730E1,3.673770189E0
4.402439167E0,-3.607664108E-1,-1.088589478E1,3.534912348E0
4.404879427E0,6.016613245E-1,-1.049326229E1,3.544488907E0
4.407318906E0,1.554512620E0,-1.008865929E1,3.453513145E0
4.409758385E0,2.394841194E0,-9.662510872E0,3.352960825E0
4.412198646E0,3.024489164E0,-9.353672028E0,3.187768221E0
4.414638906E0,3.642166853E0,-9.092714310E0,3.242832422E0
4.417078437E0,4.156898022E0,-8.994556427E0,3.266773462E0
4.419517917E0,4.496860027E0,-8.963433266E0,3.276350021E0
4.421958177E0,4.827245712E0,-8.980191231E0,3.329020023E0
4.424398489E0,5.066655636E0,-9.092714310E0,3.161433220E0
4.426837969E0,5.217483521E0,-9.238754272E0,2.941175938E0
4.429277448E0,5.389859200E0,-9.377612114E0,2.617972612E0
4.431717708E0,5.547869682E0,-9.684056282E0,1.916501880E0
4.434157969E0,5.722638607E0,-9.949801445E0,1.361070991E0
4.436597500E0,5.837555408E0,-1.037834549E1,6.021416187E-1
4.439036979E0,6.017112732E0,-1.089307690E1,-2.860690057E-1
4.441477239E0,6.117664814E0,-1.142456627E1,-1.066545248E0
4.443917552E0,6.206246376E0,-1.212364388E1,-1.990667224E0
4.446357031E0,6.103300095E0,-1.286581421E1,-2.785508156E0
4.448796510E0,5.935713291E0,-1.361277294E1,-3.412762165E0
4.451236823E0,5.729821205E0,-1.436212540E1,-4.085503578E0
4.453677083E0,5.492805004E0,-1.505162621E1,-4.490106106E0
4.456116562E0,5.294095039E0,-1.569324493E1,-4.729516506E0
4.458556042E0,5.045108318E0,-1.633007622E1,-4.863585949E0
4.460996302E0,4.930191994E0,-1.695972443E1,-4.906679153E0
4.463436562E0,4.860763073E0,-1.734996223E1,-4.849220753E0
4.465876094E0,4.669235229E0,-1.777611160E1,-4.684028149E0
4.468315573E0,4.504042625E0,-1.812086105E1,-4.435041904E0
4.470755833E0,4.278996944E0,-1.837463570E1,-4.090291977E0
4.473196094E0,4.030010700E0,-1.853743362E1,-3.712024212E0
4.475635625E0,3.742718697E0,-1.865474510E1,-3.151805401E0
4.478075104E0,3.433880091E0,-1.865953445E1,-2.498216391E0
4.480515417E0,3.007730484E0,-1.851109886E1,-1.660281539E0
4.482955677E0,2.610310316E0,-1.828126526E1,-7.529182434E-1
4.485395156E0,2.193737030E0,-1.808016205E1,3.713432699E-2
4.487834635E0,1.789134264E0,-1.784553909E1,8.654924631E-1
4.490274948E0,1.327073216E0,-1.752472878E1,1.686668396E0
4.492715208E0,7.405190468E-1,-1.720392227E1,2.313922167E0
4.495154687E0,1.510711014E-2,-1.702436447E1,2.785559654E0
4.497594167E0,-8.036746979E-1,-1.691423607E1,3.048910379E0
4.500034479E0,-1.454869509E0,-1.686156464E1,3.132704020E0
4.502474739E0,-1.993541718E0,-1.670116043E1,3.065669298E0
4.504914219E0,-2.498696566E0,-1.655990791E1,2.967511177E0
4.507353698E0,-2.843446732E0,-1.636598587E1,2.766407013E0
4.509794010E0,-3.135526657E0,-1.616727638E1,2.503056049E0
4.512234271E0,-3.374936819E0,-1.592786694E1,2.230128765E0
4.514673750E0,-3.492247581E0,-1.571000385E1,1.811161518E0
4.517113229E0,-3.592799664E0,-1.548017025E1,1.258124828E0
4.519553542E0,-3.657440186E0,-1.523118401E1,7.409993410E-1
4.521993802E0,-3.690957785E0,-1.480982304E1,3.914609253E-1
4.524433281E0,-3.643075705E0,-1.429748535E1,1.735979617E-1
4.526872760E0,-3.511400223E0,-1.372290134E1,1.065631956E-1
4.529313073E0,-3.367754459E0,-1.318422985E1,1.472628713E-1
4.531753333E0,-3.183408737E0,-1.248994064E1,1.735979617E-1
4.534192812E0,-2.955969572E0,-1.181480503E1,1.688097715E-1
4.536632292E0,-2.738106489E0,-1.109178638E1,1.305041909E-1
4.539072604E0,-2.553760767E0,-1.029694653E1,8.022810519E-2
4.541512864E0,-2.419691324E0,-9.466193199E0,1.783861518E-1
4.543952344E0,-2.211404800E0,-8.645018578E0,3.962491453E-1
4.546391823E0,-2.024665117E0,-7.866936684E0,7.386052608E-1
4.548832135E0,-1.770890474E0,-7.127160072E0,9.995619655E-1
4.551272396E0,-1.483598709E0,-6.420900822E0,1.085749626E0
4.553711875E0,-1.213065505E0,-5.688306332E0,1.174331307E0
4.556151354E0,-9.425323606E-1,-4.881495476E0,1.284459829E0
4.558591667E0,-5.163828135E-1,-4.141718864E0,1.128843427E0
4.561031927E0,-1.189624220E-1,-3.466583014E0,7.577580810E-1
4.563471406E0,1.611471325E-1,-2.846511602E0,4.010373354E-1
4.565910885E0,3.526750207E-1,-2.231228113E0,1.281100810E-1
4.568351198E0,5.465970039E-1,-1.809866667E0,-2.262165546E-1
4.570791458E0,6.806665659E-1,-1.474692941E0,-5.182965994E-1
4.573230937E0,9.248646498E-1,-1.242465258E0,-8.414999247E-1
4.575670417E0,1.166668653E0,-1.034178734E0,-1.186250091E0
4.578110729E0,1.432413578E0,-1.053331494E0,-1.490300536E0
4.580550989E0,1.638306022E0,-1.208947897E0,-1.794351220E0
4.582990469E0,1.837016225E0,-1.517786622E0,-2.062490225E0
4.585429948E0,2.023756027E0,-1.833807707E0,-2.227683067E0
4.587870260E0,2.059667587E0,-2.192922592E0,-2.055308104E0
4.590310521E0,2.052485228E0,-2.669348001E0,-1.835050821E0
4.592750000E0,2.057273388E0,-3.150562048E0,-1.602823257E0
4.595189479E0,2.052485228E0,-3.679657698E0,-1.451995134E0
4.597629792E0,1.983056188E0,-4.170447826E0,-1.265255332E0
4.600070052E0,1.839410424E0,-4.723484993E0,-1.107244849E0
4.602509531E0,1.710129023E0,-5.190333843E0,-1.049786448E0
4.604949010E0,1.528177500E0,-5.570995808E0,-9.420520663E-1
4.607389271E0,1.295949936E0,-5.884622574E0,-7.409477830E-1
4.609829531E0,1.080481052E0,-6.226979256E0,-5.326611996E-1
4.612269062E0,8.650121689E-1,-6.444841862E0,-3.147982061E-1
4.614708542E0,6.782724261E-1,-6.550181866E0,2.995203435E-2
4.617148854E0,5.274442434E-1,-6.602852345E0,3.100616038E-1
4.619589114E0,4.508330822E-1,-6.471177101E0,6.572059393E-1
4.622028594E0,4.556212723E-1,-6.274860859E0,1.033079505E0
4.624468073E0,5.346265435E-1,-6.059391975E0,1.349100590E0
4.626908385E0,6.639078856E-1,-5.815194130E0,1.631604195E0
4.629348646E0,7.931891680E-1,-5.424955845E0,1.897349000E0
4.631788125E0,9.152882695E-1,-5.154422760E0,2.131970644E0
4.634227604E0,1.066116452E0,-4.847978115E0,2.376168728E0
4.636667864E0,1.250462174E0,-4.469710350E0,2.522208691E0
4.639108125E0,1.425231218E0,-4.065107822E0,2.634731531E0
4.641547656E0,1.537753820E0,-3.665293217E0,2.740071774E0
4.643987135E0,1.707734823E0,-3.227173090E0,2.759224415E0
4.646427448E0,1.810681105E0,-2.851299524E0,2.699372292E0
4.648867708E0,1.865745544E0,-2.547249079E0,2.603608131E0
4.651307187E0,1.916021466E0,-2.264745474E0,2.486297131E0
4.653746667E0,1.961509347E0,-2.030123711E0,2.246887445E0
4.656186979E0,1.971085787E0,-1.783531666E0,1.954807401E0
4.658627239E0,1.956721187E0,-1.620732903E0,1.724974036E0
4.661066719E0,1.872927785E0,-1.534545302E0,1.485564232E0
4.663506198E0,1.774769783E0,-1.493845701E0,1.262912869E0
4.665946458E0,1.676611662E0,-1.491451502E0,1.085749626E0
4.668386719E0,1.566483140E0,-1.532151341E0,1.035473466E0
4.670826250E0,1.394107938E0,-1.577639222E0,9.421036839E-1
4.673265729E0,1.243279696E0,-1.690161824E0,7.098760605E-1
4.675705989E0,1.066116452E0,-1.824231267E0,5.207422972E-1
4.678146302E0,7.955833077E-1,-1.994212270E0,4.201901257E-1
4.680585781E0,4.915327430E-1,-2.168981552E0,5.303186774E-1
4.683025260E0,2.545169890E-1,-2.295868874E0,5.925652385E-1
4.685465521E0,4.144219682E-2,-2.494579077E0,7.026938200E-1
4.687905781E0,-9.741553664E-2,-2.681318521E0,8.343691826E-1
4.690345312E0,-2.147263885E-1,-2.856087685E0,9.085862637E-1
4.692784792E0,-3.152785301E-1,-3.016492605E0,9.253450036E-1
4.695225052E0,-4.301952422E-1,-3.172108889E0,9.540741444E-1
4.697665312E0,-5.307473540E-1,-3.385183811E0,9.444977641E-1
4.700104844E0,-5.355356336E-1,-3.569529295E0,8.223987222E-1
4.702544323E0,-5.139886737E-1,-3.737116337E0,5.518655777E-1
4.704984583E0,-4.278011620E-1,-3.818515539E0,2.526032031E-1
4.707424844E0,-4.110424817E-1,-3.890338659E0,4.910482466E-2
4.709864375E0,-4.301952422E-1,-3.978919983E0,-5.623551458E-2
4.712303854E0,-3.559781909E-1,-4.048348904E0,-2.429752350E-1
4.714744114E0,-2.338791490E-1,-4.079472065E0,-4.943555593E-1
4.717184375E0,-8.783912659E-2,-4.124959946E0,-8.103766441E-1
4.719623906E0,8.214187622E-2,-4.184812546E0,-1.092880249E0
4.722063385E0,2.545169890E-1,-4.244665146E0,-1.487906575E0
4.724503646E0,4.508330822E-1,-4.309305668E0,-1.928420663E0
4.726943906E0,5.705379844E-1,-4.431405067E0,-2.242047787E0
4.729383437E0,6.806665659E-1,-4.551109314E0,-2.476669312E0
4.731822917E0,8.171302080E-1,-4.689967632E0,-2.809448957E0
4.734263177E0,9.296528101E-1,-4.864736557E0,-3.118287802E0
4.736703437E0,1.046963692E0,-5.044293880E0,-3.506131887E0
4.739142969E0,1.157092214E0,-5.257369041E0,-3.884399652E0
4.741582448E0,1.238491654E0,-5.468049526E0,-4.186055660E0
4.744022708E0,1.331861377E0,-5.726612091E0,-4.521229267E0
4.746462969E0,1.444384098E0,-5.977992535E0,-4.899497509E0
4.748902500E0,1.609576821E0,-6.286831379E0,-5.239459515E0
4.751341979E0,1.784346104E0,-6.516664982E0,-5.627303123E0
4.753782239E0,1.975873947E0,-6.801562309E0,-5.988811970E0
4.756222500E0,2.191342831E0,-7.029002190E0,-6.369473934E0
4.758662031E0,2.390053034E0,-7.337840557E0,-6.783652782E0
4.761101510E0,2.586369276E0,-7.656256199E0,-7.240925789E0
4.763541771E0,2.739591599E0,-8.044099808E0,-7.741292477E0
4.765982031E0,2.916754723E0,-8.463066101E0,-8.270388603E0
4.768421562E0,3.098706245E0,-9.018497467E0,-8.629503250E0
4.770861042E0,3.347692490E0,-9.638569832E0,-9.223239899E0
4.773301302E0,3.618225813E0,-1.028258133E1,-9.742758751E0
4.775741562E0,3.869606018E0,-1.093138218E1,-9.941469193E0
4.778181042E0,4.116198063E0,-1.154666519E1,-1.010666180E1
4.780620521E0,4.286179543E0,-1.213561440E1,-1.007553864E1
4.783060833E0,4.480101585E0,-1.269822788E1,-1.000850391E1
4.785501094E0,4.678811550E0,-1.321056461E1,-9.910346031E0
4.787940625E0,4.788939953E0,-1.367262554E1,-9.771488190E0
4.790380104E0,4.896674633E0,-1.413468647E1,-9.706848145E0
4.792820364E0,4.879916191E0,-1.468772316E1,-9.690089226E0
4.795260625E0,4.820063591E0,-1.525512409E1,-9.725999832E0
4.797700156E0,4.678811550E0,-1.593983650E1,-9.781064987E0
4.800139635E0,4.463342667E0,-1.666046143E1,-9.802612305E0
4.802579896E0,4.324484825E0,-1.736432648E1,-9.745152473E0
4.805020156E0,4.257450104E0,-1.790778542E1,-9.601507187E0
4.807459635E0,4.269420624E0,-1.822620201E1,-9.383644104E0
4.809899114E0,4.310120583E0,-1.838421249E1,-9.206480980E0
4.812339427E0,4.307725906E0,-1.834590530E1,-9.093957901E0
4.814779687E0,4.264632702E0,-1.811128616E1,-9.103534698E0
4.817219167E0,4.185627460E0,-1.776174545E1,-9.144233704E0
4.819658646E0,4.140139103E0,-1.725180435E1,-9.273515701E0
4.822098958E0,3.955793858E0,-1.673467827E1,-9.424344063E0
4.824539219E0,3.797783136E0,-1.617685318E1,-9.625448227E0
4.826978698E0,3.697231054E0,-1.556875134E1,-9.915133476E0
4.829418177E0,3.646955013E0,-1.493192196E1,-1.035325336E1
4.831858489E0,3.560767174E0,-1.423763275E1,-1.070279312E1
4.834298750E0,3.491338491E0,-1.349546242E1,-1.100923729E1
4.836738229E0,3.390786171E0,-1.273174477E1,-1.120315838E1
4.839177708E0,3.189682007E0,-1.202548599E1,-1.124864674E1
4.841618021E0,2.911966562E0,-1.135753155E1,-1.129174042E1
4.844058281E0,2.689315557E0,-1.064409065E1,-1.123428249E1
4.846497760E0,2.409205675E0,-9.928256035E0,-1.108824253E1
4.848937239E0,2.097973108E0,-9.269877434E0,-1.095177841E1
4.851377552E0,1.810681105E0,-8.563618660E0,-1.069800377E1
4.853817812E0,1.461142778E0,-7.890877724E0,-1.036761856E1
4.856257292E0,1.248067975E0,-7.222924232E0,-9.974987030E0
4.858696771E0,1.097239733E0,-6.507088661E0,-9.477013588E0
4.861137083E0,8.985295296E-1,-5.975598335E0,-8.883277893E0
4.863577344E0,7.955833077E-1,-5.561419487E0,-8.093224525E0
4.866016823E0,8.267065287E-1,-5.278915405E0,-7.341477871E0
4.868456302E0,9.440174103E-1,-5.259763241E0,-6.513119698E0
4.870896614E0,1.070904732E0,-5.539872646E0,-5.375922680E0
4.873336875E0,1.518601179E0,-5.987568855E0,-4.358430862E0
4.875776354E0,2.062061548E0,-6.605246544E0,-3.520496607E0
4.878215833E0,2.651009798E0,-7.443181038E0,-2.998583078E0
4.880656146E0,3.271081448E0,-8.510948181E0,-2.886060238E0
4.883096406E0,3.898335218E0,-9.837279320E0,-2.936336279E0
4.885535885E0,4.446584225E0,-1.117558098E1,-2.960277319E0
4.887975364E0,4.932586193E0,-1.249951744E1,-2.960277319E0
4.890415677E0,5.409011364E0,-1.376599598E1,-3.123075962E0
4.892855937E0,5.720244408E0,-1.501332092E1,-3.388821125E0
4.895295417E0,5.861496449E0,-1.618642998E1,-3.448673487E0
4.897734896E0,5.988383293E0,-1.714167595E1,-3.218840122E0
4.900175208E0,6.062600613E0,-1.787426949E1,-2.658620834E0
4.902615469E0,6.098512173E0,-1.841533470E1,-1.964332223E0
4.905054948E0,6.074571133E0,-1.879360390E1,-1.291590452E0
4.907494427E0,5.897407532E0,-1.902343559E1,-4.871733189E-1
4.909934739E0,5.533504486E0,-1.914553642E1,1.783861518E-1
4.912375000E0,4.836822033E0,-1.923890495E1,7.529698610E-1
4.914814479E0,3.903123379E0,-1.924369431E1,1.234183788E0
4.917253958E0,2.904784203E0,-1.920299339E1,1.499928713E0
4.919694271E0,2.009391546E0,-1.914314079E1,1.679486156E0
4.922134531E0,1.327073216E0,-1.902582932E1,1.720185757E0
4.924574010E0,7.429131269E-1,-1.882711983E1,1.796796918E0
4.927013489E0,4.628035724E-1,-1.858531570E1,1.995507121E0
4.929453802E0,4.675917625E-1,-1.820704842E1,2.258857965E0
4.931894062E0,6.830607057E-1,-1.763725281E1,2.376168728E0
4.934333542E0,1.008658051E0,-1.690705299E1,2.182246685E0
4.936773021E0,1.260038495E0,-1.606672478E1,1.590904474E0
4.939213333E0,1.367772818E0,-1.517851353E1,5.877770185E-1
4.941653594E0,1.365378737E0,-1.420650959E1,-7.624946237E-1
4.944093073E0,1.360590577E0,-1.311958885E1,-2.486245871E0
4.946532552E0,1.183427215E0,-1.194169235E1,-4.463771343E0
4.948972864E0,9.128941298E-1,-1.046213913E1,-6.316803455E0
4.951413125E0,5.777202845E-1,-8.836545944E0,-7.726927757E0
4.953852604E0,2.808520794E-1,-7.050549030E0,-8.270388603E0
4.956292083E0,1.031891257E-2,-5.484807968E0,-7.542582512E0
4.958732396E0,-3.516896442E-2,-4.057925224E0,-5.632091522E0
4.961172656E0,1.635412276E-1,-2.834541082E0,-3.106317282E0
4.963612135E0,5.633557439E-1,-1.855354548E0,-2.932512760E-1
4.966051614E0,1.195397735E0,-1.017420053E0,2.414474487E0
4.968491875E0,2.083608389E0,-3.159490228E-1,4.801391125E0
4.970932135E0,3.196864128E0,2.251172811E-1,6.503595352E0
4.973371667E0,4.379549026E0,5.531088114E-1,7.353500366E0
