"Time (s)","Gyroscope x (rad/s)","Gyroscope y (rad/s)","Gyroscope z (rad/s)"
6.284656300E-2,1.223686412E-1,-6.963961124E-1,2.259625494E-1
6.534599000E-2,1.244991124E-1,-6.782871485E-1,2.259625494E-1
6.784546900E-2,1.372819096E-1,-6.559172273E-1,2.323539555E-1
7.034489600E-2,1.521951705E-1,-6.186341047E-1,2.323539555E-1
7.284432300E-2,1.681736708E-1,-5.824161768E-1,2.334191799E-1
7.534380200E-2,1.852173954E-1,-5.525896549E-1,2.291582525E-1
7.784323000E-2,2.075872868E-1,-5.216978788E-1,2.195711583E-1
8.034265700E-2,2.331528813E-1,-4.940018058E-1,2.099840641E-1
8.284479200E-2,2.651098669E-1,-4.620448351E-1,2.003969699E-1
8.534427100E-2,3.066539466E-1,-4.226312041E-1,1.908098608E-1
8.784369800E-2,3.492632806E-1,-3.800218701E-1,1.780270636E-1
9.034312500E-2,4.078511000E-1,-3.256950080E-1,1.737661362E-1
9.284260500E-2,4.706998467E-1,-2.628462613E-1,1.695052087E-1
9.534203200E-2,5.430025458E-1,-1.937392503E-1,1.673747450E-1
9.784151100E-2,6.207645535E-1,-1.213034093E-1,1.652442664E-1
1.003409380E-1,7.038527131E-1,-3.928046674E-2,1.663095057E-1
1.028403650E-1,7.933322787E-1,4.487293959E-2,1.705704331E-1
1.053398440E-1,8.849423528E-1,1.343525201E-1,1.673747450E-1
1.078392710E-1,9.840090275E-1,2.238320857E-1,1.652442664E-1
1.103386980E-1,1.082010388E0,3.111811876E-1,1.631138027E-1
1.128381250E-1,1.178813457E0,3.973319232E-1,1.599181145E-1
1.153376050E-1,1.281075835E0,4.846810400E-1,1.535267085E-1
1.178370320E-1,1.378012061E0,5.645735264E-1,1.428743750E-1
1.203364590E-1,1.473883033E0,6.423355341E-1,1.205044836E-1
1.228359380E-1,1.569754004E0,7.190322876E-1,9.493889660E-2
1.253353650E-1,1.662429333E0,7.967942953E-1,6.724283099E-2
1.278348440E-1,1.753906131E0,8.692301512E-1,3.209014609E-2
1.303342710E-1,1.841255307E0,9.406007528E-1,-3.062544856E-3
1.328336980E-1,1.925408721E0,1.015033960E0,-4.886756465E-2
1.353331770E-1,2.005301237E0,1.086404562E0,-9.467258304E-2
1.378326050E-1,2.087324142E0,1.155644655E0,-1.458037645E-1
1.403320320E-1,2.166151285E0,1.225950003E0,-1.916087866E-1
1.428314590E-1,2.239652395E0,1.286668301E0,-2.438052148E-1
1.453309380E-1,2.318479776E0,1.337799549E0,-2.862813771E-1
1.478303650E-1,2.397173882E0,1.374017477E0,-3.224993050E-1
1.503297920E-1,2.473870516E0,1.401713490E0,-3.565867543E-1
1.528292710E-1,2.551632643E0,1.417691946E0,-3.917394578E-1
1.553286980E-1,2.627264023E0,1.423018217E0,-4.226312041E-1
1.578281770E-1,2.705026150E0,1.425148606E0,-4.503272474E-1
1.603276050E-1,2.779592514E0,1.427279115E0,-4.812190235E-1
1.628270320E-1,2.854158640E0,1.429409623E0,-5.003932118E-1
1.653265110E-1,2.928725004E0,1.443257570E0,-5.174369216E-1
1.678259380E-1,3.008484364E0,1.470953703E0,-5.334154367E-1
1.703253650E-1,3.077724457E0,1.511432528E0,-5.472634435E-1
1.728247920E-1,3.152290821E0,1.556172252E0,-5.568505526E-1
1.753242710E-1,3.230052948E0,1.605039835E0,-5.728290677E-1
1.778236980E-1,3.300358295E0,1.654040575E0,-5.877423286E-1
1.803231250E-1,3.360011339E0,1.699845552E0,-6.047860384E-1
1.828226050E-1,3.410077333E0,1.736063480E0,-6.260907054E-1
1.853220320E-1,3.451621294E0,1.758433461E0,-6.473953724E-1
1.878215110E-1,3.479317427E0,1.761629105E0,-6.665695906E-1
1.903209380E-1,3.493165493E0,1.730737329E0,-6.900047064E-1
1.928203650E-1,3.496361017E0,1.661497235E0,-7.145050764E-1
1.953198440E-1,3.484643459E0,1.562563658E0,-7.347444892E-1
1.978192710E-1,3.456947565E0,1.429409623E0,-7.517881989E-1
2.003186980E-1,3.412207603E0,1.267494202E0,-7.645710111E-1
2.028181250E-1,3.356815577E0,1.084274054E0,-7.667014599E-1
2.053176050E-1,3.289705992E0,8.841434121E-1,-7.667014599E-1
2.078170320E-1,3.218335390E0,6.732272506E-1,-7.581796050E-1
2.103164590E-1,3.136312246E0,4.591154456E-1,-7.390053868E-1
2.128159380E-1,3.055354595E0,2.408758104E-1,-7.155702710E-1
2.153153650E-1,2.975462198E0,2.356828004E-2,-6.825480461E-1
2.178148440E-1,2.896768093E0,-1.905435622E-1,-6.484606266E-1
2.203142710E-1,2.827528000E0,-3.917394578E-1,-6.175688505E-1
2.228136980E-1,2.768940210E0,-5.898727775E-1,-5.898727775E-1
2.253131770E-1,2.719939470E0,-7.741581202E-1,-5.600462556E-1
2.278126050E-1,2.679460526E0,-9.465926886E-1,-5.419372916E-1
2.303120320E-1,2.648568869E0,-1.093594909E0,-5.270240307E-1
2.328115110E-1,2.630459785E0,-1.222488046E0,-5.121107697E-1
2.353109900E-1,2.612350941E0,-1.318359017E0,-5.121107697E-1
2.378104170E-1,2.597437620E0,-1.396121025E0,-5.206326246E-1
2.403098440E-1,2.584654808E0,-1.441926003E0,-5.323501825E-1
2.428093230E-1,2.567610979E0,-1.465228081E0,-5.525896549E-1
2.453087500E-1,2.547371626E0,-1.476945639E0,-5.845466256E-1
2.478082300E-1,2.534588814E0,-1.485467434E0,-6.111774445E-1
2.503076570E-1,2.525001764E0,-1.496119738E0,-6.367430687E-1
2.528070840E-1,2.516479969E0,-1.493989348E0,-6.687000394E-1
2.553065630E-1,2.507957935E0,-1.479076028E0,-6.942656040E-1
2.578059900E-1,2.502631903E0,-1.460034966E0,-7.230269313E-1
2.603054170E-1,2.493044853E0,-1.425947547E0,-7.528534532E-1
2.628048960E-1,2.472805262E0,-1.356707454E0,-7.858756781E-1
2.653043750E-1,2.434456825E0,-1.220357537E0,-8.199630976E-1
2.678038020E-1,2.364151478E0,-1.004115224E0,-8.636376858E-1
2.703032300E-1,2.268413782E0,-7.017222643E-1,-9.135704637E-1
2.728027090E-1,2.157629490E0,-3.480648994E-1,-9.753540158E-1
2.753021360E-1,2.056432247E0,1.291595027E-2,-1.036072254E0
2.778016150E-1,1.980800867E0,3.484643400E-1,-1.101051450E0
2.803010420E-1,1.936061025E0,6.497921348E-1,-1.163900256E0
2.828004690E-1,1.917952061E0,9.192960858E-1,-1.213966131E0
2.852999480E-1,1.923278213E0,1.144992352E0,-1.254445076E0
2.877993750E-1,1.952039480E0,1.329277635E0,-1.278945446E0
2.902988020E-1,1.995714068E0,1.487997413E0,-1.282141089E0
2.927982300E-1,2.048975706E0,1.616757393E0,-1.268293023E0
2.952977090E-1,2.104367733E0,1.728606939E0,-1.238466501E0
2.977971360E-1,2.160825253E0,1.815955997E0,-1.187335372E0
3.002965630E-1,2.211956263E0,1.869217634E0,-1.122356176E0
3.027960420E-1,2.253500462E0,1.894783258E0,-1.045659423E0
3.052954690E-1,2.284392118E0,1.918218374E0,-9.625712037E-1
3.077949480E-1,2.303566456E0,1.951240540E0,-8.794830441E-1
3.102943750E-1,2.316349268E0,1.985328078E0,-7.965279818E-1
3.127938020E-1,2.318479776E0,2.010893583E0,-7.166355252E-1
3.152932820E-1,2.307827234E0,2.029002666E0,-6.505910754E-1
3.177927090E-1,2.292914152E0,2.055633545E0,-5.898727775E-1
3.202921360E-1,2.276935577E0,2.087590456E0,-5.440677404E-1
3.227916150E-1,2.264152765E0,2.119547367E0,-5.046541691E-1
3.252910940E-1,2.248174191E0,2.146178246E0,-4.780233204E-1
3.277905210E-1,2.235391617E0,2.171743870E0,-4.524577260E-1
3.302899480E-1,2.225804329E0,2.186657190E0,-4.343487620E-1
3.327894270E-1,2.222608805E0,2.192915440E0,-4.268921316E-1
3.352888550E-1,2.229000092E0,2.212089539E0,-4.194355011E-1
3.377883340E-1,2.241782904E0,2.228068113E0,-4.183702767E-1
3.402877610E-1,2.260957003E0,2.248307467E0,-4.109136462E-1
3.427871880E-1,2.283327103E0,2.266416311E0,-3.981308341E-1
3.452866670E-1,2.295044661E0,2.272807837E0,-3.789566457E-1
3.477860940E-1,2.287587881E0,2.269612074E0,-3.576519787E-1
3.502855210E-1,2.263087511E0,2.271742582E0,-3.416734934E-1
3.527850000E-1,2.233261108E0,2.268546820E0,-3.363473415E-1
3.552844800E-1,2.189586401E0,2.253633499E0,-3.395430148E-1
3.577839070E-1,2.127802849E0,2.232328892E0,-3.512606025E-1
3.602833340E-1,2.058562756E0,2.225937605E0,-3.672390878E-1
3.627828130E-1,1.986127019E0,2.233394146E0,-3.896089792E-1
3.652822400E-1,1.917952061E0,2.252568483E0,-4.141093493E-1
3.677817190E-1,1.857233763E0,2.277068853E0,-4.311530590E-1
3.702811460E-1,1.801841617E0,2.295177698E0,-4.513925016E-1
3.727805730E-1,1.752840996E0,2.317547560E0,-4.684362113E-1
3.752800520E-1,1.706103802E0,2.335656643E0,-4.908061028E-1
3.777794800E-1,1.666690230E0,2.352700233E0,-5.110455155E-1
3.802789070E-1,1.627276540E0,2.361222267E0,-5.280892849E-1
3.827783340E-1,1.582536817E0,2.363352537E0,-5.440677404E-1
3.852778130E-1,1.542057991E0,2.362287283E0,-5.600462556E-1
3.877772400E-1,1.504774809E0,2.361222267E0,-5.760247707E-1
3.902766670E-1,1.466426373E0,2.362287283E0,-5.920032263E-1
3.927761460E-1,1.433404207E0,2.362287283E0,-6.047860384E-1
3.952755730E-1,1.401447177E0,2.359091759E0,-6.154384017E-1
3.977750520E-1,1.369490266E0,2.356961250E0,-6.250254512E-1
4.002744800E-1,1.333272338E0,2.348439455E0,-6.346125603E-1
4.027739070E-1,1.299184799E0,2.337786913E0,-6.420692205E-1
4.052733860E-1,1.267227888E0,2.328199863E0,-6.441996694E-1
4.077728130E-1,1.236336112E0,2.322873831E0,-6.420692205E-1
4.102722400E-1,1.200118184E0,2.307960510E0,-6.420692205E-1
4.127717190E-1,1.160704494E0,2.289851427E0,-6.410039663E-1
4.152711980E-1,1.119293571E0,2.270677328E0,-6.335473657E-1
4.177706250E-1,1.079879999E0,2.246176958E0,-6.250254512E-1
4.202700520E-1,1.035140157E0,2.222741842E0,-6.133078933E-1
4.227695320E-1,9.861394763E-1,2.191850185E0,-6.047860384E-1
4.252689590E-1,9.328778386E-1,2.158961058E0,-5.941337347E-1
4.277684380E-1,8.785509467E-1,2.120612621E0,-5.877423286E-1
4.302678650E-1,8.220936060E-1,2.082264185E0,-5.845466256E-1
4.327672920E-1,7.581796050E-1,2.032198191E0,-5.813509226E-1
4.352667710E-1,6.910699010E-1,1.981067061E0,-5.781552196E-1
4.377661980E-1,6.271559596E-1,1.929935932E0,-5.792204738E-1
4.402656250E-1,5.579158068E-1,1.871348143E0,-5.749595165E-1
4.427651050E-1,4.877435565E-1,1.804238439E0,-5.706986189E-1
4.452645840E-1,4.131772518E-1,1.725411177E0,-5.685681105E-1
4.477640110E-1,3.343500197E-1,1.638062119E0,-5.675029159E-1
4.502634380E-1,2.587184608E-1,1.548715711E0,-5.653724074E-1
4.527629170E-1,1.798912287E-1,1.451779485E0,-5.621767044E-1
4.552623440E-1,9.893351793E-2,1.353778005E0,-5.568505526E-1
4.577618230E-1,2.010627277E-2,1.254711390E0,-5.568505526E-1
4.602612500E-1,-5.552527308E-2,1.150318503E0,-5.547201037E-1
4.627606770E-1,-1.299584359E-1,1.039534330E0,-5.515244007E-1
4.652601570E-1,-2.045247406E-1,9.278179407E-1,-5.472634435E-1
4.677595840E-1,-2.780258060E-1,8.149032593E-1,-5.483286977E-1
4.702590110E-1,-3.462007344E-1,7.030537724E-1,-5.451329947E-1
4.727584900E-1,-4.133104086E-1,5.933347940E-1,-5.440677404E-1
4.752579690E-1,-4.761591554E-1,4.889419675E-1,-5.366111398E-1
4.777573960E-1,-5.400731564E-1,3.813534081E-1,-5.376763940E-1
4.802568230E-1,-6.039870977E-1,2.717675865E-1,-5.323501825E-1
4.827563020E-1,-6.636402011E-1,1.599181145E-1,-5.227631330E-1
4.852557300E-1,-7.263557911E-1,4.913387448E-2,-5.195674300E-1
4.877552090E-1,-7.860088348E-1,-5.845466256E-2,-5.142412186E-1
4.902546360E-1,-8.467270732E-1,-1.617822647E-1,-5.014584661E-1
4.927540630E-1,-9.085106254E-1,-2.671071887E-1,-4.929365814E-1
4.952535420E-1,-9.681636691E-1,-3.704347908E-1,-4.801537991E-1
4.977529690E-1,-1.029947162E0,-4.695014656E-1,-4.652405083E-1
5.002523960E-1,-1.092795968E0,-5.685681105E-1,-4.524577260E-1
5.027518750E-1,-1.157775164E0,-6.591129303E-1,-4.364792407E-1
5.052513550E-1,-1.219558716E0,-7.517881989E-1,-4.205007255E-1
5.077507820E-1,-1.286668301E0,-8.348763585E-1,-4.034570158E-1
5.102502090E-1,-1.356840611E0,-9.157009125E-1,-3.906742036E-1
5.127496880E-1,-1.423950195E0,-9.945281744E-1,-3.821523488E-1
5.152491150E-1,-1.497451305E0,-1.064833522E0,-3.746957183E-1
5.177485940E-1,-1.565626264E0,-1.130877972E0,-3.629781604E-1
5.202480210E-1,-1.636996865E0,-1.187335372E0,-3.501953483E-1
5.227474480E-1,-1.705171704E0,-1.237401366E0,-3.374125659E-1
5.252469270E-1,-1.772281408E0,-1.278945446E0,-3.203688264E-1
5.277463550E-1,-1.837260604E0,-1.318359017E0,-2.990641594E-1
5.302457820E-1,-1.897978902E0,-1.340728879E0,-2.788247466E-1
5.327452610E-1,-1.945781231E0,-1.358837843E0,-2.491313666E-1
5.352448440E-1,-1.995847225E0,-1.372685909E0,-2.256962508E-1
5.377444270E-1,-2.039521694E0,-1.372685909E0,-2.022611201E-1
5.402440110E-1,-2.073609352E0,-1.365229249E0,-1.766955256E-1
5.427435940E-1,-2.104501009E0,-1.343924642E0,-1.521951705E-1
5.452431250E-1,-2.131131887E0,-1.313032866E0,-1.255643368E-1
5.477427090E-1,-2.152436495E0,-1.273619175E0,-9.786828607E-2
5.502422920E-1,-2.164154053E0,-1.224618554E0,-7.549838722E-2
5.527418750E-1,-2.169480324E0,-1.167095900E0,-4.780233279E-2
5.552414590E-1,-2.164154053E0,-1.104247212E0,-1.691057347E-2
5.577410420E-1,-2.150305986E0,-1.030746102E0,1.291595027E-2
5.602405730E-1,-2.122609854E0,-9.508536458E-1,4.593817517E-2
5.627386460E-1,-2.087457180E0,-8.571131229E-1,8.215609938E-2
5.652382300E-1,-2.036326170E0,-7.517881989E-1,1.141130850E-1
5.677378130E-1,-1.973477364E0,-6.452649236E-1,1.482005417E-1
5.702373960E-1,-1.902239919E0,-5.355458856E-1,1.801575422E-1
5.727369800E-1,-1.818086505E0,-4.236964285E-1,2.121145278E-1
5.752365110E-1,-1.722215533E0,-3.097164929E-1,2.387453467E-1
5.777360940E-1,-1.616757393E0,-1.937392503E-1,2.600499988E-1
5.802356770E-1,-1.500647068E0,-8.402025700E-2,2.707023323E-1
5.827352610E-1,-1.382406116E0,1.824211515E-2,2.781589627E-1
5.852348440E-1,-1.257907033E0,1.162435561E-1,2.824199200E-1
5.877344270E-1,-1.127948642E0,1.993317306E-1,2.845503688E-1
5.902339590E-1,-9.979901910E-1,2.707023323E-1,2.781589627E-1
5.927320840E-1,-8.680317402E-1,3.303554058E-1,2.760285139E-1
5.952316670E-1,-7.465952039E-1,3.770924807E-1,2.707023323E-1
5.977312500E-1,-6.284874678E-1,4.143756330E-1,2.579195499E-1
6.002308340E-1,-5.177032351E-1,4.484631121E-1,2.430062890E-1
6.027304170E-1,-4.228975177E-1,4.846810400E-1,2.248973250E-1
6.052299480E-1,-3.323526978E-1,5.272903442E-1,2.099840641E-1
6.077295320E-1,-2.556559145E-1,5.656387210E-1,1.876141727E-1
6.102291150E-1,-1.917419434E-1,6.007914543E-1,1.609833390E-1
6.127286980E-1,-1.374150664E-1,6.316831708E-1,1.247654185E-1
6.152282820E-1,-8.748225868E-2,6.647053957E-1,8.535179496E-2
6.177278650E-1,-4.380770773E-2,7.030537724E-1,4.593817517E-2
6.202273960E-1,-4.394086078E-3,7.445979118E-1,1.331541280E-4
6.227254690E-1,3.608476743E-2,7.861419916E-1,-4.673709720E-2
6.252250520E-1,7.443315536E-2,8.287512660E-1,-8.934641629E-2
6.277246360E-1,1.095858440E-1,8.734911084E-1,-1.351514459E-1
6.302242190E-1,1.468690038E-1,9.235570431E-1,-1.809564531E-1
6.327238020E-1,1.809564531E-1,9.714925289E-1,-2.288919389E-1
6.352233340E-1,2.129134536E-1,1.016099095E0,-2.777595222E-1
6.377229170E-1,2.363485843E-1,1.055512786E0,-3.193036020E-1
6.402225000E-1,2.576532364E-1,1.084274054E0,-3.576519787E-1
6.427220840E-1,2.704360485E-1,1.099187374E0,-3.842828274E-1
6.452216670E-1,2.768274248E-1,1.104513526E0,-4.087831676E-1
6.477212500E-1,2.768274248E-1,1.105578780E0,-4.300878346E-1
6.502207820E-1,2.715012729E-1,1.103448272E0,-4.492620230E-1
6.527188550E-1,2.608489394E-1,1.102383018E0,-4.726971686E-1
6.552184380E-1,2.459356785E-1,1.099187374E0,-4.940018058E-1
6.577180210E-1,2.288919389E-1,1.104513526E0,-5.121107697E-1
6.602176050E-1,2.129134536E-1,1.116231084E0,-5.302197337E-1
6.627171880E-1,1.980001926E-1,1.136470437E0,-5.493939519E-1
6.652167190E-1,1.788259894E-1,1.167362213E0,-5.653724074E-1
6.677163020E-1,1.681736708E-1,1.197188735E0,-5.728290677E-1
6.702158860E-1,1.553908736E-1,1.221689105E0,-5.781552196E-1
6.727154690E-1,1.458037645E-1,1.249385238E0,-5.802856684E-1
6.752150520E-1,1.330209672E-1,1.263233185E0,-5.749595165E-1
6.777146360E-1,1.191729456E-1,1.271755099E0,-5.685681105E-1
6.802141670E-1,1.042596847E-1,1.263233185E0,-5.579158068E-1
6.827122920E-1,9.147688746E-2,1.234471917E0,-5.430025458E-1
6.852118750E-1,7.656362653E-2,1.197188735E0,-5.280892849E-1
6.877114590E-1,5.525896326E-2,1.156709909E0,-5.121107697E-1
6.902110420E-1,2.969337068E-2,1.099187374E0,-4.918713570E-1
6.927106250E-1,-3.328853287E-3,1.034208059E0,-4.705666900E-1
6.952101570E-1,-3.528584540E-2,9.629706740E-1,-4.492620230E-1
6.977097400E-1,-7.150376588E-2,8.830781579E-1,-4.258269072E-1
7.002093230E-1,-1.118494645E-1,7.957290411E-1,-4.055874646E-1
7.027089070E-1,-1.533935517E-1,7.094451785E-1,-3.885437548E-1
7.052084900E-1,-1.917419434E-1,6.114437580E-1,-3.683043122E-1
7.077080730E-1,-2.226337045E-1,5.027899742E-1,-3.427387178E-1
7.102076050E-1,-2.513949871E-1,3.856143653E-1,-3.182383776E-1
7.127056770E-1,-2.726996541E-1,2.589847744E-1,-2.830856740E-1
7.152052610E-1,-2.886781394E-1,1.322220564E-1,-2.416747361E-1
7.177048440E-1,-2.929390669E-1,-6.258244161E-3,-1.980001926E-1
7.202044270E-1,-2.897433937E-1,-1.447385401E-1,-1.489994675E-1
7.227040110E-1,-2.865476906E-1,-2.852161527E-1,-1.021292135E-1
7.252035420E-1,-2.748301327E-1,-4.354139864E-1,-6.165036187E-2
7.277031250E-1,-2.535254657E-1,-5.930684805E-1,-2.969337068E-2
7.302027090E-1,-2.215684652E-1,-7.624405622E-1,-1.997311832E-3
7.327022920E-1,-1.736329794E-1,-9.348751307E-1,1.717688330E-2
7.352018750E-1,-1.161103994E-1,-1.091464400E0,2.250304818E-2
7.377014590E-1,-4.167724028E-2,-1.226748943E0,1.824211515E-2
7.402009900E-1,5.099803209E-2,-1.332207084E0,-1.997311832E-3
7.426991150E-1,1.543256342E-1,-1.403577685E0,-3.501953557E-2
7.451986980E-1,2.629793882E-1,-1.434469461E0,-7.975932211E-2
7.476982820E-1,3.812202811E-1,-1.417425752E0,-1.308905035E-1
7.501978650E-1,5.015916228E-1,-1.372685909E0,-1.884130985E-1
7.526974480E-1,6.186341047E-1,-1.306641459E0,-2.448704392E-1
7.551969800E-1,7.283530831E-1,-1.223553300E0,-3.001294136E-1
7.576965630E-1,8.263545036E-1,-1.138334632E0,-3.491301239E-1
7.601961460E-1,9.094427228E-1,-1.053115964E0,-3.906742036E-1
7.626957300E-1,9.797480702E-1,-9.785496593E-1,-4.311530590E-1
7.651953130E-1,1.025553107E0,-9.178314209E-1,-4.577838778E-1
7.676948960E-1,1.053249121E0,-8.784177899E-1,-4.790885448E-1
7.701944270E-1,1.058575273E0,-8.656349778E-1,-5.014584661E-1
7.726925000E-1,1.038335919E0,-8.794830441E-1,-5.121107697E-1
7.751920840E-1,9.989222884E-1,-9.157009125E-1,-5.142412186E-1
7.776916670E-1,9.232907295E-1,-9.615059495E-1,-5.046541691E-1
7.801912500E-1,8.061150908E-1,-1.015832901E0,-4.844147265E-1
7.826908340E-1,6.335473657E-1,-1.071224928E0,-4.503272474E-1
7.851903650E-1,4.025249183E-1,-1.120225668E0,-3.991960883E-1
7.876899480E-1,1.202381775E-1,-1.152182698E0,-3.310211599E-1
7.901895320E-1,-1.981333494E-1,-1.156443596E0,-2.585853040E-1
7.926891150E-1,-5.304860473E-1,-1.114899516E0,-1.830869317E-1
7.951886980E-1,-8.520532846E-1,-1.036072254E0,-1.159772426E-1
7.976882820E-1,-1.137535691E0,-9.476579428E-1,-5.206326395E-2
8.001878130E-1,-1.377079964E0,-8.752220869E-1,1.078548469E-2
8.026859380E-1,-1.564561009E0,-8.316806555E-1,6.937330216E-2
8.051855210E-1,-1.701976061E0,-8.135717511E-1,1.247654185E-1
8.076851050E-1,-1.796781778E0,-8.231588006E-1,1.790923029E-1
8.101846880E-1,-1.855369568E0,-8.465939164E-1,2.355496585E-1
8.126842710E-1,-1.889457107E0,-8.720263839E-1,2.888112962E-1
8.151838020E-1,-1.899044156E0,-8.901353478E-1,3.452686667E-1
8.176833860E-1,-1.895848513E0,-8.933310509E-1,3.930709958E-1
8.201829690E-1,-1.874543786E0,-8.901353478E-1,4.431369305E-1
8.226825520E-1,-1.843652010E0,-9.231575727E-1,4.825505614E-1
8.251821360E-1,-1.796781778E0,-9.753540158E-1,5.102466345E-1
8.276817190E-1,-1.727541685E0,-1.028615594E0,5.272903442E-1
8.301812500E-1,-1.645518661E0,-1.124486566E0,5.368774533E-1
8.326793230E-1,-1.549647689E0,-1.269358277E0,5.549864173E-1
8.351789070E-1,-1.446320176E0,-1.467358470E0,5.880086422E-1
8.376784900E-1,-1.345123053E0,-1.724079609E0,6.348788738E-1
8.401780730E-1,-1.253646135E0,-2.032997131E0,7.030537724E-1
8.426776570E-1,-1.172688365E0,-2.371608257E0,7.935985923E-1
8.451771880E-1,-1.115165830E0,-2.708088636E0,8.958609700E-1
8.476767710E-1,-1.081078410E0,-3.018071413E0,1.013968706E0
8.501763550E-1,-1.071491241E0,-3.276923180E0,1.132209539E0
8.526759380E-1,-1.088534951E0,-3.464270830E0,1.246189475E0
8.551755210E-1,-1.118361473E0,-3.576120377E0,1.349517107E0
8.576751050E-1,-1.164166570E0,-3.620860100E0,1.429409623E0
8.601746360E-1,-1.216362953E0,-3.588903189E0,1.484801650E0
8.626727610E-1,-1.261102796E0,-3.506880283E0,1.508236766E0
8.651723440E-1,-1.298385859E0,-3.376921892E0,1.501845360E0
8.676719270E-1,-1.329144478E0,-3.195965290E0,1.462431788E0
8.701715110E-1,-1.353644848E0,-2.960548878E0,1.396387339E0
8.726710940E-1,-1.382406116E0,-2.675199509E0,1.299451113E0
8.751706250E-1,-1.412232637E0,-2.354564428E0,1.184405923E0
8.776702090E-1,-1.440994024E0,-1.997844577E0,1.056578040E0
8.801697920E-1,-1.469755292E0,-1.614360690E0,9.256874919E-1
8.826693750E-1,-1.500647068E0,-1.215031385E0,7.925333977E-1
8.851689590E-1,-1.534734488E0,-7.997236848E-1,6.647053957E-1
8.876685420E-1,-1.561365247E0,-3.800218701E-1,5.496602654E-1
8.901680730E-1,-1.577343822E0,9.720250964E-3,4.484631121E-1
8.926661980E-1,-1.581604719E0,3.484643400E-1,3.557878435E-1
8.951657820E-1,-1.568821907E0,6.125090122E-1,2.781589627E-1
8.976653650E-1,-1.545386791E0,8.063814044E-1,2.163754553E-1
9.001649480E-1,-1.510234118E0,9.033176303E-1,1.780270636E-1
9.026645320E-1,-1.467624784E0,8.990566730E-1,1.609833390E-1
9.051640630E-1,-1.425015450E0,8.010552526E-1,1.631138027E-1
9.076636460E-1,-1.384536624E0,6.274222732E-1,1.822880059E-1
9.101632300E-1,-1.344057798E0,4.079842567E-1,2.131797522E-1
9.126628130E-1,-1.311035514E0,1.609833390E-1,2.504629195E-1
9.151623960E-1,-1.281342149E0,-9.573781490E-2,2.952027023E-1
9.176619800E-1,-1.250450373E0,-3.480648994E-1,3.473991156E-1
9.201615110E-1,-1.225950003E0,-5.898727775E-1,3.920057416E-1
9.226596360E-1,-1.204645395E0,-8.103760481E-1,4.388760030E-1
9.251592190E-1,-1.181210279E0,-1.008376241E0,4.857462645E-1
9.276588020E-1,-1.157775164E0,-1.178813457E0,5.304860473E-1
9.301583860E-1,-1.137535691E0,-1.305576205E0,5.688344240E-1
9.326579690E-1,-1.114100575E0,-1.408903837E0,6.039870977E-1
9.351575000E-1,-1.083208799E0,-1.511033058E0,6.434007287E-1
9.376570840E-1,-1.049121380E0,-1.607969284E0,6.796186566E-1
9.401566670E-1,-1.019294858E0,-1.688926935E0,7.147713304E-1
9.426562500E-1,-9.873378873E-1,-1.736862421E0,7.531197667E-1
9.451558340E-1,-9.553808570E-1,-1.756036639E0,7.882724404E-1
9.476554170E-1,-9.287500381E-1,-1.744319081E0,8.212946653E-1
9.501549480E-1,-9.106410742E-1,-1.699579239E0,8.511211872E-1
9.526530730E-1,-8.967930675E-1,-1.631404400E0,8.745563030E-1
9.551526570E-1,-8.861407042E-1,-1.540859580E0,8.947957158E-1
9.576522400E-1,-8.840102553E-1,-1.444056511E0,9.118394852E-1
9.601518230E-1,-8.872059584E-1,-1.334337473E0,9.246222377E-1
9.626514070E-1,-9.031844735E-1,-1.217161894E0,9.288831949E-1
9.651509380E-1,-9.223586321E-1,-1.093594909E0,9.267527461E-1
9.676505210E-1,-9.543156624E-1,-9.689626098E-1,9.150351882E-1
9.701501050E-1,-9.958597422E-1,-8.402025700E-1,8.990566730E-1
9.726496880E-1,-1.042729974E0,-7.198312283E-1,8.788172603E-1
9.751492710E-1,-1.097056866E0,-6.122426987E-1,8.479254842E-1
9.776488550E-1,-1.152449012E0,-5.195674300E-1,8.127728105E-1
9.801483860E-1,-1.213167310E0,-4.460663199E-1,7.733591795E-1
9.826464590E-1,-1.271755099E0,-3.981308341E-1,7.296846509E-1
9.851460420E-1,-1.325948834E0,-3.864132762E-1,6.806839108E-1
9.876456250E-1,-1.377079964E0,-4.066527188E-1,6.327484250E-1
9.901452090E-1,-1.426080704E0,-4.450010955E-1,5.858781338E-1
9.926447920E-1,-1.468690038E0,-4.950670600E-1,5.379426479E-1
9.951443230E-1,-1.507038474E0,-5.515244007E-1,4.921376705E-1
9.976439070E-1,-1.534734488E0,-6.111774445E-1,4.442021847E-1
1.000143490E0,-1.553908706E0,-6.729609370E-1,3.920057416E-1
1.002643073E0,-1.566691518E0,-7.368749380E-1,3.399424851E-1
1.005142657E0,-1.560300112E0,-8.284850121E-1,2.920069993E-1
1.007642240E0,-1.543256402E0,-9.242228270E-1,2.547238469E-1
1.010141771E0,-1.523016930E0,-1.007310987E0,2.174406946E-1
1.012639896E0,-1.499581814E0,-1.076551080E0,1.790923029E-1
1.015139480E0,-1.470820546E0,-1.135138988E0,1.450048387E-1
1.017639063E0,-1.437798262E0,-1.183074474E0,1.162435561E-1
1.020138646E0,-1.403710842E0,-1.213966131E0,8.748225868E-2
1.022638230E0,-1.371753812E0,-1.228879452E0,6.724283099E-2
1.025137761E0,-1.336601138E0,-1.226748943E0,5.339480564E-2
1.027637344E0,-1.304777265E0,-1.212900996E0,4.487293959E-2
1.030136927E0,-1.274950743E0,-1.188400626E0,4.167724028E-2
1.032636511E0,-1.247254729E0,-1.159639359E0,4.593817517E-2
1.035136094E0,-1.225950003E0,-1.131943226E0,5.019910634E-2
1.037635677E0,-1.209971547E0,-1.114899516E0,5.872096866E-2
1.040135209E0,-1.196123481E0,-1.099986196E0,7.043853402E-2
1.042633334E0,-1.183340788E0,-1.093594909E0,8.535179496E-2
1.045132917E0,-1.169492722E0,-1.087203503E0,1.034607589E-1
1.047632448E0,-1.156709909E0,-1.072290182E0,1.279611140E-1
1.050131980E0,-1.138600945E0,-1.058442116E0,1.545919478E-1
1.052631563E0,-1.123687744E0,-1.039268017E0,1.822880059E-1
1.055131094E0,-1.111970067E0,-1.012637138E0,2.099840641E-1
1.057630625E0,-1.104513526E0,-9.881367683E-1,2.408758104E-1
1.060130209E0,-1.099187374E0,-9.678973556E-1,2.685718834E-1
1.062629740E0,-1.098122120E0,-9.519188404E-1,2.941374779E-1
1.065129271E0,-1.100252509E0,-9.391360879E-1,3.197030723E-1
1.067628855E0,-1.101317763E0,-9.327446818E-1,3.442034125E-1
1.070128386E0,-1.104513526E0,-9.380708337E-1,3.632444739E-1
1.072626771E0,-1.110904932E0,-9.402012825E-1,3.845491111E-1
1.075126355E0,-1.121557236E0,-9.455274343E-1,3.994623721E-1
1.077625886E0,-1.134340048E0,-9.487231374E-1,4.133104086E-1
1.080125417E0,-1.146057606E0,-9.487231374E-1,4.260932207E-1
1.082625000E0,-1.160970807E0,-9.465926886E-1,4.378107786E-1
1.085124532E0,-1.176949382E0,-9.370055795E-1,4.473978579E-1
1.087624063E0,-1.196123481E0,-9.242228270E-1,4.527240396E-1
1.090123646E0,-1.213167310E0,-9.082443118E-1,4.580501914E-1
1.092623177E0,-1.228080511E0,-8.816134930E-1,4.655068219E-1
1.095122709E0,-1.247254729E0,-8.487244248E-1,4.697677493E-1
1.097622292E0,-1.266428947E0,-8.082455397E-1,4.687025249E-1
1.100121823E0,-1.285603046E0,-7.517881989E-1,4.718982279E-1
1.102620209E0,-1.297320724E0,-6.953308582E-1,4.750939310E-1
1.105119792E0,-1.314231277E0,-6.665695906E-1,4.708330035E-1
1.107619323E0,-1.325948834E0,-6.463301182E-1,4.644415975E-1
1.110118855E0,-1.344057798E0,-6.271559596E-1,4.644415975E-1
1.112618438E0,-1.360036254E0,-6.143731475E-1,4.569849670E-1
1.115117969E0,-1.377079964E0,-5.941337347E-1,4.484631121E-1
1.117617500E0,-1.393058538E0,-5.706986189E-1,4.442021847E-1
1.120117084E0,-1.413297892E0,-5.504591465E-1,4.324845970E-1
1.122616615E0,-1.436733007E0,-5.291544795E-1,4.250279665E-1
1.125116146E0,-1.455907226E0,-5.121107697E-1,4.239627421E-1
1.127615730E0,-1.476146698E0,-4.982627332E-1,4.218322635E-1
1.130115261E0,-1.496386051E0,-4.886756539E-1,4.197018147E-1
1.132613646E0,-1.513429761E0,-4.833494723E-1,4.175713360E-1
1.135113230E0,-1.529408336E0,-4.886756539E-1,4.165061116E-1
1.137612761E0,-1.540060639E0,-4.971975088E-1,4.218322635E-1
1.140112292E0,-1.550712943E0,-5.131760240E-1,4.207670391E-1
1.142611875E0,-1.550712943E0,-5.430025458E-1,4.250279665E-1
1.145111407E0,-1.547517300E0,-5.738942623E-1,4.282236695E-1
1.147610938E0,-1.547517300E0,-6.090469956E-1,4.335498512E-1
1.150110521E0,-1.535799742E0,-6.441996694E-1,4.356803000E-1
1.152610052E0,-1.518756032E0,-6.761566401E-1,4.420717061E-1
1.155109584E0,-1.496386051E0,-7.027874589E-1,4.505935609E-1
1.157609167E0,-1.469755292E0,-7.283530831E-1,4.537892640E-1
1.160108698E0,-1.442059159E0,-7.485924959E-1,4.612458944E-1
1.162607084E0,-1.406906486E0,-7.581796050E-1,4.718982279E-1
1.165106667E0,-1.372819066E0,-7.592448592E-1,4.793548584E-1
1.167606198E0,-1.335535884E0,-7.507229447E-1,4.910724163E-1
1.170105730E0,-1.302646875E0,-7.336792350E-1,5.081161261E-1
1.172605313E0,-1.271755099E0,-7.102441192E-1,5.272903442E-1
1.175104844E0,-1.240863323E0,-6.825480461E-1,5.485950112E-1
1.177604375E0,-1.216362953E0,-6.580476761E-1,5.709648728E-1
1.180103959E0,-1.197188735E0,-6.410039663E-1,5.965304971E-1
1.182603490E0,-1.185471177E0,-6.303516626E-1,6.199656129E-1
1.185103021E0,-1.174818873E0,-6.228950024E-1,6.434007287E-1
1.187602605E0,-1.170557976E0,-6.271559596E-1,6.679010987E-1
1.190102136E0,-1.169492722E0,-6.452649236E-1,6.934667230E-1
1.192600521E0,-1.169492722E0,-6.623086333E-1,7.147713304E-1
1.195100105E0,-1.167362213E0,-6.868090034E-1,7.371412516E-1
1.197599636E0,-1.164166570E0,-7.102441192E-1,7.584459186E-1
1.200099167E0,-1.160970807E0,-7.304835320E-1,7.797505856E-1
1.202598750E0,-1.155644655E0,-7.475273013E-1,7.967942953E-1
1.205098282E0,-1.146057606E0,-7.571143508E-1,8.159685135E-1
1.207597813E0,-1.132209539E0,-7.645710111E-1,8.287512660E-1
1.210097396E0,-1.116231084E0,-7.645710111E-1,8.425993323E-1
1.212596927E0,-1.098122120E0,-7.571143508E-1,8.564473391E-1
1.215096459E0,-1.078947902E0,-7.464620471E-1,8.607082963E-1
1.217596042E0,-1.051251888E0,-7.315487862E-1,8.628387451E-1
1.220095573E0,-1.022490501E0,-7.102441192E-1,8.639039993E-1
1.222593959E0,-9.937292337E-1,-6.878741980E-1,8.617734909E-1
1.225093542E0,-9.564461112E-1,-6.687000394E-1,8.607082963E-1
1.227593073E0,-9.170324802E-1,-6.463301182E-1,8.553821445E-1
1.230092605E0,-8.776188493E-1,-6.292864084E-1,8.500559330E-1
1.232592188E0,-8.350095153E-1,-6.165035963E-1,8.479254842E-1
1.235091719E0,-7.870740294E-1,-5.983946323E-1,8.489907384E-1
1.237591250E0,-7.370080948E-1,-5.920032263E-1,8.521864414E-1
1.240090834E0,-6.838796139E-1,-5.877423286E-1,8.639039993E-1
1.242590365E0,-6.295527220E-1,-5.824161768E-1,8.745563030E-1
1.245089896E0,-5.773562789E-1,-5.760247707E-1,8.916000128E-1
1.247589480E0,-5.240946412E-1,-5.781552196E-1,9.086437821E-1
1.250089011E0,-4.750939310E-1,-5.738942623E-1,9.256874919E-1
1.252587396E0,-4.346150756E-1,-5.696333647E-1,9.363398552E-1
1.255086980E0,-3.973319232E-1,-5.600462556E-1,9.469921589E-1
1.257586511E0,-3.717663288E-1,-5.536548495E-1,9.469921589E-1
1.260086042E0,-3.547225893E-1,-5.504591465E-1,9.395354986E-1
1.262585625E0,-3.462007344E-1,-5.536548495E-1,9.278179407E-1
1.265085157E0,-3.483312130E-1,-5.547201037E-1,9.075785279E-1
1.267584688E0,-3.525921404E-1,-5.515244007E-1,8.788172603E-1
1.270084271E0,-3.600487709E-1,-5.589810014E-1,8.330122232E-1
1.272583802E0,-3.707011044E-1,-5.685681105E-1,7.818810344E-1
1.275083334E0,-3.834838867E-1,-5.856118798E-1,7.264889479E-1
1.277582917E0,-3.920057416E-1,-6.015903354E-1,6.668358445E-1
1.280082448E0,-3.930709958E-1,-6.218297482E-1,6.061176062E-1
1.282580886E0,-3.909405172E-1,-6.473953724E-1,5.507254601E-1
1.285080469E0,-3.781577349E-1,-6.687000394E-1,4.974638224E-1
1.287580000E0,-3.547225893E-1,-6.963961124E-1,4.452674091E-1
1.290079532E0,-3.280917704E-1,-7.230269313E-1,4.015928507E-1
1.292579115E0,-2.886781394E-1,-7.453967929E-1,3.664401472E-1
1.295078646E0,-2.428731322E-1,-7.688319087E-1,3.367467821E-1
1.297578177E0,-1.981333494E-1,-7.954627872E-1,3.133116663E-1
1.300077761E0,-1.491326243E-1,-8.146369457E-1,2.962679267E-1
1.302577292E0,-1.043928340E-1,-8.242240548E-1,2.792242169E-1
1.305076823E0,-6.617759913E-2,-8.167673945E-1,2.632457018E-1
1.307576407E0,-3.422060981E-2,-7.986584306E-1,2.451367527E-1
1.310075938E0,-4.394086078E-3,-7.635057569E-1,2.376801223E-1
1.312574323E0,2.223674022E-2,-7.240921259E-1,2.280930281E-1
1.315073907E0,5.099803209E-2,-6.793523431E-1,2.174406946E-1
1.317573438E0,8.082455397E-2,-6.356778145E-1,2.163754553E-1
1.320072969E0,1.234338731E-1,-5.909380317E-1,2.206363827E-1
1.322572552E0,1.724345982E-1,-5.440677404E-1,2.248973250E-1
1.325072084E0,2.278267145E-1,-4.918713570E-1,2.259625494E-1
1.327571615E0,2.874797583E-1,-4.375444651E-1,2.323539555E-1
1.330071198E0,3.535242081E-1,-3.789566457E-1,2.376801223E-1
1.332570730E0,4.227643609E-1,-3.118469715E-1,2.398105860E-1
1.335070261E0,4.952002168E-1,-2.489982247E-1,2.387453467E-1
1.337569844E0,5.696333647E-1,-1.894783229E-1,2.387453467E-1
1.340069375E0,6.505910754E-1,-1.266295761E-1,2.366148829E-1
1.342567761E0,7.358096838E-1,-6.484606117E-2,2.376801223E-1
1.345067344E0,8.306154609E-1,-4.127778113E-3,2.376801223E-1
1.347566875E0,9.328778386E-1,5.659050494E-2,2.376801223E-1
1.350066407E0,1.043662071E0,1.194392517E-1,2.323539555E-1
1.352565990E0,1.159639359E0,1.833532304E-1,2.344844192E-1
1.355065521E0,1.280010581E0,2.515281439E-1,2.312887162E-1
1.357565052E0,1.400381923E0,3.250292242E-1,2.195711583E-1
1.360064636E0,1.515427113E0,3.962666988E-1,2.078536004E-1
1.362564167E0,1.626211405E0,4.697677493E-1,1.780270636E-1
1.365063698E0,1.729538918E0,5.464645624E-1,1.396786869E-1
1.367563282E0,1.824211597E0,6.252917647E-1,9.174319357E-2
1.370062813E0,1.912625909E0,7.073147297E-1,3.315537795E-2
1.372561198E0,1.991453171E0,7.818810344E-1,-3.501953557E-2
1.375060782E0,2.068149805E0,8.489907384E-1,-1.138467789E-1
1.377560313E0,2.143781424E0,9.065132737E-1,-2.011958808E-1
1.380059844E0,2.215152025E0,9.437964559E-1,-2.862813771E-1
1.382559427E0,2.291848898E0,9.629706740E-1,-3.778914213E-1
1.385058959E0,2.367347240E0,9.565792680E-1,-4.769580960E-1
1.387558490E0,2.442978859E0,9.267527461E-1,-5.738942623E-1
1.390058073E0,2.517544985E0,8.734911084E-1,-6.665695906E-1
1.392557605E0,2.588915825E0,7.925333977E-1,-7.656362653E-1
1.395057136E0,2.653894901E0,6.913362145E-1,-8.604419827E-1
1.397556719E0,2.713547945E0,5.805519819E-1,-9.519188404E-1
1.400056250E0,2.771070480E0,4.729634523E-1,-1.036072254E0
1.402554636E0,2.821136475E0,3.685706258E-1,-1.107442856E0
1.405054219E0,2.868006706E0,2.707023323E-1,-1.166030645E0
1.407553750E0,2.909550905E0,1.982664913E-1,-1.207574844E0
1.410053282E0,2.950029612E0,1.460700780E-1,-1.225683689E0
1.412552865E0,2.985049248E0,1.205044836E-1,-1.223553300E0
1.415052396E0,3.019136667E0,1.215697154E-1,-1.209705234E0
1.417551927E0,3.051093578E0,1.524614692E-1,-1.186270118E0
1.420051511E0,3.084115982E0,2.067883611E-1,-1.150052190E0
1.422551042E0,3.113942385E0,2.728328109E-1,-1.113834262E0
1.425050573E0,3.139508009E0,3.431381881E-1,-1.078681588E0
1.427550157E0,3.170399904E0,4.101147056E-1,-1.045659423E0
1.430049688E0,3.193835020E0,4.655068219E-1,-1.013702393E0
1.432548073E0,3.213009119E0,5.049204826E-1,-9.881367683E-1
1.435047657E0,3.223661423E0,5.347470045E-1,-9.625712037E-1
1.437547188E0,3.226857185E0,5.422036052E-1,-9.402012825E-1
1.440046719E0,3.222596169E0,5.358121991E-1,-9.125052094E-1
1.442546302E0,3.208748102E0,5.091813803E-1,-8.826786876E-1
1.445045834E0,3.179986954E0,4.676373005E-1,-8.465939164E-1
1.447545365E0,3.144834280E0,4.015928507E-1,-8.007889390E-1
1.450044948E0,3.100094318E0,3.058550358E-1,-7.517881989E-1
1.452544480E0,3.044702291E0,1.790923029E-1,-6.921351552E-1
1.455044011E0,2.985049248E0,3.315537795E-2,-6.335473657E-1
1.457543594E0,2.929790258E0,-1.266295761E-1,-5.738942623E-1
1.460043125E0,2.865876198E0,-3.054555655E-1,-5.121107697E-1
1.462541511E0,2.812614679E0,-4.929365814E-1,-4.524577260E-1
1.465041094E0,2.772135735E0,-6.772218943E-1,-3.960003853E-1
1.467540625E0,2.740178823E0,-8.581783772E-1,-3.448691964E-1
1.470040157E0,2.711417437E0,-1.019028544E0,-3.043903410E-1
1.472539740E0,2.693308592E0,-1.167095900E0,-2.745638192E-1
1.475039271E0,2.683721542E0,-1.294923902E0,-2.555227578E-1
1.477538802E0,2.674134254E0,-1.393990517E0,-2.406095117E-1
1.480038386E0,2.668808222E0,-1.467358470E0,-2.416747361E-1
1.482537917E0,2.664547205E0,-1.522750616E0,-2.523270845E-1
1.485037448E0,2.653894901E0,-1.566425204E0,-2.713681161E-1
1.487537032E0,2.634720802E0,-1.583468914E0,-3.001294136E-1
1.490036563E0,2.602763653E0,-1.574947000E0,-3.395430148E-1
1.492535000E0,2.560154438E0,-1.522750616E0,-3.938699067E-1
1.495034584E0,2.504762411E0,-1.409969091E0,-4.684362113E-1
1.497534115E0,2.435522079E0,-1.257640719E0,-5.493939519E-1
1.500033646E0,2.358825445E0,-1.087203503E0,-6.260907054E-1
1.502533230E0,2.267348528E0,-8.848091960E-1,-7.017222643E-1
1.505032761E0,2.175738335E0,-6.697652340E-1,-7.752233148E-1
1.507532292E0,2.112889767E0,-4.758928418E-1,-8.370068669E-1
1.510031875E0,2.079867363E0,-3.161078990E-1,-8.848091960E-1
1.512531407E0,2.064954281E0,-1.671084315E-1,-9.103747606E-1
1.515030938E0,2.053236723E0,-1.584534161E-2,-9.327446818E-1
1.517530521E0,2.045779943E0,1.354177445E-1,-9.487231374E-1
1.520030052E0,2.043649673E0,2.717675865E-1,-9.540493488E-1
1.522528438E0,2.055367231E0,3.909405172E-1,-9.455274343E-1
1.525028021E0,2.073476076E0,5.006595254E-1,-9.327446818E-1
1.527527552E0,2.103302717E0,6.039870977E-1,-9.125052094E-1
1.530027084E0,2.141650915E0,6.977276206E-1,-8.741568327E-1
1.532526667E0,2.185325623E0,7.882724404E-1,-8.316806555E-1
1.535026198E0,2.225804329E0,8.884043694E-1,-7.869408727E-1
1.537525730E0,2.266283274E0,9.852073789E-1,-7.358096838E-1
1.540025313E0,2.296109676E0,1.077882648E0,-6.836133003E-1
1.542524844E0,2.309957743E0,1.159905553E0,-6.399387121E-1
1.545024375E0,2.313153505E0,1.225950003E0,-5.941337347E-1
1.547523959E0,2.305696964E0,1.287733555E0,-5.483286977E-1
1.550023490E0,2.292914152E0,1.340995193E0,-5.142412186E-1
1.552521875E0,2.270544291E0,1.387865424E0,-4.929365814E-1
1.555021407E0,2.237521887E0,1.428344369E0,-4.769580960E-1
1.557520938E0,2.206630230E0,1.457105637E0,-4.599143565E-1
1.560020469E0,2.170412302E0,1.477345109E0,-4.535229504E-1
1.562520000E0,2.133129120E0,1.497584462E0,-4.513925016E-1
1.565019532E0,2.100106955E0,1.514628172E0,-4.471315742E-1
1.567519063E0,2.067084789E0,1.528476238E0,-4.471315742E-1
1.570018594E0,2.031931877E0,1.545519948E0,-4.524577260E-1
1.572518125E0,1.998909712E0,1.567889810E0,-4.620448351E-1
1.575017657E0,1.969083190E0,1.597583175E0,-4.716319144E-1
1.577517188E0,1.943517685E0,1.623148799E0,-4.897408783E-1
1.580016719E0,1.922212958E0,1.640192509E0,-5.099803209E-1
1.582515313E0,1.907299757E0,1.640192509E0,-5.312849879E-1
1.585014844E0,1.891321182E0,1.635931611E0,-5.525896549E-1
1.587514375E0,1.875342727E0,1.617822647E0,-5.749595165E-1
1.590013907E0,1.866820931E0,1.603974581E0,-5.973294377E-1
1.592513438E0,1.856168509E0,1.587996125E0,-6.186341047E-1
1.595012969E0,1.843385696E0,1.573216081E0,-6.420692205E-1
1.597512500E0,1.829537749E0,1.561498404E0,-6.697652340E-1
1.600012032E0,1.811428785E0,1.554041862E0,-6.921351552E-1
1.602511563E0,1.790124059E0,1.542324305E0,-7.113093734E-1
1.605011094E0,1.773080349E0,1.529541492E0,-7.283530831E-1
1.607510625E0,1.752840996E0,1.505041122E0,-7.411358953E-1
1.610010157E0,1.731669426E0,1.468823195E0,-7.432663441E-1
1.612508750E0,1.708234310E0,1.436866164E0,-7.464620471E-1
1.615008282E0,1.687994838E0,1.416626811E0,-7.475273013E-1
1.617507813E0,1.659233570E0,1.412365794E0,-7.453967929E-1
1.620007344E0,1.625146151E0,1.440061927E0,-7.443315983E-1
1.622506875E0,1.593189120E0,1.482671261E0,-7.411358953E-1
1.625006407E0,1.564427853E0,1.522084832E0,-7.304835320E-1
1.627505938E0,1.532470822E0,1.568955064E0,-7.198312283E-1
1.630005469E0,1.503709555E0,1.631670713E0,-7.049179673E-1
1.632505000E0,1.476013541E0,1.691323757E0,-6.846785545E-1
1.635004532E0,1.447252274E0,1.739259243E0,-6.655043364E-1
1.637504063E0,1.414229989E0,1.778672814E0,-6.495258212E-1
1.640003594E0,1.383338213E0,1.822347403E0,-6.410039663E-1
1.642502188E0,1.356707454E0,1.871348143E0,-6.207645535E-1
1.645001719E0,1.326880932E0,1.918218374E0,-6.005251408E-1
1.647501250E0,1.297054410E0,1.953371048E0,-5.792204738E-1
1.650000782E0,1.270423532E0,1.976806164E0,-5.525896549E-1
1.652500313E0,1.243792653E0,1.987458467E0,-5.227631330E-1
1.654999844E0,1.210770488E0,1.984262824E0,-4.971975088E-1
1.657499375E0,1.173487306E0,1.980001926E0,-4.705666900E-1
1.659998907E0,1.133008480E0,1.966153860E0,-4.492620230E-1
1.662498438E0,1.091597557E0,1.950175405E0,-4.226312041E-1
1.664997969E0,1.048988223E0,1.927805424E0,-3.981308341E-1
1.667497500E0,1.004248381E0,1.911826968E0,-3.778914213E-1
1.669997032E0,9.573782086E-1,1.889457107E0,-3.597824574E-1
1.672495625E0,9.062470198E-1,1.869217634E0,-3.427387178E-1
1.674995157E0,8.551158309E-1,1.850043416E0,-3.299559355E-1
1.677494688E0,7.997236848E-1,1.827673554E0,-3.224993050E-1
1.679994219E0,7.432663441E-1,1.798912287E0,-3.171731234E-1
1.682493750E0,6.836133003E-1,1.768020511E0,-3.107817471E-1
1.684993282E0,6.196992993E-1,1.730737329E0,-3.129121959E-1
1.687492813E0,5.493939519E-1,1.692389011E0,-3.203688264E-1
1.689992344E0,4.770912528E-1,1.648714423E0,-3.310211599E-1
1.692491875E0,3.993292153E-1,1.600778937E0,-3.406082690E-1
1.694991407E0,3.194367588E-1,1.546585202E0,-3.512606025E-1
1.697490938E0,2.374138087E-1,1.492258310E0,-3.619129062E-1
1.699990469E0,1.532603949E-1,1.436866164E0,-3.778914213E-1
1.702489115E0,6.697652489E-2,1.376147866E0,-3.949351311E-1
1.704988646E0,-1.611164957E-2,1.312233925E0,-4.055874646E-1
1.707488177E0,-1.054580659E-1,1.242993832E0,-4.194355011E-1
1.709987709E0,-1.917419434E-1,1.171623230E0,-4.332835376E-1
1.712487240E0,-2.812215090E-1,1.100252509E0,-4.460663199E-1
1.714986771E0,-3.738967776E-1,1.029947162E0,-4.599143565E-1
1.717486302E0,-4.591154456E-1,9.576444626E-1,-4.769580960E-1
1.719985834E0,-5.422036052E-1,8.916000128E-1,-4.886756539E-1
1.722485365E0,-6.274222732E-1,8.255556226E-1,-5.003932118E-1
1.724984896E0,-7.061163187E-1,7.584459186E-1,-5.067846179E-1
1.727484427E0,-7.870740294E-1,6.945319176E-1,-5.131760240E-1
1.729983959E0,-8.659012914E-1,6.295527220E-1,-5.153064728E-1
1.732482552E0,-9.457937479E-1,5.635082722E-1,-5.153064728E-1
1.734982084E0,-1.020360112E0,5.006595254E-1,-5.195674300E-1
1.737481615E0,-1.097056866E0,4.399412274E-1,-5.195674300E-1
1.739981146E0,-1.171623230E0,3.760272563E-1,-5.163717270E-1
1.742480677E0,-1.248319983E0,3.143768907E-1,-5.110455155E-1
1.744980209E0,-1.323818326E0,2.493976802E-1,-5.099803209E-1
1.747479740E0,-1.398384690E0,1.801575422E-1,-4.993279874E-1
1.749979271E0,-1.474016190E0,1.151783243E-1,-4.897408783E-1
1.752478802E0,-1.552843451E0,4.806863889E-2,-4.854799509E-1
1.754978334E0,-1.626344562E0,-2.223674022E-2,-4.758928418E-1
1.757477865E0,-1.700910807E0,-9.254211932E-2,-4.663057625E-1
1.759977396E0,-1.779738069E0,-1.649779677E-1,-4.577838778E-1
1.762475990E0,-1.848978162E0,-2.374138087E-1,-4.471315742E-1
1.764975521E0,-1.920215726E0,-3.043903410E-1,-4.332835376E-1
1.767475052E0,-1.986260176E0,-3.651086092E-1,-4.183702767E-1
1.769974584E0,-2.048043728E0,-4.247616827E-1,-4.055874646E-1
1.772474115E0,-2.107696772E0,-4.833494723E-1,-3.938699067E-1
1.774973646E0,-2.162023544E0,-5.366111398E-1,-3.789566457E-1
1.777473177E0,-2.209959030E0,-5.866770744E-1,-3.619129062E-1
1.779972709E0,-2.251503229E0,-6.356778145E-1,-3.523258269E-1
1.782472240E0,-2.288786411E0,-6.804175973E-1,-3.448691964E-1
1.784971771E0,-2.320743322E0,-7.187659740E-1,-3.320863843E-1
1.787471302E0,-2.345243692E0,-7.560491562E-1,-3.203688264E-1
1.789970834E0,-2.365483046E0,-7.805495262E-1,-3.033251166E-1
1.792469427E0,-2.374004841E0,-7.933322787E-1,-2.809551954E-1
1.794968959E0,-2.369744062E0,-7.922670841E-1,-2.639114857E-1
1.797468490E0,-2.354830742E0,-7.816147208E-1,-2.448704392E-1
1.799968021E0,-2.328199863E0,-7.560491562E-1,-2.256962508E-1
1.802467552E0,-2.284525394E0,-7.113093734E-1,-2.054568231E-1
1.804967084E0,-2.228068113E0,-6.484606266E-1,-1.873478591E-1
1.807466615E0,-2.148175478E0,-5.706986189E-1,-1.681736708E-1
1.809966146E0,-2.054435015E0,-4.886756539E-1,-1.436733007E-1
1.812465677E0,-1.939389825E0,-3.949351311E-1,-1.170424819E-1
1.814965209E0,-1.811695099E0,-3.022598624E-1,-8.721595258E-2
1.817464740E0,-1.667888641E0,-2.086525112E-1,-5.312849581E-2
1.819964271E0,-1.515560269E0,-1.202381775E-1,-1.371487509E-2
1.822462917E0,-1.358971000E0,-3.608476743E-2,2.676397935E-2
1.824962448E0,-1.185471177E0,3.422060981E-2,6.724283099E-2
1.827461980E0,-1.012903452E0,9.387365729E-2,1.034607589E-1
1.829961511E0,-8.382052183E-1,1.407439113E-1,1.279611140E-1
1.832461042E0,-6.636402011E-1,1.695052087E-1,1.439396143E-1
1.834960573E0,-4.932028949E-1,1.961360276E-1,1.460700780E-1
1.837460105E0,-3.206351399E-1,2.153102309E-1,1.386134475E-1
1.839959636E0,-1.448716968E-1,2.312887162E-1,1.173087880E-1
1.842459167E0,2.862813696E-2,2.504629195E-1,8.854749799E-2
1.844958698E0,1.958697289E-1,2.813546658E-1,5.446003750E-2
1.847458230E0,3.545894325E-1,3.271597028E-1,2.143781446E-2
1.849957761E0,4.983958900E-1,3.888100684E-1,-1.691057347E-2
1.852456355E0,6.239602566E-1,4.697677493E-1,-5.525896326E-2
1.854955886E0,7.326140404E-1,5.688344240E-1,-9.573781490E-2
1.857455417E0,8.242240548E-1,6.838796139E-1,-1.404775977E-1
1.859954948E0,8.998556137E-1,8.095771074E-1,-1.894783229E-1
1.862454480E0,9.627043605E-1,9.437964559E-1,-2.395442724E-1
1.864954011E0,1.010639787E0,1.078947902E0,-2.862813771E-1
1.867453542E0,1.043662071E0,1.204645395E0,-3.288906813E-1
1.869953073E0,1.061771035E0,1.318625331E0,-3.619129062E-1
1.872452605E0,1.074553847E0,1.418757200E0,-3.938699067E-1
1.874952136E0,1.076684237E0,1.502910614E0,-4.205007255E-1
1.877451667E0,1.061771035E0,1.570020318E0,-4.428706169E-1
1.879951198E0,1.039401174E0,1.616757393E0,-4.758928418E-1
1.882449792E0,1.010639787E0,1.648714423E0,-5.046541691E-1
1.884949323E0,9.690957665E-1,1.667888641E0,-5.302197337E-1
1.887448855E0,9.243559837E-1,1.674280047E0,-5.557853580E-1
1.889948386E0,8.732247949E-1,1.675345182E0,-5.792204738E-1
1.892447917E0,8.220936060E-1,1.674280047E0,-5.930684805E-1
1.894947448E0,7.645710111E-1,1.674280047E0,-6.069164872E-1
1.897446980E0,7.027874589E-1,1.680671453E0,-6.143731475E-1
1.899946511E0,6.463301182E-1,1.700910807E0,-6.143731475E-1
1.902446042E0,5.930684805E-1,1.727541685E0,-6.101121902E-1
1.904945573E0,5.483286977E-1,1.770151019E0,-6.026555896E-1
1.907445105E0,5.111786723E-1,1.822347403E0,-5.909380317E-1
1.909944636E0,4.802869260E-1,1.876674294E0,-5.738942623E-1
1.912443230E0,4.515256584E-1,1.926740289E0,-5.461982489E-1
1.914942761E0,4.270252883E-1,1.965088606E0,-5.110455155E-1
1.917442292E0,3.971987665E-1,1.991719484E0,-4.790885448E-1
1.919941823E0,3.652417660E-1,1.993849874E0,-4.428706169E-1
1.922441355E0,3.205019832E-1,1.971480012E0,-4.151745737E-1
1.924940886E0,2.608489394E-1,1.926740289E0,-3.885437548E-1
1.927440417E0,1.894783229E-1,1.853239179E0,-3.587172329E-1
1.929939948E0,9.999874979E-2,1.764824867E0,-3.299559355E-1
1.932439480E0,-2.263620263E-3,1.664692879E0,-3.118469715E-1
1.934939011E0,-1.129147038E-1,1.558302760E0,-3.075860441E-1
1.937438542E0,-2.300903350E-1,1.454975128E0,-3.139774203E-1
1.939938073E0,-3.472659588E-1,1.361234665E0,-3.374125659E-1
1.942436719E0,-4.601806700E-1,1.267494202E0,-3.672390878E-1
1.944936250E0,-5.698996782E-1,1.171623230E0,-4.045222402E-1
1.947435782E0,-6.742925048E-1,1.081078410E0,-4.460663199E-1
1.949935313E0,-7.625737190E-1,9.766855240E-1,-4.897408783E-1
1.952434844E0,-8.456618786E-1,8.575125933E-1,-5.387415886E-1
1.954934375E0,-9.202281833E-1,7.030537724E-1,-5.856118798E-1
1.957433907E0,-9.894683361E-1,5.038552284E-1,-6.239602566E-1
1.959933438E0,-1.050186634E0,2.685718834E-1,-6.559172273E-1
1.962432969E0,-1.102383018E0,5.459319334E-3,-6.697652340E-1
1.964932500E0,-1.144992352E0,-2.734985650E-1,-6.655043364E-1
1.967432032E0,-1.176949382E0,-5.504591465E-1,-6.495258212E-1
1.969931563E0,-1.186536431E0,-8.188979030E-1,-6.250254512E-1
1.972430157E0,-1.172688365E0,-1.072290182E0,-5.898727775E-1
1.974929688E0,-1.135405302E0,-1.311967611E0,-5.504591465E-1
1.977429219E0,-1.071491241E0,-1.555772781E0,-5.099803209E-1
1.979928750E0,-9.798812270E-1,-1.799711227E0,-4.652405083E-1
1.982428282E0,-8.669665456E-1,-2.027671099E0,-4.141093493E-1
1.984927813E0,-7.402037978E-1,-2.219279766E0,-3.693695366E-1
1.987427344E0,-6.018566489E-1,-2.364151478E0,-3.235645294E-1
1.989926875E0,-4.452674091E-1,-2.452565908E0,-2.937380075E-1
1.992426407E0,-2.833519876E-1,-2.467479229E0,-2.777595222E-1
1.994925938E0,-1.097190008E-1,-2.406760931E0,-2.745638192E-1
1.997425469E0,6.271559745E-2,-2.274672031E0,-2.958684862E-1
1.999925000E0,2.310224175E-1,-2.076538563E0,-3.384777904E-1
2.002423646E0,3.822855055E-1,-1.831668139E0,-3.917394578E-1
2.004923177E0,5.195674300E-1,-1.557903290E0,-4.599143565E-1
2.007422709E0,6.367430687E-1,-1.291728139E0,-5.323501825E-1
2.009922240E0,7.411358953E-1,-1.040333152E0,-6.047860384E-1
2.012421771E0,8.380720615E-1,-8.348763585E-1,-6.559172273E-1
2.014921302E0,9.307473302E-1,-6.836133003E-1,-6.740261912E-1
2.017420834E0,1.022357345E0,-5.802856684E-1,-6.537867785E-1
2.019920365E0,1.107576013E0,-5.089150667E-1,-6.069164872E-1
2.022419896E0,1.172422051E0,-4.599143565E-1,-5.344806910E-1
2.024919427E0,1.204379082E0,-4.194355011E-1,-4.450010955E-1
2.027418959E0,1.189465880E0,-3.746957183E-1,-3.352820873E-1
2.029918490E0,1.101184607E0,-3.246297538E-1,-2.203700840E-1
2.032417084E0,9.254211783E-1,-2.671071887E-1,-1.042596847E-1
2.034916615E0,6.782871485E-1,-1.990654171E-1,1.291595027E-2
2.037416146E0,3.663070202E-1,-1.138467789E-1,1.247654185E-1
2.039915677E0,7.323476952E-3,-6.258244161E-3,2.195711583E-1
2.042415209E0,-3.664401472E-1,1.364829838E-1,3.015941083E-1
2.044914740E0,-7.252905369E-1,3.133116663E-1,3.749620318E-1
2.047414271E0,-1.053382277E0,5.049204826E-1,4.282236695E-1
2.049913802E0,-1.327014089E0,6.679010987E-1,4.612458944E-1
2.052413334E0,-1.541125894E0,7.829462886E-1,4.857462645E-1
2.054912865E0,-1.707302213E0,8.425993323E-1,5.123770833E-1
2.057412396E0,-1.838325858E0,8.543168902E-1,5.390079021E-1
2.059911927E0,-1.943650842E0,8.191642165E-1,5.613778234E-1
2.062410573E0,-2.033130407E0,7.445979118E-1,5.869433880E-1
2.064910105E0,-2.103435755E0,6.402050257E-1,6.114437580E-1
2.067409636E0,-2.158827782E0,5.070509315E-1,6.370093226E-1
2.069909115E0,-2.204632998E0,3.175725937E-1,6.668358445E-1
2.072408646E0,-2.241915941E0,6.404713541E-2,6.945319176E-1
2.074908177E0,-2.256829262E0,-2.352833450E-1,7.179670334E-1
2.077407657E0,-2.245111704E0,-5.738942623E-1,7.488588095E-1
2.079907188E0,-2.218480825E0,-9.742887616E-1,7.808157802E-1
2.082406719E0,-2.178002119E0,-1.453643560E0,8.180989623E-1
2.084906198E0,-2.142849445E0,-1.986127019E0,8.681648970E-1
2.087405730E0,-2.124740362E0,-2.543110609E0,9.310136437E-1
2.089905261E0,-2.122609854E0,-3.103290081E0,1.007577300E0
2.092404011E0,-2.134327412E0,-3.647490978E0,1.095991611E0
2.094903542E0,-2.169480324E0,-4.154408932E0,1.192927837E0
2.097403073E0,-2.213154793E0,-4.587825298E0,1.289864063E0
2.099902552E0,-2.260025024E0,-4.932960987E0,1.381474137E0
2.102402084E0,-2.293047190E0,-5.170374870E0,1.451779485E0
2.104901615E0,-2.296242952E0,-5.284354687E0,1.493323565E0
2.107401094E0,-2.253633499E0,-5.248136997E0,1.495453954E0
2.109900625E0,-2.169480324E0,-5.067180157E0,1.452844739E0
2.112400157E0,-2.046978474E0,-4.755066872E0,1.372952223E0
2.114899636E0,-1.905435562E0,-4.339759350E0,1.260037541E0
2.117399167E0,-1.758433461E0,-3.852015734E0,1.131144285E0
2.119898698E0,-1.609300733E0,-3.322594881E0,1.001185894E0
2.122397500E0,-1.458037734E0,-2.784785509E0,8.745563030E-1
2.124897032E0,-1.316361666E0,-2.275737286E0,7.637720704E-1
2.127396563E0,-1.188666940E0,-1.800776482E0,6.689663529E-1
2.129896042E0,-1.080013156E0,-1.376946807E0,5.965304971E-1
2.132395573E0,-1.000120640E0,-9.955934286E-1,5.443340540E-1
2.134895105E0,-9.532504082E-1,-6.569824815E-1,5.049204826E-1
2.137394584E0,-9.372718930E-1,-3.523258269E-1,4.836157858E-1
2.139894115E0,-9.585765600E-1,-7.869409025E-2,4.633763731E-1
2.142393646E0,-1.010772943E0,1.673747450E-1,4.452674091E-1
2.144893125E0,-1.085339308E0,3.749620318E-1,4.122451842E-1
2.147392657E0,-1.167362213E0,5.411383510E-1,3.611139953E-1
2.149892188E0,-1.250450373E0,6.561835408E-1,2.994636297E-1
2.152390938E0,-1.324883580E0,7.179670334E-1,2.238320857E-1
2.154890469E0,-1.387732267E0,7.190322876E-1,1.513962448E-1
2.157390000E0,-1.442059159E0,6.625749469E-1,8.215609938E-2
2.159889480E0,-1.492125154E0,5.592473149E-1,2.569874749E-2
2.162389011E0,-1.530473590E0,4.239627421E-1,-1.051917579E-2
2.164888542E0,-1.558169603E0,2.664414048E-1,-3.288906813E-2
2.167388021E0,-1.570952415E0,1.013302878E-1,-3.821523488E-2
2.169887552E0,-1.577343822E0,-8.828118443E-2,-2.649767138E-2
2.172387084E0,-1.575213313E0,-3.054555655E-1,1.198387123E-3
2.174886563E0,-1.561365247E0,-5.312849879E-1,4.061200842E-2
2.177386094E0,-1.536864996E0,-7.485924959E-1,8.535179496E-2
2.179885625E0,-1.500647068E0,-9.657669067E-1,1.428743750E-1
2.182384375E0,-1.454841971E0,-1.164965510E0,2.078536004E-1
2.184883907E0,-1.405841231E0,-1.349250793E0,2.781589627E-1
2.187383438E0,-1.353644848E0,-1.490793586E0,3.536573648E-1
2.189882917E0,-1.298385859E0,-1.589860320E0,4.356803000E-1
2.192382448E0,-1.241928577E0,-1.648448110E0,5.177032351E-1
2.194881980E0,-1.178014517E0,-1.667622328E0,5.997262001E-1
2.197381459E0,-1.116231084E0,-1.646317601E0,6.817491055E-1
2.199880990E0,-1.050186634E0,-1.593055964E0,7.605763674E-1
2.202380521E0,-9.884030819E-1,-1.504641652E0,8.255556226E-1
2.204880000E0,-9.319457412E-1,-1.373751163E0,8.745563030E-1
2.207379532E0,-8.829450011E-1,-1.210770488E0,9.118394852E-1
2.209879063E0,-8.424661756E-1,-1.038202763E0,9.342093468E-1
2.212377865E0,-8.179658055E-1,-8.444634676E-1,9.395354986E-1
2.214877396E0,-7.987915874E-1,-6.346125603E-1,9.342093468E-1
2.217376927E0,-7.870740294E-1,-4.162397981E-1,9.246222377E-1
2.219876407E0,-7.881392837E-1,-2.161091566E-1,9.097089767E-1
2.222375938E0,-7.902697325E-1,-3.928046674E-2,8.852086663E-1
2.224875469E0,-8.019872904E-1,1.119826213E-1,8.532516360E-1
2.227374948E0,-8.243572116E-1,2.355496585E-1,8.149032593E-1
2.229874480E0,-8.552489877E-1,3.314206302E-1,7.776201367E-1
2.232374011E0,-8.914669156E-1,3.770924807E-1,7.445979118E-1
2.234873490E0,-9.266195893E-1,3.601819277E-1,7.169018388E-1
2.237373021E0,-9.692289233E-1,2.856155932E-1,6.796186566E-1
2.239872552E0,-1.021425366E0,1.577876359E-1,6.444659829E-1
2.242371302E0,-1.080013156E0,-1.691057347E-2,6.082480550E-1
2.244870834E0,-1.134340048E0,-2.235657871E-1,5.720301270E-1
2.247370365E0,-1.188666940E0,-4.556534290E-1,5.358121991E-1
2.249869844E0,-1.240863323E0,-6.942656040E-1,4.974638224E-1
2.252369375E0,-1.287733555E0,-9.231575727E-1,4.580501914E-1
2.254868907E0,-1.317426920E0,-1.124486566E0,4.143756330E-1
2.257368386E0,-1.340862036E0,-1.286401987E0,3.696358502E-1
2.259867917E0,-1.354710102E0,-1.400381923E0,3.239639997E-1
2.262367448E0,-1.361101508E0,-1.473749876E0,2.845503688E-1
2.264866927E0,-1.356840611E0,-1.513163567E0,2.504629195E-1
2.267366459E0,-1.344057798E0,-1.517424464E0,2.217016220E-1
2.269865990E0,-1.325948834E0,-1.490793586E0,1.982664913E-1
2.272364792E0,-1.298385859E0,-1.439795613E0,1.790923029E-1
2.274864323E0,-1.263233185E0,-1.373751163E0,1.609833390E-1
2.277363855E0,-1.225950003E0,-1.302380562E0,1.407439113E-1
2.279863334E0,-1.189732075E0,-1.236336112E0,1.226349548E-1
2.282362865E0,-1.154579401E0,-1.179878712E0,1.098521575E-1
2.284862396E0,-1.124752879E0,-1.133008480E0,9.600412846E-2
2.287361875E0,-1.103448272E0,-1.097855806E0,9.493889660E-2
2.289861407E0,-1.084274054E0,-1.068029284E0,9.174319357E-2
2.292360938E0,-1.072556496E0,-1.039268017E0,9.493889660E-2
2.294860417E0,-1.062969446E0,-1.011571884E0,1.023955271E-1
2.297359948E0,-1.060838938E0,-9.785496593E-1,1.098521575E-1
2.299859480E0,-1.065099835E0,-9.455274343E-1,1.183740199E-1
2.302358230E0,-1.073621750E0,-9.029181600E-1,1.268958896E-1
2.304857761E0,-1.084274054E0,-8.635045290E-1,1.300915778E-1
2.307357292E0,-1.097056866E0,-8.188979030E-1,1.375482082E-1
2.309856771E0,-1.113035321E0,-7.677667141E-1,1.460700780E-1
2.312356302E0,-1.136470437E0,-7.081136703E-1,1.545919478E-1
2.314855834E0,-1.160970807E0,-6.473953724E-1,1.652442664E-1
2.317355313E0,-1.191862583E0,-5.834813714E-1,1.758965999E-1
2.319854844E0,-1.222754359E0,-5.216978788E-1,1.854836941E-1
2.322354375E0,-1.261102796E0,-4.631100595E-1,1.950708032E-1
2.324853855E0,-1.296255469E0,-4.034570158E-1,2.067883611E-1
2.327353386E0,-1.331274986E0,-3.491301239E-1,2.185059190E-1
2.329852917E0,-1.366427660E0,-2.958684862E-1,2.280930281E-1
2.332351719E0,-1.394123673E0,-2.436720580E-1,2.430062890E-1
2.334851250E0,-1.417558789E0,-1.969349533E-1,2.557890713E-1
2.337350782E0,-1.432472110E0,-1.639127284E-1,2.621804774E-1
2.339850261E0,-1.439928770E0,-1.436733007E-1,2.653761804E-1
2.342349792E0,-1.440994024E0,-1.319557428E-1,2.696371078E-1
2.344849323E0,-1.434602618E0,-1.351514459E-1,2.664414048E-1
2.347348802E0,-1.419689298E0,-1.426080763E-1,2.643109560E-1
2.349848334E0,-1.398384690E0,-1.639127284E-1,2.611152530E-1
2.352347865E0,-1.377079964E0,-1.916087866E-1,2.515281439E-1
2.354847344E0,-1.350449204E0,-2.214353085E-1,2.419410497E-1
2.357346875E0,-1.321687818E0,-2.521939278E-1,2.334191799E-1
2.359846407E0,-1.295190215E0,-2.830856740E-1,2.195711583E-1
2.362345157E0,-1.272820354E0,-3.054555655E-1,2.067883611E-1
2.364844688E0,-1.250450373E0,-3.203688264E-1,1.993317306E-1
2.367344219E0,-1.228080511E0,-3.278254569E-1,1.993317306E-1
2.369843698E0,-1.215297699E0,-3.310211599E-1,1.950708032E-1
2.372343230E0,-1.205710649E0,-3.246297538E-1,1.993317306E-1
2.374842761E0,-1.196123481E0,-3.150426745E-1,2.110492885E-1
2.377342240E0,-1.189732075E0,-3.086512685E-1,2.259625494E-1
2.379841771E0,-1.184405923E0,-3.033251166E-1,2.440715134E-1
2.382341302E0,-1.176949382E0,-2.990641594E-1,2.696371078E-1
2.384840782E0,-1.167362213E0,-3.054555655E-1,2.994636297E-1
2.387340313E0,-1.162036061E0,-3.214340508E-1,3.260944486E-1
2.389839844E0,-1.156709909E0,-3.427387178E-1,3.547225893E-1
2.392338646E0,-1.150318503E0,-3.672390878E-1,3.866795897E-1
2.394838177E0,-1.138600945E0,-3.960003853E-1,4.218322635E-1
2.397337709E0,-1.131144285E0,-4.226312041E-1,4.559197426E-1
2.399837188E0,-1.125818133E0,-4.407401681E-1,4.910724163E-1
2.402336719E0,-1.122622490E0,-4.524577260E-1,5.219641924E-1
2.404836250E0,-1.120491982E0,-4.556534290E-1,5.560516119E-1
2.407335730E0,-1.116231084E0,-4.545882046E-1,5.901390910E-1
2.409835261E0,-1.120491982E0,-4.460663199E-1,6.199656129E-1
2.412334792E0,-1.124752879E0,-4.311530590E-1,6.455312371E-1
2.414834271E0,-1.127948642E0,-4.130440950E-1,6.689663529E-1
2.417333802E0,-1.136470437E0,-3.981308341E-1,6.924014688E-1
2.419833334E0,-1.141796589E0,-3.810871243E-1,7.137061357E-1
2.422332136E0,-1.149253249E0,-3.661738634E-1,7.243584394E-1
2.424831667E0,-1.155644655E0,-3.629781604E-1,7.296846509E-1
2.427331198E0,-1.157775164E0,-3.619129062E-1,7.382065058E-1
2.429830677E0,-1.160970807E0,-3.725652397E-1,7.392717004E-1
2.432330209E0,-1.155644655E0,-3.832175732E-1,7.360759974E-1
2.434829740E0,-1.153514266E0,-3.991960883E-1,7.328802943E-1
2.437329219E0,-1.147122860E0,-4.119788706E-1,7.296846509E-1
2.439828750E0,-1.137535691E0,-4.205007255E-1,7.222279906E-1
2.442328282E0,-1.127948642E0,-4.311530590E-1,7.126408815E-1
2.444827761E0,-1.113035321E0,-4.450010955E-1,7.030537724E-1
2.447327292E0,-1.099187374E0,-4.556534290E-1,6.913362145E-1
2.449826823E0,-1.082143545E0,-4.663057625E-1,6.796186566E-1
2.452325573E0,-1.061904192E0,-4.758928418E-1,6.689663529E-1
2.454825105E0,-1.043795228E0,-4.865451753E-1,6.583139896E-1
2.457324636E0,-1.020360112E0,-4.993279874E-1,6.487269402E-1
2.459824115E0,-9.958597422E-1,-5.089150667E-1,6.412702799E-1
2.462323646E0,-9.639027119E-1,-5.121107697E-1,6.338136196E-1
2.464823177E0,-9.319457412E-1,-5.153064728E-1,6.316831708E-1
2.467322657E0,-9.010539651E-1,-5.153064728E-1,6.327484250E-1
2.469822188E0,-8.627055883E-1,-5.142412186E-1,6.370093226E-1
2.472321719E0,-8.211615086E-1,-5.078498721E-1,6.487269402E-1
2.474821198E0,-7.753564715E-1,-4.993279874E-1,6.625749469E-1
2.477320730E0,-7.274209857E-1,-4.897408783E-1,6.764229536E-1
2.479820261E0,-6.774882078E-1,-4.833494723E-1,6.934667230E-1
2.482319063E0,-6.220960617E-1,-4.748276174E-1,7.126408815E-1
2.484818594E0,-5.677692294E-1,-4.673709869E-1,7.264889479E-1
2.487318125E0,-5.134423375E-1,-4.577838778E-1,7.371412516E-1
2.489817605E0,-4.591154456E-1,-4.460663199E-1,7.414022088E-1
2.492317136E0,-4.122451842E-1,-4.311530590E-1,7.392717004E-1
2.494816667E0,-3.749620318E-1,-4.109136462E-1,7.264889479E-1
2.497316146E0,-3.462007344E-1,-3.906742036E-1,6.998580694E-1
2.499815677E0,-3.259612918E-1,-3.672390878E-1,6.668358445E-1
2.502315209E0,-3.195699155E-1,-3.438039720E-1,6.252917647E-1
2.504814688E0,-3.217003644E-1,-3.203688264E-1,5.762910843E-1
2.507314219E0,-3.270265460E-1,-3.065207899E-1,5.251598954E-1
2.509813750E0,-3.355484009E-1,-2.969337106E-1,4.687025249E-1
2.512312500E0,-3.419398069E-1,-2.969337106E-1,4.133104086E-1
2.514812032E0,-3.451355100E-1,-3.011946380E-1,3.600487709E-1
2.517311563E0,-3.472659588E-1,-3.171731234E-1,3.101159632E-1
2.519811042E0,-3.387441039E-1,-3.427387178E-1,2.621804774E-1
2.522310573E0,-3.248960674E-1,-3.757609427E-1,2.174406946E-1
2.524810105E0,-3.099828064E-1,-4.183702767E-1,1.769618392E-1
2.527309584E0,-2.897433937E-1,-4.673709869E-1,1.439396143E-1
2.529809115E0,-2.663082480E-1,-5.185021758E-1,1.194392517E-1
2.532308646E0,-2.428731322E-1,-5.717638135E-1,9.706936032E-2
2.534808125E0,-2.215684652E-1,-6.228950024E-1,8.215609938E-2
2.537307657E0,-1.991985738E-1,-6.655043364E-1,7.256899774E-2
2.539807188E0,-1.746982187E-1,-7.038527131E-1,6.724283099E-2
2.542305990E0,-1.491326243E-1,-7.379401922E-1,6.404713541E-2
2.544805521E0,-1.214365661E-1,-7.592448592E-1,6.617759913E-2
2.547305052E0,-9.267527610E-2,-7.656362653E-1,7.363422960E-2
2.549804532E0,-6.298190355E-2,-7.539186478E-1,8.428656310E-2
2.552304063E0,-2.995967865E-2,-7.326140404E-1,9.493889660E-2
2.554803594E0,7.323476952E-3,-6.974613070E-1,1.087869257E-1
2.557303073E0,4.780233279E-2,-6.548519731E-1,1.268958896E-1
2.559802605E0,9.041165560E-2,-6.122426987E-1,1.418091506E-1
2.562302136E0,1.330209672E-1,-5.632419586E-1,1.631138027E-1
2.564801615E0,1.809564531E-1,-5.121107697E-1,1.801575422E-1
2.567301146E0,2.310224175E-1,-4.620448351E-1,2.046578974E-1
2.569800677E0,2.885449827E-1,-4.098483920E-1,2.238320857E-1
2.572299427E0,3.524589837E-1,-3.629781604E-1,2.408758104E-1
2.574798959E0,4.227643609E-1,-3.139774203E-1,2.621804774E-1
2.577298438E0,4.973306656E-1,-2.617810071E-1,2.824199200E-1
2.579797969E0,5.802856684E-1,-2.150439173E-1,2.983984053E-1
2.582297448E0,6.644390821E-1,-1.724345982E-1,3.111811876E-1
2.584796980E0,7.549839020E-1,-1.287600398E-1,3.239639997E-1
2.587296459E0,8.508548737E-1,-8.188978583E-2,3.250292242E-1
2.589795938E0,9.467258453E-1,-3.395430371E-2,3.218335211E-1
2.592295469E0,1.051118731E0,9.720250964E-3,3.122464418E-1
2.594794948E0,1.156443596E0,5.765573680E-2,2.962679267E-1
2.597294480E0,1.260836482E0,1.055912226E-1,2.760285139E-1
2.599793959E0,1.359903097E0,1.482005417E-1,2.451367527E-1
2.602292917E0,1.465361238E0,1.929403245E-1,2.142449915E-1
2.604792448E0,1.569754004E0,2.334191799E-1,1.716356725E-1
2.607291927E0,1.674146891E0,2.760285139E-1,1.205044836E-1
2.609791459E0,1.780537009E0,3.207682967E-1,6.617759913E-2
2.612290938E0,1.887060285E0,3.644428551E-1,1.185071748E-2
2.614790469E0,1.993583560E0,4.165061116E-1,-4.354140162E-2
2.617289948E0,2.100106955E0,4.708330035E-1,-9.893351793E-2
2.619789427E0,2.209825993E0,5.262250900E-1,-1.521951705E-1
2.622288959E0,2.319544792E0,5.773562789E-1,-2.075872868E-1
2.624788438E0,2.425935030E0,6.125090122E-1,-2.596505582E-1
2.627287969E0,2.534588814E0,6.338136196E-1,-3.118469715E-1
2.629787448E0,2.636851311E0,6.370093226E-1,-3.651086092E-1
2.632286407E0,2.729526520E0,6.210308671E-1,-4.215659797E-1
2.634785938E0,2.813679934E0,5.848129392E-1,-4.758928418E-1
2.637285417E0,2.886115789E0,5.272903442E-1,-5.334154367E-1
2.639784948E0,2.946834087E0,4.580501914E-1,-5.930684805E-1
2.642284427E0,2.996766806E0,3.760272563E-1,-6.591129303E-1
2.644783959E0,3.035115242E0,2.952027023E-1,-7.347444892E-1
2.647283438E0,3.058550358E0,2.131797522E-1,-8.114412427E-1
2.649782917E0,3.078789711E0,1.343525201E-1,-8.794830441E-1
2.652282448E0,3.094768286E0,7.043853402E-2,-9.508536458E-1
2.654781927E0,3.102224827E0,3.209014609E-2,-1.011571884E0
2.657281459E0,3.112877131E0,1.824211515E-2,-1.068029284E0
2.659780938E0,3.124594688E0,3.209014609E-2,-1.117030025E0
2.662279844E0,3.130986214E0,7.469946891E-2,-1.148986936E0
2.664779375E0,3.140573263E0,1.322220564E-1,-1.166030645E0
2.667278855E0,3.152290821E0,2.099840641E-1,-1.168161154E0
2.669778386E0,3.159747362E0,2.930722237E-1,-1.158574104E0
2.672277865E0,3.165073633E0,3.738967776E-1,-1.141530395E0
2.674777396E0,3.171464920E0,4.442021847E-1,-1.128747582E0
2.677276875E0,3.172530174E0,5.038552284E-1,-1.113834262E0
2.679776355E0,3.169334650E0,5.443340540E-1,-1.103181958E0
2.682275886E0,3.157617092E0,5.592473149E-1,-1.092529655E0
2.684775365E0,3.141638517E0,5.358121991E-1,-1.085072994E0
2.687274896E0,3.119268656E0,4.793548584E-1,-1.076551080E0
2.689774375E0,3.089442015E0,3.909405172E-1,-1.071224928E0
2.692273334E0,3.057485104E0,2.685718834E-1,-1.060572624E0
2.694772865E0,3.017006159E0,1.237001866E-1,-1.050985575E0
2.697272344E0,2.975462198E0,-4.460663348E-2,-1.042463660E0
2.699771875E0,2.926594496E0,-2.182396203E-1,-1.029680848E0
2.702271355E0,2.875463486E0,-3.960003853E-1,-1.015832901E0
2.704770886E0,2.829658270E0,-5.717638135E-1,-9.977238774E-1
2.707270365E0,2.782788038E0,-7.432663441E-1,-9.785496593E-1
2.709769844E0,2.742309332E0,-9.061138630E-1,-9.615059495E-1
2.712269375E0,2.713547945E0,-1.053115964E0,-9.455274343E-1
2.714768855E0,2.692243338E0,-1.180943966E0,-9.274185300E-1
2.717268386E0,2.677330017E0,-1.283206344E0,-9.178314209E-1
2.719767865E0,2.666677713E0,-1.362033606E0,-9.114400148E-1
2.722266823E0,2.654960155E0,-1.418490887E0,-9.146357179E-1
2.724766355E0,2.632590294E0,-1.452578425E0,-9.231575727E-1
2.727265834E0,2.609155178E0,-1.465228081E0,-9.327446818E-1
2.729765365E0,2.583589554E0,-1.465228081E0,-9.391360879E-1
2.732264844E0,2.551632643E0,-1.460967064E0,-9.476579428E-1
2.734764375E0,2.517544985E0,-1.457904577E0,-9.540493488E-1
2.737263855E0,2.483457565E0,-1.462032318E0,-9.572450519E-1
2.739763334E0,2.455761671E0,-1.469488978E0,-9.636363983E-1
2.742262865E0,2.430196047E0,-1.469488978E0,-9.785496593E-1
2.744762344E0,2.398238897E0,-1.431273699E0,-1.000919580E0
2.747261875E0,2.354564428E0,-1.332207084E0,-1.029680848E0
2.749761355E0,2.296109676E0,-1.150052190E0,-1.055246472E0
2.752260261E0,2.231130600E0,-8.922657967E-1,-1.078681588E0
2.754759792E0,2.174673319E0,-5.930684805E-1,-1.098921061E0
2.757259271E0,2.120346308E0,-2.916075289E-1,-1.110638618E0
2.759758802E0,2.077737093E0,-8.388710208E-3,-1.113834262E0
2.762258282E0,2.056432247E0,2.366148829E-1,-1.111703873E0
2.764757813E0,2.059628010E0,4.452674091E-1,-1.114899516E0
2.767257292E0,2.074541330E0,6.370093226E-1,-1.117030025E0
2.769756771E0,2.101172209E0,8.021204472E-1,-1.110638618E0
2.772256302E0,2.137390137E0,9.406007528E-1,-1.093594909E0
2.774755782E0,2.179999352E0,1.070425987E0,-1.076551080E0
2.777255313E0,2.224739075E0,1.192927837E0,-1.046724558E0
2.779754792E0,2.273739815E0,1.293059707E0,-1.011571884E0
2.782253750E0,2.323805809E0,1.355908513E0,-9.732235074E-1
2.784753282E0,2.360955954E0,1.386800289E0,-9.252880216E-1
2.787252761E0,2.388651848E0,1.389995933E0,-8.720263839E-1
2.789752292E0,2.395043373E0,1.365495563E0,-8.199630976E-1
2.792251771E0,2.397173882E0,1.317560077E0,-7.667014599E-1
2.794751302E0,2.386521339E0,1.252580881E0,-7.113093734E-1
2.797250782E0,2.359890699E0,1.187601686E0,-6.591129303E-1
2.799750261E0,2.316349268E0,1.115165830E0,-6.133078933E-1
2.802249792E0,2.268413782E0,1.046990871E0,-5.738942623E-1
2.804749271E0,2.219413042E0,9.969249368E-1,-5.398068428E-1
2.807248802E0,2.170412302E0,9.704272747E-1,-5.216978788E-1
2.809748282E0,2.121411562E0,9.672315717E-1,-5.046541691E-1
2.812247240E0,2.077737093E0,9.725577235E-1,-4.940018058E-1
2.814746771E0,2.034062386E0,9.852073789E-1,-4.865451753E-1
2.817246250E0,1.994648814E0,9.958597422E-1,-4.844147265E-1
2.819745782E0,1.957365632E0,9.947944880E-1,-4.833494723E-1
2.822245261E0,1.919017315E0,9.862726331E-1,-4.822842479E-1
2.824744792E0,1.883864641E0,9.777507782E-1,-4.854799509E-1
2.827244271E0,1.854038119E0,9.798812270E-1,-4.865451753E-1
2.829743750E0,1.822081089E0,9.884030819E-1,-4.961322844E-1
2.832243282E0,1.790124059E0,1.000120640E0,-5.089150667E-1
2.834742761E0,1.758167148E0,1.009707808E0,-5.259587765E-1
2.837242292E0,1.725278020E0,1.015033960E0,-5.440677404E-1
2.839741771E0,1.693320990E0,1.031012416E0,-5.664376616E-1
2.842240677E0,1.662429333E0,1.050186634E0,-5.824161768E-1
2.844740209E0,1.631537557E0,1.064034581E0,-6.015903354E-1
2.847239688E0,1.602776289E0,1.069360852E0,-6.239602566E-1
2.849739219E0,1.575080156E0,1.065099835E0,-6.410039663E-1
2.852238698E0,1.550579786E0,1.065099835E0,-6.537867785E-1
2.854738230E0,1.522883773E0,1.065099835E0,-6.665695906E-1
2.857237709E0,1.495187759E0,1.065099835E0,-6.718957424E-1
2.859737188E0,1.467491627E0,1.055512786E0,-6.740261912E-1
2.862236719E0,1.434469461E0,1.053382277E0,-6.772218943E-1
2.864736198E0,1.409969091E0,1.055512786E0,-6.750914454E-1
2.867235730E0,1.381207824E0,1.051251888E0,-6.772218943E-1
2.869735209E0,1.349250793E0,1.046990871E0,-6.697652340E-1
2.872234167E0,1.314098120E0,1.040599465E0,-6.623086333E-1
2.874733698E0,1.277880192E0,1.032077670E0,-6.495258212E-1
2.877233177E0,1.239531755E0,1.028881907E0,-6.367430687E-1
2.879732709E0,1.204379082E0,1.034208059E0,-6.271559596E-1
2.882232188E0,1.162835002E0,1.052317023E0,-6.175688505E-1
2.884731719E0,1.121424079E0,1.078947902E0,-6.037208438E-1
2.887231198E0,1.080945253E0,1.102383018E0,-5.909380317E-1
2.889730677E0,1.035140157E0,1.132209539E0,-5.792204738E-1
2.892230209E0,9.925308824E-1,1.170557976E0,-5.675029159E-1
2.894729688E0,9.552477002E-1,1.221689105E0,-5.483286977E-1
2.897229219E0,9.168993235E-1,1.271755099E0,-5.344806910E-1
2.899728698E0,8.753552437E-1,1.313299179E0,-5.153064728E-1
2.902227605E0,8.370068669E-1,1.347386599E0,-4.961322844E-1
2.904727136E0,7.986584306E-1,1.368691325E0,-4.769580960E-1
2.907226615E0,7.581796050E-1,1.371886969E0,-4.535229504E-1
2.909726146E0,7.155702710E-1,1.370821714E0,-4.268921316E-1
2.912225625E0,6.655043364E-1,1.362299919E0,-4.034570158E-1
2.914725157E0,6.133078933E-1,1.349517107E0,-3.821523488E-1
2.917224636E0,5.632419586E-1,1.330342889E0,-3.565867543E-1
2.919724115E0,5.058525205E-1,1.311168671E0,-3.363473415E-1
2.922223646E0,4.408733249E-1,1.283472657E0,-3.171731234E-1
2.924723125E0,3.758940995E-1,1.255776525E0,-2.979989350E-1
2.927222657E0,3.098496497E-1,1.227015257E0,-2.734985650E-1
2.929722136E0,2.416747361E-1,1.196123481E0,-2.523270845E-1
2.932221094E0,1.681736708E-1,1.158840418E0,-2.331528813E-1
2.934720625E0,8.934641629E-2,1.118361473E0,-2.139786780E-1
2.937220105E0,1.264964230E-2,1.072556496E0,-1.969349533E-1
2.939719636E0,-6.617759913E-2,1.021425366E0,-1.841521561E-1
2.942219115E0,-1.480673850E-1,9.533835649E-1,-1.724345982E-1
2.944718646E0,-2.236989290E-1,8.862738609E-1,-1.596518010E-1
2.947218125E0,-3.025261760E-1,8.585777879E-1,-1.575213373E-1
2.949717605E0,-3.845491111E-1,8.564473391E-1,-1.649779677E-1
2.952217136E0,-4.601806700E-1,8.639039993E-1,-1.734998226E-1
2.954716615E0,-5.326164961E-1,8.660344481E-1,-1.809564531E-1
2.957216146E0,-6.071828008E-1,8.617734909E-1,-1.916087866E-1
2.959715625E0,-6.828143597E-1,8.532516360E-1,-1.980001926E-1
2.962214584E0,-7.561823130E-1,8.404688835E-1,-2.107829899E-1
2.964714115E0,-8.232919574E-1,8.330122232E-1,-2.214353085E-1
2.967213594E0,-8.882712126E-1,8.223599195E-1,-2.299571782E-1
2.969713125E0,-9.564461112E-1,8.053161502E-1,-2.395442724E-1
2.972212605E0,-1.024621010E0,7.872071862E-1,-2.427399755E-1
2.974712136E0,-1.094926357E0,7.648373246E-1,-2.470009029E-1
2.977211615E0,-1.160970807E0,7.424674034E-1,-2.459356785E-1
2.979711094E0,-1.229145765E0,7.105104327E-1,-2.459356785E-1
2.982210625E0,-1.301581621E0,6.785534620E-1,-2.448704392E-1
2.984710105E0,-1.373884320E0,6.402050257E-1,-2.352833450E-1
2.987209636E0,-1.446320176E0,5.944000483E-1,-2.288919389E-1
2.989709115E0,-1.520886421E0,5.464645624E-1,-2.246310115E-1
2.992208021E0,-1.597583175E0,4.985290468E-1,-2.129134536E-1
2.994707552E0,-1.670019031E0,4.431369305E-1,-2.011958808E-1
2.997207032E0,-1.745650649E0,3.877448142E-1,-1.916087866E-1
2.999706563E0,-1.814890742E0,3.346163332E-1,-1.777607650E-1
3.002206042E0,-1.880935192E0,2.802894413E-1,-1.628475040E-1
3.004705573E0,-1.950042248E0,2.217016220E-1,-1.532603949E-1
3.007205052E0,-2.015021324E0,1.652442664E-1,-1.340862066E-1
3.009704532E0,-2.070413589E0,1.194392517E-1,-1.159772426E-1
3.012204063E0,-2.125805616E0,7.043853402E-2,-9.893351793E-2
3.014703542E0,-2.173741102E0,2.995967865E-2,-8.295502514E-2
3.017203073E0,-2.214220047E0,-1.051917579E-2,-6.378082931E-2
3.019702552E0,-2.253633499E0,-4.886756465E-2,-4.460663348E-2
3.022201511E0,-2.278133869E0,-7.975932211E-2,-2.649767138E-2
3.024701042E0,-2.296242952E0,-1.063901484E-1,-1.051917579E-2
3.027200521E0,-2.311156273E0,-1.287600398E-1,2.263620263E-3
3.029700052E0,-2.310091019E0,-1.426080763E-1,1.504641678E-2
3.032199532E0,-2.301568985E0,-1.468690038E-1,2.569874749E-2
3.034699063E0,-2.281329632E0,-1.511299312E-1,3.209014609E-2
3.037198542E0,-2.241915941E0,-1.426080763E-1,3.528584540E-2
3.039698021E0,-2.191850185E0,-1.276948154E-1,3.315537795E-2
3.042197552E0,-2.120479584E0,-1.095858440E-1,3.209014609E-2
3.044697032E0,-2.029934645E0,-8.188978583E-2,2.463351376E-2
3.047196563E0,-1.925541878E0,-5.312849581E-2,5.459319334E-3
3.049696042E0,-1.799977541E0,-2.649767138E-2,-1.584534161E-2
3.052195000E0,-1.664692879E0,-4.127778113E-3,-4.673709720E-2
3.054694532E0,-1.524082184E0,1.331541280E-4,-8.188978583E-2
3.057194011E0,-1.380275726E0,-3.062544856E-3,-9.254211932E-2
3.059693542E0,-1.237667561E0,-6.258244161E-3,-1.021292135E-1
3.062193021E0,-1.103448272E0,-2.117150649E-2,-1.138467789E-1
3.064692552E0,-9.777507782E-1,-4.247616604E-2,-1.191729456E-1
3.067192032E0,-8.563141823E-1,-7.017222792E-2,-1.340862066E-1
3.069691511E0,-7.455299497E-1,-1.010639817E-1,-1.511299312E-1
3.072191042E0,-6.412702799E-1,-1.340862066E-1,-1.734998226E-1
3.074690521E0,-5.379426479E-1,-1.639127284E-1,-2.043915838E-1
3.077190052E0,-4.356803000E-1,-1.862826198E-1,-2.448704392E-1
3.079689532E0,-3.302222490E-1,-1.958697289E-1,-2.862813771E-1
3.082188490E0,-2.194380015E-1,-1.948044896E-1,-3.278254569E-1
3.084687969E0,-1.107842326E-1,-1.862826198E-1,-3.704347908E-1
3.087187500E0,-4.394086078E-3,-1.575213373E-1,-4.077179432E-1
3.089686980E0,9.147688746E-2,-1.074553803E-1,-4.343487620E-1
3.092186459E0,1.809564531E-1,-2.969337068E-2,-4.556534290E-1
3.094685990E0,2.640446424E-1,7.150376588E-2,-4.748276174E-1
3.097185469E0,3.386109471E-1,2.014621943E-1,-4.950670600E-1
3.099684948E0,4.099815488E-1,3.653749228E-1,-5.163717270E-1
3.102184427E0,4.792217016E-1,5.549864173E-1,-5.291544795E-1
3.104683959E0,5.440677404E-1,7.541849613E-1,-5.366111398E-1
3.107183438E0,6.058512926E-1,9.459269047E-1,-5.430025458E-1
3.109682917E0,6.495258212E-1,1.111970067E0,-5.472634435E-1
3.112181927E0,6.910699010E-1,1.262167931E0,-5.525896549E-1
3.114681407E0,7.262226343E-1,1.397452593E0,-5.557853580E-1
3.117180938E0,7.496577501E-1,1.515693426E0,-5.675029159E-1
3.119680417E0,7.688319087E-1,1.614627004E0,-5.781552196E-1
3.122179896E0,7.816147208E-1,1.705171704E0,-5.898727775E-1
3.124679427E0,7.880061269E-1,1.781868577E0,-6.058512926E-1
3.127178907E0,7.922670841E-1,1.850043416E0,-6.186341047E-1
3.129678386E0,7.943975329E-1,1.911826968E0,-6.303516626E-1
3.132177865E0,7.965279818E-1,1.968284369E0,-6.388735175E-1
3.134677396E0,7.912018299E-1,2.018350363E0,-6.463301182E-1
3.137176875E0,7.837451696E-1,2.064155340E0,-6.527215242E-1
3.139676355E0,7.762885690E-1,2.104634047E0,-6.527215242E-1
3.142175417E0,7.698971629E-1,2.144047737E0,-6.495258212E-1
3.144674896E0,7.592448592E-1,2.180265665E0,-6.388735175E-1
3.147174427E0,7.517881989E-1,2.211024284E0,-6.175688505E-1
3.149673907E0,7.400706410E-1,2.233394146E0,-5.898727775E-1
3.152173386E0,7.230269313E-1,2.239785671E0,-5.643072128E-1
3.154672917E0,6.995918155E-1,2.234459400E0,-5.302197337E-1
3.157172396E0,6.697652340E-1,2.216350555E0,-4.897408783E-1
3.159671875E0,6.314168572E-1,2.183461428E0,-4.418053925E-1
3.162171355E0,5.792204738E-1,2.137656450E0,-3.970656097E-1
3.164670886E0,5.133091807E-1,2.070546627E0,-3.619129062E-1
3.167170365E0,4.355471432E-1,1.990654230E0,-3.342168629E-1
3.169669844E0,3.460675776E-1,1.903305054E0,-3.033251166E-1
3.172168855E0,2.470009029E-1,1.806368947E0,-2.756290436E-1
3.174668334E0,1.383471340E-1,1.703041315E0,-2.576532364E-1
3.177167865E0,2.649767138E-2,1.597583175E0,-2.512618303E-1
3.179667344E0,-8.961272985E-2,1.487997413E0,-2.544575334E-1
3.182166823E0,-2.002638131E-1,1.382539272E0,-2.649767101E-1
3.184666355E0,-3.046566546E-1,1.278146505E0,-2.777595222E-1
3.187165834E0,-4.026580751E-1,1.167362213E0,-2.990641594E-1
3.189665313E0,-4.889419675E-1,1.053382277E0,-3.288906813E-1
3.192164792E0,-5.613778234E-1,9.278179407E-1,-3.587172329E-1
3.194664323E0,-6.178351641E-1,7.882724404E-1,-3.853480518E-1
3.197163802E0,-6.615096927E-1,6.252917647E-1,-4.130440950E-1
3.199663282E0,-6.892057657E-1,4.399412274E-1,-4.386096895E-1
3.202162344E0,-7.050511241E-1,2.344844192E-1,-4.545882046E-1
3.204661823E0,-7.125077248E-1,1.398118306E-2,-4.577838778E-1
3.207161355E0,-7.103772759E-1,-2.086525112E-1,-4.535229504E-1
3.209660834E0,-6.934667230E-1,-4.215659797E-1,-4.439358711E-1
3.212160313E0,-6.657706499E-1,-6.239602566E-1,-4.322183132E-1
3.214659844E0,-6.242265701E-1,-8.093107939E-1,-4.077179432E-1
3.217159323E0,-5.698996782E-1,-9.764192104E-1,-3.821523488E-1
3.219658802E0,-5.006595254E-1,-1.131943226E0,-3.629781604E-1
3.222158282E0,-4.154408872E-1,-1.282141089E0,-3.448691964E-1
3.224657813E0,-3.174394369E-1,-1.429143310E0,-3.288906813E-1
3.227157292E0,-2.002638131E-1,-1.555772781E0,-3.118469715E-1
3.229656771E0,-6.617759913E-2,-1.645252347E0,-3.033251166E-1
3.232155834E0,9.147688746E-2,-1.687861681E0,-3.043903410E-1
3.234655313E0,2.683055699E-1,-1.679339886E0,-3.065207899E-1
3.237154844E0,4.525908828E-1,-1.596251726E0,-3.161078990E-1
3.239654323E0,6.388735175E-1,-1.433404207E0,-3.256950080E-1
3.242153802E0,8.252893090E-1,-1.220357537E0,-3.267602324E-1
3.244653334E0,1.013835549E0,-9.955934286E-1,-3.129121959E-1
3.247152813E0,1.210770488E0,-7.837451696E-1,-2.958684862E-1
3.249652292E0,1.405708075E0,-5.962641835E-1,-2.703028917E-1
3.252151771E0,1.589993477E0,-4.577838778E-1,-2.448704392E-1
3.254651302E0,1.737927675E0,-3.683043122E-1,-2.129134536E-1
3.257150782E0,1.838059545E0,-3.022598624E-1,-1.745650619E-1
3.259650261E0,1.868951321E0,-2.489982247E-1,-1.127815470E-1
3.262149323E0,1.815689683E0,-2.033263594E-1,-4.034570232E-2
3.264648802E0,1.675212026E0,-1.585865617E-1,3.635107726E-2
3.267148334E0,1.444056511E0,-1.085206121E-1,1.162435561E-1
3.269647813E0,1.143660784E0,-7.323476952E-3,1.865489334E-1
3.272147292E0,7.997236848E-1,1.652442664E-1,2.579195499E-1
3.274646823E0,4.366123974E-1,3.802881837E-1,3.228987455E-1
3.277146302E0,8.508548886E-2,5.997262001E-1,3.738967776E-1
3.279645782E0,-2.354165018E-1,7.999899983E-1,4.058537781E-1
3.282145261E0,-5.240946412E-1,9.682968259E-1,4.165061116E-1
3.284644792E0,-7.774869800E-1,1.085339308E0,4.175713360E-1
3.287144271E0,-1.002251148E0,1.144992352E0,4.165061116E-1
3.289643750E0,-1.202514887E0,1.146057606E0,4.207670391E-1
3.292142813E0,-1.385601878E0,1.110904932E0,4.271584451E-1
3.294642292E0,-1.549647689E0,1.053382277E0,4.420717061E-1
3.297141823E0,-1.690258503E0,9.788159728E-1,4.516588151E-1
3.299641302E0,-1.811695099E0,8.905348182E-1,4.591154456E-1
3.302140782E0,-1.905435562E0,7.904028893E-1,4.612458944E-1
3.304640313E0,-1.974542618E0,6.710968018E-1,4.452674091E-1
3.307139792E0,-2.017151833E0,5.113118291E-1,4.282236695E-1
3.309639271E0,-2.032065153E0,3.047898114E-1,4.228975177E-1
3.312138750E0,-2.027804136E0,2.356828004E-2,4.346150756E-1
3.314638282E0,-2.012891054E0,-3.416734934E-1,4.687025249E-1
3.317137761E0,-1.994781971E0,-7.986584306E-1,5.251598954E-1
3.319637240E0,-1.977738261E0,-1.331141829E0,5.890738368E-1
3.322136302E0,-1.969216347E0,-1.900908351E0,6.636402011E-1
3.324635782E0,-1.963890195E0,-2.474935770E0,7.403369546E-1
3.327135313E0,-1.962825060E0,-3.019136667E0,8.180989623E-1
3.329634792E0,-1.956433654E0,-3.500488758E0,8.958609700E-1
3.332134271E0,-1.932998419E0,-3.896622419E0,9.745550752E-1
3.334633802E0,-1.894783258E0,-4.188496113E0,1.051251888E0
3.337133282E0,-1.834064960E0,-4.366390228E0,1.114100575E0
3.339632761E0,-1.750976801E0,-4.420717239E0,1.156709909E0
3.342132240E0,-1.656171083E0,-4.340824604E0,1.176949382E0
3.344631771E0,-1.544321537E0,-4.141625881E0,1.171623230E0
3.347131250E0,-1.430341601E0,-3.847754955E0,1.146057606E0
3.349630730E0,-1.325948834E0,-3.479184151E0,1.089600205E0
3.352129792E0,-1.235537171E0,-3.057485104E0,1.013968706E0
3.354629271E0,-1.158840418E0,-2.601698399E0,9.352746010E-1
3.357128802E0,-1.100252509E0,-2.132996082E0,8.521864414E-1
3.359628282E0,-1.061904192E0,-1.670817971E0,7.733591795E-1
3.362127761E0,-1.040599465E0,-1.215031385E0,6.998580694E-1
3.364627292E0,-1.046990871E0,-7.730928659E-1,6.242265701E-1
3.367126771E0,-1.074687004E0,-3.533910513E-1,5.528559685E-1
3.369626250E0,-1.119426727E0,3.954677656E-2,4.804200828E-1
3.372125730E0,-1.179079771E0,3.898752928E-1,4.101147056E-1
3.374625261E0,-1.241928577E0,6.796186566E-1,3.303554058E-1
3.377124740E0,-1.312100768E0,9.033176303E-1,2.430062890E-1
3.379624219E0,-1.379210472E0,1.052317023E0,1.482005417E-1
3.382123230E0,-1.432472110E0,1.123687744E0,5.232957378E-2
3.384622709E0,-1.477211952E0,1.115165830E0,-3.715000302E-2
3.387122240E0,-1.514495015E0,1.022490501E0,-1.244991124E-1
3.389621719E0,-1.546452045E0,8.543168902E-1,-1.990654171E-1
3.392121198E0,-1.567756653E0,6.327484250E-1,-2.533923090E-1
3.394620730E0,-1.583735228E0,3.845491111E-1,-2.958684862E-1
3.397120209E0,-1.601844192E0,1.247654185E-1,-3.214340508E-1
3.399619688E0,-1.622083545E0,-1.213034093E-1,-3.363473415E-1
3.402119167E0,-1.642323017E0,-3.491301239E-1,-3.438039720E-1
3.404618698E0,-1.659366727E0,-5.430025458E-1,-3.395430148E-1
3.407118177E0,-1.678540945E0,-6.995918155E-1,-3.352820873E-1
3.409617657E0,-1.693454146E0,-8.274197578E-1,-3.235645294E-1
3.412116719E0,-1.698780417E0,-9.210271239E-1,-3.054555655E-1
3.414616198E0,-1.696649909E0,-9.913324714E-1,-2.820204496E-1
3.417115730E0,-1.689193249E0,-1.058442116E0,-2.491313666E-1
3.419615209E0,-1.671084285E0,-1.112769008E0,-2.118482143E-1
3.422114688E0,-1.648714423E0,-1.154313087E0,-1.671084315E-1
3.424614219E0,-1.623148799E0,-1.177748203E0,-1.117163152E-1
3.427113698E0,-1.598648429E0,-1.172422051E0,-5.206326395E-2
3.429613177E0,-1.573082924E0,-1.151117444E0,1.398118306E-2
3.432112657E0,-1.542191148E0,-1.129812717E0,8.322133124E-2
3.434612188E0,-1.509168863E0,-1.099986196E0,1.567224115E-1
3.437111667E0,-1.474016190E0,-1.049920321E0,2.366148829E-1
3.439611146E0,-1.445254922E0,-9.923977256E-1,3.154421151E-1
3.442110209E0,-1.413297892E0,-9.220923185E-1,3.930709958E-1
3.444609688E0,-1.379210472E0,-8.359416127E-1,4.644415975E-1
3.447109219E0,-1.348318696E0,-7.336792350E-1,5.272903442E-1
3.449608698E0,-1.322753072E0,-6.069164872E-1,5.848129392E-1
3.452108177E0,-1.300516367E0,-4.684362113E-1,6.306179762E-1
3.454607709E0,-1.285603046E0,-3.150426745E-1,6.721620560E-1
3.457107188E0,-1.278146505E0,-1.521951705E-1,7.019885778E-1
3.459606667E0,-1.281342149E0,1.331541280E-4,7.275541425E-1
3.462106146E0,-1.286668301E0,1.130478531E-1,7.499240637E-1
3.464605677E0,-1.296255469E0,1.822880059E-1,7.616416216E-1
3.467105157E0,-1.312100768E0,2.238320857E-1,7.701634765E-1
3.469604636E0,-1.331274986E0,2.376801223E-1,7.722939253E-1
3.472103698E0,-1.351514339E0,2.270277888E-1,7.690982223E-1
3.474603177E0,-1.366427660E0,1.940055639E-1,7.584459186E-1
3.477102709E0,-1.384536624E0,1.396786869E-1,7.392717004E-1
3.479602188E0,-1.402645588E0,7.256899774E-2,7.147713304E-1
3.482101667E0,-1.416493654E0,-2.649767138E-2,6.881405115E-1
3.484601198E0,-1.433537364E0,-1.617822647E-1,6.551182866E-1
3.487100677E0,-1.451646328E0,-3.139774203E-1,6.231613159E-1
3.489600157E0,-1.474016190E0,-4.854799509E-1,5.869433880E-1
3.492099636E0,-1.495320916E0,-6.644390821E-1,5.528559685E-1
3.494599167E0,-1.519821167E0,-8.380720615E-1,5.219641924E-1
3.497098646E0,-1.546452045E0,-9.987891316E-1,4.900071919E-1
3.499598125E0,-1.569887161E0,-1.133008480E0,4.559197426E-1
3.502097188E0,-1.592257023E0,-1.246988416E0,4.133104086E-1
3.504596667E0,-1.610365987E0,-1.338598490E0,3.749620318E-1
3.507096198E0,-1.617822647E0,-1.406773329E0,3.388772607E-1
3.509595677E0,-1.614627004E0,-1.451513171E0,3.111811876E-1
3.512095157E0,-1.603974581E0,-1.489728332E0,2.856155932E-1
3.514594688E0,-1.582669973E0,-1.517424464E0,2.600499988E-1
3.517094167E0,-1.554973960E0,-1.540859580E0,2.408758104E-1
3.519593646E0,-1.525147438E0,-1.563229442E0,2.291582525E-1
3.522093125E0,-1.488929510E0,-1.590925574E0,2.227668613E-1
3.524592657E0,-1.455907226E0,-1.618621588E0,2.217016220E-1
3.527092136E0,-1.421819806E0,-1.648448110E0,2.280930281E-1
3.529591615E0,-1.395188928E0,-1.677209377E0,2.376801223E-1
3.532090677E0,-1.372819066E0,-1.704905510E0,2.547238469E-1
3.534590157E0,-1.352579594E0,-1.731536269E0,2.696371078E-1
3.537089688E0,-1.336601138E0,-1.745384336E0,2.856155932E-1
3.539589167E0,-1.318492174E0,-1.747514725E0,2.973331809E-1
3.542088646E0,-1.302646875E0,-1.735797167E0,3.143768907E-1
3.544588177E0,-1.294124961E0,-1.714492559E0,3.303554058E-1
3.547087657E0,-1.288798809E0,-1.678274632E0,3.515268862E-1
3.549587136E0,-1.285603046E0,-1.627143502E0,3.749620318E-1
3.552086615E0,-1.285603046E0,-1.568555593E0,3.973319232E-1
3.554586146E0,-1.286668301E0,-1.498250246E0,4.143756330E-1
3.557085625E0,-1.293059707E0,-1.420621395E0,4.346150756E-1
3.559585105E0,-1.297320724E0,-1.335402727E0,4.601806700E-1
3.562084167E0,-1.295190215E0,-1.242727518E0,4.804200828E-1
3.564583646E0,-1.296255469E0,-1.140465140E0,5.006595254E-1
3.567083177E0,-1.295190215E0,-1.028615594E0,5.145075321E-1
3.569582657E0,-1.290929317E0,-9.061138630E-1,5.230293870E-1
3.572082136E0,-1.285603046E0,-7.816147208E-1,5.294207931E-1
3.574581667E0,-1.281342149E0,-6.591129303E-1,5.304860473E-1
3.577081146E0,-1.276015997E0,-5.461982489E-1,5.304860473E-1
3.579580625E0,-1.271755099E0,-4.375444651E-1,5.272903442E-1
3.582080105E0,-1.272820354E0,-3.416734934E-1,5.230293870E-1
3.584579636E0,-1.280276895E0,-2.607157826E-1,5.198337436E-1
3.587079115E0,-1.293059707E0,-1.873478591E-1,5.177032351E-1
3.589578594E0,-1.307973027E0,-1.319557428E-1,5.102466345E-1
3.592077657E0,-1.333405495E0,-9.254211932E-2,4.974638224E-1
3.594577136E0,-1.361101508E0,-6.271559745E-2,4.846810400E-1
3.597076615E0,-1.390928030E0,-5.419373140E-2,4.697677493E-1
3.599576146E0,-1.414363146E0,-6.804175675E-2,4.495283365E-1
3.602075625E0,-1.438863516E0,-9.680305421E-2,4.324845970E-1
3.604575105E0,-1.462298632E0,-1.458037645E-1,4.101147056E-1
3.607074584E0,-1.479342341E0,-2.097177505E-1,3.813534081E-1
3.609574063E0,-1.483603239E0,-2.894770801E-1,3.600487709E-1
3.612073542E0,-1.484668493E0,-3.789566457E-1,3.356815577E-1
3.614573021E0,-1.480407596E0,-4.726971686E-1,3.111811876E-1
3.617072552E0,-1.468690038E0,-5.760247707E-1,2.856155932E-1
3.619572032E0,-1.451646328E0,-6.782871485E-1,2.621804774E-1
3.622071146E0,-1.428211212E0,-7.794842720E-1,2.430062890E-1
3.624570625E0,-1.400515079E0,-8.741568327E-1,2.227668613E-1
3.627070105E0,-1.370688558E0,-9.583102465E-1,2.014621943E-1
3.629569636E0,-1.340862036E0,-1.028615594E0,1.854836941E-1
3.632069115E0,-1.313166022E0,-1.080812097E0,1.727008969E-1
3.634568594E0,-1.286668301E0,-1.119160414E0,1.609833390E-1
3.637068073E0,-1.264298439E0,-1.137269378E0,1.588528752E-1
3.639567552E0,-1.249385238E0,-1.135138988E0,1.609833390E-1
3.642067032E0,-1.237667561E0,-1.120225668E0,1.727008969E-1
3.644566511E0,-1.231276274E0,-1.087203503E0,1.886793971E-1
3.647066042E0,-1.225950003E0,-1.037137508E0,2.142449915E-1
3.649565521E0,-1.223819613E0,-9.732235074E-1,2.408758104E-1
3.652064636E0,-1.223819613E0,-9.018529058E-1,2.738980353E-1
3.654564115E0,-1.219558716E0,-8.199630976E-1,3.090507388E-1
3.657063594E0,-1.213167310E0,-7.315487862E-1,3.484643400E-1
3.659563125E0,-1.204645395E0,-6.399387121E-1,3.920057416E-1
3.662062605E0,-1.192927837E0,-5.504591465E-1,4.378107786E-1
3.664562084E0,-1.174818873E0,-4.663057625E-1,4.857462645E-1
3.667061563E0,-1.157775164E0,-3.885437548E-1,5.358121991E-1
3.669561042E0,-1.136470437E0,-3.214340508E-1,5.837476850E-1
3.672060521E0,-1.110904932E0,-2.639114857E-1,6.284874678E-1
3.674560000E0,-1.089600205E0,-2.214353085E-1,6.732272506E-1
3.677059532E0,-1.066165090E0,-1.958697289E-1,7.126408815E-1
3.679559011E0,-1.042729974E0,-1.830869317E-1,7.509892583E-1
3.682058125E0,-1.021425366E0,-1.884130985E-1,7.818810344E-1
3.684557605E0,-1.001185894E0,-2.033263594E-1,8.117075562E-1
3.687057084E0,-9.809464812E-1,-2.267614752E-1,8.383383751E-1
3.689556615E0,-9.617722631E-1,-2.617810071E-1,8.596430421E-1
3.692056094E0,-9.404675961E-1,-3.033251166E-1,8.798824549E-1
3.694555573E0,-9.234238863E-1,-3.416734934E-1,8.937305212E-1
3.697055052E0,-9.053149223E-1,-3.864132762E-1,8.990566730E-1
3.699554532E0,-8.850755095E-1,-4.332835376E-1,9.065132737E-1
3.702054011E0,-8.648360372E-1,-4.801537991E-1,9.086437821E-1
3.704553490E0,-8.403357267E-1,-5.185021758E-1,9.065132737E-1
3.707053021E0,-8.137048483E-1,-5.536548495E-1,9.097089767E-1
3.709552500E0,-7.828131318E-1,-5.824161768E-1,9.086437821E-1
3.712051615E0,-7.508561015E-1,-6.058512926E-1,9.033176303E-1
3.714551094E0,-7.188991308E-1,-6.186341047E-1,8.979914188E-1
3.717050573E0,-6.849448085E-1,-6.154384017E-1,8.926652670E-1
3.719550105E0,-6.508573890E-1,-6.090469956E-1,8.830781579E-1
3.722049584E0,-6.220960617E-1,-5.909380317E-1,8.692301512E-1
3.724549063E0,-5.954652429E-1,-5.536548495E-1,8.532516360E-1
3.727048542E0,-5.773562789E-1,-5.248935819E-1,8.298165202E-1
3.729548021E0,-5.645735264E-1,-4.918713570E-1,8.010552526E-1
3.732047500E0,-5.539211631E-1,-4.545882046E-1,7.680330276E-1
3.734546980E0,-5.432688594E-1,-4.215659797E-1,7.254236937E-1
3.737046511E0,-5.400731564E-1,-3.970656097E-1,6.764229536E-1
3.739545990E0,-5.422036052E-1,-3.693695366E-1,6.274222732E-1
3.742045105E0,-5.422036052E-1,-3.533910513E-1,5.730953813E-1
3.744544584E0,-5.464645624E-1,-3.395430148E-1,5.177032351E-1
3.747044063E0,-5.464645624E-1,-3.374125659E-1,4.655068219E-1
3.749543594E0,-5.475297570E-1,-3.469996452E-1,4.133104086E-1
3.752043073E0,-5.443340540E-1,-3.587172329E-1,3.664401472E-1
3.754542552E0,-5.368774533E-1,-3.800218701E-1,3.228987455E-1
3.757042032E0,-5.262250900E-1,-4.077179432E-1,2.802894413E-1
3.759541511E0,-5.155727863E-1,-4.407401681E-1,2.387453467E-1
3.762040990E0,-4.974638224E-1,-4.801537991E-1,2.025274336E-1
3.764540469E0,-4.750939310E-1,-5.291544795E-1,1.684399694E-1
3.767040000E0,-4.484631121E-1,-5.781552196E-1,1.396786869E-1
3.769539480E0,-4.260932207E-1,-6.314168572E-1,1.087869257E-1
3.772038594E0,-3.962666988E-1,-6.857437491E-1,8.428656310E-2
3.774538073E0,-3.675054014E-1,-7.453967929E-1,6.724283099E-2
3.777037552E0,-3.334179223E-1,-8.007889390E-1,4.913387448E-2
3.779537084E0,-3.003957272E-1,-8.508548737E-1,4.274247587E-2
3.782036563E0,-2.695039511E-1,-9.018529058E-1,4.061200842E-2
3.784536042E0,-2.343512625E-1,-9.423317909E-1,3.848154470E-2
3.787035521E0,-1.917419434E-1,-9.753540158E-1,4.593817517E-2
3.789535000E0,-1.501978636E-1,-9.934629202E-1,6.085143611E-2
3.792034480E0,-1.022623703E-1,-9.998543262E-1,8.002562821E-2
3.794533959E0,-4.700340703E-2,-9.934629202E-1,1.066564545E-1
3.797033490E0,1.478010789E-2,-9.721583128E-1,1.407439113E-1
3.799532969E0,7.656362653E-2,-9.295489788E-1,1.780270636E-1
3.802032136E0,1.426080763E-1,-8.784177899E-1,2.174406946E-1
3.804531615E0,2.054568231E-1,-8.135717511E-1,2.525933683E-1
3.807031094E0,2.704360485E-1,-7.411358953E-1,2.952027023E-1
3.809530625E0,3.343500197E-1,-6.644390821E-1,3.356815577E-1
3.812030105E0,3.918725848E-1,-5.930684805E-1,3.707011044E-1
3.814529584E0,4.547213614E-1,-5.227631330E-1,3.973319232E-1
3.817029063E0,5.154396296E-1,-4.609795809E-1,4.133104086E-1
3.819528542E0,5.792204738E-1,-3.981308341E-1,4.207670391E-1
3.822028021E0,6.463301182E-1,-3.395430148E-1,4.250279665E-1
3.824527500E0,7.166355252E-1,-2.820204496E-1,4.154408872E-1
3.827027032E0,7.901365757E-1,-2.203700840E-1,4.026580751E-1
3.829526511E0,8.615072370E-1,-1.617822647E-1,3.824186623E-1
3.832025625E0,9.360735416E-1,-1.042596847E-1,3.547225893E-1
3.834525105E0,1.010639787E0,-4.886756465E-2,3.228987455E-1
3.837024584E0,1.092662811E0,1.331541280E-4,2.909417748E-1
3.839524115E0,1.175617814E0,3.954677656E-2,2.493976802E-1
3.842023594E0,1.266162634E0,7.043853402E-2,2.089188248E-1
3.844523073E0,1.366294503E0,1.002650559E-1,1.641790420E-1
3.847022552E0,1.470687389E0,1.290263534E-1,1.162435561E-1
3.849522032E0,1.572949767E0,1.545919478E-1,6.511236727E-2
3.852021511E0,1.683733940E0,1.854836941E-1,9.720250964E-3
3.854520990E0,1.792254567E0,2.248973250E-1,-4.673709720E-2
3.857020521E0,1.896647453E0,2.664414048E-1,-1.085206121E-1
3.859520000E0,1.997844577E0,3.122464418E-1,-1.788259894E-1
3.862019115E0,2.097976446E0,3.685706258E-1,-2.480661422E-1
3.864518594E0,2.201303959E0,4.228975177E-1,-3.214340508E-1
3.867018073E0,2.301435947E0,4.665720761E-1,-4.002613127E-1
3.869517605E0,2.399304152E0,5.059856772E-1,-4.748276174E-1
3.872017084E0,2.499436140E0,5.283555984E-1,-5.440677404E-1
3.874516563E0,2.591046095E0,5.326164961E-1,-6.207645535E-1
3.877016042E0,2.677330017E0,5.230293870E-1,-6.942656040E-1
3.879515521E0,2.757222414E0,4.974638224E-1,-7.645710111E-1
3.882015000E0,2.831788778E0,4.612458944E-1,-8.284850121E-1
3.884514480E0,2.892507076E0,4.122451842E-1,-8.912006021E-1
3.887014011E0,2.941507816E0,3.569862247E-1,-9.444622397E-1
3.889513490E0,2.982918739E0,2.973331809E-1,-9.902672768E-1
3.892012605E0,3.010614872E0,2.419410497E-1,-1.023289442E0
3.894512084E0,3.027658463E0,2.046578974E-1,-1.047789812E0
3.897011563E0,3.035115242E0,1.844184697E-1,-1.060572624E0
3.899511094E0,3.039376020E0,1.844184697E-1,-1.061637878E0
3.902010573E0,3.043637037E0,2.025274336E-1,-1.053115964E0
3.904510052E0,3.047898054E0,2.398105860E-1,-1.035007000E0
3.907009532E0,3.056419849E0,2.845503688E-1,-1.012637138E0
3.909509011E0,3.066006899E0,3.346163332E-1,-9.892020226E-1
3.912008490E0,3.072398424E0,3.941362202E-1,-9.561797976E-1
3.914507969E0,3.084115982E0,4.537892640E-1,-9.252880216E-1
3.917007500E0,3.093703032E0,5.081161261E-1,-8.954614997E-1
3.919506980E0,3.105420589E0,5.496602654E-1,-8.625724316E-1
3.922006094E0,3.117138147E0,5.688344240E-1,-8.370068669E-1
3.924505573E0,3.125659943E0,5.635082722E-1,-8.082455397E-1
3.927005052E0,3.128855705E0,5.336817503E-1,-7.912018299E-1
3.929504584E0,3.123529434E0,4.782896340E-1,-7.773538232E-1
3.932004063E0,3.110746622E0,3.866795897E-1,-7.709624171E-1
3.934503542E0,3.093703032E0,2.653761804E-1,-7.688319087E-1
3.937003021E0,3.061746120E0,1.173087880E-1,-7.635057569E-1
3.939502500E0,3.021267176E0,-5.525896326E-2,-7.635057569E-1
3.942001980E0,2.972266436E0,-2.352833450E-1,-7.656362653E-1
3.944501459E0,2.913811684E0,-4.141093493E-1,-7.677667141E-1
3.947000990E0,2.855223894E0,-5.898727775E-1,-7.773538232E-1
3.949500469E0,2.795570850E0,-7.571143508E-1,-7.922670841E-1
3.951999584E0,2.733787298E0,-9.157009125E-1,-8.125064969E-1
3.954499063E0,2.678395271E0,-1.049920321E0,-8.402025700E-1
3.956998542E0,2.621937990E0,-1.168161154E0,-8.698959351E-1
3.959498073E0,2.574002504E0,-1.265097380E0,-9.071790576E-1
3.961997552E0,2.535654068E0,-1.338598490E0,-9.476579428E-1
3.964497032E0,2.502631903E0,-1.387599111E0,-9.881367683E-1
3.966996511E0,2.470674753E0,-1.415295243E0,-1.029680848E0
3.969495990E0,2.434456825E0,-1.428078055E0,-1.066964030E0
3.971995469E0,2.400369406E0,-1.422751904E0,-1.102116704E0
3.974494948E0,2.364151478E0,-1.403577685E0,-1.133008480E0
3.976994480E0,2.329132080E0,-1.370555401E0,-1.164965510E0
3.979493959E0,2.292914152E0,-1.317293763E0,-1.195857167E0
3.981993073E0,2.260957003E0,-1.240597010E0,-1.215031385E0
3.984492552E0,2.227934837E0,-1.144726038E0,-1.235270858E0
3.986992032E0,2.194912672E0,-1.024354696E0,-1.253379822E0
3.989491563E0,2.173608065E0,-9.188966155E-1,-1.255510330E0
3.991991042E0,2.167216539E0,-8.444634676E-1,-1.254445076E0
3.994490521E0,2.169347048E0,-7.784190178E-1,-1.248053670E0
3.996990000E0,2.183195114E0,-7.230269313E-1,-1.235270858E0
3.999489480E0,2.215152025E0,-6.772218943E-1,-1.211835742E0
4.001988959E0,2.251369953E0,-6.154384017E-1,-1.185204864E0
4.004488438E0,2.281196594E0,-5.280892849E-1,-1.148986936E0
4.006987969E0,2.297174931E0,-3.853480518E-1,-1.106377602E0
4.009487448E0,2.288653135E0,-1.628475040E-1,-1.066964030E0
4.011986563E0,2.251369953E0,1.141130850E-1,-1.028615594E0
4.014486042E0,2.201303959E0,3.983971477E-1,-9.923977256E-1
4.016985521E0,2.160825253E0,6.561835408E-1,-9.700278044E-1
4.019485052E0,2.139520645E0,8.873391151E-1,-9.551145434E-1
4.021984532E0,2.138455391E0,1.099187374E0,-9.465926886E-1
4.024484011E0,2.143781424E0,1.279211760E0,-9.348751307E-1
4.026983490E0,2.156564236E0,1.432605267E0,-9.125052094E-1
4.029482969E0,2.173608065E0,1.562563658E0,-8.848091960E-1
4.031982448E0,2.188521147E0,1.655105829E0,-8.508548737E-1
4.034481927E0,2.201303959E0,1.690258503E0,-8.178326488E-1
4.036981459E0,2.203434467E0,1.677475691E0,-7.805495262E-1
4.039480938E0,2.195977926E0,1.629540205E0,-7.368749380E-1
4.041980105E0,2.181064606E0,1.559368014E0,-6.932004094E-1
4.044479584E0,2.154433727E0,1.468823195E0,-6.484606266E-1
4.046979063E0,2.126737833E0,1.368691325E0,-6.111774445E-1
4.049478594E0,2.101172209E0,1.261102796E0,-5.770899653E-1
4.051978073E0,2.076671839E0,1.155644655E0,-5.504591465E-1
4.054477552E0,2.046845198E0,1.057643294E0,-5.323501825E-1
4.056977032E0,2.020214319E0,9.745550752E-1,-5.216978788E-1
4.059476511E0,1.996779323E0,9.129046798E-1,-5.163717270E-1
4.061975990E0,1.971213698E0,8.852086663E-1,-5.185021758E-1
4.064475469E0,1.943517685E0,8.905348182E-1,-5.270240307E-1
4.066975000E0,1.922212958E0,9.310136437E-1,-5.451329947E-1
4.069474480E0,1.900908351E0,9.969249368E-1,-5.632419586E-1
4.071973542E0,1.880668879E0,1.077882648E0,-5.802856684E-1
4.074473021E0,1.861494660E0,1.163101315E0,-6.026555896E-1
4.076972500E0,1.846581459E0,1.239798069E0,-6.207645535E-1
4.079472032E0,1.829537749E0,1.305842519E0,-6.367430687E-1
4.081971511E0,1.815689683E0,1.359104156E0,-6.495258212E-1
4.084470990E0,1.799711227E0,1.389995933E0,-6.612433791E-1
4.086970469E0,1.777341247E0,1.399582982E0,-6.718957424E-1
4.089469948E0,1.754971385E0,1.395322084E0,-6.782871485E-1
4.091969427E0,1.731669426E0,1.386800289E0,-6.825480461E-1
4.094468907E0,1.703973413E0,1.363365173E0,-6.878741980E-1
4.096968438E0,1.672016382E0,1.337799549E0,-6.910699010E-1
4.099467917E0,1.641124606E0,1.306907773E0,-6.985265613E-1
4.101967084E0,1.605971932E0,1.255776525E0,-7.049179673E-1
4.104466563E0,1.566558361E0,1.205710649E0,-7.059831619E-1
4.106966042E0,1.530340433E0,1.174818873E0,-7.070484161E-1
4.109465521E0,1.495187759E0,1.159905553E0,-7.038527131E-1
4.111965000E0,1.458969831E0,1.163101315E0,-7.017222643E-1
4.114464480E0,1.422751904E0,1.183340788E0,-6.995918155E-1
4.116963959E0,1.383338213E0,1.213167310E0,-6.974613070E-1
4.119463438E0,1.340728879E0,1.258972287E0,-6.932004094E-1
4.121962917E0,1.304510951E0,1.319690585E0,-6.900047064E-1
4.124462396E0,1.271488786E0,1.382539272E0,-6.868090034E-1
4.126961927E0,1.236336112E0,1.446453333E0,-6.814828515E-1
4.129461407E0,1.205444336E0,1.511432528E0,-6.750914454E-1
4.131960573E0,1.178813457E0,1.575346470E0,-6.697652340E-1
4.134460052E0,1.154313087E0,1.631670713E0,-6.601781845E-1
4.136959532E0,1.127682328E0,1.677475691E0,-6.516563296E-1
4.139459011E0,1.100119352E0,1.708367467E0,-6.399387121E-1
4.141958490E0,1.073488593E0,1.731802583E0,-6.250254512E-1
4.144457969E0,1.042596817E0,1.755237699E0,-6.090469956E-1
4.146957448E0,1.011705041E0,1.771216154E0,-5.962641835E-1
4.149456927E0,9.786828160E-1,1.781868577E0,-5.813509226E-1
4.151956407E0,9.435301423E-1,1.791455626E0,-5.706986189E-1
4.154455886E0,9.105079174E-1,1.805303693E0,-5.504591465E-1
4.156955417E0,8.785509467E-1,1.822347403E0,-5.312849879E-1
4.159454896E0,8.444634676E-1,1.839391112E0,-5.099803209E-1
4.161954063E0,8.018541336E-1,1.850043416E0,-4.897408783E-1
4.164453542E0,7.571143508E-1,1.858565331E0,-4.748276174E-1
4.166953021E0,7.059831619E-1,1.863891482E0,-4.631100595E-1
4.169452500E0,6.516563296E-1,1.866021991E0,-4.524577260E-1
4.171951980E0,5.898727775E-1,1.867087126E0,-4.375444651E-1
4.174451459E0,5.259587765E-1,1.860695839E0,-4.258269072E-1
4.176950938E0,4.589822888E-1,1.856434822E0,-4.226312041E-1
4.179450417E0,3.854812086E-1,1.848978162E0,-4.173050225E-1
4.181949896E0,3.077192008E-1,1.834064960E0,-4.130440950E-1
4.184449375E0,2.288919389E-1,1.814890742E0,-4.173050225E-1
4.186948907E0,1.426080763E-1,1.787194729E0,-4.215659797E-1
4.189448386E0,5.206326395E-2,1.755237699E0,-4.311530590E-1
4.191947552E0,-3.635107726E-2,1.710497975E0,-4.428706169E-1
4.194447032E0,-1.267627329E-1,1.657236218E0,-4.535229504E-1
4.196946511E0,-2.205032408E-1,1.607170343E0,-4.641752839E-1
4.199445990E0,-3.078523576E-1,1.555107117E0,-4.769580960E-1
4.201945469E0,-3.952014446E-1,1.500780225E0,-4.886756539E-1
4.204444948E0,-4.846810400E-1,1.443257570E0,-5.003932118E-1
4.206944427E0,-5.667039752E-1,1.387865424E0,-5.110455155E-1
4.209443907E0,-6.465964317E-1,1.330342889E0,-5.163717270E-1
4.211943386E0,-7.274209857E-1,1.271755099E0,-5.227631330E-1
4.214442865E0,-8.009220958E-1,1.217428207E0,-5.291544795E-1
4.216942396E0,-8.733579516E-1,1.160970807E0,-5.291544795E-1
4.219441875E0,-9.436632991E-1,1.103448272E0,-5.216978788E-1
4.221941042E0,-1.013968706E0,1.049121380E0,-5.216978788E-1
4.224440521E0,-1.085339308E0,9.937292337E-1,-5.206326246E-1
4.226940000E0,-1.154579401E0,9.374050498E-1,-5.227631330E-1
4.229439480E0,-1.222754359E0,8.809477091E-1,-5.206326246E-1
4.231938959E0,-1.287733555E0,8.298165202E-1,-5.153064728E-1
4.234438438E0,-1.352579594E0,7.776201367E-1,-5.121107697E-1
4.236937917E0,-1.418624043E0,7.243584394E-1,-5.078498721E-1
4.239437396E0,-1.478277087E0,6.710968018E-1,-5.067846179E-1
4.241936875E0,-1.538995385E0,6.189003587E-1,-5.035889149E-1
4.244436355E0,-1.596518040E0,5.635082722E-1,-4.940018058E-1
4.246935886E0,-1.650844932E0,5.081161261E-1,-4.844147265E-1
4.249435365E0,-1.701976061E0,4.527240396E-1,-4.737623930E-1
4.251934532E0,-1.754172444E0,3.973319232E-1,-4.588491321E-1
4.254434011E0,-1.798912287E0,3.324858546E-1,-4.450010955E-1
4.256933490E0,-1.839391112E0,2.675066292E-1,-4.226312041E-1
4.259432969E0,-1.878804803E0,2.046578974E-1,-3.960003853E-1
4.261932448E0,-1.915022612E0,1.354177445E-1,-3.725652397E-1
4.264431927E0,-1.951107383E0,6.191666797E-2,-3.523258269E-1
4.266931407E0,-1.981999159E0,-1.264964230E-2,-3.310211599E-1
4.269430886E0,-2.005434275E0,-8.188978583E-2,-3.065207899E-1
4.271930365E0,-2.018217087E0,-1.458037645E-1,-2.745638192E-1
4.274429844E0,-2.016086578E0,-2.001306564E-1,-2.470009029E-1
4.276929375E0,-2.006499529E0,-2.447372824E-1,-2.225005478E-1
4.279428855E0,-1.975607753E0,-2.724333405E-1,-2.022611201E-1
4.281928021E0,-1.930868030E0,-2.873466015E-1,-1.798912287E-1
4.284427500E0,-1.871348143E0,-2.798899710E-1,-1.617822647E-1
4.286926980E0,-1.790390372E0,-2.511286736E-1,-1.521951705E-1
4.289426459E0,-1.694519401E0,-2.075872868E-1,-1.458037645E-1
4.291925938E0,-1.581604719E0,-1.489994675E-1,-1.362166703E-1
4.294425417E0,-1.459102988E0,-7.656362653E-2,-1.276948154E-1
4.296924896E0,-1.330209732E0,-3.062544856E-3,-1.202381775E-1
4.299424375E0,-1.199319243E0,7.256899774E-2,-1.085206121E-1
4.301923855E0,-1.065099835E0,1.428743750E-1,-9.147688746E-2
4.304423334E0,-9.223586321E-1,2.078536004E-1,-7.017222792E-2
4.306922865E0,-7.806826234E-1,2.579195499E-1,-4.780233279E-2
4.309422344E0,-6.316831708E-1,2.877460718E-1,-2.543243766E-2
4.311921511E0,-4.814853370E-1,3.015941083E-1,-1.584534161E-2
4.314420990E0,-3.334179223E-1,2.973331809E-1,-8.388710208E-3
4.316920469E0,-1.864157766E-1,2.898765504E-1,-6.258244161E-3
4.319419948E0,-4.487293959E-2,2.813546658E-1,-1.371487509E-2
4.321919427E0,8.615072072E-2,2.845503688E-1,-2.756290510E-2
4.324418907E0,1.948044896E-1,3.015941083E-1,-4.886756465E-2
4.326918386E0,2.917406857E-1,3.303554058E-1,-7.230269164E-2
4.329417865E0,3.705679476E-1,3.685706258E-1,-1.031944528E-1
4.331917344E0,4.376776218E-1,4.069190025E-1,-1.298252791E-1
4.334416823E0,4.920045137E-1,4.420717061E-1,-1.553908736E-1
4.336916355E0,5.302197337E-1,4.750939310E-1,-1.798912287E-1
4.339415834E0,5.547201037E-1,5.123770833E-1,-2.054568231E-1
4.341915000E0,5.728290677E-1,5.539211631E-1,-2.352833450E-1
4.344414480E0,5.845466256E-1,6.029219031E-1,-2.607157826E-1
4.346913959E0,5.909380317E-1,6.657706499E-1,-2.862813771E-1
4.349413438E0,5.941337347E-1,7.499240637E-1,-3.118469715E-1
4.351912917E0,6.015903354E-1,8.521864414E-1,-3.384777904E-1
4.354412396E0,6.101121902E-1,9.565792680E-1,-3.640433848E-1
4.356911875E0,6.165035963E-1,1.055512786E0,-3.949351311E-1
4.359411355E0,6.218297482E-1,1.156709909E0,-4.268921316E-1
4.361910834E0,6.335473657E-1,1.254711390E0,-4.599143565E-1
4.364410313E0,6.431344151E-1,1.348451853E0,-4.950670600E-1
4.366909844E0,6.537867785E-1,1.438996673E0,-5.302197337E-1
4.369409323E0,6.687000394E-1,1.523150086E0,-5.621767044E-1
4.371908490E0,6.868090034E-1,1.599713683E0,-5.962641835E-1
4.374407969E0,7.006570101E-1,1.665758133E0,-6.324821115E-1
4.376907448E0,7.187659740E-1,1.723280668E0,-6.569824815E-1
4.379406927E0,7.336792350E-1,1.768020511E0,-6.708304882E-1
4.381906407E0,7.507229447E-1,1.803173184E0,-6.772218943E-1
4.384405886E0,7.698971629E-1,1.829804063E0,-6.761566401E-1
4.386905365E0,7.890713811E-1,1.850043416E0,-6.687000394E-1
4.389404844E0,8.114412427E-1,1.859630585E0,-6.484606266E-1
4.391904323E0,8.316806555E-1,1.856434822E0,-6.207645535E-1
4.394403802E0,8.423330188E-1,1.840456367E0,-5.994598866E-1
4.396903334E0,8.423330188E-1,1.811695099E0,-5.728290677E-1
4.399402813E0,8.242240548E-1,1.773346663E0,-5.451329947E-1
4.401901980E0,7.933322787E-1,1.733933091E0,-5.153064728E-1
4.404401459E0,7.507229447E-1,1.694519401E0,-4.897408783E-1
4.406900938E0,6.846785545E-1,1.641257763E0,-4.673709869E-1
4.409400417E0,6.058512926E-1,1.578542233E0,-4.471315742E-1
4.411899896E0,5.101134777E-1,1.507171631E0,-4.311530590E-1
4.414399375E0,4.014596939E-1,1.429409623E0,-4.162397981E-1
4.416898855E0,2.800231278E-1,1.346321344E0,-4.045222402E-1
4.419398334E0,1.553908736E-1,1.251515627E0,-3.970656097E-1
4.421897813E0,2.436720580E-2,1.147122860E0,-4.034570158E-1
4.424397292E0,-1.075885370E-1,1.038469076E0,-4.077179432E-1
4.426896823E0,-2.354165018E-1,9.246222377E-1,-4.141093493E-1
4.429396302E0,-3.579182923E-1,8.063814044E-1,-4.236964285E-1
4.431895469E0,-4.708330035E-1,6.742925048E-1,-4.375444651E-1
4.434394948E0,-5.762910843E-1,5.187684894E-1,-4.503272474E-1
4.436894427E0,-6.647053957E-1,3.442034125E-1,-4.631100595E-1
4.439393907E0,-7.380733490E-1,1.492657810E-1,-4.673709869E-1
4.441893386E0,-7.987915874E-1,-5.845466256E-2,-4.663057625E-1
4.444392865E0,-8.328790665E-1,-2.734985650E-1,-4.545882046E-1
4.446892344E0,-8.456618786E-1,-4.886756539E-1,-4.354139864E-1
4.449391823E0,-8.328790665E-1,-6.836133003E-1,-4.098483920E-1
4.451891302E0,-7.987915874E-1,-8.667002320E-1,-3.789566457E-1
4.454390782E0,-7.402037978E-1,-1.042463660E0,-3.469996452E-1
4.456890313E0,-6.572487950E-1,-1.218227148E0,-3.171731234E-1
4.459389792E0,-5.485950112E-1,-1.369490266E0,-2.916075289E-1
4.461889011E0,-4.218322635E-1,-1.481206536E0,-2.703028917E-1
4.464388490E0,-2.737648785E-1,-1.548316240E0,-2.544575334E-1
4.466887969E0,-1.075885370E-1,-1.564294696E0,-2.501966059E-1
4.469387448E0,6.484606117E-2,-1.532337666E0,-2.607157826E-1
4.471886927E0,2.512618303E-1,-1.460967064E0,-2.734985650E-1
4.474386407E0,4.557865858E-1,-1.359903097E0,-2.809551954E-1
4.476885886E0,6.623086333E-1,-1.253379822E0,-2.862813771E-1
4.479385365E0,8.764204979E-1,-1.160704494E0,-2.894770801E-1
4.481884844E0,1.094793200E0,-1.089333892E0,-2.830856740E-1
4.484384323E0,1.300250053E0,-1.011571884E0,-2.671071887E-1
4.486883855E0,1.476013541E0,-9.242228270E-1,-2.331528813E-1
4.489383334E0,1.604906678E0,-8.433982730E-1,-1.777607650E-1
4.491882500E0,1.663494468E0,-7.869408727E-1,-1.085206121E-1
4.494381980E0,1.631537557E0,-7.613753080E-1,-1.904104091E-2
4.496881459E0,1.512231469E0,-7.528534532E-1,8.854749799E-2
4.499380938E0,1.303445816E0,-7.453967929E-1,1.929403245E-1
4.501880417E0,1.018096447E0,-6.910699010E-1,2.994636297E-1
4.504379896E0,6.846785545E-1,-5.600462556E-1,3.962666988E-1
4.506879375E0,3.343500197E-1,-3.565867543E-1,4.718982279E-1
4.509378855E0,-7.589785382E-3,-9.573781490E-2,5.187684894E-1
4.511878334E0,-3.259612918E-1,2.057231218E-1,5.390079021E-1
4.514377813E0,-6.167699099E-1,4.974638224E-1,5.272903442E-1
4.516877344E0,-8.818798065E-1,7.264889479E-1,4.953333437E-1
4.519376823E0,-1.117296338E0,8.852086663E-1,4.612458944E-1
4.521875990E0,-1.332340240E0,9.915987849E-1,4.282236695E-1
4.524375469E0,-1.529408336E0,1.043795228E0,4.101147056E-1
4.526874948E0,-1.711563110E0,1.053382277E0,3.973319232E-1
4.529374427E0,-1.883065701E0,1.025686264E0,3.824186623E-1
4.531873907E0,-2.033130407E0,9.745550752E-1,3.643096983E-1
4.534373386E0,-2.153501749E0,9.086437821E-1,3.442034125E-1
4.536872865E0,-2.236589909E0,8.234251142E-1,3.239639997E-1
4.539372344E0,-2.273873091E0,6.998580694E-1,3.090507388E-1
4.541871823E0,-2.270677328E0,5.240946412E-1,2.994636297E-1
4.544371302E0,-2.236589909E0,2.643109560E-1,2.920069993E-1
4.546870834E0,-2.193980455E0,-8.934641629E-2,3.090507388E-1
4.549370313E0,-2.154567003E0,-5.302197337E-1,3.367467821E-1
4.551869532E0,-2.134327412E0,-1.032876611E0,3.834838867E-1
4.554369011E0,-2.132197142E0,-1.572816610E0,4.420717061E-1
4.556868490E0,-2.160958290E0,-2.137256861E0,5.102466345E-1
4.559367969E0,-2.213154793E0,-2.707023382E0,5.837476850E-1
4.561867448E0,-2.277068853E0,-3.243900776E0,6.604444981E-1
4.564366927E0,-2.332460880E0,-3.717796326E0,7.318150997E-1
4.566866407E0,-2.360157013E0,-4.101147175E0,7.967942953E-1
4.569365886E0,-2.349504471E0,-4.384499073E0,8.521864414E-1
4.571865365E0,-2.297308207E0,-4.560129642E0,8.905348182E-1
4.574364844E0,-2.216350555E0,-4.611260414E0,9.224917889E-1
4.576864375E0,-2.111957550E0,-4.526041985E0,9.480574131E-1
4.579363855E0,-1.992651582E0,-4.326976776E0,9.544488192E-1
4.581863021E0,-1.862826228E0,-4.020189285E0,9.491226077E-1
4.584362500E0,-1.724345922E0,-3.637903929E0,9.256874919E-1
4.586861980E0,-1.585865617E0,-3.204487324E0,8.873391151E-1
4.589361459E0,-1.455907226E0,-2.741110802E0,8.340774775E-1
4.591860938E0,-1.340862036E0,-2.266149998E0,7.722939253E-1
4.594360417E0,-1.246189475E0,-1.800776482E0,7.073147297E-1
4.596859896E0,-1.176949382E0,-1.354576945E0,6.423355341E-1
4.599359375E0,-1.129013896E0,-9.306141734E-1,5.762910843E-1
4.601858855E0,-1.110904932E0,-5.366111398E-1,5.155727863E-1
4.604358334E0,-1.111970067E0,-1.745650619E-1,4.559197426E-1
4.606857865E0,-1.131144285E0,1.556571722E-1,3.920057416E-1
4.609357344E0,-1.166296959E0,4.484631121E-1,3.314206302E-1
4.611856563E0,-1.213167310E0,6.966624260E-1,2.611152530E-1
4.614356042E0,-1.264298439E0,8.979914188E-1,1.929403245E-1
4.616855521E0,-1.317426920E0,1.039534330E0,1.247654185E-1
4.619355000E0,-1.369623303E0,1.105578780E0,5.552527308E-2
4.621854480E0,-1.415428400E0,1.090665460E0,-1.264964230E-2
4.624353959E0,-1.458037734E0,1.005446792E0,-7.762885839E-2
4.626853438E0,-1.500647068E0,8.681648970E-1,-1.330209672E-1
4.629352917E0,-1.546452045E0,7.009233236E-1,-1.745650619E-1
4.631852396E0,-1.590126634E0,5.155727863E-1,-2.065220475E-1
4.634351875E0,-1.630605459E0,3.452686667E-1,-2.214353085E-1
4.636851355E0,-1.663627625E0,1.886793971E-1,-2.161091566E-1
4.639350834E0,-1.691323757E0,4.380770773E-2,-2.011958808E-1
4.641850052E0,-1.708367467E0,-9.893351793E-2,-1.788259894E-1
4.644349532E0,-1.711563110E0,-2.203700840E-1,-1.511299312E-1
4.646849011E0,-1.704106569E0,-3.331516385E-1,-1.117163152E-1
4.649348490E0,-1.688127995E0,-4.513925016E-1,-6.910699606E-2
4.651847969E0,-1.666823387E0,-5.760247707E-1,-2.969337068E-2
4.654347448E0,-1.647649169E0,-7.049179673E-1,1.078548469E-2
4.656846927E0,-1.618887901E0,-8.327459097E-1,6.085143611E-2
4.659346407E0,-1.586930871E0,-9.487231374E-1,1.162435561E-1
4.661845886E0,-1.550712943E0,-1.044594169E0,1.748313755E-1
4.664345365E0,-1.510234118E0,-1.112769008E0,2.440715134E-1
4.666844844E0,-1.466559529E0,-1.152182698E0,3.133116663E-1
4.669344323E0,-1.425015450E0,-1.157508850E0,3.802881837E-1
4.671843594E0,-1.380275726E0,-1.105312467E0,4.569849670E-1
4.674343073E0,-1.330209732E0,-1.005180478E0,5.283555984E-1
4.676842552E0,-1.280276895E0,-8.922657967E-1,5.954652429E-1
4.679342032E0,-1.238732815E0,-7.656362653E-1,6.572487950E-1
4.681841511E0,-1.201449752E0,-6.260907054E-1,7.169018388E-1
4.684340990E0,-1.168427467E0,-4.705666900E-1,7.659025192E-1
4.686840469E0,-1.138600945E0,-3.033251166E-1,8.031857014E-1
4.689339948E0,-1.116231084E0,-1.372819096E-1,8.287512660E-1
4.691839427E0,-1.109839678E0,1.930734888E-2,8.436645269E-1
4.694338907E0,-1.114100575E0,1.620485783E-1,8.532516360E-1
4.696838386E0,-1.130079031E0,2.930722237E-1,8.532516360E-1
4.699337865E0,-1.150318503E0,3.717663288E-1,8.575125933E-1
4.701837084E0,-1.167362213E0,4.154408872E-1,8.617734909E-1
4.704336563E0,-1.189732075E0,4.207670391E-1,8.596430421E-1
4.706836042E0,-1.211036801E0,3.792229593E-1,8.553821445E-1
4.709335521E0,-1.240863323E0,3.026593328E-1,8.415340781E-1
4.711835000E0,-1.281342149E0,1.886793971E-1,8.255556226E-1
4.714334480E0,-1.328079224E0,4.700340703E-2,8.021204472E-1
4.716833959E0,-1.370688558E0,-1.127815470E-1,7.712287307E-1
4.719333438E0,-1.412232637E0,-2.841508985E-1,7.371412516E-1
4.721832917E0,-1.455907226E0,-4.588491321E-1,6.892057657E-1
4.724332396E0,-1.493190408E0,-6.335473657E-1,6.359441280E-1
4.726831875E0,-1.528343081E0,-7.997236848E-1,5.816172361E-1
4.729331355E0,-1.563495755E0,-9.487231374E-1,5.262250900E-1
4.731830625E0,-1.596518040E0,-1.078681588E0,4.697677493E-1
4.734330105E0,-1.630605459E0,-1.189465880E0,4.186365902E-1
4.736829584E0,-1.649779677E0,-1.274684429E0,3.717663288E-1
4.739329063E0,-1.661497235E0,-1.333272338E0,3.292901516E-1
4.741828542E0,-1.666823387E0,-1.371620655E0,2.920069993E-1
4.744328021E0,-1.659366727E0,-1.393990517E0,2.568543255E-1
4.746827500E0,-1.640192509E0,-1.403577685E0,2.291582525E-1
4.749326980E0,-1.615692139E0,-1.403577685E0,2.067883611E-1
4.751826459E0,-1.582669973E0,-1.395055771E0,1.876141727E-1
4.754325938E0,-1.548582554E0,-1.388664365E0,1.652442664E-1
4.756825417E0,-1.512364626E0,-1.378012061E0,1.471353173E-1
4.759324896E0,-1.481472850E0,-1.366294503E0,1.364829838E-1
4.761824167E0,-1.448450565E0,-1.349250793E0,1.247654185E-1
4.764323646E0,-1.417558789E0,-1.330076575E0,1.151783243E-1
4.766823125E0,-1.388797522E0,-1.308771968E0,1.141130850E-1
4.769322605E0,-1.367492914E0,-1.286401987E0,1.183740199E-1
4.771822084E0,-1.355775356E0,-1.261901617E0,1.237001866E-1
4.774321563E0,-1.345123053E0,-1.242727518E0,1.332872808E-1
4.776821042E0,-1.342992544E0,-1.228879452E0,1.396786869E-1
4.779320521E0,-1.345123053E0,-1.219292402E0,1.524614692E-1
4.781820000E0,-1.345123053E0,-1.212900996E0,1.641790420E-1
4.784319480E0,-1.350449204E0,-1.212900996E0,1.727008969E-1
4.786818959E0,-1.349383950E0,-1.216096640E0,1.865489334E-1
4.789318438E0,-1.346188188E0,-1.219292402E0,1.972012669E-1
4.791817657E0,-1.339796782E0,-1.218227148E0,2.067883611E-1
4.794317136E0,-1.329144478E0,-1.209705234E0,2.195711583E-1
4.796816615E0,-1.317426920E0,-1.187335372E0,2.312887162E-1
4.799316094E0,-1.305842519E0,-1.145791292E0,2.451367527E-1
4.801815573E0,-1.295190215E0,-1.093594909E0,2.536586225E-1
4.804315052E0,-1.282407403E0,-1.026485205E0,2.632457018E-1
4.806814532E0,-1.270689845E0,-9.455274343E-1,2.760285139E-1
4.809314011E0,-1.263233185E0,-8.549826741E-1,2.888112962E-1
4.811813490E0,-1.263233185E0,-7.517881989E-1,3.015941083E-1
4.814312969E0,-1.261102796E0,-6.441996694E-1,3.122464418E-1
4.816812448E0,-1.262167931E0,-5.355458856E-1,3.239639997E-1
4.819311927E0,-1.266428947E0,-4.300878346E-1,3.367467821E-1
4.821811198E0,-1.272820354E0,-3.320863843E-1,3.495295942E-1
4.824310677E0,-1.287733555E0,-2.384790480E-1,3.600487709E-1
4.826810157E0,-1.304777265E0,-1.553908736E-1,3.717663288E-1
4.829309636E0,-1.327014089E0,-8.188978583E-2,3.792229593E-1
4.831809115E0,-1.352579594E0,-1.904104091E-2,3.856143653E-1
4.834308594E0,-1.368558168E0,4.274247587E-2,3.941362202E-1
4.836808073E0,-1.382406116E0,9.174319357E-2,4.037233293E-1
4.839307552E0,-1.394123673E0,1.258306503E-1,4.090494812E-1
4.841807032E0,-1.397319436E0,1.428743750E-1,4.122451842E-1
4.844306511E0,-1.396254182E0,1.407439113E-1,4.154408872E-1
4.846805990E0,-1.385601878E0,1.119826213E-1,4.154408872E-1
4.849305469E0,-1.376014709E0,5.978620425E-2,4.143756330E-1
4.851804688E0,-1.358971000E0,-1.478010789E-2,4.111799598E-1
4.854304167E0,-1.337666392E0,-1.021292135E-1,4.058537781E-1
4.856803646E0,-1.308905125E0,-2.075872868E-1,4.026580751E-1
4.859303125E0,-1.280276895E0,-3.267602324E-1,3.930709958E-1
4.861802605E0,-1.251515627E0,-4.428706169E-1,3.781577349E-1
4.864302084E0,-1.220623851E0,-5.600462556E-1,3.696358502E-1
4.866801563E0,-1.195058346E0,-6.718957424E-1,3.547225893E-1
4.869301042E0,-1.173753619E0,-7.752233148E-1,3.388772607E-1
4.871800521E0,-1.156709909E0,-8.688306808E-1,3.228987455E-1
4.874300000E0,-1.142861843E0,-9.476579428E-1,3.165073693E-1
4.876799480E0,-1.132209539E0,-1.010506630E0,3.090507388E-1
4.879298959E0,-1.131144285E0,-1.053115964E0,3.079854846E-1
4.881798230E0,-1.129013896E0,-1.075485945E0,3.122464418E-1
4.884297709E0,-1.130079031E0,-1.076551080E0,3.207682967E-1
4.886797188E0,-1.137535691E0,-1.054181218E0,3.367467821E-1
4.889296667E0,-1.143927097E0,-1.014767647E0,3.557878435E-1
4.891796146E0,-1.151383758E0,-9.678973556E-1,3.813534081E-1
4.894295625E0,-1.160970807E0,-9.093095660E-1,4.026580751E-1
4.896795105E0,-1.168427467E0,-8.444634676E-1,4.303541481E-1
4.899294584E0,-1.170557976E0,-7.698971629E-1,4.623111188E-1
4.901794063E0,-1.172688365E0,-6.942656040E-1,4.910724163E-1
4.904293542E0,-1.168427467E0,-6.196992993E-1,5.187684894E-1
4.906793021E0,-1.165231824E0,-5.472634435E-1,5.485950112E-1
4.909292500E0,-1.154579401E0,-4.758928418E-1,5.762910843E-1
4.911791719E0,-1.135405302E0,-4.130440950E-1,6.018566489E-1
4.914291198E0,-1.121557236E0,-3.555215299E-1,6.252917647E-1
4.916790677E0,-1.107709169E0,-3.118469715E-1,6.519225836E-1
4.919290157E0,-1.085339308E0,-2.766942680E-1,6.774882078E-1
4.921789636E0,-1.060838938E0,-2.553896308E-1,7.041190267E-1
4.924289115E0,-1.032077670E0,-2.479329854E-1,7.307498455E-1
4.926788594E0,-1.001185894E0,-2.543243766E-1,7.520545125E-1
4.929288073E0,-9.745550752E-1,-2.788247466E-1,7.765548825E-1
4.931787552E0,-9.436632991E-1,-3.139774203E-1,8.053161502E-1
4.934287032E0,-9.138367772E-1,-3.651086092E-1,8.340774775E-1
4.936786511E0,-8.850755095E-1,-4.236964285E-1,8.628387451E-1
4.939285990E0,-8.499227762E-1,-4.865451753E-1,8.862738609E-1
4.941785261E0,-8.126396537E-1,-5.504591465E-1,9.139699340E-1
4.944284740E0,-7.700303197E-1,-6.079817414E-1,9.395354986E-1
4.946784219E0,-7.252905369E-1,-6.612433791E-1,9.649679661E-1
4.949283698E0,-6.774882078E-1,-7.081136703E-1,9.841421843E-1
4.951783177E0,-6.274222732E-1,-7.400706410E-1,1.001185894E0
4.954282657E0,-5.773562789E-1,-7.517881989E-1,1.011838198E0
4.956782136E0,-5.347470045E-1,-7.464620471E-1,1.009707808E0
4.959281615E0,-4.953333437E-1,-7.230269313E-1,9.990554452E-1
4.961781094E0,-4.665720761E-1,-6.857437491E-1,9.734898210E-1
4.964280573E0,-4.505935609E-1,-6.452649236E-1,9.331441522E-1
4.966780052E0,-4.452674091E-1,-6.026555896E-1,8.830781579E-1
4.969279532E0,-4.580501914E-1,-5.568505526E-1,8.255556226E-1
4.971778802E0,-4.687025249E-1,-5.163717270E-1,7.563154697E-1
4.974278282E0,-4.942681193E-1,-4.822842479E-1,6.828143597E-1
4.976777761E0,-5.198337436E-1,-4.535229504E-1,6.061176062E-1
4.979277240E0,-5.432688594E-1,-4.332835376E-1,5.326164961E-1
4.981776719E0,-5.613778234E-1,-4.236964285E-1,4.580501914E-1
4.984276198E0,-5.698996782E-1,-4.258269072E-1,3.824186623E-1
4.986775677E0,-5.613778234E-1,-4.311530590E-1,3.154421151E-1
4.989275157E0,-5.390079021E-1,-4.450010955E-1,2.568543255E-1
4.991774636E0,-5.049204826E-1,-4.673709869E-1,2.057231218E-1
4.994274115E0,-4.559197426E-1,-4.908061028E-1,1.588528752E-1
4.996773594E0,-3.920057416E-1,-5.195674300E-1,1.226349548E-1
4.999273073E0,-3.217003644E-1,-5.493939519E-1,9.280842543E-2
5.001772292E0,-2.471340597E-1,-5.824161768E-1,7.469946891E-2
5.004271771E0,-1.672415882E-1,-6.122426987E-1,7.150376588E-2
5.006771250E0,-8.854749799E-2,-6.356778145E-1,8.215609938E-2
5.009270730E0,-1.291595027E-2,-6.505910754E-1,9.387365729E-2
5.011770209E0,6.165036187E-2,-6.527215242E-1,1.098521575E-1
5.014269688E0,1.308905035E-1,-6.452649236E-1,1.311568171E-1
5.016769167E0,1.990654171E-1,-6.271559596E-1,1.450048387E-1
5.019268646E0,2.597837150E-1,-6.005251408E-1,1.524614692E-1
5.021768125E0,3.205019832E-1,-5.696333647E-1,1.556571722E-1
5.024267657E0,3.780245781E-1,-5.366111398E-1,1.513962448E-1
5.026767084E0,4.376776218E-1,-5.003932118E-1,1.471353173E-1
5.029266563E0,4.973306656E-1,-4.631100595E-1,1.343525201E-1
5.031765834E0,5.589810014E-1,-4.183702767E-1,1.215697154E-1
5.034265313E0,6.282211542E-1,-3.661738634E-1,1.119826213E-1
5.036764792E0,7.027874589E-1,-3.054555655E-1,1.013302878E-1
5.039264271E0,7.794842720E-1,-2.416747361E-1,9.174319357E-2
5.041763750E0,8.583115339E-1,-1.745650619E-1,8.322133124E-2
5.044263230E0,9.456605911E-1,-1.106510833E-1,7.256899774E-2
5.046762709E0,1.036205411E0,-5.419373140E-2,6.511236727E-2
5.049262188E0,1.130877972E0,-3.062544856E-3,5.659050494E-2
5.051761667E0,1.238466501E0,3.741630912E-2,4.487293959E-2
5.054261146E0,1.348185539E0,7.363422960E-2,2.995967865E-2
5.056760625E0,1.463230729E0,1.045259908E-1,1.611164957E-2
5.059260105E0,1.582536817E0,1.354177445E-1,-3.062544856E-3
5.061759375E0,1.699712396E0,1.652442664E-1,-2.649767138E-2
5.064258855E0,1.817820191E0,1.972012669E-1,-4.993279651E-2
5.066758334E0,1.936061025E0,2.334191799E-1,-7.549838722E-2
5.069257813E0,2.051106215E0,2.685718834E-1,-1.117163152E-1
5.071757292E0,2.160825253E0,3.069202602E-1,-1.489994675E-1
5.074256771E0,2.268413782E0,3.463338912E-1,-1.884130985E-1
5.076756250E0,2.372673512E0,3.845491111E-1,-2.267614752E-1
5.079255730E0,2.476001024E0,4.250279665E-1,-2.713681161E-1
