"Time (s)","Gyroscope x (rad/s)","Gyroscope y (rad/s)","Gyroscope z (rad/s)"
0.000000000E0,4.707094654E-2,-8.824017644E-1,-3.575658500E-1
2.391511000E-3,4.707094654E-2,-8.824017644E-1,-3.575658500E-1
4.783021000E-3,4.707094654E-2,-8.824017644E-1,-3.575658500E-1
7.174531000E-3,4.707094654E-2,-8.824017644E-1,-3.575658500E-1
9.566042000E-3,4.707094654E-2,-8.824017644E-1,-3.575658500E-1
1.195755200E-2,4.707094654E-2,-8.824017644E-1,-3.575658500E-1
1.434906300E-2,4.707094654E-2,-8.824017644E-1,-3.575658500E-1
1.678869800E-2,4.707094654E-2,-8.824017644E-1,-3.575658500E-1
1.922812500E-2,4.707094654E-2,-8.824017644E-1,-3.575658500E-1
2.166703100E-2,4.707094654E-2,-8.824017644E-1,-3.575658500E-1
2.410609400E-2,4.707094654E-2,-8.824017644E-1,-3.575658500E-1
2.654546900E-2,4.707094654E-2,-8.824017644E-1,-3.575658500E-1
2.898479200E-2,4.707094654E-2,-8.824017644E-1,-3.575658500E-1
3.142395900E-2,4.707094654E-2,-8.824017644E-1,-3.575658500E-1
3.386312500E-2,4.707094654E-2,-8.824017644E-1,-3.575658500E-1
3.630239600E-2,4.707094654E-2,-8.824017644E-1,-3.575658500E-1
3.874166700E-2,4.707094654E-2,-8.824017644E-1,-3.575658500E-1
4.118088600E-2,4.707094654E-2,-8.824017644E-1,-3.575658500E-1
4.362010400E-2,4.707094654E-2,-8.824017644E-1,-3.575658500E-1
4.605937500E-2,4.707094654E-2,-8.824017644E-1,-3.575658500E-1
4.849864600E-2,4.707094654E-2,-8.824017644E-1,-3.575658500E-1
5.093786500E-2,4.707094654E-2,-8.824017644E-1,-3.575658500E-1
5.337708400E-2,4.707094654E-2,-8.824017644E-1,-3.575658500E-1
5.581635400E-2,4.707094654E-2,-8.824017644E-1,-3.575658500E-1
5.825562500E-2,4.707094654E-2,-8.824017644E-1,-3.575658500E-1
6.069489600E-2,4.707094654E-2,-8.824017644E-1,-3.575658500E-1
6.313416700E-2,4.707094654E-2,-8.824017644E-1,-3.575658500E-1
6.557343800E-2,4.707094654E-2,-8.824017644E-1,-3.575658500E-1
6.801270900E-2,4.707094654E-2,-8.824017644E-1,-3.575658500E-1
7.045197900E-2,4.707094654E-2,-8.824017644E-1,-3.575658500E-1
7.289125000E-2,4.707094654E-2,-8.824017644E-1,-3.575658500E-1
7.533052100E-2,4.707094654E-2,-8.824017644E-1,-3.575658500E-1
7.776979200E-2,4.707094654E-2,-8.824017644E-1,-3.575658500E-1
8.020906300E-2,4.707094654E-2,-8.824017644E-1,-3.575658500E-1
8.264833400E-2,4.707094654E-2,-8.824017644E-1,-3.575658500E-1
8.508760400E-2,4.707094654E-2,-8.824017644E-1,-3.575658500E-1
8.752687500E-2,4.707094654E-2,-8.824017644E-1,-3.575658500E-1
8.996614600E-2,4.707094654E-2,-8.824017644E-1,-3.575658500E-1
9.240541700E-2,4.707094654E-2,-8.824017644E-1,-3.575658500E-1
9.484468800E-2,4.707094654E-2,-8.824017644E-1,-3.575658500E-1
9.728395900E-2,4.707094654E-2,-8.824017644E-1,-3.575658500E-1
9.972322900E-2,4.707094654E-2,-8.824017644E-1,-3.575658500E-1
1.021625000E-1,8.754035234E-1,3.185583353E-1,7.297733426E-1
1.046017710E-1,9.706984162E-1,3.026758432E-1,7.774208188E-1
1.070410420E-1,1.067215085E0,2.990106642E-1,8.140726686E-1
1.094803130E-1,1.167396903E0,3.246669769E-1,8.421725035E-1
1.119195840E-1,1.278574228E0,3.820882440E-1,8.580549359E-1
1.143588540E-1,1.397081971E0,4.810483456E-1,8.714939952E-1
1.167981250E-1,1.519254923E0,6.081081629E-1,8.800460696E-1
1.192373960E-1,1.641427875E0,7.620460987E-1,8.922633529E-1
1.216766670E-1,1.763600826E0,9.453055263E-1,9.093676209E-1
1.241159380E-1,1.889438987E0,1.163995147E0,9.289152622E-1
1.265552090E-1,2.009168386E0,1.414449692E0,9.472411871E-1
1.289944790E-1,2.131341219E0,1.684451938E0,9.741193056E-1
1.314337500E-1,2.244962215E0,1.959341049E0,1.000997305E0
1.338730210E-1,2.347587347E0,2.225677967E0,1.025431871E0
1.363098440E-1,2.433108568E0,2.463915110E0,1.044979572E0
1.387004170E-1,2.494194984E0,2.664278746E0,1.064527273E0
1.410917710E-1,2.534512043E0,2.819438457E0,1.080409765E0
1.434840110E-1,2.549172640E0,2.925729036E0,1.085296631E0
1.458753130E-1,2.539398909E0,2.983150244E0,1.076744556E0
1.482659380E-1,2.507633924E0,2.992923975E0,1.052309990E0
1.506573960E-1,2.458764791E0,2.962380886E0,1.008327723E0
1.530495310E-1,2.396456480E0,2.898850918E0,9.509063959E-1
1.554408860E-1,2.317044258E0,2.815773249E0,8.885982037E-1
1.578314590E-1,2.221749306E0,2.719256639E0,8.250682354E-1
1.602229170E-1,2.111793518E0,2.603192329E0,7.590948939E-1
1.626150520E-1,1.988399029E0,2.476132393E0,6.906780005E-1
1.650064060E-1,1.857674003E0,2.330746651E0,6.161525249E-1
1.673970310E-1,1.726948977E0,2.163369656E0,5.391835570E-1
1.697883860E-1,1.601110816E0,1.984997392E0,4.585494399E-1
1.721806250E-1,1.486268282E0,1.790742397E0,3.791370094E-1
1.745719270E-1,1.386086464E0,1.592822194E0,2.960593998E-1
1.769625520E-1,1.305452347E0,1.401010752E0,2.080948800E-1
1.793540110E-1,1.251696229E0,1.222638249E0,1.225738227E-1
1.817461460E-1,1.222374678E0,1.067478538E0,3.216584772E-2
1.841375000E-1,1.221153021E0,9.514141679E-1,-6.190731749E-2
1.865280730E-1,1.241922379E0,8.573409915E-1,-1.596456766E-1
1.889195310E-1,1.287126422E0,7.889241576E-1,-2.512753606E-1
1.913117190E-1,1.340882421E0,7.632678151E-1,-3.306877911E-1
1.937030210E-1,1.400747180E0,7.705981731E-1,-3.905525208E-1
1.960936460E-1,1.460611939E0,8.023631573E-1,-4.357565343E-1
1.984851040E-1,1.521698356E0,8.439019322E-1,-4.662997723E-1
2.008772400E-1,1.582784891E0,8.866624832E-1,-4.834039807E-1
2.032685940E-1,1.636541009E0,9.208709002E-1,-4.882908762E-1
2.056591670E-1,1.685410142E0,9.489706755E-1,-4.858474433E-1
2.080506250E-1,1.726948977E0,9.538576007E-1,-4.748518765E-1
2.104428130E-1,1.758713961E0,9.428620338E-1,-4.638563097E-1
2.128341150E-1,1.783148527E0,9.172057509E-1,-4.540824592E-1
2.152247400E-1,1.801474452E0,8.805538416E-1,-4.430868924E-1
2.176161980E-1,1.814913511E0,8.280194998E-1,-4.296478629E-1
2.200083340E-1,1.819800377E0,7.547156811E-1,-4.149871171E-1
2.223996880E-1,1.813691735E0,6.716381311E-1,-3.929959834E-1
2.247902610E-1,1.803917885E0,5.726780295E-1,-3.624527454E-1
2.271817190E-1,1.785591960E0,4.566137493E-1,-3.245791495E-1
2.295738540E-1,1.759935617E0,3.319973648E-1,-2.842620611E-1
2.319652090E-1,1.734279394E0,1.878332645E-1,-2.366146445E-1
2.343558340E-1,1.698849201E0,3.756054491E-2,-1.877454668E-1
2.367471880E-1,1.658532143E0,-1.200425625E-1,-1.388762742E-1
2.391394270E-1,1.614549875E0,-2.971933186E-1,-9.245055914E-2
2.415307290E-1,1.568124175E0,-4.938917458E-1,-5.335521325E-2
2.439213540E-1,1.510702848E0,-6.820381284E-1,-1.303814352E-2
2.463128130E-1,1.445951223E0,-8.371977806E-1,3.338757902E-2
2.487049480E-1,1.381199479E0,-9.471533895E-1,7.981328666E-2
2.510963020E-1,1.317669630E0,-1.010683179E0,1.213520914E-1
2.534869270E-1,1.260248303E0,-1.031452656E0,1.567822397E-1
2.558782810E-1,1.210157394E0,-1.016791821E0,1.897689402E-1
2.582705210E-1,1.167396903E0,-9.703662395E-1,2.215339094E-1
2.606618230E-1,1.131966710E0,-8.995059729E-1,2.471902221E-1
2.630524480E-1,1.112419009E0,-8.115414381E-1,2.679596245E-1
2.654439060E-1,1.101423502E0,-7.199117541E-1,2.850638628E-1
2.678360420E-1,1.105088711E0,-6.233950853E-1,3.021680713E-1
2.702273960E-1,1.116084218E0,-5.305436850E-1,3.217157423E-1
2.726179690E-1,1.134410143E0,-4.401356578E-1,3.375982046E-1
2.750094270E-1,1.152736068E0,-3.570580482E-1,3.449285924E-1
2.774015630E-1,1.172283769E0,-2.764239013E-1,3.510372341E-1
2.797929170E-1,1.186944604E0,-2.067853361E-1,3.559241593E-1
2.821835420E-1,1.200383544E0,-1.554727107E-1,3.583676219E-1
2.845748960E-1,1.212600827E0,-1.249294728E-1,3.595893383E-1
2.869671360E-1,1.223596454E0,-1.078252643E-1,3.534806967E-1
2.893584900E-1,1.233370304E0,-1.114904583E-1,3.461503088E-1
2.917490630E-1,1.238257170E0,-1.224860102E-1,3.363764882E-1
2.941405210E-1,1.238257170E0,-1.420336813E-1,3.278243840E-1
2.965326560E-1,1.232148528E0,-1.725769192E-1,3.180505335E-1
2.989240110E-1,1.222374678E0,-2.031201571E-1,3.094984293E-1
3.013146360E-1,1.208935618E0,-2.324416786E-1,2.997246087E-1
3.037059900E-1,1.195496678E0,-2.568762302E-1,2.875072956E-1
3.060982290E-1,1.183279395E0,-2.666500807E-1,2.728465497E-1
3.084895310E-1,1.173505545E0,-2.727587223E-1,2.618509829E-1
3.108801560E-1,1.163731694E0,-2.678717971E-1,2.520771623E-1
3.132716150E-1,1.156401277E0,-2.507675886E-1,2.410815805E-1
3.156637500E-1,1.149070978E0,-2.287764698E-1,2.300860137E-1
3.180551040E-1,1.144183993E0,-2.018984407E-1,2.227556258E-1
3.204456770E-1,1.140518785E0,-1.628030837E-1,2.166469842E-1
3.228371360E-1,1.138075352E0,-1.212642938E-1,2.093166113E-1
3.252293230E-1,1.138075352E0,-7.117338479E-2,2.068731487E-1
3.276206250E-1,1.138075352E0,-2.108247019E-2,2.056514174E-1
3.300112500E-1,1.140518785E0,2.167806216E-2,2.032079548E-1
3.324026040E-1,1.136853695E0,5.955167115E-2,2.032079548E-1
3.347948440E-1,1.130745053E0,9.009490907E-2,2.056514174E-1
3.371861460E-1,1.123414636E0,1.096425802E-1,2.068731487E-1
3.395767710E-1,1.114862561E0,1.230816096E-1,2.117600590E-1
3.419682290E-1,1.105088711E0,1.401858181E-1,2.154252678E-1
3.443603650E-1,1.096536517E0,1.524031162E-1,2.215339094E-1
3.467517190E-1,1.087984443E0,1.719507873E-1,2.288642675E-1
3.491423440E-1,1.081875801E0,1.976071000E-1,2.386381179E-1
3.515336980E-1,1.076988935E0,2.269286066E-1,2.520771623E-1
3.539259380E-1,1.072101951E0,2.586935759E-1,2.728465497E-1
3.563172400E-1,1.070880294E0,3.002323806E-1,2.887290418E-1
3.587078650E-1,1.068436742E0,3.454363644E-1,3.094984293E-1
3.610993230E-1,1.072101951E0,3.930838108E-1,3.314895630E-1
3.634914590E-1,1.078210592E0,4.456181824E-1,3.510372341E-1
3.658828130E-1,1.081875801E0,4.908221662E-1,3.718066514E-1
3.682733860E-1,1.087984443E0,5.311392546E-1,3.913543224E-1
3.706648440E-1,1.094093084E0,5.592389703E-1,4.072367847E-1
3.730570310E-1,1.100201726E0,5.848953128E-1,4.182323515E-1
3.754483340E-1,1.105088711E0,5.946691632E-1,4.328930974E-1
3.778389590E-1,1.107532144E0,6.032212377E-1,4.524407685E-1
3.802303130E-1,1.107532144E0,6.056647301E-1,4.780970812E-1
3.826225520E-1,1.109975576E0,6.032212377E-1,5.025317073E-1
3.850139060E-1,1.107532144E0,5.885605216E-1,5.220793486E-1
3.874044790E-1,1.106310368E0,5.702345371E-1,5.391835570E-1
3.897959380E-1,1.103866935E0,5.482434630E-1,5.550660491E-1
3.921880730E-1,1.103866935E0,5.177001953E-1,5.685050488E-1
3.945794270E-1,1.102645159E0,4.944873750E-1,5.770571828E-1
3.969700520E-1,1.100201726E0,4.822700620E-1,5.880527496E-1
3.993614060E-1,1.103866935E0,4.688310325E-1,5.953831077E-1
4.017536460E-1,1.114862561E0,4.651658535E-1,6.014917493E-1
4.041449480E-1,1.128301501E0,4.676093161E-1,6.027135253E-1
4.065355730E-1,1.142962337E0,4.700527787E-1,6.088221669E-1
4.089270310E-1,1.161288261E0,4.773831666E-1,6.137090921E-1
4.113191670E-1,1.178392410E0,4.896004498E-1,6.100438833E-1
4.137105210E-1,1.193053246E0,4.981525540E-1,6.124873161E-1
4.161010940E-1,1.205270529E0,5.128132701E-1,6.112655997E-1
4.184925520E-1,1.216266036E0,5.286957622E-1,6.112655997E-1
4.208846880E-1,1.221153021E0,5.409130454E-1,6.112655997E-1
4.232760420E-1,1.221153021E0,5.457999706E-1,6.088221669E-1
4.256666670E-1,1.216266036E0,5.482434630E-1,6.051569581E-1
4.280580210E-1,1.206492186E0,5.445782542E-1,5.953831077E-1
4.304502610E-1,1.191831470E0,5.384696126E-1,5.880527496E-1
4.328415630E-1,1.172283769E0,5.335826874E-1,5.709485412E-1
4.352321880E-1,1.149070978E0,5.311392546E-1,5.575095415E-1
4.376236460E-1,1.120971203E0,5.299174786E-1,5.416270494E-1
4.400157810E-1,1.090427876E0,5.299174786E-1,5.220793486E-1
4.424071360E-1,1.059884667E0,5.384696126E-1,5.061968565E-1
4.447977610E-1,1.029341459E0,5.519086123E-1,4.952012897E-1
4.471891150E-1,9.963547587E-1,5.665693879E-1,4.805405736E-1
4.495813540E-1,9.645897746E-1,5.922256708E-1,4.658797979E-1
4.519726560E-1,9.352682829E-1,6.227689385E-1,4.499973357E-1
4.543632810E-1,9.022815824E-1,6.533121467E-1,4.341148436E-1
4.567547400E-1,8.717383742E-1,6.765249968E-1,4.084585309E-1
4.591468750E-1,8.411951065E-1,7.046247721E-1,3.815804720E-1
4.615382290E-1,8.082084060E-1,7.278376818E-1,3.571458757E-1
4.639288020E-1,7.752217054E-1,7.473853230E-1,3.302678466E-1
4.663202610E-1,7.422350049E-1,7.681547403E-1,3.082767129E-1
4.687123960E-1,7.055831552E-1,7.815937400E-1,2.875072956E-1
4.711037500E-1,6.689312458E-1,7.901458740E-1,2.728465497E-1
4.734943750E-1,6.359445453E-1,7.950327992E-1,2.532988787E-1
4.758857290E-1,6.078447700E-1,7.925893068E-1,2.337511927E-1
4.782779690E-1,5.834102035E-1,7.864806652E-1,2.129818052E-1
4.806693230E-1,5.601973534E-1,7.754850984E-1,1.970993131E-1
4.830598960E-1,5.406496525E-1,7.608243823E-1,1.799951047E-1
4.854513540E-1,5.235454440E-1,7.437201142E-1,1.653343439E-1
4.878434900E-1,5.052195191E-1,7.229507565E-1,1.531170458E-1
4.902348440E-1,4.820066392E-1,7.021813393E-1,1.445649415E-1
4.926254170E-1,4.587937593E-1,6.789684892E-1,1.396780312E-1
4.950168750E-1,4.331374466E-1,6.557556391E-1,1.347911060E-1
4.974090630E-1,4.025942087E-1,6.349862218E-1,1.335693747E-1
4.998003650E-1,3.732727170E-1,6.154385805E-1,1.396780312E-1
5.021909900E-1,3.415077329E-1,5.958908796E-1,1.408997625E-1
5.045824480E-1,3.072993159E-1,5.861170292E-1,1.445649415E-1
5.069745840E-1,2.694257200E-1,5.800083876E-1,1.482301354E-1
5.093659380E-1,2.327738255E-1,5.763431787E-1,1.494518667E-1
5.117565110E-1,1.949002147E-1,5.738997459E-1,1.531170458E-1
5.141479690E-1,1.533614099E-1,5.641258955E-1,1.604474336E-1
5.165401040E-1,1.179312468E-1,5.555738211E-1,1.665560752E-1
5.189314590E-1,8.616628498E-2,5.543521047E-1,1.702212691E-1
5.213220840E-1,5.562305078E-2,5.592389703E-1,1.738864481E-1
5.237134380E-1,3.241019323E-2,5.690128207E-1,1.751081795E-1
5.261056770E-1,1.286252029E-2,5.775649548E-1,1.799951047E-1
5.284969790E-1,6.452261005E-4,5.897822380E-1,1.824385673E-1
5.308876040E-1,-6.685150322E-3,5.946691632E-1,1.885472089E-1
5.332790630E-1,-6.685150322E-3,5.910039544E-1,1.970993131E-1
5.356711980E-1,-1.035033911E-2,5.848953128E-1,2.056514174E-1
5.380625520E-1,-1.157206856E-2,5.738997459E-1,2.080948800E-1
5.404531770E-1,-1.157206856E-2,5.592389703E-1,2.080948800E-1
5.428445310E-1,-1.035033911E-2,5.457999706E-1,2.019862384E-1
5.452367710E-1,-1.523725688E-2,5.286957622E-1,1.909906715E-1
5.476280730E-1,-1.768071577E-2,5.140350461E-1,1.738864481E-1
5.500186980E-1,-2.501109242E-2,5.005959868E-1,1.531170458E-1
5.524100520E-1,-2.867628075E-2,4.761614203E-1,1.286824644E-1
5.548022920E-1,-3.845011815E-2,4.419530034E-1,1.018044204E-1
5.571936460E-1,-5.311087146E-2,4.028576612E-1,7.492637634E-2
5.595842190E-1,-6.654989719E-2,3.735361397E-1,5.904389173E-2
5.619756770E-1,-7.632373273E-2,3.613188565E-1,4.682660103E-2
5.643678130E-1,-8.487583697E-2,3.674274981E-1,4.193968326E-2
5.667591670E-1,-9.464967251E-2,3.906403482E-1,3.705276549E-2
5.691497920E-1,-1.044235080E-1,4.175184071E-1,3.094411641E-2
5.715411460E-1,-1.203059927E-1,4.505051076E-1,2.727892995E-2
5.739333860E-1,-1.422971189E-1,4.749397039E-1,2.239201218E-2
5.763246880E-1,-1.691751629E-1,4.847135246E-1,1.383990422E-2
5.787153130E-1,-2.033835948E-1,4.749397039E-1,5.287796259E-3
5.811067710E-1,-2.412572056E-1,4.492833912E-1,-5.707766861E-3
5.834989060E-1,-2.827959955E-1,4.150749445E-1,-1.548160240E-2
5.858902610E-1,-3.267782629E-1,3.759796023E-1,-2.647716738E-2
5.882808340E-1,-3.744257092E-1,3.344407976E-1,-3.869445994E-2
5.906722920E-1,-4.196296930E-1,2.941237390E-1,-5.579867586E-2
5.930644270E-1,-4.684988856E-1,2.562501431E-1,-7.290288806E-2
5.954557810E-1,-5.137028098E-1,2.244851440E-1,-9.122882783E-2
5.978464060E-1,-5.637937188E-1,1.976071000E-1,-1.119982302E-1
6.002377610E-1,-6.114411950E-1,1.707290560E-1,-1.315459013E-1
6.026300000E-1,-6.627538204E-1,1.499596536E-1,-1.559804976E-1
6.050213020E-1,-7.140664458E-1,1.279685199E-1,-1.828585416E-1
6.074119270E-1,-7.666008472E-1,1.059773862E-1,-2.109583169E-1
6.098033860E-1,-8.191351891E-1,8.276453614E-2,-2.378363758E-1
6.121955210E-1,-8.765564561E-1,6.077340245E-2,-2.647143900E-1
6.145868750E-1,-9.364212155E-1,3.389535472E-2,-2.891489863E-1
6.169775000E-1,-9.987294078E-1,5.795580801E-3,-3.111401200E-1
6.193688540E-1,-1.065924525E0,-2.841284312E-2,-3.367964327E-1
6.217610940E-1,-1.135563135E0,-6.139954925E-2,-3.575658500E-1
6.241523960E-1,-1.210088611E0,-9.682969749E-2,-3.746700585E-1
6.265430210E-1,-1.287057519E0,-1.334815770E-1,-3.905525208E-1
6.289343750E-1,-1.367691755E0,-1.713552028E-1,-4.052132964E-1
6.313266150E-1,-1.451991081E0,-2.116722614E-1,-4.149871171E-1
6.337179690E-1,-1.538733840E0,-2.458806783E-1,-4.247609675E-1
6.361085420E-1,-1.627920032E0,-2.800891101E-1,-4.320913255E-1
6.385000000E-1,-1.715884566E0,-3.069671392E-1,-4.333130717E-1
6.408921360E-1,-1.803849101E0,-3.301800191E-1,-4.333130717E-1
6.432834900E-1,-1.885704994E0,-3.570580482E-1,-4.272044301E-1
6.456741150E-1,-1.971226096E0,-3.753840029E-1,-4.210957587E-1
6.480654690E-1,-2.059190750E0,-3.839361072E-1,-4.088784754E-1
6.504577090E-1,-2.150820494E0,-3.802709281E-1,-3.929959834E-1
6.528490110E-1,-2.238785028E0,-3.656101525E-1,-3.795569539E-1
6.552396360E-1,-2.319419146E0,-3.423973024E-1,-3.673396707E-1
6.576310940E-1,-2.391501188E0,-3.265148103E-1,-3.539006412E-1
6.600232290E-1,-2.453809261E0,-2.996367812E-1,-3.392398953E-1
6.624145840E-1,-2.513674021E0,-2.788673639E-1,-3.270226121E-1
6.648051560E-1,-2.574760437E0,-2.532110512E-1,-3.233574033E-1
6.671966150E-1,-2.637068748E0,-2.153374404E-1,-3.148052990E-1
6.695887500E-1,-2.706707239E0,-1.628030837E-1,-3.025880158E-1
6.719801040E-1,-2.784898043E0,-1.004948914E-1,-2.915924489E-1
6.743707290E-1,-2.876527786E0,-2.352592535E-2,-2.720447779E-1
6.767620840E-1,-2.974266052E0,6.199513376E-2,-2.488319129E-1
6.791543230E-1,-3.073226213E0,1.414075494E-1,-2.305059880E-1
6.815456250E-1,-3.167299271E0,2.086026669E-1,-2.097365856E-1
6.839362500E-1,-3.246711731E0,2.452545464E-1,-1.865237355E-1
6.863277090E-1,-3.305354834E0,2.476980090E-1,-1.608674079E-1
6.887198440E-1,-3.339563131E0,2.244851440E-1,-1.339893639E-1
6.911111980E-1,-3.345671892E0,1.927201748E-1,-1.083330512E-1
6.935018230E-1,-3.323680639E0,1.560682952E-1,-8.267672360E-2
6.958931770E-1,-3.278476715E0,1.096425802E-1,-6.557251513E-2
6.982854170E-1,-3.211281538E0,6.688205153E-2,-5.702040344E-2
7.006767190E-1,-3.134312630E0,2.778670937E-2,-5.213348567E-2
7.030673440E-1,-3.051234961E0,-1.130863465E-2,-4.846829548E-2
7.054586980E-1,-2.971822500E0,-4.429532960E-2,-4.724656790E-2
7.078509380E-1,-2.897297144E0,-7.850375772E-2,-5.091175810E-2
7.102422920E-1,-2.827658415E0,-1.188208312E-1,-5.824213102E-2
7.126328650E-1,-2.766571999E0,-1.481423378E-1,-7.901153713E-2
7.150243230E-1,-2.712816000E0,-1.566944420E-1,-9.245055914E-2
7.174164590E-1,-2.654172897E0,-1.456988752E-1,-9.122882783E-2
7.198078130E-1,-2.593086481E0,-1.127121896E-1,-7.778981328E-2
7.221984380E-1,-2.533221722E0,-6.384299695E-2,-5.579867586E-2
7.245897920E-1,-2.481909037E0,-2.756527159E-3,-3.502927348E-2
7.269820310E-1,-2.436705112E0,7.787761092E-2,-1.670333184E-2
7.293733340E-1,-2.400053263E0,1.768376976E-1,-1.548160240E-2
7.317639590E-1,-2.375618696E0,2.904585600E-1,-3.258581460E-2
7.341554170E-1,-2.359736204E0,4.199618697E-1,-6.679424644E-2
7.365475520E-1,-2.346297026E0,5.653476715E-1,-1.144416928E-1
7.389389060E-1,-2.336523294E0,7.266159058E-1,-1.755281687E-1
7.413294790E-1,-2.326749563E0,9.001014829E-1,-2.427232862E-1
7.437209380E-1,-2.304758310E0,1.090691447E0,-3.038097322E-1
7.461130730E-1,-2.281545401E0,1.272729158E0,-3.612310290E-1
7.485044270E-1,-2.255889177E0,1.433997393E0,-4.039915502E-1
7.508950520E-1,-2.219237328E0,1.573274493E0,-4.369782507E-1
7.532864060E-1,-2.165481091E0,1.695447445E0,-4.577476382E-1
7.556786460E-1,-2.095842600E0,1.806624889E0,-4.772953391E-1
7.580699480E-1,-2.011543274E0,1.901919723E0,-4.919560850E-1
7.604605730E-1,-1.921135187E0,1.970336676E0,-4.968429804E-1
7.628520310E-1,-1.830727220E0,2.008209944E0,-4.956212640E-1
7.652441670E-1,-1.748871326E0,2.021649122E0,-4.895126224E-1
7.676355210E-1,-1.679232717E0,2.011875153E0,-4.834039807E-1
7.700260940E-1,-1.630363584E0,1.977666974E0,-4.785170555E-1
7.724175520E-1,-1.601042032E0,1.926354408E0,-4.834039807E-1
7.748097400E-1,-1.590046525E0,1.868933082E0,-4.943995476E-1
7.772010420E-1,-1.587602973E0,1.798072815E0,-5.078385472E-1
7.795916670E-1,-1.590046525E0,1.722325563E0,-5.249427557E-1
7.819830210E-1,-1.596155167E0,1.639247894E0,-5.493773818E-1
7.843752610E-1,-1.598598599E0,1.540287852E0,-5.835857987E-1
7.867665630E-1,-1.602263808E0,1.415671468E0,-6.275680661E-1
7.891571880E-1,-1.605929017E0,1.281281233E0,-6.813241243E-1
7.915486460E-1,-1.607150674E0,1.144447565E0,-7.399671674E-1
7.939407810E-1,-1.615702748E0,1.028383136E0,-8.010536432E-1
7.963321360E-1,-1.626698375E0,9.245361090E-1,-8.413707018E-1
7.987227090E-1,-1.630363584E0,8.377932906E-1,-8.474793434E-1
8.011141670E-1,-1.616924524E0,7.339463234E-1,-8.230447769E-1
8.035063540E-1,-1.583937883E0,5.934474468E-1,-7.863928676E-1
8.058976560E-1,-1.543620706E0,4.297356904E-1,-7.509627342E-1
8.082882810E-1,-1.508190632E0,2.904585600E-1,-7.118673921E-1
8.106796360E-1,-1.477647424E0,1.609552205E-1,-6.764371991E-1
8.130718750E-1,-1.451991081E0,4.244746268E-2,-6.495591998E-1
8.154631770E-1,-1.429999948E0,-5.162570998E-2,-6.410070658E-1
8.178538020E-1,-1.420226097E0,-1.224860102E-1,-6.422287822E-1
8.202452610E-1,-1.421447754E0,-1.774638444E-1,-6.471157074E-1
8.226373960E-1,-1.431221604E0,-2.434372455E-1,-6.520026326E-1
8.250287500E-1,-1.450769305E0,-3.423973024E-1,-6.568895578E-1
8.274193750E-1,-1.476425648E0,-4.706788957E-1,-6.617764831E-1
8.298107290E-1,-1.504525423E0,-6.038474441E-1,-6.691068411E-1
8.322029690E-1,-1.530181766E0,-7.370159626E-1,-6.715503335E-1
8.345942710E-1,-1.558281541E0,-8.689627051E-1,-6.727720499E-1
8.369848960E-1,-1.575385690E0,-9.557055235E-1,-6.642199159E-1
8.393762500E-1,-1.583937883E0,-1.027787447E0,-6.581112742E-1
8.417684900E-1,-1.583937883E0,-1.083986998E0,-6.507809162E-1
8.441597920E-1,-1.572942257E0,-1.123082280E0,-6.458939910E-1
8.465504170E-1,-1.554616332E0,-1.154847264E0,-6.471157074E-1
8.489418750E-1,-1.530181766E0,-1.185390472E0,-6.495591998E-1
8.513340110E-1,-1.502081990E0,-1.218377233E0,-6.520026326E-1
8.537253650E-1,-1.467873573E0,-1.255029082E0,-6.593329906E-1
8.561159900E-1,-1.433665156E0,-1.290459275E0,-6.593329906E-1
8.585073440E-1,-1.400678396E0,-1.318559051E0,-6.483374238E-1
8.608995840E-1,-1.381130695E0,-1.372315168E0,-6.410070658E-1
8.632908860E-1,-1.360361338E0,-1.400414944E0,-6.190159321E-1
8.656815110E-1,-1.346922278E0,-1.412632227E0,-6.031334400E-1
8.680729690E-1,-1.337148428E0,-1.427292943E0,-5.896944404E-1
8.704651040E-1,-1.331039786E0,-1.445618868E0,-5.823640823E-1
8.728564590E-1,-1.323709488E0,-1.463944793E0,-5.786988735E-1
8.752470310E-1,-1.321266055E0,-1.481049061E0,-5.774771571E-1
8.776384900E-1,-1.320044279E0,-1.501818419E0,-5.799205899E-1
8.800306250E-1,-1.323709488E0,-1.523809552E0,-5.848075151E-1
8.824219790E-1,-1.329818130E0,-1.550687671E0,-5.872509480E-1
8.848126040E-1,-1.339591980E0,-1.581230879E0,-5.921378732E-1
8.872039590E-1,-1.340813637E0,-1.594669938E0,-6.019117236E-1
8.895961980E-1,-1.329818130E0,-1.583674312E0,-6.177942157E-1
8.919875000E-1,-1.310270429E0,-1.560461521E0,-6.348984241E-1
8.943781250E-1,-1.279727221E0,-1.525031328E0,-6.520026326E-1
8.967695840E-1,-1.236966610E0,-1.490822911E0,-6.727720499E-1
8.991617190E-1,-1.190540910E0,-1.455392718E0,-6.910979748E-1
9.015530730E-1,-1.139228344E0,-1.432179928E0,-7.069804668E-1
9.039436460E-1,-1.084250450E0,-1.416297436E0,-7.167543173E-1
9.063351040E-1,-1.024385691E0,-1.408967018E0,-7.253063917E-1
9.087272400E-1,-9.645209908E-1,-1.401636600E0,-7.338585258E-1
9.111185940E-1,-9.034345150E-1,-1.401636600E0,-7.350802422E-1
9.135092190E-1,-8.447915316E-1,-1.401636600E0,-7.375236750E-1
9.159005730E-1,-7.849267721E-1,-1.401636600E0,-7.411888838E-1
9.182928130E-1,-7.226185799E-1,-1.397971511E0,-7.424106002E-1
9.206841150E-1,-6.542017460E-1,-1.385754108E0,-7.448540926E-1
9.230747400E-1,-5.845631361E-1,-1.371093392E0,-7.485192418E-1
9.254661980E-1,-5.112593770E-1,-1.360097885E0,-7.448540926E-1
9.278583340E-1,-4.379556477E-1,-1.355210900E0,-7.411888838E-1
9.302496880E-1,-3.634301424E-1,-1.361319542E0,-7.326367497E-1
9.326402610E-1,-2.876829207E-1,-1.371093392E0,-7.204194665E-1
9.350317190E-1,-2.107139677E-1,-1.390641093E0,-7.118673921E-1
9.374239060E-1,-1.349667311E-1,-1.416297436E0,-7.033152580E-1
9.398152090E-1,-6.044124439E-2,-1.455392718E0,-6.959849000E-1
9.422058340E-1,1.164079085E-2,-1.496931553E0,-6.898762584E-1
9.445971880E-1,7.761418074E-2,-1.543357253E0,-6.788806915E-1
9.469894270E-1,1.448093057E-1,-1.587339520E0,-6.727720499E-1
9.493807290E-1,2.046740502E-1,-1.633765221E0,-6.629981995E-1
9.517713540E-1,2.657605112E-1,-1.683856130E0,-6.483374238E-1
9.541628130E-1,3.244035244E-1,-1.721729755E0,-6.336767077E-1
9.565549480E-1,3.854900002E-1,-1.760825038E0,-6.202376485E-1
9.589463020E-1,4.477981925E-1,-1.791368365E0,-6.031334400E-1
9.613368750E-1,5.125498772E-1,-1.823133349E0,-5.884727240E-1
9.637283340E-1,5.809667706E-1,-1.847567916E0,-5.750336647E-1
9.661205210E-1,6.554922462E-1,-1.865893841E0,-5.615946651E-1
9.685118230E-1,7.324612141E-1,-1.884219766E0,-5.518208146E-1
9.709024480E-1,8.192039728E-1,-1.889106631E0,-5.371600389E-1
9.732938020E-1,9.132771492E-1,-1.895215392E0,-5.273861885E-1
9.756860420E-1,1.008572102E0,-1.912319541E0,-5.176123977E-1
9.780773960E-1,1.116084218E0,-1.889106631E0,-4.907343388E-1
9.804679690E-1,1.228483319E0,-1.845124483E0,-4.577476382E-1
9.828594270E-1,1.346991062E0,-1.790146589E0,-4.223175049E-1
9.852515630E-1,1.464277148E0,-1.729060173E0,-3.881090879E-1
9.876429170E-1,1.582784891E0,-1.674082279E0,-3.514571786E-1
9.900334900E-1,1.697627425E0,-1.628878355E0,-3.160270452E-1
9.924249480E-1,1.812470078E0,-1.587339520E0,-2.805968821E-1
9.948171360E-1,1.917538762E0,-1.551909328E0,-2.427232862E-1
9.972084380E-1,2.010390043E0,-1.545800686E0,-2.060714066E-1
9.995990630E-1,2.099576235E0,-1.527474761E0,-1.620891392E-1
1.001990417E0,2.172880173E0,-1.509148836E0,-1.193286031E-1
1.004382656E0,2.227857828E0,-1.483492494E0,-7.901153713E-2
1.006773959E0,2.268174887E0,-1.476162076E0,-4.480310902E-2
1.009164584E0,2.286500931E0,-1.476162076E0,-1.303814352E-2
1.011556042E0,2.287722588E0,-1.466388345E0,2.117028087E-2
1.013948177E0,2.266953230E0,-1.462723136E0,4.560486972E-2
1.016339531E0,2.222970963E0,-1.463944793E0,6.881771982E-2
1.018730104E0,2.159440994E0,-1.451727509E0,9.080885351E-2
1.021121563E0,2.071476460E0,-1.438288569E0,1.042478830E-1
1.023513750E0,1.961521029E0,-1.412632227E0,1.176868975E-1
1.025905052E0,1.833239436E0,-1.372315168E0,1.250172704E-1
1.028295677E0,1.682966709E0,-1.318559051E0,1.262390018E-1
1.030687031E0,1.514368057E0,-1.242811799E0,1.237955540E-1
1.033079271E0,1.329886913E0,-1.136521339E0,1.127999872E-1
1.035470573E0,1.131966710E0,-9.948008060E-1,9.203058481E-2
1.037861198E0,9.218292832E-1,-8.347542882E-1,7.492637634E-2
1.040252656E0,7.068048716E-1,-6.649339199E-1,6.148735434E-2
1.042644792E0,4.942239225E-1,-4.951134622E-1,4.804832488E-2
1.045036146E0,2.975254953E-1,-3.448407650E-1,3.827448934E-2
1.047426719E0,1.191529781E-1,-2.104505450E-1,3.583103418E-2
1.049818177E0,-5.066740885E-2,-1.114904583E-1,4.193968326E-2
1.052210365E0,-2.082705051E-1,-6.017781794E-2,5.537870526E-2
1.054601667E0,-3.536563218E-1,-4.673878476E-2,7.126118243E-2
1.056992292E0,-4.892682731E-1,-7.606029510E-2,8.836539090E-2
1.059383646E0,-6.151064038E-1,-1.518075317E-1,1.066913307E-1
1.061775886E0,-7.311706543E-1,-2.556545138E-1,1.140217036E-1
1.064167188E0,-8.350176811E-1,-3.656101525E-1,9.691749513E-2
1.066557813E0,-9.242039323E-1,-4.621267617E-1,6.759598851E-2
1.068949271E0,-1.001172900E0,-5.415392518E-1,2.727892995E-2
1.071341406E0,-1.070811510E0,-6.062908769E-1,-1.914679073E-2
1.073732761E0,-1.124567509E0,-6.673773527E-1,-6.923770159E-2
1.076123334E0,-1.174658418E0,-7.333507538E-1,-1.132199615E-1
1.078514792E0,-1.216197252E0,-8.029893041E-1,-1.523153037E-1
1.080906979E0,-1.249184012E0,-8.787365556E-1,-1.914106458E-1
1.083298281E0,-1.274840236E0,-9.605923891E-1,-2.280625254E-1
1.085688906E0,-1.293166280E0,-1.047335148E0,-2.586057484E-1
1.088080261E0,-1.307826996E0,-1.135299563E0,-2.867055237E-1
1.090472500E0,-1.316379070E0,-1.217155457E0,-3.086966574E-1
1.092863854E0,-1.315157294E0,-1.292902708E0,-3.258008659E-1
1.095254427E0,-1.305383563E0,-1.356432676E0,-3.404616117E-1
1.097645886E0,-1.287057519E0,-1.407745242E0,-3.490137458E-1
1.100038021E0,-1.258957744E0,-1.449284077E0,-3.551223874E-1
1.102429375E0,-1.223527670E0,-1.479827285E0,-3.575658500E-1
1.104820000E0,-1.180767059E0,-1.500596762E0,-3.587875664E-1
1.107211354E0,-1.124567509E0,-1.515257478E0,-3.490137458E-1
1.109603594E0,-1.065924525E0,-1.531139970E0,-3.343529701E-1
1.111994896E0,-9.950642586E-1,-1.525031328E0,-3.086966574E-1
1.114385521E0,-9.229822159E-1,-1.495709777E0,-2.769317031E-1
1.116776875E0,-8.509001732E-1,-1.449284077E0,-2.378363758E-1
1.119169115E0,-7.837050557E-1,-1.399193168E0,-1.999627501E-1
1.121560417E0,-7.226185799E-1,-1.351545691E0,-1.657543331E-1
1.123951042E0,-6.676407456E-1,-1.310006976E0,-1.400980055E-1
1.126342500E0,-6.175498366E-1,-1.273355007E0,-1.278807223E-1
1.128734636E0,-5.711241364E-1,-1.244033575E0,-1.278807223E-1
1.131125990E0,-5.295853019E-1,-1.219599009E0,-1.352110952E-1
1.133516563E0,-4.929334521E-1,-1.185390472E0,-1.449849308E-1
1.135908021E0,-4.575033188E-1,-1.137743115E0,-1.596456766E-1
1.138300209E0,-4.159645140E-1,-1.068104506E0,-1.853020042E-1
1.140691511E0,-3.670953214E-1,-9.862487316E-1,-2.195104212E-1
1.143082136E0,-3.035654128E-1,-8.799582720E-1,-2.610492110E-1
1.145473490E0,-2.253747135E-1,-7.467897534E-1,-3.050314784E-1
1.147865729E0,-1.300798208E-1,-6.026257277E-1,-3.526789248E-1
1.150257031E0,-1.523725688E-2,-4.486877620E-1,-3.991046548E-1
1.152647656E0,1.106008738E-1,-2.861977518E-1,-4.479738176E-1
1.155039115E0,2.523214817E-1,-1.078252643E-1,-5.029516220E-1
1.157431250E0,4.074811339E-1,8.398626745E-2,-5.518208146E-1
1.159822604E0,5.724146366E-1,2.977889180E-1,-6.067986488E-1
1.162213177E0,7.385698557E-1,5.128132701E-1,-6.617764831E-1
1.164604636E0,8.949512243E-1,7.107334733E-1,-7.045369744E-1
1.166996823E0,1.033006668E0,8.903276920E-1,-7.350802422E-1
1.169388125E0,1.150292635E0,1.036935329E0,-7.607365847E-1
1.171778750E0,1.238257170E0,1.154221296E0,-7.717320919E-1
1.174170104E0,1.294456720E0,1.251959682E0,-7.790625095E-1
1.176562344E0,1.306674004E0,1.349698067E0,-7.851711512E-1
1.178953646E0,1.272465587E0,1.438884258E0,-7.949450016E-1
1.181344271E0,1.183279395E0,1.525627136E0,-8.096057177E-1
1.183735729E0,1.033006668E0,1.616035104E0,-8.218230009E-1
1.186127865E0,8.118736148E-1,1.702777863E0,-8.206012845E-1
1.188519219E0,5.052195191E-1,1.745538354E0,-8.034970760E-1
1.190909792E0,9.349665791E-2,1.743094921E0,-7.582930923E-1
1.193301250E0,-4.061906636E-1,1.712551713E0,-6.837676167E-1
1.195693438E0,-9.425298572E-1,1.666126013E0,-5.896944404E-1
1.198084740E0,-1.461764932E0,1.608704686E0,-4.919560850E-1
1.200475365E0,-1.894257069E0,1.547618270E0,-3.942177296E-1
1.202866719E0,-2.186250448E0,1.493862152E0,-2.928141654E-1
1.205258959E0,-2.315753937E0,1.462097168E0,-2.011844814E-1
1.207650261E0,-2.292541027E0,1.413228035E0,-1.156634241E-1
1.210040886E0,-2.127607584E0,1.339924216E0,-2.525543794E-2
1.212432344E0,-1.838057518E0,1.227525115E0,7.736982405E-2
1.214824479E0,-1.455656290E0,1.065035105E0,1.873254776E-1
1.217215834E0,-1.020720601E0,8.561192751E-1,2.985028625E-1
1.219606406E0,-5.699024200E-1,6.227689385E-1,3.962412179E-1
1.221997865E0,-1.264146417E-1,4.004141986E-1,4.768753648E-1
1.224390052E0,2.853081822E-1,1.927201748E-1,5.428487659E-1
1.226781354E0,6.567139626E-1,8.239036426E-3,6.002700329E-1
1.229171979E0,9.841374755E-1,-1.285946667E-1,6.479175091E-1
1.231563334E0,1.270022154E0,-2.128940076E-1,6.882345676E-1
1.233955573E0,1.508259416E0,-2.483241409E-1,7.248864174E-1
1.236346875E0,1.698849201E0,-2.348851413E-1,7.590948939E-1
1.238737500E0,1.844234943E0,-1.518075317E-1,7.871946692E-1
1.241128959E0,1.956634045E0,5.795580801E-3,8.091858029E-1
1.243521094E0,2.045820236E0,2.293720692E-1,8.226248026E-1
1.245912448E0,2.115458727E0,5.115915537E-1,8.250682354E-1
1.248303021E0,2.167993069E0,8.206890821E-1,8.214030862E-1
1.250694479E0,2.207088470E0,1.135895371E0,8.152944446E-1
1.253086615E0,2.227857828E0,1.435219169E0,8.079640269E-1
1.255477969E0,2.237631798E0,1.706443071E0,8.067423105E-1
1.257868594E0,2.238853455E0,1.948345542E0,8.128509521E-1
1.260259948E0,2.231523037E0,2.147487164E0,8.214030862E-1
1.262652188E0,2.224192619E0,2.302646875E0,8.323986530E-1
1.265043490E0,2.216862440E0,2.405272245E0,8.446159363E-1
1.267434115E0,2.202201605E0,2.476132393E0,8.604984283E-1
1.269825573E0,2.177767038E0,2.507897377E0,8.751591444E-1
1.272217709E0,2.146002054E0,2.512784481E0,8.824895620E-1
1.274609063E0,2.105684996E0,2.484684706E0,8.885982037E-1
1.276999636E0,2.060481071E0,2.422376394E0,8.885982037E-1
1.279391094E0,2.010390043E0,2.330746651E0,8.873764873E-1
1.281783229E0,1.951747179E0,2.214682341E0,8.727157116E-1
1.284174584E0,1.889438987E0,2.072961807E0,8.421725035E-1
1.286565209E0,1.823465586E0,1.903141499E0,7.981902361E-1
1.288956563E0,1.752605319E0,1.706443071E0,7.334385514E-1
1.291348802E0,1.690297127E0,1.484088302E0,6.576912999E-1
1.293740104E0,1.631654024E0,1.250738025E0,5.758354664E-1
1.296130729E0,1.581563115E0,1.008835554E0,4.866492152E-1
1.298522188E0,1.541246057E0,7.718199492E-1,3.999064267E-1
1.300914323E0,1.509481072E0,5.580172539E-1,3.204939961E-1
1.303305677E0,1.486268282E0,3.735361397E-1,2.496336848E-1
1.305696250E0,1.472829223E0,2.232634127E-1,1.812168360E-1
1.308087709E0,1.470385790E0,1.059773862E-1,1.152434349E-1
1.310479844E0,1.478937864E0,1.923460327E-2,5.171351880E-2
1.312871198E0,1.499707341E0,-3.329976276E-2,-8.151225746E-3
1.315261823E0,1.530250549E0,-4.673878476E-2,-7.412461936E-2
1.317653177E0,1.565680623E0,-3.696494922E-2,-1.315459013E-1
1.320045417E0,1.609662890E0,-8.865172043E-3,-1.853020042E-1
1.322436719E0,1.659753799E0,3.511708602E-2,-2.317277193E-1
1.324827344E0,1.711066484E0,7.909934223E-2,-2.732664943E-1
1.327218698E0,1.758713961E0,1.352988929E-1,-3.050314784E-1
1.329610938E0,1.805139661E0,1.902767271E-1,-3.270226121E-1
1.332002292E0,1.845456719E0,2.379241735E-1,-3.392398953E-1
1.334392865E0,1.879665136E0,2.794629931E-1,-3.465702832E-1
1.336784323E0,1.905321479E0,3.161148727E-1,-3.453485370E-1
1.339176459E0,1.923647404E0,3.539884686E-1,-3.331312537E-1
1.341567813E0,1.935864687E0,3.857534528E-1,-3.135835826E-1
1.343958438E0,1.941973329E0,4.089663029E-1,-2.891489863E-1
1.346349792E0,1.940751672E0,4.272922575E-1,-2.573840320E-1
1.348742031E0,1.939529896E0,4.382878244E-1,-2.231756151E-1
1.351133334E0,1.937086463E0,4.236270487E-1,-1.853020042E-1
1.353523959E0,1.932199478E0,3.833099902E-1,-1.510935724E-1
1.355915313E0,1.926090837E0,3.222235143E-1,-1.168851554E-1
1.358307552E0,1.916316986E0,2.452545464E-1,-7.901153713E-2
1.360698854E0,1.904099703E0,1.621769518E-1,-4.724656790E-2
1.363089479E0,1.888217211E0,8.642971516E-2,-1.792506129E-2
1.365480938E0,1.871113062E0,7.017308380E-3,1.139644533E-2
1.367873073E0,1.851565361E0,-5.651262030E-2,3.583103418E-2
1.370264427E0,1.834461093E0,-1.163773686E-1,5.782216042E-2
1.372655000E0,1.811248302E0,-1.566944420E-1,8.103501797E-2
1.375046459E0,1.785591960E0,-1.689117402E-1,1.066913307E-1
1.377438646E0,1.759935617E0,-1.640248150E-1,1.311259270E-1
1.379829948E0,1.744053125E0,-1.603596359E-1,1.543387771E-1
1.382220573E0,1.740388036E0,-1.505858004E-1,1.689995378E-1
1.384611927E0,1.742831469E0,-1.469206065E-1,1.787733734E-1
1.387004167E0,1.746496677E0,-1.432554126E-1,1.909906715E-1
1.389395469E0,1.742831469E0,-1.261512041E-1,2.056514174E-1
1.391786094E0,1.730614185E0,-1.004948914E-1,2.276425511E-1
1.394177552E0,1.707401276E0,-8.094722033E-2,2.594075203E-1
1.396569688E0,1.674414635E0,-7.361683249E-2,2.960593998E-1
1.398961042E0,1.636541009E0,-7.361683249E-2,3.363764882E-1
1.401351615E0,1.605997801E0,-6.628645957E-2,3.791370094E-1
1.403743073E0,1.574232817E0,-5.651262030E-2,4.170106351E-1
1.406135209E0,1.546133041E0,-3.085630573E-2,4.487755895E-1
1.408526563E0,1.520476699E0,1.556941681E-2,4.707667232E-1
1.410917188E0,1.498485565E0,7.665588707E-2,4.866492152E-1
1.413308542E0,1.480159640E0,1.438509971E-1,4.976447821E-1
1.415700781E0,1.466720581E0,2.098243982E-1,5.037534237E-1
1.418092084E0,1.454503298E0,2.648022473E-1,5.013099313E-1
1.420482709E0,1.445951223E0,3.112279475E-1,5.037534237E-1
1.422874167E0,1.441064239E0,3.478798270E-1,4.988664985E-1
1.425266302E0,1.438620806E0,3.686492443E-1,4.927578568E-1
1.427657656E0,1.433733940E0,3.662057817E-1,4.878709316E-1
1.430048229E0,1.431290388E0,3.503232896E-1,4.829840064E-1
1.432439688E0,1.425181746E0,3.258886933E-1,4.744319320E-1
1.434831823E0,1.423960090E0,3.002323806E-1,4.658797979E-1
1.437223177E0,1.420294881E0,2.623587847E-1,4.609928727E-1
1.439613802E0,1.414186239E0,2.269286066E-1,4.622146189E-1
1.442005156E0,1.411742806E0,1.951636374E-1,4.683232903E-1
1.444397396E0,1.408077598E0,1.743942350E-1,4.768753648E-1
1.446788698E0,1.404412389E0,1.633986682E-1,4.890926480E-1
1.449179323E0,1.401968956E0,1.670638621E-1,5.000882149E-1
1.451570677E0,1.400747180E0,1.695073247E-1,5.135272741E-1
1.453962917E0,1.394638538E0,1.768376976E-1,5.233010650E-1
1.456354219E0,1.387308121E0,1.817246079E-1,5.306314826E-1
1.458744844E0,1.377534389E0,1.829463392E-1,5.306314826E-1
1.461136302E0,1.368982196E0,1.853898019E-1,5.281879902E-1
1.463528438E0,1.356764913E0,1.902767271E-1,5.257445574E-1
1.465919792E0,1.340882421E0,1.890549958E-1,5.257445574E-1
1.468310365E0,1.323778272E0,1.853898019E-1,5.306314826E-1
1.470701823E0,1.303008795E0,1.817246079E-1,5.404052734E-1
1.473094011E0,1.277352571E0,1.829463392E-1,5.538443327E-1
1.475485313E0,1.250474453E0,1.792811602E-1,5.685050488E-1
1.477875938E0,1.217487812E0,1.792811602E-1,5.795006156E-1
1.480267292E0,1.184501052E0,1.609552205E-1,5.929396749E-1
1.482659531E0,1.149070978E0,1.475161910E-1,6.039352417E-1
1.485050834E0,1.112419009E0,1.291902512E-1,6.161525249E-1
1.487441459E0,1.080654144E0,1.133077741E-1,6.283698082E-1
1.489832917E0,1.051332593E0,9.864701331E-2,6.418088675E-1
1.492225052E0,1.030563235E0,8.520799130E-2,6.503609419E-1
1.494616406E0,1.011015534E0,6.443858892E-2,6.601347923E-1
1.497006979E0,1.000019908E0,4.244746268E-2,6.699086428E-1
1.499398438E0,9.975764751E-1,2.167806216E-2,6.772390008E-1
1.501790573E0,9.987982512E-1,-1.534799580E-3,6.845693588E-1
1.504181927E0,1.006128550E0,-2.719111182E-2,6.918997765E-1
1.506572552E0,1.017124176E0,-5.895608664E-2,6.980084181E-1
1.508963906E0,1.031784892E0,-8.461239934E-2,7.004518509E-1
1.511356146E0,1.051332593E0,-1.102687269E-1,6.992301345E-1
1.513747448E0,1.072101951E0,-1.310381293E-1,6.992301345E-1
1.516138073E0,1.090427876E0,-1.518075317E-1,6.931214929E-1
1.518529531E0,1.108753920E0,-1.652465463E-1,6.882345676E-1
1.520921667E0,1.122192860E0,-1.725769192E-1,6.821259260E-1
1.523313021E0,1.131966710E0,-1.786855757E-1,6.760172844E-1
1.525703594E0,1.135631919E0,-1.786855757E-1,6.686868668E-1
1.528095052E0,1.134410143E0,-1.750203818E-1,6.589130759E-1
1.530487188E0,1.124636292E0,-1.774638444E-1,6.528044343E-1
1.532878542E0,1.112419009E0,-1.762421131E-1,6.381436586E-1
1.535269115E0,1.095314860E0,-1.689117402E-1,6.210394502E-1
1.537660573E0,1.070880294E0,-1.628030837E-1,5.990483165E-1
1.540052761E0,1.042780519E0,-1.579161733E-1,5.770571828E-1
1.542444063E0,1.009793758E0,-1.469206065E-1,5.489574075E-1
1.544834688E0,9.743636250E-1,-1.347033083E-1,5.257445574E-1
1.547226146E0,9.352682829E-1,-1.163773686E-1,5.061968565E-1
1.549618281E0,8.937295079E-1,-9.194278717E-2,4.890926480E-1
1.552009636E0,8.497472405E-1,-5.651262030E-2,4.732101560E-1
1.554400209E0,8.069866896E-1,-1.375208981E-2,4.548842311E-1
1.556791667E0,7.630044222E-1,3.511708602E-2,4.365583062E-1
1.559183802E0,7.214656472E-1,8.520799130E-2,4.145671725E-1
1.561575156E0,6.872572303E-1,1.255250573E-1,3.913543224E-1
1.563965729E0,6.579356790E-1,1.597334892E-1,3.705849051E-1
1.566357188E0,6.310576797E-1,1.878332645E-1,3.498155177E-1
1.568749375E0,6.054013371E-1,2.159330398E-1,3.290461004E-1
1.571140677E0,5.870754123E-1,2.379241735E-1,3.070549667E-1
1.573531302E0,5.675277114E-1,2.538066506E-1,2.826204002E-1
1.575922656E0,5.528669953E-1,2.648022473E-1,2.508554161E-1
1.578314896E0,5.430931449E-1,2.684674263E-1,2.117600590E-1
1.580706198E0,5.357627273E-1,2.696891427E-1,1.689995378E-1
1.583096823E0,5.296540856E-1,2.672457099E-1,1.225738227E-1
1.585488281E0,5.235454440E-1,2.635805011E-1,7.492637634E-2
1.587880417E0,5.186585188E-1,2.586935759E-1,2.972238511E-2
1.590271771E0,5.088847280E-1,2.562501431E-1,-8.151225746E-3
1.592662344E0,4.991108477E-1,2.635805011E-1,-4.480310902E-2
1.595053802E0,4.856718183E-1,2.745760679E-1,-8.267672360E-2
1.597445938E0,4.697893262E-1,2.855716348E-1,-1.119982302E-1
1.599837292E0,4.514634013E-1,2.965672016E-1,-1.364328265E-1
1.602227917E0,4.270288050E-1,3.026758432E-1,-1.584239453E-1
1.604619271E0,4.013724923E-1,3.051193058E-1,-1.755281687E-1
1.607011511E0,3.732727170E-1,3.063410223E-1,-1.901889145E-1
1.609402813E0,3.415077329E-1,3.038975596E-1,-1.962975711E-1
1.611793438E0,3.060775995E-1,2.929020226E-1,-1.987410337E-1
1.614184896E0,2.706474364E-1,2.855716348E-1,-1.999627501E-1
1.616577031E0,2.315520942E-1,2.733543515E-1,-1.975193024E-1
1.618968334E0,1.961219460E-1,2.550283968E-1,-1.914106458E-1
1.621358959E0,1.619135141E-1,2.403676212E-1,-1.804150790E-1
1.623750417E0,1.264833659E-1,2.232634127E-1,-1.584239453E-1
1.626142552E0,8.738801628E-2,2.061592042E-1,-1.364328265E-1
1.628533906E0,4.951440170E-2,1.914984435E-1,-1.156634241E-1
1.630924531E0,9.197331965E-3,1.866115332E-1,-9.489402175E-2
1.633315886E0,-3.111973964E-2,1.805028766E-1,-7.412461936E-2
1.635708073E0,-7.021508366E-2,1.756159663E-1,-5.702040344E-2
1.638099427E0,-1.044235080E-1,1.731725037E-1,-4.235965014E-2
1.640490052E0,-1.349667311E-1,1.707290560E-1,-2.892062627E-2
1.642881406E0,-1.642882526E-1,1.621769518E-1,-1.303814352E-2
1.645273646E0,-1.887228340E-1,1.511813849E-1,2.844341099E-3
1.647664948E0,-2.143791467E-1,1.438509971E-1,1.750509441E-2
1.650055573E0,-2.412572056E-1,1.389640868E-1,3.216584772E-2
1.652447031E0,-2.705787122E-1,1.389640868E-1,4.804832488E-2
1.654839167E0,-3.011219501E-1,1.511813849E-1,5.415697396E-2
1.657230521E0,-3.316651881E-1,1.743942350E-1,5.904389173E-2
1.659621094E0,-3.622084260E-1,2.024940103E-1,5.904389173E-2
1.662012552E0,-3.927516639E-1,2.183765024E-1,5.171351880E-2
1.664404688E0,-4.306252599E-1,2.232634127E-1,4.682660103E-2
1.666796042E0,-4.672771394E-1,2.134895772E-1,4.316141456E-2
1.669186667E0,-5.051507354E-1,1.866115332E-1,4.193968326E-2
1.671578021E0,-5.454677939E-1,1.487379223E-1,3.216584772E-2
1.673970261E0,-5.857848525E-1,1.035339385E-1,1.628336310E-2
1.676361563E0,-6.261019707E-1,5.588648468E-2,-4.486039281E-3
1.678752188E0,-6.651973128E-1,1.068249904E-2,-2.892062627E-2
1.681143542E0,-7.030708790E-1,-3.574322537E-2,-5.579867586E-2
1.683535781E0,-7.385010719E-1,-8.094722033E-2,-8.267672360E-2
1.685927136E0,-7.812615633E-1,-1.224860102E-1,-1.107764989E-1
1.688317709E0,-8.215786815E-1,-1.652465463E-1,-1.376545578E-1
1.690709167E0,-8.655608892E-1,-2.067853361E-1,-1.681977957E-1
1.693101302E0,-9.107649326E-1,-2.397720367E-1,-1.987410337E-1
1.695492656E0,-9.571906328E-1,-2.605414391E-1,-2.317277193E-1
1.697883229E0,-1.004838109E0,-2.764239013E-1,-2.683795691E-1
1.700274688E0,-1.057372451E0,-2.910846770E-1,-3.038097322E-1
1.702666875E0,-1.112350225E0,-3.045236766E-1,-3.392398953E-1
1.705058177E0,-1.172214985E0,-3.191844523E-1,-3.710048497E-1
1.707448802E0,-1.235744953E0,-3.314017355E-1,-4.039915502E-1
1.709840156E0,-1.301718354E0,-3.497276902E-1,-4.333130717E-1
1.712232396E0,-1.372578621E0,-3.692753613E-1,-4.577476382E-1
1.714623698E0,-1.445882440E0,-3.912664950E-1,-4.821822345E-1
1.717014323E0,-1.527738214E0,-4.205879867E-1,-5.115037560E-1
1.719405781E0,-1.610815883E0,-4.572398961E-1,-5.408252478E-1
1.721797917E0,-1.693893433E0,-4.914483130E-1,-5.664815903E-1
1.724189271E0,-1.772084117E0,-5.073308349E-1,-5.835857987E-1
1.726579844E0,-1.840500951E0,-5.061090589E-1,-5.921378732E-1
1.728971302E0,-1.899144053E0,-4.902265370E-1,-5.933596492E-1
1.731363438E0,-1.955343604E0,-4.706788957E-1,-5.896944404E-1
1.733754792E0,-2.017651796E0,-4.523529708E-1,-5.848075151E-1
1.736145417E0,-2.083625317E0,-4.291400909E-1,-5.872509480E-1
1.738536771E0,-2.148376942E0,-4.108141363E-1,-5.835857987E-1
1.740929011E0,-2.210685253E0,-3.937099278E-1,-5.848075151E-1
1.743320313E0,-2.270550013E0,-3.827143610E-1,-5.835857987E-1
1.745710938E0,-2.327971220E0,-3.692753613E-1,-5.774771571E-1
1.748102292E0,-2.385392427E0,-3.509494066E-1,-5.677033067E-1
1.750494531E0,-2.448922396E0,-3.277365565E-1,-5.591511726E-1
1.752885834E0,-2.518560886E0,-2.959715724E-1,-5.505990982E-1
1.755276459E0,-2.597973347E0,-2.507675886E-1,-5.457121730E-1
1.757667917E0,-2.685937881E0,-1.835724860E-1,-5.408252478E-1
1.760060052E0,-2.784898043E0,-9.560796618E-2,-5.347166061E-1
1.762451406E0,-2.885079861E0,9.460767731E-3,-5.261644721E-1
1.764841979E0,-2.986483335E0,1.218598783E-1,-5.127254725E-1
1.767233438E0,-3.079334736E0,2.281503379E-1,-4.968429804E-1
1.769625625E0,-3.152638435E0,3.136714101E-1,-4.748518765E-1
1.772016927E0,-3.205173016E0,3.735361397E-1,-4.516389966E-1
1.774407552E0,-3.233272791E0,3.991924822E-1,-4.210957587E-1
1.776798906E0,-3.233272791E0,3.955272734E-1,-3.832221627E-1
1.779191146E0,-3.206394672E0,3.698709607E-1,-3.465702832E-1
1.781582448E0,-3.155081987E0,3.295539021E-1,-3.148052990E-1
1.783973073E0,-3.080556631E0,2.806847095E-1,-2.867055237E-1
1.786364427E0,-2.988926888E0,2.232634127E-1,-2.696013153E-1
1.788756667E0,-2.889966726E0,1.695073247E-1,-2.598274648E-1
1.791148021E0,-2.789784908E0,1.279685199E-1,-2.573840320E-1
1.793538594E0,-2.696933508E0,1.010904759E-1,-2.573840320E-1
1.795930052E0,-2.613855839E0,8.520799130E-2,-2.573840320E-1
1.798322188E0,-2.542995453E0,8.765144646E-2,-2.549405694E-1
1.800713542E0,-2.477022171E0,1.035339385E-1,-2.463884801E-1
1.803104115E0,-2.415935755E0,1.352988929E-1,-2.305059880E-1
1.805495573E0,-2.354849339E0,1.853898019E-1,-2.060714066E-1
1.807887761E0,-2.297427893E0,2.489197403E-1,-1.681977957E-1
1.810279063E0,-2.241228342E0,3.185583353E-1,-1.254372597E-1
1.812669688E0,-2.186250448E0,3.906403482E-1,-8.389845490E-2
1.815061042E0,-2.131272793E0,4.737179577E-1,-5.579867586E-2
1.817453281E0,-2.082403660E0,5.665693879E-1,-4.724656790E-2
1.819844584E0,-2.035977840E0,6.594207883E-1,-5.824213102E-2
1.822235209E0,-1.991995454E0,7.534939647E-1,-8.634191751E-2
1.824626667E0,-1.954121828E0,8.426802158E-1,-1.266589910E-1
1.827018802E0,-1.918691754E0,9.196491838E-1,-1.767499000E-1
1.829410156E0,-1.882039785E0,9.795139432E-1,-2.243973464E-1
1.831800729E0,-1.842944503E0,1.032048345E0,-2.683795691E-1
1.834192188E0,-1.802627444E0,1.072365522E0,-3.099184036E-1
1.836584323E0,-1.759866834E0,1.106573939E0,-3.441268206E-1
1.838975677E0,-1.719549775E0,1.145669222E0,-3.722265959E-1
1.841366302E0,-1.679232717E0,1.192094922E0,-3.966611922E-1
1.843757656E0,-1.646246076E0,1.236077189E0,-4.137654006E-1
1.846149896E0,-1.616924524E0,1.269063950E0,-4.272044301E-1
1.848541198E0,-1.592489958E0,1.281281233E0,-4.308696091E-1
1.850931823E0,-1.565611839E0,1.265398741E0,-4.381999969E-1
1.853323177E0,-1.535068631E0,1.229968548E0,-4.467521012E-1
1.855715417E0,-1.502081990E0,1.189651489E0,-4.516389966E-1
1.858106771E0,-1.471538663E0,1.142004013E0,-4.589693844E-1
1.860497344E0,-1.444660664E0,1.085804462E0,-4.711866677E-1
1.862888802E0,-1.428778172E0,1.018609405E0,-4.858474433E-1
1.865280938E0,-1.421447754E0,9.404186010E-1,-4.968429804E-1
1.867672292E0,-1.427556515E0,8.512323499E-1,-4.992864132E-1
1.870062865E0,-1.439773798E0,7.486070395E-1,-4.968429804E-1
1.872454323E0,-1.450769305E0,6.227689385E-1,-4.858474433E-1
1.874846459E0,-1.458099723E0,4.834918082E-1,-4.675214887E-1
1.877237813E0,-1.465430021E0,3.454363644E-1,-4.443086386E-1
1.879628438E0,-1.465430021E0,1.988288313E-1,-4.235392213E-1
1.882019792E0,-1.464208364E0,3.389535472E-2,-4.113219380E-1
1.884412031E0,-1.470317006E0,-1.371467710E-1,-4.137654006E-1
1.886803334E0,-1.475203872E0,-3.265148103E-1,-4.235392213E-1
1.889193959E0,-1.478869081E0,-5.146611929E-1,-4.406434298E-1
1.891585313E0,-1.488642931E0,-6.624904275E-1,-4.577476382E-1
1.893977552E0,-1.508190632E0,-7.638939619E-1,-4.809605181E-1
1.896368854E0,-1.527738214E0,-8.371977806E-1,-5.139471889E-1
1.898759479E0,-1.553394556E0,-8.909538388E-1,-5.493773818E-1
1.901150938E0,-1.574164033E0,-9.178318977E-1,-5.677033067E-1
1.903543073E0,-1.594933391E0,-9.276057482E-1,-5.750336647E-1
1.905934427E0,-1.610815883E0,-9.276057482E-1,-5.786988735E-1
1.908325000E0,-1.623033166E0,-9.166101813E-1,-5.762553811E-1
1.910716459E0,-1.625476599E0,-8.799582720E-1,-5.689250231E-1
1.913108594E0,-1.616924524E0,-8.384194970E-1,-5.579294562E-1
1.915499948E0,-1.599820256E0,-8.115414381E-1,-5.542643070E-1
1.917890573E0,-1.575385690E0,-8.066545129E-1,-5.615946651E-1
1.920281927E0,-1.546064258E0,-8.274239302E-1,-5.713685155E-1
1.922674167E0,-1.516742706E0,-8.652975559E-1,-5.835857987E-1
1.925065469E0,-1.486199498E0,-9.092798233E-1,-5.970247984E-1
1.927456094E0,-1.464208364E0,-9.544837475E-1,-6.043552160E-1
1.929847552E0,-1.440995455E0,-9.996877313E-1,-6.080203652E-1
1.932239688E0,-1.417782664E0,-1.035117865E0,-6.067986488E-1
1.934631042E0,-1.393347979E0,-1.068104506E0,-6.006900072E-1
1.937021615E0,-1.373800397E0,-1.092539072E0,-5.958030820E-1
1.939413073E0,-1.348144054E0,-1.115751982E0,-5.958030820E-1
1.941805209E0,-1.329818130E0,-1.151182055E0,-6.019117236E-1
1.944196563E0,-1.312713861E0,-1.190277457E0,-6.165724993E-1
1.946587136E0,-1.294387937E0,-1.204938173E0,-6.214594245E-1
1.948978594E0,-1.279727221E0,-1.215933800E0,-6.263462901E-1
1.951370781E0,-1.268731594E0,-1.222042441E0,-6.336767077E-1
1.953762084E0,-1.262622952E0,-1.235481381E0,-6.434504986E-1
1.956152709E0,-1.260179520E0,-1.247698784E0,-6.520026326E-1
1.958544063E0,-1.260179520E0,-1.269689918E0,-6.593329906E-1
1.960936302E0,-1.263844728E0,-1.291680932E0,-6.703285575E-1
1.963327604E0,-1.271175146E0,-1.328332901E0,-6.752154827E-1
1.965718229E0,-1.283392429E0,-1.374758601E0,-6.788806915E-1
1.968109688E0,-1.302940011E0,-1.439510226E0,-6.752154827E-1
1.970501823E0,-1.317600846E0,-1.505483627E0,-6.752154827E-1
1.972893177E0,-1.321266055E0,-1.550687671E0,-6.776589751E-1
1.975283750E0,-1.312713861E0,-1.567791820E0,-6.862110496E-1
1.977675209E0,-1.294387937E0,-1.565348387E0,-6.959849000E-1
1.980067344E0,-1.268731594E0,-1.556796312E0,-7.020935416E-1
1.982458698E0,-1.236966610E0,-1.545800686E0,-7.106456757E-1
1.984849323E0,-1.203979969E0,-1.539692044E0,-7.191977501E-1
1.987240677E0,-1.168549776E0,-1.543357253E0,-7.228629589E-1
1.989632917E0,-1.135563135E0,-1.565348387E0,-7.301933169E-1
1.992024219E0,-1.101354718E0,-1.598335028E0,-7.424106002E-1
1.994414844E0,-1.065924525E0,-1.603222013E0,-7.338585258E-1
1.996806198E0,-1.026829243E0,-1.608108878E0,-7.204194665E-1
1.999198438E0,-9.865121245E-1,-1.609330654E0,-7.020935416E-1
2.001589740E0,-9.437515736E-1,-1.610552430E0,-6.776589751E-1
2.003980365E0,-9.009910822E-1,-1.608108878E0,-6.568895578E-1
2.006371823E0,-8.533436060E-1,-1.615439296E0,-6.361201406E-1
2.008763959E0,-8.056961894E-1,-1.620326161E0,-6.239028573E-1
2.011155313E0,-7.580487132E-1,-1.631321788E0,-6.153507233E-1
2.013545886E0,-7.042926550E-1,-1.643539071E0,-6.116855741E-1
2.015937344E0,-6.480931044E-1,-1.655756354E0,-6.055769324E-1
2.018329479E0,-5.882283449E-1,-1.671638846E0,-5.994682908E-1
2.020720834E0,-5.259201527E-1,-1.693629980E0,-5.921378732E-1
2.023111459E0,-4.636119604E-1,-1.716842890E0,-5.786988735E-1
2.025502813E0,-3.988603055E-1,-1.752272964E0,-5.738119483E-1
2.027895052E0,-3.353303671E-1,-1.796255231E0,-5.713685155E-1
2.030286354E0,-2.681352496E-1,-1.821911573E0,-5.457121730E-1
2.032676979E0,-1.997184008E-1,-1.841459274E0,-5.127254725E-1
2.035068334E0,-1.300798208E-1,-1.861006856E0,-4.809605181E-1
2.037460573E0,-6.044124439E-2,-1.870780706E0,-4.516389966E-1
2.039851875E0,1.041906141E-2,-1.881776333E0,-4.247609675E-1
2.042242500E0,8.005763590E-2,-1.889106631E0,-3.991046548E-1
2.044633959E0,1.484744847E-1,-1.895215392E0,-3.771135211E-1
2.047026094E0,2.144478858E-1,-1.897658825E0,-3.563441038E-1
2.049417448E0,2.828647196E-1,-1.897658825E0,-3.367964327E-1
2.051808021E0,3.488381207E-1,-1.891550183E0,-3.196922243E-1
2.054199479E0,4.135897756E-1,-1.889106631E0,-3.111401200E-1
2.056591615E0,4.783414304E-1,-1.890328407E0,-3.001445532E-1
2.058982969E0,5.418714285E-1,-1.875667691E0,-2.830403447E-1
2.061373594E0,6.151751876E-1,-1.846346140E0,-2.708230317E-1
2.063764948E0,6.897006631E-1,-1.807250857E0,-2.586057484E-1
2.066157188E0,7.691130638E-1,-1.765712023E0,-2.451667488E-1
2.068548490E0,8.509689569E-1,-1.716842890E0,-2.353929132E-1
2.070939115E0,9.352682829E-1,-1.663086772E0,-2.256190777E-1
2.073330469E0,1.025676250E0,-1.604443669E0,-2.146235108E-1
2.075722709E0,1.117305994E0,-1.538470387E0,-1.999627501E-1
2.078114011E0,1.212600827E0,-1.466388345E0,-1.926323771E-1
2.080504636E0,1.307895780E0,-1.391862750E0,-1.755281687E-1
2.082896094E0,1.403190613E0,-1.325889468E0,-1.633108705E-1
2.085288229E0,1.492376924E0,-1.279463649E0,-1.510935724E-1
2.087679584E0,1.582784891E0,-1.214712024E0,-1.339893639E-1
2.090070156E0,1.659753799E0,-1.145073414E0,-1.156634241E-1
2.092461615E0,1.724505544E0,-1.081543565E0,-9.611575305E-2
2.094853750E0,1.781926751E0,-1.022900462E0,-7.534635067E-2
2.097245104E0,1.827130795E0,-9.679228067E-1,-5.335521325E-2
2.099635677E0,1.855230570E0,-9.056146145E-1,-3.380754218E-2
2.102027136E0,1.868669629E0,-8.640757799E-1,-1.548160240E-2
2.104419323E0,1.863782644E0,-8.078762293E-1,7.731258869E-3
2.106810625E0,1.839348078E0,-7.272421122E-1,2.605719864E-2
2.109201250E0,1.788035393E0,-6.356123686E-1,4.438313842E-2
2.111592604E0,1.714731693E0,-5.464261770E-1,5.660043657E-2
2.113984844E0,1.614549875E0,-4.474660456E-1,6.515254080E-2
2.116376146E0,1.494820356E0,-3.423973024E-1,7.492637634E-2
2.118766771E0,1.365316987E0,-2.275547534E-1,8.347848058E-2
2.121158229E0,1.228483319E0,-1.041600704E-1,8.958712220E-2
2.123550365E0,1.080654144E0,3.267362714E-2,1.005826890E-1
2.125941719E0,9.377117157E-1,1.731725037E-1,1.164651662E-1
2.128332292E0,8.008780479E-1,3.148931265E-1,1.250172704E-1
2.130723750E0,6.701530218E-1,4.505051076E-1,1.360128373E-1
2.133115886E0,5.430931449E-1,5.824518800E-1,1.445649415E-1
2.135507240E0,4.245853424E-1,6.997379065E-1,1.531170458E-1
2.137897865E0,3.158514202E-1,8.048065901E-1,1.616691649E-1
2.140289219E0,2.083392292E-1,8.744452000E-1,1.726647168E-1
2.142681459E0,1.020487621E-1,8.988797665E-1,1.885472089E-1
2.145072761E0,-1.798232784E-3,8.842190504E-1,2.056514174E-1
2.147463386E0,-1.019800529E-1,8.329063654E-1,2.190904468E-1
2.149854740E0,-1.923880279E-1,7.547156811E-1,2.215339094E-1
2.152246979E0,-2.815742791E-1,6.545338631E-1,2.044296861E-1
2.154638281E0,-3.609866798E-1,5.421348214E-1,1.653343439E-1
2.157028906E0,-4.342904389E-1,4.248487949E-1,1.127999872E-1
2.159420365E0,-5.039290190E-1,3.051193058E-1,4.682660103E-2
2.161812500E0,-5.662372112E-1,1.914984435E-1,-1.792506129E-2
2.164203854E0,-6.261019707E-1,8.032107353E-2,-7.656808197E-2
2.166594427E0,-6.823015213E-1,-3.696494922E-2,-1.278807223E-1
2.168985886E0,-7.360575795E-1,-1.615813524E-1,-1.755281687E-1
2.171378021E0,-7.922571301E-1,-2.935281098E-1,-2.170669734E-1
2.173769375E0,-8.496784568E-1,-4.389139414E-1,-2.586057484E-1
2.176159948E0,-9.034345150E-1,-5.891866684E-1,-2.964793742E-1
2.178551406E0,-9.596340656E-1,-7.443463206E-1,-3.306877911E-1
2.180943594E0,-1.012168407E0,-8.933973312E-1,-3.587875664E-1
2.183334896E0,-1.061037660E0,-1.033896089E0,-3.795569539E-1
2.185725521E0,-1.105019927E0,-1.165842891E0,-3.954394460E-1
2.188116875E0,-1.140450001E0,-1.281907201E0,-3.966611922E-1
2.190509115E0,-1.168549776E0,-1.384532452E0,-3.929959834E-1
2.192900417E0,-1.184432268E0,-1.466388345E0,-3.807787001E-1
2.195291042E0,-1.194206119E0,-1.525031328E0,-3.600093126E-1
2.197682500E0,-1.192984462E0,-1.560461521E0,-3.331312537E-1
2.200074636E0,-1.185654044E0,-1.565348387E0,-2.940359116E-1
2.202465938E0,-1.168549776E0,-1.544579029E0,-2.476101965E-1
2.204856563E0,-1.141671777E0,-1.499374986E0,-1.999627501E-1
2.207248021E0,-1.106241584E0,-1.434623361E0,-1.486501098E-1
2.209640156E0,-1.061037660E0,-1.356432676E0,-1.058895886E-1
2.212031511E0,-1.010946751E0,-1.291680932E0,-6.679424644E-2
2.214422084E0,-9.559689164E-1,-1.236703157E0,-3.380754218E-2
2.216813542E0,-9.022127986E-1,-1.187834024E0,-8.151225746E-3
2.219205677E0,-8.484566808E-1,-1.136521339E0,7.731258869E-3
2.221597031E0,-7.971440554E-1,-1.072991371E0,1.506163180E-2
2.223987656E0,-7.519400716E-1,-1.002131104E0,2.117028087E-2
2.226379011E0,-7.042926550E-1,-9.166101813E-1,1.139644533E-2
2.228771250E0,-6.517582536E-1,-7.968806624E-1,-8.151225746E-3
2.231162552E0,-5.931152701E-1,-6.600469947E-1,-3.502927348E-2
2.233553177E0,-5.271418691E-1,-5.097742677E-1,-6.190731749E-2
2.235944531E0,-4.562815726E-1,-3.607232571E-1,-9.367229044E-2
2.238336771E0,-3.756474257E-1,-2.055636197E-1,-1.327676326E-1
2.240728073E0,-2.815742791E-1,-2.108247019E-2,-1.767499000E-1
2.243118698E0,-1.765055358E-1,1.914984435E-1,-2.243973464E-1
2.245510156E0,-6.410643458E-2,4.199618697E-1,-2.842620611E-1
2.247902292E0,4.829267412E-2,6.594207883E-1,-3.514571786E-1
2.250293646E0,1.558048725E-1,8.939928412E-1,-4.101001918E-1
2.252684219E0,2.572084069E-1,1.116347790E0,-4.601911008E-1
2.255075677E0,3.463946581E-1,1.316711426E0,-4.992864132E-1
2.257467813E0,4.184767008E-1,1.490196943E0,-5.286079645E-1
2.259859167E0,4.710110724E-1,1.629474163E0,-5.420469642E-1
2.262249740E0,4.917804599E-1,1.738208055E0,-5.396035314E-1
2.264641198E0,4.820066392E-1,1.813955307E0,-5.188341141E-1
2.267033386E0,4.331374466E-1,1.860381007E0,-4.870691597E-1
2.269424688E0,3.463946581E-1,1.867711306E0,-4.491955340E-1
2.271815313E0,2.083392292E-1,1.824950814E0,-4.039915502E-1
2.274206667E0,1.652770862E-2,1.728434205E0,-3.514571786E-1
2.276598906E0,-2.302616388E-1,1.578161478E0,-2.854838073E-1
2.278990209E0,-5.112593770E-1,1.393680334E0,-2.207321525E-1
2.281380834E0,-7.898136973E-1,1.210420966E0,-1.584239453E-1
2.283772292E0,-1.023164034E0,1.062591672E0,-9.978093207E-2
2.286164427E0,-1.181988835E0,9.721835256E-1,-4.358137771E-2
2.288555781E0,-1.250405669E0,9.123188257E-1,1.383990422E-2
2.290946354E0,-1.228414536E0,8.671148419E-1,7.981328666E-2
2.293337813E0,-1.120902419E0,8.158021569E-1,1.494518667E-1
2.295729948E0,-9.400864244E-1,7.424983978E-1,2.215339094E-1
2.298121302E0,-7.018491626E-1,6.276558638E-1,2.997246087E-1
2.300511875E0,-4.171862304E-1,4.932656288E-1,3.742500842E-1
2.302903334E0,-1.093104258E-1,3.442146480E-1,4.426669478E-1
2.305295469E0,2.071174979E-1,1.963853687E-1,5.037534237E-1
2.307686823E0,5.198802948E-1,6.077340245E-2,5.526226163E-1
2.310077448E0,8.179822564E-1,-4.429532960E-2,5.880527496E-1
2.312468802E0,1.103866935E0,-1.102687269E-1,6.137090921E-1
2.314861042E0,1.375090837E0,-1.261512041E-1,6.344784498E-1
2.317252344E0,1.623101950E0,-1.004948914E-1,6.528044343E-1
2.319642969E0,1.849121928E0,-3.085630573E-2,6.674651504E-1
2.322034323E0,2.042155027E0,6.321686506E-2,6.857911348E-1
2.324426563E0,2.204645157E0,1.817246079E-1,7.041170597E-1
2.326817865E0,2.332926750E0,3.197800517E-1,7.236647010E-1
2.329208490E0,2.431886673E0,4.761614203E-1,7.395471931E-1
2.331599948E0,2.505190611E0,6.581990719E-1,7.480993271E-1
2.333992084E0,2.554059744E0,8.548974991E-1,7.554296851E-1
2.336383438E0,2.587046385E0,1.066256881E0,7.542079687E-1
2.338774011E0,2.601707220E0,1.294720292E0,7.542079687E-1
2.341165469E0,2.604150534E0,1.534179211E0,7.603166103E-1
2.343557604E0,2.593154907E0,1.773638129E0,7.737556100E-1
2.345948959E0,2.574829102E0,1.991106033E0,7.981902361E-1
2.348339584E0,2.546729326E0,2.189026117E0,8.336203694E-1
2.350730938E0,2.512520790E0,2.352737904E0,8.666070700E-1
2.353123177E0,2.466095209E0,2.487128019E0,8.947068453E-1
2.355514479E0,2.414782524E0,2.586088181E0,9.142544866E-1
2.357905104E0,2.357361317E0,2.649618149E0,9.203631878E-1
2.360296459E0,2.293831348E0,2.680161238E0,9.118110538E-1
2.362688698E0,2.226636171E0,2.669165850E0,8.861547112E-1
2.365080000E0,2.154554129E0,2.619074821E0,8.531680107E-1
2.367470625E0,2.077585220E0,2.542105913E0,8.116292357E-1
2.369862084E0,1.999394536E0,2.427263260E0,7.639818192E-1
2.372254219E0,1.922425628E0,2.283099174E0,7.102257013E-1
2.374645573E0,1.843013287E0,2.107170105E0,6.466957331E-1
2.377036146E0,1.766044259E0,1.906806707E0,5.795006156E-1
2.379427604E0,1.696405768E0,1.693004012E0,5.110837817E-1
2.381819740E0,1.632875800E0,1.457210302E0,4.353365600E-1
2.384211094E0,1.586450100E0,1.217751265E0,3.583676219E-1
2.386601719E0,1.552241683E0,9.880660176E-1,2.875072956E-1
2.388993073E0,1.530250549E0,7.767068148E-1,2.203121632E-1
2.391385313E0,1.521698356E0,6.007778049E-1,1.567822397E-1
2.393776615E0,1.520476699E0,4.615006745E-1,9.813922644E-2
2.396167240E0,1.531472206E0,3.588753939E-1,4.193968326E-2
2.398558594E0,1.548576474E0,2.916802764E-1,-5.707766861E-3
2.400950834E0,1.574232817E0,2.562501431E-1,-5.457694456E-2
2.403342136E0,1.607219458E0,2.489197403E-1,-9.611575305E-2
2.405732761E0,1.646314859E0,2.611370385E-1,-1.352110952E-1
2.408124219E0,1.693962216E0,2.892368138E-1,-1.657543331E-1
2.410516354E0,1.745274901E0,3.258886933E-1,-1.840802729E-1
2.412907656E0,1.799031019E0,3.674274981E-1,-1.987410337E-1
2.415298281E0,1.854008794E0,4.101880491E-1,-2.085148543E-1
2.417689740E0,1.906543136E0,4.431747198E-1,-2.121800482E-1
2.420081875E0,1.954190612E0,4.688310325E-1,-2.121800482E-1
2.422473229E0,1.995729446E0,4.847135246E-1,-2.097365856E-1
2.424863802E0,2.031159401E0,4.896004498E-1,-2.024062127E-1
2.427255261E0,2.054372311E0,4.834918082E-1,-1.950758398E-1
2.429647396E0,2.069033146E0,4.700527787E-1,-1.901889145E-1
2.432038750E0,2.073920012E0,4.407312572E-1,-1.889671832E-1
2.434429375E0,2.071476460E0,3.967490196E-1,-1.901889145E-1
2.436820729E0,2.066589594E0,3.368842602E-1,-1.926323771E-1
2.439212969E0,2.054372311E0,2.586935759E-1,-1.987410337E-1
2.441604271E0,2.044598579E0,1.536248326E-1,-2.048496753E-1
2.443994896E0,2.031159401E0,5.222129822E-2,-2.072931379E-1
2.446386250E0,2.017720461E0,-3.452149406E-2,-1.999627501E-1
2.448778490E0,2.004281521E0,-1.102687269E-1,-1.816368103E-1
2.451169792E0,1.993286014E0,-1.713552028E-1,-1.547587663E-1
2.453560417E0,1.981068730E0,-2.214461118E-1,-1.254372597E-1
2.455951875E0,1.962742686E0,-2.568762302E-1,-9.733748436E-2
2.458344011E0,1.941973329E0,-2.837542892E-1,-6.679424644E-2
2.460735365E0,1.913873553E0,-2.935281098E-1,-2.892062627E-2
2.463125938E0,1.878443360E0,-2.837542892E-1,6.509527564E-3
2.465517396E0,1.840569854E0,-2.642066181E-1,3.827448934E-2
2.467909531E0,1.802696228E0,-2.385503203E-1,7.370464504E-2
2.470300886E0,1.764822602E0,-2.128940076E-1,1.079130620E-1
2.472691459E0,1.731835842E0,-1.982332468E-1,1.384562999E-1
2.475082917E0,1.707401276E0,-1.957897842E-1,1.628908962E-1
2.477475052E0,1.689075351E0,-2.128940076E-1,1.787733734E-1
2.479866406E0,1.673192859E0,-2.238895744E-1,1.958775818E-1
2.482257031E0,1.657310367E0,-2.153374404E-1,2.166469842E-1
2.484648386E0,1.642649651E0,-1.884594113E-1,2.313077301E-1
2.487040625E0,1.638984442E0,-1.444771439E-1,2.423032969E-1
2.489431927E0,1.645093083E0,-8.949932456E-2,2.484119385E-1
2.491822552E0,1.653645158E0,-4.185187444E-2,2.484119385E-1
2.494213906E0,1.658532143E0,-5.199986044E-3,2.496336848E-1
2.496606146E0,1.654866934E0,1.556941681E-2,2.557423413E-1
2.498997448E0,1.641427875E0,3.511708602E-2,2.630727291E-1
2.501388073E0,1.621880174E0,5.588648468E-2,2.704030871E-1
2.503779531E0,1.602332592E0,8.520799130E-2,2.740682960E-1
2.506171667E0,1.581563115E0,1.169729531E-1,2.765117288E-1
2.508563021E0,1.560793757E0,1.462944597E-1,2.765117288E-1
2.510953594E0,1.543689489E0,1.792811602E-1,2.777334750E-1
2.513345052E0,1.527807117E0,2.110461146E-1,2.801769376E-1
2.515737188E0,1.513146281E0,2.440328151E-1,2.838421166E-1
2.518128542E0,1.498485565E0,2.782412469E-1,2.887290418E-1
2.520519115E0,1.486268282E0,3.148931265E-1,2.923942208E-1
2.522910573E0,1.474050999E0,3.539884686E-1,2.960593998E-1
2.525302761E0,1.464277148E0,3.943055570E-1,2.899507582E-1
2.527694063E0,1.458168507E0,4.321791530E-1,2.813986540E-1
2.530084688E0,1.452059865E0,4.676093161E-1,2.728465497E-1
2.532476042E0,1.445951223E0,4.957090914E-1,2.655161619E-1
2.534868281E0,1.445951223E0,5.164784789E-1,2.532988787E-1
2.537259584E0,1.447172880E0,5.335826874E-1,2.435250431E-1
2.539650209E0,1.448394656E0,5.482434630E-1,2.337511927E-1
2.542041563E0,1.448394656E0,5.653476715E-1,2.251990885E-1
2.544433802E0,1.447172880E0,5.885605216E-1,2.215339094E-1
2.546825104E0,1.442286015E0,6.178820133E-1,2.227556258E-1
2.549215729E0,1.436177373E0,6.569773555E-1,2.288642675E-1
2.551607188E0,1.426403522E0,6.924074888E-1,2.374163717E-1
2.553999323E0,1.411742806E0,7.266159058E-1,2.496336848E-1
2.556390677E0,1.395860314E0,7.596026063E-1,2.655161619E-1
2.558781250E0,1.376312613E0,7.754850984E-1,2.789551914E-1
2.561172709E0,1.355543256E0,7.852589488E-1,2.911725044E-1
2.563564844E0,1.332330346E0,7.877023816E-1,3.058332503E-1
2.565956198E0,1.306674004E0,7.852589488E-1,3.192722797E-1
2.568346771E0,1.279796004E0,7.767068148E-1,3.339330256E-1
2.570738229E0,1.251696229E0,7.608243823E-1,3.485937715E-1
2.573130365E0,1.224818110E0,7.437201142E-1,3.656979799E-1
2.575521719E0,1.195496678E0,7.241724730E-1,3.852456510E-1
2.577912344E0,1.162509918E0,7.058465481E-1,4.035716057E-1
2.580303698E0,1.135631919E0,6.875205636E-1,4.231192768E-1
2.582695938E0,1.107532144E0,6.643077135E-1,4.426669478E-1
2.585087240E0,1.081875801E0,6.435383558E-1,4.548842311E-1
2.587477865E0,1.058663011E0,6.142168045E-1,4.671015143E-1
2.589869219E0,1.037893534E0,5.897822380E-1,4.793188572E-1
2.592261459E0,1.019567609E0,5.629041791E-1,4.890926480E-1
2.594652761E0,1.006128550E0,5.384696126E-1,4.976447821E-1
2.597043386E0,9.914678335E-1,5.152567625E-1,5.037534237E-1
2.599434844E0,9.768070579E-1,4.896004498E-1,5.098620653E-1
2.601826979E0,9.633680582E-1,4.688310325E-1,5.135272741E-1
2.604218334E0,9.548159838E-1,4.407312572E-1,5.196359158E-1
2.606608906E0,9.499290586E-1,4.138532281E-1,5.233010650E-1
2.609000365E0,9.450421333E-1,3.906403482E-1,5.294097662E-1
2.611392500E0,9.450421333E-1,3.600971401E-1,5.342966318E-1
2.613783854E0,9.474855661E-1,3.417711854E-1,5.391835570E-1
2.616174427E0,9.462638497E-1,3.210017979E-1,5.330749154E-1
2.618565886E0,9.474855661E-1,3.051193058E-1,5.257445574E-1
2.620958021E0,9.474855661E-1,2.904585600E-1,5.135272741E-1
2.623349375E0,9.474855661E-1,2.831281722E-1,5.000882149E-1
2.625740000E0,9.474855661E-1,2.855716348E-1,4.854274988E-1
2.628131354E0,9.499290586E-1,2.953454852E-1,4.671015143E-1
2.630523594E0,9.499290586E-1,3.112279475E-1,4.524407685E-1
2.632914896E0,9.523724914E-1,3.332190812E-1,4.328930974E-1
2.635305521E0,9.523724914E-1,3.625405729E-1,4.170106351E-1
2.637696875E0,9.487072825E-1,3.894186318E-1,4.047933221E-1
2.640089115E0,9.462638497E-1,4.114097655E-1,3.986846805E-1
2.642480417E0,9.450421333E-1,4.321791530E-1,3.913543224E-1
2.644871042E0,9.389334917E-1,4.468399286E-1,3.803587556E-1
2.647262500E0,9.328248501E-1,4.651658535E-1,3.705849051E-1
2.649654636E0,9.303813577E-1,4.712744951E-1,3.644762635E-1
2.652045990E0,9.267161489E-1,4.773831666E-1,3.583676219E-1
2.654436563E0,9.254944324E-1,4.798265994E-1,3.547024131E-1
2.656828021E0,9.218292832E-1,4.810483456E-1,3.498155177E-1
2.659220156E0,9.206075072E-1,4.737179577E-1,3.449285924E-1
2.661611511E0,9.218292832E-1,4.602789283E-1,3.339330256E-1
2.664002084E0,9.218292832E-1,4.492833912E-1,3.229374588E-1
2.666393542E0,9.242727160E-1,4.272922575E-1,3.094984293E-1
2.668785677E0,9.230509996E-1,4.065228403E-1,2.887290418E-1
2.671177031E0,9.206075072E-1,3.796448112E-1,2.667379081E-1
2.673567656E0,9.120554328E-1,3.552102149E-1,2.374163717E-1
2.675959011E0,9.010598660E-1,3.405494690E-1,2.117600590E-1
2.678351250E0,8.827339411E-1,3.283321559E-1,1.824385673E-1
2.680742552E0,8.595210314E-1,3.222235143E-1,1.543387771E-1
2.683133177E0,8.326430321E-1,3.234452307E-1,1.274607331E-1
2.685524531E0,7.972128391E-1,3.344407976E-1,1.005826890E-1
2.687916771E0,7.593392134E-1,3.527667522E-1,7.492637634E-2
2.690308073E0,7.190221548E-1,3.710927069E-1,5.415697396E-2
2.692698698E0,6.738181710E-1,3.967490196E-1,3.216584772E-2
2.695090156E0,6.298359036E-1,4.187401533E-1,1.261817664E-2
2.697482292E0,5.858536363E-1,4.419530034E-1,-2.042576671E-3
2.699873646E0,5.430931449E-1,4.590572119E-1,-1.670333184E-2
2.702264219E0,5.039978027E-1,4.786048830E-1,-2.769889683E-2
2.704655677E0,4.710110724E-1,4.859352708E-1,-3.747273237E-2
2.707047813E0,4.416895509E-1,4.944873750E-1,-4.969002679E-2
2.709439167E0,4.172549546E-1,4.957090914E-1,-6.190731749E-2
2.711829740E0,3.977073133E-1,4.896004498E-1,-7.168115675E-2
2.714221198E0,3.818248212E-1,4.786048830E-1,-8.145499229E-2
2.716613334E0,3.671640754E-1,4.615006745E-1,-8.634191751E-2
2.719004688E0,3.549467623E-1,4.443964660E-1,-9.245055914E-2
2.721395313E0,3.439511955E-1,4.285139740E-1,-9.733748436E-2
2.723786667E0,3.317339122E-1,4.126314819E-1,-1.022243947E-1
2.726178906E0,3.207383454E-1,3.979707360E-1,-1.083330512E-1
2.728570209E0,3.060775995E-1,3.845317066E-1,-1.119982302E-1
2.730960834E0,2.914168239E-1,3.735361397E-1,-1.144416928E-1
2.733352188E0,2.755343616E-1,3.649840355E-1,-1.193286031E-1
2.735744427E0,2.584301531E-1,3.625405729E-1,-1.229937971E-1
2.738135729E0,2.425476611E-1,3.662057817E-1,-1.254372597E-1
2.740526354E0,2.278869003E-1,3.735361397E-1,-1.266589910E-1
2.742917813E0,2.156696171E-1,3.759796023E-1,-1.266589910E-1
2.745309948E0,2.034523189E-1,3.906403482E-1,-1.254372597E-1
2.747701250E0,1.961219460E-1,4.040793777E-1,-1.217720658E-1
2.750091875E0,1.900132895E-1,4.236270487E-1,-1.168851554E-1
2.752483334E0,1.851263791E-1,4.468399286E-1,-1.119982302E-1
2.754875469E0,1.826829165E-1,4.761614203E-1,-1.046678573E-1
2.757266823E0,1.814611852E-1,5.091481209E-1,-9.611575305E-2
2.759657396E0,1.777960062E-1,5.519086123E-1,-8.145499229E-2
2.762048854E0,1.741308123E-1,5.946691632E-1,-6.557251513E-2
2.764440990E0,1.692438871E-1,6.313210130E-1,-4.724656790E-2
2.766832344E0,1.655787081E-1,6.557556391E-1,-3.136408702E-2
2.769222917E0,1.582483351E-1,6.679729223E-1,-1.059468463E-2
2.771614375E0,1.484744847E-1,6.643077135E-1,8.952986449E-3
2.774006563E0,1.399223804E-1,6.520904303E-1,2.361373976E-2
2.776397865E0,1.264833659E-1,6.435383558E-1,3.583103418E-2
2.778788490E0,1.130443290E-1,6.337645054E-1,4.560486972E-2
2.781179844E0,9.471838921E-2,6.276558638E-1,5.415697396E-2
2.783572084E0,7.150553167E-2,6.239906549E-1,6.515254080E-2
2.785963386E0,4.096229747E-2,6.142168045E-1,8.347848058E-2
2.788354011E0,1.866955543E-3,5.995560884E-1,1.042478830E-1
2.790745365E0,-4.089357331E-2,5.787866712E-1,1.262390018E-1
2.793137604E0,-8.487583697E-2,5.604607463E-1,1.518953294E-1
2.795528906E0,-1.313015521E-1,5.384696126E-1,1.738864481E-1
2.797919531E0,-1.777272671E-1,5.103698373E-1,1.946558505E-1
2.800310990E0,-2.265964448E-1,4.749397039E-1,2.129818052E-1
2.802703125E0,-2.766873538E-1,4.321791530E-1,2.239773721E-1
2.805094479E0,-3.292217255E-1,3.796448112E-1,2.288642675E-1
2.807485052E0,-3.817560971E-1,3.271104395E-1,2.288642675E-1
2.809876511E0,-4.379556477E-1,2.721326053E-1,2.227556258E-1
2.812268646E0,-4.917117357E-1,2.171547711E-1,2.117600590E-1
2.814660000E0,-5.442460775E-1,1.658421308E-1,1.946558505E-1
2.817050573E0,-5.955587029E-1,1.230816096E-1,1.751081795E-1
2.819442031E0,-6.407626867E-1,8.520799130E-2,1.494518667E-1
2.821834167E0,-6.859666705E-1,5.344302580E-2,1.189086288E-1
2.824225521E0,-7.287272215E-1,2.900843881E-2,8.347848058E-2
2.826616146E0,-7.727094889E-1,2.130390611E-3,4.316141456E-2
2.829007500E0,-8.203569055E-1,-2.841284312E-2,-2.042576671E-3
2.831399740E0,-8.704478145E-1,-6.750819087E-2,-4.602484033E-2
2.833791042E0,-9.217604399E-1,-1.029383391E-1,-8.267672360E-2
2.836181667E0,-9.706296325E-1,-1.285946667E-1,-1.107764989E-1
2.838573021E0,-1.020720601E0,-1.456988752E-1,-1.364328265E-1
2.840965261E0,-1.070811510E0,-1.591379046E-1,-1.608674079E-1
2.843356563E0,-1.124567509E0,-1.750203818E-1,-1.865237355E-1
2.845747188E0,-1.183210611E0,-1.872376800E-1,-2.170669734E-1
2.848138646E0,-1.247962236E0,-2.006766945E-1,-2.476101965E-1
2.850530781E0,-1.321266055E0,-2.226678282E-1,-2.744882405E-1
2.852922084E0,-1.397013187E0,-2.434372455E-1,-2.964793742E-1
2.855312709E0,-1.480090857E0,-2.666500807E-1,-3.196922243E-1
2.857704167E0,-1.565611839E0,-2.886412144E-1,-3.367964327E-1
2.860096302E0,-1.649911165E0,-3.069671392E-1,-3.514571786E-1
2.862487656E0,-1.731767058E0,-3.118540645E-1,-3.624527454E-1
2.864878229E0,-1.817288160E0,-3.155192435E-1,-3.734483123E-1
2.867269688E0,-1.912582994E0,-3.240713477E-1,-3.783352375E-1
2.869661823E0,-2.011543274E0,-3.301800191E-1,-3.758917749E-1
2.872053177E0,-2.101951122E0,-3.350669146E-1,-3.722265959E-1
2.874443750E0,-2.180141926E0,-3.277365565E-1,-3.697831333E-1
2.876835209E0,-2.249780416E0,-3.265148103E-1,-3.612310290E-1
2.879227344E0,-2.309645176E0,-3.289582729E-1,-3.514571786E-1
2.881618698E0,-2.364623070E0,-3.326234519E-1,-3.429050744E-1
2.884009323E0,-2.425709486E0,-3.228496313E-1,-3.319095075E-1
2.886400677E0,-2.494126320E0,-2.971933186E-1,-3.233574033E-1
2.888792917E0,-2.574760437E0,-2.532110512E-1,-3.148052990E-1
2.891184219E0,-2.668833733E0,-1.872376800E-1,-3.062531948E-1
2.893574844E0,-2.780011177E0,-9.316451848E-2,-3.038097322E-1
2.895966198E0,-2.899740458E0,9.460767731E-3,-2.977010906E-1
2.898358438E0,-3.023135185E0,1.133077741E-1,-2.952576280E-1
2.900749740E0,-3.145308256E0,1.976071000E-1,-2.928141654E-1
2.903140365E0,-3.250376940E0,2.696891427E-1,-2.928141654E-1
2.905531823E0,-3.333454609E0,3.051193058E-1,-2.805968821E-1
2.907923959E0,-3.387210608E0,3.002323806E-1,-2.634926736E-1
2.910315261E0,-3.412866831E0,2.476980090E-1,-2.378363758E-1
2.912705886E0,-3.404314756E0,1.597334892E-1,-2.121800482E-1
2.915097344E0,-3.367662907E0,5.099956691E-2,-1.901889145E-1
2.917489479E0,-3.306576490E0,-5.773435533E-2,-1.816368103E-1
2.919880834E0,-3.229607582E0,-1.371467710E-1,-1.877454668E-1
2.922271406E0,-3.145308256E0,-1.896811426E-1,-2.121800482E-1
2.924662865E0,-3.061008930E0,-2.153374404E-1,-2.476101965E-1
2.927055000E0,-2.981596470E0,-2.373285741E-1,-2.818185985E-1
2.929446354E0,-2.905849218E0,-2.764239013E-1,-3.160270452E-1
2.931836927E0,-2.842319250E0,-3.130758107E-1,-3.343529701E-1
2.934228386E0,-2.784898043E0,-3.460624814E-1,-3.343529701E-1
2.936620521E0,-2.738472223E0,-3.631666899E-1,-3.160270452E-1
2.939011875E0,-2.696933508E0,-3.521711528E-1,-2.793751359E-1
2.941402500E0,-2.663946867E0,-2.996367812E-1,-2.268408090E-1
2.943793854E0,-2.641955614E0,-2.116722614E-1,-1.694195122E-1
2.946186094E0,-2.624851465E0,-9.927316010E-2,-1.193286031E-1
2.948577396E0,-2.617521048E0,3.389535472E-2,-8.389845490E-2
2.950968021E0,-2.613855839E0,1.866115332E-1,-6.679424644E-2
2.953359375E0,-2.611412525E0,3.759796023E-1,-7.168115675E-2
2.955751615E0,-2.611412525E0,6.019995213E-1,-9.367229044E-2
2.958142917E0,-2.602860212E0,8.500106335E-1,-1.364328265E-1
2.960533542E0,-2.582090855E0,1.109017372E0,-1.950758398E-1
2.962924896E0,-2.552769423E0,1.350919843E0,-2.537188232E-1
2.965317136E0,-2.513674021E0,1.543953061E0,-3.086966574E-1
2.967708438E0,-2.463583231E0,1.686895370E0,-3.563441038E-1
2.970099063E0,-2.401274920E0,1.796851039E0,-4.003263712E-1
2.972490521E0,-2.329192877E0,1.882372141E0,-4.369782507E-1
2.974882656E0,-2.246115208E0,1.942236900E0,-4.662997723E-1
2.977274011E0,-2.155707359E0,1.995992899E0,-4.992864132E-1
2.979664584E0,-2.062855959E0,2.037531614E0,-5.273861885E-1
2.982056042E0,-1.976112962E0,2.063187838E0,-5.432687402E-1
2.984448177E0,-1.896700621E0,2.060744524E0,-5.554860234E-1
2.986839531E0,-1.829505444E0,2.043640137E0,-5.628163815E-1
2.989230104E0,-1.778192759E0,2.008209944E0,-5.567077398E-1
2.991621563E0,-1.742762685E0,1.939793348E0,-5.396035314E-1
2.994013698E0,-1.725658417E0,1.855494022E0,-5.176123977E-1
2.996405052E0,-1.724436760E0,1.747981906E0,-4.956212640E-1
2.998795677E0,-1.728101850E0,1.625808954E0,-4.846256971E-1
3.001187031E0,-1.737875700E0,1.492640376E0,-4.821822345E-1
3.003579271E0,-1.751314759E0,1.355806708E0,-4.858474433E-1
3.005970573E0,-1.769640684E0,1.218973041E0,-4.895126224E-1
3.008361198E0,-1.795297027E0,1.089469671E0,-4.858474433E-1
3.010752552E0,-1.827062011E0,9.660748839E-1,-4.748518765E-1
3.013144792E0,-1.853940010E0,8.353498578E-1,-4.577476382E-1
3.015536094E0,-1.878374577E0,6.789684892E-1,-4.491955340E-1
3.017926719E0,-1.890591860E0,5.177001953E-1,-4.443086386E-1
3.020318073E0,-1.891813636E0,3.894186318E-1,-4.296478629E-1
3.022710313E0,-1.882039785E0,2.696891427E-1,-4.088784754E-1
3.025101615E0,-1.862492085E0,1.243033260E-1,-3.893308043E-1
3.027492240E0,-1.834392309E0,-3.818668053E-2,-3.697831333E-1
3.029883698E0,-1.809957743E0,-1.872376800E-1,-3.575658500E-1
3.032275834E0,-1.786744952E0,-3.130758107E-1,-3.600093126E-1
3.034667188E0,-1.762310386E0,-4.266966283E-1,-3.771135211E-1
3.037057761E0,-1.734210491E0,-5.647521019E-1,-4.101001918E-1
3.039449219E0,-1.698780417E0,-6.930336952E-1,-4.369782507E-1
3.041841354E0,-1.663350224E0,-7.981024384E-1,-4.601911008E-1
3.044232709E0,-1.638915658E0,-8.799582720E-1,-4.772953391E-1
3.046623281E0,-1.621811390E0,-9.166101813E-1,-4.809605181E-1
3.049014740E0,-1.610815883E0,-9.202753305E-1,-4.858474433E-1
3.051406875E0,-1.603485465E0,-9.031711221E-1,-4.943995476E-1
3.053798229E0,-1.590046525E0,-8.604106307E-1,-5.005081892E-1
3.056188802E0,-1.576607466E0,-8.139848709E-1,-5.090602636E-1
3.058580261E0,-1.560724974E0,-7.724460959E-1,-5.200558305E-1
3.060972396E0,-1.542399049E0,-7.394593954E-1,-5.298296809E-1
3.063363750E0,-1.520407915E0,-7.174682617E-1,-5.420469642E-1
3.065754375E0,-1.491086364E0,-7.040292621E-1,-5.518208146E-1
3.068145729E0,-1.460543156E0,-6.991423368E-1,-5.640380979E-1
3.070537969E0,-1.437330246E0,-7.015857697E-1,-5.762553811E-1
3.072929271E0,-1.411674023E0,-7.199117541E-1,-5.872509480E-1
3.075319896E0,-1.389682889E0,-7.394593954E-1,-5.958030820E-1
3.077711250E0,-1.366469979E0,-7.638939619E-1,-5.970247984E-1
3.080103490E0,-1.345700622E0,-7.822199464E-1,-5.982465148E-1
3.082494792E0,-1.326152921E0,-8.029893041E-1,-5.982465148E-1
3.084885417E0,-1.309048653E0,-8.310891390E-1,-6.019117236E-1
3.087276875E0,-1.294387937E0,-8.628540635E-1,-6.055769324E-1
3.089669011E0,-1.282170653E0,-8.958407640E-1,-6.116855741E-1
3.092060313E0,-1.271175146E0,-9.214971066E-1,-6.190159321E-1
3.094450938E0,-1.257736087E0,-9.434882402E-1,-6.312332153E-1
3.096842396E0,-1.245518804E0,-9.630359411E-1,-6.397853494E-1
3.099234531E0,-1.228414536E0,-9.838052988E-1,-6.532243490E-1
3.101625886E0,-1.213753819E0,-9.935791492E-1,-6.642199159E-1
3.104016459E0,-1.197871327E0,-9.899139404E-1,-6.764371991E-1
3.106407917E0,-1.175880194E0,-9.862487316E-1,-6.849893332E-1
3.108800052E0,-1.151445627E0,-9.776966572E-1,-6.898762584E-1
3.111191406E0,-1.122124076E0,-9.776966572E-1,-6.898762584E-1
3.113581979E0,-1.094024301E0,-9.838052988E-1,-6.898762584E-1
3.115973438E0,-1.062259316E0,-1.007017970E0,-6.910979748E-1
3.118365573E0,-1.029272676E0,-1.033896089E0,-6.959849000E-1
3.120756927E0,-9.926207662E-1,-1.063217640E0,-6.996501088E-1
3.123147552E0,-9.535254240E-1,-1.094982505E0,-7.045369744E-1
3.125538906E0,-9.132083654E-1,-1.129190922E0,-7.094238997E-1
3.127931146E0,-8.704478145E-1,-1.160955906E0,-7.118673921E-1
3.130322448E0,-8.252438307E-1,-1.197607875E0,-7.130891085E-1
3.132713073E0,-7.788181305E-1,-1.239146590E0,-7.082021832E-1
3.135104427E0,-7.311706543E-1,-1.279463649E0,-7.057587504E-1
3.137496667E0,-6.798580289E-1,-1.313672066E0,-6.984283328E-1
3.139887969E0,-6.199932694E-1,-1.347880602E0,-6.935414076E-1
3.142278594E0,-5.613502860E-1,-1.379645467E0,-6.910979748E-1
3.144669948E0,-4.978203773E-1,-1.413853884E0,-6.849893332E-1
3.147062188E0,-4.355121851E-1,-1.451727509E0,-6.739937663E-1
3.149453490E0,-3.780908883E-1,-1.505483627E0,-6.691068411E-1
3.151844115E0,-3.231130838E-1,-1.581230879E0,-6.678851247E-1
3.154235573E0,-2.705787122E-1,-1.626434803E0,-6.507809162E-1
3.156627709E0,-2.143791467E-1,-1.669195414E0,-6.275680661E-1
3.159019063E0,-1.581795961E-1,-1.713177681E0,-6.055769324E-1
3.161409636E0,-1.032017842E-1,-1.758381605E0,-5.835857987E-1
3.163801094E0,-5.066740885E-2,-1.801142216E0,-5.664815903E-1
3.166193229E0,4.310414661E-3,-1.841459274E0,-5.481556058E-1
3.168584584E0,5.928823724E-2,-1.879332900E0,-5.359383225E-1
3.170975156E0,1.142660603E-1,-1.913541317E0,-5.237210393E-1
3.173366615E0,1.729090810E-1,-1.950193167E0,-5.176123977E-1
3.175758750E0,2.327738255E-1,-1.991732001E0,-5.224993229E-1
3.178150104E0,2.975254953E-1,-2.017388344E0,-5.237210393E-1
3.180540677E0,3.671640754E-1,-2.044266462E0,-5.176123977E-1
3.182932136E0,4.380243719E-1,-2.065035820E0,-5.078385472E-1
3.185324271E0,5.186585188E-1,-2.079696655E0,-4.968429804E-1
3.187715625E0,6.041796207E-1,-2.089470387E0,-4.919560850E-1
3.190106250E0,6.909223795E-1,-2.104131222E0,-4.858474433E-1
3.192497604E0,7.935476899E-1,-2.107796431E0,-4.846256971E-1
3.194889844E0,8.973946571E-1,-2.096800804E0,-4.809605181E-1
3.197281146E0,1.006128550E0,-2.087027073E0,-4.748518765E-1
3.199671771E0,1.116084218E0,-2.080918312E0,-4.711866677E-1
3.202063125E0,1.235813737E0,-2.061370611E0,-4.565259218E-1
3.204455365E0,1.357986689E0,-2.014945030E0,-4.357565343E-1
3.206846667E0,1.481381297E0,-1.959967017E0,-4.137654006E-1
3.209237292E0,1.605997801E0,-1.895215392E0,-3.856656253E-1
3.211628646E0,1.728170633E0,-1.817024708E0,-3.551223874E-1
3.214020886E0,1.847900152E0,-1.735168815E0,-3.221356869E-1
3.216412188E0,1.955412388E0,-1.663086772E0,-2.879272699E-1
3.218802813E0,2.050707102E0,-1.603222013E0,-2.549405694E-1
3.221194271E0,2.130119562E0,-1.536026835E0,-2.182887048E-1
3.223586406E0,2.191205978E0,-1.482270837E0,-1.816368103E-1
3.225977761E0,2.229079723E0,-1.438288569E0,-1.425414681E-1
3.228368334E0,2.247405529E0,-1.384532452E0,-1.010026634E-1
3.230759792E0,2.243740320E0,-1.328332901E0,-6.190731749E-2
3.233151927E0,2.214418888E0,-1.251363873E0,-2.281197906E-2
3.235543281E0,2.163106203E0,-1.160955906E0,1.017471403E-2
3.237933854E0,2.082472086E0,-1.049778581E0,3.827448934E-2
3.240325313E0,1.973738313E0,-9.239405394E-1,6.148735434E-2
3.242717448E0,1.840569854E0,-7.846633792E-1,8.103501797E-2
3.245108802E0,1.684188485E0,-6.478297114E-1,8.836539090E-2
3.247499375E0,1.509481072E0,-4.987786710E-1,9.569576383E-2
3.249890834E0,1.323778272E0,-3.350669146E-1,1.018044204E-1
3.252282969E0,1.130745053E0,-1.566944420E-1,9.936095774E-2
3.254674323E0,9.413769245E-1,2.045633271E-2,8.103501797E-2
3.257064948E0,7.507871389E-1,1.853898019E-1,7.003945112E-2
3.259456302E0,5.601973534E-1,3.283321559E-1,7.248291373E-2
3.261848490E0,3.720509708E-1,4.492833912E-1,7.981328666E-2
3.264239844E0,1.900132895E-1,5.335826874E-1,8.714365959E-2
3.266630469E0,7.975602522E-3,5.726780295E-1,1.042478830E-1
3.269021823E0,-1.765055358E-1,5.580172539E-1,1.286824644E-1
3.271414063E0,-3.487693965E-1,4.883787334E-1,1.506735981E-1
3.273805365E0,-5.100376606E-1,3.857534528E-1,1.555605084E-1
3.276195990E0,-6.554234624E-1,2.525849342E-1,1.494518667E-1
3.278587344E0,-7.824833393E-1,1.230816096E-1,1.225738227E-1
3.280979584E0,-8.899955153E-1,9.460767731E-3,7.248291373E-2
3.283370886E0,-9.779600501E-1,-8.461239934E-2,1.383990422E-2
3.285761511E0,-1.051263809E0,-1.579161733E-1,-4.602484033E-2
3.288152865E0,-1.111128569E0,-2.251112908E-1,-1.022243947E-1
3.290545104E0,-1.166106343E0,-2.947498560E-1,-1.547587663E-1
3.292936406E0,-1.216197252E0,-3.790491819E-1,-2.011844814E-1
3.295327031E0,-1.263844728E0,-4.755658209E-1,-2.500536442E-1
3.297718490E0,-1.309048653E0,-5.952953100E-1,-2.940359116E-1
3.300110625E0,-1.350587487E0,-7.260203958E-1,-3.343529701E-1
3.302501979E0,-1.387239337E0,-8.628540635E-1,-3.648962080E-1
3.304892552E0,-1.415339112E0,-9.984659553E-1,-3.917742670E-1
3.307284011E0,-1.434886813E0,-1.131634474E0,-4.101001918E-1
3.309676146E0,-1.442217231E0,-1.262359500E0,-4.137654006E-1
3.312067500E0,-1.436108589E0,-1.382089019E0,-4.113219380E-1
3.314458073E0,-1.422669530E0,-1.477383852E0,-3.991046548E-1
3.316849531E0,-1.401900172E0,-1.558017969E0,-3.771135211E-1
3.319241667E0,-1.370135188E0,-1.626434803E0,-3.465702832E-1
3.321633021E0,-1.329818130E0,-1.686299562E0,-3.099184036E-1
3.324023594E0,-1.284614086E0,-1.722951531E0,-2.683795691E-1
3.326415052E0,-1.232079744E0,-1.737612247E0,-2.280625254E-1
3.328807188E0,-1.186875701E0,-1.732725263E0,-1.877454668E-1
3.331198542E0,-1.141671777E0,-1.681412697E0,-1.523153037E-1
3.333589167E0,-1.102576375E0,-1.595891595E0,-1.217720658E-1
3.335980521E0,-1.064702868E0,-1.481049061E0,-9.978093207E-2
3.338372761E0,-1.030494332E0,-1.346658826E0,-8.878537267E-2
3.340764063E0,-9.962859750E-1,-1.200051308E0,-9.611575305E-2
3.343154688E0,-9.608558416E-1,-1.036339521E0,-1.107764989E-1
3.345546042E0,-9.144300818E-1,-8.567454219E-1,-1.339893639E-1
3.347938281E0,-8.582305312E-1,-6.710425615E-1,-1.633108705E-1
3.350329584E0,-7.934789062E-1,-4.938917458E-1,-1.926323771E-1
3.352720209E0,-7.189533710E-1,-3.399538398E-1,-2.256190777E-1
3.355111563E0,-6.322106123E-1,-1.994549781E-1,-2.634926736E-1
3.357503802E0,-5.283635855E-1,-7.728202641E-2,-3.038097322E-1
3.359895104E0,-4.074124098E-1,4.122573137E-2,-3.539006412E-1
3.362285729E0,-2.644700706E-1,1.707290560E-1,-4.101001918E-1
3.364677084E0,-1.068669707E-1,3.271104395E-1,-4.797387719E-1
3.367069323E0,5.928823724E-2,5.213654041E-1,-5.542643070E-1
3.369460625E0,2.254434526E-1,7.534939647E-1,-6.251245737E-1
3.371851250E0,3.842682838E-1,1.006392121E0,-6.886545420E-1
3.374242709E0,5.137716532E-1,1.254403114E0,-7.387454510E-1
3.376634844E0,6.078447700E-1,1.484088302E0,-7.741755843E-1
3.379026198E0,6.554922462E-1,1.680786729E0,-7.986101508E-1
3.381416771E0,6.481618881E-1,1.845720172E0,-8.218230009E-1
3.383808229E0,5.870754123E-1,1.982553959E0,-8.291534185E-1
3.386200365E0,4.746762514E-1,2.101061583E0,-8.303751349E-1
3.388591719E0,3.109644949E-1,2.171921968E0,-8.230447769E-1
3.390982292E0,8.372282237E-2,2.151152372E0,-7.961667180E-1
3.393373750E0,-2.033835948E-1,2.026535988E0,-7.375236750E-1
3.395765886E0,-5.356939435E-1,1.826172590E0,-6.507809162E-1
3.398157240E0,-8.728913069E-1,1.598930836E0,-5.554860234E-1
3.400547813E0,-1.180767059E0,1.401010752E0,-4.638563097E-1
3.402939271E0,-1.422669530E0,1.244629383E0,-3.722265959E-1
3.405331406E0,-1.569277048E0,1.142004013E0,-2.879272699E-1
3.407722761E0,-1.607150674E0,1.078474164E0,-2.072931379E-1
3.410113334E0,-1.543620706E0,1.017387629E0,-1.278807223E-1
3.412504792E0,-1.400678396E0,9.098753333E-1,-4.602484033E-2
3.414896927E0,-1.194206119E0,7.461636066E-1,5.537870526E-2
3.417288281E0,-9.327560067E-1,5.629041791E-1,1.641126126E-1
3.419678906E0,-6.383192539E-1,3.503232896E-1,2.740682960E-1
3.422070261E0,-3.402172923E-1,1.133077741E-1,3.754718304E-1
3.424462500E0,-4.211530462E-2,-1.200425625E-1,4.683232903E-1
3.426853802E0,2.474345863E-1,-3.240713477E-1,5.452921987E-1
3.429244427E0,5.296540856E-1,-4.633485377E-1,6.027135253E-1
3.431635781E0,8.069866896E-1,-5.390957594E-1,6.564695835E-1
3.434028021E0,1.072101951E0,-5.464261770E-1,6.992301345E-1
3.436419323E0,1.326221704E0,-5.097742677E-1,7.395471931E-1
3.438809948E0,1.568124175E0,-4.242531657E-1,7.725338936E-1
3.441201302E0,1.791700602E0,-3.081888855E-1,7.994119525E-1
3.443593542E0,1.985955596E0,-1.664682776E-1,8.275117278E-1
3.445984844E0,2.152110577E0,9.460767731E-3,8.543897867E-1
3.448375469E0,2.291387796E0,2.220416814E-1,8.824895620E-1
3.450766823E0,2.408673763E0,4.700527787E-1,9.105893373E-1
3.453159063E0,2.502747059E0,7.522722483E-1,9.411325455E-1
3.455550365E0,2.576050758E0,1.056483030E0,9.741193056E-1
3.457940990E0,2.632250309E0,1.376576066E0,1.003440738E0
3.460332448E0,2.668902159E0,1.700334430E0,1.036427498E0
3.462724584E0,2.692115068E0,2.008209944E0,1.062083721E0
3.465115938E0,2.697001934E0,2.281877518E0,1.090183496E0
3.467506511E0,2.687228203E0,2.514006138E0,1.115839839E0
3.469897969E0,2.655463219E0,2.682604790E0,1.143939614E0
3.472290104E0,2.595598459E0,2.742469549E0,1.163487315E0
3.474681459E0,2.501525402E0,2.694822073E0,1.172039390E0
3.477072031E0,2.390347958E0,2.581201315E0,1.168374181E0
3.479463490E0,2.270618439E0,2.421154737E0,1.146383047E0
3.481855625E0,2.153332472E0,2.231786489E0,1.115839839E0
3.484246979E0,2.039711475E0,2.026535988E0,1.079187989E0
3.486637552E0,1.926090837E0,1.806624889E0,1.037649155E0
3.489029011E0,1.817356944E0,1.570831060E0,9.777843952E-1
3.491421146E0,1.711066484E0,1.308159232E0,9.093676209E-1
3.493812500E0,1.616993308E0,1.028383136E0,8.201813698E-1
3.496203125E0,1.535137415E0,7.534939647E-1,7.163343430E-1
3.498594479E0,1.475272655E0,4.993742704E-1,6.063786745E-1
3.500986667E0,1.436177373E0,2.904585600E-1,4.976447821E-1
3.503378021E0,1.420294881E0,1.365206242E-1,3.974629641E-1
3.505768646E0,1.420294881E0,3.267362714E-2,3.082767129E-1
3.508160000E0,1.437399030E0,-3.696494922E-2,2.251990885E-1
3.510552240E0,1.470385790E0,-7.239510119E-2,1.457866728E-1
3.512943542E0,1.511924624E0,-8.094722033E-2,7.492637634E-2
3.515334167E0,1.563237190E0,-5.529089645E-2,1.017471403E-2
3.517725521E0,1.620658517E0,-7.643444929E-3,-4.602484033E-2
3.520117761E0,1.684188485E0,5.344302580E-2,-8.756364882E-2
3.522509063E0,1.747718334E0,1.194164157E-1,-1.205503345E-1
3.524899688E0,1.812470078E0,1.743942350E-1,-1.474283934E-1
3.527291042E0,1.878443360E0,2.195982188E-1,-1.694195122E-1
3.529683281E0,1.940751672E0,2.574718595E-1,-1.804150790E-1
3.532074584E0,1.996951222E0,2.892368138E-1,-1.865237355E-1
3.534465209E0,2.049485445E0,3.148931265E-1,-1.877454668E-1
3.536856563E0,2.098354578E0,3.258886933E-1,-1.889671832E-1
3.539248802E0,2.143558502E0,3.295539021E-1,-1.926323771E-1
3.541640104E0,2.177767038E0,3.100062311E-1,-1.975193024E-1
3.544030729E0,2.205866814E0,2.709108889E-1,-2.036279440E-1
3.546422084E0,2.226636171E0,2.049374729E-1,-2.146235108E-1
3.548814323E0,2.242518663E0,1.206381470E-1,-2.170669734E-1
3.551205625E0,2.249849081E0,3.633881360E-2,-2.158452421E-1
3.553596250E0,2.252292395E0,-5.651262030E-2,-2.097365856E-1
3.555987709E0,2.249849081E0,-1.481423378E-1,-1.999627501E-1
3.558379844E0,2.237631798E0,-2.458806783E-1,-1.828585416E-1
3.560771198E0,2.220527649E0,-3.485059440E-1,-1.657543331E-1
3.563161771E0,2.197314739E0,-4.560181201E-1,-1.449849308E-1
3.565553229E0,2.172880173E0,-5.537565351E-1,-1.193286031E-1
3.567945365E0,2.142336845E0,-6.282820106E-1,-9.000709653E-2
3.570336719E0,2.106906652E0,-6.844815612E-1,-5.824213102E-2
3.572727292E0,2.070254803E0,-7.199117541E-1,-2.647716738E-2
3.575118750E0,2.036046505E0,-7.419028878E-1,6.509527564E-3
3.577510886E0,2.003059626E0,-7.577853203E-1,3.216584772E-2
3.579902240E0,1.971294880E0,-7.626722455E-1,5.537870526E-2
3.582292813E0,1.935864687E0,-7.431246042E-1,8.225674927E-2
3.584684271E0,1.902878046E0,-7.028075457E-1,1.091347933E-1
3.587076406E0,1.866226077E0,-6.453862190E-1,1.323476583E-1
3.589467761E0,1.829574227E0,-5.794128180E-1,1.518953294E-1
3.591858386E0,1.799031019E0,-5.219915509E-1,1.689995378E-1
3.594249740E0,1.773374677E0,-4.706788957E-1,1.885472089E-1
3.596641979E0,1.750161767E0,-4.279183745E-1,2.129818052E-1
3.599033281E0,1.726948977E0,-3.973751366E-1,2.410815805E-1
3.601423906E0,1.701292634E0,-3.802709281E-1,2.740682960E-1
3.603815261E0,1.670749426E0,-3.827143610E-1,3.009463251E-1
3.606207500E0,1.642649651E0,-3.912664950E-1,3.229374588E-1
3.608598802E0,1.619436741E0,-3.949316740E-1,3.461503088E-1
3.610989427E0,1.603554249E0,-3.839361072E-1,3.656979799E-1
3.613380781E0,1.592558742E0,-3.656101525E-1,3.803587556E-1
3.615773021E0,1.584006667E0,-3.399538398E-1,3.925760388E-1
3.618164323E0,1.576676250E0,-3.130758107E-1,4.011281431E-1
3.620554948E0,1.573011041E0,-2.813108265E-1,4.023498893E-1
3.622946302E0,1.571789265E0,-2.458806783E-1,4.011281431E-1
3.625338542E0,1.574232817E0,-1.994549781E-1,3.950195014E-1
3.627729844E0,1.586450100E0,-1.420336813E-1,3.864673972E-1
3.630120469E0,1.603554249E0,-6.872992218E-2,3.803587556E-1
3.632511823E0,1.630432367E0,9.460767731E-3,3.742500842E-1
3.634904063E0,1.662197351E0,9.742528200E-2,3.705849051E-1
3.637295365E0,1.700070858E0,1.719507873E-1,3.632545471E-1
3.639685990E0,1.730614185E0,2.305937856E-1,3.559241593E-1
3.642077344E0,1.756270528E0,2.721326053E-1,3.473720551E-1
3.644469584E0,1.778261542E0,3.112279475E-1,3.400416672E-1
3.646860938E0,1.795365810E0,3.527667522E-1,3.363764882E-1
3.649251511E0,1.808804870E0,4.040793777E-1,3.375982046E-1
3.651642969E0,1.821022153E0,4.590572119E-1,3.412634134E-1
3.654035104E0,1.828352451E0,5.177001953E-1,3.485937715E-1
3.656426459E0,1.828352451E0,5.812301040E-1,3.620328009E-1
3.658817031E0,1.816135168E0,6.349862218E-1,3.754718304E-1
3.661208490E0,1.796587586E0,6.777467728E-1,3.950195014E-1
3.663600625E0,1.769709468E0,7.180638313E-1,4.096802473E-1
3.665991979E0,1.735501051E0,7.424983978E-1,4.243409932E-1
3.668382552E0,1.695183992E0,7.644895315E-1,4.390017688E-1
3.670774011E0,1.649979949E0,7.718199492E-1,4.512190521E-1
3.673166146E0,1.597445607E0,7.791503072E-1,4.573276937E-1
3.675557500E0,1.542467833E0,7.791503072E-1,4.658797979E-1
3.677948073E0,1.485046506E0,7.705981731E-1,4.756536484E-1
3.680339531E0,1.426403522E0,7.559374571E-1,4.866492152E-1
3.682731667E0,1.370203972E0,7.315028310E-1,4.976447821E-1
3.685123021E0,1.318891287E0,6.985161304E-1,5.135272741E-1
3.687513594E0,1.271243930E0,6.581990719E-1,5.281879902E-1
3.689905052E0,1.230926752E0,6.142168045E-1,5.404052734E-1
3.692297188E0,1.194274902E0,5.629041791E-1,5.550660491E-1
3.694688542E0,1.163731694E0,5.067046285E-1,5.697268248E-1
3.697079167E0,1.139297128E0,4.480616450E-1,5.807223916E-1
3.699470521E0,1.123414636E0,3.820882440E-1,5.966048837E-1
3.701862761E0,1.111197352E0,3.185583353E-1,6.100438833E-1
3.704254063E0,1.103866935E0,2.599153221E-1,6.234828830E-1
3.706644688E0,1.100201726E0,2.061592042E-1,6.344784498E-1
3.709036042E0,1.102645159E0,1.646203995E-1,6.430305839E-1
3.711428281E0,1.111197352E0,1.267467886E-1,6.540261507E-1
3.713819584E0,1.123414636E0,1.035339385E-1,6.589130759E-1
3.716210209E0,1.140518785E0,9.131664038E-2,6.638000011E-1
3.718601563E0,1.158844829E0,8.520799130E-2,6.662434340E-1
3.720993802E0,1.175948977E0,9.131664038E-2,6.699086428E-1
3.723385104E0,1.190609694E0,1.071991175E-1,6.699086428E-1
3.725775729E0,1.200383544E0,1.352988929E-1,6.662434340E-1
3.728167084E0,1.205270529E0,1.780594289E-1,6.650217175E-1
3.730559323E0,1.205270529E0,2.281503379E-1,6.613565087E-1
3.732950625E0,1.195496678E0,2.892368138E-1,6.540261507E-1
3.735341250E0,1.183279395E0,3.588753939E-1,6.418088675E-1
3.737732604E0,1.164953470E0,4.248487949E-1,6.259263754E-1
3.740124844E0,1.141740561E0,4.883787334E-1,6.076004505E-1
3.742516198E0,1.116084218E0,5.433565378E-1,5.880527496E-1
3.744906771E0,1.089206219E0,5.873387456E-1,5.685050488E-1
3.747298125E0,1.064771652E0,6.105516553E-1,5.465139747E-1
3.749690365E0,1.039115310E0,6.288775802E-1,5.233010650E-1
3.752081667E0,1.015902400E0,6.362079382E-1,4.988664985E-1
3.754472292E0,9.951330423E-1,6.374296546E-1,4.695450068E-1
3.756863750E0,9.731419086E-1,6.264340878E-1,4.365583062E-1
3.759255886E0,9.548159838E-1,6.129950881E-1,4.011281431E-1
3.761647240E0,9.389334917E-1,5.995560884E-1,3.656979799E-1
3.764037813E0,9.206075072E-1,5.824518800E-1,3.290461004E-1
3.766429271E0,9.035032988E-1,5.714563131E-1,2.899507582E-1
3.768821406E0,8.851773739E-1,5.629041791E-1,2.508554161E-1
3.771212761E0,8.631862402E-1,5.641258955E-1,2.080948800E-1
3.773603334E0,8.424168229E-1,5.604607463E-1,1.665560752E-1
3.775994792E0,8.143170476E-1,5.580172539E-1,1.262390018E-1
3.778386927E0,7.837738395E-1,5.506868958E-1,8.836539090E-2
3.780778281E0,7.568957806E-1,5.372478962E-1,5.049178749E-2
3.783168854E0,7.275742888E-1,5.189219117E-1,1.628336310E-2
3.785560313E0,6.982527971E-1,4.981525540E-1,-1.914679073E-2
3.787952448E0,6.701530218E-1,4.700527787E-1,-4.969002679E-2
3.790343802E0,6.420532465E-1,4.321791530E-1,-7.656808197E-2
3.792734375E0,6.139534116E-1,3.906403482E-1,-1.010026634E-1
3.795125834E0,5.882971287E-1,3.478798270E-1,-1.242155284E-1
3.797517969E0,5.614190698E-1,3.014541268E-1,-1.449849308E-1
3.799909323E0,5.382062197E-1,2.464762777E-1,-1.657543331E-1
3.802299896E0,5.125498772E-1,1.878332645E-1,-1.791933626E-1
3.804691354E0,4.881152809E-1,1.279685199E-1,-1.889671832E-1
3.807083490E0,4.600155056E-1,7.054723799E-2,-1.950758398E-1
3.809474844E0,4.282505214E-1,2.289979160E-2,-1.914106458E-1
3.811865469E0,3.940421045E-1,-1.619555242E-2,-1.853020042E-1
3.814256823E0,3.512815833E-1,-3.940841183E-2,-1.791933626E-1
3.816649011E0,3.072993159E-1,-4.673878476E-2,-1.694195122E-1
3.819040365E0,2.596518695E-1,-3.452149406E-2,-1.584239453E-1
3.821430990E0,2.095609605E-1,-8.865172043E-3,-1.376545578E-1
3.823822344E0,1.594700515E-1,2.412152104E-2,-1.181068867E-1
3.826214584E0,1.081574112E-1,5.588648468E-2,-1.010026634E-1
3.828605886E0,6.050996855E-2,8.887317777E-2,-8.512018621E-2
3.830996511E0,1.652770862E-2,1.071991175E-1,-6.435078382E-2
3.833387865E0,-1.768071577E-2,1.255250573E-1,-4.602484033E-2
3.835780104E0,-4.455876350E-2,1.401858181E-1,-3.136408702E-2
3.838171406E0,-6.532816589E-2,1.524031162E-1,-1.914679073E-2
3.840562031E0,-7.876718789E-2,1.633986682E-1,-1.303814352E-2
3.842953386E0,-8.609756827E-2,1.780594289E-1,-1.059468463E-2
3.845345625E0,-8.365411311E-2,2.061592042E-1,-1.181641407E-2
3.847736927E0,-7.143681496E-2,2.379241735E-1,-1.914679073E-2
3.850127552E0,-5.433259904E-2,2.635805011E-1,-2.525543794E-2
3.852518906E0,-3.356319666E-2,2.892368138E-1,-2.525543794E-2
3.854911146E0,-1.035033911E-2,3.002323806E-1,-2.769889683E-2
3.857302448E0,1.286252029E-2,3.112279475E-1,-2.892062627E-2
3.859693073E0,3.485364839E-2,3.161148727E-1,-2.892062627E-2
3.862084427E0,4.829267412E-2,3.100062311E-1,-3.380754218E-2
3.864476667E0,5.317959189E-2,2.929020226E-1,-3.747273237E-2
3.866867969E0,5.073613301E-2,2.574718595E-1,-4.358137771E-2
3.869258594E0,3.363192081E-2,2.024940103E-1,-4.602484033E-2
3.871650052E0,1.041906141E-2,1.475161910E-1,-4.602484033E-2
3.874042188E0,-1.768071577E-2,1.120860428E-1,-3.991619125E-2
3.876433490E0,-4.455876350E-2,8.398626745E-2,-2.647716738E-2
3.878824115E0,-7.265854627E-2,7.176896930E-2,-1.425987296E-2
3.881215573E0,-1.044235080E-1,6.688205153E-2,4.008783726E-4
3.883607709E0,-1.410753876E-1,5.588648468E-2,1.139644533E-2
3.885999063E0,-1.813924611E-1,3.878227249E-2,2.117028087E-2
3.888389636E0,-2.229312658E-1,8.239036426E-3,2.483546734E-2
3.890781094E0,-2.693569660E-1,-3.329976276E-2,2.361373976E-2
3.893173229E0,-3.157826960E-1,-8.339066803E-2,1.750509441E-2
3.895564584E0,-3.622084260E-1,-1.359250396E-1,1.017471403E-2
3.897955156E0,-4.098558724E-1,-1.884594113E-1,-5.707766861E-3
3.900346615E0,-4.562815726E-1,-2.336633950E-1,-2.159024961E-2
3.902738750E0,-5.039290190E-1,-2.739804685E-1,-3.869445994E-2
3.905130104E0,-5.515764356E-1,-3.008584976E-1,-5.824213102E-2
3.907520677E0,-6.016673446E-1,-3.118540645E-1,-8.389845490E-2
3.909912136E0,-6.505365372E-1,-3.142975271E-1,-1.107764989E-1
3.912304271E0,-7.018491626E-1,-3.081888855E-1,-1.413197368E-1
3.914695625E0,-7.556052804E-1,-2.971933186E-1,-1.743064374E-1
3.917086198E0,-8.118048310E-1,-2.837542892E-1,-2.060714066E-1
3.919477656E0,-8.741130233E-1,-2.752021849E-1,-2.366146445E-1
3.921869792E0,-9.364212155E-1,-2.739804685E-1,-2.708230317E-1
3.924261146E0,-1.001172900E0,-2.764239013E-1,-3.025880158E-1
3.926651719E0,-1.064702868E0,-2.813108265E-1,-3.355747163E-1
3.929043177E0,-1.134341359E0,-2.861977518E-1,-3.673396707E-1
3.931435313E0,-1.203979969E0,-2.959715724E-1,-3.991046548E-1
3.933826667E0,-1.278505445E0,-3.057454228E-1,-4.284261465E-1
3.936217240E0,-1.357917905E0,-3.130758107E-1,-4.553042054E-1
3.938608698E0,-1.439773798E0,-3.142975271E-1,-4.797387719E-1
3.941000834E0,-1.522851348E0,-3.142975271E-1,-4.992864132E-1
3.943392188E0,-1.605929017E0,-3.045236766E-1,-5.090602636E-1
3.945782813E0,-1.681676149E0,-2.935281098E-1,-5.115037560E-1
3.948174167E0,-1.767197251E0,-2.923063934E-1,-5.102819800E-1
3.950566354E0,-1.858826995E0,-2.923063934E-1,-5.078385472E-1
3.952957709E0,-1.951678395E0,-2.886412144E-1,-4.992864132E-1
3.955348334E0,-2.045751572E0,-2.800891101E-1,-4.858474433E-1
3.957739688E0,-2.133716106E0,-2.813108265E-1,-4.724084139E-1
3.960131927E0,-2.219237328E0,-2.788673639E-1,-4.553042054E-1
3.962523229E0,-2.294984579E0,-2.715370059E-1,-4.296478629E-1
3.964913854E0,-2.367066622E0,-2.532110512E-1,-4.088784754E-1
3.967305209E0,-2.435483456E0,-2.336633950E-1,-3.893308043E-1
3.969697448E0,-2.499013186E0,-2.141157240E-1,-3.746700585E-1
3.972088750E0,-2.560099840E0,-1.909028739E-1,-3.600093126E-1
3.974479375E0,-2.630959988E0,-1.518075317E-1,-3.539006412E-1
3.976870729E0,-2.711594105E0,-9.438623488E-2,-3.490137458E-1
3.979262969E0,-2.799558640E0,-2.474765666E-2,-3.429050744E-1
3.981654271E0,-2.892410278E0,5.832994357E-2,-3.429050744E-1
3.984044896E0,-2.991370201E0,1.401858181E-1,-3.404616117E-1
3.986436250E0,-3.087886810E0,2.122678459E-1,-3.343529701E-1
3.988828490E0,-3.177073240E0,2.684674263E-1,-3.148052990E-1
3.991219792E0,-3.244268179E0,3.026758432E-1,-2.903707325E-1
3.993610417E0,-3.284585238E0,3.124496639E-1,-2.586057484E-1
3.996001771E0,-3.295580864E0,2.929020226E-1,-2.243973464E-1
3.998394011E0,-3.272367954E0,2.489197403E-1,-1.889671832E-1
4.000785313E0,-3.219833612E0,1.914984435E-1,-1.608674079E-1
4.003175938E0,-3.145308256E0,1.279685199E-1,-1.388762742E-1
4.005567292E0,-3.054900169E0,6.077340245E-2,-1.278807223E-1
4.007959531E0,-2.962048769E0,-3.978254739E-3,-1.242155284E-1
4.010350834E0,-2.874084234E0,-6.506472826E-2,-1.278807223E-1
4.012741459E0,-2.797115326E0,-1.200425625E-1,-1.352110952E-1
4.015132813E0,-2.736028910E0,-1.603596359E-1,-1.449849308E-1
4.017525052E0,-2.688381433E0,-1.884594113E-1,-1.510935724E-1
4.019916354E0,-2.655394554E0,-2.067853361E-1,-1.474283934E-1
4.022306979E0,-2.634625196E0,-2.165591866E-1,-1.400980055E-1
4.024698334E0,-2.619964600E0,-2.080070823E-1,-1.242155284E-1
4.027090573E0,-2.605303764E0,-1.737986505E-1,-1.058895886E-1
4.029481875E0,-2.586977720E0,-1.212642938E-1,-9.000709653E-2
4.031872500E0,-2.571095228E0,-4.429532960E-2,-7.778981328E-2
4.034263959E0,-2.557656288E0,5.344302580E-2,-7.045942545E-2
4.036656094E0,-2.552769423E0,1.719507873E-1,-7.168115675E-2
4.039047448E0,-2.551547766E0,3.148931265E-1,-8.023326099E-2
4.041438021E0,-2.549104214E0,4.810483456E-1,-9.733748436E-2
4.043829479E0,-2.541773796E0,6.630859971E-1,-1.181068867E-1
4.046221615E0,-2.524669647E0,8.487888575E-1,-1.474283934E-1
4.048612969E0,-2.497791529E0,1.032048345E0,-1.828585416E-1
4.051003542E0,-2.451365948E0,1.199425340E0,-2.207321525E-1
4.053395000E0,-2.389057636E0,1.352141500E0,-2.586057484E-1
4.055787136E0,-2.314532042E0,1.488975167E0,-2.879272699E-1
4.058178490E0,-2.231454611E0,1.597709179E0,-3.184705079E-1
4.060569063E0,-2.141046524E0,1.680786729E0,-3.453485370E-1
4.062960521E0,-2.045751572E0,1.734542847E0,-3.648962080E-1
4.065352656E0,-1.945569754E0,1.771194696E0,-3.820004165E-1
4.067744011E0,-1.851496577E0,1.780968547E0,-3.917742670E-1
4.070134584E0,-1.763532043E0,1.773638129E0,-3.954394460E-1
4.072526042E0,-1.685341358E0,1.750425339E0,-3.893308043E-1
4.074918177E0,-1.629141808E0,1.725990772E0,-3.881090879E-1
4.077309531E0,-1.587602973E0,1.705221295E0,-3.807787001E-1
4.079700104E0,-1.558281541E0,1.689338803E0,-3.710048497E-1
4.082091563E0,-1.542399049E0,1.685673714E0,-3.636744916E-1
4.084483698E0,-1.536290407E0,1.688117146E0,-3.563441038E-1
4.086875052E0,-1.536290407E0,1.700334430E0,-3.502354622E-1
4.089265625E0,-1.539955616E0,1.703999639E0,-3.563441038E-1
4.091657084E0,-1.549729347E0,1.694225788E0,-3.661179543E-1
4.094049219E0,-1.559503198E0,1.672234654E0,-3.881090879E-1
4.096440573E0,-1.572942257E0,1.631917596E0,-4.125436544E-1
4.098831146E0,-1.583937883E0,1.572052836E0,-4.345347881E-1
4.101222604E0,-1.591268182E0,1.498749018E0,-4.504172802E-1
4.103614740E0,-1.597376823E0,1.413228035E0,-4.577476382E-1
4.106006094E0,-1.597376823E0,1.322820067E0,-4.638563097E-1
4.108396667E0,-1.597376823E0,1.220194697E0,-4.711866677E-1
4.110788125E0,-1.593711615E0,1.110239148E0,-4.846256971E-1
4.113180261E0,-1.580272675E0,9.819573760E-1,-4.992864132E-1
4.115571615E0,-1.564390182E0,8.500106335E-1,-5.163906813E-1
4.117962188E0,-1.544842482E0,7.192855477E-1,-5.273861885E-1
4.120353646E0,-1.519186139E0,6.044430137E-1,-5.322731137E-1
4.122745781E0,-1.493529797E0,5.079263449E-1,-5.273861885E-1
4.125137136E0,-1.466651797E0,4.224053323E-1,-5.005081892E-1
4.127527761E0,-1.436108589E0,3.271104395E-1,-4.675214887E-1
4.129919115E0,-1.404343605E0,2.171547711E-1,-4.504172802E-1
4.132311302E0,-1.375022054E0,1.181946844E-1,-4.418651760E-1
4.134702656E0,-1.340813637E0,4.122573137E-2,-4.357565343E-1
4.137093229E0,-1.306605220E0,-2.719111182E-2,-4.381999969E-1
4.139484688E0,-1.282170653E0,-8.216895163E-2,-4.491955340E-1
4.141876823E0,-1.262622952E0,-1.200425625E-1,-4.614128470E-1
4.144268177E0,-1.243075371E0,-1.542509794E-1,-4.785170555E-1
4.146658802E0,-1.225971103E0,-1.933463216E-1,-5.017299056E-1
4.149050156E0,-1.213753819E0,-2.299982160E-1,-5.261644721E-1
4.151442344E0,-1.206423402E0,-2.715370059E-1,-5.420469642E-1
4.153833698E0,-1.202758193E0,-3.142975271E-1,-5.542643070E-1
4.156224323E0,-1.203979969E0,-3.582797945E-1,-5.615946651E-1
4.158615677E0,-1.211310387E0,-4.047054946E-1,-5.628163815E-1
4.161007865E0,-1.217419028E0,-4.523529708E-1,-5.567077398E-1
4.163399219E0,-1.224749327E0,-4.914483130E-1,-5.530425310E-1
4.165789844E0,-1.228414536E0,-5.305436850E-1,-5.481556058E-1
4.168181198E0,-1.229636312E0,-5.684172511E-1,-5.444904566E-1
4.170573438E0,-1.229636312E0,-6.001822352E-1,-5.469338894E-1
4.172964740E0,-1.225971103E0,-6.392775774E-1,-5.689250231E-1
4.175355365E0,-1.223527670E0,-6.637122035E-1,-5.909161568E-1
4.177746719E0,-1.210088611E0,-6.783729196E-1,-5.982465148E-1
4.180138959E0,-1.194206119E0,-6.808164120E-1,-6.043552160E-1
4.182530261E0,-1.172214985E0,-6.795946360E-1,-6.104638577E-1
4.184920886E0,-1.146558642E0,-6.759294868E-1,-6.141290069E-1
4.187312240E0,-1.114793777E0,-6.808164120E-1,-6.141290069E-1
4.189704479E0,-1.084250450E0,-6.966988444E-1,-6.116855741E-1
4.192095781E0,-1.057372451E0,-7.284638286E-1,-6.104638577E-1
4.194486406E0,-1.034159541E0,-7.687808871E-1,-6.129072905E-1
4.196877761E0,-1.010946751E0,-8.237587214E-1,-6.202376485E-1
4.199270000E0,-9.877338409E-1,-8.860669136E-1,-6.263462901E-1
4.201661302E0,-9.694079161E-1,-9.495968819E-1,-6.336767077E-1
4.204051927E0,-9.535254240E-1,-1.016791821E0,-6.397853494E-1
4.206443281E0,-9.400864244E-1,-1.088873863E0,-6.483374238E-1
4.208835521E0,-9.315342903E-1,-1.164621115E0,-6.581112742E-1
4.211226823E0,-9.217604399E-1,-1.245255232E0,-6.678851247E-1
4.213617448E0,-9.144300818E-1,-1.318559051E0,-6.788806915E-1
4.216008802E0,-9.058780074E-1,-1.386975884E0,-6.898762584E-1
4.218401042E0,-8.961041570E-1,-1.451727509E0,-6.947631836E-1
4.220792344E0,-8.838868737E-1,-1.511592269E0,-7.008718252E-1
4.223182969E0,-8.680043817E-1,-1.570235252E0,-7.045369744E-1
4.225574323E0,-8.484566808E-1,-1.622769713E0,-7.106456757E-1
4.227966563E0,-8.276873231E-1,-1.685077906E0,-7.289716005E-1
4.230357865E0,-7.983657718E-1,-1.736390471E0,-7.301933169E-1
4.232748490E0,-7.653790712E-1,-1.771820664E0,-7.265281081E-1
4.235139948E0,-7.311706543E-1,-1.808472514E0,-7.216411829E-1
4.237532084E0,-6.945188046E-1,-1.847567916E0,-7.118673921E-1
4.239923386E0,-6.542017460E-1,-1.889106631E0,-7.033152580E-1
4.242314011E0,-6.151064038E-1,-1.931867242E0,-6.984283328E-1
4.244705469E0,-5.747892857E-1,-1.977071166E0,-6.898762584E-1
4.247097604E0,-5.332505107E-1,-2.021053553E0,-6.752154827E-1
4.249488906E0,-4.941551983E-1,-2.066257477E0,-6.605547667E-1
4.251879531E0,-4.513946772E-1,-2.109018087E0,-6.434504986E-1
4.254270886E0,-4.086341262E-1,-2.151778698E0,-6.287897825E-1
4.256663125E0,-3.670953214E-1,-2.203091383E0,-6.239028573E-1
4.259054427E0,-3.206696212E-1,-2.233634472E0,-6.080203652E-1
4.261445052E0,-2.730221748E-1,-2.256847382E0,-5.848075151E-1
4.263836511E0,-2.217095345E-1,-2.273951530E0,-5.615946651E-1
4.266228646E0,-1.691751629E-1,-2.286168814E0,-5.432687402E-1
4.268619948E0,-1.141973436E-1,-2.298386097E0,-5.237210393E-1
4.271010573E0,-5.433259904E-2,-2.310603380E0,-5.115037560E-1
4.273402031E0,7.975602522E-3,-2.320377350E0,-5.029516220E-1
4.275794167E0,7.394898683E-2,-2.328929424E0,-4.943995476E-1
4.278185521E0,1.411441118E-1,-2.337481499E0,-4.870691597E-1
4.280576094E0,2.144478858E-1,-2.346033573E0,-4.846256971E-1
4.282967552E0,2.877516448E-1,-2.357029200E0,-4.797387719E-1
4.285359688E0,3.647206128E-1,-2.382685423E0,-4.834039807E-1
4.287751042E0,4.429112971E-1,-2.399789810E0,-4.785170555E-1
4.290141615E0,5.259889364E-1,-2.391237497E0,-4.650780261E-1
4.292533073E0,6.176186204E-1,-2.370468140E0,-4.479738176E-1
4.294925209E0,7.080265880E-1,-2.339925051E0,-4.345347881E-1
4.297316563E0,7.984346151E-1,-2.320377350E0,-4.198740423E-1
4.299707136E0,8.949512243E-1,-2.281281948E0,-4.027698338E-1
4.302098594E0,9.902461171E-1,-2.227525949E0,-3.795569539E-1
4.304490729E0,1.085541010E0,-2.167661190E0,-3.600093126E-1
4.306882084E0,1.174727201E0,-2.115126848E0,-3.465702832E-1
4.309272656E0,1.252917886E0,-2.071144581E0,-3.331312537E-1
4.311664115E0,1.327443480E0,-2.006392717E0,-3.160270452E-1
4.314056250E0,1.387308121E0,-1.936754107E0,-2.989228368E-1
4.316447604E0,1.433733940E0,-1.867115617E0,-2.854838073E-1
4.318838177E0,1.464277148E0,-1.781594515E0,-2.683795691E-1
4.321229636E0,1.475272655E0,-1.688743114E0,-2.561622858E-1
4.323621771E0,1.465498805E0,-1.578787446E0,-2.427232862E-1
4.326013125E0,1.437399030E0,-1.446840644E0,-2.305059880E-1
4.328403698E0,1.389751673E0,-1.305119991E0,-2.243973464E-1
4.330795156E0,1.322556496E0,-1.151182055E0,-2.256190777E-1
4.333187292E0,1.234591961E0,-9.776966572E-1,-2.280625254E-1
4.335578646E0,1.127079844E0,-8.029893041E-1,-2.317277193E-1
4.337969219E0,1.003685117E0,-6.258385777E-1,-2.427232862E-1
4.340360677E0,8.680731654E-1,-4.486877620E-1,-2.647143900E-1
4.342752813E0,7.202439308E-1,-2.715370059E-1,-2.805968821E-1
4.345144167E0,5.626407862E-1,-1.053818017E-1,-2.842620611E-1
4.347534740E0,4.025942087E-1,3.878227249E-2,-2.854838073E-1
4.349926198E0,2.449911237E-1,1.646203995E-1,-2.720447779E-1
4.352318334E0,9.716185182E-2,2.538066506E-1,-2.524971068E-1
4.354709688E0,-3.845011815E-2,3.161148727E-1,-2.256190777E-1
4.357100261E0,-1.557361335E-1,3.405494690E-1,-2.011844814E-1
4.359491719E0,-2.632483244E-1,3.210017979E-1,-1.816368103E-1
4.361883854E0,-3.585432172E-1,2.599153221E-1,-1.681977957E-1
4.364275209E0,-4.391773641E-1,1.780594289E-1,-1.706412435E-1
4.366665781E0,-5.112593770E-1,9.376010299E-2,-1.791933626E-1
4.369057240E0,-5.686806440E-1,8.239036426E-3,-1.889671832E-1
4.371449375E0,-6.089977026E-1,-6.017781794E-2,-2.060714066E-1
4.373840729E0,-6.334323287E-1,-1.163773686E-1,-2.256190777E-1
4.376231302E0,-6.493148208E-1,-1.603596359E-1,-2.366146445E-1
4.378622761E0,-6.542017460E-1,-2.043419033E-1,-2.451667488E-1
4.381014896E0,-6.529799700E-1,-2.556545138E-1,-2.524971068E-1
4.383406250E0,-6.542017460E-1,-3.216279149E-1,-2.573840320E-1
4.385796823E0,-6.627538204E-1,-4.095924199E-1,-2.634926736E-1
4.388188281E0,-6.835232377E-1,-5.183264017E-1,-2.744882405E-1
4.390580417E0,-7.189533710E-1,-6.429427862E-1,-2.915924489E-1
4.392971771E0,-7.690442801E-1,-7.748895288E-1,-3.111401200E-1
4.395362344E0,-8.313524723E-1,-9.007276893E-1,-3.294660747E-1
4.397753802E0,-9.034345150E-1,-1.018013597E0,-3.490137458E-1
4.400145938E0,-9.877338409E-1,-1.124304056E0,-3.612310290E-1
4.402537292E0,-1.072033167E0,-1.225707650E0,-3.697831333E-1
4.404927865E0,-1.159997702E0,-1.317337275E0,-3.722265959E-1
4.407319323E0,-1.241853595E0,-1.395527959E0,-3.648962080E-1
4.409711459E0,-1.321266055E0,-1.468831778E0,-3.490137458E-1
4.412102813E0,-1.393347979E0,-1.542135477E0,-3.196922243E-1
4.414493438E0,-1.455656290E0,-1.595891595E0,-2.854838073E-1
4.416884792E0,-1.514299273E0,-1.631321788E0,-2.463884801E-1
4.419276979E0,-1.565611839E0,-1.637430429E0,-2.048496753E-1
4.421668334E0,-1.620589733E0,-1.630100012E0,-1.645326018E-1
4.424058906E0,-1.681676149E0,-1.612995863E0,-1.278807223E-1
4.426450365E0,-1.732988834E0,-1.526252985E0,-9.000709653E-2
4.428842500E0,-1.781857967E0,-1.401636600E0,-5.091175810E-2
4.431233854E0,-1.818509936E0,-1.258694291E0,-1.792506129E-2
4.433624427E0,-1.836835861E0,-1.101091146E0,2.844341099E-3
4.436015886E0,-1.823396802E0,-9.386013150E-1,1.383990422E-2
4.438408021E0,-1.761088610E0,-7.700026631E-1,1.139644533E-2
4.440799375E0,-1.654798150E0,-5.965170860E-1,-1.059468463E-2
4.443189948E0,-1.489864707E0,-3.766057193E-1,-3.869445994E-2
4.445581406E0,-1.283392429E0,-1.420336813E-1,-6.801597029E-2
4.447973542E0,-1.056150675E0,9.742528200E-2,-9.367229044E-2
4.450364896E0,-8.215786815E-1,3.246669769E-1,-1.193286031E-1
4.452755521E0,-5.894500613E-1,5.225871205E-1,-1.400980055E-1
4.455146875E0,-3.658736050E-1,6.679729223E-1,-1.523153037E-1
4.457539063E0,-1.581795961E-1,7.632678151E-1,-1.547587663E-1
4.459930417E0,2.630154416E-2,8.158021569E-1,-1.437631994E-1
4.462320990E0,1.814611852E-1,8.390150666E-1,-1.266589910E-1
4.464712448E0,3.036341369E-1,8.365715742E-1,-1.083330512E-1
4.467104584E0,3.964855671E-1,8.133587241E-1,-9.122882783E-2
4.469495938E0,4.600155056E-1,7.705981731E-1,-7.168115675E-2
4.471886511E0,5.015543103E-1,7.058465481E-1,-4.846829548E-2
4.474277969E0,5.320975780E-1,6.288775802E-1,-2.281197906E-2
4.476670104E0,5.565321445E-1,5.470216870E-1,7.731258869E-3
4.479061459E0,5.858536363E-1,4.786048830E-1,4.438313842E-2
4.481452031E0,6.273924708E-1,4.199618697E-1,8.836539090E-2
4.483843490E0,6.787050962E-1,3.808665276E-1,1.384562999E-1
4.486235625E0,7.471219301E-1,3.686492443E-1,1.934341192E-1
4.488626979E0,8.301995397E-1,3.796448112E-1,2.532988787E-1
4.491017604E0,9.242727160E-1,4.138532281E-1,3.119418919E-1
4.493408959E0,1.024454474E0,4.651658535E-1,3.730283678E-1
4.495801146E0,1.128301501E0,5.189219117E-1,4.280062020E-1
4.498192500E0,1.237035513E0,5.763431787E-1,4.732101560E-1
4.500583125E0,1.350656271E0,6.398731470E-1,5.110837817E-1
4.502974479E0,1.471607566E0,7.058465481E-1,5.342966318E-1
4.505366667E0,1.593780398E0,7.742633820E-1,5.452921987E-1
4.507758021E0,1.720840335E0,8.463454247E-1,5.501791239E-1
4.510148646E0,1.850343585E0,9.220926166E-1,5.440704823E-1
4.512540000E0,1.983512163E0,1.001505136E0,5.379618406E-1
4.514932188E0,2.117902279E0,1.096800089E0,5.294097662E-1
4.517323542E0,2.247405529E0,1.199425340E0,5.257445574E-1
4.519714167E0,2.368356705E0,1.324041724E0,5.294097662E-1
4.522105521E0,2.475868940E0,1.462097168E0,5.416270494E-1
4.524497761E0,2.568720341E0,1.606261253E0,5.648398995E-1
4.526889063E0,2.638359070E0,1.752868772E0,5.953831077E-1
4.529279688E0,2.682341337E0,1.903141499E0,6.393653750E-1
4.531671042E0,2.699445486E0,2.043640137E0,6.857911348E-1
4.534063281E0,2.689671755E0,2.168256760E0,7.371037602E-1
4.536454584E0,2.649354458E0,2.258664608E0,7.835294604E-1
4.538845209E0,2.582159519E0,2.316086054E0,8.275117278E-1
4.541236563E0,2.491751432E0,2.345407486E0,8.604984283E-1
4.543628802E0,2.383017540E0,2.338077068E0,8.788243532E-1
4.546020104E0,2.259622812E0,2.309977293E0,8.824895620E-1
4.548410729E0,2.130119562E0,2.259886265E0,8.678287864E-1
4.550802084E0,1.995729446E0,2.175586939E0,8.458376527E-1
4.553194271E0,1.868669629E0,2.063187838E0,8.055205941E-1
4.555585625E0,1.755048752E0,1.925132632E0,7.566514015E-1
4.557976250E0,1.653645158E0,1.769973040E0,7.004518509E-1
4.560367604E0,1.570567608E0,1.611148119E0,6.430305839E-1
4.562759792E0,1.507037640E0,1.446214676E0,5.831658244E-1
4.565151146E0,1.455725074E0,1.299607158E0,5.233010650E-1
4.567541771E0,1.426403522E0,1.162773490E0,4.695450068E-1
4.569933125E0,1.412964463E0,1.029604912E0,4.182323515E-1
4.572325365E0,1.416629672E0,9.135405421E-1,3.718066514E-1
4.574716667E0,1.434955597E0,8.206890821E-1,3.278243840E-1
4.577107292E0,1.463055372E0,7.486070395E-1,2.911725044E-1
4.579498646E0,1.504594207E0,6.862988472E-1,2.532988787E-1
4.581890834E0,1.551019907E0,6.423165798E-1,2.190904468E-1
4.584282188E0,1.602332592E0,6.093298793E-1,1.861037463E-1
4.586672813E0,1.653645158E0,5.910039544E-1,1.543387771E-1
4.589064167E0,1.706179619E0,5.751214623E-1,1.201303601E-1
4.591456406E0,1.756270528E0,5.714563131E-1,8.836539090E-2
4.593847709E0,1.799031019E0,5.714563131E-1,6.393080950E-2
4.596238334E0,1.835682869E0,5.775649548E-1,3.705276549E-2
4.598629688E0,1.869891286E0,5.751214623E-1,8.952986449E-3
4.601021927E0,1.896769404E0,5.690128207E-1,-1.425987296E-2
4.603413229E0,1.921203971E0,5.519086123E-1,-3.502927348E-2
4.605803854E0,1.937086463E0,5.396913290E-1,-4.358137771E-2
4.608195209E0,1.945638537E0,5.201436877E-1,-4.724656790E-2
4.610587448E0,1.954190612E0,4.944873750E-1,-5.335521325E-2
4.612978750E0,1.961521029E0,4.676093161E-1,-6.068559363E-2
4.615369375E0,1.968851447E0,4.492833912E-1,-7.290288806E-2
4.617760729E0,1.976181746E0,4.346226156E-1,-8.878537267E-2
4.620152917E0,1.982290387E0,4.236270487E-1,-1.022243947E-1
4.622544271E0,1.987177372E0,4.138532281E-1,-1.071113199E-1
4.624934896E0,1.988399029E0,4.040793777E-1,-1.107764989E-1
4.627326250E0,1.989620805E0,3.894186318E-1,-1.144416928E-1
4.629718490E0,1.987177372E0,3.710927069E-1,-1.156634241E-1
4.632109792E0,1.984733820E0,3.576536775E-1,-1.168851554E-1
4.634500417E0,1.978625178E0,3.356625438E-1,-1.144416928E-1
4.636891771E0,1.968851447E0,3.100062311E-1,-1.095547676E-1
4.639284011E0,1.950525403E0,2.806847095E-1,-9.733748436E-2
4.641675313E0,1.932199478E0,2.391458899E-1,-8.756364882E-2
4.644065938E0,1.911430120E0,1.853898019E-1,-8.023326099E-2
4.646457292E0,1.890660763E0,1.181946844E-1,-7.168115675E-2
4.648849531E0,1.871113062E0,4.855610803E-2,-6.312905252E-2
4.651240834E0,1.852787137E0,-3.978254739E-3,-4.846829548E-2
4.653631459E0,1.833239436E0,-5.284743384E-2,-2.769889683E-2
4.656022813E0,1.813691735E0,-9.194278717E-2,-6.929496303E-3
4.658415052E0,1.797809243E0,-1.200425625E-1,1.139644533E-2
4.660806354E0,1.786813736E0,-1.395902336E-1,2.605719864E-2
4.663196979E0,1.773374677E0,-1.493640691E-1,4.193968326E-2
4.665588334E0,1.761157393E0,-1.493640691E-1,5.171351880E-2
4.667980573E0,1.751383543E0,-1.371467710E-1,6.515254080E-2
4.670371875E0,1.740388036E0,-1.212642938E-1,7.981328666E-2
4.672762500E0,1.730614185E0,-8.705586195E-2,9.080885351E-2
4.675153854E0,1.718396902E0,-4.551706091E-2,1.066913307E-1
4.677546094E0,1.712288260E0,3.352118190E-3,1.189086288E-1
4.679937396E0,1.703736067E0,4.977783561E-2,1.274607331E-1
4.682328021E0,1.698849201E0,1.010904759E-1,1.396780312E-1
4.684719375E0,1.690297127E0,1.585117579E-1,1.531170458E-1
4.687111615E0,1.678079724E0,2.220416814E-1,1.689995378E-1
4.689502917E0,1.662197351E0,2.819064558E-1,1.763299108E-1
4.691893542E0,1.646314859E0,3.344407976E-1,1.702212691E-1
4.694284896E0,1.631654024E0,3.820882440E-1,1.567822397E-1
4.696677136E0,1.614549875E0,4.272922575E-1,1.470084041E-1
4.699068438E0,1.595002174E0,4.602789283E-1,1.396780312E-1
4.701459063E0,1.574232817E0,4.773831666E-1,1.360128373E-1
4.703850417E0,1.548576474E0,4.896004498E-1,1.372345686E-1
4.706242656E0,1.525363564E0,4.920439124E-1,1.457866728E-1
4.708633959E0,1.502150774E0,4.871569872E-1,1.628908962E-1
4.711024584E0,1.477716208E0,4.712744951E-1,1.836602837E-1
4.713415938E0,1.453281522E0,4.566137493E-1,2.032079548E-1
4.715808177E0,1.433733940E0,4.443964660E-1,2.239773721E-1
4.718199479E0,1.417851448E0,4.297356904E-1,2.398598343E-1
4.720590104E0,1.405634165E0,4.175184071E-1,2.532988787E-1
4.722981459E0,1.392195106E0,4.114097655E-1,2.618509829E-1
4.725373698E0,1.382421255E0,4.114097655E-1,2.716248333E-1
4.727765000E0,1.376312613E0,4.150749445E-1,2.777334750E-1
4.730155625E0,1.368982196E0,4.272922575E-1,2.838421166E-1
4.732546979E0,1.364095330E0,4.431747198E-1,2.911725044E-1
4.734939219E0,1.359208345E0,4.651658535E-1,2.972811460E-1
4.737330521E0,1.356764913E0,4.871569872E-1,3.033897877E-1
4.739721146E0,1.357986689E0,5.128132701E-1,3.082767129E-1
4.742112500E0,1.359208345E0,5.445782542E-1,3.107201755E-1
4.744504740E0,1.362873554E0,5.787866712E-1,3.082767129E-1
4.746896042E0,1.366538763E0,6.117733717E-1,3.058332503E-1
4.749286667E0,1.368982196E0,6.496469975E-1,3.009463251E-1
4.751678021E0,1.371425748E0,6.765249968E-1,2.985028625E-1
4.754070261E0,1.371425748E0,7.180638313E-1,2.960593998E-1
4.756461563E0,1.375090837E0,7.571591735E-1,2.972811460E-1
4.758852188E0,1.375090837E0,7.974762321E-1,3.046115041E-1
4.761243542E0,1.376312613E0,8.451237082E-1,3.107201755E-1
4.763635781E0,1.375090837E0,8.878841996E-1,3.192722797E-1
4.766027084E0,1.375090837E0,9.269795418E-1,3.290461004E-1
4.768417709E0,1.375090837E0,9.624097347E-1,3.412634134E-1
4.770809063E0,1.375090837E0,9.917312264E-1,3.473720551E-1
4.773201302E0,1.376312613E0,1.013722420E0,3.498155177E-1
4.775592604E0,1.376312613E0,1.035713553E0,3.559241593E-1
4.777983229E0,1.378756046E0,1.051596045E0,3.595893383E-1
4.780374584E0,1.381199479E0,1.061369896E0,3.632545471E-1
4.782766823E0,1.379977822E0,1.066256881E0,3.681414425E-1
4.785158125E0,1.377534389E0,1.068700314E0,3.779152930E-1
4.787548750E0,1.375090837E0,1.066256881E0,3.889108598E-1
4.789940104E0,1.372647405E0,1.063813329E0,3.974629641E-1
4.792332344E0,1.372647405E0,1.057704687E0,4.060150683E-1
4.794723646E0,1.370203972E0,1.051596045E0,4.145671725E-1
4.797114271E0,1.368982196E0,1.045487404E0,4.218975306E-1
4.799505625E0,1.368982196E0,1.036935329E0,4.292279184E-1
