"Time (s)","Gyroscope x (rad/s)","Gyroscope y (rad/s)","Gyroscope z (rad/s)"
8.789062000E-3,-1.136637211E0,7.153250575E-1,-4.953479767E-2
9.948730000E-3,-1.136637211E0,7.153250575E-1,-4.953479767E-2
1.196289000E-2,-1.136637211E0,7.153250575E-1,-4.953479767E-2
1.394653300E-2,-1.136637211E0,7.153250575E-1,-4.953479767E-2
1.589965800E-2,-1.136637211E0,7.153250575E-1,-4.953479767E-2
1.785278300E-2,-1.136637211E0,7.153250575E-1,-4.953479767E-2
1.986694300E-2,-1.136637211E0,7.153250575E-1,-4.953479767E-2
2.188110300E-2,-1.136637211E0,7.153250575E-1,-4.953479767E-2
2.389526300E-2,-1.136637211E0,7.153250575E-1,-4.953479767E-2
2.590942300E-2,-1.136637211E0,7.153250575E-1,-4.953479767E-2
2.789306600E-2,-1.136637211E0,7.153250575E-1,-4.953479767E-2
2.990722600E-2,-1.136637211E0,7.153250575E-1,-4.953479767E-2
3.189086900E-2,-1.136637211E0,7.153250575E-1,-4.953479767E-2
3.390502900E-2,-1.136637211E0,7.153250575E-1,-4.953479767E-2
3.591918900E-2,-1.136637211E0,7.153250575E-1,-4.953479767E-2
3.793334900E-2,-1.136637211E0,7.153250575E-1,-4.953479767E-2
3.994750900E-2,-1.378452182E0,-3.179814517E-1,-3.355583176E-2
4.193115200E-2,-1.393365860E0,-3.547330499E-1,-1.970739290E-2
4.394531200E-2,-1.409877539E0,-3.845604658E-1,-1.384843793E-2
4.595947200E-2,-1.414671183E0,-4.079962969E-1,3.195793368E-3
4.791259700E-2,-1.406681657E0,-4.250405133E-1,1.544633508E-2
4.989624000E-2,-1.386441708E0,-4.298342168E-1,3.249056637E-2
5.191040000E-2,-1.358744860E0,-4.293015897E-1,5.432848632E-2
5.389404200E-2,-1.327319503E0,-4.261057973E-1,8.681905270E-2
5.590820300E-2,-1.284176350E0,-4.239752591E-1,1.278317273E-1
5.789184500E-2,-1.233576298E0,-4.197141826E-1,1.741707325E-1
5.981445300E-2,-1.179247737E0,-4.186489284E-1,2.327602804E-1
6.179809500E-2,-1.123854041E0,-4.234426320E-1,2.908172011E-1
6.381225500E-2,-1.064731836E0,-4.383563101E-1,3.542004228E-1
6.582641600E-2,-1.007740140E0,-4.596616030E-1,4.143878818E-1
6.781005800E-2,-9.523464441E-1,-4.809668958E-1,4.729774296E-1
6.979370100E-2,-9.028116465E-1,-5.017395616E-1,5.358279943E-1
7.180786100E-2,-8.580704927E-1,-5.267732739E-1,5.933523178E-1
7.379150300E-2,-8.138620257E-1,-5.486112237E-1,6.546050310E-1
7.574462800E-2,-7.819041014E-1,-5.720469952E-1,7.084008455E-1
7.775878900E-2,-7.515440583E-1,-5.965480804E-1,7.611314654E-1
7.974243100E-2,-7.195861340E-1,-6.151902080E-1,8.058725595E-1
8.175659100E-2,-6.918892860E-1,-6.258428693E-1,8.538094759E-1
8.377075100E-2,-6.668555737E-1,-6.354302764E-1,8.953547478E-1
8.578491200E-2,-6.396912932E-1,-6.359629035E-1,9.321063757E-1
8.776855400E-2,-6.077333689E-1,-6.231797338E-1,9.672601223E-1
8.978271400E-2,-5.779059529E-1,-5.997439027E-1,9.997506738E-1
9.179687500E-2,-5.507417321E-1,-5.635249019E-1,1.024251819E0
9.381103500E-2,-5.219795704E-1,-5.102616549E-1,1.044491768E0
9.579467700E-2,-4.980111420E-1,-4.506068528E-1,1.064199209E0
9.780883700E-2,-4.783037305E-1,-3.840278387E-1,1.092428684E0
9.982299800E-2,-4.585963488E-1,-3.281014562E-1,1.137702465E0
1.018371580E-1,-4.415521026E-1,-2.769687474E-1,1.170192957E0
1.038513180E-1,-4.271710515E-1,-2.210423797E-1,1.193628788E0
1.058959960E-1,-4.255731404E-1,-1.470064968E-1,1.211738348E0
1.077880850E-1,-4.346278906E-1,-6.657902896E-2,1.216531992E0
1.098022460E-1,-4.452805519E-1,3.302319720E-2,1.215466738E0
1.117858880E-1,-4.649879336E-1,1.336906850E-1,1.198955178E0
1.137695310E-1,-4.974785149E-1,2.450108230E-1,1.169127703E0
1.157836910E-1,-5.336974859E-1,3.685815036E-1,1.125451922E0
1.177673340E-1,-5.731122494E-1,4.905542731E-1,1.074319243E0
1.197204590E-1,-6.189186573E-1,6.221144199E-1,1.003479123E0
1.217041010E-1,-6.679208279E-1,7.504788041E-1,9.310411215E-1
1.237182610E-1,-7.265103459E-1,8.863000274E-1,8.474178910E-1
1.257324210E-1,-7.781757116E-1,1.022653818E0,7.637946010E-1
1.277160640E-1,-8.367652297E-1,1.158475041E0,6.785734296E-1
1.296997070E-1,-8.894958496E-1,1.292165756E0,5.965480804E-1
1.317138670E-1,-9.438242912E-1,1.414138556E0,5.209143162E-1
1.336975090E-1,-9.970875382E-1,1.516936541E0,4.490089715E-1
1.356506340E-1,-1.046089649E0,1.604288220E0,3.818973005E-1
1.376647940E-1,-1.090830803E0,1.670867324E0,3.185140789E-1
1.396789550E-1,-1.138767719E0,1.708684206E0,2.556634545E-1
1.416625970E-1,-1.180845618E0,1.720934749E0,1.944107562E-1
1.436767570E-1,-1.214401484E0,1.707086325E0,1.390170157E-1
1.457214350E-1,-1.251153111E0,1.658616781E0,8.415589482E-2
1.476745600E-1,-1.286306858E0,1.582983017E0,2.609897964E-2
1.496887200E-1,-1.323058486E0,1.472728133E0,-2.769687586E-2
1.517028800E-1,-1.357146859E0,1.329982638E0,-8.468852192E-2
1.536865230E-1,-1.387506962E0,1.172856212E0,-1.384843737E-1
1.557006830E-1,-1.408812284E0,9.965549111E-1,-1.992044598E-1
1.576843260E-1,-1.424791217E0,8.042746782E-1,-2.668487430E-1
1.596984860E-1,-1.438639641E0,6.029396653E-1,-3.430151641E-1
1.616821280E-1,-1.442368031E0,3.920173049E-1,-4.255731404E-1
1.636352530E-1,-1.437574387E0,1.736381054E-1,-5.070658922E-1
1.656799310E-1,-1.424791217E0,-5.699164793E-2,-5.992112756E-1
1.676635740E-1,-1.406149030E0,-2.945456207E-1,-6.823018789E-1
1.696777340E-1,-1.380050063E0,-5.432848930E-1,-7.675230503E-1
1.716613760E-1,-1.353418469E0,-7.866978049E-1,-8.431568146E-1
1.736450190E-1,-1.329450011E0,-1.026914954E0,-9.081379771E-1
1.756591790E-1,-1.304416299E0,-1.239967823E0,-9.629990458E-1
1.776733390E-1,-1.282578349E0,-1.432780743E0,-1.008272767E0
1.795959470E-1,-1.264468908E0,-1.591505051E0,-1.040763378E0
1.815795890E-1,-1.245294094E0,-1.720934749E0,-1.068992853E0
1.835937500E-1,-1.231978297E0,-1.818939090E0,-1.086037159E0
1.856079100E-1,-1.215999365E0,-1.887648582E0,-1.096157074E0
1.875915520E-1,-1.197889924E0,-1.927063346E0,-1.107342362E0
1.896057120E-1,-1.178182483E0,-1.938248634E0,-1.116929770E0
1.915893550E-1,-1.157942414E0,-1.931324482E0,-1.121190786E0
1.936035150E-1,-1.133973956E0,-1.900964379E0,-1.131843448E0
1.955566400E-1,-1.104679227E0,-1.862082243E0,-1.135039330E0
1.975708000E-1,-1.077515006E0,-1.812547445E0,-1.134506702E0
1.995544430E-1,-1.042893887E0,-1.779524326E0,-1.093493938E0
2.015380850E-1,-1.013599157E0,-1.759284258E0,-1.058340192E0
2.035522460E-1,-9.821738005E-1,-1.732120037E0,-1.019990683E0
2.055969230E-1,-9.496832490E-1,-1.692705274E0,-9.837717414E-1
2.074890130E-1,-9.230516553E-1,-1.639974594E0,-9.486179948E-1
2.094726560E-1,-9.044095278E-1,-1.569667220E0,-9.123989940E-1
2.114868160E-1,-8.841695189E-1,-1.487109184E0,-8.745821118E-1
2.134704590E-1,-8.655273914E-1,-1.397094369E0,-8.431568146E-1
2.154846190E-1,-8.495483994E-1,-1.294296265E0,-8.074704409E-1
2.174682610E-1,-8.351673484E-1,-1.185639381E0,-7.765777707E-1
2.194824210E-1,-8.159925938E-1,-1.077515006E0,-7.446198463E-1
2.214660640E-1,-7.984157205E-1,-9.619337916E-1,-7.179882526E-1
2.234191890E-1,-7.835019827E-1,-8.458199501E-1,-6.849650741E-1
2.254333490E-1,-7.627293468E-1,-7.382282615E-1,-6.466155052E-1
2.274169920E-1,-7.424893379E-1,-6.396912932E-1,-6.024070382E-1
2.294006340E-1,-7.206513882E-1,-5.448827744E-1,-5.448827744E-1
2.314147940E-1,-6.998787522E-1,-4.623247683E-1,-4.889563918E-1
2.334289550E-1,-6.748450398E-1,-3.802994192E-1,-4.213120937E-1
2.353515620E-1,-6.519418359E-1,-3.110572100E-1,-3.510046303E-1
2.373352050E-1,-6.322344542E-1,-2.434129268E-1,-2.870887816E-1
2.393493650E-1,-6.114618182E-1,-1.816275865E-1,-2.226402760E-1
2.413635250E-1,-5.938849449E-1,-1.182443574E-1,-1.565938741E-1
2.433471670E-1,-5.779059529E-1,-5.858954415E-2,-1.001348570E-1
2.453613280E-1,-5.645901561E-1,4.261057824E-3,-4.207794741E-2
2.473449700E-1,-5.581985712E-1,5.805691332E-2,6.391586736E-3
2.493591300E-1,-5.448827744E-1,1.075917110E-1,5.006742850E-2
2.513427730E-1,-5.379585624E-1,1.518001854E-1,9.001484513E-2
2.533569330E-1,-5.315669775E-1,1.912149638E-1,1.203748807E-1
2.553710930E-1,-5.251753926E-1,2.205097377E-1,1.496696621E-1
2.573852530E-1,-5.219795704E-1,2.418150306E-1,1.688444167E-1
2.593994140E-1,-5.278385282E-1,2.732403278E-1,1.912149638E-1
2.613830560E-1,-5.320996046E-1,3.083940744E-1,2.130528986E-1
2.633972160E-1,-5.400890708E-1,3.403519988E-1,2.290318608E-1
2.654113760E-1,-5.480785370E-1,3.605920076E-1,2.396845073E-1
2.673034660E-1,-5.550028086E-1,3.771036267E-1,2.428802997E-1
2.692871090E-1,-5.592638254E-1,3.845604658E-1,2.460760921E-1
2.713012690E-1,-5.635249019E-1,3.866910040E-1,2.428802997E-1
2.732849120E-1,-5.672533512E-1,3.792341352E-1,2.322276533E-1
2.752990720E-1,-5.699164867E-1,3.712446690E-1,2.210423797E-1
2.773132320E-1,-5.715143681E-1,3.483414650E-1,2.087918371E-1
2.792968750E-1,-5.779059529E-1,3.195793331E-1,1.906823367E-1
2.812500000E-1,-5.779059529E-1,2.764361203E-1,1.768338978E-1
2.832641600E-1,-5.779059529E-1,2.274339646E-1,1.512675583E-1
2.852783200E-1,-5.773733258E-1,1.672465205E-1,1.310275346E-1
2.872619620E-1,-5.720469952E-1,1.033306494E-1,1.097222418E-1
2.892761230E-1,-5.731122494E-1,3.142530099E-2,8.202536404E-2
2.912597650E-1,-5.741775632E-1,-4.846953228E-2,5.858954415E-2
2.932434080E-1,-5.741775632E-1,-1.310275346E-1,2.929477207E-2
2.951965330E-1,-5.757754445E-1,-2.125202566E-1,1.065264456E-3
2.971801750E-1,-5.768406987E-1,-2.998719513E-1,-3.249056637E-2
2.991943350E-1,-5.842975378E-1,-3.787015080E-1,-6.018744037E-2
3.011779780E-1,-5.896238685E-1,-4.607268870E-1,-9.267801046E-2
3.031921380E-1,-5.976133347E-1,-5.416869521E-1,-1.230380461E-1
3.052062980E-1,-6.103965044E-1,-6.205165386E-1,-1.528654546E-1
3.071899410E-1,-6.226470470E-1,-6.908239722E-1,-1.800296903E-1
3.092041010E-1,-6.391586661E-1,-7.526093125E-1,-2.050634027E-1
3.111877440E-1,-6.546050310E-1,-8.048073053E-1,-2.327602804E-1
3.131713860E-1,-6.695187092E-1,-8.548747301E-1,-2.615224123E-1
3.151855460E-1,-6.844323874E-1,-8.900284767E-1,-2.870887816E-1
3.171997070E-1,-7.030745149E-1,-9.219864011E-1,-3.195793331E-1
3.191833490E-1,-7.217166424E-1,-9.427590370E-1,-3.504720032E-1
3.211669920E-1,-7.366303802E-1,-9.566074610E-1,-3.787015080E-1
3.231201170E-1,-7.547398806E-1,-9.629990458E-1,-4.053331316E-1
3.251342770E-1,-7.733820081E-1,-9.651296139E-1,-4.287689328E-1
3.271179190E-1,-7.946872711E-1,-9.619337916E-1,-4.511395097E-1
3.291015620E-1,-8.133293986E-1,-9.608685374E-1,-4.703142643E-1
3.311157220E-1,-8.325041533E-1,-9.507485032E-1,-4.836300611E-1
3.331298820E-1,-8.554073572E-1,-9.422264099E-1,-4.953479767E-1
3.351135250E-1,-8.740494847E-1,-9.374327064E-1,-5.081311464E-1
3.370971670E-1,-8.942894936E-1,-9.331716895E-1,-5.161206126E-1
3.390502920E-1,-9.187905788E-1,-9.241169095E-1,-5.209143162E-1
3.410644530E-1,-9.416937828E-1,-9.257147908E-1,-5.166532397E-1
3.430480950E-1,-9.645969868E-1,-9.235842824E-1,-5.060006380E-1
3.450622550E-1,-9.827064872E-1,-9.315737486E-1,-4.916195571E-1
3.470458980E-1,-9.970875382E-1,-9.310411215E-1,-4.729774296E-1
3.490295410E-1,-1.006142259E0,-9.321063757E-1,-4.607268870E-1
3.510437010E-1,-1.012533903E0,-9.241169095E-1,-4.404868484E-1
3.530273430E-1,-1.021055937E0,-9.006810784E-1,-4.229099751E-1
3.549499510E-1,-1.022121191E0,-8.649947643E-1,-3.989415467E-1
3.569335930E-1,-1.023719192E0,-8.277105093E-1,-3.808320463E-1
3.589477530E-1,-1.021055937E0,-7.914915085E-1,-3.685815036E-1
3.609619140E-1,-1.017860174E0,-7.504788041E-1,-3.504720032E-1
3.629455560E-1,-1.011468649E0,-7.153250575E-1,-3.350256681E-1
3.649902340E-1,-1.009338021E0,-6.817692518E-1,-3.201119602E-1
3.669128410E-1,-1.000815988E0,-6.460828781E-1,-2.961435318E-1
3.689270010E-1,-9.928264618E-1,-6.114618182E-1,-2.737729549E-1
3.709106440E-1,-9.821738005E-1,-5.768406987E-1,-2.503371537E-1
3.728942870E-1,-9.752495885E-1,-5.368933082E-1,-2.205097377E-1
3.749084470E-1,-9.629990458E-1,-4.996090233E-1,-1.965412945E-1
3.769226070E-1,-9.560748339E-1,-4.644553065E-1,-1.731054783E-1
3.789062500E-1,-9.512811303E-1,-4.271710515E-1,-1.470064968E-1
3.808898920E-1,-9.427590370E-1,-3.834952116E-1,-1.219727769E-1
3.828430170E-1,-9.331716895E-1,-3.547330499E-1,-1.001348570E-1
3.848571770E-1,-9.262474179E-1,-3.206445873E-1,-7.776430249E-2
3.868408200E-1,-9.203884602E-1,-2.769687474E-1,-5.113269389E-2
3.888549800E-1,-9.134642482E-1,-2.418150306E-1,-2.130528912E-2
3.908386230E-1,-9.044095278E-1,-2.253034264E-1,0.000000000E0
3.928222650E-1,-8.910937309E-1,-2.173139453E-1,2.130528912E-2
3.947753900E-1,-8.847021461E-1,-2.119876295E-1,3.302319720E-2
3.967895500E-1,-8.724516034E-1,-2.098570913E-1,4.154531285E-2
3.987731930E-1,-8.649947643E-1,-2.061286718E-1,6.072007492E-2
4.007568350E-1,-8.612663150E-1,-2.061286718E-1,7.829693705E-2
4.027709960E-1,-8.522115946E-1,-2.082591951E-1,9.480853379E-2
4.047851560E-1,-8.484831452E-1,-2.284992188E-1,1.065264493E-1
4.067687980E-1,-8.458199501E-1,-2.498045117E-1,1.177117229E-1
4.087524410E-1,-8.447546959E-1,-2.716424465E-1,1.193096191E-1
4.107666010E-1,-8.420915604E-1,-2.966761589E-1,1.257012039E-1
4.127807610E-1,-8.426241875E-1,-3.243730366E-1,1.310275346E-1
4.147644040E-1,-8.447546959E-1,-3.531351686E-1,1.294296384E-1
4.167480460E-1,-8.484831452E-1,-3.829625845E-1,1.379517466E-1
4.187622070E-1,-8.511462808E-1,-4.143878818E-1,1.379517466E-1
4.207763670E-1,-8.559399843E-1,-4.490089715E-1,1.422128081E-1
4.227600090E-1,-8.617989421E-1,-4.846953154E-1,1.443433315E-1
4.247741690E-1,-8.639294505E-1,-5.166532397E-1,1.427454352E-1
4.266967770E-1,-8.703210354E-1,-5.464806557E-1,1.438107044E-1
4.286804190E-1,-8.745821118E-1,-5.768406987E-1,1.438107044E-1
4.306945800E-1,-8.756473660E-1,-6.093312502E-1,1.432780623E-1
4.327087400E-1,-8.761799932E-1,-6.375607848E-1,1.443433315E-1
4.346923820E-1,-8.756473660E-1,-6.572681665E-1,1.454086006E-1
4.367065420E-1,-8.745821118E-1,-6.828345060E-1,1.454086006E-1
4.386596670E-1,-8.703210354E-1,-7.041398287E-1,1.491370201E-1
4.406738280E-1,-8.660600185E-1,-7.201187611E-1,1.523328125E-1
4.426574700E-1,-8.538094759E-1,-7.382282615E-1,1.549959779E-1
4.446716300E-1,-8.442220688E-1,-7.510114312E-1,1.597896665E-1
4.466552730E-1,-8.293083906E-1,-7.595335841E-1,1.651159972E-1
4.486694330E-1,-8.138620257E-1,-7.675230503E-1,1.672465205E-1
4.506530760E-1,-7.994809747E-1,-7.733820081E-1,1.763012707E-1
4.526672360E-1,-7.819041014E-1,-7.803062201E-1,1.789644361E-1
4.546203610E-1,-7.664577961E-1,-7.856325507E-1,1.880191714E-1
4.566345210E-1,-7.456851006E-1,-7.861651778E-1,1.928128600E-1
4.586181640E-1,-7.275756001E-1,-7.925567627E-1,1.970739216E-1
4.606323240E-1,-7.147924304E-1,-7.920241356E-1,2.018676102E-1
4.626464840E-1,-6.977482438E-1,-7.952198982E-1,2.034655064E-1
4.646606440E-1,-6.791061163E-1,-7.888283134E-1,2.071939409E-1
4.666137690E-1,-6.689860821E-1,-7.866978049E-1,2.050634027E-1
4.686279290E-1,-6.530070901E-1,-7.760451436E-1,2.071939409E-1
4.706420890E-1,-6.471481323E-1,-7.648598552E-1,2.029328793E-1
4.726257320E-1,-6.375607848E-1,-7.568703890E-1,2.002697140E-1
4.746398920E-1,-6.332997084E-1,-7.504788041E-1,1.981391907E-1
4.766235350E-1,-6.285060048E-1,-7.408914566E-1,1.944107562E-1
4.786376950E-1,-6.258428693E-1,-7.350324988E-1,1.906823367E-1
4.806213370E-1,-6.210491657E-1,-7.259777188E-1,1.853560209E-1
4.826354980E-1,-6.189186573E-1,-7.222493291E-1,1.805623323E-1
4.846496580E-1,-6.189186573E-1,-7.195861340E-1,1.725728363E-1
4.865417480E-1,-6.183860302E-1,-7.217166424E-1,1.699096859E-1
4.885253900E-1,-6.141249537E-1,-7.249124646E-1,1.699096859E-1
4.905395500E-1,-6.119944453E-1,-7.344998717E-1,1.683117896E-1
4.925537100E-1,-6.066681147E-1,-7.499461770E-1,1.603222936E-1
4.945373530E-1,-6.008091569E-1,-7.637946010E-1,1.608549356E-1
4.965209960E-1,-5.912217498E-1,-7.765777707E-1,1.645833552E-1
4.984741210E-1,-5.842975378E-1,-7.952198982E-1,1.619201899E-1
5.004882810E-1,-5.709817410E-1,-8.127967715E-1,1.629854590E-1
5.024719230E-1,-5.581985712E-1,-8.309062719E-1,1.640507281E-1
5.044860840E-1,-5.443501472E-1,-8.431568146E-1,1.592570394E-1
5.064697260E-1,-5.294364095E-1,-8.586031795E-1,1.645833552E-1
5.084533690E-1,-5.086637735E-1,-8.708537221E-1,1.640507281E-1
5.104675290E-1,-4.889563918E-1,-8.799084425E-1,1.624528319E-1
5.124816890E-1,-4.692489803E-1,-8.889631629E-1,1.597896665E-1
5.144042960E-1,-4.458131790E-1,-8.958874345E-1,1.528654546E-1
5.163879390E-1,-4.229099751E-1,-9.017463326E-1,1.427454352E-1
5.184020990E-1,-3.994741738E-1,-9.049421549E-1,1.342233270E-1
5.204162590E-1,-3.723099232E-1,-9.129316211E-1,1.193096191E-1
5.223999020E-1,-3.478088379E-1,-9.177253246E-1,1.070590764E-1
5.244140620E-1,-3.201119602E-1,-9.225190282E-1,9.054747969E-2
5.263061520E-1,-2.982740402E-1,-9.262474179E-1,7.456851006E-2
5.282897940E-1,-2.716424465E-1,-9.299758673E-1,5.432848632E-2
5.303039550E-1,-2.460760921E-1,-9.337043166E-1,3.728425503E-2
5.323181150E-1,-2.242381722E-1,-9.321063757E-1,2.396845073E-2
5.343017570E-1,-1.997370869E-1,-9.337043166E-1,5.858954508E-3
5.363159170E-1,-1.768338978E-1,-9.337043166E-1,-6.924218964E-3
5.383300780E-1,-1.512675583E-1,-9.278453588E-1,-1.757686399E-2
5.403442380E-1,-1.257012039E-1,-9.198558331E-1,-2.769687586E-2
5.422973630E-1,-1.043959185E-1,-9.198558331E-1,-3.728425503E-2
5.443420410E-1,-8.042746782E-2,-9.060074091E-1,-4.048004746E-2
5.462951660E-1,-5.592638254E-2,-8.878979087E-1,-4.474110901E-2
5.483093260E-1,-3.142530099E-2,-8.665926456E-1,-4.900216311E-2
5.502929680E-1,-1.171790902E-2,-8.431568146E-1,-4.900216311E-2
5.523071280E-1,1.810949668E-2,-8.037420511E-1,-5.166532472E-2
5.543212890E-1,3.568635881E-2,-7.755125165E-1,-5.219795927E-2
5.563354490E-1,5.486112088E-2,-7.494135499E-1,-5.006742850E-2
5.582580560E-1,6.178534031E-2,-7.355651259E-1,-4.474110901E-2
5.602416990E-1,7.723167539E-2,-7.030745149E-1,-4.048004746E-2
5.622558590E-1,8.681905270E-2,-6.796387434E-1,-4.420847446E-2
5.643005370E-1,9.960222989E-2,-6.380934119E-1,-3.941478580E-2
5.662841790E-1,1.027980223E-1,-6.098638773E-1,-3.515372798E-2
5.682678220E-1,1.043959185E-1,-5.874933600E-1,-2.876213938E-2
5.702819820E-1,1.038632840E-1,-5.672533512E-1,-2.503371425E-2
5.722656250E-1,9.960222989E-2,-5.512743592E-1,-1.704423130E-2
5.741882320E-1,9.534116834E-2,-5.486112237E-1,-1.864212751E-2
5.761718750E-1,8.894958347E-2,-5.320996046E-1,-8.522115648E-3
5.781860350E-1,7.829693705E-2,-5.203816891E-1,-4.793690052E-3
5.802001950E-1,5.486112088E-2,-5.044026971E-1,6.924218964E-3
5.821838370E-1,4.048004746E-2,-4.937500656E-1,1.864212751E-2
5.841979980E-1,2.556634694E-2,-4.868258536E-1,2.929477207E-2
5.861206050E-1,1.704423130E-2,-4.788363874E-1,3.408846259E-2
5.881042480E-1,2.663161140E-3,-4.697816372E-1,4.154531285E-2
5.901184080E-1,-1.438106969E-2,-4.596616030E-1,5.539375171E-2
5.921325680E-1,-3.355583176E-2,-4.399542212E-1,7.243798673E-2
5.941162100E-1,-4.314320907E-2,-4.245078862E-1,8.841694891E-2
5.961303710E-1,-4.687163606E-2,-4.026699662E-1,1.038632840E-1
5.980834960E-1,-4.900216311E-2,-3.920173049E-1,1.145159304E-1
6.000976560E-1,-4.154531285E-2,-3.552657068E-1,1.422128081E-1
6.020812980E-1,-3.408846259E-2,-3.217098713E-1,1.581917703E-1
6.040954590E-1,-1.651159860E-2,-2.775014043E-1,1.816275865E-1
6.060791010E-1,9.054748341E-3,-2.226402760E-1,1.928128600E-1
6.080932610E-1,3.941478580E-2,-1.592570394E-1,2.114549875E-1
6.100769040E-1,7.403588295E-2,-9.374327213E-2,2.364887148E-1
6.120605460E-1,1.102548689E-1,-2.130528912E-2,2.609897852E-1
6.139831540E-1,1.310275346E-1,1.384843793E-2,2.700445354E-1
6.159667960E-1,1.715075821E-1,8.362326026E-2,2.902845740E-1
6.179809570E-1,2.173139453E-1,1.491370201E-1,3.025351167E-1
6.199951170E-1,2.540655732E-1,2.141181529E-1,3.121224940E-1
6.219787590E-1,3.121224940E-1,3.009372056E-1,3.099919558E-1
6.239929190E-1,3.456783295E-1,3.478088379E-1,2.998719513E-1
6.259765620E-1,3.616572917E-1,3.717772961E-1,2.956108749E-1
6.279602050E-1,4.048005044E-1,4.399542212E-1,2.700445354E-1
6.299743650E-1,4.330300093E-1,4.783037305E-1,2.540655732E-1
6.319580070E-1,4.585963488E-1,5.283711553E-1,2.327602804E-1
6.339721670E-1,4.804342687E-1,5.826996565E-1,2.050634027E-1
6.359558100E-1,5.065332651E-1,6.327670813E-1,1.693770438E-1
6.379699700E-1,5.347627401E-1,6.796387434E-1,1.443433315E-1
6.399536130E-1,5.635249019E-1,7.227819562E-1,1.203748807E-1
6.419067380E-1,5.997439027E-1,7.552725077E-1,9.321063757E-2
6.439514160E-1,6.380934119E-1,7.866978049E-1,7.350324839E-2
6.459045410E-1,6.828345060E-1,8.106662631E-1,5.805691332E-2
6.479187010E-1,7.318366766E-1,8.341020942E-1,4.207794741E-2
6.499328610E-1,7.882956862E-1,8.554073572E-1,3.728425503E-2
6.519470210E-1,8.484831452E-1,8.788431883E-1,3.515372798E-2
6.539611810E-1,9.076052904E-1,9.070726633E-1,4.048004746E-2
6.559448240E-1,9.763149023E-1,9.363674521E-1,4.420847446E-2
6.578979490E-1,1.045024395E0,9.677927494E-1,5.645901710E-2
6.599121090E-1,1.112136126E0,1.002946496E0,6.711166352E-2
6.619262690E-1,1.184574127E0,1.043426514E0,8.362326026E-2
6.639404290E-1,1.251153111E0,1.082841277E0,9.001484513E-2
6.659240720E-1,1.316134214E0,1.127049804E0,1.049285457E-1
6.679382320E-1,1.379517436E0,1.172856212E0,1.187769845E-1
6.699218750E-1,1.438639641E0,1.216531992E0,1.315601617E-1
6.719360350E-1,1.494033456E0,1.254881501E0,1.443433315E-1
6.738891600E-1,1.542502880E0,1.297492146E0,1.539307088E-1
6.759033200E-1,1.586711407E0,1.350222707E0,1.629854590E-1
6.779479980E-1,1.628256679E0,1.387506962E0,1.752360016E-1
6.799011230E-1,1.662345171E0,1.440237522E0,1.832254827E-1
6.819152830E-1,1.697498918E0,1.490304947E0,1.922802329E-1
6.839599600E-1,1.726261020E0,1.546231389E0,1.938781291E-1
6.859436030E-1,1.750229478E0,1.592570305E0,1.986718178E-1
6.879577630E-1,1.768339038E0,1.645300984E0,2.034655064E-1
6.899414060E-1,1.784317970E0,1.693237901E0,2.066612989E-1
6.919250480E-1,1.793905377E0,1.732120037E0,2.082591951E-1
6.939392090E-1,1.804558039E0,1.768871665E0,2.119876295E-1
6.959533690E-1,1.816275954E0,1.797101140E0,2.167813182E-1
6.979370110E-1,1.830124378E0,1.818939090E0,2.199771106E-1
6.999206540E-1,1.846635938E0,1.834918022E0,2.300971150E-1
7.018737790E-1,1.867408633E0,1.839711666E0,2.370213419E-1
7.038879390E-1,1.897235990E0,1.843440175E0,2.460760921E-1
7.058715820E-1,1.927596092E0,1.832787514E0,2.514024079E-1
7.078857420E-1,1.967010856E0,1.823732734E0,2.572613657E-1
7.098693840E-1,2.018676043E0,1.808286428E0,2.636529505E-1
7.118530270E-1,2.086853027E0,1.789111614E0,2.689792812E-1
7.138671870E-1,2.162486792E0,1.765675783E0,2.775014043E-1
7.158813470E-1,2.249838591E0,1.732120037E0,2.913498282E-1
7.178039550E-1,2.347310305E0,1.716673613E0,3.051982522E-1
7.197875970E-1,2.451706171E0,1.707086325E0,3.275688291E-1
7.218017570E-1,2.563026190E0,1.695368409E0,3.605920076E-1
7.238159170E-1,2.672748566E0,1.687378883E0,3.893541694E-1
7.257995600E-1,2.784601212E0,1.683650494E0,4.271710515E-1
7.277832030E-1,2.890595198E0,1.675128341E0,4.660531878E-1
7.297973630E-1,2.980609894E0,1.668736815E0,5.075985193E-1
7.317810050E-1,3.068494320E0,1.655953646E0,5.454154015E-1
7.337341300E-1,3.130812168E0,1.644235730E0,5.795038939E-1
7.357482910E-1,3.180346966E0,1.630387306E0,6.114618182E-1
7.377624510E-1,3.209109068E0,1.609081984E0,6.402239203E-1
7.397460930E-1,3.217098713E0,1.561145067E0,6.673882008E-1
7.417602530E-1,3.204848051E0,1.496696591E0,6.860303283E-1
7.437744140E-1,3.175553322E0,1.401355386E0,7.084008455E-1
7.456665030E-1,3.137736559E0,1.281513095E0,7.131945491E-1
7.476501460E-1,3.081277370E0,1.143028736E0,7.243798375E-1
7.496643060E-1,3.015763760E0,9.896306992E-1,7.243798375E-1
7.516479490E-1,2.939597368E0,8.106662631E-1,7.153250575E-1
7.536621090E-1,2.854908705E0,6.407565475E-1,7.025418878E-1
7.556457510E-1,2.771285534E0,4.724447727E-1,6.769755483E-1
7.576599120E-1,2.676476955E0,3.163835406E-1,6.503439546E-1
7.596435540E-1,2.585929394E0,1.725728363E-1,6.119944453E-1
7.615966790E-1,2.496979952E0,4.367584363E-2,5.661880374E-1
7.636413570E-1,2.413356543E0,-6.924218684E-2,5.145227313E-1
7.655944820E-1,2.340385914E0,-1.645833552E-1,4.559331834E-1
7.676086420E-1,2.271676540E0,-2.364887148E-1,3.973436356E-1
7.696228020E-1,2.211488962E0,-2.934803665E-1,3.307646215E-1
7.716064450E-1,2.165149927E0,-3.344930410E-1,2.657834888E-1
7.735290520E-1,2.122539520E0,-3.568635881E-1,2.013349831E-1
7.755126950E-1,2.087918282E0,-3.627225459E-1,1.358212233E-1
7.775268550E-1,2.060754061E0,-3.589941263E-1,7.084008306E-2
7.795410150E-1,2.039981365E0,-3.408846259E-1,8.522115648E-3
7.815246580E-1,2.024535179E0,-3.169161677E-1,-5.006742850E-2
7.835693350E-1,2.019208670E0,-2.838929892E-1,-1.113201380E-1
7.855529780E-1,2.014947653E0,-2.567287385E-1,-1.656486243E-1
7.875366210E-1,2.020806789E0,-2.391518652E-1,-2.263686955E-1
7.895507810E-1,2.026665688E0,-2.263686955E-1,-2.822950780E-1
7.915344230E-1,2.031991959E0,-2.194444835E-1,-3.472762108E-1
7.935485840E-1,2.029861450E0,-2.157160491E-1,-4.021373391E-1
7.955322260E-1,2.032524586E0,-2.183792144E-1,-4.692489803E-1
7.975463860E-1,2.032524586E0,-2.343581766E-1,-5.299690962E-1
7.995605460E-1,2.018676043E0,-2.657834888E-1,-5.938849449E-1
8.015747070E-1,2.004295111E0,-3.147856593E-1,-6.625944972E-1
8.035888670E-1,1.985120296E0,-3.744404614E-1,-7.233145833E-1
8.055114740E-1,1.957423449E0,-4.458131790E-1,-7.866978049E-1
8.075256340E-1,1.930259228E0,-5.262406468E-1,-8.452873230E-1
8.095092770E-1,1.896170735E0,-6.087986231E-1,-8.980179429E-1
8.115234370E-1,1.866876006E0,-6.833671331E-1,-9.448895454E-1
8.135375970E-1,1.840244293E0,-7.494135499E-1,-9.875001311E-1
8.155517570E-1,1.816275954E0,-8.149272799E-1,-1.021588564E0
8.175354000E-1,1.794438004E0,-8.649947643E-1,-1.044491768E0
8.195495600E-1,1.768339038E0,-8.868326545E-1,-1.063666582E0
8.215026850E-1,1.752359986E0,-8.809736967E-1,-1.082308650E0
8.235168450E-1,1.740642071E0,-8.500810266E-1,-1.104679227E0
8.255004880E-1,1.732652664E0,-8.090683818E-1,-1.129712939E0
8.274841300E-1,1.729989529E0,-7.456851006E-1,-1.146757245E0
8.294982910E-1,1.734783173E0,-6.663229465E-1,-1.173921466E0
8.315124510E-1,1.742772698E0,-5.779059529E-1,-1.191498280E0
8.334350580E-1,1.760349512E0,-4.799016416E-1,-1.201618314E0
8.354187010E-1,1.776861072E0,-3.675162494E-1,-1.214401484E0
8.374328610E-1,1.802427411E0,-2.466087192E-1,-1.218129873E0
8.394470210E-1,1.830124378E0,-1.139832959E-1,-1.215999365E0
8.414306640E-1,1.862082243E0,2.556634694E-2,-1.203216195E0
8.434448240E-1,1.893507600E0,1.597896665E-1,-1.181378245E0
8.454284660E-1,1.928661346E0,2.881540358E-1,-1.158475041E0
8.474426260E-1,1.964347601E0,4.293015897E-1,-1.132908702E0
8.494262690E-1,1.997370839E0,5.720469952E-1,-1.111070871E0
8.514099120E-1,2.031459332E0,7.121292949E-1,-1.087102413E0
8.534240720E-1,2.062351942E0,8.506136537E-1,-1.059405446E0
8.554077140E-1,2.095375299E0,9.763149023E-1,-1.033839107E0
8.574218750E-1,2.119343519E0,1.099352956E0,-1.001348615E0
8.594055170E-1,2.141181469E0,1.212803602E0,-9.704559445E-1
8.613586420E-1,2.160356283E0,1.308677435E0,-9.369000793E-1
8.633728020E-1,2.181128979E0,1.390170097E0,-9.017463326E-1
8.653564450E-1,2.198705912E0,1.448759675E0,-8.628641963E-1
8.673400870E-1,2.213619471E0,1.492968082E0,-8.207862377E-1
8.693542480E-1,2.224804878E0,1.527589202E0,-7.845672965E-1
8.713378900E-1,2.234392166E0,1.560612440E0,-7.462177277E-1
8.733520500E-1,2.235990047E0,1.586711407E0,-7.131945491E-1
8.753356930E-1,2.232261658E0,1.601092458E0,-6.780408025E-1
8.772888180E-1,2.224272251E0,1.605353594E0,-6.466155052E-1
8.793029780E-1,2.209891081E0,1.609614611E0,-6.135923266E-1
8.813171380E-1,2.193379402E0,1.606418848E0,-5.800365210E-1
8.833312980E-1,2.171541691E0,1.609081984E0,-5.507417321E-1
8.853149410E-1,2.147573233E0,1.600027204E0,-5.225121975E-1
8.872985840E-1,2.125202656E0,1.591505051E0,-4.958806038E-1
8.893127440E-1,2.094842434E0,1.589907169E0,-4.708468914E-1
8.913269040E-1,2.066612959E0,1.580319762E0,-4.490089715E-1
8.932495110E-1,2.036785603E0,1.571797729E0,-4.319647253E-1
8.952331540E-1,2.005892992E0,1.566471338E0,-4.202468395E-1
8.972473140E-1,1.973402381E0,1.553688169E0,-4.042678475E-1
8.992614740E-1,1.932922363E0,1.536111355E0,-3.973436356E-1
9.012451170E-1,1.896170735E0,1.521730304E0,-3.893541694E-1
9.032592770E-1,1.855158091E0,1.515338659E0,-3.808320463E-1
9.051818840E-1,1.815743208E0,1.510545015E0,-3.765709996E-1
9.071655270E-1,1.775263190E0,1.497761846E0,-3.739078343E-1
9.091796870E-1,1.740642071E0,1.479119658E0,-3.680488765E-1
9.111938470E-1,1.701759934E0,1.458879709E0,-3.659183383E-1
9.131774900E-1,1.666073561E0,1.434911251E0,-3.589941263E-1
9.151611320E-1,1.635180950E0,1.426921725E0,-3.510046303E-1
9.171752920E-1,1.606951475E0,1.414138556E0,-3.446130455E-1
9.191894530E-1,1.572862983E0,1.396561742E0,-3.398193717E-1
9.211120600E-1,1.540372372E0,1.377386928E0,-3.344930410E-1
9.231262200E-1,1.516936541E0,1.348092198E0,-3.291667104E-1
9.251098630E-1,1.486043930E0,1.316666842E0,-3.222424984E-1
9.271240230E-1,1.457814455E0,1.299090028E0,-3.179814517E-1
9.291076660E-1,1.432248116E0,1.277252078E0,-3.163835406E-1
9.310913080E-1,1.403485894E0,1.262871027E0,-3.078614175E-1
9.331054680E-1,1.382713318E0,1.260207891E0,-3.020024598E-1
9.351196280E-1,1.359810114E0,1.255414128E0,-2.956108749E-1
9.370727530E-1,1.332645893E0,1.259142637E0,-2.940129936E-1
9.390869140E-1,1.313471079E0,1.262871027E0,-2.913498282E-1
9.410705560E-1,1.290567875E0,1.265534163E0,-2.854908705E-1
9.430847160E-1,1.270860553E0,1.268197298E0,-2.892192900E-1
9.450683590E-1,1.249555230E0,1.276186824E0,-2.913498282E-1
9.470520010E-1,1.221858382E0,1.269795179E0,-2.982740402E-1
9.490661620E-1,1.196292043E0,1.262338400E0,-3.009372056E-1
9.510803220E-1,1.166464567E0,1.244228840E0,-3.067961633E-1
9.530639640E-1,1.146224499E0,1.236239433E0,-3.089267015E-1
9.550781250E-1,1.115864515E0,1.239435196E0,-3.036003709E-1
9.570922850E-1,1.094026566E0,1.247957349E0,-3.062635362E-1
9.591064450E-1,1.071655989E0,1.263403654E0,-3.020024598E-1
9.611206050E-1,1.048220277E0,1.282045722E0,-2.993393242E-1
9.631347650E-1,1.030643344E0,1.295894265E0,-2.934803665E-1
9.650573730E-1,1.007207513E0,1.308677435E0,-2.892192900E-1
9.670715330E-1,9.880327582E-1,1.324123740E0,-2.886866629E-1
9.690856930E-1,9.704559445E-1,1.325721622E0,-2.860234976E-1
9.710693350E-1,9.448895454E-1,1.328384757E0,-2.806971967E-1
9.730834960E-1,9.230516553E-1,1.325188994E0,-2.812298238E-1
9.750671380E-1,8.942894936E-1,1.320395350E0,-2.838929892E-1
9.770812980E-1,8.676578999E-1,1.312405825E0,-2.881540358E-1
9.790649410E-1,8.410263062E-1,1.306546807E0,-2.865561247E-1
9.810180660E-1,8.159925938E-1,1.303883672E0,-2.844256163E-1
9.830322260E-1,7.904262543E-1,1.309742689E0,-2.812298238E-1
9.850158690E-1,7.648598552E-1,1.313471079E0,-2.748382390E-1
9.869995110E-1,7.360977530E-1,1.290567875E0,-2.695119083E-1
9.890136710E-1,7.052050829E-1,1.261805773E0,-2.561961114E-1
9.910278320E-1,6.721818447E-1,1.238369942E0,-2.476739883E-1
9.929504390E-1,6.327670813E-1,1.216531992E0,-2.428802997E-1
9.949340820E-1,5.906891227E-1,1.195759296E0,-2.322276533E-1
9.969482420E-1,5.464806557E-1,1.173388839E0,-2.300971150E-1
9.989624020E-1,5.017395616E-1,1.156877160E0,-2.253034264E-1
1.000946044E0,4.655205607E-1,1.150485635E0,-2.226402760E-1
1.002960205E0,4.197141826E-1,1.125984550E0,-2.151834220E-1
1.004943847E0,3.765709996E-1,1.090830803E0,-2.045307755E-1
1.006958007E0,3.360909224E-1,1.048220277E0,-1.858886480E-1
1.008972167E0,2.860234976E-1,1.002946496E0,-1.693770438E-1
1.010955810E0,2.391518652E-1,9.693906307E-1,-1.523328125E-1
1.012969970E0,1.944107562E-1,9.331716895E-1,-1.320927888E-1
1.014984130E0,1.480717659E-1,8.937568665E-1,-1.086569726E-1
1.016998291E0,1.022653878E-1,8.543421030E-1,-8.468852192E-2
1.018981933E0,5.113269389E-2,8.277105093E-1,-6.391586363E-2
1.020996093E0,7.989482954E-3,7.882956862E-1,-4.474110901E-2
1.023040771E0,-4.261057824E-2,7.451524734E-1,-2.130528912E-2
1.024932861E0,-8.788431436E-2,7.036072016E-1,3.195793368E-3
1.026947021E0,-1.347559541E-1,6.562029123E-1,2.343581803E-2
1.028930664E0,-1.821602285E-1,6.114618182E-1,4.687163606E-2
1.030944824E0,-2.284992188E-1,5.645901561E-1,7.030745596E-2
1.032958984E0,-2.689792812E-1,5.193164349E-1,9.267801046E-2
1.034973144E0,-3.131877482E-1,4.889563918E-1,1.038632840E-1
1.036956787E0,-3.547330499E-1,4.522047639E-1,1.225054115E-1
1.038970947E0,-3.930825889E-1,4.149205089E-1,1.379517466E-1
1.040924072E0,-4.335626364E-1,3.861583769E-1,1.560612470E-1
1.042968750E0,-4.692489803E-1,3.675162494E-1,1.661812514E-1
1.044952392E0,-5.054680109E-1,3.568635881E-1,1.720402092E-1
1.046936035E0,-5.411543250E-1,3.382214606E-1,1.826928556E-1
1.048950195E0,-5.747101903E-1,3.238403797E-1,1.960086524E-1
1.050933837E0,-6.141249537E-1,3.121224940E-1,2.087918371E-1
1.052886962E0,-6.540724039E-1,3.094593287E-1,2.130528986E-1
1.054840087E0,-6.876282096E-1,2.988066673E-1,2.183792144E-1
1.056854248E0,-7.291735411E-1,2.849582434E-1,2.295644879E-1
1.058868408E0,-7.669904232E-1,2.679139972E-1,2.386192381E-1
1.060852050E0,-8.048073053E-1,2.503371537E-1,2.460760921E-1
1.062896728E0,-8.468852639E-1,2.279665917E-1,2.460760921E-1
1.064880371E0,-8.905611038E-1,2.077265680E-1,2.460760921E-1
1.066894531E0,-9.326390028E-1,1.837581247E-1,2.354234457E-1
1.068878173E0,-9.800432920E-1,1.581917703E-1,2.237055302E-1
1.070861816E0,-1.023186564E0,1.310275346E-1,2.077265680E-1
1.072875976E0,-1.070590734E0,9.587380290E-2,1.933455020E-1
1.074890136E0,-1.114799261E0,5.699164793E-2,1.672465205E-1
1.076934814E0,-1.180845618E0,-1.331580617E-2,1.310275346E-1
1.078857421E0,-1.204814076E0,-3.675162420E-2,1.171790883E-1
1.080871582E0,-1.251685739E0,-8.681905270E-2,9.267801046E-2
1.082916259E0,-1.319329977E0,-1.725728363E-1,5.219795927E-2
1.084808349E0,-1.341167927E0,-2.002697140E-1,3.888215125E-2
1.086791992E0,-1.383245945E0,-2.631203234E-1,1.491370238E-2
1.088806152E0,-1.418399572E0,-3.291667104E-1,-7.989482954E-3
1.090820312E0,-1.458347082E0,-3.893541694E-1,-2.450108156E-2
1.092803955E0,-1.487641811E0,-4.538026452E-1,-4.367584363E-2
1.094787597E0,-1.510545015E0,-5.102616549E-1,-5.326322466E-2
1.096740722E0,-1.530252337E0,-5.534048676E-1,-5.645901710E-2
1.098754882E0,-1.545698762E0,-5.885586143E-1,-4.953479767E-2
1.100738525E0,-1.555818796E0,-6.146575809E-1,-3.994741663E-2
1.102752685E0,-1.561677694E0,-6.263754964E-1,-2.343581803E-2
1.104736328E0,-1.559547186E0,-6.295713186E-1,-1.597896684E-3
1.106719970E0,-1.553155541E0,-6.162554622E-1,3.568635881E-2
1.108734130E0,-1.545698762E0,-5.944175720E-1,6.977482140E-2
1.110748291E0,-1.531317711E0,-5.645901561E-1,1.102548689E-1
1.112670898E0,-1.505218625E0,-5.273059011E-1,1.507349163E-1
1.114654541E0,-1.474858642E0,-4.783037305E-1,1.842907518E-1
1.116668701E0,-1.443965912E0,-4.133225977E-1,2.210423797E-1
1.118652343E0,-1.408812284E0,-3.451456726E-1,2.503371537E-1
1.120666503E0,-1.372060657E0,-2.583266199E-1,2.764361203E-1
1.122680664E0,-1.331047893E0,-1.848233789E-1,2.945456207E-1
1.124572753E0,-1.289502621E0,-1.001348570E-1,3.078614175E-1
1.126556396E0,-1.246892095E0,-2.130528912E-2,3.105245829E-1
1.128570556E0,-1.206411958E0,5.965480953E-2,3.094593287E-1
1.130584716E0,-1.166464567E0,1.422128081E-1,3.030677438E-1
1.132568359E0,-1.128115058E0,2.253034264E-1,2.897519469E-1
1.134552001E0,-1.091363430E0,2.988066673E-1,2.759034932E-1
1.136566162E0,-1.055677056E0,3.728425503E-1,2.545982003E-1
1.138580322E0,-1.015729666E0,4.415521026E-1,2.364887148E-1
1.140502929E0,-9.816411734E-1,5.102616549E-1,2.162486911E-1
1.142517089E0,-9.406285286E-1,5.715143681E-1,1.869539171E-1
1.144500732E0,-9.054747820E-1,6.364955306E-1,1.629854590E-1
1.146484375E0,-8.713863492E-1,6.908239722E-1,1.384843737E-1
1.148498535E0,-8.293083906E-1,7.366303802E-1,1.097222418E-1
1.150512695E0,-7.936220169E-1,7.771103978E-1,7.936219871E-2
1.152526855E0,-7.563377619E-1,8.096010089E-1,5.006742850E-2
1.154510498E0,-7.158577442E-1,8.303736448E-1,2.396845073E-2
1.156463623E0,-6.860303283E-1,8.367652297E-1,-7.456851192E-3
1.158477783E0,-6.524744630E-1,8.330367804E-1,-3.781688958E-2
1.160461425E0,-6.327670813E-1,8.218515515E-1,-7.137271762E-2
1.162506103E0,-5.997439027E-1,7.813714743E-1,-1.251685768E-1
1.164489746E0,-5.949501991E-1,7.590008974E-1,-1.427454352E-1
1.166473388E0,-5.826996565E-1,7.068029642E-1,-1.821602285E-1
1.168487548E0,-5.709817410E-1,6.508765817E-1,-2.119876295E-1
1.170471191E0,-5.592638254E-1,5.502091050E-1,-2.572613657E-1
1.172424316E0,-5.566006899E-1,5.139901042E-1,-2.716424465E-1
1.174438476E0,-5.539374948E-1,4.394215941E-1,-2.961435318E-1
1.176422119E0,-5.523396134E-1,3.595267534E-1,-3.190467060E-1
1.178436279E0,-5.555354357E-1,2.343581766E-1,-3.451456726E-1
1.180450439E0,-5.550028086E-1,1.533980817E-1,-3.627225459E-1
1.182464599E0,-5.608617067E-1,7.723167539E-2,-3.792341352E-1
1.184417724E0,-5.651227832E-1,0.000000000E0,-3.941478431E-1
1.186431884E0,-5.688512325E-1,-6.817692518E-2,-4.085289240E-1
1.188415527E0,-5.763080716E-1,-1.288969964E-1,-4.181163013E-1
1.190399169E0,-5.784385800E-1,-1.842907518E-1,-4.303668439E-1
1.192413330E0,-5.816344023E-1,-2.338255495E-1,-4.452805519E-1
1.194396972E0,-5.811017752E-1,-2.705771625E-1,-4.575310946E-1
1.196411132E0,-5.821670294E-1,-3.036003709E-1,-4.660531878E-1
1.198394775E0,-5.858954787E-1,-3.265035450E-1,-4.793690145E-1
1.200317382E0,-5.837649107E-1,-3.376888335E-1,-4.830974340E-1
1.202331542E0,-5.795038939E-1,-3.526025414E-1,-4.996090233E-1
1.204315185E0,-5.768406987E-1,-3.520699143E-1,-5.012069345E-1
1.206329345E0,-5.731122494E-1,-3.451456726E-1,-5.081311464E-1
1.208343505E0,-5.683186054E-1,-3.286340833E-1,-5.150553584E-1
1.210327148E0,-5.608617067E-1,-3.083940744E-1,-5.171858668E-1
1.212280273E0,-5.566006899E-1,-2.764361203E-1,-5.187838078E-1
1.214294433E0,-5.534048676E-1,-2.364887148E-1,-5.182511806E-1
1.216278076E0,-5.550028086E-1,-1.874865443E-1,-5.150553584E-1
1.218292236E0,-5.496764779E-1,-1.326254308E-1,-5.107942820E-1
1.220306396E0,-5.480785370E-1,-7.137271762E-2,-5.038700700E-1
1.222320556E0,-5.406216979E-1,-1.065264456E-3,-4.958806038E-1
1.224304199E0,-5.320996046E-1,6.551376730E-2,-4.846953154E-1
1.226287841E0,-5.278385282E-1,1.363538504E-1,-4.713795185E-1
1.228302001E0,-5.203816891E-1,2.082591951E-1,-4.585963488E-1
1.230316162E0,-5.134574771E-1,2.684466541E-1,-4.447479248E-1
1.232299804E0,-5.182511806E-1,3.142530024E-1,-4.319647253E-1
1.234283447E0,-5.310343504E-1,3.446130455E-1,-4.149205089E-1
1.236297607E0,-5.550028086E-1,3.632551730E-1,-3.930825889E-1
1.238311767E0,-5.901564956E-1,3.728425503E-1,-3.755057156E-1
1.240295410E0,-6.380934119E-1,3.824299276E-1,-3.488741219E-1
1.242309570E0,-6.918892860E-1,3.818973005E-1,-3.339604139E-1
1.244201660E0,-7.488809228E-1,3.573962152E-1,-3.217098713E-1
1.246185302E0,-8.032094240E-1,2.849582434E-1,-3.014698327E-1
1.248199462E0,-8.543421030E-1,1.688444167E-1,-2.796319127E-1
1.250213623E0,-9.225190282E-1,2.982740477E-2,-2.631203234E-1
1.252197265E0,-9.933590889E-1,-9.693906456E-2,-2.498045117E-1
1.254180908E0,-1.058872819E0,-2.077265680E-1,-2.199771106E-1
1.256134033E0,-1.121723413E0,-3.296993375E-1,-2.024002522E-1
1.258148193E0,-1.184041500E0,-4.527373910E-1,-1.832254827E-1
1.260131835E0,-1.233576298E0,-5.651227832E-1,-1.720402092E-1
1.262145996E0,-1.272991061E0,-6.647250056E-1,-1.651159972E-1
1.264129638E0,-1.296959519E0,-7.568703890E-1,-1.523328125E-1
1.266113281E0,-1.317732096E0,-8.378304839E-1,-1.422128081E-1
1.268127441E0,-1.319862604E0,-9.139968753E-1,-1.310275346E-1
1.270141601E0,-1.313471079E0,-1.001881242E0,-1.139832959E-1
1.272064209E0,-1.312938452E0,-1.093493938E0,-9.906959534E-2
1.274047851E0,-1.316666842E0,-1.186704636E0,-7.776430249E-2
1.276062011E0,-1.331047893E0,-1.281513095E0,-4.367584363E-2
1.278045654E0,-1.352885842E0,-1.381115317E0,0.000000000E0
1.280059814E0,-1.384311199E0,-1.476456523E0,5.486112088E-2
1.282073974E0,-1.421595454E0,-1.562742949E0,1.145159304E-1
1.283966064E0,-1.461010218E0,-1.641039848E0,1.720402092E-1
1.285949707E0,-1.501490235E0,-1.699629426E0,2.210423797E-1
1.287963867E0,-1.539839745E0,-1.748098969E0,2.583266199E-1
1.289978027E0,-1.578189254E0,-1.771002173E0,2.775014043E-1
1.291992187E0,-1.620267272E0,-1.769936919E0,2.759034932E-1
1.293975830E0,-1.655421019E0,-1.738511562E0,2.556634545E-1
1.295989990E0,-1.686846256E0,-1.686313629E0,2.178465873E-1
1.298004150E0,-1.708684206E0,-1.613343000E0,1.709749401E-1
1.299926757E0,-1.726261020E0,-1.514806032E0,1.118527651E-1
1.301940917E0,-1.744903207E0,-1.386974335E0,4.846953228E-2
1.303924560E0,-1.755555868E0,-1.232510924E0,-6.924218964E-3
1.305938720E0,-1.758751631E0,-1.047687650E0,-4.420847446E-2
1.307922363E0,-1.763012648E0,-8.612663150E-1,-6.018744037E-2
1.309906005E0,-1.760349512E0,-6.823018789E-1,-4.314320907E-2
1.311920166E0,-1.744903207E0,-5.336974859E-1,-1.171790902E-2
1.313934326E0,-1.723597884E0,-4.026699662E-1,4.740426689E-2
1.315856933E0,-1.692705274E0,-2.956108749E-1,1.107875034E-1
1.317840576E0,-1.654888391E0,-2.141181529E-1,1.885518134E-1
1.319854736E0,-1.603222966E0,-1.459412277E-1,2.631203234E-1
1.321868896E0,-1.519067168E0,-9.054747969E-2,3.414172530E-1
1.323852539E0,-1.409877539E0,-3.515372798E-2,4.063983858E-1
1.325836181E0,-1.267664671E0,2.609897964E-2,4.697816372E-1
1.327850341E0,-1.106277108E0,1.006674916E-1,5.198490620E-1
1.329864501E0,-9.198558331E-1,1.826928556E-1,5.624596477E-1
1.331848144E0,-7.291735411E-1,2.684466541E-1,5.976133347E-1
1.333831787E0,-5.528722405E-1,3.483414650E-1,6.301039457E-1
1.335845947E0,-3.930825889E-1,4.170510471E-1,6.524744630E-1
1.337860107E0,-2.412824035E-1,4.660531878E-1,6.748450398E-1
1.339843750E0,-1.097222418E-1,4.964132309E-1,6.988134980E-1
1.341857910E0,5.858954508E-3,5.118595958E-1,7.169229984E-1
1.343750000E0,1.033306494E-1,5.033374429E-1,7.350324988E-1
1.345733642E0,1.816275865E-1,4.873584807E-1,7.600662112E-1
1.347747802E0,2.402171344E-1,4.543353021E-1,7.888283134E-1
1.349731445E0,2.743056118E-1,4.037352204E-1,8.234494328E-1
1.351745605E0,2.940129936E-1,3.419498801E-1,8.607336879E-1
1.353729248E0,3.041329980E-1,2.695119083E-1,9.123989940E-1
1.355651855E0,3.089267015E-1,1.922802329E-1,9.640643597E-1
1.357635498E0,3.105245829E-1,1.070590764E-1,1.031708598E0
1.359649658E0,3.051982522E-1,9.054748341E-3,1.102016091E0
1.361694335E0,2.998719513E-1,-8.202536404E-2,1.157942414E0
1.363647460E0,2.838929892E-1,-1.491370201E-1,1.203216195E0
1.365661621E0,2.647182047E-1,-1.885518134E-1,1.228249907E0
1.367675781E0,2.370213419E-1,-2.061286718E-1,1.241565704E0
1.369659423E0,2.018676102E-1,-2.024002522E-1,1.247957349E0
1.371582031E0,1.629854590E-1,-1.784317940E-1,1.237837315E0
1.373565673E0,1.123853996E-1,-1.278317273E-1,1.216531992E0
1.375579834E0,5.965480953E-2,-5.592638254E-2,1.192563534E0
1.377593994E0,3.728425596E-3,3.302319720E-2,1.160073042E0
1.379577636E0,-5.592638254E-2,1.406149119E-1,1.127582431E0
1.381622314E0,-1.097222418E-1,2.577939928E-1,1.096157074E0
1.383605957E0,-1.699096859E-1,3.882888854E-1,1.068460226E0
1.385620117E0,-2.311623842E-1,5.203816891E-1,1.051416039E0
1.387603759E0,-2.892192900E-1,6.455502510E-1,1.033839107E0
1.389587402E0,-3.499393761E-1,7.648598552E-1,1.003479123E0
1.391601562E0,-4.197141826E-1,8.735168576E-1,9.699232578E-1
1.393615722E0,-4.884237647E-1,9.773801565E-1,9.283779860E-1
1.395599365E0,-5.576659441E-1,1.086037159E0,8.729842305E-1
1.397613525E0,-6.359629035E-1,1.197889924E0,8.143946528E-1
1.399566650E0,-7.158577442E-1,1.321460605E0,7.472830415E-1
1.401611328E0,-8.080030680E-1,1.451955438E0,6.743124127E-1
1.403564453E0,-9.092032313E-1,1.577656627E0,5.960154533E-1
1.405578613E0,-1.018392801E0,1.694835782E0,5.123922229E-1
1.407592773E0,-1.132376075E0,1.796568513E0,4.351605177E-1
1.409606933E0,-1.255946755E0,1.879659176E0,3.579288721E-1
1.411621093E0,-1.382713318E0,1.944107652E0,2.886866629E-1
1.413604736E0,-1.510012388E0,1.990446687E0,2.167813182E-1
1.415557861E0,-1.645300984E0,2.019741297E0,1.544633508E-1
1.417572021E0,-1.782187462E0,2.012817144E0,9.374327213E-2
1.419586181E0,-1.911617041E0,1.953162432E0,3.462109342E-2
1.421600341E0,-2.042111874E0,1.833320141E0,-2.876213938E-2
1.423583984E0,-2.162486792E0,1.658616781E0,-8.894958347E-2
1.425567626E0,-2.266882658E0,1.420530200E0,-1.544633508E-1
1.427581787E0,-2.351038694E0,1.120125532E0,-2.221076339E-1
1.429595947E0,-2.406432390E0,7.542072535E-1,-3.067961633E-1
1.431518554E0,-2.433063984E0,3.424825370E-1,-3.957457542E-1
1.433502197E0,-2.424541950E0,-1.059938148E-1,-4.953479767E-1
1.435516357E0,-2.389388084E0,-5.826996565E-1,-6.061354876E-1
1.437530517E0,-2.328135490E0,-1.053546548E0,-7.254450917E-1
1.439514160E0,-2.241848946E0,-1.501490235E0,-8.484831452E-1
1.441558837E0,-2.144377232E0,-1.902562261E0,-9.672601223E-1
1.443542480E0,-2.030394077E0,-2.249838591E0,-1.079112887E0
1.445556640E0,-1.904692888E0,-2.547580004E0,-1.180845618E0
1.447570800E0,-1.778458953E0,-2.773948669E0,-1.274056315E0
1.449554443E0,-1.654888391E0,-2.932672977E0,-1.348624825E0
1.451568603E0,-1.535578728E0,-3.038666964E0,-1.419464946E0
1.453552246E0,-1.419464946E0,-3.088201761E0,-1.480184913E0
1.455566406E0,-1.311340570E0,-3.092462778E0,-1.530252337E0
1.457550048E0,-1.204281449E0,-3.056243658E0,-1.568069220E0
1.459503173E0,-1.106277108E0,-2.989664793E0,-1.602690339E0
1.461517334E0,-1.018925428E0,-2.904976130E0,-1.623463035E0
1.463500976E0,-9.353021979E-1,-2.795786619E0,-1.635180950E0
1.465484619E0,-8.607336879E-1,-2.682335854E0,-1.637844086E0
1.467498779E0,-7.957525253E-1,-2.555569410E0,-1.629321933E0
1.469512939E0,-7.424893379E-1,-2.428270340E0,-1.623995662E0
1.471496582E0,-7.014766335E-1,-2.299906015E0,-1.606951475E0
1.473510742E0,-6.663229465E-1,-2.164617300E0,-1.581917763E0
1.475463867E0,-6.428871155E-1,-2.034655094E0,-1.554753423E0
1.477416992E0,-6.317018270E-1,-1.906823397E0,-1.518001795E0
1.479431152E0,-6.221144199E-1,-1.785915852E0,-1.467401743E0
1.481475830E0,-6.258428693E-1,-1.678324103E0,-1.410410166E0
1.483428955E0,-6.274407506E-1,-1.573395610E0,-1.352885842E0
1.485443115E0,-6.327670813E-1,-1.472728133E0,-1.295894265E0
1.487457275E0,-6.418218613E-1,-1.383245945E0,-1.236239433E0
1.489440917E0,-6.535397172E-1,-1.293231010E0,-1.181910872E0
1.491363525E0,-6.663229465E-1,-1.200553060E0,-1.124386668E0
1.493347167E0,-6.764429212E-1,-1.108407617E0,-1.066862345E0
1.495361328E0,-6.849650741E-1,-1.007207513E0,-1.007740140E0
1.497375488E0,-6.934871674E-1,-9.049421549E-1,-9.416937828E-1
1.499359130E0,-6.977482438E-1,-8.000136018E-1,-8.820389509E-1
1.501373291E0,-7.020092607E-1,-6.897587180E-1,-8.064051867E-1
1.503295898E0,-7.046724558E-1,-5.757754445E-1,-7.360977530E-1
1.505249023E0,-7.020092607E-1,-4.623247683E-1,-6.615292430E-1
1.507263183E0,-6.972155571E-1,-3.563309610E-1,-5.912217498E-1
1.509277343E0,-6.950850487E-1,-2.412824035E-1,-5.182511806E-1
1.511260986E0,-6.897587180E-1,-1.272991002E-1,-4.532700181E-1
1.513244628E0,-6.870955825E-1,-7.456851192E-3,-3.856257200E-1
1.515258789E0,-6.796387434E-1,1.102548689E-1,-3.233077526E-1
1.517272949E0,-6.737797856E-1,2.231729031E-1,-2.620550692E-1
1.519195556E0,-6.609966159E-1,3.339604139E-1,-2.077265680E-1
1.521209716E0,-6.471481323E-1,4.319647253E-1,-1.512675583E-1
1.523193359E0,-6.375607848E-1,5.235774517E-1,-9.480853379E-2
1.525207519E0,-6.274407506E-1,6.045376062E-1,-4.367584363E-2
1.527191162E0,-6.178534031E-1,6.759102941E-1,4.261057824E-3
1.529174804E0,-6.109291911E-1,7.329019308E-1,4.793690145E-2
1.531127929E0,-6.077333689E-1,7.861651778E-1,8.841694891E-2
1.533111572E0,-6.061354876E-1,8.293083906E-1,1.304948926E-1
1.535125732E0,-6.050702333E-1,8.655273914E-1,1.688444167E-1
1.537109375E0,-6.045376062E-1,8.910937309E-1,1.976065636E-1
1.539123535E0,-6.045376062E-1,9.028116465E-1,2.183792144E-1
1.541168212E0,-6.050702333E-1,8.948221207E-1,2.343581766E-1
1.543121337E0,-6.002765298E-1,8.761799932E-1,2.418150306E-1
1.545135498E0,-5.986786485E-1,8.362326026E-1,2.418150306E-1
1.547149658E0,-5.917543769E-1,7.797735929E-1,2.316950262E-1
1.549133300E0,-5.869607329E-1,7.105314136E-1,2.199771106E-1
1.551147460E0,-5.842975378E-1,6.364955306E-1,1.997370869E-1
1.553131103E0,-5.795038939E-1,5.523396134E-1,1.736381054E-1
1.555145263E0,-5.768406987E-1,4.665858448E-1,1.422128081E-1
1.557128906E0,-5.811017752E-1,3.765709996E-1,1.097222418E-1
1.559143066E0,-5.821670294E-1,2.913498282E-1,7.137271762E-2
1.561157226E0,-5.837649107E-1,2.082591951E-1,3.142530099E-2
1.563049316E0,-5.928196907E-1,1.315601617E-1,-7.989482954E-3
1.565032959E0,-6.029396653E-1,5.645901710E-2,-5.006742850E-2
1.567047119E0,-6.109291911E-1,-1.757686399E-2,-9.161274135E-2
1.569061279E0,-6.258428693E-1,-8.575379103E-2,-1.304948926E-1
1.571044921E0,-6.396912932E-1,-1.565938741E-1,-1.741707325E-1
1.573028564E0,-6.519418359E-1,-2.167813182E-1,-2.119876295E-1
1.574981689E0,-6.657902598E-1,-2.748382390E-1,-2.498045117E-1
1.576965332E0,-6.753776670E-1,-3.318298757E-1,-2.897519469E-1
1.578979492E0,-6.838997602E-1,-3.808320463E-1,-3.238403797E-1
1.580993652E0,-6.956176758E-1,-4.223773479E-1,-3.552657068E-1
1.582977294E0,-7.046724558E-1,-4.612595141E-1,-3.802994192E-1
1.584960937E0,-7.185208797E-1,-4.926848114E-1,-4.032025933E-1
1.586975097E0,-7.318366766E-1,-5.219795704E-1,-4.191815555E-1
1.588989257E0,-7.483482957E-1,-5.464806557E-1,-4.271710515E-1
1.590942382E0,-7.637946010E-1,-5.736449361E-1,-4.404868484E-1
1.592926025E0,-7.813714743E-1,-5.944175720E-1,-4.452805519E-1
1.594940185E0,-8.074704409E-1,-6.135923266E-1,-4.532700181E-1
1.596923828E0,-8.303736448E-1,-6.258428693E-1,-4.527373910E-1
1.598937988E0,-8.554073572E-1,-6.332997084E-1,-4.527373910E-1
1.600952148E0,-8.799084425E-1,-6.306365728E-1,-4.458131790E-1
1.602935791E0,-9.038769007E-1,-6.183860302E-1,-4.356931746E-1
1.604949951E0,-9.278453588E-1,-5.986786485E-1,-4.250405133E-1
1.606933593E0,-9.507485032E-1,-5.672533512E-1,-4.106594622E-1
1.608917236E0,-9.736517072E-1,-5.326322317E-1,-3.952131271E-1
1.610931396E0,-9.896306992E-1,-4.942827225E-1,-3.717772961E-1
1.612945556E0,-1.006674886E0,-4.431500137E-1,-3.552657068E-1
1.614929199E0,-1.018392801E0,-3.978762627E-1,-3.243730366E-1
1.616912841E0,-1.029578090E0,-3.494067490E-1,-2.961435318E-1
1.618835449E0,-1.034371734E0,-3.030677438E-1,-2.695119083E-1
1.620849609E0,-1.037567616E0,-2.631203234E-1,-2.386192381E-1
1.622833251E0,-1.040763378E0,-2.199771106E-1,-2.055960447E-1
1.624816894E0,-1.036502361E0,-1.842907518E-1,-1.741707325E-1
1.626831054E0,-1.033306479E0,-1.523328125E-1,-1.454086006E-1
1.628845214E0,-1.026914954E0,-1.272991002E-1,-1.203748807E-1
1.630859375E0,-1.014131784E0,-1.102548689E-1,-9.534116834E-2
1.632843017E0,-1.005077004E0,-9.427590668E-2,-7.084008306E-2
1.634796142E0,-9.981527925E-1,-7.989483327E-2,-5.273059011E-2
1.636810302E0,-9.885654449E-1,-7.030745596E-2,-3.515372798E-2
1.638824462E0,-9.747169614E-1,-6.924218684E-2,-2.130528912E-2
1.640838623E0,-9.656622410E-1,-6.604639441E-2,-8.522115648E-3
1.642822265E0,-9.576727748E-1,-6.870955974E-2,-3.728425596E-3
1.644805908E0,-9.454222322E-1,-6.817692518E-2,7.456851192E-3
1.646820068E0,-9.400959015E-1,-6.764429063E-2,1.065264456E-2
1.648834228E0,-9.353021979E-1,-6.711166352E-2,1.438106969E-2
1.650787353E0,-9.289106131E-1,-7.190535218E-2,1.171790902E-2
1.652770996E0,-9.251821637E-1,-7.190535218E-2,1.278317347E-2
1.654785156E0,-9.246495366E-1,-7.616640627E-2,1.012001187E-2
1.656799316E0,-9.257147908E-1,-7.510114461E-2,1.065264456E-3
1.658782959E0,-9.305084944E-1,-7.456851006E-2,-3.728425596E-3
1.660797119E0,-9.347695708E-1,-7.456851006E-2,-8.522115648E-3
1.662689209E0,-9.438242912E-1,-7.137271762E-2,-1.384843793E-2
1.664672851E0,-9.566074610E-1,-7.243798673E-2,-1.491370238E-2
1.666687011E0,-9.677927494E-1,-7.297061384E-2,-1.810949668E-2
1.668670654E0,-9.853696227E-1,-7.243798673E-2,-2.077265643E-2
1.670684814E0,-1.000283360E0,-7.084008306E-2,-2.396845073E-2
1.672698974E0,-1.017860174E0,-7.776430249E-2,-2.183792181E-2
1.674713134E0,-1.034904361E0,-7.989483327E-2,-2.450108156E-2
1.676696777E0,-1.056742311E0,-8.522115648E-2,-2.876213938E-2
1.678649902E0,-1.072188616E0,-9.321063757E-2,-3.036003746E-2
1.680664062E0,-1.097222447E0,-1.075917110E-1,-3.675162420E-2
1.682647705E0,-1.113734007E0,-1.209075153E-1,-3.781688958E-2
1.684661865E0,-1.135039330E0,-1.358212233E-1,-4.048004746E-2
1.686645507E0,-1.152083516E0,-1.629854590E-1,-4.420847446E-2
1.688629150E0,-1.169127703E0,-1.933455020E-1,-4.953479767E-2
1.690551757E0,-1.183508754E0,-2.263686955E-1,-5.060006306E-2
1.692535400E0,-1.198422551E0,-2.657834888E-1,-5.273059011E-2
1.694549560E0,-1.206944585E0,-3.062635362E-1,-5.379585549E-2
1.696533203E0,-1.217597246E0,-3.515372574E-1,-5.326322466E-2
1.698547363E0,-1.226119399E0,-3.994741738E-1,-5.432848632E-2
1.700561523E0,-1.231445670E0,-4.468784332E-1,-5.379585549E-2
1.702545166E0,-1.236772060E0,-4.985437691E-1,-4.793690145E-2
1.704528808E0,-1.232510924E0,-5.523396134E-1,-4.207794741E-2
1.706542968E0,-1.234108925E0,-6.061354876E-1,-3.781688958E-2
1.708557128E0,-1.227717280E0,-6.578007936E-1,-3.142530099E-2
1.710571289E0,-1.221858382E0,-7.084008455E-1,-1.970739290E-2
1.712554931E0,-1.211738348E0,-7.552725077E-1,-9.054748341E-3
1.714569091E0,-1.194694042E0,-8.010788560E-1,2.663161140E-3
1.716552734E0,-1.175519347E0,-8.351673484E-1,1.118527725E-2
1.718566894E0,-1.156344533E0,-8.713863492E-1,2.609897964E-2
1.720581054E0,-1.131310821E0,-9.060074091E-1,4.314320907E-2
1.722534179E0,-1.098820329E0,-9.326390028E-1,5.858954415E-2
1.724517822E0,-1.061003447E0,-9.491506219E-1,7.776430249E-2
1.726531982E0,-1.018925428E0,-9.651296139E-1,9.587380290E-2
1.728515625E0,-9.693906307E-1,-9.741843343E-1,1.171790883E-1
1.730529785E0,-9.161274433E-1,-9.843043685E-1,1.368864775E-1
1.732513427E0,-8.527442217E-1,-9.827064872E-1,1.576591432E-1
1.734466552E0,-7.850999236E-1,-9.773801565E-1,1.763012707E-1
1.736450195E0,-7.163903713E-1,-9.683253765E-1,1.954760253E-1
1.738464355E0,-6.391586661E-1,-9.566074610E-1,2.135855258E-1
1.740478515E0,-5.619270205E-1,-9.464874864E-1,2.332929224E-1
1.742462158E0,-4.799016416E-1,-9.289106131E-1,2.466087192E-1
1.744445800E0,-4.032025933E-1,-9.171926975E-1,2.561961114E-1
1.746459960E0,-3.201119602E-1,-9.022790194E-1,2.636529505E-1
1.748474121E0,-2.412824035E-1,-8.969526887E-1,2.657834888E-1
1.750396728E0,-1.672465205E-1,-8.873652816E-1,2.663161159E-1
1.752380371E0,-9.960222989E-2,-8.900284767E-1,2.652508616E-1
1.754394531E0,-3.675162420E-2,-8.942894936E-1,2.556634545E-1
1.756378173E0,1.864212751E-2,-9.012137055E-1,2.476739883E-1
1.758392334E0,6.604639441E-2,-9.070726633E-1,2.279665917E-1
1.760406494E0,1.054611802E-1,-9.209211469E-1,2.103897333E-1
1.762390136E0,1.374191195E-1,-9.262474179E-1,1.912149638E-1
1.764404296E0,1.571265012E-1,-9.390306473E-1,1.699096859E-1
1.766387939E0,1.747033745E-1,-9.470201135E-1,1.432780623E-1
1.768371582E0,1.885518134E-1,-9.582054019E-1,1.209075153E-1
1.770385742E0,1.944107562E-1,-9.720538259E-1,9.534116834E-2
1.772399902E0,1.970739216E-1,-9.779127836E-1,7.456851006E-2
1.774383544E0,1.949433982E-1,-9.816411734E-1,5.273059011E-2
1.776367187E0,1.912149638E-1,-9.880327582E-1,3.249056637E-2
1.778320312E0,1.885518134E-1,-9.880327582E-1,1.384843793E-2
1.780364990E0,1.794970632E-1,-9.821738005E-1,-1.597896684E-3
1.782318115E0,1.763012707E-1,-9.757822156E-1,-2.024002373E-2
1.784332275E0,1.720402092E-1,-9.619337916E-1,-3.728425503E-2
1.786346435E0,1.640507281E-1,-9.459548593E-1,-5.113269389E-2
1.788330078E0,1.608549356E-1,-9.225190282E-1,-5.965480953E-2
1.790344238E0,1.555286050E-1,-8.974853158E-1,-7.297061384E-2
1.792358398E0,1.560612470E-1,-8.633968234E-1,-7.616640627E-2
1.794311523E0,1.528654546E-1,-8.356999755E-1,-8.309062570E-2
1.796264648E0,1.496696621E-1,-8.048073053E-1,-8.628641814E-2
1.798278808E0,1.454086006E-1,-7.691209316E-1,-9.054747969E-2
1.800323486E0,1.443433315E-1,-7.387608886E-1,-8.522115648E-2
1.802307128E0,1.406149119E-1,-7.089334726E-1,-8.202536404E-2
1.804290771E0,1.384843737E-1,-6.801713705E-1,-7.669904083E-2
1.806304931E0,1.342233270E-1,-6.551376581E-1,-6.870955974E-2
1.808288574E0,1.283643693E-1,-6.295713186E-1,-5.965480953E-2
1.810211181E0,1.241033077E-1,-6.087986231E-1,-5.326322466E-2
1.812194824E0,1.241033077E-1,-5.933523178E-1,-4.207794741E-2
1.814208984E0,1.203748807E-1,-5.699164867E-1,-3.036003746E-2
1.816223144E0,1.182443574E-1,-5.475459099E-1,-1.864212751E-2
1.818237304E0,1.193096191E-1,-5.219795704E-1,-3.728425596E-3
1.820251464E0,1.241033077E-1,-4.841626883E-1,7.456851192E-3
1.822174072E0,1.331580579E-1,-4.372910559E-1,2.343581803E-2
1.824157714E0,1.475391239E-1,-3.893541694E-1,4.420847446E-2
1.826171875E0,1.603222936E-1,-3.270362020E-1,6.338323653E-2
1.828155517E0,1.826928556E-1,-2.631203234E-1,7.350324839E-2
1.830169677E0,2.114549875E-1,-1.960086524E-1,8.681905270E-2
1.832153320E0,2.327602804E-1,-1.416801661E-1,9.747169912E-2
1.834167480E0,2.663161159E-1,-8.362326026E-2,9.853696078E-2
1.836151123E0,3.020024598E-1,-2.237055451E-2,9.161274135E-2
1.838073730E0,3.371562064E-1,2.450108156E-2,8.149272949E-2
1.840087890E0,3.728425503E-1,9.001484513E-2,6.711166352E-2
1.842071533E0,4.095941782E-1,1.464738697E-1,4.580637068E-2
1.844085693E0,4.468784332E-1,2.018676102E-1,2.876213938E-2
1.846099853E0,4.804342687E-1,2.572613657E-1,6.924218964E-3
1.848083496E0,5.187838078E-1,3.046656251E-1,-8.522115648E-3
1.850036621E0,5.475459099E-1,3.627225459E-1,-2.876213938E-2
1.852050781E0,5.789712071E-1,4.149205089E-1,-5.379585549E-2
1.854034423E0,6.130596995E-1,4.585963488E-1,-7.936219871E-2
1.856048584E0,6.514092088E-1,4.948153496E-1,-1.107875034E-1
1.858062744E0,6.892260909E-1,5.278385282E-1,-1.358212233E-1
1.860076904E0,7.323693037E-1,5.539374948E-1,-1.571265012E-1
1.862060546E0,7.829693556E-1,5.731122494E-1,-1.736381054E-1
1.864044189E0,8.378304839E-1,5.954828262E-1,-1.869539171E-1
1.866058349E0,8.985505700E-1,6.215817928E-1,-1.938781291E-1
1.868072509E0,9.539443254E-1,6.460828781E-1,-1.997370869E-1
1.870056152E0,1.015729666E0,6.684534550E-1,-2.055960447E-1
1.872039794E0,1.078047633E0,6.950850487E-1,-1.986718178E-1
1.874084472E0,1.130778193E0,7.227819562E-1,-1.944107562E-1
1.876037597E0,1.187769890E0,7.526093125E-1,-1.965412945E-1
1.878021240E0,1.240500450E0,7.792409658E-1,-1.912149638E-1
1.880065917E0,1.287372112E0,8.122641444E-1,-1.890844405E-1
1.881988525E0,1.338504791E0,8.378304839E-1,-1.890844405E-1
1.884002685E0,1.385376453E0,8.532768488E-1,-1.805623323E-1
1.885986328E0,1.432780743E0,8.692557812E-1,-1.725728363E-1
1.887969970E0,1.476456523E0,8.847021461E-1,-1.656486243E-1
1.889984130E0,1.520665050E0,8.953547478E-1,-1.523328125E-1
1.891998291E0,1.564340830E0,9.038769007E-1,-1.326254308E-1
1.893981933E0,1.609614611E0,9.070726633E-1,-1.155811921E-1
1.895965576E0,1.663410425E0,9.092032313E-1,-9.534116834E-2
1.897918701E0,1.709749460E0,9.118663669E-1,-6.817692518E-2
1.899932861E0,1.760882139E0,9.097358584E-1,-4.367584363E-2
1.901916503E0,1.813612700E0,9.038769007E-1,-1.438106969E-2
1.903930664E0,1.870071769E0,8.958874345E-1,1.438106969E-2
1.905914306E0,1.922802329E0,8.857674003E-1,3.621899337E-2
1.907897949E0,1.980326653E0,8.697884083E-1,6.551376730E-2
1.909851074E0,2.040513992E0,8.522115946E-1,9.747169912E-2
1.911834716E0,2.101766825E0,8.309062719E-1,1.278317273E-1
1.913848876E0,2.166747808E0,8.096010089E-1,1.565938741E-1
1.915863037E0,2.235990047E0,7.872304320E-1,1.832254827E-1
1.917877197E0,2.306297541E0,7.584682703E-1,2.103897333E-1
1.919891357E0,2.383529186E0,7.291735411E-1,2.300971150E-1
1.921875000E0,2.459695578E0,7.020092607E-1,2.540655732E-1
1.923858642E0,2.546514750E0,6.817692518E-1,2.769687474E-1
1.925872802E0,2.635996819E0,6.588660479E-1,2.977414131E-1
1.927856445E0,2.726544380E0,6.412891746E-1,3.137203753E-1
1.929870605E0,2.818157196E0,6.332997084E-1,3.382214606E-1
1.931854248E0,2.907639265E0,6.274407506E-1,3.627225459E-1
1.933868408E0,2.991262674E0,6.348975897E-1,3.882888854E-1
1.935852050E0,3.065298557E0,6.498113275E-1,4.122573435E-1
1.937866210E0,3.127083778E0,6.796387434E-1,4.474110603E-1
1.939880371E0,3.175553322E0,7.078682184E-1,4.814995229E-1
1.941772460E0,3.209109068E0,7.376956344E-1,5.187838078E-1
1.943756103E0,3.224022865E0,7.605988383E-1,5.597964525E-1
1.945770263E0,3.229349136E0,7.765777707E-1,6.077333689E-1
1.947753906E0,3.211772442E0,7.787083387E-1,6.530070901E-1
1.949768066E0,3.188336611E0,7.558051348E-1,7.073355913E-1
1.951751709E0,3.152117491E0,7.062703371E-1,7.536746264E-1
1.953704834E0,3.104713202E0,6.237123609E-1,8.053399324E-1
1.955718994E0,3.054645777E0,5.134574771E-1,8.474178910E-1
1.957733154E0,2.996056318E0,3.818973005E-1,8.894958496E-1
1.959747314E0,2.928411961E0,2.343581766E-1,9.177253246E-1
1.961730957E0,2.854376078E0,8.149272949E-2,9.438242912E-1
1.963714599E0,2.781938076E0,-7.030745596E-2,9.587380290E-1
1.965728759E0,2.702575922E0,-2.221076339E-1,9.592706561E-1
1.967712402E0,2.623746395E0,-3.531351686E-1,9.571400881E-1
1.969665527E0,2.546514750E0,-4.783037305E-1,9.448895454E-1
1.971679687E0,2.469815731E0,-5.837649107E-1,9.273127317E-1
1.973693847E0,2.396845102E0,-6.663229465E-1,9.028116465E-1
1.975677490E0,2.333461761E0,-7.270429730E-1,8.708537221E-1
1.977691650E0,2.276470184E0,-7.819041014E-1,8.367652297E-1
1.979705810E0,2.223206997E0,-8.245146871E-1,7.957525253E-1
1.981597900E0,2.180596352E0,-8.532768488E-1,7.590008974E-1
1.983612060E0,2.148105860E0,-8.644620776E-1,7.201187611E-1
1.985595703E0,2.125202656E0,-8.676578999E-1,6.812366247E-1
1.987579345E0,2.105495214E0,-8.612663150E-1,6.455502510E-1
1.989593505E0,2.095907927E0,-8.468852639E-1,6.082659960E-1
1.991607666E0,2.093244553E0,-8.223841786E-1,5.693838596E-1
1.993591308E0,2.096973181E0,-7.765777707E-1,5.331648588E-1
1.995574951E0,2.105495214E0,-7.190535069E-1,4.916195571E-1
1.997528076E0,2.115615129E0,-6.562029123E-1,4.548679292E-1
1.999542236E0,2.128398418E0,-5.715143681E-1,4.186489284E-1
2.001525878E0,2.145975351E0,-4.862932265E-1,3.723099232E-1
2.003509521E0,2.163552046E0,-3.984089196E-1,3.296993375E-1
2.005523681E0,2.180063725E0,-3.185140789E-1,2.806971967E-1
2.007537841E0,2.199238539E0,-2.609897852E-1,2.311623842E-1
2.009521484E0,2.213086843E0,-2.210423797E-1,1.794970632E-1
2.011505126E0,2.222141743E0,-1.960086524E-1,1.246359423E-1
2.013427734E0,2.225870132E0,-1.976065636E-1,6.231797114E-2
2.015411376E0,2.223206997E0,-2.114549875E-1,5.326322280E-3
2.017425537E0,2.218413115E0,-2.631203234E-1,-5.805691332E-2
2.019470214E0,2.206695318E0,-3.403519988E-1,-1.134506613E-1
2.021453857E0,2.189651012E0,-4.127899706E-1,-1.645833552E-1
2.023437500E0,2.169411182E0,-4.836300611E-1,-2.178465873E-1
2.025451660E0,2.145975351E0,-5.624596477E-1,-2.609897852E-1
2.027465820E0,2.118278265E0,-6.503439546E-1,-3.004045784E-1
2.029449462E0,2.084722519E0,-7.451524734E-1,-3.360909224E-1
2.031433105E0,2.049036264E0,-8.330367804E-1,-3.579288721E-1
2.033447265E0,2.011219263E0,-9.145295620E-1,-3.797667921E-1
2.035430908E0,1.976598144E0,-9.869675040E-1,-3.994741738E-1
2.037445068E0,1.947303414E0,-1.028512836E0,-4.111920893E-1
2.039459228E0,1.914812803E0,-1.049818158E0,-4.197141826E-1
2.041351318E0,1.886583328E0,-1.049285531E0,-4.287689328E-1
2.043334960E0,1.862082243E0,-1.036502361E0,-4.324973822E-1
2.045349121E0,1.838646412E0,-1.012001276E0,-4.356931746E-1
2.047363281E0,1.818939090E0,-9.773801565E-1,-4.378236830E-1
2.049346923E0,1.800829530E0,-9.257147908E-1,-4.458131790E-1
2.051330566E0,1.790176868E0,-8.538094759E-1,-4.548679292E-1
2.053283691E0,1.780056953E0,-7.632619739E-1,-4.687163532E-1
2.055297851E0,1.773665309E0,-6.460828781E-1,-4.820321798E-1
2.057281494E0,1.767806411E0,-4.916195571E-1,-5.054680109E-1
2.059295654E0,1.772600055E0,-3.265035450E-1,-5.235774517E-1
2.061279296E0,1.778991699E0,-1.677791476E-1,-5.395564437E-1
2.063262939E0,1.791774869E0,-1.917476021E-2,-5.470132828E-1
2.065277099E0,1.807753801E0,1.145159304E-1,-5.512743592E-1
2.067291259E0,1.828526497E0,2.391518652E-1,-5.448827744E-1
2.069213867E0,1.854092836E0,3.531351686E-1,-5.326322317E-1
2.071197509E0,1.880724430E0,4.596616030E-1,-5.118595958E-1
2.073211669E0,1.910551786E0,5.672533512E-1,-4.926848114E-1
2.075225830E0,1.937183380E0,6.657902598E-1,-4.703142643E-1
2.077209472E0,1.967010856E0,7.611314654E-1,-4.415521026E-1
2.079223632E0,1.989381313E0,8.490157723E-1,-4.170510471E-1
2.081207275E0,2.008023500E0,9.363674521E-1,-3.941478431E-1
2.083221435E0,2.025067806E0,1.008272767E0,-3.669835925E-1
2.085205078E0,2.042111874E0,1.076449752E0,-3.494067490E-1
2.087188720E0,2.056493044E0,1.124386668E0,-3.296993375E-1
2.089202880E0,2.063949823E0,1.161138296E0,-3.105245829E-1
2.091217041E0,2.075135231E0,1.184574127E0,-2.908172011E-1
2.093200683E0,2.074602604E0,1.204814076E0,-2.748382390E-1
2.095184326E0,2.068210840E0,1.221858382E0,-2.625876963E-1
2.097137451E0,2.058090925E0,1.233576298E0,-2.498045117E-1
2.099151611E0,2.045307636E0,1.241033077E0,-2.338255495E-1
2.101135253E0,2.026133060E0,1.229847789E0,-2.205097377E-1
2.103149414E0,2.002164602E0,1.212270975E0,-2.013349831E-1
2.105133056E0,1.971804500E0,1.192030907E0,-1.869539171E-1
2.107116699E0,1.941444516E0,1.178715110E0,-1.699096859E-1
2.109130859E0,1.906290770E0,1.162203550E0,-1.523328125E-1
2.111145019E0,1.865278006E0,1.149420381E0,-1.331580579E-1
2.113067626E0,1.825330615E0,1.126517177E0,-1.161138266E-1
2.115051269E0,1.779524326E0,1.098820329E0,-9.747169912E-2
2.117065429E0,1.736381054E0,1.078580260E0,-7.936219871E-2
2.119079589E0,1.692705274E0,1.058872819E0,-6.604639441E-2
2.121063232E0,1.644768357E0,1.047154903E0,-5.432848632E-2
2.123046875E0,1.596298814E0,1.019990683E0,-4.846953228E-2
2.125061035E0,1.548894525E0,9.960222840E-1,-4.367584363E-2
2.127075195E0,1.501490235E0,9.677927494E-1,-3.515372798E-2
2.128997802E0,1.453020692E0,9.528790712E-1,-2.716424316E-2
2.130981445E0,1.412540674E0,9.608685374E-1,-2.237055451E-2
2.132995605E0,1.374191165E0,9.683253765E-1,-1.384843793E-2
2.134979248E0,1.334776402E0,9.667274952E-1,-1.225054078E-2
2.136993408E0,1.296959519E0,9.598032832E-1,-1.331580617E-2
2.139038085E0,1.257544637E0,9.534116983E-1,-1.331580617E-2
2.140930175E0,1.224521518E0,9.523464441E-1,-1.384843793E-2
2.142944335E0,1.190965652E0,9.587380290E-1,-2.077265643E-2
2.144927978E0,1.154214025E0,9.598032832E-1,-2.982740477E-2
2.146911621E0,1.123321414E0,9.651296139E-1,-3.675162420E-2
2.148925781E0,1.096689701E0,9.645969868E-1,-3.568635881E-2
2.150939941E0,1.065797091E0,9.661948681E-1,-3.089267015E-2
2.152923584E0,1.037567616E0,9.566074610E-1,-2.929477207E-2
2.154907226E0,1.012533903E0,9.502158761E-1,-2.130528912E-2
2.156829834E0,9.906959534E-1,9.358348250E-1,-1.544633508E-2
2.158843994E0,9.635316730E-1,9.374327064E-1,-7.456851192E-3
2.160827636E0,9.475527406E-1,9.486179948E-1,-5.858954508E-3
2.162841796E0,9.326390028E-1,9.363674521E-1,-1.597896684E-3
2.164825439E0,9.118663669E-1,9.161274433E-1,2.130528912E-3
2.166809082E0,8.884305358E-1,8.964200616E-1,7.989482954E-3
2.168762207E0,8.660600185E-1,8.783105612E-1,1.012001187E-2
2.170745849E0,8.484831452E-1,8.756473660E-1,1.278317347E-2
2.172760009E0,8.309062719E-1,8.788431883E-1,2.396845073E-2
2.174743652E0,8.143946528E-1,8.820389509E-1,3.089267015E-2
2.176757812E0,8.000136018E-1,8.910937309E-1,4.474110901E-2
2.178771972E0,7.872304320E-1,9.028116465E-1,5.060006306E-2
2.180755615E0,7.691209316E-1,9.118663669E-1,6.285060197E-2
2.182769775E0,7.504788041E-1,9.209211469E-1,7.137271762E-2
2.184753417E0,7.307714224E-1,9.294432402E-1,8.202536404E-2
2.186737060E0,7.078682184E-1,9.395632744E-1,8.788431436E-2
2.188751220E0,6.833671331E-1,9.363674521E-1,8.841694891E-2
2.190765380E0,6.620618701E-1,9.321063757E-1,8.522115648E-2
2.192749023E0,6.364955306E-1,9.315737486E-1,8.575379103E-2
2.194732666E0,6.066681147E-1,9.235842824E-1,7.776430249E-2
2.196746826E0,5.725796223E-1,9.209211469E-1,7.723167539E-2
2.198791503E0,5.209143162E-1,8.964200616E-1,6.338323653E-2
2.200683593E0,5.086637735E-1,8.793758154E-1,5.326322466E-2
2.202667236E0,4.708468914E-1,8.527442217E-1,4.474110901E-2
2.204681396E0,4.335626364E-1,8.223841786E-1,3.089267015E-2
2.206665039E0,3.904194236E-1,7.861651778E-1,2.343581803E-2
2.208679199E0,3.515372574E-1,7.499461770E-1,1.704423130E-2
2.210662841E0,3.115898669E-1,7.105314136E-1,3.195793368E-3
2.212585449E0,2.705771625E-1,6.711165905E-1,-3.728425596E-3
2.214569091E0,2.253034264E-1,6.279733777E-1,-9.587380104E-3
2.216583251E0,1.821602285E-1,5.763080716E-1,-1.544633508E-2
2.218597412E0,1.368864775E-1,5.326322317E-1,-2.130528912E-2
2.220581054E0,9.534116834E-2,4.814995229E-1,-2.822950855E-2
2.222595214E0,4.793690145E-2,4.340952635E-1,-3.408846259E-2
2.224578857E0,2.130528912E-3,3.802994192E-1,-4.314320907E-2
2.226562500E0,-4.474110901E-2,3.275688291E-1,-4.900216311E-2
2.228485107E0,-9.267801046E-2,2.796319127E-1,-5.326322466E-2
2.230468750E0,-1.374191195E-1,2.279665917E-1,-6.072007492E-2
2.232482910E0,-1.810949594E-1,1.826928556E-1,-6.072007492E-2
2.234497070E0,-2.253034264E-1,1.374191195E-1,-6.551376730E-2
2.236480712E0,-2.732403278E-1,9.161274135E-2,-6.551376730E-2
2.238494873E0,-3.217098713E-1,5.432848632E-2,-6.551376730E-2
2.240386962E0,-3.680488765E-1,1.438106969E-2,-6.764429063E-2
2.242370605E0,-4.143878818E-1,-2.609897964E-2,-6.657902896E-2
2.244384765E0,-4.633900523E-1,-6.231797114E-2,-6.444849819E-2
2.246398925E0,-5.145227313E-1,-9.374327213E-2,-7.084008306E-2
2.248382568E0,-5.597964525E-1,-1.267664731E-1,-7.084008306E-2
2.250396728E0,-6.119944453E-1,-1.576591432E-1,-7.137271762E-2
2.252410888E0,-6.620618701E-1,-1.917476058E-1,-6.817692518E-2
2.254425048E0,-7.094660997E-1,-2.295644879E-1,-6.924218684E-2
2.256347656E0,-7.590008974E-1,-2.609897852E-1,-6.604639441E-2
2.258361816E0,-8.042746782E-1,-2.870887816E-1,-6.231797114E-2
2.260345459E0,-8.516789079E-1,-3.131877482E-1,-7.030745596E-2
2.262329101E0,-9.012137055E-1,-3.398193717E-1,-7.616640627E-2
2.264343261E0,-9.507485032E-1,-3.627225459E-1,-8.468852192E-2
2.266326904E0,-1.001881242E0,-3.877562582E-1,-9.214537591E-2
2.268280029E0,-1.050350785E0,-4.090615511E-1,-1.043959185E-1
2.270233154E0,-1.095091820E0,-4.287689328E-1,-1.139832959E-1
2.272277832E0,-1.144626617E0,-4.484763443E-1,-1.214401498E-1
2.274230957E0,-1.187237263E0,-4.649879336E-1,-1.272991002E-1
2.276245117E0,-1.231445670E0,-4.830974340E-1,-1.358212233E-1
2.278259277E0,-1.275654197E0,-5.049353242E-1,-1.454086006E-1
2.280242919E0,-1.319329977E0,-5.283711553E-1,-1.528654546E-1
2.282226562E0,-1.357146859E0,-5.475459099E-1,-1.587243974E-1
2.284240722E0,-1.396561742E0,-5.624596477E-1,-1.592570394E-1
2.286224365E0,-1.427986979E0,-5.885586143E-1,-1.667138934E-1
2.288238525E0,-1.454618573E0,-6.130596995E-1,-1.667138934E-1
2.290222167E0,-1.474326015E0,-6.375607848E-1,-1.656486243E-1
2.292205810E0,-1.489239693E0,-6.588660479E-1,-1.624528319E-1
2.294219970E0,-1.493500710E0,-6.743124127E-1,-1.549959779E-1
2.296234130E0,-1.497761846E0,-6.881608367E-1,-1.470064968E-1
2.298278808E0,-1.490304947E0,-6.993461251E-1,-1.342233270E-1
2.300201416E0,-1.483380795E0,-7.057377100E-1,-1.187769845E-1
2.302185058E0,-1.468466997E0,-7.073355913E-1,-9.960222989E-2
2.304199218E0,-1.446096539E0,-7.137271762E-1,-8.362326026E-2
2.306213378E0,-1.422128081E0,-7.147924304E-1,-6.551376730E-2
2.308227539E0,-1.389104843E0,-7.206513882E-1,-5.006742850E-2
2.310211181E0,-1.352885842E0,-7.233145833E-1,-3.408846259E-2
2.312164306E0,-1.314536333E0,-7.233145833E-1,-2.237055451E-2
2.314178466E0,-1.275121570E0,-7.169229984E-1,-1.065264456E-2
2.316192626E0,-1.233576298E0,-7.115966678E-1,-3.728425596E-3
2.318206787E0,-1.173921466E0,-6.881608367E-1,3.728425596E-3
2.320190429E0,-1.156344533E0,-6.748450398E-1,1.012001187E-2
2.322174072E0,-1.120125532E0,-6.551376581E-1,1.065264456E-2
2.324188232E0,-1.086037159E0,-6.231797338E-1,1.331580617E-2
2.326202392E0,-1.036502361E0,-5.629922748E-1,7.989482954E-3
2.328125000E0,-1.024251819E0,-5.416869521E-1,3.195793368E-3
2.330108642E0,-9.986854196E-1,-4.767058492E-1,5.326322280E-3
2.332122802E0,-9.731190801E-1,-4.026699662E-1,5.858954508E-3
2.334136962E0,-9.416937828E-1,-3.185140789E-1,5.326322280E-4
2.336120605E0,-9.054747820E-1,-1.693770438E-1,-2.663161140E-3
2.338134765E0,-8.756473660E-1,-6.711166352E-2,-7.456851192E-3
2.340118408E0,-8.468852639E-1,4.953479767E-2,-9.054748341E-3
2.342102050E0,-8.165252209E-1,1.683117896E-1,-1.118527725E-2
2.344116210E0,-7.824367285E-1,2.908172011E-1,-1.544633508E-2
2.346130371E0,-7.520766854E-1,4.101268053E-1,-1.917476021E-2
2.348144531E0,-7.185208797E-1,5.219795704E-1,-2.716424316E-2
2.350128173E0,-6.886934638E-1,6.290386319E-1,-3.728425503E-2
2.352142334E0,-6.593986750E-1,7.270429730E-1,-4.527373984E-2
2.354156494E0,-6.301039457E-1,8.234494328E-1,-5.752427876E-2
2.356170654E0,-6.061354876E-1,9.278453588E-1,-6.604639441E-2
2.358184814E0,-5.784385800E-1,1.021055937E0,-7.882957160E-2
2.360107421E0,-5.560680628E-1,1.080710769E0,-9.800432622E-2
2.362121582E0,-5.273059011E-1,1.132376075E0,-1.177117229E-1
2.364105224E0,-5.017395616E-1,1.163801432E0,-1.390170157E-1
2.366119384E0,-4.772384763E-1,1.193628788E0,-1.672465205E-1
2.368133544E0,-4.495415986E-1,1.213336229E0,-1.906823367E-1
2.370147705E0,-4.282363057E-1,1.215466738E0,-2.189118415E-1
2.372100830E0,-4.042678475E-1,1.213868856E0,-2.391518652E-1
2.374114990E0,-3.840278387E-1,1.206411958E0,-2.572613657E-1
2.376098632E0,-3.632551730E-1,1.197357297E0,-2.657834888E-1
2.378112792E0,-3.456783295E-1,1.175519347E0,-2.711097896E-1
2.380096435E0,-3.286340833E-1,1.130778193E0,-2.737729549E-1
2.382080078E0,-3.174487948E-1,1.070058107E0,-2.668487430E-1
2.384094238E0,-3.051982522E-1,9.944243431E-1,-2.599245310E-1
2.386108398E0,-2.993393242E-1,9.086706042E-1,-2.450108230E-1
2.388031005E0,-2.993393242E-1,8.143946528E-1,-2.290318608E-1
2.390014648E0,-2.993393242E-1,7.163903713E-1,-2.093244642E-1
2.392028808E0,-3.025351167E-1,6.135923266E-1,-1.965412945E-1
2.394012451E0,-3.078614175E-1,5.097290277E-1,-1.816275865E-1
2.396026611E0,-3.121224940E-1,4.117247164E-1,-1.677791476E-1
2.398040771E0,-3.142530024E-1,3.185140789E-1,-1.613875628E-1
2.400024414E0,-3.217098713E-1,2.311623842E-1,-1.587243974E-1
2.402038574E0,-3.222424984E-1,1.491370201E-1,-1.619201899E-1
2.404022216E0,-3.265035450E-1,8.042746782E-2,-1.619201899E-1
2.406005859E0,-3.302319944E-1,9.054748341E-3,-1.688444167E-1
2.408020019E0,-3.344930410E-1,-4.314320907E-2,-1.757686287E-1
2.410034179E0,-3.392867148E-1,-9.374327213E-2,-1.837581247E-1
2.412017822E0,-3.520699143E-1,-1.379517466E-1,-1.970739216E-1
2.414001464E0,-3.542004228E-1,-1.677791476E-1,-2.093244642E-1
2.415954589E0,-3.637878001E-1,-1.885518134E-1,-2.237055302E-1
2.417999267E0,-3.728425503E-1,-2.018676102E-1,-2.412824035E-1
2.419952392E0,-3.824299276E-1,-2.013349831E-1,-2.530003190E-1
2.421966552E0,-3.914846778E-1,-1.901497096E-1,-2.689792812E-1
2.423950195E0,-4.021373391E-1,-1.677791476E-1,-2.812298238E-1
2.425964355E0,-4.069310129E-1,-1.363538504E-1,-2.950782478E-1
2.427978515E0,-4.154531360E-1,-1.049285457E-1,-3.057309091E-1
2.429992675E0,-4.314320982E-1,-7.084008306E-2,-3.115898669E-1
2.431915283E0,-4.511395097E-1,-4.527373984E-2,-3.110572100E-1
2.433898925E0,-4.884237647E-1,-2.130528912E-2,-3.025351167E-1
2.435913085E0,-5.326322317E-1,-5.326322280E-3,-2.886866629E-1
2.437957763E0,-5.890912414E-1,1.012001187E-2,-2.684466541E-1
2.439910888E0,-6.487460732E-1,2.556634694E-2,-2.434129268E-1
2.441894531E0,-7.158577442E-1,3.781688958E-2,-2.300971150E-1
2.443908691E0,-7.803062201E-1,2.237055451E-2,-2.210423797E-1
2.445922851E0,-8.383631110E-1,-1.278317347E-2,-2.221076339E-1
2.447845459E0,-8.905611038E-1,-9.214537591E-2,-2.284992188E-1
2.449829101E0,-9.480853677E-1,-1.555286050E-1,-2.258360684E-1
2.451843261E0,-9.938917160E-1,-2.141181529E-1,-2.215750068E-1
2.453857421E0,-1.016794920E0,-2.993393242E-1,-2.269013226E-1
2.455841064E0,-1.035969734E0,-4.016047120E-1,-2.412824035E-1
2.457855224E0,-1.047687650E0,-5.049353242E-1,-2.588592768E-1
2.459747314E0,-1.054079175E0,-5.970807076E-1,-2.748382390E-1
2.461761474E0,-1.055677056E0,-6.689860821E-1,-2.892192900E-1
2.463775634E0,-1.050350785E0,-7.185208797E-1,-2.972087860E-1
2.465759277E0,-1.038632870E0,-7.728493810E-1,-3.094593287E-1
2.467773437E0,-1.020523310E0,-8.207862377E-1,-3.083940744E-1
2.469757080E0,-1.004011750E0,-8.660600185E-1,-3.067961633E-1
2.471771240E0,-9.848369956E-1,-9.097358584E-1,-3.020024598E-1
2.473754882E0,-9.667274952E-1,-9.550095797E-1,-2.886866629E-1
2.475708007E0,-9.624664187E-1,-1.013066530E0,-2.700445354E-1
2.477752685E0,-9.635316730E-1,-1.084439158E0,-2.439455539E-1
2.479736328E0,-9.789780378E-1,-1.163801432E0,-2.098570913E-1
2.481719970E0,-1.008272767E0,-1.227184653E0,-1.731054783E-1
2.483734130E0,-1.055144429E0,-1.255946755E0,-1.257012039E-1
2.485717773E0,-1.106809735E0,-1.270327806E0,-7.456851006E-2
2.487670898E0,-1.168062449E0,-1.290567875E0,-4.101268202E-2
2.489654541E0,-1.230913043E0,-1.315601587E0,-2.183792181E-2
2.491668701E0,-1.290035248E0,-1.338504791E0,-1.597896591E-2
2.493682861E0,-1.350755334E0,-1.355016351E0,-2.556634694E-2
2.495697021E0,-1.406149030E0,-1.354483724E0,-4.953479767E-2
2.497711181E0,-1.457281828E0,-1.341700554E0,-7.669904083E-2
2.499694824E0,-1.501490235E0,-1.310807943E0,-1.171790883E-1
2.501708984E0,-1.538241863E0,-1.257012010E0,-1.581917703E-1
2.503723144E0,-1.569134593E0,-1.178715110E0,-1.826928556E-1
2.505706787E0,-1.592570305E0,-1.096689701E0,-1.954760253E-1
2.507720947E0,-1.609081984E0,-1.024251819E0,-1.896170676E-1
2.509735107E0,-1.623463035E0,-9.614011645E-1,-1.709749401E-1
2.511749267E0,-1.634115696E0,-9.102684855E-1,-1.422128081E-1
2.513732910E0,-1.637311459E0,-8.665926456E-1,-9.747169912E-2
2.515747070E0,-1.635180950E0,-8.282431364E-1,-4.793690145E-2
2.517791748E0,-1.636246204E0,-7.978830934E-1,0.000000000E0
2.519683837E0,-1.623463035E0,-7.680556774E-1,5.273059011E-2
2.521667480E0,-1.608016729E0,-7.456851006E-1,1.054611802E-1
2.523681640E0,-1.569667220E0,-7.254450917E-1,1.640507281E-1
2.525695800E0,-1.518534541E0,-7.094660997E-1,2.205097377E-1
2.527679443E0,-1.446629167E0,-6.929545403E-1,2.790992856E-1
2.529693603E0,-1.362473249E0,-6.684534550E-1,3.366235793E-1
2.531707763E0,-1.263936281E0,-6.535397172E-1,3.962783813E-1
2.533721923E0,-1.162203550E0,-6.322344542E-1,4.500742257E-1
2.535644531E0,-1.061536074E0,-6.125270724E-1,5.044026971E-1
2.537658691E0,-9.571400881E-1,-6.008091569E-1,5.555354357E-1
2.539642334E0,-8.644620776E-1,-5.912217498E-1,6.066681147E-1
2.541625976E0,-7.728493810E-1,-5.965480804E-1,6.540724039E-1
2.543640136E0,-6.934871674E-1,-6.130596995E-1,7.004113793E-1
2.545654296E0,-6.221144199E-1,-6.450176239E-1,7.494135499E-1
2.547576904E0,-5.581985712E-1,-6.823018789E-1,7.984157205E-1
2.549560546E0,-5.102616549E-1,-7.302387953E-1,8.452873230E-1
2.551574707E0,-4.767058492E-1,-7.829693556E-1,8.900284767E-1
2.553558349E0,-4.569984376E-1,-8.415589333E-1,9.315737486E-1
2.555572509E0,-4.516721368E-1,-8.990831971E-1,9.720538259E-1
2.557586669E0,-4.527373910E-1,-9.491506219E-1,1.006142259E0
2.559570312E0,-4.687163532E-1,-9.917612076E-1,1.038632870E0
2.561553955E0,-4.921521842E-1,-1.008805394E0,1.067394972E0
2.563568115E0,-5.166532397E-1,-1.019990683E0,1.092428684E0
2.565551757E0,-5.486112237E-1,-1.012001276E0,1.119060278E0
2.567565917E0,-5.779059529E-1,-9.869675040E-1,1.139832973E0
2.569549560E0,-6.066681147E-1,-9.384979606E-1,1.171258211E0
2.571563720E0,-6.402239203E-1,-8.735168576E-1,1.197357297E0
2.573547363E0,-6.663229465E-1,-7.877630591E-1,1.226119399E0
2.575469970E0,-6.945524216E-1,-6.807039976E-1,1.247424722E0
2.577484130E0,-7.243798375E-1,-5.624596477E-1,1.267132044E0
2.579467773E0,-7.510114312E-1,-4.426173866E-1,1.290567875E0
2.581481933E0,-7.776430249E-1,-3.312972486E-1,1.321460605E0
2.583465576E0,-7.994809747E-1,-2.274339646E-1,1.337439537E0
2.585449218E0,-8.234494328E-1,-1.203748807E-1,1.350222707E0
2.587463378E0,-8.522115946E-1,-3.195793368E-3,1.355548978E0
2.589477539E0,-8.793758154E-1,1.235706806E-1,1.350222707E0
2.591400146E0,-9.070726633E-1,2.476739883E-1,1.349157453E0
2.593383789E0,-9.331716895E-1,3.739078343E-1,1.344896317E0
2.595397949E0,-9.672601223E-1,4.985437691E-1,1.340635300E0
2.597412109E0,-1.006674886E0,6.130596995E-1,1.329982638E0
2.599395751E0,-1.053546548E0,7.281082273E-1,1.311340570E0
2.601379394E0,-1.107342362E0,8.436894417E-1,1.293763638E0
2.603393554E0,-1.159007788E0,9.592706561E-1,1.257012010E0
2.605407714E0,-1.211738348E0,1.078047633E0,1.212270975E0
2.607360839E0,-1.269262552E0,1.200553060E0,1.161138296E0
2.609344482E0,-1.326786876E0,1.327319503E0,1.104146600E0
2.611358642E0,-1.393365860E0,1.456749201E0,1.035437107E0
2.613342285E0,-1.458879709E0,1.580852509E0,9.656622410E-1
2.615356445E0,-1.530784965E0,1.690574646E0,8.958874345E-1
2.617401123E0,-1.608016729E0,1.785915852E0,8.303736448E-1
2.619293212E0,-1.688976765E0,1.853560209E0,7.755125165E-1
2.621307373E0,-1.773132682E0,1.879126549E0,7.270429730E-1
2.623291015E0,-1.871137023E0,1.854625463E0,6.759102941E-1
2.625274658E0,-1.957956076E0,1.777926326E0,6.338323355E-1
2.627288818E0,-2.052764654E0,1.637311459E0,5.933523178E-1
2.629302978E0,-2.141181469E0,1.421595454E0,5.406216979E-1
2.631286621E0,-2.220543861E0,1.128115058E0,4.836300611E-1
2.633270263E0,-2.284992218E0,7.510114312E-1,4.069310129E-1
2.635223388E0,-2.326004982E0,3.110572100E-1,3.131877482E-1
2.637237548E0,-2.347310305E0,-1.816275865E-1,2.050634027E-1
2.639221191E0,-2.346777678E0,-7.009440064E-1,7.723167539E-2
2.641204834E0,-2.316417456E0,-1.213868856E0,-6.817692518E-2
2.643218994E0,-2.267415285E0,-1.698564172E0,-2.210423797E-1
2.645233154E0,-2.197640657E0,-2.147573233E0,-3.771036267E-1
2.647186279E0,-2.103897333E0,-2.545982122E0,-5.384911895E-1
2.649169921E0,-2.006425619E0,-2.883670807E0,-6.897587180E-1
2.651184082E0,-1.905758142E0,-3.144660711E0,-8.287757635E-1
2.653167724E0,-1.812547445E0,-3.330016613E0,-9.507485032E-1
2.655181884E0,-1.725195765E0,-3.451456785E0,-1.056742311E0
2.657196044E0,-1.636246204E0,-3.504719973E0,-1.148355126E0
2.659179687E0,-1.553155541E0,-3.500458956E0,-1.226119399E0
2.661163330E0,-1.470064998E0,-3.445597887E0,-1.294828892E0
2.663177490E0,-1.392300606E0,-3.343865156E0,-1.352353215E0
2.665191650E0,-1.316134214E0,-3.200054407E0,-1.396029115E0
2.667205810E0,-1.245294094E0,-3.031209946E0,-1.433845997E0
2.669189453E0,-1.185639381E0,-2.849582434E0,-1.456749201E0
2.671234130E0,-1.127582431E0,-2.661563158E0,-1.466869116E0
2.673187255E0,-1.074319243E0,-2.482066154E0,-1.468999743E0
2.675201416E0,-1.023719192E0,-2.314286947E0,-1.459412336E0
2.677215576E0,-9.752495885E-1,-2.162486792E0,-1.444498658E0
2.679168701E0,-9.321063757E-1,-2.021872044E0,-1.426389098E0
2.681152343E0,-8.921589851E-1,-1.895638108E0,-1.398159623E0
2.683166503E0,-8.575378656E-1,-1.774197936E0,-1.363538504E0
2.685150146E0,-8.202536106E-1,-1.662877798E0,-1.325721622E0
2.687164306E0,-7.909588814E-1,-1.568069220E0,-1.286306858E0
2.689178466E0,-7.632619739E-1,-1.476456523E0,-1.239435196E0
2.691192626E0,-7.403587699E-1,-1.402953267E0,-1.192030907E0
2.693176269E0,-7.174556255E-1,-1.331580520E0,-1.144093990E0
2.695129394E0,-6.966829300E-1,-1.267132044E0,-1.092428684E0
2.697143554E0,-6.838997602E-1,-1.209075212E0,-1.041296005E0
2.699127197E0,-6.689860821E-1,-1.147289872E0,-9.875001311E-1
2.701110839E0,-6.599313021E-1,-1.094559193E0,-9.321063757E-1
2.703125000E0,-6.551376581E-1,-1.038632870E0,-8.793758154E-1
2.705108642E0,-6.514092088E-1,-9.800432920E-1,-8.175904751E-1
2.707061767E0,-6.503439546E-1,-9.166600704E-1,-7.574030161E-1
2.709045410E0,-6.519418359E-1,-8.490157723E-1,-6.977482438E-1
2.711059570E0,-6.551376581E-1,-7.659251690E-1,-6.317018270E-1
2.713073730E0,-6.588660479E-1,-6.886934638E-1,-5.661880374E-1
2.715087890E0,-6.620618701E-1,-5.986786485E-1,-5.012069345E-1
2.717102050E0,-6.615292430E-1,-5.038700700E-1,-4.378236830E-1
2.719085693E0,-6.620618701E-1,-3.994741738E-1,-3.760383427E-1
2.721069335E0,-6.562029123E-1,-2.950782478E-1,-3.115898669E-1
2.723083496E0,-6.471481323E-1,-1.885518134E-1,-2.455434501E-1
2.725097656E0,-6.338323355E-1,-8.468852192E-2,-1.880191714E-1
2.727081298E0,-6.173207760E-1,1.651159860E-2,-1.278317273E-1
2.729064941E0,-5.970807076E-1,1.006674916E-1,-8.042746782E-2
2.731079101E0,-5.736449361E-1,1.789644361E-1,-3.408846259E-2
2.733093261E0,-5.539374948E-1,2.386192381E-1,5.858954508E-3
2.735076904E0,-5.315669775E-1,2.929477394E-1,4.474110901E-2
2.737091064E0,-5.145227313E-1,3.334277868E-1,8.042746782E-2
2.739013671E0,-4.996090233E-1,3.579288721E-1,1.091896072E-1
2.740997314E0,-4.884237647E-1,3.749730885E-1,1.342233270E-1
2.742980957E0,-4.793690145E-1,3.840278387E-1,1.518001854E-1
2.744995117E0,-4.799016416E-1,3.877562582E-1,1.661812514E-1
2.747009277E0,-4.783037305E-1,3.893541694E-1,1.858886480E-1
2.749023437E0,-4.820321798E-1,3.829625845E-1,1.981391907E-1
2.750946044E0,-4.862932265E-1,3.584614992E-1,2.050634027E-1
2.752929687E0,-4.900216460E-1,3.307646215E-1,2.045307755E-1
2.754943847E0,-4.958806038E-1,2.876214087E-1,2.034655064E-1
2.756958007E0,-5.044026971E-1,2.359560728E-1,1.901497096E-1
2.758941650E0,-5.155879855E-1,1.832254827E-1,1.794970632E-1
2.760925292E0,-5.251753926E-1,1.283643693E-1,1.597896665E-1
2.762939453E0,-5.384911895E-1,6.977482140E-2,1.395496428E-1
2.764953613E0,-5.550028086E-1,1.544633508E-2,1.118527651E-1
2.766876220E0,-5.677859783E-1,-4.048004746E-2,8.309062570E-2
2.768859863E0,-5.922870636E-1,-9.321063757E-2,5.273059011E-2
2.770874023E0,-6.141249537E-1,-1.448759735E-1,1.917476021E-2
2.772857666E0,-6.375607848E-1,-1.912149638E-1,-1.171790902E-2
2.774871826E0,-6.636597514E-1,-2.380866110E-1,-4.953479767E-2
2.776885986E0,-6.902913451E-1,-2.844256163E-1,-8.149272949E-2
2.778869628E0,-7.163903713E-1,-3.382214606E-1,-1.097222418E-1
2.780853271E0,-7.446198463E-1,-4.037352204E-1,-1.422128081E-1
2.782867431E0,-7.664577961E-1,-4.713795185E-1,-1.720402092E-1
2.784851074E0,-7.962851524E-1,-5.411543250E-1,-1.970739216E-1
2.786865234E0,-8.207862377E-1,-6.119944453E-1,-2.226402760E-1
2.788848876E0,-8.442220688E-1,-6.737797856E-1,-2.476739883E-1
2.790863037E0,-8.644620776E-1,-7.302387953E-1,-2.721750736E-1
2.792846679E0,-8.831042051E-1,-7.819041014E-1,-2.902845740E-1
2.794799804E0,-9.028116465E-1,-8.202536106E-1,-3.078614175E-1
2.796844482E0,-9.235842824E-1,-8.570052385E-1,-3.185140789E-1
2.798797607E0,-9.379653335E-1,-8.894958496E-1,-3.302319944E-1
2.800811767E0,-9.560748339E-1,-9.092032313E-1,-3.387540877E-1
2.802825927E0,-9.683253765E-1,-9.209211469E-1,-3.414172530E-1
2.804809570E0,-9.869675040E-1,-9.278453588E-1,-3.462109566E-1
2.806823730E0,-9.944243431E-1,-9.262474179E-1,-3.526025414E-1
2.808807373E0,-1.005077004E0,-9.150621891E-1,-3.595267534E-1
2.810760498E0,-1.009338021E0,-8.996158242E-1,-3.595267534E-1
2.812774658E0,-1.013599157E0,-8.820389509E-1,-3.627225459E-1
2.814758300E0,-1.017327547E0,-8.596684337E-1,-3.573962152E-1
2.816802978E0,-1.017860174E0,-8.394283652E-1,-3.499393761E-1
2.818786621E0,-1.014131784E0,-8.090683818E-1,-3.398193717E-1
2.820800781E0,-1.010936022E0,-7.856325507E-1,-3.291667104E-1
2.822784423E0,-1.004011750E0,-7.526093125E-1,-3.094593287E-1
2.824768066E0,-9.976201653E-1,-7.238472104E-1,-2.924150825E-1
2.826721191E0,-9.848369956E-1,-6.902913451E-1,-2.737729549E-1
2.828735351E0,-9.752495885E-1,-6.578007936E-1,-2.487392575E-1
2.830718994E0,-9.651296139E-1,-6.215817928E-1,-2.311623842E-1
2.832702636E0,-9.534116983E-1,-5.832322836E-1,-2.029328793E-1
2.834716796E0,-9.390306473E-1,-5.400890708E-1,-1.763012707E-1
2.836730957E0,-9.283779860E-1,-5.028048158E-1,-1.502022892E-1
2.838684082E0,-9.177253246E-1,-4.676510990E-1,-1.267664731E-1
2.840698242E0,-9.097358584E-1,-4.282363057E-1,-1.012001261E-1
2.842681884E0,-9.006810784E-1,-3.930825889E-1,-7.297061384E-2
2.844665527E0,-8.953547478E-1,-3.632551730E-1,-4.900216311E-2
2.846679687E0,-8.910937309E-1,-3.355582952E-1,-2.822950855E-2
2.848663330E0,-8.873652816E-1,-3.126551211E-1,-2.663161140E-3
2.850677490E0,-8.884305358E-1,-2.934803665E-1,1.810949668E-2
2.852661132E0,-8.873652816E-1,-2.785666585E-1,4.048004746E-2
2.854614257E0,-8.921589851E-1,-2.695119083E-1,5.965480953E-2
2.856597900E0,-8.958874345E-1,-2.593919039E-1,7.936219871E-2
2.858581542E0,-8.996158242E-1,-2.572613657E-1,9.267801046E-2
2.860565185E0,-9.033442736E-1,-2.540655732E-1,1.070590764E-1
2.862579345E0,-9.092032313E-1,-2.514024079E-1,1.267664731E-1
2.864593505E0,-9.177253246E-1,-2.535329461E-1,1.358212233E-1
2.866516113E0,-9.278453588E-1,-2.535329461E-1,1.459412277E-1
2.868499755E0,-9.390306473E-1,-2.556634545E-1,1.597896665E-1
2.870513916E0,-9.480853677E-1,-2.620550692E-1,1.667138934E-1
2.872528076E0,-9.598032832E-1,-2.727077007E-1,1.763012707E-1
2.874511718E0,-9.699232578E-1,-2.838929892E-1,1.842907518E-1
2.876525878E0,-9.779127836E-1,-2.966761589E-1,1.901497096E-1
2.878509521E0,-9.848369956E-1,-3.121224940E-1,1.901497096E-1
2.880523681E0,-9.928264618E-1,-3.291667104E-1,1.933455020E-1
2.882507324E0,-1.000815988E0,-3.456783295E-1,1.944107562E-1
2.884490966E0,-1.002946496E0,-3.621899188E-1,1.949433982E-1
2.886505126E0,-1.011468649E0,-3.802994192E-1,1.986718178E-1
2.888519287E0,-1.014664412E0,-3.978762627E-1,1.992044598E-1
2.890502929E0,-1.017860174E0,-4.127899706E-1,2.002697140E-1
2.892486572E0,-1.018392801E0,-4.319647253E-1,1.981391907E-1
2.894500732E0,-1.015729666E0,-4.452805519E-1,1.992044598E-1
2.896545410E0,-1.016794920E0,-4.575310946E-1,1.981391907E-1
2.898437500E0,-1.011468649E0,-4.681837261E-1,2.018676102E-1
2.900421142E0,-1.009338021E0,-4.740426838E-1,2.018676102E-1
2.902435302E0,-1.001881242E0,-4.825648069E-1,2.050634027E-1
2.904418945E0,-9.954896569E-1,-4.857605994E-1,2.045307755E-1
2.906433105E0,-9.896306992E-1,-4.894890189E-1,2.114549875E-1
2.908416748E0,-9.779127836E-1,-4.905542731E-1,2.151834220E-1
2.910369873E0,-9.709885716E-1,-4.894890189E-1,2.178465873E-1
2.912353515E0,-9.603359103E-1,-4.873584807E-1,2.205097377E-1
2.914367675E0,-9.491506219E-1,-4.830974340E-1,2.253034264E-1
2.916381835E0,-9.384979606E-1,-4.825648069E-1,2.269013226E-1
2.918365478E0,-9.278453588E-1,-4.836300611E-1,2.295644879E-1
2.920379638E0,-9.145295620E-1,-4.900216460E-1,2.300971150E-1
2.922363281E0,-9.060074091E-1,-4.958806038E-1,2.300971150E-1
2.924346923E0,-8.980179429E-1,-5.033374429E-1,2.327602804E-1
2.926300048E0,-8.889631629E-1,-5.161206126E-1,2.322276533E-1
2.928283691E0,-8.847021461E-1,-5.278385282E-1,2.316950262E-1
2.930297851E0,-8.793758154E-1,-5.422195792E-1,2.274339646E-1
2.932281494E0,-8.820389509E-1,-5.624596477E-1,2.237055302E-1
2.934295654E0,-8.783105612E-1,-5.848301649E-1,2.151834220E-1
2.936309814E0,-8.799084425E-1,-6.093312502E-1,2.093244642E-1
2.938293457E0,-8.799084425E-1,-6.364955306E-1,2.029328793E-1
2.940277099E0,-8.767126203E-1,-6.684534550E-1,1.949433982E-1
2.942291259E0,-8.799084425E-1,-7.030745149E-1,1.874865443E-1
2.944274902E0,-8.735168576E-1,-7.355651259E-1,1.816275865E-1
2.946289062E0,-8.697884083E-1,-7.712514400E-1,1.752360016E-1
2.948272705E0,-8.617989421E-1,-8.026767969E-1,1.725728363E-1
2.950286865E0,-8.527442217E-1,-8.378304839E-1,1.608549356E-1
2.952270507E0,-8.362326026E-1,-8.745821118E-1,1.571265012E-1
2.954223632E0,-8.154599667E-1,-9.017463326E-1,1.486043930E-1
2.956207275E0,-7.973504663E-1,-9.326390028E-1,1.480717659E-1
2.958190917E0,-7.712514400E-1,-9.592706561E-1,1.395496428E-1
2.960174560E0,-7.398261428E-1,-9.763149023E-1,1.379517466E-1
2.962188720E0,-7.078682184E-1,-9.928264618E-1,1.358212233E-1
2.964172363E0,-6.705839634E-1,-1.001348615E0,1.288969964E-1
2.966186523E0,-6.301039457E-1,-1.005077004E0,1.251685768E-1
2.968200683E0,-5.890912414E-1,-9.986854196E-1,1.203748807E-1
2.970123291E0,-5.395564437E-1,-9.917612076E-1,1.129180342E-1
2.972106933E0,-4.910869002E-1,-9.731190801E-1,1.075917110E-1
2.974121093E0,-4.426173866E-1,-9.587380290E-1,9.853696078E-2
2.976135253E0,-3.920173049E-1,-9.358348250E-1,8.894958347E-2
2.978118896E0,-3.398193717E-1,-9.209211469E-1,7.882957160E-2
2.980102539E0,-2.892192900E-1,-8.996158242E-1,6.817692518E-2
2.982116699E0,-2.402171344E-1,-8.772453070E-1,5.805691332E-2
2.984100341E0,-1.944107562E-1,-8.633968234E-1,4.261057824E-2
2.986053466E0,-1.544633508E-1,-8.436894417E-1,2.929477207E-2
2.988067626E0,-1.134506613E-1,-8.261125684E-1,1.757686399E-2
2.990081787E0,-7.403588295E-2,-8.096010089E-1,1.065264456E-3
2.992065429E0,-4.527373984E-2,-7.888283134E-1,-1.225054078E-2
2.994079589E0,-1.491370238E-2,-7.669904232E-1,-1.757686399E-2
2.996124267E0,2.769687586E-2,-7.329019308E-1,-3.568635881E-2
2.998016357E0,3.994741663E-2,-7.190535069E-1,-3.888215125E-2
3.000000000E0,6.817692518E-2,-6.956176758E-1,-4.900216311E-2
3.002014160E0,9.001484513E-2,-6.764429212E-1,-5.326322466E-2
3.004028320E0,1.139832959E-1,-6.514092088E-1,-5.965480953E-2
3.006011962E0,1.336906850E-1,-6.279733777E-1,-5.805691332E-2
3.007995605E0,1.533980817E-1,-5.986786485E-1,-6.391586363E-2
3.010009765E0,1.672465205E-1,-5.699164867E-1,-6.285060197E-2
3.011993408E0,1.874865443E-1,-5.336974859E-1,-6.125270575E-2
3.013946533E0,2.002697140E-1,-4.980111420E-1,-5.486112088E-2
3.015991210E0,2.103897333E-1,-4.649879336E-1,-5.432848632E-2
3.017944335E0,2.183792144E-1,-4.229099751E-1,-5.219795927E-2
3.019958496E0,2.205097377E-1,-3.920173049E-1,-4.101268202E-2
3.021942138E0,2.183792144E-1,-3.632551730E-1,-3.142530099E-2
3.023925781E0,2.141181529E-1,-3.355582952E-1,-1.810949668E-2
3.025878906E0,2.039981484E-1,-3.163835406E-1,-2.130528912E-3
3.027893066E0,1.917476058E-1,-2.977414131E-1,9.587380104E-3
3.029876709E0,1.858886480E-1,-2.785666585E-1,2.343581803E-2
3.031860351E0,1.725728363E-1,-2.652508616E-1,3.834952042E-2
3.033874511E0,1.715075821E-1,-2.508697808E-1,5.326322466E-2
3.035888671E0,1.747033745E-1,-2.327602804E-1,6.870955974E-2
3.037872314E0,1.837581247E-1,-1.986718178E-1,8.894958347E-2
3.039855957E0,2.087918371E-1,-1.496696621E-1,1.139832959E-1
3.041870117E0,2.402171344E-1,-9.534116834E-2,1.390170157E-1
3.043884277E0,2.886866629E-1,-1.810949668E-2,1.768338978E-1
3.045867919E0,3.771036267E-1,1.145159304E-1,2.269013226E-1
3.047851562E0,4.117247164E-1,1.587243974E-1,2.444781959E-1
3.049865722E0,5.326322317E-1,2.860234976E-1,2.966761589E-1
3.051879882E0,6.151902080E-1,3.701793849E-1,3.233077526E-1
3.053863525E0,7.046724558E-1,4.527373910E-1,3.392867148E-1
3.055877685E0,7.893609405E-1,5.273059011E-1,3.494067490E-1
3.057800292E0,8.325041533E-1,5.512743592E-1,3.478088379E-1
3.059783935E0,9.076052904E-1,6.205165386E-1,3.371562064E-1
3.061798095E0,9.848369956E-1,6.817692518E-1,3.201119602E-1
3.063781738E0,1.080178142E0,7.600662112E-1,2.806971967E-1
3.065795898E0,1.139300346E0,8.138620257E-1,2.508697808E-1
3.067779541E0,1.188835144E0,8.522115946E-1,2.173139453E-1
3.069763183E0,1.218662500E0,8.639294505E-1,2.018676102E-1
3.071685791E0,1.264468908E0,9.113337398E-1,1.592570394E-1
3.073699951E0,1.316134214E0,9.496832490E-1,1.182443574E-1
3.075714111E0,1.367799520E0,9.795106649E-1,8.735168725E-2
3.077697753E0,1.426389098E0,1.000815988E0,5.432848632E-2
3.079681396E0,1.488707066E0,1.020523310E0,3.781688958E-2
3.081695556E0,1.553155541E0,1.031708598E0,2.556634694E-2
3.083679199E0,1.627724051E0,1.051948667E0,1.917476021E-2
3.085632324E0,1.712412596E0,1.094559193E0,1.864212751E-2
3.087615966E0,1.802960038E0,1.130778193E0,1.757686399E-2
3.089630126E0,1.894040227E0,1.162203550E0,1.864212751E-2
3.091644287E0,1.988316059E0,1.197357297E0,2.290318534E-2
3.093658447E0,2.084189892E0,1.237304688E0,2.396845073E-2
3.095672607E0,2.222674370E0,1.285774231E0,2.716424316E-2
3.097656250E0,2.307362795E0,1.313471079E0,3.036003746E-2
3.099639892E0,2.394714594E0,1.349157453E0,3.036003746E-2
3.101654052E0,2.473011494E0,1.390702724E0,2.503371425E-2
3.103668212E0,2.545982122E0,1.418399572E0,1.491370238E-2
3.105651855E0,2.614691496E0,1.434378624E0,1.065264456E-3
3.107635498E0,2.673813820E0,1.445563912E0,-9.054748341E-3
3.109649658E0,2.740925550E0,1.450890183E0,-2.450108156E-2
3.111663818E0,2.802178144E0,1.447161794E0,-4.793690145E-2
3.113586425E0,2.862365484E0,1.431715488E0,-7.084008306E-2
3.115600585E0,2.912432909E0,1.404018521E0,-1.043959185E-1
3.117584228E0,2.957174063E0,1.366734266E0,-1.379517466E-1
3.119598388E0,3.005110979E0,1.317199469E0,-1.699096859E-1
3.121582031E0,3.038666964E0,1.278317332E0,-2.018676102E-1
3.123565673E0,3.075418472E0,1.226652026E0,-2.263686955E-1
3.125579834E0,3.112170219E0,1.172323585E0,-2.434129268E-1
3.127593994E0,3.144660711E0,1.117995024E0,-2.487392575E-1
3.129516601E0,3.184075356E0,1.068992853E0,-2.450108230E-1
3.131500244E0,3.220294476E0,1.012533903E0,-2.391518652E-1
3.133514404E0,3.258643866E0,9.672601223E-1,-2.205097377E-1
3.135559082E0,3.292199850E0,9.283779860E-1,-1.960086524E-1
3.137512207E0,3.322559834E0,8.916263580E-1,-1.688444167E-1
3.139526367E0,3.339071512E0,8.564726114E-1,-1.352885813E-1
3.141510009E0,3.342799902E0,8.213189244E-1,-1.033306494E-1
3.143493652E0,3.339604139E0,7.765777707E-1,-6.977482140E-2
3.145446777E0,3.314570427E0,7.334345579E-1,-4.101268202E-2
3.147430419E0,3.276220798E0,6.769755483E-1,-9.587380104E-3
3.149444580E0,3.222957611E0,6.141249537E-1,1.810949668E-2
3.151428222E0,3.165966034E0,5.331648588E-1,5.006742850E-2
3.153442382E0,3.096723795E0,4.314320982E-1,7.563377917E-2
3.155456542E0,3.027481556E0,3.137203753E-1,1.017327532E-1
3.157379150E0,2.949717283E0,1.906823367E-1,1.246359423E-1
3.159393310E0,2.877279282E0,6.125270575E-2,1.411475390E-1
3.161376953E0,2.797917128E0,-5.113269389E-2,1.507349163E-1
3.163391113E0,2.723348618E0,-1.395496428E-1,1.645833552E-1
3.165405273E0,2.653573751E0,-2.114549875E-1,1.661812514E-1
3.167419433E0,2.592321157E0,-2.583266199E-1,1.656486243E-1
3.169433593E0,2.533731461E0,-2.950782478E-1,1.597896665E-1
3.171417236E0,2.485794544E0,-3.147856593E-1,1.502022892E-1
3.173370361E0,2.444782019E0,-3.270362020E-1,1.272991002E-1
3.175384521E0,2.411758661E0,-3.243730366E-1,1.022653878E-1
3.177368164E0,2.385127068E0,-3.121224940E-1,7.243798673E-2
3.179382324E0,2.361691236E0,-3.004045784E-1,3.036003746E-2
3.181396484E0,2.342516422E0,-2.796319127E-1,-1.810949668E-2
3.183380126E0,2.329200745E0,-2.775014043E-1,-7.137271762E-2
3.185333251E0,2.316417456E0,-2.838929892E-1,-1.246359423E-1
3.187347412E0,2.303634405E0,-2.918824553E-1,-1.773665249E-1
3.189331054E0,2.288187981E0,-3.099919558E-1,-2.300971150E-1
3.191345214E0,2.277002811E0,-3.440804183E-1,-2.775014043E-1
3.193359375E0,2.267947912E0,-3.941478431E-1,-3.217098713E-1
3.195404052E0,2.255164862E0,-4.458131790E-1,-3.542004228E-1
3.197387695E0,2.240251064E0,-5.075985193E-1,-3.818973005E-1
3.199371337E0,2.223206997E0,-5.661880374E-1,-4.058657587E-1
3.201385498E0,2.207227945E0,-6.189186573E-1,-4.218447208E-1
3.203369140E0,2.190183640E0,-6.652576327E-1,-4.282363057E-1
3.205383300E0,2.176867962E0,-7.094660997E-1,-4.346278906E-1
3.207366943E0,2.165682554E0,-7.440872192E-1,-4.266384244E-1
3.209381103E0,2.162486792E0,-7.728493810E-1,-4.095941782E-1
3.211395263E0,2.172074318E0,-7.941546440E-1,-3.946804702E-1
3.213409423E0,2.182726860E0,-8.005462289E-1,-3.685815036E-1
3.215423584E0,2.200303793E0,-8.069378138E-1,-3.414172530E-1
3.217376709E0,2.224272251E0,-8.266451955E-1,-3.121224940E-1
3.219360351E0,2.249838591E0,-8.404936790E-1,-2.790992856E-1
3.221374511E0,2.267415285E0,-8.000136018E-1,-2.524676621E-1
3.223388671E0,2.284992218E0,-7.014766335E-1,-2.364887148E-1
3.225372314E0,2.304167032E0,-5.661880374E-1,-2.332929224E-1
3.227386474E0,2.321743965E0,-4.394215941E-1,-2.439455539E-1
3.229400634E0,2.333994389E0,-3.190467060E-1,-2.615224123E-1
3.231414794E0,2.339320660E0,-2.024002522E-1,-2.801645398E-1
3.233367919E0,2.344114542E0,-1.049285457E-1,-3.014698327E-1
3.235382080E0,2.338788033E0,-2.822950855E-2,-3.126551211E-1
3.237365722E0,2.327070236E0,3.462109342E-2,-3.254382908E-1
3.239379882E0,2.306830168E0,8.309062570E-2,-3.424825370E-1
3.241363525E0,2.283926964E0,1.134506613E-1,-3.595267534E-1
3.243347167E0,2.262089014E0,1.283643693E-1,-3.717772961E-1
3.245300292E0,2.238120556E0,1.416801661E-1,-3.920173049E-1
3.247283935E0,2.213086843E0,1.709749401E-1,-4.175836742E-1
3.249298095E0,2.190183640E0,1.981391907E-1,-4.410194755E-1
3.251281738E0,2.168345690E0,2.348908186E-1,-4.708468914E-1
3.253295898E0,2.148105860E0,2.567287385E-1,-4.921521842E-1
3.255310058E0,2.136387825E0,2.854908705E-1,-5.070658922E-1
3.257293701E0,2.127333164E0,3.201119602E-1,-5.193164349E-1
3.259277343E0,2.119343519E0,3.659183383E-1,-5.278385282E-1
3.261291503E0,2.116680384E0,4.149205089E-1,-5.315669775E-1
3.263305664E0,2.114549875E0,4.756405652E-1,-5.241101384E-1
3.265319824E0,2.115082502E0,5.512743592E-1,-5.193164349E-1
3.267303466E0,2.118810892E0,6.343649626E-1,-5.171858668E-1
3.269317626E0,2.123072147E0,7.190535069E-1,-5.102616549E-1
3.271331787E0,2.137985706E0,8.010788560E-1,-5.054680109E-1
3.273345947E0,2.155562639E0,8.761799932E-1,-5.012069345E-1
3.275360107E0,2.173672199E0,9.427590370E-1,-4.996090233E-1
3.277282714E0,2.191248894E0,1.009338021E0,-4.964132309E-1
3.279296875E0,2.205097437E0,1.077515006E0,-4.910869002E-1
3.281280517E0,2.217347860E0,1.151550889E0,-4.857605994E-1
3.283294677E0,2.227468014E0,1.217597246E0,-4.793690145E-1
3.285308837E0,2.236522675E0,1.274588943E0,-4.745753109E-1
3.287322998E0,2.243446827E0,1.327319503E0,-4.617921412E-1
3.289337158E0,2.253034353E0,1.369397402E0,-4.500742257E-1
3.291320800E0,2.256230116E0,1.393365860E0,-4.351605177E-1
3.293273925E0,2.260491133E0,1.409877539E0,-4.122573435E-1
3.295288085E0,2.261556387E0,1.414671183E0,-3.893541694E-1
3.297271728E0,2.261556387E0,1.418399572E0,-3.659183383E-1
3.299255371E0,2.250903845E0,1.429052234E0,-3.467435837E-1
3.301269531E0,2.240783691E0,1.438107014E0,-3.270362020E-1
3.303253173E0,2.225870132E0,1.443965912E0,-3.051982522E-1
3.305206298E0,2.211488962E0,1.444498658E0,-2.865561247E-1
3.307189941E0,2.194977522E0,1.435443878E0,-2.631203234E-1
3.309204101E0,2.176335335E0,1.429052234E0,-2.428802997E-1
3.311187744E0,2.150236368E0,1.419464946E0,-2.178465873E-1
3.313201904E0,2.126267910E0,1.403485894E0,-1.965412945E-1
3.315216064E0,2.095375299E0,1.391767979E0,-1.757686287E-1
3.317199707E0,2.068210840E0,1.378452182E0,-1.555286050E-1
3.319183349E0,2.032524586E0,1.361940622E0,-1.411475390E-1
3.321197509E0,1.997370839E0,1.340102673E0,-1.198422536E-1
3.323211669E0,1.958488703E0,1.324656367E0,-1.012001261E-1
3.325195312E0,1.921204448E0,1.310807943E0,-8.468852192E-2
3.327178955E0,1.882322311E0,1.288969994E0,-6.657902896E-2
3.329193115E0,1.842907548E0,1.274588943E0,-5.539375171E-2
3.331207275E0,1.800829530E0,1.250087857E0,-4.687163606E-2
3.333190917E0,1.755023241E0,1.228249907E0,-3.994741663E-2
3.335205078E0,1.710814714E0,1.192563534E0,-4.314320907E-2
3.337097167E0,1.665008307E0,1.160605669E0,-4.367584363E-2
3.339111328E0,1.622397780E0,1.142496109E0,-4.527373984E-2
3.341094970E0,1.578721881E0,1.146224499E0,-4.474110901E-2
3.343078613E0,1.531850338E0,1.161138296E0,-3.834952042E-2
3.345092773E0,1.485511303E0,1.166464567E0,-2.716424316E-2
3.347076416E0,1.439704895E0,1.162736177E0,-1.864212751E-2
3.349029541E0,1.394963861E0,1.161670923E0,-5.326322280E-3
3.351043701E0,1.347559571E0,1.168062449E0,2.130528912E-3
3.353057861E0,1.309742689E0,1.196292043E0,1.065264456E-3
3.355072021E0,1.267132044E0,1.217064619E0,4.261057824E-3
3.357055664E0,1.225586772E0,1.210140467E0,-3.195793368E-3
3.359039306E0,1.179247737E0,1.206944585E0,-3.728425596E-3
3.361053466E0,1.137169838E0,1.218662500E0,0.000000000E0
3.363067626E0,1.094559193E0,1.230380416E0,7.456851192E-3
3.364990234E0,1.053013921E0,1.251153111E0,7.456851192E-3
3.366973876E0,1.016794920E0,1.282045722E0,2.130528912E-3
3.368988037E0,9.837717414E-1,1.325721622E0,5.326322280E-3
3.370971679E0,9.518138170E-1,1.351820588E0,7.989482954E-3
3.372985839E0,9.134642482E-1,1.361940622E0,1.438106969E-2
3.375000000E0,8.831042051E-1,1.368864775E0,2.024002373E-2
3.376983642E0,8.495483994E-1,1.375789046E0,3.195793182E-2
3.378967285E0,8.197209835E-1,1.386441708E0,4.101268202E-2
3.380981445E0,7.920241356E-1,1.393898487E0,5.273059011E-2
3.382995605E0,7.600662112E-1,1.400290132E0,6.391586363E-2
3.384979248E0,7.302387953E-1,1.406149030E0,6.924218684E-2
3.386962890E0,6.993461251E-1,1.404018521E0,7.882957160E-2
3.388977050E0,6.695187092E-1,1.398692250E0,9.054747969E-2
3.390960693E0,6.386260390E-1,1.384311199E0,1.012001261E-1
3.392913818E0,6.087986231E-1,1.373125911E0,1.145159304E-1
3.394958496E0,5.731122494E-1,1.353418469E0,1.251685768E-1
3.396942138E0,5.411543250E-1,1.328384757E0,1.326254308E-1
3.398956298E0,5.086637735E-1,1.293763638E0,1.368864775E-1
3.400939941E0,4.740426838E-1,1.263403654E0,1.464738697E-1
3.402923584E0,4.383563101E-1,1.227717280E0,1.502022892E-1
3.404937744E0,4.000068009E-1,1.192563534E0,1.587243974E-1
3.406951904E0,3.627225459E-1,1.145159245E0,1.613875628E-1
3.408905029E0,3.259709179E-1,1.104679227E0,1.667138934E-1
3.410888671E0,2.854908705E-1,1.065264463E0,1.704423130E-1
3.412902832E0,2.471413612E-1,1.017860174E0,1.720402092E-1
3.414916992E0,2.018676102E-1,9.683253765E-1,1.752360016E-1
3.416900634E0,1.640507281E-1,9.177253246E-1,1.699096859E-1
3.418884277E0,1.161138266E-1,8.671252728E-1,1.731054783E-1
3.420898437E0,6.711166352E-2,8.213189244E-1,1.688444167E-1
3.422912597E0,2.290318534E-2,7.771103978E-1,1.688444167E-1
3.424835205E0,-2.663161233E-2,7.339671850E-1,1.677791476E-1
3.426818847E0,-7.829693705E-2,6.934871674E-1,1.635181010E-1
3.428833007E0,-1.299622655E-1,6.524744630E-1,1.613875628E-1
3.430847167E0,-1.842907518E-1,6.189186573E-1,1.635181010E-1
3.432830810E0,-2.370213419E-1,5.848301649E-1,1.613875628E-1
3.434844970E0,-2.945456207E-1,5.592638254E-1,1.608549356E-1
3.436767578E0,-3.504720032E-1,5.331648588E-1,1.549959779E-1
3.438781738E0,-4.079962969E-1,5.086637735E-1,1.502022892E-1
3.440765380E0,-4.719121456E-1,4.777711034E-1,1.523328125E-1
3.442749023E0,-5.294364095E-1,4.649879336E-1,1.555286050E-1
3.444763183E0,-5.938849449E-1,4.458131790E-1,1.539307088E-1
3.446746826E0,-6.535397172E-1,4.330300093E-1,1.491370201E-1
3.448760986E0,-7.126619220E-1,4.239752591E-1,1.475391239E-1
3.450744628E0,-7.792409658E-1,4.197141826E-1,1.454086006E-1
3.452697753E0,-8.399610519E-1,4.117247164E-1,1.406149119E-1
3.454742431E0,-8.996158242E-1,4.016047120E-1,1.352885813E-1
3.456695556E0,-9.571400881E-1,3.909520507E-1,1.288969964E-1
3.458709716E0,-1.019458055E0,3.808320463E-1,1.145159304E-1
3.460693359E0,-1.079645514E0,3.627225459E-1,1.017327532E-1
3.462677001E0,-1.135039330E0,3.376888335E-1,8.522115648E-2
3.464630126E0,-1.192030907E0,3.206445873E-1,7.084008306E-2
3.466613769E0,-1.246892095E0,2.961435318E-1,4.633900523E-2
3.468658447E0,-1.295361519E0,2.609897852E-1,1.917476021E-2
3.470611572E0,-1.343831062E0,2.178465873E-1,-6.391586736E-3
3.472625732E0,-1.390702724E0,1.725728363E-1,-3.195793182E-2
3.474670410E0,-1.438639641E0,1.336906850E-1,-5.273059011E-2
3.476623535E0,-1.480717540E0,8.415589482E-2,-7.297061384E-2
3.478607177E0,-1.521730304E0,2.237055451E-2,-9.906959534E-2
3.480621337E0,-1.561677694E0,-4.633900523E-2,-1.235706806E-1
3.482635498E0,-1.591505051E0,-1.214401498E-1,-1.480717659E-1
3.484619140E0,-1.618136764E0,-1.949433982E-1,-1.656486243E-1
3.486633300E0,-1.645300984E0,-2.695119083E-1,-1.805623323E-1
3.488647460E0,-1.659682035E0,-3.408846259E-1,-1.906823367E-1
3.490661621E0,-1.670334697E0,-4.037352204E-1,-1.890844405E-1
3.492675781E0,-1.679389358E0,-4.569984376E-1,-1.869539171E-1
3.494689941E0,-1.682585239E0,-4.980111420E-1,-1.773665249E-1
3.496612548E0,-1.679389358E0,-5.368933082E-1,-1.613875628E-1
3.498596191E0,-1.671932578E0,-5.640575290E-1,-1.368864775E-1
3.500610351E0,-1.659682035E0,-5.880259871E-1,-1.070590764E-1
3.502593994E0,-1.638376713E0,-6.087986231E-1,-6.924218684E-2
3.504608154E0,-1.618669391E0,-6.242449880E-1,-3.621899337E-2
3.506591796E0,-1.587244034E0,-6.178534031E-1,9.054748341E-3
3.508605957E0,-1.547296643E0,-6.114618182E-1,4.846953228E-2
3.510589599E0,-1.505751252E0,-5.922870636E-1,8.894958347E-2
3.512542724E0,-1.455683827E0,-5.667206645E-1,1.251685768E-1
3.514587402E0,-1.402953267E0,-5.278385282E-1,1.619201899E-1
3.516571044E0,-1.343298435E0,-4.857605994E-1,1.917476058E-1
3.518585205E0,-1.285774231E0,-4.255731404E-1,2.178465873E-1
3.520568847E0,-1.222391009E0,-3.648530841E-1,2.375539690E-1
3.522552490E0,-1.161138296E0,-2.806971967E-1,2.609897852E-1
3.524505615E0,-1.095624447E0,-1.853560209E-1,2.801645398E-1
3.526489257E0,-1.035969734E0,-8.681905270E-2,3.009372056E-1
3.528503417E0,-9.741843343E-1,2.237055451E-2,3.227751255E-1
3.530487060E0,-9.102684855E-1,1.406149119E-1,3.424825370E-1
3.532501220E0,-8.522115946E-1,2.695119083E-1,3.616572917E-1
3.534515380E0,-7.909588814E-1,4.090615511E-1,3.787015080E-1
3.536499023E0,-7.243798375E-1,5.539374948E-1,3.925499618E-1
3.538513183E0,-6.609966159E-1,6.929545403E-1,4.010720551E-1
3.540496826E0,-5.954828262E-1,8.314388990E-1,4.005394280E-1
3.542480468E0,-5.305017233E-1,9.672601223E-1,3.946804702E-1
3.544494628E0,-4.649879336E-1,1.092428684E0,3.813646734E-1
3.546508789E0,-4.026699662E-1,1.203748822E0,3.621899188E-1
3.548492431E0,-3.419498801E-1,1.301220536E0,3.291667104E-1
3.550476074E0,-2.801645398E-1,1.382180691E0,2.950782478E-1
3.552490234E0,-2.237055302E-1,1.440237522E0,2.588592768E-1
3.554534912E0,-1.763012707E-1,1.478054404E0,2.146507949E-1
3.556457519E0,-1.315601617E-1,1.483380795E0,1.693770438E-1
3.558471679E0,-9.214537591E-2,1.468466997E0,1.209075153E-1
3.560455322E0,-6.391586363E-2,1.424258590E0,7.030745596E-2
3.562438964E0,-4.261057824E-2,1.362473249E0,2.450108156E-2
3.564453125E0,-2.982740477E-2,1.274056315E0,-2.503371425E-2
3.566467285E0,-1.970739290E-2,1.166997194E0,-7.723167539E-2
3.568389892E0,-2.183792181E-2,1.045557022E0,-1.262338310E-1
3.570373535E0,-2.982740477E-2,9.145295620E-1,-1.725728363E-1
3.572387695E0,-4.154531285E-2,7.781757116E-1,-2.242381722E-1
3.574401855E0,-6.338323653E-2,6.380934119E-1,-2.705771625E-1
3.576385498E0,-9.161274135E-2,5.086637735E-1,-3.099919558E-1
3.578369140E0,-1.225054115E-1,3.840278387E-1,-3.488741219E-1
3.580383300E0,-1.565938741E-1,2.551308274E-1,-3.888215125E-1
3.582397460E0,-1.960086524E-1,1.326254308E-1,-4.271710515E-1
3.584320068E0,-2.343581766E-1,2.077265643E-2,-4.655205607E-1
3.586303710E0,-2.828277051E-1,-7.137271762E-2,-5.070658922E-1
3.588317871E0,-3.296993375E-1,-1.502022892E-1,-5.358279943E-1
3.590332031E0,-3.813646734E-1,-2.109223604E-1,-5.683186054E-1
3.592346191E0,-4.319647253E-1,-2.599245310E-1,-5.976133347E-1
3.594360351E0,-5.075985193E-1,-3.078614175E-1,-6.423544884E-1
3.596343994E0,-5.320996046E-1,-3.158509135E-1,-6.540724039E-1
3.598327636E0,-5.832322836E-1,-3.254382908E-1,-6.721818447E-1
3.600341796E0,-6.476807594E-1,-3.174487948E-1,-6.956176758E-1
3.602355957E0,-6.913566589E-1,-3.089267015E-1,-7.046724558E-1
3.604339599E0,-7.227819562E-1,-2.924150825E-1,-7.078682184E-1
3.606323242E0,-7.531419992E-1,-2.668487430E-1,-7.020092607E-1
3.608337402E0,-7.765777707E-1,-2.375539690E-1,-6.950850487E-1
3.610351562E0,-8.005462289E-1,-2.018676102E-1,-6.801713705E-1
3.612274169E0,-8.202536106E-1,-1.747033745E-1,-6.530070901E-1
3.614288330E0,-8.458199501E-1,-1.544633508E-1,-6.247776151E-1
3.616271972E0,-8.751147389E-1,-1.379517466E-1,-5.816344023E-1
3.618255615E0,-9.203884602E-1,-1.257012039E-1,-5.336974859E-1
3.620269775E0,-9.693906307E-1,-1.022653878E-1,-4.772384763E-1
3.622283935E0,-1.023186564E0,-8.202536404E-2,-4.122573435E-1
3.624267578E0,-1.081776023E0,-6.657902896E-2,-3.440804183E-1
3.626251220E0,-1.141430855E0,-6.711166352E-2,-2.716424465E-1
3.628173828E0,-1.164334059E0,-7.669904083E-2,-2.412824035E-1
3.630157470E0,-1.209075212E0,-1.113201380E-1,-1.709749401E-1
3.632171630E0,-1.243163586E0,-1.683117896E-1,-1.230380461E-1
3.634216308E0,-1.280447841E0,-2.865561247E-1,-7.403588295E-2
3.636169433E0,-1.298024774E0,-3.632551730E-1,-6.231797114E-2
3.638183593E0,-1.310807943E0,-4.085289240E-1,-5.326322466E-2
3.640197753E0,-1.313471079E0,-4.516721368E-1,-5.752427876E-2
3.642181396E0,-1.304416299E0,-4.852279723E-1,-7.030745596E-2
3.644104003E0,-1.292165756E0,-5.038700700E-1,-7.723167539E-2
3.646087646E0,-1.271393180E0,-5.182511806E-1,-9.267801046E-2
3.648101806E0,-1.244228840E0,-5.134574771E-1,-1.086569726E-1
3.650115966E0,-1.194694042E0,-5.038700700E-1,-1.272991002E-1
3.652130126E0,-1.157942414E0,-4.985437691E-1,-1.299622655E-1
3.654144287E0,-1.117462397E0,-4.948153496E-1,-1.288969964E-1
3.656066894E0,-1.102016091E0,-4.894890189E-1,-1.267664731E-1
3.658050537E0,-1.071655989E0,-4.964132309E-1,-1.230380461E-1
3.660064697E0,-1.049285531E0,-5.102616549E-1,-1.075917110E-1
3.662048339E0,-1.039698124E0,-5.411543250E-1,-9.906959534E-2
3.664062500E0,-1.048220277E0,-5.677859783E-1,-9.054747969E-2
3.666046142E0,-1.073253989E0,-5.976133347E-1,-8.362326026E-2
3.668060302E0,-1.114799261E0,-6.231797338E-1,-6.977482140E-2
3.670074462E0,-1.165399313E0,-6.370281577E-1,-5.592638254E-2
3.671997070E0,-1.235174179E0,-6.343649626E-1,-4.154531285E-2
3.674011230E0,-1.319862604E0,-5.938849449E-1,-3.728425596E-3
3.675994873E0,-1.402953267E0,-5.464806557E-1,2.609897964E-2
3.678009033E0,-1.491902828E0,-5.150553584E-1,5.486112088E-2
3.679992675E0,-1.570732474E0,-5.049353242E-1,6.231797114E-2
3.681976318E0,-1.641039848E0,-4.878911078E-1,6.018744037E-2
3.683929443E0,-1.672997832E0,-4.846953154E-1,5.645901710E-2
3.685913085E0,-1.729989529E0,-4.756405652E-1,4.367584363E-2
3.687927246E0,-1.796035886E0,-4.687163532E-1,4.261057824E-2
3.689910888E0,-1.815743208E0,-4.649879336E-1,4.261057824E-2
3.691925048E0,-1.851962209E0,-4.543353021E-1,8.202536404E-2
3.693939209E0,-1.863147497E0,-4.420847595E-1,1.187769845E-1
3.695922851E0,-1.867408633E0,-4.277036786E-1,1.565938741E-1
3.697937011E0,-1.852494836E0,-4.149205089E-1,1.986718178E-1
3.699920654E0,-1.831722260E0,-3.973436356E-1,2.396845073E-1
3.701904296E0,-1.795503259E0,-3.765709996E-1,2.769687474E-1
3.703918457E0,-1.750762105E0,-3.440804183E-1,3.121224940E-1
3.705932617E0,-1.693770528E0,-3.025351167E-1,3.435477912E-1
3.707916259E0,-1.629321933E0,-2.492718846E-1,3.755057156E-1
3.709899902E0,-1.552090287E0,-1.842907518E-1,4.053331316E-1
3.711914062E0,-1.468999743E0,-1.097222418E-1,4.319647253E-1
3.713928222E0,-1.370995402E0,-2.982740477E-2,4.633900523E-1
3.715881347E0,-1.267132044E0,5.965480953E-2,4.958806038E-1
3.717864990E0,-1.159007788E0,1.416801661E-1,5.235774517E-1
3.719879150E0,-1.047154903E0,2.242381722E-1,5.581985712E-1
3.721862792E0,-9.374327064E-1,2.982740402E-1,5.928196907E-1
3.723876953E0,-8.314388990E-1,3.547330499E-1,6.274407506E-1
3.725860595E0,-7.366303802E-1,3.978762627E-1,6.631271243E-1
3.727783203E0,-6.455502510E-1,4.234426320E-1,7.014766335E-1
3.729766845E0,-5.688512325E-1,4.261057973E-1,7.446198463E-1
3.731781005E0,-4.974785149E-1,4.111920893E-1,7.797735929E-1
3.733795166E0,-4.394215941E-1,3.888215125E-1,8.197209835E-1
3.735778808E0,-3.861583769E-1,3.542004228E-1,8.644620776E-1
3.737762451E0,-3.419498801E-1,3.057309091E-1,9.108011127E-1
3.739776611E0,-3.078614175E-1,2.561961114E-1,9.598032832E-1
3.741760253E0,-2.796319127E-1,1.928128600E-1,1.008272767E0
3.743682861E0,-2.636529505E-1,1.336906850E-1,1.052481294E0
3.745666503E0,-2.492718846E-1,7.510114461E-2,1.092961311E0
3.747680664E0,-2.508697808E-1,2.183792181E-2,1.126517177E0
3.749694824E0,-2.508697808E-1,-1.438106969E-2,1.152616143E0
3.751678466E0,-2.620550692E-1,-3.888215125E-2,1.171258211E0
3.753723144E0,-2.775014043E-1,-5.539375171E-2,1.181910872E0
3.755645751E0,-2.988066673E-1,-6.498113275E-2,1.182976127E0
3.757659912E0,-3.227751255E-1,-6.338323653E-2,1.179780364E0
3.759643554E0,-3.520699143E-1,-5.113269389E-2,1.173921466E0
3.761627197E0,-3.824299276E-1,-3.462109342E-2,1.156344533E0
3.763641357E0,-4.255731404E-1,-6.924218964E-3,1.136104584E0
3.765625000E0,-4.745753109E-1,3.036003746E-2,1.099352956E0
3.767639160E0,-5.294364095E-1,8.468852192E-2,1.056742311E0
3.769622802E0,-5.848301649E-1,1.539307088E-1,1.009338021E0
3.771545410E0,-6.407565475E-1,2.386192381E-1,9.608685374E-1
3.773559570E0,-6.945524216E-1,3.366235793E-1,9.139968753E-1
3.775543212E0,-7.478156686E-1,4.404868484E-1,8.665926456E-1
3.777526855E0,-8.010788560E-1,5.464806557E-1,8.170578480E-1
3.779541015E0,-8.495483994E-1,6.546050310E-1,7.632619739E-1
3.781524658E0,-8.958874345E-1,7.696535587E-1,7.036072016E-1
3.783538818E0,-9.454222322E-1,8.889631629E-1,6.434197426E-1
3.785522460E0,-9.960222840E-1,1.009338021E0,5.880259871E-1
3.787445068E0,-1.023186564E0,1.071123362E0,5.571333170E-1
3.789428710E0,-1.075384498E0,1.202150941E0,4.932174385E-1
3.791442871E0,-1.135039330E0,1.340102673E0,4.340952635E-1
3.793487548E0,-1.227717280E0,1.547829270E0,3.222424984E-1
3.795440673E0,-1.295361519E0,1.680987358E0,2.476739883E-1
3.797424316E0,-1.364603758E0,1.800829530E0,1.699096859E-1
3.799438476E0,-1.437041759E0,1.904160261E0,8.735168725E-2
3.801452636E0,-1.509479761E0,1.982989788E0,5.858954508E-3
3.803436279E0,-1.583515644E0,2.032524586E0,-7.403588295E-2
3.805450439E0,-1.660747290E0,2.047438383E0,-1.565938741E-1
3.807464599E0,-1.732120037E0,2.025067806E0,-2.359560728E-1
3.809478759E0,-1.799231648E0,1.961684465E0,-3.078614175E-1
3.811462402E0,-1.865278006E0,1.857821226E0,-3.824299276E-1
3.813507080E0,-1.919606566E0,1.707618952E0,-4.532700181E-1
3.815429687E0,-1.964347601E0,1.512142897E0,-5.267732739E-1
3.817413330E0,-1.992044568E0,1.264468908E0,-5.928196907E-1
3.819427490E0,-1.996305585E0,9.768475294E-1,-6.636597514E-1
3.821411132E0,-1.980859280E0,6.604639888E-1,-7.334345579E-1
3.823425292E0,-1.946238160E0,3.238403797E-1,-8.048073053E-1
3.825408935E0,-1.890311718E0,-1.651159860E-2,-8.713863492E-1
3.827423095E0,-1.817873836E0,-3.408846259E-1,-9.358348250E-1
3.829406738E0,-1.723065257E0,-6.455502510E-1,-9.896306992E-1
3.831359863E0,-1.621865153E0,-9.171926975E-1,-1.041828632E0
3.833404541E0,-1.518534541E0,-1.147289872E0,-1.080710769E0
3.835388183E0,-1.421062827E0,-1.327852130E0,-1.112136126E0
3.837371826E0,-1.328917384E0,-1.474326015E0,-1.133441329E0
3.839385986E0,-1.239967823E0,-1.584580898E0,-1.150485635E0
3.841369628E0,-1.156344533E0,-1.667138815E0,-1.160605669E0
3.843292236E0,-1.075917125E0,-1.728924155E0,-1.166997194E0
3.845306396E0,-9.997506738E-1,-1.778991699E0,-1.159540415E0
3.847320556E0,-9.384979606E-1,-1.815743208E0,-1.149953008E0
3.849304199E0,-8.799084425E-1,-1.838646412E0,-1.147822499E0
3.851318359E0,-8.319715261E-1,-1.842374921E0,-1.146224499E0
3.853332519E0,-7.866978049E-1,-1.836515903E0,-1.142496109E0
3.855316162E0,-7.542072535E-1,-1.804558039E0,-1.143028736E0
3.857299804E0,-7.270429730E-1,-1.748098969E0,-1.143561363E0
3.859313964E0,-7.094660997E-1,-1.689509392E0,-1.147289872E0
3.861297607E0,-6.860303283E-1,-1.643170476E0,-1.151550889E0
3.863311767E0,-6.748450398E-1,-1.589374542E0,-1.146757245E0
3.865295410E0,-6.700513363E-1,-1.534513474E0,-1.148887753E0
3.867340087E0,-6.620618701E-1,-1.474858642E0,-1.133441329E0
3.869293212E0,-6.572681665E-1,-1.413073301E0,-1.117462397E0
3.871307373E0,-6.530070901E-1,-1.354483724E0,-1.100950837E0
3.873321533E0,-6.578007936E-1,-1.291100502E0,-1.066329718E0
3.875213623E0,-6.572681665E-1,-1.233043551E0,-1.034904361E0
3.877197265E0,-6.609966159E-1,-1.173388839E0,-9.896306992E-1
3.879211425E0,-6.625944972E-1,-1.115331888E0,-9.448895454E-1
3.881225585E0,-6.647250056E-1,-1.068460226E0,-8.926916122E-1
3.883209228E0,-6.609966159E-1,-1.010403395E0,-8.404936790E-1
3.885192871E0,-6.562029123E-1,-9.587380290E-1,-7.819041014E-1
3.887145996E0,-6.482134461E-1,-9.038769007E-1,-7.281082273E-1
3.889129638E0,-6.407565475E-1,-8.500810266E-1,-6.705839634E-1
3.891143798E0,-6.285060048E-1,-7.856325507E-1,-6.157228351E-1
3.893188476E0,-6.167881489E-1,-7.142598033E-1,-5.608617067E-1
3.895141601E0,-6.056028605E-1,-6.444849968E-1,-5.102616549E-1
3.897186279E0,-5.997439027E-1,-5.624596477E-1,-4.538026452E-1
3.899200439E0,-5.949501991E-1,-4.793690145E-1,-4.058657587E-1
3.901184082E0,-5.906891227E-1,-3.941478431E-1,-3.584614992E-1
3.903137207E0,-5.885586143E-1,-3.083940744E-1,-3.126551211E-1
3.905151367E0,-5.864281058E-1,-2.263686955E-1,-2.711097896E-1
3.907165527E0,-5.885586143E-1,-1.454086006E-1,-2.269013226E-1
3.909149169E0,-5.896238685E-1,-6.817692518E-2,-1.848233789E-1
3.911163330E0,-5.896238685E-1,-2.130528912E-3,-1.454086006E-1
3.913208007E0,-5.970807076E-1,7.084008306E-2,-1.075917110E-1
3.915191650E0,-6.013417840E-1,1.379517466E-1,-7.084008306E-2
3.917175292E0,-6.098638773E-1,2.039981484E-1,-3.888215125E-2
3.919189453E0,-6.173207760E-1,2.615224123E-1,-1.118527725E-2
3.921173095E0,-6.311691999E-1,3.142530024E-1,1.384843793E-2
3.923187255E0,-6.396912932E-1,3.637878001E-1,3.408846259E-2
3.925170898E0,-6.551376581E-1,4.122573435E-1,5.592638254E-2
3.927185058E0,-6.673882008E-1,4.554005563E-1,6.977482140E-2
3.929168701E0,-6.828345060E-1,4.889563918E-1,8.468852192E-2
3.931091308E0,-6.913566589E-1,5.193164349E-1,9.374327213E-2
3.933105468E0,-7.089334726E-1,5.448827744E-1,1.049285457E-1
3.935089111E0,-7.249124646E-1,5.747101903E-1,1.187769845E-1
3.937072753E0,-7.398261428E-1,5.928196907E-1,1.251685768E-1
3.939086914E0,-7.526093125E-1,6.008091569E-1,1.235706806E-1
3.941101074E0,-7.653924823E-1,6.018744111E-1,1.230380461E-1
3.943115234E0,-7.744472623E-1,5.901564956E-1,1.139832959E-1
3.945098876E0,-7.808388472E-1,5.704491138E-1,1.038632840E-1
3.947052001E0,-7.829693556E-1,5.416869521E-1,8.735168725E-2
3.949066162E0,-7.861651778E-1,5.006743073E-1,6.764429063E-2
3.951049804E0,-7.877630591E-1,4.548679292E-1,4.846953228E-2
3.953094482E0,-7.909588814E-1,4.074636400E-1,2.343581803E-2
3.955078125E0,-7.893609405E-1,3.472762108E-1,-5.326322280E-4
3.957061767E0,-7.866978049E-1,2.801645398E-1,-2.237055451E-2
3.959075927E0,-7.872304320E-1,2.061286718E-1,-4.048004746E-2
3.961059570E0,-7.850999236E-1,1.299622655E-1,-6.285060197E-2
3.963012695E0,-7.824367285E-1,4.793690145E-2,-8.415589482E-2
3.965026855E0,-7.829693556E-1,-3.249056637E-2,-1.075917110E-1
3.967010498E0,-7.861651778E-1,-1.139832959E-1,-1.230380461E-1
3.968994140E0,-7.861651778E-1,-1.874865443E-1,-1.459412277E-1
3.971008300E0,-7.882956862E-1,-2.615224123E-1,-1.683117896E-1
3.973022460E0,-7.920241356E-1,-3.249056637E-1,-1.933455020E-1
3.974975585E0,-8.032094240E-1,-3.771036267E-1,-2.151834220E-1
3.976959228E0,-8.133293986E-1,-4.234426320E-1,-2.402171344E-1
