"Time (s)","Acceleration x (m/s^2)","Acceleration y (m/s^2)","Acceleration z (m/s^2)"
0.000000000E0,-2.655250788E0,5.387118340E0,6.000052452E0
1.974000000E-3,-2.655250788E0,5.387118340E0,6.000052452E0
3.962500000E-3,-2.655250788E0,5.387118340E0,6.000052452E0
5.962500000E-3,-2.655250788E0,5.387118340E0,6.000052452E0
7.962500000E-3,-2.274561167E0,5.265010357E0,5.370358467E0
9.962500000E-3,-2.231464148E0,5.281770229E0,5.339232922E0
1.196483300E-2,-2.185972929E0,5.334444046E0,5.332049847E0
1.396683300E-2,-2.157241583E0,5.370358467E0,5.348809719E0
1.596858300E-2,-2.073441982E0,5.415849686E0,5.408666611E0
1.797013800E-2,-2.032739401E0,5.456552505E0,5.432609558E0
1.997153800E-2,-1.745426297E0,5.537957668E0,5.475706577E0
2.197044700E-2,-1.745426297E0,5.537957668E0,5.475706577E0
2.397161300E-2,-1.668809533E0,5.545140266E0,5.494860649E0
2.597268900E-2,-1.510787368E0,5.521197796E0,5.533169270E0
2.797361700E-2,-1.415016413E0,5.499649048E0,5.559505939E0
2.997448300E-2,-1.247417212E0,5.430215359E0,5.631334305E0
3.197529500E-2,-1.137280583E0,5.346415520E0,5.753442287E0
3.397605900E-2,-1.039115310E0,5.226701736E0,5.810904980E0
3.597678100E-2,-8.260248303E-1,4.958543301E0,5.899493217E0
3.797746500E-2,-7.661679387E-1,4.886714935E0,5.942590237E0
3.997811500E-2,-7.110996246E-1,4.616161823E0,6.193988800E0
4.197749500E-2,-7.110996246E-1,4.616161823E0,6.193988800E0
4.397804000E-2,-7.302538157E-1,4.568276405E0,6.261028767E0
4.597856100E-2,-7.853221297E-1,4.517996788E0,6.390319347E0
4.797906100E-2,-8.236305118E-1,4.568276405E0,6.438204765E0
4.997954100E-2,-8.858816624E-1,4.618556023E0,6.471724987E0
5.198000200E-2,-9.170072675E-1,4.685595989E0,6.490879059E0
5.398044600E-2,-9.337671995E-1,4.719115734E0,6.545947552E0
5.598087400E-2,-9.601042271E-1,4.764606953E0,6.727912426E0
5.798128700E-2,-1.005595446E0,4.891503334E0,6.924242973E0
5.998165300E-2,-1.237840056E0,5.001639843E0,7.082264900E0
6.198201900E-2,-1.367130876E0,4.989668846E0,7.101418972E0
6.398315200E-2,-1.367130876E0,4.989668846E0,7.101418972E0
6.598351800E-2,-1.505998850E0,5.018400192E0,7.099024773E0
6.798388400E-2,-1.587404251E0,5.016005516E0,7.031985283E0
6.998425000E-2,-1.611346960E0,4.970514297E0,6.996070862E0
7.198415000E-2,-1.690358043E0,4.838829517E0,6.909877300E0
7.398401600E-2,-1.726272106E0,4.769395351E0,6.845231533E0
7.598388200E-2,-1.812466025E0,4.644893169E0,6.708757877E0
7.798374800E-2,-1.901054144E0,4.527573586E0,6.584255695E0
7.998361400E-2,-2.039922237E0,4.458139896E0,6.431022167E0
8.198348000E-2,-2.039922237E0,4.458139896E0,6.431022167E0
8.398334600E-2,-2.078230619E0,4.441379547E0,6.387925148E0
8.598321200E-2,-2.166818619E0,4.436591148E0,6.318490982E0
8.798274500E-2,-2.305686712E0,4.290540695E0,6.253845692E0
8.998264500E-2,-2.336812258E0,4.259414673E0,6.249057293E0
9.198254500E-2,-2.346389294E0,4.288146019E0,6.256239891E0
9.398244500E-2,-2.334417820E0,4.328848839E0,6.282577038E0
9.598234500E-2,-2.272166729E0,4.352791786E0,6.356799603E0
9.798224500E-2,-2.166818619E0,4.441379547E0,6.502850533E0
9.998214500E-2,-1.996825218E0,4.611373425E0,6.799740314E0
1.019820110E-1,-1.929785490E0,4.690384388E0,6.936213970E0
1.039819440E-1,-1.860351562E0,4.788549423E0,7.096630573E0
1.059817440E-1,-1.795706153E0,4.877137661E0,7.273807049E0
1.079816100E-1,-1.685569525E0,5.066285610E0,7.678439140E0
1.099814760E-1,-1.642472506E0,5.159662247E0,7.881952763E0
1.119812760E-1,-1.585009933E0,5.367964268E0,8.305739403E0
1.139811420E-1,-1.527547359E0,5.557111740E0,8.652909279E0
1.159810080E-1,-1.517970204E0,5.648094177E0,8.830085754E0
1.179800740E-1,-1.527547359E0,5.784567833E0,9.134158134E0
1.199799740E-1,-1.565855742E0,5.875550270E0,9.476539612E0
1.219798070E-1,-1.599375606E0,5.887521744E0,9.557945251E0
1.239796400E-1,-1.628106833E0,5.887521744E0,9.636956215E0
1.259794730E-1,-1.640078187E0,5.873156071E0,9.706390381E0
1.279793060E-1,-1.642472506E0,5.810904980E0,9.799766541E0
1.299791390E-1,-1.632895470E0,5.763019562E0,9.833286285E0
1.319793720E-1,-1.601769805E0,5.679219723E0,9.902720451E0
1.339792380E-1,-1.549095750E0,5.604997158E0,9.967366219E0
1.359791040E-1,-1.527547359E0,5.566689014E0,1.002004051E1
1.379791370E-1,-1.539518714E0,5.456552505E0,1.016130257E1
1.399789370E-1,-1.812466025E0,5.214730740E0,1.044861507E1
1.419787370E-1,-1.989642382E0,5.099805355E0,1.056593513E1
1.439785370E-1,-2.202732801E0,4.965725899E0,1.069043732E1
1.459779370E-1,-2.434977531E0,4.836435318E0,1.080296803E1
1.479781030E-1,-2.882706881E0,4.541939259E0,1.095380688E1
1.499779030E-1,-3.284945011E0,4.225894928E0,1.100169277E1
1.519772030E-1,-3.445361376E0,4.077449799E0,1.098972130E1
1.539769360E-1,-3.701548815E0,3.818868399E0,1.092986488E1
1.559766690E-1,-3.828445435E0,3.696760416E0,1.089155579E1
1.579759690E-1,-4.055901527E0,3.454938650E0,1.078141975E1
1.599757020E-1,-4.393494129E0,3.146077156E0,1.065212822E1
1.619754350E-1,-4.515602112E0,3.057488918E0,1.062100315E1
1.639751680E-1,-4.659258842E0,2.973689318E0,1.058987713E1
1.659750340E-1,-4.793338299E0,2.901860952E0,1.058030033E1
1.679747670E-1,-4.975303173E0,2.796513081E0,1.055156898E1
1.699745000E-1,-5.071074009E0,2.736656189E0,1.052283764E1
1.719743000E-1,-5.083045483E0,2.729473352E0,1.052283764E1
1.739740330E-1,-5.073468208E0,2.743839025E0,1.051565456E1
1.759737660E-1,-5.056708336E0,2.774964571E0,1.050847244E1
1.779742990E-1,-5.013611317E0,2.827638626E0,1.049171257E1
1.799740320E-1,-4.891503334E0,2.942563772E0,1.034566116E1
1.819738320E-1,-4.891503334E0,2.942563772E0,1.034566116E1
1.839742320E-1,-4.865166187E0,2.976083517E0,1.029059315E1
1.859739980E-1,-4.846012115E0,3.009603500E0,1.022834206E1
1.879737640E-1,-4.793338299E0,3.050306082E0,1.004877090E1
1.899735300E-1,-4.719115734E0,3.088614464E0,9.835680962E0
1.919728960E-1,-4.685595989E0,3.107768774E0,9.735121727E0
1.939726620E-1,-4.608979225E0,3.124528646E0,9.524425507E0
1.959724280E-1,-4.553910732E0,3.196356773E0,9.143735886E0
1.979720280E-1,-4.568276405E0,3.253819466E0,8.765439987E0
1.999718610E-1,-4.762212753E0,3.330436230E0,6.761432171E0
2.019716940E-1,-4.762212753E0,3.330436230E0,6.761432171E0
2.039715270E-1,-4.702355862E0,3.299310684E0,6.601015568E0
2.059717600E-1,-4.400677204E0,3.198751211E0,7.053533554E0
2.079715930E-1,-4.247443676E0,3.150865555E0,7.417463303E0
2.099714260E-1,-4.019987583E0,3.081431627E0,7.977723598E0
2.119717590E-1,-3.952947617E0,3.057488918E0,8.128562927E0
2.139716590E-1,-3.871542454E0,3.035940409E0,8.257853508E0
2.159715590E-1,-3.854782343E0,3.038334846E0,8.186025620E0
2.179718920E-1,-3.847599506E0,3.045517445E0,8.097437859E0
2.199717920E-1,-3.821262598E0,3.047911882E0,7.652102470E0
2.219716920E-1,-3.821262598E0,3.047911882E0,7.652102470E0
2.239715920E-1,-3.797319889E0,3.057488918E0,7.563514233E0
2.259714920E-1,-3.739857197E0,3.033546209E0,7.458166122E0
2.279714580E-1,-3.708731651E0,3.021574736E0,7.439012051E0
2.299713580E-1,-3.653663397E0,2.961717844E0,7.443800449E0
2.319712580E-1,-3.620143414E0,2.935380936E0,7.443800449E0
2.339711580E-1,-3.560286522E0,2.885101080E0,7.460560322E0
2.359710580E-1,-3.495641232E0,2.853975534E0,7.489291668E0
2.379709580E-1,-3.464515686E0,2.830032825E0,7.520417213E0
2.399708580E-1,-3.304099321E0,2.810878515E0,7.652102470E0
2.419707580E-1,-3.304099321E0,2.810878515E0,7.652102470E0
2.439700580E-1,-3.258608103E0,2.803695917E0,7.692804813E0
2.459699240E-1,-3.141288519E0,2.786935806E0,7.755055904E0
2.479697900E-1,-3.093403101E0,2.791724443E0,7.767027378E0
2.499696560E-1,-2.971295118E0,2.777358770E0,7.771816254E0
2.519695220E-1,-2.865947008E0,2.767781734E0,7.738296032E0
2.539693880E-1,-2.803695917E0,2.760598898E0,7.719141960E0
2.559692540E-1,-2.679193497E0,2.767781734E0,7.673650742E0
2.579691200E-1,-2.616942406E0,2.765387297E0,7.652102470E0
2.599689860E-1,-2.367937803E0,2.786935806E0,7.666468143E0
2.619687860E-1,-2.367937803E0,2.786935806E0,7.666468143E0
2.639685860E-1,-2.308080912E0,2.801301479E0,7.649707794E0
2.659683860E-1,-2.214704275E0,2.777358770E0,7.611399651E0
2.679681860E-1,-2.162030220E0,2.765387297E0,7.599428177E0
2.699679860E-1,-2.061470509E0,2.751021862E0,7.597033978E0
2.719677860E-1,-1.927391171E0,2.700742006E0,7.577879906E0
2.739675860E-1,-1.850774407E0,2.664827824E0,7.585062504E0
2.759673860E-1,-1.654443860E0,2.588211060E0,7.592245579E0
2.779671190E-1,-1.541913033E0,2.542719841E0,7.597033978E0
2.799668520E-1,-1.029538155E0,2.351177931E0,7.661679268E0
2.819665850E-1,-1.029538155E0,2.351177931E0,7.661679268E0
2.839663180E-1,-9.241901040E-1,2.293715239E0,7.690410614E0
2.859660510E-1,-9.577099085E-1,2.051893473E0,7.810124397E0
2.879657840E-1,-1.010383964E0,1.826831698E0,8.059128761E0
2.899655840E-1,-1.039115310E0,1.731060743E0,8.138139725E0
2.919653840E-1,-1.024749637E0,1.565855742E0,8.224333763E0
2.939651170E-1,-1.010383964E0,1.508393168E0,8.243488312E0
2.959648500E-1,-9.601042271E-1,1.424593568E0,8.293767929E0
2.979645830E-1,-8.595446348E-1,1.374313712E0,8.324893951E0
2.999643160E-1,-5.913859010E-1,1.395862222E0,8.478127480E0
3.019640490E-1,-5.027977228E-1,1.410227895E0,8.504464149E0
3.039637820E-1,-5.027977228E-1,1.410227895E0,8.504464149E0
3.059635820E-1,-3.711125851E-1,1.422199249E0,8.449396133E0
3.079633820E-1,-2.513988614E-1,1.462901950E0,8.363202095E0
3.099631150E-1,-2.154847383E-1,1.484450340E0,8.346442223E0
3.119628480E-1,-1.125309169E-1,1.561067224E0,8.391933441E0
3.139625810E-1,7.182824425E-3,1.652049661E0,8.552350044E0
3.159623140E-1,8.140534163E-1,2.109356165E0,1.002722263E1
3.179620470E-1,2.545114040E0,3.045517445E0,1.388200569E1
3.199617800E-1,3.191568375E0,4.309694767E0,1.788762665E1
3.219615800E-1,3.191568375E0,4.309694767E0,1.788762665E1
3.239613130E-1,2.715107679E0,5.011217117E0,1.777988434E1
3.259610460E-1,1.534730196E0,6.634535313E0,1.649415970E1
3.279607790E-1,3.735068738E-1,7.582668304E0,1.452127647E1
3.299605120E-1,-1.939362586E-1,7.556331158E0,1.336484241E1
3.319602450E-1,-1.185166001E0,6.766220570E0,1.107831001E1
3.339599780E-1,-1.522758722E0,5.514014721E0,9.172467232E0
3.359597110E-1,-1.783734679E0,4.929811954E0,8.454184532E0
3.379595110E-1,-1.474873304E0,3.991255999E0,7.398309231E0
3.399592440E-1,-5.554717779E-1,3.131711483E0,6.689603806E0
3.419590100E-1,-5.554717779E-1,3.131711483E0,6.689603806E0
3.439587430E-1,1.556278616E-1,2.798907280E0,7.003253937E0
3.459584760E-1,7.709565163E-1,2.830032825E0,8.145322800E0
3.479582090E-1,2.315263748E0,3.203539610E0,1.216291618E1
3.499579420E-1,2.731867552E0,3.292127848E0,1.365933800E1
3.519572420E-1,2.499622822E0,3.062277555E0,1.408312416E1
3.539570420E-1,1.721483588E0,2.564268351E0,1.263219357E1
3.559567750E-1,1.412622094E0,2.360754967E0,1.189236259E1
3.579561750E-1,1.144463301E0,2.200338602E0,1.092747021E1
3.599559080E-1,1.546701550E0,2.631308079E0,1.099211597E1
3.619556410E-1,1.546701550E0,2.631308079E0,1.099211597E1
3.639553740E-1,1.671203852E0,2.767781734E0,1.110464668E1
3.659546740E-1,1.783734679E0,2.913832426E0,1.119323444E1
3.679544070E-1,1.917814136E0,3.193962574E0,1.119802284E1
3.699542070E-1,1.929785490E0,3.289733648E0,1.105915546E1
3.719539400E-1,1.843591571E0,3.464515686E0,1.056354046E1
3.739536730E-1,1.666415215E0,3.627326250E0,9.893143654E0
3.759534060E-1,1.606558442E0,3.725491524E0,9.581888199E0
3.779531390E-1,1.532335877E0,3.979284763E0,9.110215187E0
3.799528720E-1,1.819648862E0,4.616161823E0,8.889942169E0
3.819526050E-1,2.004008055E0,4.862771988E0,9.009655952E0
3.839524050E-1,2.224281311E0,5.130930901E0,9.275420189E0
3.859522050E-1,2.485257149E0,5.394300938E0,9.656110764E0
3.879519380E-1,2.964112282E0,5.854001999E0,1.046537495E1
3.899516710E-1,3.143682718E0,6.055120945E0,1.101845264E1
3.919514040E-1,3.112557173E0,6.059909344E0,1.115253162E1
3.939511370E-1,2.846792698E0,5.954561234E0,1.130337143E1
3.959508700E-1,2.652856588E0,5.870761871E0,1.137998772E1
3.979506030E-1,2.224281311E0,5.655277252E0,1.167208958E1
3.999504030E-1,1.644866824E0,5.334444046E0,1.253402901E1
4.019501360E-1,1.477267504E0,5.207547665E0,1.287640953E1
4.039498690E-1,1.319245458E0,5.054314137E0,1.321879101E1
4.059496020E-1,1.156434774E0,4.855589390E0,1.352525806E1
4.079493350E-1,7.589851022E-1,4.338426113E0,1.392749691E1
4.099490680E-1,3.136500120E-1,3.725491524E0,1.395383358E1
4.119492340E-1,8.379961550E-2,3.428601503E0,1.382933140E1
4.139489670E-1,-3.567469418E-1,2.899466753E0,1.335287094E1
4.159487670E-1,-5.746259689E-1,2.662433624E0,1.306076908E1
4.179488330E-1,-1.173194647E0,2.121327400E0,1.256036568E1
4.199485660E-1,-2.011190891E0,1.381496549E0,1.178462029E1
4.219482990E-1,-2.011190891E0,1.381496549E0,1.178462029E1
4.239477990E-1,-2.145270348E0,1.259388566E0,1.162420464E1
4.259479650E-1,-2.241041183E0,1.053480864E0,1.132252598E1
4.279476980E-1,-2.343995094E0,1.010383964E0,1.115971470E1
4.299474310E-1,-2.389486313E0,9.577099085E-1,1.083888245E1
4.319472310E-1,-2.406246185E0,9.313728809E-1,1.069043732E1
4.339469640E-1,-2.439765930E0,8.954587579E-1,1.042227840E1
4.359466970E-1,-2.475680113E0,8.116591573E-1,1.019961071E1
4.379464300E-1,-2.506805658E0,7.589851022E-1,1.010623360E1
4.399461630E-1,-2.808484316E0,5.027977228E-1,9.660899162E0
4.419458960E-1,-2.808484316E0,5.027977228E-1,9.660899162E0
4.439456290E-1,-2.916226625E0,4.836435020E-1,9.526819229E0
4.459453620E-1,-3.174808502E0,4.932205975E-1,9.222746849E0
4.479451620E-1,-3.294522047E0,5.219519138E-1,9.076695442E0
4.499448950E-1,-3.457332850E0,7.158881426E-1,8.813325882E0
4.519446280E-1,-3.505218267E0,8.356019258E-1,8.719948769E0
4.539443610E-1,-3.531555414E0,1.051086664E0,8.612206459E0
4.559440940E-1,-3.481275558E0,1.336005330E0,8.628966331E0
4.579438270E-1,-3.450150013E0,1.465296149E0,8.672063828E0
4.599435600E-1,-3.311282158E0,1.877111435E0,8.990502357E0
4.619433600E-1,-3.311282158E0,1.877111435E0,8.990502357E0
4.639434600E-1,-3.292127848E0,1.951334000E0,9.086273193E0
4.659431930E-1,-3.292127848E0,2.061470509E0,9.280209541E0
4.679429260E-1,-3.316070557E0,2.099778891E0,9.375980377E0
4.699426590E-1,-3.380716085E0,2.133298874E0,9.581888199E0
4.719423920E-1,-3.430995703E0,2.183578730E0,9.680052757E0
4.739421250E-1,-3.545921087E0,2.171607256E0,9.857229233E0
4.759418580E-1,-3.694365978E0,2.090201855E0,1.004158878E1
4.779416580E-1,-3.751828671E0,2.056682110E0,1.013975334E1
4.799414580E-1,-3.907456398E0,1.893871427E0,1.043185520E1
4.819411910E-1,-3.907456398E0,1.893871427E0,1.043185520E1
4.839411570E-1,-3.883513689E0,1.841197371E0,1.050847244E1
4.859408900E-1,-3.809291124E0,1.750214934E0,1.064494610E1
4.879406230E-1,-3.749434233E0,1.711906433E0,1.069043732E1
4.899403560E-1,-3.541132450E0,1.656838179E0,1.077663136E1
4.919400890E-1,-3.366350412E0,1.546701550E0,1.081733322E1
4.939398890E-1,-3.282550812E0,1.508393168E0,1.080775642E1
4.959396220E-1,-3.239453793E0,1.364736676E0,1.071916866E1
4.979393550E-1,-3.261002302E0,1.285725594E0,1.064015770E1
4.999390880E-1,-3.854782343E0,9.002473354E-1,9.835680962E0
5.019388210E-1,-3.854782343E0,9.002473354E-1,9.835680962E0
5.039385540E-1,-4.288146019E0,8.116591573E-1,8.959376335E0
5.059382200E-1,-5.540351868E0,5.650488734E-1,5.765413761E0
5.079379530E-1,-6.047938347E0,4.166038036E-1,4.654470444E0
5.099377530E-1,-6.287365437E0,6.703969836E-2,5.676825523E0
5.119374860E-1,-6.215537548E0,-2.777358890E-1,7.199584484E0
5.139372190E-1,-6.256239891E0,-4.189980924E-1,7.498868465E0
5.159369520E-1,-6.428627968E0,-5.842030644E-1,7.271412373E0
5.179366850E-1,-6.555524349E0,-6.823683381E-1,6.850020409E0
5.199364180E-1,-7.084659100E0,-7.613793612E-1,5.095016956E0
5.219361510E-1,-7.084659100E0,-7.613793612E-1,5.095016956E0
5.239355840E-1,-7.151699066E0,-8.140534163E-1,4.970514297E0
5.259353840E-1,-7.201978683E0,-8.954587579E-1,4.929811954E0
5.279351170E-1,-7.055927753E0,-8.715160489E-1,5.109382629E0
5.299348500E-1,-6.917059898E0,-8.116591573E-1,5.396695614E0
5.319345830E-1,-6.416656494E0,-6.033572555E-1,6.071880817E0
5.339343160E-1,-5.786962032E0,-3.184385598E-1,6.261028767E0
5.359340490E-1,-2.655250788E0,1.122914910E0,6.174834728E0
5.379337820E-1,3.560286522E0,4.194769382E0,5.741470814E0
5.399335150E-1,8.712765694E0,8.765439987E0,6.416656494E0
5.419333150E-1,8.712765694E0,8.765439987E0,6.416656494E0
5.439330480E-1,8.712765694E0,8.765439987E0,6.416656494E0
5.459327810E-1,7.848433018E0,9.929058075E0,6.574678421E0
5.479325140E-1,7.553936958E0,1.147575951E1,6.138920784E0
5.499322470E-1,7.266623974E0,1.221080112E1,5.786962032E0
5.519319800E-1,5.966532707E0,1.329780197E1,4.915446281E0
5.539317130E-1,5.147690773E0,1.368088627E1,4.410254002E0
5.559315130E-1,3.476486921E0,1.405199909E1,3.399870157E0
5.579308790E-1,1.951334000E0,1.391313076E1,2.518777132E0
5.599306120E-1,-2.061470509E0,1.149730778E1,1.810071707E0
5.619303450E-1,-2.061470509E0,1.149730778E1,1.810071707E0
5.639304780E-1,-3.974496126E0,8.482915878E0,1.491633177E0
5.659302780E-1,-7.424646378E0,6.998465061E0,4.956148863E-1
5.679300110E-1,-9.299363136E0,4.635315895E0,-4.046324492E-1
5.699297440E-1,-9.577098846E0,3.828445435E0,-6.871568561E-1
5.719295440E-1,-9.057541847E0,2.954535007E0,-8.140534163E-1
5.739292770E-1,-7.733507633E0,2.830032825E0,-3.567469418E-1
5.759290100E-1,-6.962551117E0,2.932986736E0,5.746259540E-2
5.779287430E-1,-5.506832123E0,3.275367975E0,1.082212210E0
5.799284760E-1,-4.151672363E0,3.634509087E0,2.525959969E0
5.819282090E-1,-4.151672363E0,3.634509087E0,2.525959969E0
5.839279420E-1,-3.921822071E0,3.550709486E0,3.215511084E0
5.859276750E-1,-3.984073162E0,3.409447432E0,3.474092722E0
5.879274750E-1,-4.369551659E0,2.990449190E0,3.890696526E0
5.899272080E-1,-4.635315895E0,2.760598898E0,4.067873001E0
5.919269410E-1,-5.185999393E0,2.403851986E0,4.326454639E0
5.939266740E-1,-5.540351868E0,2.303292274E0,4.510813713E0
5.959264070E-1,-5.621757030E0,2.363149166E0,4.582642078E0
5.979261400E-1,-5.655277252E0,2.624125242E0,4.707144260E0
5.999258730E-1,-5.595420361E0,3.035940409E0,4.934600353E0
6.019256060E-1,-5.595420361E0,3.035940409E0,4.934600353E0
6.039257720E-1,-5.581054688E0,3.059883118E0,4.999245644E0
6.059255050E-1,-5.576265812E0,3.057488918E0,5.068679810E0
6.079252380E-1,-5.585843086E0,2.956929445E0,5.221913338E0
6.099249710E-1,-5.561900616E0,2.784541607E0,5.315289974E0
6.119247040E-1,-5.473312378E0,2.693559170E0,5.561900616E0
6.139244370E-1,-5.346415520E0,2.494834423E0,5.870761871E0
6.159241700E-1,-5.286558628E0,2.415823221E0,6.052726746E0
6.179243360E-1,-5.195576191E0,2.281744003E0,6.419050694E0
6.199241360E-1,-5.245856285E0,2.233858347E0,6.993676662E0
6.219239020E-1,-5.312895775E0,2.229069948E0,7.223526955E0
6.239232680E-1,-5.341627121E0,2.159635782E0,7.304932594E0
6.259230340E-1,-5.334444046E0,2.059076309E0,7.312115192E0
6.279228000E-1,-5.276981831E0,1.939362645E0,7.383943558E0
6.299225660E-1,-5.269798756E0,1.766974807E0,7.664073467E0
6.319223320E-1,-5.300924301E0,1.664021015E0,7.795758724E0
6.339221650E-1,-5.497254848E0,1.347976685E0,7.982511997E0
6.359219980E-1,-5.609786034E0,1.209108829E0,8.102226257E0
6.379217640E-1,-5.727105141E0,1.027143836E0,8.382355690E0
6.399215300E-1,-5.456552505E0,1.048692346E0,8.734314919E0
6.419212960E-1,-5.308107376E0,1.079817891E0,8.844450951E0
6.439210620E-1,-5.162056446E0,1.115732074E0,8.949799538E0
6.459208280E-1,-5.044736862E0,1.137280583E0,9.069513321E0
6.479205940E-1,-4.893897533E0,1.144463301E0,9.320911407E0
6.499204270E-1,-4.788549423E0,1.173194647E0,9.517242432E0
6.519201930E-1,-4.702355862E0,1.228263021E0,9.605830193E0
6.539199590E-1,-4.438985348E0,1.379102230E0,9.742303848E0
6.559197250E-1,-4.288146019E0,1.474873304E0,9.799766541E0
6.579194910E-1,-3.950553417E0,1.661626697E0,9.842864037E0
6.599192570E-1,-3.222693920E0,2.006402254E0,9.402317047E0
6.619190230E-1,-3.222693920E0,2.006402254E0,9.402317047E0
6.639184230E-1,-3.067065954E0,2.078230619E0,9.167677879E0
6.659182560E-1,-2.928198099E0,2.150058746E0,8.640937805E0
6.679180220E-1,-2.822849989E0,2.130904675E0,8.382355690E0
6.699177880E-1,-2.870735407E0,1.965699673E0,8.030397415E0
6.719175540E-1,-2.846792698E0,1.843591571E0,8.044763565E0
6.739173200E-1,-2.727078915E0,1.599375606E0,8.502069473E0
6.759170860E-1,-2.727078915E0,1.383890867E0,8.913885117E0
6.779168520E-1,-2.767781734E0,1.276148438E0,9.014444351E0
6.799166180E-1,-3.062277555E0,8.763045669E-1,9.299363136E0
6.819164180E-1,-3.062277555E0,8.763045669E-1,9.299363136E0
6.839161510E-1,-3.124528646E0,8.020820618E-1,9.390345573E0
6.859158840E-1,-3.074248791E0,6.895511150E-1,9.613013268E0
6.879156170E-1,-2.980872154E0,6.488484740E-1,9.759063721E0
6.899153500E-1,-2.889889717E0,4.573064744E-1,1.041749001E1
6.919150830E-1,-2.825244188E0,3.759011328E-1,1.071198559E1
6.939148160E-1,-2.667222023E0,2.801301479E-1,1.100648117E1
6.959145490E-1,-2.549902678E0,2.322446555E-1,1.095859623E1
6.979143490E-1,-2.480468750E0,2.346389294E-1,1.089634418E1
6.999140820E-1,-1.848380208E0,4.285751879E-1,1.077663136E1
7.019138150E-1,-1.848380208E0,4.285751879E-1,1.077663136E1
7.039135480E-1,-1.661626697E0,4.980091453E-1,1.080536175E1
7.059132810E-1,-1.417410731E0,6.296942830E-1,1.087958431E1
7.079130140E-1,-1.391073704E0,6.584255695E-1,1.091789341E1
7.099127470E-1,-1.527547359E0,6.464542150E-1,1.095380688E1
7.119125470E-1,-1.652049661E0,5.578660369E-1,1.080536175E1
7.139123470E-1,-1.927391171E0,5.219519138E-1,1.067607117E1
7.159120800E-1,-2.236252785E0,4.692778587E-1,1.033608437E1
7.179118130E-1,-2.379909277E0,4.405465722E-1,1.015172482E1
7.199115460E-1,-2.777358770E0,3.854782581E-1,9.198803902E0
7.219112790E-1,-2.813272953E0,3.830839694E-1,8.918673515E0
7.239113450E-1,-2.813272953E0,3.830839694E-1,8.918673515E0
7.259110780E-1,-2.820455790E0,3.567469418E-1,8.305739403E0
7.279108780E-1,-2.803695917E0,3.423812985E-1,8.001666069E0
7.299106780E-1,-2.815667152E0,2.825244367E-1,7.470137596E0
7.319104110E-1,-2.985660791E0,2.513988614E-1,7.055927753E0
7.339101440E-1,-3.091008663E0,2.442160249E-1,6.895511627E0
7.359098770E-1,-3.354378939E0,2.561874092E-1,6.584255695E0
7.379096100E-1,-3.474092722E0,2.849186957E-1,6.423839092E0
7.399093430E-1,-3.931399345E0,5.075862408E-1,5.492466450E0
7.419090760E-1,-3.931399345E0,5.075862408E-1,5.492466450E0
7.439088760E-1,-4.034353256E0,6.201171875E-1,5.212336063E0
7.459086090E-1,-4.230683804E0,8.547561169E-1,4.774183750E0
7.479083420E-1,-4.338426113E0,9.744698405E-1,4.635315895E0
7.499080750E-1,-5.806116581E0,1.261782765E0,4.750241280E0
7.519078080E-1,-1.272557068E1,1.687963724E0,7.688016415E0
7.539075410E-1,-1.230896664E1,1.788523316E0,8.798959732E0
7.559072740E-1,-8.023215294E0,1.477267504E0,1.001046276E1
7.579070070E-1,-6.524398804E0,6.440598965E-1,1.072874546E1
7.599068070E-1,-5.437397957E0,-7.206767201E-1,1.014454269E1
7.619065400E-1,-5.437397957E0,-7.206767201E-1,1.014454269E1
7.639063060E-1,-5.423032284E0,-9.337671995E-1,9.505270958E0
7.659060390E-1,-4.829252243E0,-8.978530765E-1,7.982511997E0
7.679057720E-1,-4.008016109E0,-4.716721475E-1,7.132544518E0
7.699055050E-1,-3.641691923E0,-2.130904645E-1,7.209161282E0
7.719052380E-1,-2.873129845E0,2.274561077E-1,8.336864471E0
7.739049710E-1,-2.427794695E0,4.070267081E-1,9.021627426E0
7.759047710E-1,-1.556278586E0,5.889915824E-1,9.833286285E0
7.779045040E-1,-7.182824612E-1,3.184385598E-1,9.646533012E0
7.799042370E-1,-3.208328187E-1,-2.202732861E-1,7.956175327E0
7.819039700E-1,-3.854782581E-1,-2.561874092E-1,7.225921154E0
7.839033700E-1,-3.854782581E-1,-2.561874092E-1,7.225921154E0
7.859031030E-1,-6.009629965E-1,-2.873129845E-1,6.225114346E0
7.879028360E-1,-9.313728809E-1,-3.471698463E-1,6.009629726E0
7.899025690E-1,-1.115732074E0,-3.591412306E-1,6.136526108E0
7.919023690E-1,-1.496421814E0,-2.561874092E-1,6.632141113E0
7.939021020E-1,-1.692752242E0,-1.460507661E-1,6.914665699E0
7.959018350E-1,-2.049499273E0,5.267404765E-2,7.460560322E0
7.979015680E-1,-2.382303476E0,1.675992310E-1,7.884346962E0
7.999013010E-1,-2.755810261E0,3.399870098E-1,8.233911514E0
8.019010340E-1,-2.755810261E0,3.399870098E-1,8.233911514E0
8.039007670E-1,-2.863552570E0,3.830839694E-1,8.411087036E0
8.059005670E-1,-3.074248791E0,3.663240373E-1,8.533195496E0
8.079003670E-1,-3.268185139E0,2.681587934E-1,8.861210823E0
8.099001000E-1,-3.328042030E0,2.274561077E-1,9.047964096E0
8.118998330E-1,-3.438178539E0,1.436564922E-1,9.488511086E0
8.138995660E-1,-3.531555414E0,4.309694469E-2,9.984126091E0
8.158992990E-1,-3.579440832E0,9.577099234E-3,1.023791885E1
8.178990320E-1,-3.668029070E0,-4.309694469E-2,1.079099655E1
8.198987650E-1,-3.864359617E0,-7.901106775E-2,1.162180996E1
8.218985650E-1,-3.921822071E0,-9.577099234E-2,1.192588329E1
8.238982650E-1,-3.962524891E0,-1.005595401E-1,1.220361900E1
8.258979980E-1,-3.964919090E0,-1.077423692E-1,1.244783497E1
8.278977310E-1,-3.890696526E0,-1.819648892E-1,1.281415844E1
8.298974640E-1,-3.814079762E0,-2.298503816E-1,1.294823837E1
8.318971970E-1,-3.555498123E0,-3.447755575E-1,1.316851139E1
8.338969300E-1,-3.203539610E0,-4.716721475E-1,1.338878441E1
8.358966630E-1,-3.002420664E0,-5.195576549E-1,1.353962421E1
8.378964630E-1,-2.552296877E0,-5.626545548E-1,1.378623390E1
8.398961960E-1,-1.680780888E0,-6.033572555E-1,1.358032703E1
8.418959290E-1,-1.680780888E0,-6.033572555E-1,1.358032703E1
8.438953620E-1,-1.551490068E0,-6.632141471E-1,1.348694992E1
8.458950950E-1,-1.450930476E0,-7.302538157E-1,1.340315056E1
8.478948280E-1,-1.280937076E0,-8.906702399E-1,1.323315716E1
8.498945610E-1,-1.209108829E0,-1.067846537E0,1.303922081E1
8.518942940E-1,-1.036720991E0,-1.168406129E0,1.293387222E1
8.538940940E-1,-8.068706393E-1,-1.333611012E0,1.267529106E1
8.558938270E-1,-6.967339516E-1,-1.395862222E0,1.251966286E1
8.578935600E-1,-4.716721475E-1,-1.484450340E0,1.217728138E1
8.598932930E-1,-2.274561077E-1,-1.577827096E0,1.158829021E1
8.618930260E-1,-1.747820675E-1,-1.585009933E0,1.138477707E1
8.638927590E-1,-1.436564922E-1,-1.585009933E0,1.119084072E1
8.658924920E-1,-1.292908341E-1,-1.582615614E0,1.100648117E1
8.678922250E-1,-1.364736706E-1,-1.596981287E0,1.063297462E1
8.698920250E-1,-1.173194647E-1,-1.587404251E0,1.025228500E1
8.718917580E-1,-8.858817071E-2,-1.582615614E0,1.007032013E1
8.738914910E-1,-4.788549617E-2,-1.568249941E0,9.708784103E0
8.758912240E-1,2.394274808E-3,-1.558672905E0,9.526819229E0
8.778909570E-1,1.556278616E-1,-1.549095750E0,9.198803902E0
8.798906900E-1,4.740664065E-1,-1.541913033E0,8.621783257E0
8.818904230E-1,4.740664065E-1,-1.541913033E0,8.621783257E0
8.838902560E-1,5.291347504E-1,-1.549095750E0,8.490098000E0
8.858900560E-1,5.602602959E-1,-1.577827096E0,8.372778893E0
8.878897890E-1,5.842030644E-1,-1.620923996E0,8.221940041E0
8.898895220E-1,6.296942830E-1,-1.680780888E0,8.145322800E0
8.918892550E-1,6.608198285E-1,-1.716695070E0,8.111803055E0
8.938889880E-1,8.212362528E-1,-1.817254543E0,8.080677032E0
8.958887210E-1,1.019961119E0,-2.035133600E0,8.092648506E0
8.978884540E-1,1.336005330E0,-2.059076309E0,8.150111198E0
8.998882540E-1,1.766974807E0,-2.023162127E0,8.375173569E0
9.018879870E-1,1.766974807E0,-2.023162127E0,8.375173569E0
9.038880200E-1,1.886688590E0,-2.030344963E0,8.447001457E0
9.058877530E-1,2.121327400E0,-2.047105074E0,8.607418060E0
9.078874860E-1,2.214704275E0,-2.056682110E0,8.684034348E0
9.098872190E-1,2.360754967E0,-2.061470509E0,8.815719604E0
9.118869520E-1,2.423006058E0,-2.073441982E0,8.861210823E0
9.138866850E-1,2.549902678E0,-2.116539001E0,8.892336845E0
9.158864850E-1,2.681587696E0,-2.178790092E0,8.856422424E0
9.178862180E-1,2.734261751E0,-2.212309837E0,8.820508003E0
9.198859510E-1,2.789330244E0,-2.341600657E0,8.636149406E0
9.218856840E-1,2.789330244E0,-2.341600657E0,8.636149406E0
9.238854170E-1,2.767781734E0,-2.387091875E0,8.583475113E0
9.258851500E-1,2.712713242E0,-2.432583094E0,8.482915878E0
9.278848830E-1,2.676799297E0,-2.456526041E0,8.403904915E0
9.298846160E-1,2.609759569E0,-2.525959969E0,8.193208694E0
9.318844160E-1,2.590605259E0,-2.554691315E0,8.063917160E0
9.338841490E-1,2.588211060E0,-2.592999697E0,7.793364525E0
9.358838820E-1,2.607365370E0,-2.674404860E0,7.558725357E0
9.378836150E-1,2.602576733E0,-2.715107679E0,7.441406250E0
9.398833480E-1,2.549902678E0,-2.887495518E0,6.895511627E0
9.418830810E-1,2.549902678E0,-2.887495518E0,6.895511627E0
9.438827810E-1,2.511594296E0,-2.916226625E0,6.727912426E0
9.458825140E-1,2.401457548E0,-2.995237827E0,6.423839092E0
9.478823140E-1,2.339206457E0,-3.021574736E0,6.294548512E0
9.498820470E-1,2.142875910E0,-3.023969173E0,6.052726746E0
9.518817800E-1,1.946545362E0,-3.009603500E0,5.803721905E0
9.538815130E-1,1.836408734E0,-2.985660791E0,5.660065651E0
9.558812460E-1,1.525153041E0,-2.940169573E0,5.365570068E0
9.578809790E-1,1.326428294E0,-2.913832426E0,5.236279011E0
9.598803790E-1,2.537931204E-1,-2.842004299E0,4.984879971E0
9.618801790E-1,2.537931204E-1,-2.842004299E0,4.984879971E0
9.638799790E-1,-7.661679387E-2,-2.810878515E0,4.980091572E0
9.658797120E-1,-7.972934842E-1,-2.729473352E0,5.049525738E0
9.678794450E-1,-1.173194647E0,-2.674404860E0,5.128536701E0
9.698791780E-1,-1.920208454E0,-2.525959969E0,5.312895775E0
9.718789110E-1,-2.660039425E0,-2.310475111E0,5.518803596E0
9.738786440E-1,-3.009603500E0,-2.190761566E0,5.636122704E0
9.758783770E-1,-3.670423269E0,-1.965699673E0,5.904281616E0
9.778781770E-1,-3.967313290E0,-1.850774407E0,6.043149471E0
9.798779770E-1,-4.860377789E0,-1.491633177E0,6.737489223E0
9.818776770E-1,-4.860377789E0,-1.491633177E0,6.737489223E0
9.838774100E-1,-5.011217117E0,-1.426987767E0,6.941002846E0
9.858771430E-1,-5.231490612E0,-1.324033976E0,7.345634937E0
9.878768760E-1,-5.293741703E0,-1.283331275E0,7.546754360E0
9.898766090E-1,-5.358386993E0,-1.271359921E0,7.925049782E0
9.918763420E-1,-5.408666611E0,-1.247417212E0,8.288979530E0
9.938761420E-1,-5.437397957E0,-1.247417212E0,8.480521202E0
9.958758750E-1,-5.499649048E0,-1.261782765E0,8.880365372E0
9.978756080E-1,-5.564294815E0,-1.254600048E0,9.237112045E0
9.998753410E-1,-5.631334305E0,-1.206714511E0,9.689630508E0
1.001875074E0,-5.631334305E0,-1.206714511E0,9.689630508E0
1.003874807E0,-5.664854050E0,-1.182771802E0,9.823709488E0
1.005874540E0,-5.712739468E0,-1.118126392E0,1.008708000E1
1.007874273E0,-5.777385235E0,-1.051086664E0,1.035044956E1
1.009874073E0,-5.818087578E0,-1.019961119E0,1.046537495E1
1.011873806E0,-5.952167034E0,-9.960182905E-1,1.070240879E1
1.013873539E0,-6.031178474E0,-1.000806928E0,1.081493950E1
1.015873272E0,-6.227508545E0,-1.065452337E0,1.106154919E1
1.017873005E0,-6.529187202E0,-1.161223292E0,1.135843945E1
1.019873071E0,-7.055927753E0,-1.266571403E0,1.182053471E1
1.021872804E0,-7.247469902E0,-1.285725594E0,1.197616291E1
1.023872537E0,-7.247469902E0,-1.285725594E0,1.197616291E1
1.025872337E0,-7.642525196E0,-1.295302629E0,1.228741837E1
1.027872103E0,-8.039975166E0,-1.266571403E0,1.259149075E1
1.029871869E0,-8.233911514E0,-1.242628574E0,1.272078228E1
1.031871635E0,-8.602629662E0,-1.204320192E0,1.296020985E1
1.033871401E0,-8.796566010E0,-1.142069101E0,1.307513428E1
1.035871167E0,-9.146129608E0,-1.118126392E0,1.323315716E1
1.037870933E0,-9.490905762E0,-1.067846537E0,1.330259037E1
1.039870699E0,-1.005595398E1,-8.044763207E-1,1.314696312E1
1.041870565E0,-1.005595398E1,-7.805336118E-1,1.314696312E1
1.043870331E0,-1.035044956E1,-7.541965842E-1,1.265613651E1
1.045870097E0,-1.054678059E1,-7.110996246E-1,1.234727478E1
1.047869863E0,-1.093225861E1,-6.009629965E-1,1.173194695E1
1.049869629E0,-1.113337803E1,-5.458946824E-1,1.145899963E1
1.051869395E0,-1.154040432E1,-4.237866402E-1,1.100887585E1
1.053869161E0,-1.187560272E1,-2.705530524E-1,1.065452290E1
1.055868994E0,-1.200968266E1,-1.987248063E-1,1.049171257E1
1.057868827E0,-1.218206978E1,-5.746259540E-2,1.020439911E1
1.059868593E0,-1.227065849E1,1.364736706E-1,9.799766541E0
1.061868359E0,-1.227065849E1,1.939362586E-1,9.672870636E0
1.063868125E0,-1.220122433E1,2.322446555E-1,9.548367500E0
1.065867891E0,-1.214615631E1,2.609759569E-1,9.416683197E0
1.067867657E0,-1.198095131E1,2.921015322E-1,9.184437752E0
1.069867423E0,-1.188757420E1,2.921015322E-1,9.093455315E0
1.071867256E0,-1.166969585E1,2.585816681E-1,8.940221786E0
1.073867022E0,-1.145181656E1,1.987248063E-1,8.818114281E0
1.075866788E0,-1.132970810E1,1.723877788E-1,8.784594536E0
1.077866554E0,-1.112619495E1,7.901106775E-2,8.727131844E0
1.079866320E0,-1.076944828E1,-5.746259540E-2,8.724737167E0
1.081866086E0,-1.076944828E1,-5.746259540E-2,8.724737167E0
1.083865852E0,-1.067128277E1,-6.225114316E-2,8.748680115E0
1.085865618E0,-1.058987713E1,-5.985686928E-2,8.770228386E0
1.087865418E0,-1.044382668E1,-6.943397224E-2,8.806142807E0
1.089865151E0,-1.038875866E1,-8.379961550E-2,8.810931206E0
1.091864884E0,-1.031692982E1,-8.619388938E-2,8.798959732E0
1.093864617E0,-1.025946712E1,-7.901106775E-2,8.739103317E0
1.095864350E0,-1.026186180E1,-8.379961550E-2,8.705583572E0
1.097864083E0,-1.028580475E1,-9.816526622E-2,8.619389534E0
1.099863816E0,-1.037918091E1,-1.436564922E-1,8.391933441E0
1.101863549E0,-1.041270161E1,-1.436564922E-1,8.391933441E0
1.103863349E0,-1.043664360E1,-1.843591630E-1,8.341653824E0
1.105863082E0,-1.045819283E1,-2.250618339E-1,8.308133125E0
1.107862815E0,-1.051565456E1,-3.160442710E-1,8.293767929E0
1.109862548E0,-1.063057995E1,-4.668835998E-1,8.358413696E0
1.111862281E0,-1.070480251E1,-5.435003638E-1,8.425453186E0
1.113862014E0,-1.085085297E1,-6.991282701E-1,8.614601135E0
1.115861747E0,-1.092747021E1,-7.709565163E-1,8.731920242E0
1.117861480E0,-1.110704041E1,-8.739103079E-1,8.980924606E0
1.119861280E0,-1.134886265E1,-1.010383964E0,9.328094482E0
1.121861013E0,-1.143745041E1,-1.010383964E0,9.423865318E0
1.123860746E0,-1.153322220E1,-1.036720991E0,9.507665634E0
1.125860479E0,-1.164575291E1,-1.058269501E0,9.593858719E0
1.127860212E0,-1.188278580E1,-1.101366401E0,9.754275322E0
1.129859945E0,-1.215812778E1,-1.110943556E0,9.850046158E0
1.131859678E0,-1.231136131E1,-1.134886265E0,9.890748978E0
1.133859478E0,-1.263219357E1,-1.177983165E0,9.936240196E0
1.135859278E0,-1.277824497E1,-1.223474383E0,9.931451797E0
1.137859011E0,-1.307274055E1,-1.261782765E0,9.897932053E0
1.139858744E0,-1.348216152E1,-1.520364523E0,9.811738014E0
1.141858477E0,-1.348216152E1,-1.520364523E0,9.811738014E0
1.143858210E0,-1.354920101E1,-1.594586968E0,9.806949615E0
1.145857943E0,-1.367849159E1,-1.726272106E0,9.759063721E0
1.147857676E0,-1.372398281E1,-1.802888989E0,9.713572502E0
1.149857476E0,-1.379820538E1,-1.941756845E0,9.584281921E0
1.151857209E0,-1.381017685E1,-1.994430900E0,9.481328011E0
1.153856942E0,-1.380060005E1,-2.063864946E0,9.246688843E0
1.155856675E0,-1.372637749E1,-2.087807655E0,8.968953133E0
1.157856408E0,-1.366652107E1,-2.085413456E0,8.810931206E0
1.159856141E0,-1.317569447E1,-1.944151163E0,8.104619980E0
1.161855874E0,-1.317569447E1,-1.944151163E0,8.104619980E0
1.163855607E0,-1.299851799E1,-1.771763325E0,7.850827217E0
1.165855407E0,-1.274233055E1,-1.573038578E0,7.343240738E0
1.167855140E0,-1.266810799E1,-1.575432777E0,7.075081825E0
1.169854873E0,-1.257473087E1,-1.683175206E0,6.512427330E0
1.171854606E0,-1.256515408E1,-1.752609134E0,6.205960274E0
1.173854339E0,-1.256036568E1,-1.877111435E0,5.511620522E0
1.175854072E0,-1.253881741E1,-1.903448462E0,4.743058205E0
1.177853805E0,-1.250290298E1,-1.903448462E0,4.352791786E0
1.179853538E0,-1.225629234E1,-1.805283189E0,2.921015263E0
1.181853338E0,-1.225629234E1,-1.805283189E0,2.921015263E0
1.183853071E0,-1.218925285E1,-1.769369125E0,2.607365370E0
1.185852804E0,-1.208390522E1,-1.709512234E0,2.073441982E0
1.187852537E0,-1.204080772E1,-1.680780888E0,1.841197371E0
1.189852270E0,-1.195940304E1,-1.582615614E0,1.431776285E0
1.191852003E0,-1.190912247E1,-1.501210332E0,1.034326673E0
1.193851736E0,-1.188996887E1,-1.450930476E0,8.451790214E-1
1.195851469E0,-1.183968925E1,-1.369525194E0,5.435003638E-1
1.197851269E0,-1.183011150E1,-1.340793848E0,4.333637357E-1
1.199851002E0,-1.181335163E1,-1.304879785E0,1.963305324E-1
1.201850702E0,-1.181335163E1,-1.304879785E0,1.963305324E-1
1.203850968E0,-1.184926605E1,-1.307274103E0,1.939362586E-1
1.205850701E0,-1.197137451E1,-1.115732074E0,1.532335877E-1
1.207850434E0,-1.207911682E1,-9.433442950E-1,1.580221355E-1
1.209850167E0,-1.238797760E1,-9.265843630E-1,3.280156553E-1
1.211849967E0,-1.274233055E1,-1.182771802E0,6.320885420E-1
1.213849767E0,-1.290274715E1,-1.319245458E0,7.948992252E-1
1.215849500E0,-1.315175152E1,-1.496421814E0,1.134886265E0
1.217849233E0,-1.323794556E1,-1.549095750E0,1.300091267E0
1.219848966E0,-1.355638409E1,-1.632895470E0,2.284138203E0
1.221848699E0,-1.355638409E1,-1.632895470E0,2.284138203E0
1.223848432E0,-1.363300037E1,-1.604164124E0,2.597788095E0
1.225848165E0,-1.371919441E1,-1.525153041E0,3.234665155E0
1.227847965E0,-1.374792576E1,-1.470084786E0,3.780560017E0
1.229847765E0,-1.375750351E1,-1.446141958E0,3.988861799E0
1.231847098E0,-1.370961761E1,-1.405439258E0,4.319271564E0
1.233846831E0,-1.368088627E1,-1.374313712E0,4.429408550E0
1.235846564E0,-1.360187531E1,-1.285725594E0,4.549122334E0
1.237846297E0,-1.345821857E1,-1.209108829E0,4.565882206E0
1.239846030E0,-1.302964306E1,-1.122914910E0,4.348002911E0
1.241845763E0,-1.302964306E1,-1.122914910E0,4.348002911E0
1.243845563E0,-1.281415844E1,-1.098972082E0,4.209135056E0
1.245845329E0,-1.228741837E1,-1.048692346E0,3.790137053E0
1.247845095E0,-1.169124413E1,-9.984126091E-1,3.217905283E0
1.249844861E0,-1.137519932E1,-9.912297726E-1,2.887495518E0
1.251844627E0,-1.074790001E1,-1.010383964E0,2.174001455E0
1.253844393E0,-1.045579815E1,-1.031932473E0,1.824437380E0
1.255844159E0,-9.926663399E0,-1.115732074E0,1.151646137E0
1.257843925E0,-9.481328011E0,-1.177983165E0,5.937801600E-1
1.259843758E0,-8.937828064E0,-1.201925993E0,-2.801301479E-1
1.261843591E0,-8.937828064E0,-1.201925993E0,-2.801301479E-1
1.263842857E0,-8.937828064E0,-1.201925993E0,-2.801301479E-1
1.265842657E0,-8.801354408E0,-1.142069101E0,-6.823683381E-1
1.267842457E0,-8.861210823E0,-1.072635174E0,-1.113337755E0
1.269842257E0,-8.921068192E0,-1.027143836E0,-1.288119793E0
1.271842057E0,-9.016839027E0,-9.385557175E-1,-1.546701550E0
1.273841857E0,-9.014444351E0,-8.356019258E-1,-1.704723716E0
1.275841723E0,-8.923461914E0,-7.805336118E-1,-1.793311834E0
1.277841589E0,-8.736708641E0,-6.680026650E-1,-2.001613855E0
1.279841455E0,-8.468549728E0,-5.506832004E-1,-2.411034822E0
1.281841321E0,-8.468549728E0,-5.506832004E-1,-2.411034822E0
1.283841187E0,-8.312922478E0,-5.195576549E-1,-2.700742006E0
1.285841053E0,-8.288979530E0,-5.171633363E-1,-2.822849989E0
1.287840919E0,-8.109408379E0,-5.387118459E-1,-3.002420664E0
1.289840785E0,-8.001666069E0,-5.554717779E-1,-3.098191500E0
1.291841118E0,-7.668862343E0,-5.961744189E-1,-3.330436230E0
1.293840984E0,-7.175641537E0,-6.440598965E-1,-3.691971779E0
1.295840850E0,-6.929031372E0,-6.608198285E-1,-3.929004908E0
1.297840716E0,-6.402290821E0,-7.398309112E-1,-4.436591148E0
1.299840582E0,-4.755029678E0,-1.312062621E0,-5.047131062E0
1.301840448E0,-4.532361984E0,-1.520364523E0,-5.162056446E0
1.303840314E0,-4.515602112E0,-1.675992370E0,-5.284164429E0
1.305840214E0,-4.525179386E0,-1.795706153E0,-5.423032284E0
1.307840114E0,-4.652075768E0,-1.898659945E0,-5.698374271E0
1.309839947E0,-4.798126698E0,-1.872322917E0,-5.818087578E0
1.311839780E0,-5.202759266E0,-1.719089270E0,-6.016812801E0
1.313839613E0,-5.480494976E0,-1.508393168E0,-6.162863255E0
1.315839446E0,-5.578660488E0,-1.403045058E0,-6.232297421E0
1.317839279E0,-5.621757030E0,-1.225868702E0,-6.414262295E0
1.319839112E0,-5.121353626E0,-7.134938836E-1,-6.996070862E0
1.321838978E0,-5.121353626E0,-7.134938836E-1,-6.996070862E0
1.323838778E0,-5.140508175E0,-6.584255695E-1,-7.182824612E0
1.325838578E0,-5.248250484E0,-6.105400920E-1,-7.304932594E0
1.327838378E0,-5.664854050E0,-5.650488734E-1,-7.446194649E0
1.329838178E0,-6.330462456E0,-6.680026650E-1,-7.357606411E0
1.331837978E0,-6.737489223E0,-7.565908432E-1,-7.201978683E0
1.333837778E0,-7.632947922E0,-1.000806928E0,-6.766220570E0
1.335836644E0,-8.104619980E0,-1.139674783E0,-6.517216206E0
1.337836444E0,-8.966559410E0,-1.472478986E0,-6.105400562E0
1.339836177E0,-9.960183144E0,-1.932179809E0,-5.695979595E0
1.341835910E0,-1.017087936E1,-2.090201855E0,-5.648094177E0
1.343835643E0,-1.035284424E1,-2.248224020E0,-5.628940105E0
1.345835376E0,-1.045340347E1,-2.399063349E0,-5.643305779E0
1.347835109E0,-1.047495270E1,-2.712713242E0,-5.710345268E0
1.349834842E0,-1.040073013E1,-2.947352171E0,-5.746259689E0
1.351834575E0,-1.033129597E1,-3.033546209E0,-5.743865490E0
1.353834375E0,-1.007032013E1,-3.146077156E0,-5.624151707E0
1.355834108E0,-9.924268723E0,-3.179596901E0,-5.454157829E0
1.357833841E0,-9.651321411E0,-3.186779737E0,-4.903474808E0
1.359833574E0,-9.186832428E0,-3.007209063E0,-3.498035431E0
1.361833307E0,-9.002472878E0,-3.007209063E0,-2.937775135E0
1.363833040E0,-8.846845627E0,-2.956929445E0,-2.399063349E0
1.365832773E0,-8.722343445E0,-2.846792698E0,-1.884294271E0
1.367832506E0,-8.499675751E0,-2.806090117E0,-9.577099085E-1
1.369832306E0,-8.358413696E0,-2.796513081E0,-1.963305324E-1
1.371832039E0,-8.315316200E0,-2.806090117E0,1.053480953E-1
1.373831772E0,-8.279402733E0,-2.842004299E0,6.081457734E-1
1.375831505E0,-8.142929077E0,-2.870735407E0,1.010383964E0
1.377831238E0,-8.047157288E0,-2.875524044E0,1.194743156E0
1.379830971E0,-7.486897469E0,-2.930592299E0,1.951334000E0
1.381830704E0,-7.486897469E0,-2.930592299E0,1.951334000E0
1.383830804E0,-7.345634937E0,-2.964112282E0,2.123721838E0
1.385830604E0,-7.099024773E0,-3.050306082E0,2.480468750E0
1.387830337E0,-6.981705189E0,-3.122134447E0,2.691164970E0
1.389830070E0,-6.701575279E0,-3.304099321E0,3.165231228E0
1.391829803E0,-6.567495823E0,-3.390293121E0,3.438178539E0
1.393829536E0,-6.368771076E0,-3.481275558E0,4.072661400E0
1.395830202E0,-6.280182838E0,-3.462121487E0,4.731087208E0
1.397829935E0,-6.296942711E0,-3.407052994E0,5.049525738E0
1.399829735E0,-6.363982677E0,-3.141288519E0,6.052726746E0
1.401829535E0,-6.363982677E0,-3.141288519E0,6.052726746E0
1.403829268E0,-6.481301785E0,-3.079037428E0,6.210748672E0
1.405829001E0,-6.905088425E0,-2.916226625E0,6.486090660E0
1.407828734E0,-7.204372883E0,-2.808484316E0,6.589044094E0
1.409828467E0,-7.807730198E0,-2.530748367E0,6.636929989E0
1.411828200E0,-8.073494911E0,-2.209915638E0,6.567495823E0
1.413827933E0,-8.468549728E0,-2.047105074E0,6.316096783E0
1.415827733E0,-8.729525566E0,-1.740637779E0,5.868367672E0
1.417827466E0,-8.834874153E0,-1.582615614E0,5.631334305E0
1.419827199E0,-9.174860954E0,-1.079817891E0,4.647287369E0
1.421826932E0,-9.174860954E0,-1.079817891E0,4.647287369E0
1.423826665E0,-9.273026466E0,-1.003201127E0,4.405465603E0
1.425826398E0,-9.435836792E0,-8.691217303E-1,3.936187744E0
1.427826131E0,-9.486116409E0,-8.188419938E-1,3.691971779E0
1.429825864E0,-9.526819229E0,-7.278595567E-1,3.229876757E0
1.431825664E0,-9.452596664E0,-6.799740195E-1,2.762993097E0
1.433825397E0,-9.390345573E0,-6.799740195E-1,2.537931204E0
1.435825130E0,-9.232323647E0,-6.919454336E-1,2.099778891E0
1.437824863E0,-9.146129608E0,-6.751855016E-1,1.901054144E0
1.439824596E0,-8.930644989E0,-8.667274714E-1,1.089395046E0
1.441824329E0,-8.935433388E0,-9.409499764E-1,9.457385540E-1
1.443823762E0,-8.935433388E0,-9.409499764E-1,9.457385540E-1
1.445823495E0,-8.985713005E0,-1.075029373E0,7.518022656E-1
1.447823295E0,-9.021627426E0,-1.177983165E0,7.302538157E-1
1.449823028E0,-9.210775375E0,-1.336005330E0,8.092648983E-1
1.451822761E0,-9.234718323E0,-1.474873304E0,1.166011810E0
1.453822494E0,-9.155706406E0,-1.537124395E0,1.446141958E0
1.455822227E0,-8.870788574E0,-1.606558442E0,2.106961727E0
1.457821960E0,-8.679245949E0,-1.474873304E0,2.446948767E0
1.459821693E0,-7.506051540E0,-1.359948039E0,3.629720688E0
1.461821426E0,-7.506051540E0,-1.359948039E0,3.629720688E0
1.463821226E0,-7.237892628E0,-1.580221415E0,3.790137053E0
1.465820959E0,-7.381549358E0,-1.714300752E0,4.197163582E0
1.467820692E0,-7.429434776E0,-1.908236980E0,4.551516533E0
1.469820425E0,-7.668862343E0,-1.905842781E0,4.755029678E0
1.471820158E0,-7.951386452E0,-1.889082789E0,5.166844845E0
1.473819891E0,-8.061523438E0,-1.879505754E0,5.365570068E0
1.475819624E0,-8.241093636E0,-1.884294271E0,5.774991035E0
1.477819424E0,-8.274613380E0,-1.898659945E0,6.146103382E0
1.479819224E0,-8.401510239E0,-1.867534399E0,6.715940952E0
1.481818957E0,-8.401510239E0,-1.867534399E0,6.715940952E0
1.483818690E0,-8.370385170E0,-1.853168726E0,6.864386082E0
1.485818423E0,-8.535589218E0,-1.800494671E0,7.170853138E0
1.487818156E0,-8.672063828E0,-1.769369125E0,7.446194649E0
1.489817889E0,-8.746285439E0,-1.757397652E0,7.541965485E0
1.491817622E0,-8.887548447E0,-1.750214934E0,7.640130997E0
1.493817422E0,-8.976136208E0,-1.735849261E0,7.673650742E0
1.495817155E0,-8.928250313E0,-1.788523316E0,7.654496670E0
1.497816888E0,-8.875576973E0,-1.884294271E0,7.577879906E0
1.499816621E0,-8.619389534E0,-2.157241583E0,7.371972084E0
1.501816321E0,-8.475732803E0,-2.157241583E0,7.249864101E0
1.503816054E0,-8.475732803E0,-2.162030220E0,7.249864101E0
1.505816520E0,-8.382355690E0,-2.159635782E0,7.118178844E0
1.507816253E0,-8.243488312E0,-2.171607256E0,7.163670063E0
1.509816053E0,-8.087860107E0,-2.176395893E0,7.221132755E0
1.511815786E0,-7.606611252E0,-2.221887112E0,7.266623974E0
1.513815519E0,-7.237892628E0,-2.300898075E0,7.264229774E0
1.515815252E0,-7.120573044E0,-2.343995094E0,7.247469902E0
1.517814985E0,-7.271412373E0,-2.312869549E0,7.307326794E0
1.519814718E0,-7.568302631E0,-2.260195494E0,7.525205612E0
1.521814451E0,-7.568302631E0,-2.260195494E0,7.525205612E0
1.523814184E0,-7.666468143E0,-2.183578730E0,7.623371124E0
1.525813984E0,-7.673650742E0,-2.145270348E0,7.637736797E0
1.527813717E0,-7.623371124E0,-2.059076309E0,7.573091030E0
1.529813450E0,-7.582668304E0,-2.025556564E0,7.477320194E0
1.531813183E0,-7.522811413E0,-1.984853864E0,7.233104229E0
1.533812916E0,-7.506051540E0,-2.001613855E0,6.984099388E0
1.535812649E0,-7.525205612E0,-2.004008055E0,6.866780281E0
1.537812382E0,-7.580274105E0,-1.922602654E0,6.632141113E0
1.539812115E0,-7.647313595E0,-1.776551962E0,6.356799603E0
1.541811915E0,-7.644919395E0,-1.723877907E0,6.270605564E0
1.543811648E0,-7.604216576E0,-1.690358043E0,6.165257454E0
1.545811381E0,-7.549148560E0,-1.654443860E0,6.045543671E0
1.547811114E0,-7.515628815E0,-1.549095750E0,5.854001999E0
1.549810847E0,-7.491685867E0,-1.489238977E0,5.798933506E0
1.551810580E0,-7.422251701E0,-1.422199249E0,5.763019562E0
1.553810313E0,-7.371972084E0,-1.350371003E0,5.837242126E0
1.555810113E0,-7.360000610E0,-1.319245458E0,5.937801361E0
1.557809913E0,-7.398309231E0,-1.285725594E0,6.261028767E0
1.559809646E0,-7.496474266E0,-1.268965602E0,7.113390446E0
1.561809379E0,-7.496474266E0,-1.268965602E0,7.113390446E0
1.563809112E0,-7.529994488E0,-1.283331275E0,7.309720993E0
1.565808112E0,-7.549148560E0,-1.295302629E0,7.479714394E0
1.567807845E0,-7.606611252E0,-1.268965602E0,7.747873306E0
1.569807578E0,-7.704776287E0,-1.225868702E0,7.968146324E0
1.571807378E0,-7.733507633E0,-1.216291547E0,8.037580490E0
1.573807111E0,-7.719141960E0,-1.245022893E0,8.066311836E0
1.575806844E0,-7.735901833E0,-1.240234375E0,8.061523438E0
1.577806577E0,-7.834067345E0,-1.154040456E0,8.087860107E0
1.579806310E0,-7.570696831E0,-5.291347504E-1,8.272219658E0
1.581806043E0,-7.264229774E0,-1.532335877E-1,8.329682350E0
1.583805776E0,-7.276201248E0,-3.112557158E-2,8.382355690E0
1.585805509E0,-7.529994488E0,2.633702382E-2,8.435029984E0
1.587805309E0,-7.941809654E0,4.788549617E-2,8.389538765E0
1.589805042E0,-8.166871071E0,-3.711125851E-1,8.205180168E0
1.591804775E0,-8.257853508E0,-5.698373914E-1,8.066311836E0
1.593804508E0,-8.401510239E0,-1.022355318E0,7.757450581E0
1.595804241E0,-8.487704277E0,-1.211503029E0,7.673650742E0
1.597803974E0,-8.590658188E0,-1.410227895E0,7.582668304E0
1.599803707E0,-8.427846909E0,-1.450930476E0,7.575485706E0
1.601803440E0,-8.427846909E0,-1.450930476E0,7.575485706E0
1.603803240E0,-8.312922478E0,-1.426987767E0,7.609005451E0
1.605802973E0,-8.181237221E0,-1.367130876E0,7.676044941E0
1.607802706E0,-7.881952763E0,-1.336005330E0,7.731113434E0
1.609802439E0,-7.678439140E0,-1.233051538E0,7.891529560E0
1.611802172E0,-7.637736797E0,-1.161223292E0,7.965752125E0
1.613801905E0,-7.625765324E0,-1.048692346E0,8.054340363E0
1.615801338E0,-7.685622215E0,-9.912297726E-1,8.039975166E0
1.617801071E0,-7.750267506E0,-9.720755816E-1,8.030397415E0
1.619800871E0,-7.925049782E0,-1.000806928E0,7.905895233E0
1.621800637E0,-7.925049782E0,-1.000806928E0,7.905895233E0
1.623800370E0,-7.958569527E0,-1.027143836E0,7.841249943E0
1.625800103E0,-7.891529560E0,-1.106154919E0,7.747873306E0
1.627799836E0,-7.798152924E0,-1.151646137E0,7.709564686E0
1.629799569E0,-7.649707794E0,-1.240234375E0,7.671256542E0
1.631798869E0,-7.573091030E0,-1.276148438E0,7.666468143E0
1.633798669E0,-7.391126156E0,-1.314456820E0,7.711959362E0
1.635798469E0,-7.166064739E0,-1.333611012E0,7.793364525E0
1.637798202E0,-7.027196407E0,-1.324033976E0,7.838855743E0
1.639797935E0,-6.387925148E0,-1.376708031E0,7.812518597E0
1.641797668E0,-6.387925148E0,-1.376708031E0,7.812518597E0
1.643797401E0,-6.244268894E0,-1.417410731E0,7.783787251E0
1.645797134E0,-5.916253090E0,-1.467690468E0,7.707170486E0
1.647796867E0,-5.734288216E0,-1.489238977E0,7.652102470E0
1.649796667E0,-5.389512539E0,-1.501210332E0,7.470137596E0
1.651796467E0,-5.233884811E0,-1.510787368E0,7.367183685E0
1.653796233E0,-4.970514297E0,-1.525153041E0,7.360000610E0
1.655795999E0,-4.743058205E0,-1.491633177E0,7.434223175E0
1.657795765E0,-4.642498970E0,-1.438959122E0,7.520417213E0
1.659795531E0,-4.573064804E0,-1.395862222E0,8.164477348E0
1.661795264E0,-4.573064804E0,-1.395862222E0,8.164477348E0
1.663795030E0,-4.618556023E0,-1.410227895E0,8.317710876E0
1.665794863E0,-4.810098171E0,-1.240234375E0,8.253065109E0
1.667794629E0,-4.932206154E0,-1.221080184E0,8.150111198E0
1.669794395E0,-5.118959427E0,-1.460507631E0,8.245882034E0
1.671794161E0,-5.327261448E0,-1.654443860E0,8.332076073E0
1.673793927E0,-5.432609558E0,-1.714300752E0,8.348835945E0
1.675793993E0,-5.628940105E0,-1.788523316E0,8.308133125E0
1.677793759E0,-5.743865490E0,-1.817254543E0,8.267431259E0
1.679793525E0,-6.203566074E0,-1.673598051E0,8.051946640E0
1.681793358E0,-6.203566074E0,-1.673598051E0,8.051946640E0
1.683793358E0,-6.282577038E0,-1.596981287E0,7.948992252E0
1.685793124E0,-6.323279858E0,-1.534730196E0,7.869981289E0
1.687792890E0,-6.375953674E0,-1.496421814E0,7.877163887E0
1.689792656E0,-6.586649895E0,-1.429382086E0,8.006455421E0
1.691792856E0,-6.790163517E0,-1.328822494E0,8.123774529E0
1.693792622E0,-7.029590607E0,-1.328822494E0,8.150111198E0
1.695792388E0,-7.733507633E0,-1.412622094E0,8.118986130E0
1.697792221E0,-8.016032219E0,-1.628106833E0,7.848433018E0
1.699791987E0,-8.497281075E0,-1.999219418E0,6.866780281E0
1.701791753E0,-8.497281075E0,-1.999219418E0,6.866780281E0
1.703791519E0,-8.406298637E0,-2.071047783E0,6.383136749E0
1.705791285E0,-8.056735039E0,-2.317657948E0,5.688796997E0
1.707791051E0,-7.678439140E0,-2.454131603E0,5.209941864E0
1.709790817E0,-7.508445740E0,-2.418217659E0,4.812492371E0
1.711790583E0,-7.230710030E0,-2.355966330E0,4.089421272E0
1.713790383E0,-7.194795609E0,-2.341600657E0,3.861965179E0
1.715789783E0,-7.371972084E0,-2.413429022E0,3.409447432E0
1.717789516E0,-7.563514233E0,-2.468497276E0,3.009603500E0
1.719789249E0,-7.611399651E0,-2.624125242E0,2.595393896E0
1.721788982E0,-7.611399651E0,-2.624125242E0,2.595393896E0
1.723788715E0,-7.556331158E0,-2.695953369E0,2.394274712E0
1.725788448E0,-7.369577885E0,-2.842004299E0,1.841197371E0
1.727788248E0,-7.000859737E0,-2.901860952E0,1.070240855E0
1.729788048E0,-6.936213970E0,-2.873129845E0,6.919454336E-1
1.731787781E0,-7.012830734E0,-2.736656189E0,6.703969836E-2
1.733787514E0,-7.043956280E0,-2.662433624E0,-1.316851079E-1
1.735787247E0,-7.027196407E0,-2.547508478E0,-3.902668059E-1
1.737786980E0,-6.967339516E0,-2.552296877E0,-5.004034638E-1
1.739786713E0,-7.568302631E0,-2.092596292E0,-1.166011810E0
1.741786446E0,-7.642525196E0,-2.023162127E0,-1.465296149E0
1.743786012E0,-7.642525196E0,-1.939362645E0,-1.752609134E0
1.745785745E0,-8.025609016E0,-1.829225898E0,-2.004008055E0
1.747785478E0,-8.109408379E0,-1.697540879E0,-2.205127001E0
1.749785211E0,-8.039975166E0,-1.628106833E0,-2.214704275E0
1.751784944E0,-7.843644142E0,-1.515576005E0,-2.248224020E0
1.753784677E0,-7.357606411E0,-1.556278586E0,-2.281744003E0
1.755784410E0,-7.089447498E0,-1.580221415E0,-2.288926601E0
1.757784143E0,-6.584255695E0,-1.685569525E0,-2.219492674E0
1.759783943E0,-6.938608170E0,-2.327235222E0,-1.884294271E0
1.761783676E0,-6.938608170E0,-2.327235222E0,-1.884294271E0
1.763783409E0,-7.934626579E0,-2.897072554E0,-1.304879785E0
1.765783142E0,-8.506858826E0,-3.124528646E0,-9.217957854E-1
1.767782875E0,-9.411893845E0,-3.332830429E0,-1.292908341E-1
1.769782608E0,-9.735121727E0,-3.296916485E0,3.064671755E-1
1.771782341E0,-1.019721603E1,-3.162837029E0,1.151646137E0
1.773782074E0,-1.031453609E1,-2.542719841E0,2.061470509E0
1.775782207E0,-1.010144520E1,-2.214704275E0,2.391880512E0
1.777781940E0,-1.052283764E1,-2.221887112E0,2.868341208E0
1.779781673E0,-1.099690437E1,-2.619336605E0,3.469304085E0
1.781781439E0,-1.131534290E1,-2.681587696E0,3.545921087E0
1.783781172E0,-1.153801060E1,-2.856369734E0,3.591412306E0
1.785780905E0,-1.167927265E1,-3.057488918E0,3.629720688E0
1.787780638E0,-1.186363125E1,-3.493247032E0,3.617749214E0
1.789780371E0,-1.188996887E1,-4.079844475E0,3.670423269E0
1.791780171E0,-1.162420464E1,-4.407859802E0,3.696760416E0
1.793779904E0,-1.092507553E1,-4.817280769E0,3.373533249E0
1.795779637E0,-1.042946148E1,-4.889109135E0,3.091008663E0
1.797779370E0,-9.335277557E0,-4.917840481E0,2.478074312E0
1.799779103E0,-7.154093266E0,-4.709538460E0,1.755003452E0
1.801778836E0,-7.154093266E0,-4.709538460E0,1.755003452E0
1.803778569E0,-6.701575279E0,-4.640104771E0,1.683175206E0
1.805778369E0,-6.311308384E0,-4.587430477E0,1.628106833E0
1.807778169E0,-5.672037125E0,-4.539545059E0,1.525153041E0
1.809777902E0,-5.221913338E0,-4.637710094E0,1.412622094E0
1.811777635E0,-5.078257084E0,-4.747847080E0,1.417410731E0
1.813777368E0,-4.925023079E0,-5.063891411E0,1.618529797E0
1.815777101E0,-4.886714935E0,-5.238673210E0,1.829225898E0
1.817776834E0,-4.860377789E0,-5.502043724E0,2.382303476E0
1.819776567E0,-4.673624516E0,-5.710345268E0,3.828445435E0
1.821776367E0,-4.673624516E0,-5.710345268E0,3.828445435E0
1.823776100E0,-4.666441441E0,-5.703162670E0,4.154066563E0
1.825775833E0,-4.738269806E0,-5.727105141E0,4.494053841E0
1.827775566E0,-5.111776829E0,-5.803721905E0,5.171633720E0
1.829775299E0,-5.645699978E0,-5.758230686E0,5.844424725E0
1.831775032E0,-5.894704342E0,-5.578660488E0,6.174834728E0
1.833774765E0,-5.961744308E0,-4.604190350E0,6.833260536E0
1.835774498E0,-6.153286457E0,-4.072661400E0,6.969734192E0
1.837774298E0,-7.400703430E0,-3.960130453E0,7.304932594E0
1.839774031E0,-9.452596664E0,-4.139701366E0,6.648900986E0
1.841773764E0,-9.452596664E0,-4.139701366E0,6.648900986E0
1.843773497E0,-9.838075638E0,-4.276175022E0,6.272999763E0
1.845773230E0,-1.041030693E1,-4.673624516E0,5.521197796E0
1.847772963E0,-1.056593513E1,-4.824463844E0,5.109382629E0
1.849772696E0,-1.091071033E1,-5.183605194E0,4.355185986E0
1.851772429E0,-1.104718399E1,-5.351204395E0,3.986467600E0
1.853772229E0,-1.100408745E1,-5.657671452E0,3.296916485E0
1.855771962E0,-1.115253162E1,-6.095823765E0,2.626519442E0
1.857771695E0,-1.127464008E1,-6.208354473E0,2.272166729E0
1.859771428E0,-1.106873226E1,-6.804529190E0,9.888355136E-1
1.861771161E0,-1.106873226E1,-6.804529190E0,9.888355136E-1
1.863770894E0,-1.088916206E1,-6.936213970E0,6.033572555E-1
1.865771127E0,-1.031453609E1,-7.185218811E0,-1.197137386E-1
1.867770860E0,-1.000567436E1,-7.259441376E0,-3.902668059E-1
1.869770660E0,-9.538790703E0,-7.257047176E0,-6.440598965E-1
1.871770393E0,-9.356825829E0,-7.120573044E0,-6.296942830E-1
1.873770126E0,-9.043175697E0,-6.996070862E0,-3.591412306E-1
1.875769859E0,-8.643332481E0,-6.869174480E0,-4.309694469E-2
1.877769592E0,-8.384750366E0,-6.864386082E0,5.985686928E-2
1.879769325E0,-7.063110828E0,-6.739883423E0,4.597007632E-1
1.881769058E0,-7.063110828E0,-6.739883423E0,4.597007632E-1
1.883768858E0,-6.871568680E0,-6.603409767E0,3.926610649E-1
1.885768658E0,-6.340039730E0,-6.217931747E0,2.561874092E-1
1.887768391E0,-6.093429565E0,-6.167652130E0,1.699935049E-1
1.889768124E0,-5.767807961E0,-5.971321583E0,2.657645047E-1
1.891767857E0,-5.925830364E0,-5.930618763E0,5.123748183E-1
1.893767590E0,-6.057515144E0,-5.956955910E0,6.129343510E-1
1.895767323E0,-6.057515144E0,-5.858790398E0,8.164477348E-1
1.897767056E0,-6.000052452E0,-5.806116581E0,9.241901040E-1
1.899766856E0,-5.877944469E0,-5.748653889E0,1.467690468E0
1.901766656E0,-5.877944469E0,-5.748653889E0,1.467690468E0
1.903766389E0,-5.774991035E0,-5.700768471E0,1.577827096E0
1.905766122E0,-5.822876453E0,-5.643305779E0,1.738243461E0
1.907765855E0,-5.842030525E0,-5.549929142E0,1.836408734E0
1.909765588E0,-6.081458092E0,-5.430215359E0,2.063864946E0
1.911765321E0,-6.447782040E0,-5.214730740E0,2.322446585E0
1.913765054E0,-6.682421207E0,-5.123748302E0,2.454131603E0
1.915764854E0,-7.163670063E0,-4.920234680E0,2.717501879E0
1.917764587E0,-7.376760483E0,-4.822069645E0,2.820455790E0
1.919764320E0,-8.102226257E0,-4.582642078E0,2.918621063E0
1.921764053E0,-8.102226257E0,-4.582642078E0,2.918621063E0
1.923763786E0,-8.245882034E0,-4.585036278E0,2.813272953E0
1.925763019E0,-8.480521202E0,-4.714327335E0,2.415823221E0
1.927762752E0,-8.542772293E0,-4.812492371E0,2.150058746E0
1.929762485E0,-8.688823700E0,-5.090228081E0,1.534730196E0
1.931762285E0,-8.746285439E0,-5.437397957E0,8.763045669E-1
1.933762018E0,-8.746285439E0,-5.616968632E0,5.458946824E-1
1.935761751E0,-8.430241585E0,-6.019207001E0,1.436564885E-2
1.937761484E0,-8.133351326E0,-6.354405403E0,-4.597007632E-1
1.939761217E0,-7.695199013E0,-6.715940952E0,-9.768640995E-1
1.941760950E0,-7.695199013E0,-6.715940952E0,-9.768640995E-1
1.943760683E0,-7.419857502E0,-6.821289062E0,-9.960182905E-1
1.945760416E0,-7.120573044E0,-7.000859737E0,-9.050358534E-1
1.947760216E0,-6.950579643E0,-7.079870701E0,-7.206767201E-1
1.949759949E0,-6.773403645E0,-7.029590607E0,-6.680026650E-1
1.951759682E0,-6.536370277E0,-6.897905827E0,-5.626545548E-1
1.953759415E0,-6.433416367E0,-6.828471661E0,-5.435003638E-1
1.955759148E0,-6.210748672E0,-6.680026531E0,-4.740664065E-1
1.957758881E0,-5.806116581E0,-6.486090660E0,-4.764606953E-1
1.959758614E0,-5.899493217E0,-6.481301785E0,-3.759011328E-1
1.961758347E0,-5.899493217E0,-6.481301785E0,-3.759011328E-1
1.963758147E0,-6.086246490E0,-6.514821529E0,-3.088614643E-1
1.965757880E0,-6.244268894E0,-6.526793003E0,-1.963305324E-1
1.967757613E0,-6.462147713E0,-6.486090660E0,-5.267404765E-2
1.969757346E0,-6.517216206E0,-6.447782040E0,-2.154847234E-2
1.971757079E0,-6.615381241E0,-6.344828129E0,-5.985686928E-2
1.973756812E0,-6.658478260E0,-6.280182838E0,-8.619388938E-2
1.975756545E0,-6.739883423E0,-6.119766235E0,-5.027977005E-2
1.977756345E0,-6.694392204E0,-5.870761871E0,5.506832153E-2
1.979756145E0,-5.839636326E0,-4.563488007E0,5.458946824E-1
1.981755878E0,-5.839636326E0,-4.563488007E0,5.458946824E-1
1.983755611E0,-6.012023926E0,-4.503631115E0,6.919454336E-1
1.985755344E0,-6.167652130E0,-4.570670605E0,7.350423932E-1
1.987755077E0,-6.660872459E0,-4.637710094E0,6.296942830E-1
1.989754810E0,-6.859597206E0,-4.755029678E0,5.027977228E-1
1.991754543E0,-7.187613010E0,-4.865166187E0,2.130904645E-1
1.993754343E0,-7.364789486E0,-4.738269806E0,-4.788549617E-3
1.995754076E0,-7.338452339E0,-4.551516533E0,-6.703969836E-2
1.997753809E0,-7.304932594E0,-4.130124092E0,1.915419847E-2
1.999753542E0,-7.321692467E0,-4.154066563E0,2.777358890E-1
2.001753275E0,-7.237892628E0,-4.233078003E0,2.944957912E-1
2.003753008E0,-7.175641537E0,-4.336031914E0,2.777358890E-1
2.005752741E0,-7.113390446E0,-4.474899769E0,2.274561077E-1
2.007752474E0,-6.926637173E0,-4.824463844E0,1.604164094E-1
2.009752274E0,-6.730306625E0,-5.027976990E0,1.316851079E-1
2.011752007E0,-6.287365437E0,-5.590631485E0,1.436564885E-2
2.013751740E0,-5.980898380E0,-6.419050694E0,-1.436564885E-2
2.015751473E0,-5.940196037E0,-6.938608170E0,4.549122229E-2
2.017751206E0,-5.954561234E0,-7.917866707E0,1.747820675E-1
2.019750939E0,-6.603409767E0,-9.241900444E0,6.033572555E-1
2.021750672E0,-6.816500187E0,-9.596253395E0,7.039167881E-1
2.023750405E0,-6.993676662E0,-9.869200706E0,7.613793612E-1
2.025750205E0,-7.175641537E0,-1.007032013E1,8.451790214E-1
2.027749938E0,-7.489291668E0,-1.018763924E1,1.130097747E0
2.029749671E0,-7.570696831E0,-9.835680962E0,1.611346960E0
2.031749404E0,-7.465348721E0,-9.462174416E0,1.946545362E0
2.033749137E0,-6.972128391E0,-8.334470749E0,2.581028223E0
2.035748870E0,-6.742278099E0,-7.774210453E0,2.858764172E0
2.037748603E0,-6.646506786E0,-6.974522591E0,3.296916485E0
2.039748336E0,-7.379155159E0,-6.900300026E0,3.457332850E0
2.041748136E0,-7.379155159E0,-6.900300026E0,3.457332850E0
2.043747902E0,-7.695199013E0,-7.043956280E0,3.390293121E0
2.045747635E0,-7.996877670E0,-7.178035736E0,3.246636629E0
2.047747368E0,-8.473338127E0,-7.312115192E0,2.798907280E0
2.049747101E0,-8.839662552E0,-7.235498428E0,2.236252785E0
2.051746834E0,-8.901913643E0,-7.070293427E0,1.893871427E0
2.053746567E0,-8.178842545E0,-5.854001999E0,1.541913033E0
2.055746367E0,-7.518023014E0,-5.250644684E0,1.290514112E0
2.057746167E0,-7.556331158E0,-5.044736862E0,3.663240373E-1
2.059745933E0,-7.932232380E0,-5.219519138E0,-1.608952641E0
2.061745699E0,-7.932232380E0,-5.219519138E0,-1.608952641E0
2.063745465E0,-7.960963726E0,-5.293741703E0,-1.980065227E0
2.065745231E0,-7.953781128E0,-5.439792156E0,-2.348783493E0
2.067744997E0,-7.719141960E0,-5.576265812E0,-3.146077156E0
2.069744763E0,-7.477320194E0,-5.822876453E0,-3.893090725E0
2.071744596E0,-7.398309231E0,-6.052726746E0,-4.137306690E0
2.073744362E0,-6.897905827E0,-6.277788639E0,-4.503631115E0
2.075744128E0,-6.725517750E0,-6.756643295E0,-4.630527496E0
2.077743894E0,-6.536370277E0,-6.955368519E0,-4.719115734E0
2.079743660E0,-6.103006363E0,-7.544359684E0,-5.214730740E0
2.081743426E0,-6.103006363E0,-7.544359684E0,-5.214730740E0
2.083743192E0,-5.913858891E0,-7.668862343E0,-5.272192955E0
2.085742958E0,-5.545140266E0,-8.008849144E0,-5.454157829E0
2.087742791E0,-5.367964268E0,-8.214756966E0,-5.454157829E0
2.089742557E0,-5.080651283E0,-8.643332481E0,-5.339232922E0
2.091742323E0,-5.011217117E0,-8.894730568E0,-5.219519138E0
2.093742089E0,-4.994457245E0,-9.330489159E0,-4.910657406E0
2.095741855E0,-5.071074009E0,-9.672870636E0,-4.716721535E0
2.097741621E0,-5.185999393E0,-9.840469360E0,-4.587430477E0
2.099741387E0,-5.937801361E0,-1.013017654E1,-3.782954216E0
2.101741153E0,-5.937801361E0,-1.013017654E1,-3.782954216E0
2.103740953E0,-6.074275017E0,-1.013257122E1,-3.526766777E0
2.105740719E0,-6.258634567E0,-9.957788467E0,-2.964112282E0
2.107740485E0,-6.337645531E0,-9.859623909E0,-2.719896078E0
2.109740251E0,-6.483695984E0,-9.569916725E0,-2.257801056E0
2.111740017E0,-6.471724987E0,-9.359220505E0,-1.992036581E0
2.113739783E0,-6.385530949E0,-8.940221786E0,-1.285725594E0
2.115739549E0,-6.301731110E0,-8.561926842E0,-5.339232683E-1
2.117739315E0,-6.294548512E0,-8.360807419E0,-1.628106833E-1
2.119739115E0,-5.909070015E0,-7.077476501E0,1.379102230E0
2.121738848E0,-5.909070015E0,-7.077476501E0,1.379102230E0
2.123738581E0,-5.990475655E0,-6.883540154E0,1.781340480E0
2.125738314E0,-6.093429565E0,-6.854808807E0,2.494834423E0
2.127738047E0,-6.179623127E0,-6.861991405E0,2.731867552E0
2.129737780E0,-5.897099018E0,-6.723123550E0,3.196356773E0
2.131737513E0,-5.044736862E0,-5.808510780E0,3.747040033E0
2.133737313E0,-4.786155224E0,-5.794145107E0,4.039141655E0
2.135737113E0,-4.649681568E0,-6.131737709E0,3.905062199E0
2.137736846E0,-4.520390987E0,-6.253845692E0,4.017592907E0
2.139736579E0,-4.419831276E0,-7.417463303E0,4.587430477E0
2.141736312E0,-4.419831276E0,-7.417463303E0,4.587430477E0
2.143736045E0,-4.187586784E0,-7.699987888E0,4.685595989E0
2.145735778E0,-3.845205307E0,-8.308133125E0,4.685595989E0
2.147735511E0,-3.713520288E0,-8.600234985E0,4.664047241E0
2.149735311E0,-3.469304085E0,-9.107821465E0,4.647287369E0
2.151735111E0,-3.447755814E0,-9.447808266E0,4.800520897E0
2.153734844E0,-3.521978140E0,-9.603436470E0,4.853195190E0
2.155734577E0,-3.548315287E0,-9.818921089E0,4.836435318E0
2.157734310E0,-3.517189741E0,-9.864412308E0,4.747847080E0
2.159734043E0,-3.155654192E0,-1.004158878E1,4.300117493E0
2.161733776E0,-3.086220264E0,-1.008229160E1,4.125335693E0
2.163733509E0,-3.086220264E0,-1.008229160E1,4.125335693E0
2.165733309E0,-2.995237827E0,-1.021158218E1,3.708731651E0
2.167733042E0,-2.940169573E0,-1.039354706E1,3.119740009E0
2.169732775E0,-2.825244188E0,-1.048213482E1,2.794118643E0
2.171732508E0,-2.686376333E0,-1.072156239E1,2.059076309E0
2.173732241E0,-2.612153769E0,-1.083409309E1,1.711906433E0
2.175731974E0,-2.585816860E0,-1.109267521E1,1.075029373E0
2.177731707E0,-2.626519442E0,-1.140153694E1,3.806896806E-1
2.179731440E0,-2.547508478E0,-1.171758080E1,-4.142095447E-1
2.181731240E0,-2.547508478E0,-1.171758080E1,-4.142095447E-1
2.183730540E0,-2.518777132E0,-1.181095791E1,-7.422251701E-1
2.185730273E0,-2.466103077E0,-1.203123093E1,-1.259388566E0
2.187730006E0,-2.432583094E0,-1.243346882E1,-2.032739401E0
2.189729739E0,-2.549902678E0,-1.279261017E1,-2.798907280E0
2.191729472E0,-2.849187136E0,-1.363300037E1,-4.604190350E0
2.193729205E0,-3.028757572E0,-1.407354736E1,-5.487678051E0
2.195728938E0,-3.457332850E0,-1.495224571E1,-6.921848297E0
2.197728738E0,-3.998438835E0,-1.571362591E1,-7.802941799E0
2.199728471E0,-5.138113976E0,-1.650134277E1,-8.142929077E0
2.201728204E0,-5.138113976E0,-1.650134277E1,-8.142929077E0
2.203727937E0,-5.624151707E0,-1.671203804E1,-8.008849144E0
2.205727670E0,-6.469330311E0,-1.683175278E1,-7.278595448E0
2.207727403E0,-7.185218811E0,-1.663063240E1,-6.055120945E0
2.209727136E0,-7.630553722E0,-1.657556534E1,-5.521197796E0
2.211726869E0,-8.494887352E0,-1.641036034E1,-4.369551659E0
2.213726669E0,-8.887548447E0,-1.609910393E1,-3.768588543E0
2.215726402E0,-9.579493523E0,-1.587164783E1,-2.621730804E0
2.217726135E0,-1.003680038E1,-1.523477077E1,-1.467690468E0
2.219725868E0,-9.682447433E0,-1.373356056E1,1.652049571E-1
2.221725601E0,-9.284997940E0,-1.307992363E1,6.440598965E-1
2.223725601E0,-8.767834663E0,-1.236642933E1,1.070240855E0
2.225725334E0,-8.130957603E0,-1.162899303E1,1.398256540E0
2.227725134E0,-6.718335152E0,-1.019003391E1,1.647261024E0
2.229724934E0,-6.064698219E0,-9.572310448E0,1.596981287E0
2.231724667E0,-5.004034519E0,-8.557138443E0,1.218685865E0
2.233724400E0,-4.288146019E0,-7.807730198E0,5.818088055E-1
2.235724133E0,-4.058295727E0,-7.527599812E0,2.394274771E-1
2.237723866E0,-3.888302326E0,-7.082264900E0,-4.501236677E-1
2.239723599E0,-4.587430477E0,-6.471724987E0,-4.980091453E-1
2.241723332E0,-4.587430477E0,-6.284971237E0,-7.398309112E-1
2.243723565E0,-4.790944099E0,-6.129343510E0,-1.508393168E0
2.245723298E0,-4.795732498E0,-5.995264053E0,-2.310475111E0
2.247723031E0,-4.857983589E0,-5.849213123E0,-3.177202702E0
2.249722764E0,-4.865166187E0,-5.820482254E0,-3.330436230E0
2.251722497E0,-4.802915096E0,-5.777385235E0,-3.411841631E0
2.253722230E0,-4.697566986E0,-5.774991035E0,-3.292127848E0
2.255721963E0,-4.659258842E0,-5.774991035E0,-3.208328247E0
2.257721696E0,-4.604190350E0,-5.825270653E0,-3.143682718E0
2.259721496E0,-4.496448040E0,-6.064698219E0,-3.272973776E0
2.261721229E0,-4.477293968E0,-6.172440529E0,-3.239453793E0
2.263720962E0,-4.460534096E0,-6.313702583E0,-3.155654192E0
2.265720695E0,-4.450956821E0,-6.466936111E0,-3.021574736E0
2.267720428E0,-4.431802750E0,-6.771008968E0,-2.712713242E0
2.269720161E0,-4.381523132E0,-7.039167881E0,-2.492439985E0
2.271719894E0,-4.357580185E0,-7.146910191E0,-2.394274712E0
2.273719627E0,-4.302511692E0,-7.350423813E0,-2.267378330E0
2.275719427E0,-4.245049000E0,-7.431828976E0,-2.288926601E0
2.277719160E0,-4.008016109E0,-7.494080067E0,-2.396669149E0
2.279718893E0,-3.708731651E0,-7.723930359E0,-1.551490068E0
2.281718626E0,-3.708731651E0,-7.723930359E0,-1.551490068E0
2.283718626E0,-3.725491524E0,-7.853221416E0,-1.024749637E0
2.285718359E0,-3.768588543E0,-8.013637543E0,-4.357580245E-1
2.287718092E0,-3.897879362E0,-8.346442223E0,7.948992252E-1
2.289717825E0,-4.185192585E0,-8.652909279E0,1.843591571E0
2.291717625E0,-4.403071404E0,-8.736708641E0,2.255406857E0
2.293717391E0,-4.836435318E0,-8.925856590E0,2.892283916E0
2.295717157E0,-5.071074009E0,-9.031204224E0,3.091008663E0
2.297716923E0,-5.518803596E0,-9.217958450E0,3.313676357E0
2.299716689E0,-5.980898380E0,-9.375980377E0,3.112557173E0
2.301716455E0,-5.980898380E0,-9.375980377E0,3.112557173E0
2.303716555E0,-5.944984436E0,-9.349642754E0,2.868341208E0
2.305716388E0,-5.858790398E0,-9.237112045E0,2.559479713E0
2.307716221E0,-5.674431324E0,-9.165284157E0,1.953728199E0
2.309716087E0,-5.420638084E0,-8.968953133E0,1.484450340E0
2.311715953E0,-5.291347504E0,-8.854028702E0,1.273754239E0
2.313715819E0,-4.963331699E0,-8.650514603E0,7.541965842E-1
2.315715685E0,-4.611373425E0,-8.497281075E0,1.029538140E-1
2.317715551E0,-4.455745220E0,-8.430241585E0,-2.897072434E-1
2.319715417E0,-4.137306690E0,-8.382355690E0,-1.647261024E0
2.321715350E0,-4.137306690E0,-8.382355690E0,-1.647261024E0
2.323715283E0,-4.108575344E0,-8.413481712E0,-1.829225898E0
2.325715216E0,-4.015198708E0,-8.463761330E0,-1.992036581E0
2.327715149E0,-3.948159218E0,-8.463761330E0,-2.001613855E0
2.329715082E0,-3.826051235E0,-8.468549728E0,-1.934574008E0
2.331715015E0,-3.797319889E0,-8.456578255E0,-1.884294271E0
2.333714948E0,-3.792531252E0,-8.458972931E0,-1.699935079E0
2.335714881E0,-3.857176781E0,-8.494887352E0,-1.453324795E0
2.337714881E0,-3.933793545E0,-8.514040947E0,-1.331216812E0
2.339714847E0,-4.386311531E0,-8.583475113E0,-6.177229285E-1
2.341714813E0,-4.539545059E0,-8.609811783E0,-3.926610649E-1
2.343714246E0,-4.539545059E0,-8.609811783E0,-3.926610649E-1
2.345714212E0,-4.872349262E0,-8.597841263E0,2.394274808E-2
2.347714178E0,-5.023188591E0,-8.564320564E0,1.987248063E-1
2.349714144E0,-5.332049847E0,-8.468549728E0,4.788549542E-1
2.351714110E0,-5.439792156E0,-8.308133125E0,5.530774593E-1
2.353714110E0,-5.578660488E0,-8.219545364E0,6.009629965E-1
2.355714076E0,-5.616968632E0,-8.042368889E0,4.764606953E-1
2.357714042E0,-5.607391834E0,-7.960963726E0,3.375927508E-1
2.359714008E0,-5.506832123E0,-7.762238979E0,-2.418217510E-1
2.361713974E0,-5.506832123E0,-7.762238979E0,-2.418217510E-1
2.363713607E0,-5.478100777E0,-7.731113434E0,-3.615354896E-1
2.365713573E0,-5.454157829E0,-7.716747761E0,-5.506832004E-1
2.367713539E0,-5.446975231E0,-7.747873306E0,-6.177229285E-1
2.369713472E0,-5.423032284E0,-7.843644142E0,-7.158881426E-1
2.371713405E0,-5.315289974E0,-7.905895233E0,-7.853221297E-1
2.373713338E0,-5.238673210E0,-7.917866707E0,-7.948992252E-1
2.375713271E0,-4.975303173E0,-7.946598053E0,-8.882759809E-1
2.377713204E0,-4.812492371E0,-7.960963726E0,-9.912297726E-1
2.379713137E0,-4.510813713E0,-8.181237221E0,-1.103760719E0
2.381713070E0,-4.510813713E0,-8.181237221E0,-1.103760719E0
2.383713003E0,-4.455745220E0,-8.267431259E0,-1.106154919E0
2.385712936E0,-4.338426113E0,-8.389538765E0,-1.079817891E0
2.387712802E0,-4.319271564E0,-8.454184532E0,-1.019961119E0
2.389712668E0,-4.355185986E0,-8.600234985E0,-9.217957854E-1
2.391712534E0,-4.422225475E0,-8.746285439E0,-8.595446348E-1
2.393712400E0,-4.441379547E0,-8.813325882E0,-8.451790214E-1
2.395712266E0,-4.551516533E0,-8.937828064E0,-7.972934842E-1
2.397712132E0,-4.616161823E0,-9.079090118E0,-7.374366522E-1
2.399712032E0,-4.783761024E0,-9.268238068E0,-4.788549542E-1
2.401711932E0,-4.802915096E0,-9.340065956E0,-3.519583941E-1
2.403711532E0,-4.802915096E0,-9.340065956E0,-3.519583941E-1
2.405711365E0,-4.769395351E0,-9.481328011E0,-3.830839694E-2
2.407711198E0,-4.666441441E0,-9.622590065E0,2.059076279E-1
2.409711031E0,-4.613767624E0,-9.692024231E0,2.801301479E-1
2.411710864E0,-4.553910732E0,-9.909903526E0,2.681587934E-1
2.413710697E0,-4.529967785E0,-1.007750225E1,1.652049571E-1
2.415710563E0,-4.551516533E0,-1.048692322E1,-1.580221355E-1
2.417710363E0,-4.611373425E0,-1.097774982E1,-4.429408312E-1
2.419710163E0,-4.501236439E0,-1.168166637E1,-6.440598965E-1
2.421709963E0,-4.501236439E0,-1.168166637E1,-6.440598965E-1
2.423709763E0,-4.302511692E0,-1.180138016E1,-6.775797606E-1
2.425709563E0,-3.749434233E0,-1.184208298E1,-6.009629965E-1
2.427709363E0,-3.091008663E0,-1.171758080E1,-4.070267081E-1
2.429709163E0,-2.772570133E0,-1.162420464E1,-3.088614643E-1
2.431708963E0,-2.370332003E0,-1.148294163E1,-6.943397224E-2
2.433708696E0,-2.308080912E0,-1.142547894E1,7.182824612E-2
2.435708429E0,-2.554691315E0,-1.130815983E1,3.040728867E-1
2.437708162E0,-3.162837029E0,-1.108070374E1,3.040728867E-1
2.439707895E0,-4.489265442E0,-1.078141975E1,-3.304099143E-1
2.441707628E0,-4.489265442E0,-1.078141975E1,-3.304099143E-1
2.443707361E0,-4.917840481E0,-1.066409969E1,-5.339232683E-1
2.445707094E0,-5.559505939E0,-1.031692982E1,-7.039167881E-1
2.447706894E0,-5.832453251E0,-9.751881599E0,-7.446194887E-1
2.449706627E0,-5.798933506E0,-9.375980377E0,-7.518022656E-1
2.451706360E0,-5.485283375E0,-8.461367607E0,-7.637736797E-1
2.453706093E0,-5.229096413E0,-7.415069103E0,-7.733507752E-1
2.455705826E0,-4.644893169E0,-6.941002846E0,-7.565908432E-1
2.457705559E0,-4.051113129E0,-6.167652130E0,-6.632141471E-1
2.459705292E0,-3.720703125E0,-5.710345268E0,-5.267404318E-1
2.461704992E0,-3.747040033E0,-5.729499817E0,-4.692778587E-1
2.463705025E0,-3.833234072E0,-5.806116581E0,-4.477293789E-1
2.465704758E0,-3.981678963E0,-5.925830364E0,-4.716721475E-1
2.467704491E0,-4.419831276E0,-6.275394440E0,-6.656084061E-1
2.469704224E0,-4.719115734E0,-6.500456333E0,-8.619389534E-1
2.471703957E0,-5.109382629E0,-6.835654736E0,-1.240234375E0
2.473703690E0,-5.102199554E0,-6.976916790E0,-1.592192769E0
2.475703423E0,-4.970514297E0,-6.967339516E0,-1.709512234E0
2.477703223E0,-4.594613552E0,-6.732700825E0,-1.824437380E0
2.479703023E0,-4.403071404E0,-6.189200401E0,-2.027950764E0
2.481702756E0,-4.249837875E0,-6.227508545E0,-1.972882390E0
2.483702489E0,-4.096604347E0,-6.328068256E0,-1.881899953E0
2.485702222E0,-3.926610708E0,-6.478907585E0,-1.735849261E0
2.487701955E0,-3.610566378E0,-6.943397045E0,-1.326428294E0
2.489701688E0,-3.514795303E0,-7.185218811E0,-1.127703428E0
2.491701421E0,-3.380716085E0,-7.644919395E0,-6.799740195E-1
2.493701221E0,-3.241847992E0,-8.023215294E0,-2.873129845E-1
2.495700954E0,-3.189173937E0,-8.133351326E0,-1.771763414E-1
2.497700687E0,-3.102980137E0,-8.181237221E0,-4.549122229E-2
2.499700420E0,-2.944957972E0,-8.080677032E0,-4.309694469E-2
2.501700153E0,-2.863552570E0,-8.016032219E0,-9.577099234E-2
2.503699886E0,-2.734261751E0,-7.941809654E0,-1.268965602E-1
2.505699619E0,-2.590605259E0,-7.886741161E0,-1.340793967E-1
2.507699352E0,-2.276955366E0,-7.922655106E0,-1.364736706E-1
2.509699152E0,-1.920208454E0,-8.104619980E0,-2.657645047E-1
2.511698885E0,-1.793311834E0,-8.269824982E0,-3.926610649E-1
2.513698618E0,-1.601769805E0,-8.681640625E0,-6.249057055E-1
2.515698351E0,-1.537124395E0,-8.909096718E0,-7.278595567E-1
2.517698084E0,-1.410227895E0,-9.364008904E0,-1.060663700E0
2.519697817E0,-1.343188167E0,-9.876383781E0,-1.527547359E0
2.521697583E0,-1.343188167E0,-9.876383781E0,-1.527547359E0
2.523697316E0,-1.333611012E0,-9.876383781E0,-1.616135478E0
2.525697116E0,-1.223474383E0,-9.840469360E0,-1.709512234E0
2.527696849E0,-9.170072675E-1,-9.761458397E0,-1.965699673E0
2.529696582E0,-9.768640995E-1,-9.720755577E0,-2.257801056E0
2.531696115E0,-1.166011810E0,-9.699207306E0,-2.389486313E0
2.533695848E0,-1.484450340E0,-9.605830193E0,-2.595393896E0
2.535695581E0,-1.731060743E0,-9.584281921E0,-2.672010660E0
2.537695314E0,-2.217098475E0,-9.452596664E0,-2.652856588E0
2.539695047E0,-3.107768774E0,-9.014444351E0,-2.758204460E0
2.541694847E0,-3.402264595E0,-9.014444351E0,-2.758204460E0
2.543694580E0,-3.610566378E0,-8.875576973E0,-2.810878515E0
2.545694313E0,-3.830839634E0,-8.655303001E0,-2.834821463E0
2.547694046E0,-4.309694767E0,-8.528407097E0,-2.808484316E0
2.549693779E0,-4.527573586E0,-8.207573891E0,-2.631308079E0
2.551693512E0,-4.563488007E0,-8.035185814E0,-2.475680113E0
2.553693245E0,-4.716721535E0,-7.714353561E0,-2.219492674E0
2.555693045E0,-5.121353626E0,-7.546754360E0,-1.999219418E0
2.557692845E0,-5.327261448E0,-7.494080067E0,-1.843591571E0
2.559692578E0,-6.004841328E0,-7.491685867E0,-1.175588965E0
2.561692311E0,-6.004841328E0,-7.491685867E0,-1.175588965E0
2.563692044E0,-6.016812801E0,-7.477320194E0,-1.113337755E0
2.565691777E0,-6.292154312E0,-7.391126156E0,-1.156434774E0
2.567691510E0,-6.296942711E0,-7.331269264E0,-1.185166001E0
2.569691243E0,-5.990475655E0,-7.257047176E0,-1.273754239E0
2.571691043E0,-5.684008598E0,-7.211555958E0,-1.350371003E0
2.573690843E0,-5.071074009E0,-7.134938717E0,-1.640078187E0
2.575690576E0,-4.513207912E0,-7.185218811E0,-1.917814136E0
2.577690309E0,-4.221106529E0,-7.252258301E0,-2.047105074E0
2.579690042E0,-2.947352171E0,-7.613793850E0,-2.365543604E0
2.581689775E0,-2.947352171E0,-7.613793850E0,-2.365543604E0
2.583689508E0,-2.631308079E0,-7.774210453E0,-2.396669149E0
2.585689241E0,-2.075836182E0,-8.111803055E0,-2.365543604E0
2.587689041E0,-1.860351562E0,-8.236305237E0,-2.308080912E0
2.589688774E0,-1.635289669E0,-8.389538765E0,-2.109356165E0
2.591688707E0,-1.596981287E0,-8.518829346E0,-1.869928598E0
2.593688440E0,-1.319245458E0,-8.660092354E0,-1.788523316E0
2.595688173E0,-9.912297726E-1,-8.837267876E0,-1.649655342E0
2.597687906E0,-9.194015265E-1,-8.928250313E0,-1.630501151E0
2.599687639E0,-1.017566800E0,-9.115004539E0,-1.537124395E0
2.601687372E0,-1.017566800E0,-9.115004539E0,-1.537124395E0
2.603687172E0,-1.005595446E0,-9.012050629E0,-1.276148438E0
2.605686905E0,-8.954587579E-1,-8.523618698E0,-6.273000240E-1
2.607686638E0,-9.960182905E-1,-8.322499275E0,-2.873129845E-1
2.609686371E0,-1.429382086E0,-8.097437859E0,3.902668059E-1
2.611686104E0,-1.932179809E0,-7.984906673E0,1.027143836E0
2.613685837E0,-2.212309837E0,-8.104619980E0,1.285725594E0
2.615685570E0,-3.150865555E0,-8.808537483E0,1.577827096E0
2.617685303E0,-3.569863796E0,-9.220352173E0,1.596981287E0
2.619685103E0,-4.939388752E0,-1.041270161E1,1.565855742E0
2.621684836E0,-4.939388752E0,-1.041270161E1,1.565855742E0
2.623684569E0,-5.145296574E0,-1.053241444E1,1.522758722E0
2.625684302E0,-5.375146866E0,-1.057072353E1,1.419804931E0
2.627684035E0,-5.545140266E0,-1.060424328E1,1.364736676E0
2.629683768E0,-5.834847927E0,-1.053720379E1,1.144463301E0
2.631683501E0,-5.834847927E0,-1.025228500E1,7.087053657E-1
2.633683234E0,-5.715134144E0,-1.000327969E1,5.123748183E-1
2.635683034E0,-5.504437923E0,-9.603436470E0,1.747820675E-1
2.637682767E0,-5.396695614E0,-9.574705124E0,-1.268965602E-1
2.639682500E0,-5.394300938E0,-9.703995705E0,-3.328042030E-1
2.641682233E0,-5.394300938E0,-9.603436470E0,-2.298503816E-1
2.643681966E0,-5.006428719E0,-9.603436470E0,-2.298503816E-1
2.645681699E0,-3.969707727E0,-9.751881599E0,-3.184385598E-1
2.647681432E0,-3.691971779E0,-9.917086601E0,-4.429408312E-1
2.649681232E0,-3.854782343E0,-9.976943016E0,-5.722316504E-1
2.651681032E0,-4.221106529E0,-1.002482891E1,-8.571503758E-1
2.653680765E0,-4.276175022E0,-9.881172180E0,-8.786988258E-1
2.655680498E0,-4.211529255E0,-9.548367500E0,-8.475732803E-1
2.657680231E0,-4.096604347E0,-9.306546211E0,-8.284190893E-1
2.659679964E0,-4.223500729E0,-9.210775375E0,-6.584255695E-1
2.661679697E0,-4.223500729E0,-9.210775375E0,-6.584255695E-1
2.663679263E0,-4.259414673E0,-9.213169098E0,-5.889915824E-1
2.665679063E0,-4.367157459E0,-9.213169098E0,-3.998439014E-1
2.667678796E0,-4.479688168E0,-9.287391663E0,-1.221080124E-1
2.669678529E0,-4.563488007E0,-9.354432106E0,8.140534163E-2
2.671678262E0,-4.529967785E0,-9.447808266E0,4.285751879E-1
2.673677995E0,-4.515602112E0,-9.483722687E0,6.201171875E-1
2.675677728E0,-4.642498970E0,-9.603436470E0,1.055875182E0
2.677677461E0,-4.893897533E0,-9.850046158E0,1.328822494E0
2.679677194E0,-5.217124939E0,-9.943423271E0,1.338399649E0
2.681676994E0,-5.217124939E0,-9.943423271E0,1.338399649E0
2.683677427E0,-5.145296574E0,-9.687235832E0,9.122186899E-1
2.685677160E0,-4.891503334E0,-9.634561539E0,6.608198285E-1
2.687676893E0,-4.659258842E0,-9.512454033E0,3.399870098E-1
2.689676626E0,-4.637710094E0,-9.524425507E0,1.340793967E-1
2.691676359E0,-4.431802750E0,-9.701601982E0,-2.561874092E-1
2.693676092E0,-4.058295727E0,-9.991309166E0,-4.501236677E-1
2.695675825E0,-3.852388144E0,-1.014933109E1,-3.687183261E-1
2.697675625E0,-3.526766777E0,-1.049650097E1,-9.577099234E-2
2.699675358E0,-3.095797300E0,-1.076465988E1,-6.943397224E-2
2.701675091E0,-3.095797300E0,-1.076465988E1,-6.943397224E-2
2.703674824E0,-3.150865555E0,-1.079339123E1,0.000000000E0
2.705674557E0,-3.124528646E0,-1.069283104E1,2.873129770E-2
2.707674290E0,-2.664827824E0,-1.002961731E1,-1.580221355E-1
2.709674023E0,-2.444554567E0,-9.687235832E0,-2.298503816E-1
2.711673756E0,-2.298503876E0,-9.153312683E0,-1.484450400E-1
2.713673556E0,-2.521171331E0,-9.275420189E0,-4.549122229E-2
2.715673289E0,-2.540325642E0,-9.414288521E0,-1.675992459E-2
2.717673022E0,-2.140481710E0,-9.404711723E0,1.436564885E-2
2.719672755E0,-1.589798450E0,-9.404711723E0,4.094209969E-1
2.721672488E0,-1.465296149E0,-9.383162498E0,4.644893110E-1
2.723672388E0,-1.345582485E0,-9.390345573E0,4.166038036E-1
2.725672121E0,-1.209108829E0,-9.368797302E0,3.256213665E-1
2.727671921E0,-1.170800328E0,-9.409500122E0,2.035133541E-1
2.729671721E0,-1.108549237E0,-9.258660316E0,1.891477108E-1
2.731671454E0,-1.007989645E0,-9.196409225E0,3.663240373E-1
2.733671187E0,-8.595446348E-1,-9.069513321E0,5.243461728E-1
2.735670920E0,-8.188419938E-1,-8.983319283E0,5.267404318E-1
2.737670653E0,-6.560313106E-1,-9.002472878E0,3.088614643E-1
2.739670386E0,-8.284190893E-1,-9.433443069E0,2.226675600E-1
2.741670119E0,-1.134886265E0,-9.713572502E0,2.274561077E-1
2.743669219E0,-1.333611012E0,-9.945817947E0,2.083019018E-1
2.745668519E0,-1.367130876E0,-1.011820507E1,1.604164094E-1
2.747668252E0,-1.415016413E0,-1.037199879E1,-5.506832153E-2
2.749667985E0,-1.585009933E0,-1.044382668E1,-1.460507661E-1
2.751667718E0,-1.707117915E0,-1.044382668E1,-1.795706153E-1
2.753667451E0,-1.611346960E0,-1.025707340E1,-3.519583941E-1
2.755667184E0,-1.549095750E0,-1.010862827E1,-4.525179267E-1
2.757666917E0,-1.422199249E0,-9.771035194E0,-4.477293789E-1
2.759666717E0,-1.405439258E0,-9.450202942E0,-4.142095447E-1
2.761666450E0,-1.405439258E0,-9.450202942E0,-4.142095447E-1
2.763666183E0,-1.395862222E0,-9.371191978E0,-4.189980924E-1
2.765665916E0,-1.374313712E0,-9.237112045E0,-4.429408312E-1
2.767665649E0,-1.328822494E0,-8.985713005E0,-2.705530524E-1
2.769665382E0,-8.116591573E-1,-9.045570374E0,3.423812985E-1
2.771665115E0,4.788549617E-2,-9.004867554E0,6.656084061E-1
2.773664848E0,1.896265626E0,-8.940221786E0,1.142069101E0
2.775665614E0,2.284138203E0,-9.270631790E0,1.467690468E0
2.777665380E0,1.362342358E0,-9.754275322E0,1.383890867E0
2.779665146E0,-2.106961727E0,-1.131055450E1,-6.943396926E-1
2.781664912E0,-2.106961727E0,-1.131055450E1,-6.943396926E-1
2.783664245E0,-2.631308079E0,-1.133449650E1,-1.328822494E0
2.785664011E0,-3.074248791E0,-1.129379463E1,-2.375120640E0
2.787663777E0,-2.997632027E0,-1.125069714E1,-2.803695917E0
2.789663543E0,-2.626519442E0,-1.058987713E1,-3.359167576E0
2.791663376E0,-2.478074312E0,-1.019961071E1,-3.462121487E0
2.793663142E0,-2.602576733E0,-9.572310448E0,-3.363956213E0
2.795662908E0,-2.906649590E0,-9.277814865E0,-3.172414064E0
2.797662674E0,-3.134105682E0,-9.431048393E0,-3.114951611E0
2.799662440E0,-3.481275558E0,-1.105197239E1,-4.173221111E0
2.801662206E0,-3.481275558E0,-1.105197239E1,-4.173221111E0
2.803661972E0,-3.454938650E0,-1.140153694E1,-4.517996788E0
2.805662238E0,-3.210722446E0,-1.191391182E1,-4.752635479E0
2.807662071E0,-3.016786337E0,-1.194982529E1,-4.664047241E0
2.809661837E0,-2.739050388E0,-1.218925285E1,-4.537150860E0
2.811661603E0,-2.674404860E0,-1.260585690E1,-4.592218876E0
2.813661369E0,-2.286532402E0,-1.350131607E1,-4.879531860E0
2.815661135E0,-2.621730804E0,-1.353244114E1,-4.328848839E0
2.817660901E0,-3.241847992E0,-1.334089947E1,-3.732674360E0
2.819660667E0,-4.118152618E0,-1.232093811E1,2.825244367E-1
2.821660500E0,-4.118152618E0,-1.232093811E1,2.825244367E-1
2.823660633E0,-3.739857197E0,-1.218446445E1,1.046298146E0
2.825660399E0,-2.940169573E0,-1.243346882E1,1.975276709E0
2.827660165E0,-2.681587696E0,-1.273514748E1,2.288926601E0
2.829659931E0,-2.482862949E0,-1.346540165E1,2.609759569E0
2.831659697E0,-2.456526041E0,-1.372637749E1,2.815667152E0
2.833659463E0,-2.430188894E0,-1.370482922E1,2.873129845E0
2.835658263E0,-2.193155766E0,-1.326667690E1,2.899466753E0
2.837658063E0,-1.941756845E0,-1.303203773E1,2.707924843E0
2.839657796E0,-1.620923996E0,-1.239755535E1,1.290514112E0
2.841657529E0,-1.620923996E0,-1.239755535E1,1.290514112E0
2.843657695E0,-1.625712633E0,-1.227065849E1,9.098244309E-1
2.845657428E0,-1.611346960E0,-1.211024189E1,1.843591630E-1
2.847657161E0,-1.620923996E0,-1.206235695E1,-1.125309169E-1
2.849656894E0,-1.620923996E0,-1.185644913E1,-5.889915824E-1
2.851656627E0,-1.817254543E0,-1.149491310E1,-1.063058019E0
2.853656427E0,-1.879505754E0,-1.135843945E1,-1.283331275E0
2.855656160E0,-1.805283189E0,-1.122436047E1,-1.625712633E0
2.857655893E0,-1.731060743E0,-1.121717739E1,-1.752609134E0
2.859655626E0,-1.563461423E0,-1.127224541E1,-2.071047783E0
2.861655359E0,-1.563461423E0,-1.127224541E1,-2.071047783E0
2.863655759E0,-1.513181686E0,-1.128421688E1,-2.078230619E0
2.865655492E0,-1.443747759E0,-1.132013130E1,-2.013585091E0
2.867655225E0,-1.460507631E0,-1.132970810E1,-1.970488191E0
2.869655025E0,-1.544307232E0,-1.127703476E1,-1.872322917E0
2.871654758E0,-1.546701550E0,-1.115492630E1,-1.709512234E0
2.873654491E0,-1.561067224E0,-1.109985828E1,-1.613741279E0
2.875654224E0,-1.702329397E0,-1.091071033E1,-1.436564922E0
2.877653957E0,-1.771763325E0,-1.075508213E1,-1.340793848E0
2.879653690E0,-1.807677507E0,-1.053002071E1,-1.285725594E0
2.881653423E0,-1.824437380E0,-1.048692322E1,-1.276148438E0
2.883652856E0,-1.824437380E0,-1.048692322E1,-1.276148438E0
2.885652656E0,-1.752609134E0,-1.037918091E1,-1.189954638E0
2.887652389E0,-1.515576005E0,-1.033847904E1,-1.024749637E0
2.889652122E0,-1.417410731E0,-1.031932449E1,-9.146129489E-1
2.891651855E0,-1.345582485E0,-1.027622795E1,-6.823683381E-1
2.893651588E0,-1.333611012E0,-1.025707340E1,-5.985686779E-1
2.895651321E0,-1.268965602E0,-1.030016994E1,-4.836435020E-1
2.897651054E0,-1.096577883E0,-1.040551853E1,-3.615354896E-1
2.899650854E0,-8.379961848E-1,-1.070240879E1,-2.705530524E-1
2.901650654E0,-8.379961848E-1,-1.070240879E1,-2.705530524E-1
2.903650287E0,-7.518022656E-1,-1.077663136E1,-2.537931204E-1
2.905650020E0,-6.225114465E-1,-1.083648777E1,-1.915419847E-1
2.907648820E0,-5.650488734E-1,-1.085324764E1,-1.747820675E-1
2.909648553E0,-5.482889414E-1,-1.084845924E1,-1.795706153E-1
2.911648286E0,-6.895511150E-1,-1.085803604E1,-2.154847383E-1
2.913648019E0,-8.068706393E-1,-1.084127617E1,-1.604164094E-1
2.915647819E0,-9.529213905E-1,-1.070480251E1,-1.675992459E-2
2.917647552E0,-1.063058019E0,-1.056832886E1,1.292908341E-1
2.919647285E0,-1.015172482E0,-1.072874546E1,3.160442710E-1
2.921647018E0,-1.015172482E0,-1.072874546E1,3.160442710E-1
2.923646084E0,-1.127703428E0,-1.086761379E1,2.705530524E-1
2.925645817E0,-1.575432777E0,-1.092028713E1,1.268965602E-1
2.927645550E0,-1.628106833E0,-1.089155579E1,-3.112557158E-2
2.929645283E0,-1.580221415E0,-1.084367085E1,-9.337671846E-2
2.931645083E0,-1.664021015E0,-1.056832886E1,-3.974496126E-1
2.933644816E0,-1.726272106E0,-9.984126091E0,-6.680026650E-1
2.935644082E0,-1.838803053E0,-9.641744614E0,-8.978530765E-1
2.937643815E0,-2.138087511E0,-8.842057228E0,-1.549095750E0
2.939643548E0,-2.853975534E0,-7.254652500E0,-3.325647593E0
2.941643281E0,-2.853975534E0,-7.254652500E0,-3.325647593E0
2.943643014E0,-3.059883118E0,-6.838048935E0,-3.658451796E0
2.945642747E0,-3.270579338E0,-6.399896622E0,-3.917033672E0
2.947642547E0,-3.598595142E0,-5.585843086E0,-4.233078003E0
2.949642280E0,-3.624932051E0,-5.212336063E0,-4.331243038E0
2.951642013E0,-3.598595142E0,-4.568276405E0,-4.438985348E0
2.953641746E0,-3.555498123E0,-4.108575344E0,-4.434196949E0
2.955641479E0,-3.452544212E0,-3.921822071E0,-4.345608711E0
2.957641212E0,-3.093403101E0,-3.742251635E0,-4.027170181E0
2.959640945E0,-2.394274712E0,-3.988861799E0,-3.306493521E0
2.961640678E0,-2.159635782E0,-4.173221111E0,-2.944957972E0
2.963641478E0,-1.936968327E0,-4.386311531E0,-2.523565531E0
2.965641211E0,-1.798100352E0,-4.649681568E0,-2.035133600E0
2.967641877E0,-1.845985889E0,-5.320078850E0,-1.175588965E0
2.969641610E0,-1.932179809E0,-6.122160912E0,-6.368771195E-1
2.971641343E0,-2.133298874E0,-6.541158676E0,-4.716721475E-1
2.973641076E0,-2.482862949E0,-7.326480865E0,-3.232271075E-1
2.975640809E0,-2.650462151E0,-7.685622215E0,-3.112557232E-1
2.977640609E0,-2.880312681E0,-8.363202095E0,-3.663240373E-1
2.979640409E0,-3.057488918E0,-9.182044029E0,-2.035133541E-1
2.981640142E0,-3.091008663E0,-9.404711723E0,-1.053480953E-1
2.983640008E0,-3.117345810E0,-9.589070320E0,7.182824425E-3
2.985639741E0,-3.102980137E0,-9.742303848E0,1.101366431E-1
2.987639474E0,-3.016786337E0,-9.957788467E0,2.250618339E-1
2.989639207E0,-2.942563772E0,-1.002722263E1,1.628106833E-1
2.991638940E0,-2.892283916E0,-1.003680038E1,7.901106775E-2
2.993638740E0,-2.760598898E0,-1.000806904E1,-1.340793967E-1
2.995638940E0,-2.717501879E0,-9.988914490E0,-2.513988614E-1
2.997638673E0,-2.686376333E0,-9.895537376E0,-4.597007632E-1
2.999638406E0,-2.355966330E0,-9.593858719E0,-7.613793612E-1
3.001638139E0,-2.355966330E0,-9.593858719E0,-7.613793612E-1
3.003637872E0,-2.255406857E0,-9.545973778E0,-8.427847624E-1
3.005637605E0,-2.140481710E0,-9.507665634E0,-9.337671995E-1
3.007637338E0,-2.011190891E0,-9.478934288E0,-1.091789365E0
3.009637138E0,-1.996825218E0,-9.500482559E0,-1.204320192E0
3.011636871E0,-1.980065227E0,-9.490905762E0,-1.225868702E0
3.013636604E0,-1.980065227E0,-9.486116409E0,-1.295302629E0
3.015636337E0,-1.956122518E0,-9.486116409E0,-1.376708031E0
3.017636070E0,-1.908236980E0,-9.498087883E0,-1.434170604E0
3.019635803E0,-1.980065227E0,-9.562733650E0,-1.800494671E0
3.021635536E0,-1.980065227E0,-9.562733650E0,-1.800494671E0
3.023634369E0,-2.006402254E0,-9.593858719E0,-1.869928598E0
3.025634169E0,-2.037527800E0,-9.627379417E0,-1.996825218E0
3.027633902E0,-2.039922237E0,-9.605830193E0,-2.032739401E0
3.029633635E0,-2.011190891E0,-9.512454033E0,-2.056682110E0
3.031633368E0,-1.968093872E0,-9.450202942E0,-2.059076309E0
3.033633101E0,-1.872322917E0,-9.287391663E0,-2.027950764E0
3.035632834E0,-1.817254543E0,-9.196409225E0,-2.047105074E0
3.037632567E0,-1.778946161E0,-9.155706406E0,-2.044710636E0
3.039632300E0,-1.666415215E0,-9.136552811E0,-1.879505754E0
3.041632100E0,-1.666415215E0,-9.136552811E0,-1.879505754E0
3.043630766E0,-1.683175206E0,-9.136552811E0,-1.798100352E0
3.045630499E0,-1.764580488E0,-9.217958450E0,-1.687963724E0
3.047630232E0,-1.836408734E0,-9.282603264E0,-1.642472506E0
3.049629965E0,-1.972882390E0,-9.445414543E0,-1.537124395E0
3.051629698E0,-2.049499273E0,-9.522030830E0,-1.508393168E0
3.053629431E0,-2.164424419E0,-9.718361855E0,-1.453324795E0
3.055629231E0,-2.248224020E0,-9.907508850E0,-1.462901950E0
3.057629031E0,-2.276955366E0,-9.967366219E0,-1.498816013E0
3.059628764E0,-2.159635782E0,-1.009905148E1,-1.757397652E0
3.061628497E0,-2.114144564E0,-1.010383987E1,-1.798100352E0
3.063628230E0,-2.114144564E0,-1.010383987E1,-1.798100352E0
3.065627963E0,-2.066259146E0,-1.011820507E1,-1.845985889E0
3.067627696E0,-2.051893473E0,-1.010144520E1,-1.879505754E0
3.069627429E0,-2.090201855E0,-1.003919411E1,-1.946545362E0
3.071627229E0,-2.185972929E0,-9.931451797E0,-1.944151163E0
3.073627029E0,-2.257801056E0,-9.866806030E0,-1.958516836E0
3.075626762E0,-2.406246185E0,-9.732727051E0,-2.020767927E0
3.077626495E0,-2.454131603E0,-9.660899162E0,-2.025556564E0
3.079626228E0,-2.451737404E0,-9.522030830E0,-1.913025618E0
3.081625961E0,-2.451737404E0,-9.522030830E0,-1.913025618E0
3.083625694E0,-2.372726440E0,-9.507665634E0,-1.850774407E0
3.085625427E0,-2.157241583E0,-9.531607628E0,-1.709512234E0
3.087625227E0,-2.078230619E0,-9.579493523E0,-1.618529797E0
3.089624960E0,-1.867534399E0,-9.694418907E0,-1.443747759E0
3.091624693E0,-1.539518714E0,-9.823709488E0,-1.376708031E0
3.093624426E0,-1.383890867E0,-9.871595383E0,-1.371919513E0
3.095624159E0,-1.108549237E0,-9.907508850E0,-1.338399649E0
3.097623892E0,-9.984126091E-1,-9.895537376E0,-1.302485466E0
3.099623625E0,-7.901107073E-1,-9.541185379E0,-8.643332124E-1
3.101623358E0,-7.901107073E-1,-9.541185379E0,-8.643332124E-1
3.103623158E0,-7.637736797E-1,-9.450202942E0,-8.260248303E-1
3.105622891E0,-7.158881426E-1,-9.277814865E0,-7.901107073E-1
3.107622624E0,-7.230709791E-1,-9.126976013E0,-7.733507752E-1
3.109622357E0,-7.589851022E-1,-9.055147171E0,-7.422251701E-1
3.111622090E0,-7.470137477E-1,-8.877970695E0,-7.565908432E-1
3.113621823E0,-7.158881426E-1,-8.784594536E0,-7.996878028E-1
3.115621556E0,-6.727912426E-1,-8.672063828E0,-9.672870040E-1
3.117621289E0,-7.015225291E-1,-8.674457550E0,-1.170800328E0
3.119621089E0,-7.494080067E-1,-8.492492676E0,-1.455719113E0
3.121620822E0,-7.254652381E-1,-8.284191132E0,-1.489238977E0
3.123620455E0,-7.254652381E-1,-8.284191132E0,-1.489238977E0
3.125620188E0,-6.536370516E-1,-7.755055904E0,-1.482056141E0
3.127619921E0,-7.781392932E-1,-7.336058140E0,-1.417410731E0
3.129619654E0,-9.960182905E-1,-7.331269264E0,-1.405439258E0
3.131619387E0,-1.654443860E0,-7.680833817E0,-1.424593568E0
3.133619120E0,-2.075836182E0,-8.008849144E0,-1.367130876E0
3.135618920E0,-3.026363373E0,-8.863605499E0,-1.328822494E0
3.137618653E0,-3.818868399E0,-9.696812630E0,-1.367130876E0
3.139618386E0,-4.261809349E0,-1.028341007E1,-1.431776285E0
3.141618119E0,-4.261809349E0,-1.028341007E1,-1.431776285E0
3.143618652E0,-4.259414673E0,-1.030016994E1,-1.465296149E0
3.145618385E0,-4.139701366E0,-1.030016994E1,-1.517970204E0
3.147618118E0,-3.931399345E0,-1.037199879E1,-1.510787368E0
3.149617918E0,-3.840416908E0,-1.043664360E1,-1.477267504E0
3.151617718E0,-3.670423269E0,-1.053959751E1,-1.374313712E0
3.153617451E0,-3.555498123E0,-1.057072353E1,-1.295302629E0
3.155617184E0,-3.284945011E0,-1.047495270E1,-1.091789365E0
3.157616917E0,-3.026363373E0,-1.003201103E1,-9.122186899E-1
3.159616650E0,-2.566662550E0,-9.526819229E0,-1.041509509E0
3.161616383E0,-2.566662550E0,-9.526819229E0,-1.041509509E0
3.163617049E0,-2.396669149E0,-9.320911407E0,-1.175588965E0
3.165616849E0,-2.370332003E0,-9.241900444E0,-1.237840056E0
3.167616582E0,-2.346389294E0,-9.064723969E0,-1.347976685E0
3.169616315E0,-2.336812258E0,-9.004867554E0,-1.403045058E0
3.171616048E0,-2.353572130E0,-8.796566010E0,-1.477267504E0
3.173615781E0,-2.420611858E0,-8.638543129E0,-1.549095750E0
3.175615514E0,-2.468497276E0,-8.631361008E0,-1.575432777E0
3.177615247E0,-2.561874151E0,-8.624177933E0,-1.654443860E0
3.179614980E0,-2.803695917E0,-8.533195496E0,-1.826831698E0
3.181614780E0,-2.803695917E0,-8.533195496E0,-1.826831698E0
3.183614380E0,-2.923409462E0,-8.533195496E0,-1.845985889E0
3.185614146E0,-3.028757572E0,-8.523618698E0,-1.874717116E0
3.187613912E0,-3.160442829E0,-8.451789856E0,-1.877111435E0
3.189613678E0,-3.203539610E0,-8.418270111E0,-1.853168726E0
3.191613444E0,-3.170019865E0,-8.300951004E0,-1.786128998E0
3.193613210E0,-3.081431627E0,-8.324893951E0,-1.673598051E0
3.195612976E0,-3.038334846E0,-8.418270111E0,-1.618529797E0
3.197612809E0,-2.873129845E0,-8.537983894E0,-1.587404251E0
3.199612575E0,-2.683982134E0,-8.547560692E0,-1.585009933E0
3.201612341E0,-2.679193497E0,-8.650514603E0,-1.601769805E0
3.203612207E0,-2.724684715E0,-8.782199860E0,-1.585009933E0
3.205611973E0,-2.777358770E0,-8.909096718E0,-1.568249941E0
3.207611739E0,-2.695953369E0,-9.129369736E0,-1.458113313E0
3.209611505E0,-2.470891714E0,-9.335277557E0,-1.216291547E0
3.211611271E0,-2.334417820E0,-9.534002304E0,-1.146857619E0
3.213611104E0,-2.169213057E0,-9.878777504E0,-9.672870040E-1
3.215610870E0,-2.080624819E0,-9.924268723E0,-8.403904438E-1
3.217610636E0,-1.951334000E0,-9.897932053E0,-6.943396926E-1
3.220002555E0,-2.363149166E0,-9.809344292E0,-5.243461728E-1
3.222002321E0,-2.691164970E0,-9.816526413E0,-2.897072434E-1
3.224002087E0,-2.973689318E0,-9.816526413E0,2.729473412E-1
3.226001853E0,-3.016786337E0,-9.912297249E0,9.577099085E-1
3.228001686E0,-2.942563772E0,-1.099929810E1,1.015172482E0
3.230001519E0,-2.968900681E0,-1.197616291E1,-4.309694767E-1
3.232001285E0,-2.942563772E0,-1.230896664E1,-1.280937076E0
3.234001051E0,-2.616942406E0,-1.261543369E1,-2.391880512E0
3.236000384E0,-2.363149166E0,-1.259388542E1,-2.614548206E0
3.238000150E0,-1.790917516E0,-1.240234375E1,-2.509200096E0
3.239999916E0,-1.838803053E0,-1.163378143E1,-2.219492674E0
3.241999682E0,-1.838803053E0,-1.163378143E1,-2.219492674E0
3.243999748E0,-2.013585091E0,-1.133928585E1,-2.214704275E0
3.245999481E0,-2.224281311E0,-1.087958431E1,-2.174001455E0
3.247999214E0,-2.724684715E0,-1.072874546E1,-1.975276709E0
3.249998947E0,-3.146077156E0,-1.073353386E1,-2.090201855E0
3.251998680E0,-3.261002302E0,-1.099450970E1,-2.360754967E0
3.253998413E0,-3.512401104E0,-1.106394386E1,-2.818061352E0
3.255998146E0,-3.486064196E0,-1.109028053E1,-2.497228622E0
3.257997879E0,-3.380716085E0,-1.097774982E1,-2.260195494E0
3.259997679E0,-2.446948767E0,-1.031692982E1,-2.547508478E0
3.261997412E0,-2.446948767E0,-1.031692982E1,-2.547508478E0
3.263996978E0,-2.241041183E0,-1.028580475E1,-2.468497276E0
3.265996711E0,-1.924996972E0,-1.025946712E1,-2.078230619E0
3.267996444E0,-1.814860344E0,-1.024031353E1,-1.956122518E0
3.269996177E0,-1.752609134E0,-1.007750225E1,-1.879505754E0
3.271995910E0,-1.889082789E0,-9.953000069E0,-1.810071707E0
3.273995643E0,-2.375120640E0,-9.794978142E0,-1.673598051E0
3.275995443E0,-2.959323645E0,-9.797372818E0,-1.738243461E0
3.277995176E0,-3.253819466E0,-9.857229233E0,-1.769369125E0
3.279994909E0,-3.861965179E0,-1.016609097E1,-1.738243461E0
3.281994642E0,-3.861965179E0,-1.016609097E1,-1.738243461E0
3.283994708E0,-3.792531252E0,-1.015411949E1,-1.635289669E0
3.285994441E0,-3.553103924E0,-1.002243423E1,-1.438959122E0
3.287994174E0,-3.392687321E0,-9.902720451E0,-1.364736676E0
3.289993907E0,-3.023969173E0,-9.579493523E0,-1.249811411E0
3.291993707E0,-2.894678354E0,-9.433443069E0,-1.254600048E0
3.293993440E0,-2.760598898E0,-9.131764412E0,-1.264177084E0
3.295993606E0,-2.643279314E0,-8.741497040E0,-1.206714511E0
3.297993339E0,-2.581028223E0,-8.511647224E0,-1.180377483E0
3.299993072E0,-2.506805658E0,-7.807730198E0,-7.565908432E-1
3.301992805E0,-2.506805658E0,-7.807730198E0,-7.565908432E-1
3.303992538E0,-2.399063349E0,-7.628159523E0,-6.416656375E-1
3.305992338E0,-2.080624819E0,-7.245075703E0,-4.142095447E-1
3.307992138E0,-1.898659945E0,-7.072687626E0,-3.399870098E-1
3.309991871E0,-1.599375606E0,-6.876357079E0,-1.915419847E-1
3.311991604E0,-1.340793848E0,-7.242681503E0,1.604164094E-1
3.313991337E0,-1.247417212E0,-7.635342598E0,3.974496126E-1
3.315991170E0,-1.192348838E0,-8.444606781E0,6.823683381E-1
3.317990903E0,-1.271359921E0,-8.810931206E0,6.632141471E-1
3.319990636E0,-1.788523316E0,-9.873989105E0,-4.549122229E-2
3.321990436E0,-1.788523316E0,-9.873989105E0,-4.549122229E-2
3.323989302E0,-1.865140080E0,-1.003919411E1,-2.681587934E-1
3.325989035E0,-1.970488191E0,-1.026904488E1,-7.278595567E-1
3.327988768E0,-2.011190891E0,-1.033129597E1,-9.648927450E-1
3.329988501E0,-2.063864946E0,-1.032890129E1,-1.333611012E0
3.331988234E0,-2.174001455E0,-1.020200539E1,-1.652049661E0
3.333987967E0,-2.248224020E0,-1.011341667E1,-1.793311834E0
3.335987700E0,-2.329629421E0,-9.766246796E0,-1.999219418E0
3.337987500E0,-2.372726440E0,-9.474145889E0,-2.049499273E0
3.339987233E0,-3.136499882E0,-8.118986130E0,-2.324840784E0
3.341986966E0,-3.136499882E0,-8.118986130E0,-2.324840784E0
3.343986366E0,-3.574652195E0,-8.054340363E0,-2.305686712E0
3.345986099E0,-4.345608711E0,-8.298556328E0,-2.001613855E0
3.347985832E0,-4.501236439E0,-8.731920242E0,-1.726272106E0
3.349985565E0,-4.283357620E0,-8.956981659E0,-1.695146561E0
3.351985298E0,-3.694365978E0,-9.332882881E0,-1.932179809E0
3.353985098E0,-3.395081758E0,-9.447808266E0,-2.174001455E0
3.355984831E0,-2.935380936E0,-9.613013268E0,-2.731867552E0
3.357984564E0,-2.777358770E0,-9.763853073E0,-3.105374336E0
3.359984297E0,-2.789330244E0,-9.926663399E0,-2.956929445E0
3.361984030E0,-2.801301479E0,-9.931451797E0,-2.767781734E0
3.363983330E0,-2.801301479E0,-9.931451797E0,-2.767781734E0
3.365983063E0,-2.839609861E0,-9.864412308E0,-2.341600657E0
3.367982796E0,-2.925803900E0,-9.763853073E0,-1.972882390E0
3.369982596E0,-2.971295118E0,-9.694418907E0,-1.822043180E0
3.371982329E0,-3.079037428E0,-9.545973778E0,-1.632895470E0
3.373982062E0,-3.129317284E0,-9.469356537E0,-1.585009933E0
3.375981695E0,-3.210722446E0,-9.335277557E0,-1.613741279E0
3.377981428E0,-3.234665155E0,-9.246688843E0,-1.750214934E0
3.379981161E0,-3.246636629E0,-9.222746849E0,-1.994430900E0
3.381980894E0,-3.246636629E0,-9.222746849E0,-1.994430900E0
3.383981427E0,-3.222693920E0,-9.191620827E0,-2.078230619E0
3.385981227E0,-3.102980137E0,-9.153312683E0,-2.188367128E0
3.387980993E0,-2.961717844E0,-9.095849991E0,-2.284138203E0
3.389980759E0,-2.904255390E0,-9.105426788E0,-2.367937803E0
3.391980525E0,-2.853975534E0,-9.098244667E0,-2.437371731E0
3.393980291E0,-2.858764172E0,-9.093455315E0,-2.423006058E0
3.395980057E0,-2.875524044E0,-9.095849991E0,-2.411034822E0
3.397979823E0,-2.930592299E0,-9.081484795E0,-2.355966330E0
3.399979656E0,-3.057488918E0,-9.091061592E0,-2.272166729E0
3.401979489E0,-3.086220264E0,-9.095849991E0,-2.257801056E0
3.403980155E0,-3.112557173E0,-9.098244667E0,-2.253012657E0
3.405979955E0,-3.131711483E0,-9.107821465E0,-2.250618219E0
3.407979755E0,-3.167625666E0,-9.150918007E0,-2.245829821E0
3.409979555E0,-3.196356773E0,-9.170072556E0,-2.243435383E0
3.411979355E0,-3.227482557E0,-9.186832428E0,-2.243435383E0
3.413979155E0,-3.249030828E0,-9.232323647E0,-2.260195494E0
3.415979021E0,-3.253819466E0,-9.265843391E0,-2.264983892E0
3.417978887E0,-3.284945011E0,-9.284997940E0,-2.264983892E0
3.419978753E0,-3.435784340E0,-9.165284157E0,-2.238646984E0
3.421978619E0,-3.435784340E0,-9.165284157E0,-2.238646984E0
3.423978919E0,-3.435784340E0,-9.141341209E0,-2.236252785E0
3.425978785E0,-3.442967176E0,-9.124581337E0,-2.221887112E0
3.427978651E0,-3.481275558E0,-9.129369736E0,-2.140481710E0
3.429978517E0,-3.495641232E0,-9.124581337E0,-2.126116037E0
3.431978450E0,-3.567469358E0,-9.052753448E0,-2.090201855E0
3.433978316E0,-3.512401104E0,-8.990502357E0,-2.063864946E0
3.435978182E0,-3.459727049E0,-8.976136208E0,-2.080624819E0
3.437978048E0,-3.419024467E0,-8.942616463E0,-2.078230619E0
3.439977914E0,-3.294522047E0,-8.901913643E0,-2.015979290E0
3.441977780E0,-3.284945011E0,-8.875576973E0,-1.975276709E0
3.443977046E0,-3.294522047E0,-8.858817101E0,-1.924996972E0
3.445976912E0,-3.277762175E0,-8.861210823E0,-1.886688590E0
3.447976812E0,-3.210722446E0,-8.899519920E0,-1.850774407E0
3.449976645E0,-3.241847992E0,-8.885153770E0,-1.805283189E0
3.451976478E0,-3.268185139E0,-8.870788574E0,-1.776551962E0
3.453976311E0,-3.253819466E0,-8.880365372E0,-1.735849261E0
3.455976144E0,-3.213116884E0,-8.901913643E0,-1.723877907E0
3.457975977E0,-3.146077156E0,-8.961771011E0,-1.747820616E0
3.459975810E0,-3.088614464E0,-9.031204224E0,-1.764580488E0
3.461975643E0,-3.119740009E0,-9.031204224E0,-1.731060743E0
3.463973709E0,-3.177202702E0,-9.038387299E0,-1.685569525E0
3.465973509E0,-3.210722446E0,-9.050358772E0,-1.628106833E0
3.467973309E0,-3.189173937E0,-9.071907043E0,-1.568249941E0
3.469973109E0,-3.280156374E0,-9.115004539E0,-1.587404251E0
3.471972909E0,-3.351984739E0,-9.122186661E0,-1.592192769E0
3.473972709E0,-3.442967176E0,-9.148524284E0,-1.565855742E0
3.475972875E0,-3.476486921E0,-9.155706406E0,-1.565855742E0
3.477972675E0,-3.481275558E0,-9.136552811E0,-1.573038578E0
3.479972475E0,-3.459727049E0,-9.179649353E0,-1.585009933E0
3.481972208E0,-3.459727049E0,-9.179649353E0,-1.585009933E0
3.483971941E0,-3.464515686E0,-9.198803902E0,-1.585009933E0
3.485971674E0,-3.450150013E0,-9.210775375E0,-1.549095750E0
3.487971407E0,-3.433390141E0,-9.249083519E0,-1.517970204E0
3.489971140E0,-3.464515686E0,-9.320911407E0,-1.496421814E0
3.491970873E0,-3.478881359E0,-9.337671280E0,-1.503604531E0
3.493970673E0,-3.457332850E0,-9.361614227E0,-1.470084786E0
3.495970406E0,-3.438178539E0,-9.364008904E0,-1.453324795E0
3.497970139E0,-3.411841631E0,-9.352037430E0,-1.431776285E0
3.499969872E0,-3.340013266E0,-9.304151535E0,-1.431776285E0
3.501969605E0,-3.340013266E0,-9.304151535E0,-1.431776285E0
3.503969338E0,-3.311282158E0,-9.289786339E0,-1.426987767E0
3.505969071E0,-3.227482557E0,-9.251478195E0,-1.374313712E0
3.507968804E0,-3.158048391E0,-9.237112045E0,-1.352765322E0
3.509968604E0,-2.995237827E0,-9.179649353E0,-1.292908430E0
3.511968337E0,-2.937775135E0,-9.167677879E0,-1.256994247E0
3.513968070E0,-2.839609861E0,-9.153312683E0,-1.221080184E0
3.515967803E0,-2.758204460E0,-9.134158134E0,-1.189954638E0
3.517967536E0,-2.743839025E0,-9.146129608E0,-1.180377483E0
3.519967269E0,-2.676799297E0,-9.117398262E0,-1.137280583E0
3.521967002E0,-2.676799297E0,-9.117398262E0,-1.137280583E0
3.523967668E0,-2.636096478E0,-9.117398262E0,-1.113337755E0
3.525967468E0,-2.621730804E0,-9.105426788E0,-1.082212210E0
3.527967201E0,-2.621730804E0,-9.095849991E0,-1.079817891E0
3.529966934E0,-2.607365370E0,-9.083878517E0,-1.065452337E0
3.531966667E0,-2.600182533E0,-9.117398262E0,-1.067846537E0
3.533966400E0,-2.583422422E0,-9.126976013E0,-1.060663700E0
3.535965766E0,-2.585816860E0,-9.143735886E0,-1.048692346E0
3.537965499E0,-2.592999697E0,-9.167677879E0,-1.041509509E0
3.539965232E0,-2.643279314E0,-9.280209541E0,-1.017566800E0
3.541965032E0,-2.643279314E0,-9.280209541E0,-1.017566800E0
3.543965965E0,-2.655250788E0,-9.318517685E0,-1.017566800E0
3.545965698E0,-2.686376333E0,-9.387951851E0,-1.039115310E0
3.547965431E0,-2.710319042E0,-9.423865318E0,-1.036720991E0
3.549965164E0,-2.753416061E0,-9.486116409E0,-1.024749637E0
3.551964897E0,-2.784541607E0,-9.522030830E0,-1.027143836E0
3.553964630E0,-2.801301479E0,-9.534002304E0,-1.029538155E0
3.555964430E0,-2.873129845E0,-9.577098846E0,-1.041509509E0
3.557964230E0,-2.930592299E0,-9.613013268E0,-1.039115310E0
3.559963963E0,-3.079037428E0,-9.811738014E0,-1.027143836E0
3.561963696E0,-3.079037428E0,-9.811738014E0,-1.027143836E0
3.563962962E0,-3.083826065E0,-9.852440834E0,-1.048692346E0
3.565962695E0,-3.076643229E0,-9.907508850E0,-1.094183564E0
3.567962428E0,-3.059883118E0,-9.921875000E0,-1.113337755E0
3.569962161E0,-3.033546209E0,-9.905115128E0,-1.156434774E0
3.571961961E0,-3.019180536E0,-9.878777504E0,-1.213897347E0
3.573961761E0,-3.000026226E0,-9.854835510E0,-1.249811411E0
3.575961494E0,-2.949746609E0,-9.838075638E0,-1.300091267E0
3.577961227E0,-2.940169573E0,-9.809344292E0,-1.316851139E0
3.579960960E0,-2.932986736E0,-9.790189743E0,-1.343188167E0
3.581960693E0,-2.932986736E0,-9.790189743E0,-1.343188167E0
3.583960926E0,-2.928198099E0,-9.778218269E0,-1.324033976E0
3.585960659E0,-2.921015263E0,-9.775823593E0,-1.252205729E0
3.587960459E0,-2.918621063E0,-9.751881599E0,-1.166011810E0
3.589960192E0,-2.911438227E0,-9.744698524E0,-1.120520592E0
3.591959925E0,-2.875524044E0,-9.708784103E0,-1.082212210E0
3.593959658E0,-2.846792698E0,-9.689630508E0,-1.070240855E0
3.595959391E0,-2.748627424E0,-9.639349937E0,-1.070240855E0
3.597959124E0,-2.624125242E0,-9.586676598E0,-1.103760719E0
3.599958857E0,-2.430188894E0,-9.493299484E0,-1.280937076E0
3.601958590E0,-2.430188894E0,-9.493299484E0,-1.280937076E0
3.603957190E0,-2.430188894E0,-9.493299484E0,-1.280937076E0
3.605956923E0,-2.346389294E0,-9.452596664E0,-1.374313712E0
3.607956656E0,-2.279349566E0,-9.428654671E0,-1.474873304E0
3.609956389E0,-2.243435383E0,-9.428654671E0,-1.513181686E0
3.611956122E0,-2.166818619E0,-9.431048393E0,-1.561067224E0
3.613955855E0,-2.121327400E0,-9.431048393E0,-1.556278586E0
3.615955588E0,-2.042316437E0,-9.452596664E0,-1.573038578E0
3.617955321E0,-1.939362645E0,-9.443019867E0,-1.594586968E0
3.619955121E0,-1.793311834E0,-9.443019867E0,-1.611346960E0
3.621954854E0,-1.793311834E0,-9.443019867E0,-1.611346960E0
3.623955054E0,-1.738243461E0,-9.457385063E0,-1.618529797E0
3.625954787E0,-1.652049661E0,-9.464568138E0,-1.652049661E0
3.627954520E0,-1.563461423E0,-9.459779739E0,-1.702329397E0
3.629954253E0,-1.532335877E0,-9.443019867E0,-1.721483588E0
3.631953986E0,-1.482056141E0,-9.438231468E0,-1.743032098E0
3.633953719E0,-1.403045058E0,-9.404711723E0,-1.766974807E0
3.635953519E0,-1.374313712E0,-9.368797302E0,-1.790917516E0
3.637953252E0,-1.374313712E0,-9.342460632E0,-1.810071707E0
3.639952985E0,-1.520364523E0,-9.402317047E0,-1.702329397E0
3.641952718E0,-1.520364523E0,-9.402317047E0,-1.702329397E0
3.643951951E0,-1.699935079E0,-9.466962814E0,-1.601769805E0
3.645951684E0,-1.786128998E0,-9.510059357E0,-1.585009933E0
3.647951417E0,-1.901054144E0,-9.567522049E0,-1.568249941E0
3.649951217E0,-1.920208454E0,-9.586676598E0,-1.573038578E0
3.651951017E0,-1.929785490E0,-9.589070320E0,-1.594586968E0
3.653950750E0,-2.001613855E0,-9.584281921E0,-1.582615614E0
3.655950483E0,-2.066259146E0,-9.584281921E0,-1.553884387E0
3.657950216E0,-2.257801056E0,-9.603436470E0,-1.472478986E0
3.659949949E0,-2.473285913E0,-9.646533012E0,-1.400650740E0
3.661949682E0,-2.473285913E0,-9.646533012E0,-1.400650740E0
3.663948948E0,-2.482862949E0,-9.644139290E0,-1.422199249E0
3.665948748E0,-2.499622822E0,-9.644139290E0,-1.436564922E0
3.667948481E0,-2.547508478E0,-9.665687561E0,-1.431776285E0
3.669948214E0,-2.571451187E0,-9.680052757E0,-1.410227895E0
3.671947947E0,-2.624125242E0,-9.682447433E0,-1.307274103E0
3.673947680E0,-2.667222023E0,-9.670475960E0,-1.213897347E0
3.675947413E0,-2.676799297E0,-9.663292885E0,-1.166011810E0
3.677947146E0,-2.700742006E0,-9.629773140E0,-1.046298146E0
3.679946879E0,-2.758204460E0,-9.610619545E0,-9.289786220E-1
3.681946679E0,-2.770175934E0,-9.603436470E0,-9.026415944E-1
3.683946412E0,-2.760598898E0,-9.596253395E0,-8.786988258E-1
3.685946145E0,-2.746233225E0,-9.591464996E0,-8.667274714E-1
3.687945878E0,-2.743839025E0,-9.601041794E0,-8.643332124E-1
3.689945611E0,-2.703136206E0,-9.593858719E0,-9.050358534E-1
3.691945344E0,-2.676799297E0,-9.610619545E0,-9.313728809E-1
3.693945077E0,-2.636096478E0,-9.629773140E0,-9.553156495E-1
3.695944810E0,-2.616942406E0,-9.639349937E0,-9.505270720E-1
3.697944610E0,-2.597788095E0,-9.636956215E0,-9.433442950E-1
3.699944343E0,-2.631308079E0,-9.641744614E0,-9.601042271E-1
3.701944076E0,-2.640885115E0,-9.658504486E0,-9.816526771E-1
3.703943809E0,-2.645673752E0,-9.670475960E0,-1.010383964E0
3.705943542E0,-2.655250788E0,-9.675264359E0,-1.034326673E0
3.707943275E0,-2.710319042E0,-9.706390381E0,-1.091789365E0
3.709943008E0,-2.798907280E0,-9.778218269E0,-1.130097747E0
3.711942741E0,-2.815667152E0,-9.806949615E0,-1.137280583E0
3.713942541E0,-2.856369734E0,-9.826104164E0,-1.166011810E0
3.715942274E0,-2.873129845E0,-9.842864037E0,-1.180377483E0
3.717942007E0,-2.916226625E0,-9.869200706E0,-1.168406129E0
3.719941740E0,-2.916226625E0,-9.914691925E0,-1.187560320E0
3.721941473E0,-2.916226625E0,-9.914691925E0,-1.187560320E0
3.723941273E0,-2.930592299E0,-9.924268723E0,-1.180377483E0
3.725941006E0,-2.944957972E0,-9.941028595E0,-1.166011810E0
3.727940806E0,-2.944957972E0,-9.948211670E0,-1.149251938E0
3.729940606E0,-2.959323645E0,-9.919480324E0,-1.108549237E0
3.731940339E0,-2.976083517E0,-9.876383781E0,-1.103760719E0
3.733940072E0,-2.992843628E0,-9.818921089E0,-1.082212210E0
3.735939805E0,-3.007209063E0,-9.780612946E0,-1.082212210E0
3.737939538E0,-3.000026226E0,-9.747093201E0,-1.084606528E0
3.739939271E0,-3.004814863E0,-9.668081284E0,-1.079817891E0
3.741938971E0,-3.004814863E0,-9.668081284E0,-1.079817891E0
3.743938337E0,-3.035940409E0,-9.646533012E0,-1.070240855E0
3.745938137E0,-3.093403101E0,-9.584281921E0,-1.058269501E0
3.747937870E0,-3.114951611E0,-9.562733650E0,-1.051086664E0
3.749937603E0,-3.129317284E0,-9.502876282E0,-1.041509509E0
3.751937336E0,-3.126922846E0,-9.466962814E0,-1.036720991E0
3.753937069E0,-3.114951611E0,-9.433443069E0,-1.084606528E0
3.755936802E0,-3.110162973E0,-9.438231468E0,-1.168406129E0
3.757936535E0,-3.098191500E0,-9.421471596E0,-1.209108829E0
3.759936335E0,-3.079037428E0,-9.258660316E0,-1.247417212E0
3.761936068E0,-3.079037428E0,-9.258660316E0,-1.247417212E0
3.763935801E0,-3.093403101E0,-9.263449669E0,-1.247417212E0
3.765935534E0,-3.181991339E0,-9.328094482E0,-1.300091267E0
3.767935267E0,-3.201145411E0,-9.368797302E0,-1.316851139E0
3.769935000E0,-3.172414064E0,-9.447808266E0,-1.331216812E0
3.771934733E0,-3.107768774E0,-9.457385063E0,-1.431776285E0
3.773934466E0,-2.978477955E0,-9.454991341E0,-1.484450340E0
3.775934266E0,-2.909043789E0,-9.464568138E0,-1.575432777E0
3.777933999E0,-2.889889717E0,-9.471751213E0,-1.599375606E0
3.779933732E0,-2.856369734E0,-9.555550575E0,-1.618529797E0
3.781933465E0,-2.827638626E0,-9.572310448E0,-1.618529797E0
3.783933598E0,-2.827638626E0,-9.572310448E0,-1.618529797E0
3.785933331E0,-2.734261751E0,-9.579493523E0,-1.671203852E0
3.787933064E0,-2.655250788E0,-9.579493523E0,-1.716695070E0
3.789932797E0,-2.521171331E0,-9.577098846E0,-1.766974807E0
3.791932597E0,-2.408640385E0,-9.605830193E0,-1.810071707E0
3.793932330E0,-2.341600657E0,-9.627379417E0,-1.824437380E0
3.795932063E0,-2.205127001E0,-9.639349937E0,-1.874717116E0
3.797931796E0,-2.126116037E0,-9.651321411E0,-1.905842781E0
3.799931529E0,-1.843591571E0,-9.591464996E0,-2.030344963E0
3.801931295E0,-1.843591571E0,-9.591464996E0,-2.030344963E0
3.803931461E0,-1.776551962E0,-9.557945251E0,-2.047105074E0
3.805931194E0,-1.649655342E0,-9.579493523E0,-2.083019018E0
3.807930994E0,-1.594586968E0,-9.593858719E0,-2.111750364E0
3.809930760E0,-1.477267504E0,-9.641744614E0,-2.178790092E0
3.811930526E0,-1.333611012E0,-9.708784103E0,-2.226675510E0
3.813930292E0,-1.264177084E0,-9.739910126E0,-2.257801056E0
3.815930058E0,-1.142069101E0,-9.775823593E0,-2.243435383E0
3.817929824E0,-1.094183564E0,-9.806949615E0,-2.200338602E0
3.819929590E0,-9.792584181E-1,-9.768641472E0,-2.044710636E0
3.821929423E0,-9.792584181E-1,-9.768641472E0,-2.044710636E0
3.823929256E0,-9.720755816E-1,-9.773429871E0,-1.972882390E0
3.825929022E0,-9.720755816E-1,-9.790189743E0,-1.843591571E0
3.827928788E0,-9.457385540E-1,-9.823709488E0,-1.721483588E0
3.829928554E0,-9.553156495E-1,-9.842864037E0,-1.668809533E0
3.831928320E0,-9.840469360E-1,-9.876383781E0,-1.582615614E0
3.833928086E0,-9.960182905E-1,-9.888355255E0,-1.563461423E0
3.835927852E0,-1.041509509E0,-9.943423271E0,-1.529941559E0
3.837927685E0,-1.087000728E0,-9.976943016E0,-1.522758722E0
3.839927451E0,-1.206714511E0,-1.005356026E1,-1.596981287E0
3.841927217E0,-1.242628574E0,-1.007750225E1,-1.623318315E0
3.843926983E0,-1.242628574E0,-1.007750225E1,-1.623318315E0
3.845926316E0,-1.312062621E0,-1.012778282E1,-1.707117915E0
3.847926082E0,-1.371919513E0,-1.017806244E1,-1.807677507E0
3.849925848E0,-1.410227895E0,-1.020679379E1,-1.869928598E0
3.851925614E0,-1.496421814E0,-1.024989033E1,-1.970488191E0
3.853925447E0,-1.553884387E0,-1.026665020E1,-2.013585091E0
3.855925213E0,-1.649655342E0,-1.029298782E1,-2.087807655E0
3.857924979E0,-1.757397652E0,-1.030016994E1,-2.159635782E0
3.859924745E0,-1.915419817E0,-1.027622795E1,-2.324840784E0
3.861924511E0,-1.915419817E0,-1.027622795E1,-2.324840784E0
3.863924277E0,-1.963305354E0,-1.029059315E1,-2.442160368E0
3.865924043E0,-2.068653345E0,-1.030495834E1,-2.506805658E0
3.867923809E0,-2.159635782E0,-1.031932449E1,-2.628913641E0
3.869923609E0,-2.217098475E0,-1.033847904E1,-2.703136206E0
3.871923342E0,-2.339206457E0,-1.037439251E1,-2.839609861E0
3.873923075E0,-2.423006058E0,-1.041749001E1,-2.954535007E0
3.875922808E0,-2.454131603E0,-1.043664360E1,-3.026363373E0
3.877922541E0,-2.502017260E0,-1.044622135E1,-3.179596901E0
3.879922274E0,-2.537931204E0,-1.047734642E1,-3.397475958E0
3.881922007E0,-2.537931204E0,-1.048931789E1,-3.397475958E0
3.883921740E0,-2.540325642E0,-1.048931789E1,-3.524372578E0
3.885921540E0,-2.537931204E0,-1.048931789E1,-3.586623669E0
3.887921273E0,-2.545114040E0,-1.050607777E1,-3.737462997E0
3.889921006E0,-2.537931204E0,-1.050607777E1,-3.816473961E0
3.891920739E0,-2.513988495E0,-1.049650097E1,-3.964919090E0
3.893920472E0,-2.470891714E0,-1.049889469E1,-4.134912491E0
3.895919272E0,-2.430188894E0,-1.049889469E1,-4.228289127E0
3.897919005E0,-2.363149166E0,-1.050368404E1,-4.395888329E0
3.899918805E0,-2.226675510E0,-1.047734642E1,-4.647287369E0
3.901918571E0,-2.226675510E0,-1.047734642E1,-4.647287369E0
3.903917871E0,-2.207521439E0,-1.046776962E1,-4.707144260E0
3.905918037E0,-2.178790092E0,-1.046298122E1,-4.745452881E0
3.907917770E0,-2.114144564E0,-1.046776962E1,-4.776578426E0
3.909917503E0,-2.080624819E0,-1.043424988E1,-4.755029678E0
3.911917236E0,-1.992036581E0,-1.040791225E1,-4.728692532E0
3.913916969E0,-1.869928598E0,-1.034087276E1,-4.666441441E0
3.915916769E0,-1.810071707E0,-1.030495834E1,-4.628133297E0
3.917916502E0,-1.642472506E0,-1.021637058E1,-4.522785187E0
3.919916235E0,-1.374313712E0,-1.008468533E1,-4.338426113E0
3.921915968E0,-1.288119793E0,-1.003440571E1,-4.276175022E0
3.923915701E0,-1.194743156E0,-9.988914490E0,-4.206740856E0
3.925915434E0,-1.089395046E0,-9.945817947E0,-4.144489765E0
3.927915167E0,-8.810931444E-1,-9.842864037E0,-4.010410309E0
3.929914900E0,-7.182824612E-1,-9.730332375E0,-3.893090725E0
3.931914700E0,-6.296942830E-1,-9.682447433E0,-3.842811108E0
3.933914433E0,-4.716721475E-1,-9.579493523E0,-3.723097324E0
3.935913733E0,-4.070267081E-1,-9.524425507E0,-3.675211906E0
3.937913466E0,-3.232271075E-1,-9.419076920E0,-3.572257996E0
3.939913199E0,-1.891477108E-1,-9.241900444E0,-3.330436230E0
3.941912932E0,-1.532335877E-1,-9.170072556E0,-3.241847992E0
3.943912665E0,-1.316851079E-1,-9.098244667E0,-3.160442829E0
3.945912398E0,-1.412622184E-1,-9.038387299E0,-3.076643229E0
3.947912198E0,-1.388679445E-1,-8.889942169E0,-2.880312681E0
3.949911931E0,-1.939362586E-1,-8.751074791E0,-2.648067951E0
3.951911664E0,-2.274561077E-1,-8.681640625E0,-2.540325642E0
3.953911397E0,-3.304099143E-1,-8.518829346E0,-2.308080912E0
3.955913130E0,-4.597007632E-1,-8.353624344E0,-2.094990492E0
3.957912863E0,-5.435003638E-1,-8.269824982E0,-2.015979290E0
3.959912596E0,-8.978530765E-1,-7.925049782E0,-1.702329397E0
3.961912329E0,-8.978530765E-1,-7.925049782E0,-1.702329397E0
3.963912095E0,-1.000806928E0,-7.848433018E0,-1.640078187E0
3.965911828E0,-1.225868702E0,-7.740690231E0,-1.582615614E0
3.967911561E0,-1.352765322E0,-7.709564686E0,-1.556278586E0
3.969911294E0,-1.585009933E0,-7.680833817E0,-1.474873304E0
3.971911027E0,-1.692752242E0,-7.671256542E0,-1.426987767E0
3.973910760E0,-1.922602654E0,-7.721536160E0,-1.328822494E0
3.975910493E0,-2.159635782E0,-7.716747761E0,-1.223474383E0
3.977910293E0,-2.274561167E0,-7.707170486E0,-1.177983165E0
3.979910093E0,-2.636096478E0,-7.439012051E0,-1.041509509E0
3.981909826E0,-2.636096478E0,-7.439012051E0,-1.041509509E0
3.983909559E0,-2.715107679E0,-7.348029613E0,-1.024749637E0
3.985909292E0,-2.849187136E0,-7.137333393E0,-1.027143836E0
3.987909025E0,-2.918621063E0,-7.034379482E0,-1.053480864E0
3.989908758E0,-3.074248791E0,-6.845231533E0,-1.096577883E0
3.991908491E0,-3.153259993E0,-6.751854897E0,-1.127703428E0
3.993908291E0,-3.313676357E0,-6.557918549E0,-1.192348838E0
3.995909324E0,-3.471698523E0,-6.416656494E0,-1.288119793E0
3.997909057E0,-3.541132450E0,-6.325674057E0,-1.355159521E0
3.999908790E0,-3.682394743E0,-6.055120945E0,-1.699935079E0
4.001908523E0,-3.682394743E0,-6.055120945E0,-1.699935079E0
4.003908256E0,-3.708731651E0,-6.000052452E0,-1.778946161E0
4.005907989E0,-3.785348415E0,-5.940196037E0,-1.905842781E0
4.007907722E0,-3.828445435E0,-5.928224564E0,-1.956122518E0
4.009907522E0,-3.905062199E0,-5.925830364E0,-2.047105074E0
4.011909122E0,-3.943370581E0,-5.865973473E0,-2.013585091E0
4.013908855E0,-3.972101927E0,-5.837242126E0,-2.023162127E0
4.015907521E0,-4.017592907E0,-5.772596359E0,-2.063864946E0
4.017907254E0,-4.039141655E0,-5.719922543E0,-2.042316437E0
4.019906887E0,-4.125335693E0,-5.573871613E0,-1.977671027E0
4.021906653E0,-4.125335693E0,-5.593026161E0,-1.977671027E0
4.023906853E0,-4.204346657E0,-5.593026161E0,-2.008796453E0
4.025906653E0,-4.410254002E0,-5.621757030E0,-2.059076309E0
4.027906386E0,-4.506025314E0,-5.624151707E0,-2.073441982E0
4.029906119E0,-4.948966026E0,-5.698374271E0,-2.257801056E0
4.031905852E0,-5.147690773E0,-5.657671452E0,-2.075836182E0
4.033905585E0,-5.061496735E0,-5.607391834E0,-2.047105074E0
4.035905318E0,-4.893897533E0,-5.506832123E0,-2.063864946E0
4.037905051E0,-4.881926537E0,-5.468523502E0,-1.994430900E0
4.039904784E0,-4.245049000E0,-5.253038883E0,-1.237840056E0
4.041904584E0,-4.245049000E0,-5.253038883E0,-1.237840056E0
4.043905084E0,-4.089421272E0,-5.233884811E0,-1.082212210E0
4.045904817E0,-3.917033672E0,-5.253038883E0,-7.326480746E-1
4.047904550E0,-3.914639235E0,-5.341627121E0,-5.650488734E-1
4.049904283E0,-3.852388144E0,-5.391906738E0,-2.490045726E-1
4.051904016E0,-3.629720688E0,-5.504437923E0,4.788549617E-2
4.053903749E0,-3.414235830E0,-5.557111740E0,1.604164094E-1
4.055902249E0,-2.988054991E0,-5.681613922E0,2.513988614E-1
4.057902049E0,-2.655250788E0,-5.791750908E0,2.106961906E-1
4.059901782E0,-2.401457548E0,-5.899493217E0,1.173194647E-1
4.061901515E0,-2.401457548E0,-5.899493217E0,1.173194647E-1
4.063901248E0,-2.401457548E0,-5.921041489E0,6.703969836E-2
4.065900981E0,-2.497228622E0,-5.961744308E0,-6.225114316E-2
4.067900714E0,-2.573845387E0,-5.959350109E0,-1.556278616E-1
4.069900447E0,-2.607365370E0,-5.966532707E0,-1.939362586E-1
4.071898380E0,-2.636096478E0,-5.930618763E0,-2.394274771E-1
4.073898180E0,-2.609759569E0,-5.897099018E0,-2.609759569E-1
