"Time (s)","Acceleration x (m/s^2)","Acceleration y (m/s^2)","Acceleration z (m/s^2)"
0.000000000E0,-1.838746905E0,-1.163342571E1,1.465251446E0
5.005000000E-3,-1.838746905E0,-1.163342571E1,1.465251446E0
1.001000000E-2,-1.838746905E0,-1.163342571E1,1.465251446E0
1.501500000E-2,-1.838746905E0,-1.163342571E1,1.465251446E0
2.002000000E-2,-6.799532771E-1,-1.003649330E1,-2.585737705E-1
2.502500000E-2,-5.961562395E-1,-9.983820915E0,-2.154781520E-1
3.002900000E-2,-5.530605912E-1,-9.921571732E0,-1.747767180E-1
3.503400000E-2,-5.506663918E-1,-9.801861763E0,-1.532289088E-1
4.003900000E-2,-5.674257874E-1,-9.737217903E0,-1.915361285E-1
4.498300000E-2,-6.129156351E-1,-9.689333916E0,-2.657563984E-1
4.998800000E-2,-6.344634295E-1,-9.689333916E0,-3.734954596E-1
5.499300000E-2,-6.344634295E-1,-9.696516991E0,-4.908113480E-1
5.999800000E-2,-5.937620401E-1,-9.710882187E0,-5.602431893E-1
6.500200000E-2,-5.913678408E-1,-9.706093788E0,-6.536170840E-1
7.000700000E-2,-5.363011956E-1,-9.720458984E0,-6.895300746E-1
7.501200000E-2,-5.219359994E-1,-9.737217903E0,-6.847416759E-1
8.001700000E-2,-4.596867263E-1,-9.734824181E0,-6.847416759E-1
8.502200000E-2,-4.022258818E-1,-9.773131371E0,-6.488286853E-1
9.002700000E-2,-3.639186621E-1,-9.792284966E0,-5.770025849E-1
9.503200000E-2,-3.687070608E-1,-9.837775230E0,-4.788403511E-1
1.000370000E-1,-3.950432837E-1,-9.835380554E0,-4.525041282E-1
1.049800000E-1,-4.237737060E-1,-9.809044838E0,-4.548983276E-1
1.099850000E-1,-4.740519226E-1,-9.864110947E0,-4.860229492E-1
1.149900000E-1,-5.363011956E-1,-9.897629738E0,-5.363011956E-1
1.199950000E-1,-5.434837937E-1,-9.991003990E0,-5.722141862E-1
1.250000000E-1,-4.932055473E-1,-1.006282997E1,-5.602431893E-1
1.300050000E-1,-3.974374831E-1,-1.010353088E1,-4.979939461E-1
1.350100000E-1,-2.896983922E-1,-1.010831928E1,-3.758896589E-1
1.400140000E-1,-2.154781520E-1,-1.011310768E1,-2.705447972E-1
1.450190000E-1,-1.364694983E-1,-1.011789608E1,-1.987187415E-1
1.500240000E-1,-8.140286058E-2,-1.010113716E1,-1.173158810E-1
1.550290000E-1,-6.464344263E-2,-1.004128170E1,-5.027823523E-2
1.600340000E-1,-4.548983276E-2,-1.002452278E1,2.394201700E-3
1.650390000E-1,-2.154781483E-2,-9.981427193E0,-7.182605099E-3
1.699830000E-1,-2.633621916E-2,-9.864110947E0,-4.788403213E-2
1.749880000E-1,-6.224924326E-2,-9.768342972E0,-1.029506698E-1
1.799920000E-1,-1.963245422E-1,-9.677363396E0,-2.082955539E-1
1.849970000E-1,-3.711012602E-1,-9.567230225E0,-3.711012602E-1
1.900020000E-1,-4.596867263E-1,-9.540893555E0,-4.860229492E-1
1.950070000E-1,-5.147533417E-1,-9.528923035E0,-5.817909837E-1
2.000120000E-1,-5.339069963E-1,-9.512163162E0,-6.823474765E-1
2.050170000E-1,-5.147533417E-1,-9.524134636E0,-7.565677166E-1
2.100220000E-1,-4.237737060E-1,-9.550470352E0,-7.805097699E-1
2.150260000E-1,-3.782838583E-1,-9.557653427E0,-7.493851185E-1
2.200310000E-1,-3.447650373E-1,-9.569623947E0,-7.062895298E-1
2.250360000E-1,-3.303998411E-1,-9.548076630E0,-6.560112834E-1
2.299800000E-1,-3.567360640E-1,-9.545681953E0,-6.416460276E-1
2.349850000E-1,-4.237737060E-1,-9.543288231E0,-6.105214357E-1
2.399900000E-1,-4.884171486E-1,-9.583989143E0,-6.248866320E-1
2.449950000E-1,-5.770025849E-1,-9.634267807E0,-6.344634295E-1
2.500000000E-1,-6.368576288E-1,-9.689333916E0,-6.584054828E-1
2.550070000E-1,-6.560112834E-1,-9.727641106E0,-6.368576288E-1
2.600120000E-1,-6.272808313E-1,-9.768342972E0,-6.272808313E-1
2.650170000E-1,-5.841852427E-1,-9.823410034E0,-6.009446383E-1
2.700220000E-1,-5.147533417E-1,-9.880870819E0,-5.195417404E-1
2.750260000E-1,-4.548983276E-1,-9.928754807E0,-4.596867263E-1
2.800310000E-1,-4.046200812E-1,-9.947908401E0,-3.926490843E-1
2.850360000E-1,-3.854664862E-1,-9.923966408E0,-3.088520169E-1
2.899800000E-1,-3.591302633E-1,-9.907206535E0,-2.466027737E-1
2.949850000E-1,-3.615244627E-1,-9.840168953E0,-2.035071403E-1
2.999900000E-1,-4.046200812E-1,-9.782708168E0,-1.819593310E-1
3.049950000E-1,-4.908113480E-1,-9.686940193E0,-2.178723514E-1
3.099990000E-1,-5.793967843E-1,-9.653421402E0,-2.705447972E-1
3.150040000E-1,-6.488286853E-1,-9.629479408E0,-3.136404157E-1
3.200090000E-1,-6.847416759E-1,-9.634267807E0,-3.591302633E-1
3.250140000E-1,-6.967126727E-1,-9.617507935E0,-3.926490843E-1
3.300190000E-1,-6.919242740E-1,-9.603142738E0,-4.860229492E-1
3.350240000E-1,-6.488286853E-1,-9.600749016E0,-5.410895944E-1
3.400290000E-1,-6.488286853E-1,-9.639056206E0,-5.434837937E-1
3.450340000E-1,-6.823474765E-1,-9.646238327E0,-5.243301988E-1
3.500380000E-1,-6.799532771E-1,-9.679757118E0,-5.434837937E-1
3.549820000E-1,-7.015010715E-1,-9.737217903E0,-5.386953950E-1
3.599870000E-1,-7.445967197E-1,-9.792284966E0,-5.602431893E-1
3.649920000E-1,-7.972691655E-1,-9.809044838E0,-5.602431893E-1
3.699970000E-1,-8.236053586E-1,-9.856928825E0,-5.602431893E-1
3.750020000E-1,-8.571242094E-1,-9.864110947E0,-5.434837937E-1
3.800070000E-1,-8.523358107E-1,-9.871294022E0,-5.099649429E-1
3.850120000E-1,-8.331822157E-1,-9.921571732E0,-4.860229492E-1
3.900160000E-1,-7.637503147E-1,-9.947908401E0,-4.501099288E-1
3.950210000E-1,-6.703764796E-1,-9.950302124E0,-3.998316824E-1
4.000260000E-1,-5.722141862E-1,-9.938331604E0,-3.543418646E-1
4.050310000E-1,-4.955997467E-1,-9.926360130E0,-3.136404157E-1
4.100360000E-1,-4.094084799E-1,-9.880870819E0,-3.040636182E-1
4.149800000E-1,-3.375824392E-1,-9.864110947E0,-2.346317619E-1
4.199850000E-1,-3.112462163E-1,-9.809044838E0,-1.867477298E-1
4.249890000E-1,-3.064578176E-1,-9.777919769E0,-1.580173075E-1
4.299940000E-1,-3.423708379E-1,-9.742006302E0,-1.963245422E-1
4.349990000E-1,-4.070142806E-1,-9.698910713E0,-2.753331959E-1
4.400040000E-1,-4.644751251E-1,-9.684545517E0,-3.639186621E-1
4.450090000E-1,-5.171475410E-1,-9.641449928E0,-4.501099288E-1
4.500140000E-1,-5.075707436E-1,-9.619902611E0,-5.506663918E-1
4.550190000E-1,-5.003881454E-1,-9.629479408E0,-5.793967843E-1
4.600240000E-1,-4.405331016E-1,-9.655815125E0,-5.770025849E-1
4.650280000E-1,-4.357447028E-1,-9.686940193E0,-5.746083856E-1
4.700330000E-1,-4.046200812E-1,-9.701305389E0,-5.913678408E-1
4.750380000E-1,-3.926490843E-1,-9.708487511E0,-5.913678408E-1
4.799820000E-1,-4.118026793E-1,-9.725247383E0,-5.889736414E-1
4.849870000E-1,-4.333505034E-1,-9.765948296E0,-5.770025849E-1
4.899920000E-1,-4.572925270E-1,-9.787496567E0,-5.698199868E-1
4.949970000E-1,-4.836287498E-1,-9.785101891E0,-5.578489900E-1
5.000010000E-1,-5.051765442E-1,-9.753977776E0,-5.363011956E-1
5.050060000E-1,-5.530605912E-1,-9.742006302E0,-5.434837937E-1
5.100110000E-1,-5.626373887E-1,-9.746794701E0,-5.386953950E-1
5.150160000E-1,-5.530605912E-1,-9.775525093E0,-5.147533417E-1
5.200210000E-1,-5.458779931E-1,-9.794678688E0,-4.572925270E-1
5.250260000E-1,-5.578489900E-1,-9.825803757E0,-4.309563041E-1
5.300310000E-1,-5.626373887E-1,-9.825803757E0,-4.333505034E-1
5.350360000E-1,-5.722141862E-1,-9.818621635E0,-4.405331016E-1
5.398570000E-1,-5.458779931E-1,-9.797073364E0,-4.596867263E-1
5.449840000E-1,-5.482721925E-1,-9.777919769E0,-5.195417404E-1
5.499890000E-1,-5.267243981E-1,-9.768342972E0,-5.123591423E-1
5.549940000E-1,-5.315127969E-1,-9.727641106E0,-5.291185975E-1
5.599990000E-1,-5.099649429E-1,-9.706093788E0,-5.219359994E-1
5.650040000E-1,-5.339069963E-1,-9.682151794E0,-5.339069963E-1
5.700090000E-1,-5.530605912E-1,-9.682151794E0,-5.075707436E-1
5.750130000E-1,-5.602431893E-1,-9.653421402E0,-5.363011956E-1
5.800180000E-1,-5.650315881E-1,-9.691728592E0,-5.458779931E-1
5.850230000E-1,-5.602431893E-1,-9.722852707E0,-5.770025849E-1
5.900280000E-1,-5.530605912E-1,-9.696516991E0,-6.105214357E-1
5.950330000E-1,-5.410895944E-1,-9.727641106E0,-6.488286853E-1
6.000380000E-1,-5.434837937E-1,-9.715670586E0,-6.631938815E-1
6.049820000E-1,-5.123591423E-1,-9.749189377E0,-6.224924326E-1
6.099870000E-1,-4.788403511E-1,-9.765948296E0,-5.674257874E-1
6.149910000E-1,-4.884171486E-1,-9.818621635E0,-5.291185975E-1
6.199960000E-1,-4.955997467E-1,-9.871294022E0,-4.740519226E-1
6.250010000E-1,-5.099649429E-1,-9.919178009E0,-3.806780577E-1
6.300060000E-1,-4.692635238E-1,-9.914389610E0,-3.399766386E-1
6.350110000E-1,-4.405331016E-1,-9.914389610E0,-2.944868207E-1
6.400160000E-1,-4.572925270E-1,-9.868899345E0,-2.873041928E-1
6.450210000E-1,-4.501099288E-1,-9.818621635E0,-2.992752194E-1
6.500250000E-1,-4.596867263E-1,-9.806650162E0,-3.351882398E-1
6.550300000E-1,-4.716577232E-1,-9.792284966E0,-4.381389022E-1
6.600350000E-1,-4.812345505E-1,-9.761159897E0,-5.267243981E-1
6.649790000E-1,-5.003881454E-1,-9.730035782E0,-5.626373887E-1
6.699840000E-1,-4.836287498E-1,-9.703699112E0,-6.177040339E-1
6.749890000E-1,-4.309563041E-1,-9.689333916E0,-6.224924326E-1
6.799940000E-1,-4.141969085E-1,-9.679757118E0,-6.320692301E-1
6.849990000E-1,-3.998316824E-1,-9.667786598E0,-6.153098345E-1
6.900030000E-1,-4.046200812E-1,-9.665391922E0,-6.129156351E-1
6.950080000E-1,-3.926490843E-1,-9.665391922E0,-6.200982332E-1
7.000130000E-1,-3.974374831E-1,-9.670180321E0,-6.200982332E-1
7.050180000E-1,-3.878606856E-1,-9.665391922E0,-5.913678408E-1
7.100230000E-1,-4.070142806E-1,-9.667786598E0,-6.272808313E-1
7.150280000E-1,-4.189853072E-1,-9.686940193E0,-6.224924326E-1
7.200330000E-1,-4.094084799E-1,-9.708487511E0,-6.057330370E-1
7.250370000E-1,-4.309563041E-1,-9.725247383E0,-5.793967843E-1
7.299810000E-1,-4.189853072E-1,-9.787496567E0,-5.386953950E-1
7.349860000E-1,-4.381389022E-1,-9.842563629E0,-4.860229492E-1
7.399910000E-1,-4.405331016E-1,-9.864110947E0,-4.477157295E-1
7.449960000E-1,-4.812345505E-1,-9.897629738E0,-4.405331016E-1
7.500010000E-1,-4.620809257E-1,-9.914389610E0,-4.477157295E-1
7.550060000E-1,-4.501099288E-1,-9.943120003E0,-4.165911078E-1
7.600110000E-1,-4.141969085E-1,-9.933543205E0,-4.070142806E-1
7.650150000E-1,-4.141969085E-1,-9.931148529E0,-4.070142806E-1
7.700200000E-1,-4.405331016E-1,-9.890447617E0,-4.070142806E-1
7.750250000E-1,-4.620809257E-1,-9.804255486E0,-4.668693244E-1
7.800300000E-1,-4.740519226E-1,-9.756371498E0,-5.051765442E-1
7.850350000E-1,-4.836287498E-1,-9.703699112E0,-5.698199868E-1
7.899790000E-1,-4.932055473E-1,-9.698910713E0,-5.961562395E-1
7.949840000E-1,-4.908113480E-1,-9.670180321E0,-6.177040339E-1
7.999880000E-1,-4.836287498E-1,-9.682151794E0,-6.440402865E-1
8.049930000E-1,-4.788403511E-1,-9.694122314E0,-6.320692301E-1
8.099980000E-1,-4.525041282E-1,-9.713275909E0,-6.344634295E-1
8.150030000E-1,-4.309563041E-1,-9.696516991E0,-6.392518282E-1
8.200080000E-1,-4.046200812E-1,-9.686940193E0,-6.009446383E-1
8.250130000E-1,-3.878606856E-1,-9.689333916E0,-5.889736414E-1
8.300180000E-1,-3.758896589E-1,-9.715670586E0,-5.315127969E-1
8.350230000E-1,-4.022258818E-1,-9.730035782E0,-5.315127969E-1
8.400270000E-1,-3.926490843E-1,-9.773131371E0,-5.003881454E-1
8.450320000E-1,-3.974374831E-1,-9.835380554E0,-4.908113480E-1
8.500370000E-1,-3.711012602E-1,-9.873687744E0,-4.860229492E-1
8.549810000E-1,-3.519476354E-1,-9.856928825E0,-4.620809257E-1
8.599860000E-1,-3.375824392E-1,-9.840168953E0,-4.477157295E-1
8.649910000E-1,-3.639186621E-1,-9.816226959E0,-4.309563041E-1
8.699960000E-1,-3.758896589E-1,-9.804255486E0,-4.884171486E-1
8.750000000E-1,-3.950432837E-1,-9.804255486E0,-5.482721925E-1
8.800050000E-1,-4.189853072E-1,-9.801861763E0,-6.033388376E-1
8.850100000E-1,-4.070142806E-1,-9.792284966E0,-6.344634295E-1
8.900150000E-1,-4.070142806E-1,-9.773131371E0,-6.631938815E-1
8.950200000E-1,-4.237737060E-1,-9.730035782E0,-6.607996821E-1
9.000250000E-1,-4.141969085E-1,-9.677363396E0,-6.631938815E-1
9.050300000E-1,-3.998316824E-1,-9.686940193E0,-6.536170840E-1
9.100350000E-1,-4.046200812E-1,-9.672574997E0,-6.871358752E-1
9.150390000E-1,-3.998316824E-1,-9.660603523E0,-6.775590777E-1
9.199830000E-1,-3.615244627E-1,-9.631873131E0,-6.607996821E-1
9.249880000E-1,-3.088520169E-1,-9.677363396E0,-6.727706790E-1
9.299930000E-1,-2.705447972E-1,-9.691728592E0,-5.985504389E-1
9.349980000E-1,-2.705447972E-1,-9.737217903E0,-5.722141862E-1
9.400030000E-1,-2.729389966E-1,-9.768342972E0,-5.626373887E-1
9.450080000E-1,-2.992752194E-1,-9.787496567E0,-5.482721925E-1
9.500120000E-1,-3.399766386E-1,-9.813833237E0,-5.386953950E-1
9.550170000E-1,-3.351882398E-1,-9.828198433E0,-5.003881454E-1
9.600220000E-1,-3.639186621E-1,-9.823410034E0,-5.003881454E-1
9.650270000E-1,-3.806780577E-1,-9.830592155E0,-4.860229492E-1
9.700320000E-1,-4.237737060E-1,-9.837775230E0,-5.363011956E-1
9.750370000E-1,-4.453215301E-1,-9.866505623E0,-5.530605912E-1
9.799810000E-1,-4.596867263E-1,-9.868899345E0,-5.578489900E-1
9.849860000E-1,-4.381389022E-1,-9.840168953E0,-5.506663918E-1
9.899900000E-1,-4.548983276E-1,-9.794678688E0,-5.913678408E-1
9.949950000E-1,-4.357447028E-1,-9.751583099E0,-5.865794420E-1
1.000000000E0,-4.716577232E-1,-9.730035782E0,-6.272808313E-1
1.005005000E0,-4.908113480E-1,-9.725247383E0,-6.560112834E-1
1.010010000E0,-4.381389022E-1,-9.708487511E0,-6.536170840E-1
1.015015000E0,-3.543418646E-1,-9.689333916E0,-6.943184733E-1
1.020020000E0,-3.303998411E-1,-9.651026726E0,-7.134721279E-1
1.025025000E0,-2.777273953E-1,-9.634267807E0,-7.015010715E-1
1.030029000E0,-2.537853718E-1,-9.615114212E0,-7.086837292E-1
1.035034000E0,-2.729389966E-1,-9.627084732E0,-6.991068721E-1
1.040039000E0,-3.112462163E-1,-9.639056206E0,-6.703764796E-1
1.044983000E0,-3.950432837E-1,-9.682151794E0,-6.631938815E-1
1.049988000E0,-4.357447028E-1,-9.742006302E0,-6.248866320E-1
1.054993000E0,-4.477157295E-1,-9.770736694E0,-5.602431893E-1
1.059998000E0,-4.716577232E-1,-9.840168953E0,-5.530605912E-1
1.065002000E0,-4.908113480E-1,-9.890447617E0,-5.554547906E-1
1.070007000E0,-4.764461517E-1,-9.907206535E0,-5.386953950E-1
1.075012000E0,-4.405331016E-1,-9.880870819E0,-4.788403511E-1
1.080017000E0,-4.189853072E-1,-9.844957352E0,-4.357447028E-1
1.085022000E0,-4.022258818E-1,-9.775525093E0,-4.285621047E-1
1.090027000E0,-4.213795066E-1,-9.742006302E0,-4.189853072E-1
1.095032000E0,-4.596867263E-1,-9.677363396E0,-3.926490843E-1
1.100037000E0,-5.674257874E-1,-9.655815125E0,-3.782838583E-1
1.104980000E0,-5.841852427E-1,-9.651026726E0,-3.615244627E-1
1.109985000E0,-6.224924326E-1,-9.662998199E0,-3.711012602E-1
1.114990000E0,-6.584054828E-1,-9.658209801E0,-4.405331016E-1
1.119995000E0,-6.967126727E-1,-9.686940193E0,-4.979939461E-1
1.125000000E0,-7.565677166E-1,-9.732429504E0,-5.386953950E-1
1.130005000E0,-8.236053586E-1,-9.732429504E0,-5.985504389E-1
1.135010000E0,-8.619126081E-1,-9.698910713E0,-6.464344859E-1
1.140014000E0,-8.858546019E-1,-9.672574997E0,-6.727706790E-1
1.145019000E0,-9.792284966E-1,-9.651026726E0,-6.919242740E-1
1.150024000E0,-1.005564690E0,-9.665391922E0,-8.212111592E-1
1.155029000E0,-9.672574997E-1,-9.615114212E0,-8.619126081E-1
1.160034000E0,-9.528923035E-1,-9.564835548E0,-9.145850539E-1
1.165039000E0,-9.768342972E-1,-9.567230225E0,-9.576807022E-1
1.169983000E0,-1.007958889E0,-9.624691010E0,-1.031900883E0
1.174988000E0,-1.012747288E0,-9.715670586E0,-1.096544385E0
1.179992000E0,-9.624691010E-1,-9.830592155E0,-1.039083481E0
1.184997000E0,-9.217676520E-1,-9.911994934E0,-9.409212470E-1
1.190002000E0,-8.164227605E-1,-1.002691650E1,-6.799532771E-1
1.195007000E0,-8.044517636E-1,-1.010831928E1,-5.243301988E-1
1.200012000E0,-8.259995580E-1,-1.016817474E1,-3.902548850E-1
1.205017000E0,-8.690952063E-1,-1.020169353E1,-2.873041928E-1
1.210022000E0,-9.121908545E-1,-1.017296314E1,-2.082955539E-1
1.215026000E0,-9.409212470E-1,-1.004367638E1,-8.858546615E-2
1.220031000E0,-9.816226959E-1,-9.816226959E0,-3.591302410E-2
1.225036000E0,-1.003170490E0,-9.600749016E0,1.197100803E-2
1.229980000E0,-1.012747288E0,-9.425971985E0,2.394201700E-3
1.234985000E0,-9.648633003E-1,-9.277531624E0,3.830722719E-2
1.239990000E0,-8.906430602E-1,-9.193734169E0,1.005564705E-1
1.244995000E0,-7.589619160E-1,-9.155426979E0,1.388636976E-1
1.250000000E0,-7.038952708E-1,-9.172186852E0,1.987187415E-1
1.255007000E0,-7.110779285E-1,-9.232041359E0,2.873041928E-1
1.260012000E0,-7.565677166E-1,-9.299078941E0,4.381389022E-1
1.265017000E0,-8.212111592E-1,-9.356540680E0,5.913678408E-1
1.270022000E0,-9.696516991E-1,-9.409213066E0,8.236053586E-1
1.275026000E0,-1.168370485E0,-9.495404243E0,1.051054597E0
1.280031000E0,-1.333570361E0,-9.598354340E0,1.261744261E0
1.285036000E0,-1.551442742E0,-9.720458984E0,1.395819545E0
1.289980000E0,-1.716642618E0,-9.792284966E0,1.496376038E0
1.294985000E0,-1.908178806E0,-9.928754807E0,1.522712231E0
1.299990000E0,-2.073378563E0,-1.004607010E1,1.546654344E0
1.304995000E0,-2.305616140E0,-1.019451046E1,1.577778935E0
1.309999000E0,-2.485181332E0,-1.037647057E1,1.616086125E0
1.315004000E0,-2.652775526E0,-1.051293945E1,1.711854219E0
1.320009000E0,-2.789244890E0,-1.058716011E1,1.877054095E0
1.325014000E0,-2.911349297E0,-1.062067890E1,2.104503393E0
1.330019000E0,-2.961627483E0,-1.054885292E1,2.353500366E0
1.335024000E0,-2.966415882E0,-1.044111347E1,2.664746523E0
1.340029000E0,-2.918531895E0,-1.031661510E1,2.899378300E0
1.344912000E0,-2.834734917E0,-1.019211674E1,3.193865061E0
1.350038000E0,-2.762908697E0,-1.009395409E1,3.320757866E0
1.354982000E0,-2.741360903E0,-9.974244118E0,3.406949043E0
1.359987000E0,-2.719813108E0,-9.868899345E0,3.378218651E0
1.364992000E0,-2.753331900E0,-9.701305389E0,3.112462282E0
1.369997000E0,-2.889801502E0,-9.569623947E0,2.861071110E0
1.375002000E0,-2.952050686E0,-9.445125580E0,2.801215887E0
1.380007000E0,-2.978386879E0,-9.296685219E0,2.750937700E0
1.385012000E0,-3.019088268E0,-9.227252960E0,2.585737944E0
1.390016000E0,-3.093308687E0,-9.265560150E0,2.420537949E0
1.395021000E0,-3.081337690E0,-9.459490776E0,2.348711967E0
1.400026000E0,-2.987963676E0,-9.682151794E0,2.434903145E0
1.405031000E0,-2.954444885E0,-9.988609314E0,2.652775526E0
1.410036000E0,-2.834734917E0,-1.038365269E1,3.191470861E0
1.414980000E0,-2.755726099E0,-1.080503273E1,4.031835556E0
1.419985000E0,-2.710236311E0,-1.135330486E1,5.149928093E0
1.424989000E0,-2.889801502E0,-1.235408115E1,6.806715488E0
1.429994000E0,-3.141192675E0,-1.343865395E1,7.888894558E0
1.434999000E0,-3.325546265E0,-1.459744740E1,8.106766701E0
1.440004000E0,-3.232172251E0,-1.557188797E1,7.170634270E0
1.445009000E0,-3.014299870E0,-1.619437981E1,5.102043629E0
1.450014000E0,-2.703053713E0,-1.635479164E1,2.669534922E0
1.455019000E0,-2.717418909E0,-1.615128517E1,2.825157940E-1
1.460024000E0,-3.143586874E0,-1.585200977E1,-8.116343617E-1
1.465028000E0,-3.761290789E0,-1.544738960E1,-1.125274777E0
1.470033000E0,-4.347870350E0,-1.480574322E1,-1.039083481E0
1.475038000E0,-4.951209068E0,-1.398932076E1,-4.668693244E-1
1.479982000E0,-4.955997467E0,-1.321599293E1,3.064578176E-1
1.484987000E0,-4.283226967E0,-1.203565216E1,1.187524080E0
1.489992000E0,-3.169923067E0,-1.093671322E1,1.534683347E0
1.494997000E0,-1.982398987E0,-9.813833237E0,1.618480325E0
1.500001000E0,-1.142034173E0,-8.748413086E0,1.649604917E0
1.505006000E0,-5.650315881E-1,-7.888894558E0,1.757344007E0
1.510011000E0,-5.027823523E-2,-7.247248650E0,1.920149803E0
1.515016000E0,7.398083210E-1,-6.651092529E0,1.912967205E0
1.520021000E0,1.434126854E0,-6.177040577E0,2.133233786E0
1.525026000E0,1.759738207E0,-5.827486992E0,2.511517525E0
1.530031000E0,1.812410712E0,-5.473145008E0,2.791639090E0
1.535036000E0,1.778891921E0,-5.082890034E0,2.913743496E0
1.539979000E0,1.582567334E0,-4.905719280E0,2.782062292E0
1.544984000E0,1.359906554E0,-4.675876141E0,2.549824715E0
1.549989000E0,9.097966552E-1,-4.671087742E0,2.351106167E0
1.554994000E0,3.926490843E-1,-4.764461517E0,2.276885748E0
1.559999000E0,-5.746084079E-2,-4.908113480E0,2.286462545E0
1.565004000E0,-5.985504389E-1,-5.142745018E0,2.367865562E0
1.570009000E0,-1.247379065E0,-5.480327606E0,2.540247917E0
1.575013000E0,-1.601720929E0,-5.863399982E0,2.564189911E0
1.580018000E0,-1.932120800E0,-6.169857979E0,2.561795712E0
1.585023000E0,-2.049436569E0,-6.347028732E0,2.422932148E0
1.590028000E0,-1.927332401E0,-6.442796707E0,2.195482969E0
1.595033000E0,-1.833958507E0,-6.418854713E0,2.121262789E0
1.600038000E0,-2.193088770E0,-6.567295074E0,2.485181332E0
1.604982000E0,-2.396595955E0,-6.631938934E0,2.525882721E0
1.609987000E0,-2.226607561E0,-6.548141479E0,2.408566952E0
1.614991000E0,-1.860294700E0,-6.411672115E0,2.243366957E0
1.619996000E0,-1.426944256E0,-6.236895561E0,2.197877169E0
1.624940000E0,-1.060631394E0,-6.035782337E0,2.315192938E0
1.630006000E0,-4.979939461E-1,-5.808333397E0,2.659958124E0
1.635011000E0,-5.506663769E-2,-5.655104637E0,3.090914488E0
1.640016000E0,4.094084799E-1,-5.547365189E0,3.617638826E0
1.645021000E0,6.512228847E-1,-5.485116005E0,4.089296341E0
1.650025000E0,7.206547260E-1,-5.415684223E0,4.582501888E0
1.655030000E0,6.991068721E-1,-5.322310448E0,5.056553841E0
1.660035000E0,6.009446383E-1,-5.212177277E0,5.504269600E0
1.664979000E0,3.663128614E-1,-5.185841084E0,5.784391403E0
1.669984000E0,9.576806799E-3,-5.171475887E0,6.035782337E0
1.674989000E0,-3.280056417E-1,-5.183446884E0,6.354211330E0
1.679994000E0,-9.074024558E-1,-5.312733650E0,6.691793919E0
1.684999000E0,-1.534683347E0,-5.530605793E0,6.933608055E0
1.690980000E0,-2.231395960E0,-5.849034786E0,7.074865818E0
1.695985000E0,-2.949656487E0,-6.217741966E0,7.230489254E0
1.700990000E0,-3.299209833E0,-6.488286495E0,7.259219646E0
1.705995000E0,-3.440467834E0,-6.722918510E0,7.235277653E0
1.710999000E0,-3.406949043E0,-7.024587631E0,7.204153061E0
1.716004000E0,-3.323152065E0,-7.338228226E0,7.127538681E0
1.721009000E0,-3.126827478E0,-7.644686222E0,7.053318024E0
1.726014000E0,-2.935291290E0,-7.970297337E0,6.845022678E0
1.731019000E0,-2.796427488E0,-8.185775757E0,6.596025467E0
1.736024000E0,-2.738966703E0,-8.365341187E0,6.349422932E0
1.741029000E0,-2.770091295E0,-8.415618896E0,6.030993938E0
1.746034000E0,-2.820369720E0,-8.446743965E0,5.844246387E0
1.751038000E0,-3.007117271E0,-8.473079681E0,5.796362400E0
1.755982000E0,-3.411737442E0,-8.489839554E0,5.916072369E0
1.760987000E0,-3.732560396E0,-8.621520042E0,6.138733387E0
1.765992000E0,-4.223371983E0,-8.791508675E0,6.445190907E0
1.770997000E0,-4.896142483E0,-9.109937668E0,6.730101109E0
1.776002000E0,-5.327098846E0,-9.514557838E0,7.005434036E0
1.781007000E0,-5.712565422E0,-9.971850395E0,7.220912457E0
1.786011000E0,-5.999869347E0,-1.048660374E1,7.508216381E0
1.791016000E0,-6.095637321E0,-1.077869606E1,7.797914982E0
1.796021000E0,-5.767632008E0,-1.092713642E1,7.989450932E0
1.801026000E0,-5.109226227E0,-1.103487587E1,8.157045364E0
1.806031000E0,-4.414907932E0,-1.105402946E1,8.461109161E0
1.811036000E0,-3.758896589E0,-1.096065521E1,8.983044624E0
1.815980000E0,-3.004723072E0,-1.074996567E1,9.380482674E0
1.820985000E0,-2.387019157E0,-1.045547867E1,9.555258751E0
1.825989000E0,-1.781286120E0,-1.004846478E1,9.476250648E0
1.830994000E0,-1.209071875E0,-9.698910713E0,9.220070839E0
1.835999000E0,-6.177040339E-1,-9.605537415E0,8.817844391E0
1.841004000E0,-5.267243832E-2,-9.813833237E0,8.283937454E0
1.846009000E0,7.398083210E-1,-1.022563553E1,7.412448406E0
1.851014000E0,1.331176162E0,-1.081700325E1,6.818686485E0
1.856019000E0,1.932120800E0,-1.160230160E1,6.157886982E0
1.861023000E0,2.456450939E0,-1.238999367E1,5.403713226E0
1.866028000E0,2.767697096E0,-1.313698483E1,4.766855717E0
1.871033000E0,2.920926094E0,-1.373553562E1,4.153939724E0
1.876038000E0,2.961627483E0,-1.425028896E1,3.773261786E0
1.880982000E0,2.975992680E0,-1.466209126E1,3.241749048E0
1.885987000E0,2.861071110E0,-1.498291397E1,2.760514498E0
1.890992000E0,2.487575531E0,-1.538992882E1,2.638410330E0
1.895997000E0,1.857900500E0,-1.576821232E1,2.983175278E0
1.901001000E0,1.101332784E0,-1.605072784E1,3.713406801E0
1.906006000E0,2.849099934E-1,-1.604833412E1,4.845864296E0
1.911011000E0,6.943184882E-2,-1.542105293E1,5.547365189E0
1.916016000E0,1.125274822E-1,-1.404199314E1,5.343858242E0
1.921021000E0,2.944868207E-1,-1.200692177E1,3.924096584E0
1.926026000E0,7.972691655E-1,-1.003409958E1,1.915361404E0
1.931031000E0,1.747767210E0,-8.259995461E0,-5.051765442E-1
1.936035000E0,2.736572504E0,-6.354211330E0,-1.912967205E0
1.940979000E0,3.543418407E0,-4.975151062E0,-2.813186884E0
1.945984000E0,4.144362926E0,-3.701435804E0,-3.411737442E0
1.950989000E0,4.271255970E0,-2.715024710E0,-4.058171749E0
1.955994000E0,3.912125587E0,-2.015917778E0,-4.690241337E0
1.960999000E0,2.844311714E0,-1.671152830E0,-5.042188644E0
1.966004000E0,1.549048543E0,-1.980004787E0,-4.862623692E0
1.971009000E0,-8.140286058E-2,-2.896984100E0,-4.335899353E0
1.976013000E0,-1.838746905E0,-4.355052948E0,-3.526659012E0
1.981018000E0,-3.519476414E0,-6.313509941E0,-2.449268341E0
1.986023000E0,-4.989516258E0,-8.588001251E0,-1.374271750E0
1.991028000E0,-6.658275127E0,-1.132936287E1,-4.596867263E-1
1.996033000E0,-7.671022415E0,-1.319205093E1,-1.077390760E-1
2.001038000E0,-8.518569946E0,-1.452562141E1,-1.651999205E-1
2.005982000E0,-9.018958092E0,-1.518642139E1,-5.458779931E-1
2.010986000E0,-8.963891029E0,-1.523909378E1,-9.289502501E-1
2.015991000E0,-8.420407295E0,-1.483447361E1,-1.175553083E0
2.020996000E0,-7.220912457E0,-1.376905441E1,-1.264138460E0
2.026001000E0,-6.110002518E0,-1.265814400E1,-9.816226959E-1
2.031006000E0,-4.841075897E0,-1.154962921E1,-4.716577232E-1
2.036011000E0,-3.371036053E0,-1.032619190E1,5.746084079E-2
2.041016000E0,-1.675941229E0,-9.148244858E0,5.841852427E-1
2.046021000E0,7.422025502E-2,-8.109161377E0,1.185129881E0
2.051025000E0,2.178723574E0,-7.161057472E0,2.032677174E0
2.056030000E0,3.490746021E0,-6.624756336E0,2.686294317E0
2.061035000E0,4.388571739E0,-6.342240334E0,3.002328873E0
2.065979000E0,5.032611847E0,-6.217741966E0,3.052607059E0
2.070984000E0,5.176264286E0,-6.217741966E0,2.801215887E0
2.075989000E0,4.855441093E0,-6.373364925E0,2.346317768E0
2.080994000E0,3.701435804E0,-6.670246124E0,1.508347034E0
2.085998000E0,2.784456491E0,-7.046135426E0,9.648633003E-1
2.091003000E0,1.865083098E0,-7.426813602E0,3.687070608E-1
2.096008000E0,8.236053586E-1,-7.769184589E0,-2.250549644E-1
2.101013000E0,-3.423708379E-1,-8.111555099E0,-6.727706790E-1
2.106018000E0,-1.192312479E0,-8.374917984E0,-5.650315881E-1
2.111023000E0,-2.094926596E0,-8.506598473E0,-6.727706790E-1
2.116028000E0,-2.566584110E0,-8.535328865E0,-6.081272364E-1
2.121033000E0,-2.844311714E0,-8.492233276E0,-6.464344859E-1
2.126037000E0,-3.196259260E0,-8.511386871E0,-9.002198577E-1
2.130981000E0,-3.411737442E0,-8.547300339E0,-1.029506683E0
2.135986000E0,-3.536235809E0,-8.623914719E0,-1.218648672E0
2.140991000E0,-3.924096584E0,-8.757989883E0,-1.896207690E0
2.147033000E0,-3.608062029E0,-8.722076416E0,-1.570596337E0
2.152038000E0,-3.442862034E0,-8.722076416E0,-1.295263171E0
2.156982000E0,-3.246537447E0,-8.746018410E0,-9.504981041E-1
2.161987000E0,-3.222595453E0,-8.839392662E0,-7.948749661E-1
2.166992000E0,-3.028665066E0,-8.916007042E0,-5.267243832E-2
2.171997000E0,-2.961627483E0,-9.069235802E0,3.806780577E-1
2.177002000E0,-3.148375273E0,-9.088389397E0,5.793967843E-1
2.182007000E0,-3.256114244E0,-8.987833023E0,7.158663273E-1
2.187011000E0,-3.368641853E0,-8.834604263E0,8.930372596E-1
2.192016000E0,-3.368641853E0,-8.676587105E0,1.089361787E0
2.197021000E0,-3.222595453E0,-8.513781548E0,1.161187768E0
2.202026000E0,-2.911349297E0,-8.334216118E0,1.649604917E0
2.207031000E0,-2.935291290E0,-8.238448143E0,1.106121182E0
2.212036000E0,-2.935291290E0,-8.058882713E0,6.081272364E-1
2.216980000E0,-2.829946518E0,-7.900865555E0,3.782838583E-1
2.221984000E0,-2.703053713E0,-7.833827972E0,3.160346150E-1
2.226989000E0,-2.633621931E0,-7.790732384E0,1.867477298E-1
2.231994000E0,-2.621650934E0,-7.795520782E0,-1.651999205E-1
2.236999000E0,-2.607285738E0,-7.982268333E0,-4.596867263E-1
2.242004000E0,-2.446874142E0,-8.197746277E0,-6.320692301E-1
2.247009000E0,-2.190694571E0,-8.508993149E0,-6.200982332E-1
2.251955000E0,-1.881842494E0,-8.781931877E0,-4.237737060E-1
2.257021000E0,-1.544260144E0,-9.030928612E0,-2.561795712E-1
2.262026000E0,-1.086967587E0,-9.251194954E0,-8.858546615E-2
2.267031000E0,-7.398083210E-1,-9.414001465E0,-5.267243832E-2
2.272036000E0,-4.548983276E-1,-9.524134636E0,-1.436520964E-1
2.276980000E0,-1.819593310E-1,-9.528923035E0,-2.825157940E-1
2.281984000E0,-8.140286058E-2,-9.564835548E0,-5.003881454E-1
2.286989000E0,-1.149216816E-1,-9.576807022E0,-6.344634295E-1
2.291994000E0,-2.489969730E-1,-9.583989143E0,-7.230489254E-1
2.296999000E0,-3.447650373E-1,-9.524134636E0,-7.757213712E-1
2.302004000E0,-5.363011956E-1,-9.524134636E0,-5.722141862E-1
2.307009000E0,-8.068459630E-1,-9.572018623E0,-7.422025502E-2
2.312014000E0,-1.201889277E0,-9.627084732E0,5.793967843E-1
2.317019000E0,-1.640028119E0,-9.636661530E0,1.177947283E0
2.322023000E0,-2.288856745E0,-9.627084732E0,1.450886250E0
2.327028000E0,-2.789244890E0,-9.648633003E0,1.122880578E0
2.332033000E0,-3.162740469E0,-9.777919769E0,3.423708379E-1
2.337038000E0,-3.306392431E0,-1.010353088E1,-4.118026793E-1
2.341982000E0,-3.244143248E0,-1.042195988E1,-1.039083481E0
2.346987000E0,-3.011905670E0,-1.071884060E1,-1.364694953E0
2.351992000E0,-2.700659513E0,-1.098459721E1,-1.517923832E0
2.356996000E0,-2.432508945E0,-1.117852783E1,-1.419761658E0
2.363039000E0,-2.085349798E0,-1.150653362E1,-1.106121182E0
2.367983000E0,-1.824381709E0,-1.187763500E1,-6.991068721E-1
2.372988000E0,-1.673547029E0,-1.233732128E1,-2.226607651E-1
2.377992000E0,-1.690306425E0,-1.280658531E1,2.059013397E-1
2.382997000E0,-1.948880196E0,-1.316810894E1,5.913678408E-1
2.388002000E0,-2.707842112E0,-1.361821938E1,1.055842996E0
2.393007000E0,-3.363853455E0,-1.380017853E1,1.465251446E0
2.398012000E0,-3.943250179E0,-1.383609200E1,2.011129379E0
2.403017000E0,-4.458003521E0,-1.382172680E1,2.540247917E0
2.408022000E0,-4.953603268E0,-1.384806252E1,2.755726099E0
2.413027000E0,-5.317522049E0,-1.396059036E1,2.487575531E0
2.418031000E0,-5.669469833E0,-1.430296135E1,1.690306425E0
2.423036000E0,-5.655104637E0,-1.462617779E1,9.576807022E-1
2.427980000E0,-5.339069843E0,-1.486799240E1,1.412578970E-1
2.432985000E0,-4.982333660E0,-1.513614273E1,-2.705447972E-1
2.437990000E0,-4.800374508E0,-1.534683323E1,-1.173158810E-1
2.442995000E0,-4.865017891E0,-1.547851372E1,7.805097699E-1
2.449037000E0,-5.422866821E0,-1.532767963E1,2.166752577E0
2.453981000E0,-6.337451935E0,-1.480574322E1,2.410961151E0
2.458986000E0,-6.952761650E0,-1.434845066E1,1.905784607E0
2.463991000E0,-7.228095055E0,-1.377144814E1,1.589749932E0
2.468996000E0,-7.223306656E0,-1.347456741E1,1.874659896E0
2.474001000E0,-6.500257492E0,-1.332612705E1,1.855506301E0
2.479005000E0,-5.319916248E0,-1.329260826E1,1.553836942E0
2.484010000E0,-3.658340216E0,-1.294784260E1,2.006340981E0
2.489015000E0,-1.458068848E0,-1.254801083E1,2.676717520E0
2.494020000E0,9.026140571E-1,-1.211944866E1,3.131615877E0
2.499025000E0,3.074155092E0,-1.168849277E1,3.184288263E0
2.504030000E0,4.757278919E0,-1.135330486E1,2.339135170E0
2.509035000E0,5.734113216E0,-1.125514221E1,8.643068075E-1
2.514039000E0,5.975927353E0,-1.209311295E1,-4.429273009E-1
2.518983000E0,5.542576790E0,-1.326387787E1,-1.048660398E0
2.523988000E0,4.869806290E0,-1.455674648E1,-1.379060149E0
2.528993000E0,4.225766182E0,-1.559582996E1,-1.771709204E0
2.533998000E0,3.433285236E0,-1.608903503E1,-2.439691544E0
2.539003000E0,2.583343744E0,-1.625423622E1,-2.973598480E0
2.544008000E0,1.568202138E0,-1.629014778E1,-2.985569477E0
2.549013000E0,8.954314590E-1,-1.628057098E1,-2.485181332E0
2.554017000E0,2.130839527E-1,-1.635718536E1,-1.637633920E0
2.559022000E0,-3.423708379E-1,-1.648407936E1,-5.195417404E-1
2.564027000E0,-9.888052940E-1,-1.667082596E1,4.884171486E-1
2.569032000E0,-1.558625340E0,-1.672828674E1,1.295263171E0
2.574037000E0,-1.944091797E0,-1.663491249E1,1.204283476E0
2.578981000E0,-2.142810583E0,-1.629254341E1,4.548983276E-1
2.583986000E0,-2.099714994E0,-1.582806778E1,-1.101332754E-1
2.588990000E0,-1.778891921E0,-1.521994019E1,-4.309563041E-1
2.593995000E0,-1.098938584E0,-1.443224812E1,-6.991068721E-1
2.599000000E0,-4.094084799E-1,-1.353442192E1,-1.017535686E0
2.604005000E0,-2.346317619E-1,-1.268448067E1,-8.212111592E-1
2.609010000E0,-2.609679997E-1,-1.214817905E1,-4.237737060E-1
2.614015000E0,-3.112462163E-1,-1.154244614E1,-5.267243832E-2
2.619020000E0,-3.256114423E-1,-1.090558910E1,9.816227108E-2
2.624025000E0,-3.591302633E-1,-1.030943298E1,-6.943184882E-2
2.629029000E0,-4.884171486E-1,-9.639056206E0,-5.219359994E-1
2.634034000E0,-5.339069963E-1,-9.141061783E0,-8.140285611E-1
2.639039000E0,-3.854664862E-1,-8.652645111E0,-7.948749661E-1
2.643983000E0,-4.070143029E-2,-8.068459511E0,-6.320692301E-1
2.648988000E0,6.224924326E-2,-7.510610580E0,-8.427590132E-1
2.653993000E0,-4.788403213E-2,-6.974309444E0,-1.244984865E0
2.658998000E0,-2.681505978E-1,-6.361393929E0,-1.594538331E0
2.664002000E0,-3.375824392E-1,-5.877765179E0,-1.623268723E0
2.669007000E0,-3.687070608E-1,-5.260061264E0,-1.680729628E0
2.674012000E0,-3.591302633E-1,-4.611232281E0,-1.762132406E0
2.679017000E0,-2.202665508E-1,-3.881000996E0,-1.939303398E0
2.684022000E0,-1.747767180E-1,-3.244143248E0,-2.255337954E0
2.689027000E0,-2.705447972E-1,-2.717418909E0,-2.212242365E0
2.694032000E0,-3.902548850E-1,-2.461239338E0,-1.972822189E0
2.699037000E0,-4.357447028E-1,-2.207453966E0,-1.833958507E0
2.703980000E0,-4.357447028E-1,-2.054224968E0,-1.637633920E0
2.708985000E0,-3.639186621E-1,-1.903390408E0,-1.522712231E0
2.713990000E0,-2.489969730E-1,-1.824381709E0,-1.620874524E0
2.718995000E0,-1.053448766E-1,-1.745373011E0,-1.647210717E0
2.724000000E0,-5.267243832E-2,-1.616086125E0,-1.596932530E0
2.729005000E0,-1.819593310E-1,-1.513135433E0,-1.697489023E0
2.734010000E0,-2.896983922E-1,-1.549048543E0,-1.778891921E0
2.739015000E0,-2.896983922E-1,-1.561019540E0,-1.836352706E0
2.744019000E0,-1.029506698E-1,-1.656787634E0,-1.678335428E0
2.749024000E0,2.729389966E-1,-1.723825216E0,-1.529894829E0
2.754029000E0,6.751648784E-1,-1.731007814E0,-1.467645645E0
2.759034000E0,1.185129881E0,-1.711854219E0,-1.493981838E0
2.764039000E0,1.714248419E0,-1.635239720E0,-1.537077546E0
2.768983000E0,2.197877169E0,-1.699883223E0,-1.534683347E0
2.773988000E0,2.513911724E0,-1.850717902E0,-1.546654344E0
2.778992000E0,2.774879694E0,-2.123656988E0,-1.443703651E0
2.783997000E0,2.904166698E0,-2.406172752E0,-1.271321058E0
2.789002000E0,2.849100113E0,-2.762908697E0,-8.930372596E-1
2.794007000E0,2.475604534E0,-3.179499865E0,-5.051765442E-1
2.799012000E0,1.886630893E0,-3.591302633E0,-6.943184882E-2
2.804017000E0,1.146822572E0,-4.007893562E0,4.237737060E-1
2.809022000E0,3.663128614E-1,-4.467580318E0,1.271321058E0
2.814027000E0,-1.723825186E-1,-4.833893299E0,2.073378563E0
2.819031000E0,-7.350199223E-1,-5.240907669E0,2.975992680E0
2.824036000E0,-1.328781962E0,-5.817910194E0,3.981557369E0
2.828980000E0,-1.769315004E0,-6.428431511E0,5.090072632E0
2.833985000E0,-2.202665567E0,-7.110779285E0,6.301538944E0
2.838990000E0,-2.762908697E0,-8.123526573E0,7.917624950E0
2.843995000E0,-3.217807055E0,-9.045293808E0,9.200917244E0
2.849000000E0,-3.462015629E0,-1.009874249E1,1.034774017E1
2.854004000E0,-3.830722809E0,-1.124317074E1,1.176271248E1
2.859009000E0,-4.529829502E0,-1.255519390E1,1.392228317E1
2.864014000E0,-5.470750809E0,-1.398213768E1,1.682405472E1
2.869019000E0,-6.512228489E0,-1.561019516E1,1.826775932E1
2.874024000E0,-7.192182064E0,-1.664927864E1,1.838746834E1
2.879029000E0,-7.548917770E0,-1.751119041E1,1.747527885E1
2.884034000E0,-7.627926826E0,-1.826057625E1,1.589031696E1
2.889039000E0,-7.242460251E0,-1.866040802E1,1.413776112E1
2.893982000E0,-6.540958881E0,-1.874899292E1,1.223676491E1
2.898987000E0,-5.140350819E0,-1.839225769E1,9.950302124E0
2.903992000E0,-3.780444384E0,-1.764766121E1,8.489839554E0
2.908997000E0,-2.652775526E0,-1.659421158E1,7.489062786E0
2.914002000E0,-2.032677174E0,-1.531810284E1,7.038952827E0
2.919007000E0,-1.778891921E0,-1.383609200E1,7.125144482E0
2.924012000E0,-1.558625340E0,-1.222479343E1,7.441178799E0
2.929016000E0,-1.343147159E0,-1.032379818E1,7.833827972E0
2.934021000E0,-1.034295082E0,-8.942343712E0,8.255207062E0
2.939026000E0,-4.908113480E-1,-7.845798969E0,8.559270859E0
2.944031000E0,2.154781520E-1,-7.223306656E0,8.576030731E0
2.948975000E0,1.027112484E0,-7.240066051E0,8.212111473E0
2.953980000E0,1.575384736E0,-7.805097580E0,7.469909191E0
2.958985000E0,1.357512355E0,-8.961497307E0,6.277596951E0
2.963990000E0,1.144428372E0,-1.005325317E1,5.501875401E0
2.968994000E0,1.134851575E0,-1.124317074E1,5.197812080E0
2.973999000E0,8.212111592E-1,-1.247618484E1,4.453215122E0
2.979004000E0,-1.915361285E-1,-1.364934349E1,2.820369720E0
2.984009000E0,-1.285686255E0,-1.510980701E1,1.450886250E0
2.989014000E0,-1.683123827E0,-1.627578354E1,2.992752194E-1
2.994019000E0,-1.613691926E0,-1.746091270E1,-6.296750307E-1
2.999024000E0,-1.113303781E0,-1.863646698E1,-9.864110947E-1
3.004028000E0,-8.858546615E-2,-1.944810104E1,-1.343147159E0
3.009033000E0,1.024718285E0,-1.932120705E1,-1.448492050E0
3.014038000E0,1.857900500E0,-1.663251877E1,-2.011129379E0
3.018982000E0,1.400607944E0,-1.249533844E1,-3.586514235E0
3.023987000E0,8.499416113E-1,-8.125920296E0,-5.415684223E0
3.028992000E0,9.720458984E-1,-4.618414879E0,-6.737283707E0
3.033997000E0,1.733402014E0,-1.898601890E0,-6.624756336E0
3.039002000E0,3.488351822E0,-1.412578970E-1,-5.374982834E0
3.044006000E0,6.100425720E0,8.643068075E-1,-3.043030262E0
3.049011000E0,7.359776020E0,7.182605267E-1,-9.265560508E-1
3.054016000E0,7.565677166E0,1.436521020E-2,1.189918280E0
3.059021000E0,6.366182327E0,-1.077390790E0,2.590526342E0
3.064026000E0,4.141968727E0,-2.547430515E0,2.501940727E0
3.069031000E0,1.608903527E0,-4.419696331E0,1.053448796E0
3.074036000E0,-9.241618514E-1,-7.194576263E0,-1.422155857E0
3.078979000E0,-2.518700123E0,-9.797073364E0,-3.191470861E0
3.083984000E0,-4.043806553E0,-1.242590714E1,-4.584896088E0
3.088989000E0,-5.394136429E0,-1.473391724E1,-5.702988625E0
3.093994000E0,-6.414066315E0,-1.660857773E1,-6.447585106E0
3.098999000E0,-7.012616634E0,-1.804509735E1,-6.378153324E0
3.104004000E0,-7.323863029E0,-1.877293587E1,-5.090072632E0
3.109009000E0,-7.314286232E0,-1.840422821E1,-3.450044632E0
3.114014000E0,-7.309497833E0,-1.738190460E1,-1.695094824E0
3.119018000E0,-7.048529625E0,-1.580412579E1,-9.337386489E-2
3.124023000E0,-6.370970726E0,-1.395580196E1,1.163581967E0
3.129028000E0,-5.260061264E0,-1.206438255E1,2.066195965E0
3.134033000E0,-3.689464808E0,-9.986215591E0,2.604891539E0
3.139038000E0,-2.580949545E0,-8.748413086E0,2.647987127E0
3.143982000E0,-1.592144132E0,-7.800309181E0,2.420537949E0
3.148987000E0,-5.147533417E-1,-6.993463039E0,1.946485996E0
3.153991000E0,6.512228847E-1,-6.282385349E0,1.386242747E0
3.158996000E0,1.865083098E0,-5.700594425E0,9.409212470E-1
3.164001000E0,3.059789658E0,-5.231330872E0,2.705447972E-1
3.169006000E0,3.720589399E0,-5.140350819E0,-9.097966552E-2
3.174011000E0,4.027047157E0,-5.274426460E0,-2.585737705E-1
3.179016000E0,3.962403774E0,-5.662287235E0,-3.351882398E-1
3.184021000E0,3.519476414E0,-6.157886982E0,-5.602431893E-1
3.189026000E0,2.832340717E0,-6.646304131E0,-3.639186621E-1
3.194030000E0,1.534683347E0,-7.331045628E0,-1.046266198E0
3.199035000E0,7.900865674E-1,-7.694964409E0,-8.331822157E-1
3.203979000E0,6.703764945E-2,-7.864952564E0,-5.123591423E-1
3.208984000E0,-5.434837937E-1,-7.951143742E0,-1.580173075E-1
3.213989000E0,-1.213860273E0,-8.113949776E0,-4.788403213E-2
3.218994000E0,-2.305616140E0,-8.382100105E0,-8.116343617E-1
3.223999000E0,-3.387795448E0,-8.676587105E0,-1.355118155E0
3.229003000E0,-3.725377798E0,-8.707711220E0,-1.242590666E0
3.234008000E0,-3.682282209E0,-8.516175270E0,-1.036689281E0
3.239013000E0,-3.514688015E0,-8.219294548E0,-1.060631394E0
3.244018000E0,-3.215412855E0,-7.917624950E0,-1.024718285E0
3.249023000E0,-2.820369720E0,-7.666234016E0,-8.307880163E-1
3.253969000E0,-2.454056740E0,-7.357381821E0,-7.876923680E-1
3.259035000E0,-2.061407566E0,-7.113173485E0,-6.200982332E-1
3.263979000E0,-1.537077546E0,-6.852205276E0,-4.525041282E-1
3.268984000E0,-1.125274777E0,-6.641515732E0,-6.344634295E-1
3.273989000E0,-6.991068721E-1,-6.485892296E0,-9.241618514E-1
3.278994000E0,-4.596867263E-1,-6.409277916E0,-1.651999116E0
3.283999000E0,-5.458779931E-1,-6.493074894E0,-2.090138197E0
3.289003000E0,-7.757213712E-1,-6.792350292E0,-2.140416384E0
3.294008000E0,-1.019929886E0,-7.254431248E0,-1.714248419E0
3.299013000E0,-1.235408068E0,-7.752425194E0,-9.935936928E-1
3.304018000E0,-1.525106430E0,-8.329427719E0,-1.651999205E-1
3.309023000E0,-1.948880196E0,-8.932766914E0,5.937620401E-1
3.314028000E0,-2.296039343E0,-9.260771751E0,1.012747288E0
3.319033000E0,-2.624045134E0,-9.423578262E0,1.163581967E0
3.324038000E0,-3.033453465E0,-9.428366661E0,1.024718285E0
3.328981000E0,-3.335123062E0,-9.320627213E0,6.967126727E-1
3.333986000E0,-3.588908434E0,-9.176975250E0,2.849099934E-1
3.338991000E0,-3.706224203E0,-9.105149269E0,-1.173158810E-1
3.343996000E0,-3.636792421E0,-9.287108421E0,-3.423708379E-1
3.349001000E0,-3.385401249E0,-9.562441826E0,-3.471592367E-1
3.354006000E0,-2.980781078E0,-9.921571732E0,-7.900865376E-2
3.359011000E0,-2.501940727E0,-1.020169353E1,4.022258818E-1
3.364015000E0,-2.059013367E0,-1.056082344E1,1.043871999E0
3.369020000E0,-1.656787634E0,-1.099178028E1,1.798045516E0
3.374025000E0,-1.551442742E0,-1.124556541E1,2.178723574E0
3.379030000E0,-1.635239720E0,-1.134612179E1,2.324769735E0
3.384035000E0,-1.896207690E0,-1.133175659E1,2.178723574E0
3.388979000E0,-2.212242365E0,-1.121683502E1,1.771709204E0
3.393984000E0,-2.640804529E0,-1.100614548E1,1.180341482E0
3.398989000E0,-3.129221678E0,-1.071884060E1,4.070142806E-1
3.403993000E0,-3.433285236E0,-1.052012253E1,-1.604115069E-1
3.408998000E0,-3.703830004E0,-1.047223854E1,-6.224924326E-1
3.414003000E0,-3.866635799E0,-1.050575733E1,-8.906430602E-1
3.419008000E0,-3.971980572E0,-1.072841740E1,-1.098938584E0
3.424013000E0,-4.067748547E0,-1.112824917E1,-1.156399369E0
3.428896000E0,-3.931279182E0,-1.205959415E1,-7.374141216E-1
3.434023000E0,-3.787626982E0,-1.257434750E1,-3.040636182E-1
3.439027000E0,-3.581725836E0,-1.327105999E1,3.399766386E-1
3.444032000E0,-3.404554844E0,-1.380736160E1,9.600749016E-1
3.449037000E0,-3.215412855E0,-1.414973164E1,1.462857246E0
3.453981000E0,-2.942473888E0,-1.428620148E1,1.903390408E0
3.458986000E0,-2.671929121E0,-1.431014347E1,2.415749550E0
3.463991000E0,-2.643198729E0,-1.425028896E1,2.671929121E0
3.468996000E0,-2.829946518E0,-1.409945393E1,2.865859509E0
3.474001000E0,-3.155557871E0,-1.389115810E1,3.275267839E0
3.479005000E0,-3.596091032E0,-1.365892029E1,3.885789394E0
3.484010000E0,-4.046200752E0,-1.340513515E1,4.158728123E0
3.489015000E0,-4.786009312E0,-1.319444561E1,3.768473387E0
3.494020000E0,-5.475539207E0,-1.313459015E1,3.102885485E0
3.499025000E0,-6.229712963E0,-1.325430107E1,2.664746523E0
3.505006000E0,-6.667851925E0,-1.308910084E1,2.355894566E0
3.510011000E0,-6.964732647E0,-1.283052731E1,2.226607561E0
3.515016000E0,-7.091625214E0,-1.244745445E1,2.128445387E0
3.520021000E0,-7.230489254E0,-1.200213337E1,2.616862535E0
3.525026000E0,-7.240066051E0,-1.131260300E1,3.375824451E0
3.530031000E0,-6.837840080E0,-1.067095661E1,2.513911724E0
3.535036000E0,-6.404489517E0,-1.037407589E1,1.211466074E0
3.539979000E0,-5.580883980E0,-1.018493366E1,5.937620401E-1
3.544984000E0,-4.192247391E0,-1.030943298E1,8.834604025E-1
3.549989000E0,-2.494758129E0,-1.087207031E1,1.532289028E0
3.554994000E0,-4.908113480E-1,-1.157835960E1,1.484405041E0
3.559999000E0,7.158663273E-1,-1.198537350E1,4.381389022E-1
3.565004000E0,9.289502501E-1,-1.273475838E1,-1.089361787E0
3.570009000E0,4.141969085E-1,-1.416888523E1,-2.633621931E0
3.575013000E0,-3.591302410E-2,-1.593101788E1,-4.050989151E0
3.580018000E0,-6.703764945E-2,-1.773624611E1,-5.087678432E0
3.585023000E0,-5.506663769E-2,-1.953189659E1,-5.997475147E0
3.590028000E0,1.723825186E-1,-2.052549171E1,-5.880159378E0
3.595033000E0,8.355764151E-1,-2.111207008E1,-4.910507679E0
3.600038000E0,1.644816518E0,-2.153105545E1,-3.306392431E0
3.604982000E0,2.272097349E0,-2.177287102E1,-1.649604917E0
3.609987000E0,2.525882721E0,-2.171541023E1,-6.224924326E-2
3.614991000E0,2.279279947E0,-2.122938728E1,6.799532771E-1
3.619996000E0,2.027888775E0,-2.052309608E1,1.204283476E0
3.625001000E0,1.283292055E0,-1.958935738E1,4.525041282E-1
3.630006000E0,7.254431248E-1,-1.845211220E1,-1.221042871E0
3.635011000E0,1.077390760E-1,-1.740584564E1,-2.164358377E0
3.640016000E0,-6.631938815E-1,-1.603396797E1,-1.711854219E0
3.645021000E0,-1.185129881E0,-1.499249077E1,-5.626373887E-1
3.650025000E0,-1.489193439E0,-1.412100124E1,8.930372596E-1
3.655030000E0,-1.534683347E0,-1.316571522E1,1.853112102E0
3.660035000E0,-1.635239720E0,-1.223437023E1,1.996764183E0
3.664979000E0,-1.857900500E0,-1.146583176E1,1.783680320E0
3.669984000E0,-2.200271368E0,-1.075714779E1,1.134851575E0
3.674989000E0,-2.952050686E0,-1.010353088E1,3.878606856E-1
3.679994000E0,-3.397372246E0,-9.710882187E0,-1.699883193E-1
3.684999000E0,-3.277662039E0,-9.634267807E0,-4.213795066E-1
3.690003000E0,-2.442085743E0,-9.777919769E0,-5.985504389E-2
3.695008000E0,-7.422025204E-1,-9.612719536E0,4.501099288E-1
3.700013000E0,9.217676520E-1,-8.889671326E0,9.337386489E-2
3.705018000E0,1.448492050E0,-8.140285492E0,-1.015141487E0
3.710023000E0,1.692700624E0,-7.211335659E0,-2.178723574E0
3.715028000E0,1.807622313E0,-6.270414352E0,-2.928108692E0
3.720033000E0,1.781286120E0,-5.434837818E0,-3.162740469E0
3.725037000E0,1.778891921E0,-4.659116745E0,-2.741360903E0
3.729981000E0,1.601720929E0,-3.773261786E0,-1.927332401E0
3.734986000E0,1.321599364E0,-3.069366693E0,-1.709460020E0
3.739991000E0,1.242590666E0,-2.305616140E0,-1.776497602E0
3.744996000E0,9.217676520E-1,-1.745373011E0,-2.023100376E0
3.750001000E0,4.405331016E-1,-1.359906554E0,-2.226607561E0
3.755006000E0,3.830722719E-2,-1.182735682E0,-2.197877169E0
3.760011000E0,-2.489969730E-1,-1.233013868E0,-2.205059767E0
3.765015000E0,-3.471592367E-1,-1.417367458E0,-1.984793186E0
3.770020000E0,-3.256114423E-1,-1.577778935E0,-1.659181833E0
3.775025000E0,-4.405331016E-1,-1.685518026E0,-1.304839969E0
3.780030000E0,-4.453215301E-1,-1.721431017E0,-8.595184088E-1
3.785035000E0,-3.543418646E-1,-1.702277422E0,-3.926490843E-1
3.789979000E0,-2.801215947E-1,-1.635239720E0,-3.519476354E-1
3.794984000E0,-1.675941199E-1,-1.515529633E0,-3.926490843E-1
3.799988000E0,9.576806426E-2,-1.441309452E0,-2.178723514E-1
3.804993000E0,5.147533417E-1,-1.491587639E0,-2.801215947E-1
3.809998000E0,1.103726983E0,-1.596932530E0,-5.482721925E-1
3.815003000E0,1.838746905E0,-1.673547029E0,-1.074996591E0
3.820008000E0,2.779668093E0,-1.824381709E0,-1.764526606E0
3.825013000E0,3.323152065E0,-2.035071373E0,-2.324769735E0
3.830018000E0,3.529053211E0,-2.336740971E0,-2.820369720E0
3.835023000E0,3.581725836E0,-2.676717520E0,-3.110068083E0
3.840027000E0,3.447650433E0,-3.014299870E0,-3.179499865E0
3.845032000E0,3.210624456E0,-3.270479441E0,-3.071760893E0
3.850037000E0,2.944868088E0,-3.502717018E0,-2.703053713E0
3.854981000E0,2.722207308E0,-3.608062029E0,-2.245761156E0
3.859986000E0,2.236184359E0,-3.660734415E0,-1.673547029E0
3.864991000E0,1.611297727E0,-3.751713991E0,-1.012747288E0
3.869996000E0,9.983820915E-1,-3.869029999E0,-2.513911724E-1
3.875000000E0,2.944868207E-1,-4.039018154E0,5.123591423E-1
3.880005000E0,-7.924807668E-1,-4.369418144E0,1.663970232E0
3.885010000E0,-1.577778935E0,-4.802768707E0,2.710236311E0
3.890015000E0,-2.384624958E0,-5.360617638E0,3.950432777E0
3.895020000E0,-3.193865061E0,-6.169857979E0,5.408501625E0
3.900025000E0,-3.895366192E0,-7.247248650E0,7.383718014E0
3.905030000E0,-4.510675907E0,-8.497021675E0,1.035492229E1
3.910035000E0,-5.200206280E0,-1.038365269E1,1.304600525E1
3.915039000E0,-5.849034786E0,-1.220563984E1,1.619198608E1
3.919983000E0,-6.785167694E0,-1.414973164E1,1.904347992E1
3.924988000E0,-7.505822182E0,-1.599326706E1,2.059492302E1
3.929993000E0,-7.908048153E0,-1.757583427E1,2.060689354E1
3.934998000E0,-7.965508938E0,-1.899798965E1,1.949119568E1
3.940003000E0,-7.819462776E0,-2.067872047E1,1.739148140E1
3.945008000E0,-7.429207802E0,-2.159091187E1,1.538992882E1
3.950012000E0,-6.531382084E0,-2.179681206E1,1.357033539E1
3.955017000E0,-5.214571476E0,-2.089419746E1,1.167891598E1
3.960022000E0,-4.201824188E0,-1.906263351E1,9.730035782E0
3.965027000E0,-3.629609823E0,-1.675222969E1,7.900865555E0
3.970032000E0,-3.157952070E0,-1.375229454E1,7.364564419E0
3.975037000E0,-2.602497339E0,-1.148019695E1,7.321468830E0
3.979981000E0,-1.994369984E0,-9.330204010E0,7.309497833E0
3.984986000E0,-1.331176162E0,-7.659051418E0,7.599195957E0
3.989990000E0,-5.410895944E-1,-6.509834290E0,7.924807549E0
3.994995000E0,6.368576288E-1,-6.023811340E0,7.929595947E0
4.000000000E0,1.721431017E0,-6.756437302E0,8.025363922E0
4.005005000E0,2.470816135E0,-8.374917984E0,7.742848396E0
4.010010000E0,2.791639090E0,-1.044111347E1,6.797138691E0
4.015015000E0,2.841917515E0,-1.270123959E1,5.633556366E0
4.020020000E0,2.568978310E0,-1.488954067E1,4.343081951E0
4.025025000E0,1.872265697E0,-1.707544708E1,2.097320795E0
4.030029000E0,1.376665950E0,-1.836113358E1,1.074996591E0
4.035034000E0,9.433154464E-1,-1.956781006E1,8.355764151E-1
4.040039000E0,5.051765442E-1,-2.047521210E1,-5.482721925E-1
4.044983000E0,4.357447028E-1,-2.104024506E1,-3.306392431E0
4.049988000E0,8.236053586E-1,-2.073618126E1,-5.465962410E0
4.054993000E0,6.655880809E-1,-1.793017578E1,-4.819528103E0
4.059998000E0,-3.447650373E-1,-1.357991219E1,-3.105279684E0
4.065002000E0,-8.212111592E-1,-8.908824921E0,-3.967192173E0
4.070007000E0,-2.801215947E-1,-5.157110691E0,-6.268020153E0
4.075012000E0,1.187524080E0,-2.492363930E0,-7.261613846E0
4.080017000E0,3.349488258E0,-7.948749661E-1,-6.198588371E0
4.085022000E0,5.221754074E0,-1.197100803E-2,-3.337517262E0
4.090027000E0,5.157110691E0,-3.423708379E-1,-1.233013868E0
4.095032000E0,4.022258759E0,-1.314416766E0,1.628057212E-1
4.100037000E0,1.999158382E0,-2.537853718E0,1.580173075E-1
4.104980000E0,-5.051765442E-1,-3.967192173E0,-1.091755986E0
4.109985000E0,-2.375048161E0,-5.822698593E0,-2.236184359E0
4.114990000E0,-2.748543501E0,-8.746018410E0,-4.084507942E0
4.119995000E0,-2.753331900E0,-1.110191345E1,-5.391742229E0
4.124939000E0,-3.083731890E0,-1.317768574E1,-6.643909931E0
4.130005000E0,-3.485957623E0,-1.495178986E1,-7.551311970E0
4.135010000E0,-3.995922565E0,-1.661815453E1,-6.916848660E0
4.140014000E0,-4.829104900E0,-1.798284912E1,-4.781220913E0
4.145019000E0,-6.136339188E0,-1.874659920E1,-1.568202138E0
4.150024000E0,-7.096413612E0,-1.841380501E1,3.567360640E-1
4.155029000E0,-7.795520782E0,-1.717360878E1,1.388636947E0
4.160034000E0,-7.625532627E0,-1.533965015E1,1.836352706E0
4.165039000E0,-6.789956093E0,-1.354878712E1,1.841141105E0
4.169983000E0,-5.643133640E0,-1.196143150E1,1.685518026E0
4.174988000E0,-4.173093796E0,-1.036449909E1,1.359906554E0
4.179992000E0,-3.098097086E0,-9.406818390E0,9.672574997E-1
4.184997000E0,-2.006340981E0,-8.544905663E0,4.046200812E-1
4.190002000E0,-5.674257874E-1,-7.785943985E0,1.556231081E-1
4.195007000E0,9.169792533E-1,-7.113173485E0,-1.436521020E-2
4.200012000E0,2.264914751E0,-6.490680695E0,-1.604115069E-1
4.205017000E0,3.612850428E0,-5.928043365E0,-3.902548850E-1
4.210022000E0,4.434061527E0,-5.691017628E0,-4.237737060E-1
4.215026000E0,4.843470097E0,-5.691017628E0,-1.987187415E-1
4.220031000E0,4.967968464E0,-5.829881191E0,7.900865376E-2
4.225036000E0,4.630385876E0,-6.131550789E0,3.303998411E-1
4.229980000E0,3.885789394E0,-6.493074894E0,3.447650373E-1
4.234985000E0,2.913743496E0,-6.945579052E0,9.433154464E-1
4.239990000E0,1.991975784E0,-7.077260017E0,1.173158884E0
4.244995000E0,7.805097699E-1,-7.168240070E0,1.240196466E0
4.250000000E0,-6.296750307E-1,-7.290344238E0,8.355764151E-1
4.255007000E0,-2.154781580E0,-7.398083210E0,2.633621916E-2
4.260012000E0,-3.325546265E0,-7.460332394E0,-5.147533417E-1
4.265017000E0,-3.902548790E0,-7.438784599E0,-8.906430602E-1
4.270022000E0,-4.110844135E0,-7.352593422E0,-1.276109457E0
4.274965000E0,-4.029441357E0,-7.146692276E0,-1.637633920E0
4.280031000E0,-3.706224203E0,-6.914454460E0,-2.118868589E0
4.285036000E0,-2.997540474E0,-6.679822922E0,-2.056619167E0
4.289980000E0,-2.200271368E0,-6.517016888E0,-1.788468719E0
4.294985000E0,-1.520318031E0,-6.445190907E0,-1.570596337E0
4.299990000E0,-1.134851575E0,-6.466738701E0,-1.393425345E0
4.304995000E0,-9.241618514E-1,-6.653486729E0,-1.134851575E0
4.309999000E0,-6.895300746E-1,-6.859387875E0,-7.422025204E-1
4.315004000E0,-3.639186621E-1,-7.026981831E0,-1.244984865E-1
4.320009000E0,-1.101332754E-1,-7.208941460E0,3.878606856E-1
4.325014000E0,-3.351882473E-2,-7.419631004E0,5.722141862E-1
4.330019000E0,-1.675941236E-2,-7.613561630E0,4.285621047E-1
4.335024000E0,-1.556231081E-1,-7.891288757E0,1.484405100E-1
4.340029000E0,-4.764461517E-1,-8.180987358E0,-7.900865376E-2
4.345034000E0,-8.307880163E-1,-8.482656479E0,-2.394201607E-2
4.350038000E0,-1.144428372E0,-8.607154846E0,6.919242740E-1
4.354982000E0,-1.350329757E0,-8.729259491E0,1.635239720E0
4.359987000E0,-1.587355733E0,-8.959102631E0,2.341529369E0
4.364992000E0,-1.805228114E0,-9.275136948E0,2.430114746E0
4.369997000E0,-1.956062794E0,-9.744400978E0,1.934514999E0
4.375002000E0,-2.169146776E0,-1.040998936E1,1.247379065E0
4.380007000E0,-2.549824715E0,-1.126232433E1,7.469909191E-1
4.385012000E0,-3.011905670E0,-1.173398209E1,9.792284966E-1
4.390016000E0,-3.464409828E0,-1.180341434E1,1.489193439E0
4.395021000E0,-3.950432777E0,-1.159990692E1,1.826775908E0
4.400026000E0,-4.304774761E0,-1.116176796E1,1.750161409E0
4.405031000E0,-4.443638325E0,-1.073320580E1,1.319205165E0
4.410036000E0,-4.242525578E0,-1.044111347E1,4.932055473E-1
4.414980000E0,-3.916913986E0,-1.040041256E1,-1.819593310E-1
4.419985000E0,-3.399766445E0,-1.042674828E1,-7.469909191E-1
4.424989000E0,-2.786850691E0,-1.057518864E1,-8.092401624E-1
4.429994000E0,-2.252943754E0,-1.075475407E1,-3.615244627E-1
4.434999000E0,-1.865083098E0,-1.090319443E1,1.604115069E-1
4.440004000E0,-1.915361404E0,-1.109233665E1,6.320692301E-1
4.445009000E0,-2.245761156E0,-1.115458584E1,8.762778044E-1
4.450014000E0,-2.870647907E0,-1.129344940E1,8.858546019E-1
4.455019000E0,-3.627215624E0,-1.156878281E1,5.985504389E-1
4.460024000E0,-4.362235546E0,-1.210747814E1,2.896983922E-1
4.465028000E0,-4.874594688E0,-1.278264332E1,2.394201607E-2
4.470033000E0,-5.353435040E0,-1.373314095E1,-4.932055473E-1
4.475038000E0,-5.497087002E0,-1.430774975E1,-8.259995580E-1
4.479982000E0,-5.410895824E0,-1.470997524E1,-6.991068721E-1
4.484987000E0,-5.128379822E0,-1.492784786E1,-2.609679997E-1
4.489992000E0,-4.654327869E0,-1.506431675E1,4.429273009E-1
4.494997000E0,-3.988739967E0,-1.504995155E1,1.407790542E0
4.500001000E0,-3.265691042E0,-1.485362720E1,2.784456491E0
4.505006000E0,-2.925714493E0,-1.461420727E1,3.756502390E0
4.510011000E0,-2.873042107E0,-1.434605694E1,4.273650169E0
4.515016000E0,-3.213018656E0,-1.425028896E1,4.036623955E0
4.520021000E0,-3.790021181E0,-1.435323906E1,2.985569477E0
4.525026000E0,-4.580107689E0,-1.453998661E1,1.714248419E0
4.530031000E0,-5.521028996E0,-1.472673512E1,4.740519226E-1
4.535036000E0,-6.258443356E0,-1.466448498E1,2.274491638E-1
4.539979000E0,-6.907271862E0,-1.426944256E1,5.171475410E-1
4.544984000E0,-7.383718014E0,-1.363976669E1,8.259995580E-1
4.549989000E0,-7.795520782E0,-1.289038181E1,8.810662031E-1
4.554994000E0,-8.051700592E0,-1.230619717E1,1.091755986E0
4.559999000E0,-7.900865555E0,-1.164300251E1,1.065419793E0
4.565004000E0,-7.508216381E0,-1.134851646E1,8.571242094E-1
4.570009000E0,-6.540958881E0,-1.114740276E1,5.746084079E-2
4.575013000E0,-5.202600479E0,-1.111867237E1,-4.908113480E-1
4.580018000E0,-3.655946016E0,-1.126471901E1,-3.184288144E-1
4.585023000E0,-1.434126854E0,-1.162624359E1,6.129156351E-1
4.590028000E0,4.596867263E-1,-1.227986050E1,9.888052940E-1
4.595033000E0,2.011129379E0,-1.275391293E1,4.046200812E-1
4.600038000E0,2.870647907E0,-1.317529202E1,-9.457096457E-1
4.604982000E0,2.923320293E0,-1.405875206E1,-2.375048161E0
4.609987000E0,2.755726099E0,-1.537316895E1,-3.378218651E0
4.614991000E0,2.944868088E0,-1.668519211E1,-3.773261786E0
4.619996000E0,3.301604033E0,-1.795411873E1,-3.519476414E0
4.625001000E0,3.576937437E0,-1.842098808E1,-3.050212860E0
4.630006000E0,3.739742994E0,-1.854548645E1,-2.427720547E0
4.635011000E0,3.792415380E0,-1.852154350E1,-1.508347034E0
4.640016000E0,3.653551817E0,-1.856224632E1,-3.256114423E-1
4.645021000E0,3.248931646E0,-1.860294724E1,1.024718285E0
4.650025000E0,2.896984100E0,-1.838986397E1,1.640028119E0
4.655030000E0,2.499546528E0,-1.803073311E1,1.898601890E0
4.660035000E0,2.020706177E0,-1.757583427E1,1.776497602E0
4.664979000E0,1.491587639E0,-1.707784081E1,1.094150186E0
4.669984000E0,9.744400978E-1,-1.635239792E1,-3.375824392E-1
4.674989000E0,5.027823448E-1,-1.559104156E1,-2.657563925E0
4.679994000E0,-4.070142806E-1,-1.490869427E1,-3.435679436E0
4.684999000E0,-1.197100878E0,-1.451365089E1,-2.978386879E0
4.690003000E0,-1.596932530E0,-1.403002167E1,-1.656787634E0
4.695008000E0,-1.493981838E0,-1.342907715E1,-1.125274822E-1
4.700013000E0,-1.223437071E0,-1.262223148E1,7.924807668E-1
4.705018000E0,-9.840168953E-1,-1.148977375E1,7.661445141E-1
4.710023000E0,-1.149216771E0,-1.071165848E1,1.484405100E-1
4.715028000E0,-1.563413739E0,-1.017535686E1,-4.908113480E-1
4.720033000E0,-2.157175779E0,-9.880870819E0,-7.398083210E-1
4.725037000E0,-2.422932148E0,-9.686940193E0,-1.010353088E0
4.729981000E0,-2.267308950E0,-9.555258751E0,-1.323993564E0
4.734986000E0,-1.383848548E0,-9.406818390E0,-1.414973259E0
4.739991000E0,-2.154781483E-2,-9.188945770E0,-8.906430602E-1
4.744996000E0,7.565677166E-1,-8.652645111E0,-1.065419793E0
4.750001000E0,1.046266198E0,-7.802703381E0,-1.498770237E0
4.754823000E0,9.935936928E-1,-6.519411087E0,-1.917755604E0
4.759950000E0,9.816226959E-1,-5.724536419E0,-1.936909199E0
4.765015000E0,1.103726983E0,-4.522646904E0,-1.517923832E0
4.770020000E0,1.498770237E0,-3.538630009E0,-1.161187768E0
4.775025000E0,1.561019540E0,-2.669534922E0,-1.247379065E0
4.780030000E0,1.321599364E0,-2.097320795E0,-1.620874524E0
4.784852000E0,7.565677166E-1,-1.771709204E0,-2.037465572E0
4.789979000E0,5.339069963E-1,-1.683123827E0,-2.037465572E0
4.794984000E0,2.106897533E-1,-1.721431017E0,-1.702277422E0
4.799988000E0,7.182605099E-3,-1.869871497E0,-1.343147159E0
4.804993000E0,-1.915361285E-1,-2.059013367E0,-1.125274777E0
4.809998000E0,-3.926490843E-1,-2.135627985E0,-1.063025594E0
4.815003000E0,-5.937620401E-1,-2.128445387E0,-9.792284966E-1
4.820008000E0,-7.230489254E-1,-2.126051188E0,-9.504981041E-1
4.825013000E0,-1.122880578E0,-2.140416384E0,-9.911994934E-1
4.830018000E0,-1.438915253E0,-2.159569979E0,-8.786720037E-1
4.835023000E0,-1.606509328E0,-2.209848166E0,-5.722141862E-1
4.840027000E0,-1.546654344E0,-2.240972757E0,-1.771709323E-1
4.845032000E0,-1.201889277E0,-2.291250944E0,8.140286058E-2
4.850037000E0,-7.230489254E-1,-2.355894566E0,1.244984865E-1
4.854981000E0,4.309562966E-2,-2.413355350E0,-9.337386489E-2
4.859986000E0,9.672574997E-1,-2.437297344E0,-3.854664862E-1
4.864869000E0,2.130839586E0,-2.475604534E0,-8.571242094E-1
4.871033000E0,2.868253708E0,-2.537853718E0,-1.321599364E0
4.876038000E0,3.445256233E0,-2.676717520E0,-1.733402014E0
4.880982000E0,3.739742994E0,-2.808398485E0,-2.066195965E0
4.885987000E0,3.921702385E0,-2.925714493E0,-2.217030764E0
4.890992000E0,3.926490784E0,-3.114856482E0,-2.250549555E0
4.895997000E0,3.569754839E0,-3.241749048E0,-2.140416384E0
4.901001000E0,3.181894064E0,-3.359065056E0,-1.810016513E0
4.906006000E0,2.693476915E0,-3.447650433E0,-1.307234168E0
4.911011000E0,2.322375536E0,-3.545812607E0,-5.985504389E-1
4.916016000E0,1.984793186E0,-3.711012602E0,1.723825186E-1
4.921021000E0,1.388636947E0,-4.055777550E0,1.168370485E0
4.926026000E0,8.307880163E-1,-4.395754337E0,2.111685991E0
4.931031000E0,2.178723514E-1,-4.881777287E0,3.229778051E0
4.936035000E0,-7.086837292E-1,-5.564124584E0,4.472368717E0
4.940979000E0,-1.857900500E0,-6.521805286E0,5.956773758E0
4.945984000E0,-2.923320293E0,-7.721300602E0,7.625532627E0
4.950989000E0,-4.426878929E0,-9.567230225E0,9.629479408E0
4.955994000E0,-5.540182590E0,-1.127429581E1,1.126232433E1
4.960999000E0,-6.497863293E0,-1.327584839E1,1.356794071E1
4.966004000E0,-7.326257229E0,-1.539711094E1,1.589989376E1
4.971009000E0,-7.759607792E0,-1.743218231E1,1.753034401E1
4.976013000E0,-7.407660007E0,-1.963484764E1,1.826057625E1
4.981018000E0,-7.034164429E0,-2.115516663E1,1.823423958E1
4.986023000E0,-6.926425457E0,-2.217270279E1,1.796608925E1
4.991028000E0,-6.876147270E0,-2.189736938E1,1.686236191E1
4.996033000E0,-6.866570473E0,-2.026452255E1,1.497333717E1
5.001038000E0,-6.940790653E0,-1.788468742E1,1.304361057E1
5.005982000E0,-7.108384609E0,-1.529894924E1,1.130302620E1
5.010986000E0,-7.170634270E0,-1.227507210E1,1.056082344E1
5.015991000E0,-6.974309444E0,-1.018014526E1,1.009156036E1
5.020996000E0,-6.512228489E0,-8.465897560E0,9.617507935E0
5.026001000E0,-5.861005783E0,-7.354987621E0,9.143456459E0
5.031006000E0,-5.020640850E0,-7.012616634E0,8.793902397E0
5.036011000E0,-3.809175014E0,-7.999027729E0,8.360552788E0
5.041016000E0,-2.961627483E0,-9.708487511E0,7.340622425E0
5.046021000E0,-2.432508945E0,-1.158314800E1,5.655104637E0
5.052002000E0,-1.532289028E0,-1.386003399E1,3.339911461E0
5.057007000E0,-4.309563041E-1,-1.550963879E1,1.587355733E0
5.062012000E0,7.062895298E-1,-1.711854172E1,3.663128614E-1
5.067017000E0,1.465251446E0,-1.847365952E1,7.661445439E-2
5.072021000E0,1.400607944E0,-1.996045876E1,-1.508347094E-1
5.077026000E0,3.902548850E-1,-2.095884132E1,-3.351882473E-2
5.082031000E0,-6.296750307E-1,-2.166513062E1,6.847416759E-1
5.087036000E0,-6.416460276E-1,-2.189976311E1,1.012747288E0
5.091980000E0,1.532289088E-1,-2.057576942E1,-2.920926213E-1
5.096985000E0,1.019929886E0,-1.673068237E1,-2.647987127E0
5.101990000E0,1.091755986E0,-1.004607010E1,-6.033388138E0
5.106995000E0,1.388636947E0,-5.317522049E0,-6.284779549E0
5.111999000E0,3.047818661E0,-1.783680320E0,-4.941632271E0
5.117004000E0,5.741295815E0,3.519476354E-1,-3.751713991E0
5.122009000E0,8.822632790E0,1.357512355E0,-3.203441858E0
5.127014000E0,1.118570995E1,1.762132406E0,-2.365471363E0
5.132019000E0,1.206917095E1,1.695094824E0,-3.591302410E-2
5.137024000E0,1.074757099E1,9.864110947E-1,2.164358377E0
5.142029000E0,7.706935406E0,-1.651999205E-1,2.602497339E0
5.147033000E0,3.531447411E0,-1.865083098E0,7.182605267E-1
5.152038000E0,-6.224924326E-2,-4.367023945E0,-1.577778935E0
5.156982000E0,-2.252943754E0,-7.235277653E0,-2.906560898E0
5.161987000E0,-3.809175014E0,-1.091995430E1,-4.323928356E0
5.166992000E0,-4.639962673E0,-1.354639339E1,-6.397306919E0
5.171997000E0,-5.367800236E0,-1.568680954E1,-9.136273384E0
5.177002000E0,-6.090848923E0,-1.748246002E1,-1.122401714E1
5.182007000E0,-7.146692276E0,-1.886870384E1,-1.124795914E1
5.187011000E0,-8.446743965E0,-1.980483627E1,-8.571242332E0
5.192016000E0,-9.892841339E0,-2.017593765E1,-2.664746523E0
5.197021000E0,-1.051054573E1,-1.947443581E1,1.769315004E0
5.202026000E0,-1.023521233E1,-1.760935402E1,4.378994942E0
5.207031000E0,-8.863334656E0,-1.494939518E1,5.087678432E0
5.212036000E0,-7.534552574E0,-1.255279922E1,4.855441093E0
5.216980000E0,-6.356605530E0,-1.053927612E1,3.871424198E0
5.221984000E0,-4.407725334E0,-8.554482460E0,2.564189911E0
5.226989000E0,-2.686294317E0,-7.462726593E0,1.628057122E0
5.231994000E0,-9.097966552E-1,-6.548141479E0,7.517793179E-1
5.236999000E0,9.744400978E-1,-5.635950565E0,1.029506698E-1
5.242004000E0,2.837129116E0,-4.812345505E0,-4.788403213E-2
5.247009000E0,4.311957359E0,-4.211400986E0,-7.661445439E-2
5.251955000E0,5.406107426E0,-4.015076160E0,-1.651999205E-1
5.257021000E0,5.722142220E0,-4.388571739E0,-1.316810995E-1
5.262026000E0,5.540182590E0,-5.032611847E0,-1.747767180E-1
5.267031000E0,4.893748283E0,-5.899312973E0,-1.149216816E-1
5.272036000E0,3.981557369E0,-6.754043102E0,-5.267243832E-2
5.276980000E0,2.782062292E0,-7.402871609E0,-5.027823523E-2
5.281984000E0,1.338358760E0,-7.867346764E0,1.268926859E-1
5.286989000E0,2.944868207E-1,-7.886500359E0,4.812345505E-1
5.291994000E0,-6.177040339E-1,-7.841010571E0,6.584054828E-1
5.296999000E0,-1.663970232E0,-8.039729118E0,4.118026793E-1
5.302004000E0,-2.506729126E0,-8.372523308E0,1.939303428E-1
5.307009000E0,-3.131615877E0,-8.686163902E0,-2.154781520E-1
5.312014000E0,-3.754108191E0,-8.829815865E0,-7.230489254E-1
5.317019000E0,-4.256890774E0,-8.916007042E0,-1.393425345E0
5.322023000E0,-4.364629745E0,-8.793902397E0,-1.790862918E0
5.327028000E0,-4.120420933E0,-8.461109161E0,-1.922544003E0
5.332033000E0,-3.634398222E0,-8.001421928E0,-1.817199111E0
5.337038000E0,-2.753331900E0,-7.445967197E0,-1.201889277E0
5.341982000E0,-2.288856745E0,-7.177816868E0,-9.026140571E-1
5.346987000E0,-1.790862918E0,-6.981492043E0,-3.758896589E-1
5.351992000E0,-1.359906554E0,-6.883329868E0,-2.106897533E-1
5.356996000E0,-9.361328483E-1,-6.833051682E0,-1.843535304E-1
5.362001000E0,-5.817909837E-1,-6.835445881E0,-2.777273953E-1
5.367006000E0,-2.896983922E-1,-7.015010834E0,-5.554547906E-1
5.372011000E0,-1.819593310E-1,-7.201758862E0,-8.188169599E-1
5.377016000E0,-1.244984865E-1,-7.431602001E0,-1.007958889E0
5.382021000E0,-2.035071403E-1,-7.733271599E0,-1.108515382E0
5.387026000E0,-3.950432837E-1,-8.085219383E0,-1.101332784E0
5.392031000E0,-6.679822803E-1,-8.449137688E0,-8.044517636E-1
5.397035000E0,-1.089361787E0,-8.904036522E0,3.351882473E-2
5.401796000E0,-1.379060149E0,-9.160215378E0,8.331822157E-1
5.406984000E0,-1.558625340E0,-9.184157372E0,1.596932530E0
5.411928000E0,-1.714248419E0,-9.157821655E0,2.145204782E0
5.416994000E0,-1.944091797E0,-9.119514465E0,2.401384354E0
5.421999000E0,-2.267308950E0,-9.222464561E0,2.272097349E0
5.427004000E0,-2.887407303E0,-9.469067574E0,1.783680320E0
5.432008000E0,-3.399766445E0,-9.737217903E0,1.182735682E0
5.437013000E0,-3.861847401E0,-9.902418137E0,6.584054828E-1
5.442018000E0,-4.216189384E0,-1.003170490E1,3.926490843E-1
5.447023000E0,-4.395754337E0,-1.011071396E1,3.854664862E-1
5.452028000E0,-4.383783340E0,-1.014423275E1,5.315127969E-1
5.457033000E0,-4.053383350E0,-1.020887566E1,3.878606856E-1
5.462038000E0,-3.627215624E0,-1.033576870E1,1.771709323E-1
5.466982000E0,-3.009511471E0,-1.052491093E1,1.723825186E-1
5.471986000E0,-2.296039343E0,-1.069489861E1,4.932055473E-1
5.476991000E0,-1.594538331E0,-1.080742645E1,9.481038451E-1
5.481996000E0,-1.007958889E0,-1.084094524E1,1.405396342E0
5.487001000E0,-6.823474765E-1,-1.093910789E1,1.563413739E0
5.492006000E0,-8.379706144E-1,-1.110430717E1,1.230619669E0
5.497011000E0,-1.434126854E0,-1.141076565E1,6.488286853E-1
5.502016000E0,-2.319981337E0,-1.193030739E1,3.351882473E-2
5.507020000E0,-3.217807055E0,-1.258152962E1,-3.399766386E-1
5.512025000E0,-3.900154591E0,-1.323035812E1,-4.692635238E-1
5.517030000E0,-4.276044369E0,-1.390552330E1,-2.011129409E-1
5.522035000E0,-4.486733913E0,-1.430296135E1,1.484405100E-1
5.526979000E0,-4.513070107E0,-1.448252583E1,5.602431893E-1
5.531984000E0,-4.299986362E0,-1.448013210E1,1.115697980E0
5.536989000E0,-3.945644379E0,-1.438675785E1,1.786074519E0
5.541994000E0,-3.603273630E0,-1.430774975E1,2.353500366E0
5.546998000E0,-3.229778051E0,-1.413536644E1,3.088520288E0
5.552003000E0,-3.100491285E0,-1.397495556E1,3.684676409E0
5.557008000E0,-3.222595453E0,-1.383609200E1,4.000710964E0
5.562013000E0,-3.663128614E0,-1.386961079E1,3.627215624E0
5.567018000E0,-4.321534157E0,-1.412578964E1,2.597708941E0
5.572023000E0,-5.078101635E0,-1.451365089E1,1.410184860E0
5.577028000E0,-6.086060524E0,-1.501643276E1,7.924807668E-1
5.582032000E0,-6.574477673E0,-1.507868195E1,1.070208192E0
5.587037000E0,-7.086836815E0,-1.476504230E1,1.170764685E0
5.591981000E0,-7.771578789E0,-1.439154625E1,1.565807939E0
5.596986000E0,-8.317456245E0,-1.393185997E1,2.262520552E0
5.601991000E0,-8.714894295E0,-1.331176186E1,2.880224705E0
5.606996000E0,-8.520963669E0,-1.244266605E1,2.229001760E0
5.612001000E0,-7.788338184E0,-1.211705494E1,8.834604025E-1
5.617006000E0,-6.720524311E0,-1.215296745E1,5.746084079E-2
5.622010000E0,-5.109226227E0,-1.232295609E1,-2.011129409E-1
5.627015000E0,-3.280056238E0,-1.255519390E1,8.140286058E-2
5.632020000E0,-1.072602391E0,-1.280897903E1,5.506663918E-1
5.637025000E0,1.687912226E0,-1.298136139E1,1.939303428E-1
5.642030000E0,3.351882458E0,-1.315613842E1,-6.081272364E-1
5.647035000E0,4.216189384E0,-1.383369732E1,-1.096544385E0
5.652040000E0,4.654327869E0,-1.472434044E1,-1.146822572E0
5.656983000E0,4.924872875E0,-1.550485039E1,-1.158793569E0
5.661988000E0,4.876988888E0,-1.604354477E1,-1.582567334E0
5.666993000E0,4.544194698E0,-1.652238655E1,-1.903390408E0
5.671998000E0,4.086902142E0,-1.682884407E1,-1.922544003E0
5.677003000E0,3.682282209E0,-1.691024590E1,-1.824381709E0
5.682008000E0,3.268085241E0,-1.692461205E1,-1.446097851E0
5.687013000E0,2.808398485E0,-1.693897629E1,-7.613561153E-1
5.692018000E0,2.090138197E0,-1.688391113E1,-4.309562966E-2
5.697022000E0,1.089361787E0,-1.677377701E1,2.106897533E-1
5.701966000E0,-2.466027737E-1,-1.672349930E1,2.825157940E-1
5.707032000E0,-1.580173135E0,-1.659421158E1,6.607996821E-1
5.712037000E0,-2.181117773E0,-1.644337654E1,8.259995580E-1
5.716981000E0,-2.252943754E0,-1.619916916E1,1.053448766E-1
5.721986000E0,-2.494758129E0,-1.590228748E1,-1.187524080E0
5.726991000E0,-2.786850691E0,-1.559822369E1,-1.235408068E0
5.731812000E0,-2.710236311E0,-1.503079796E1,-6.584054828E-1
5.737000000E0,-2.410961151E0,-1.457829380E1,-9.576806426E-2
5.742005000E0,-2.008735180E0,-1.383369732E1,5.530605912E-1
5.747010000E0,-1.714248419E0,-1.313937855E1,8.714894056E-1
5.752015000E0,-1.561019540E0,-1.233013916E1,8.858546019E-1
5.757020000E0,-1.709460020E0,-1.179862595E1,4.884171486E-1
5.762025000E0,-1.836352706E0,-1.125514221E1,2.250549644E-1
5.767030000E0,-1.766920805E0,-1.072841740E1,-1.436520964E-1
5.772034000E0,-1.570596337E0,-1.023760605E1,-7.445967197E-1
5.777039000E0,-1.309628367E0,-9.816226959E0,-1.333570361E0
5.781983000E0,-6.847416759E-1,-9.236829758E0,-1.582567334E0
5.786988000E0,-4.788403213E-2,-8.681375504E0,-1.359906554E0
5.791993000E0,2.298433632E-1,-7.903259754E0,-1.091755986E0
5.796998000E0,-1.029506698E-1,-7.074865818E0,-1.331176162E0
5.802003000E0,-4.477157295E-1,-6.253654957E0,-1.582567334E0
5.807007000E0,-4.453215301E-1,-5.439626217E0,-1.570596337E0
5.812012000E0,-1.221042871E-1,-4.388571739E0,-1.417367458E0
5.817017000E0,1.723825186E-1,-3.490746021E0,-1.319205165E0
5.822022000E0,3.088520169E-1,-2.691082716E0,-1.383848548E0
5.827027000E0,2.681505978E-1,-2.018311977E0,-1.618480325E0
5.832032000E0,2.226607651E-1,-1.577778935E0,-1.853112102E0
5.837037000E0,1.747767180E-1,-1.285686255E0,-2.080561161E0
5.841981000E0,4.309562966E-2,-1.180341482E0,-2.066195965E0
5.846985000E0,2.154781483E-2,-1.170764685E0,-1.695094824E0
5.851990000E0,-4.788403213E-2,-1.182735682E0,-1.369483352E0
5.856995000E0,-2.130839527E-1,-1.223437071E0,-1.249773264E0
5.862000000E0,-4.237737060E-1,-1.221042871E0,-1.130063176E0
5.867005000E0,-4.501099288E-1,-1.144428372E0,-8.882488012E-1
5.872010000E0,-2.346317619E-1,-1.046266198E0,-4.860229492E-1
5.877015000E0,-4.548983276E-2,-1.012747288E0,-2.944868207E-1
5.882020000E0,1.675941199E-1,-9.337386489E-1,-2.106897533E-1
5.887024000E0,4.812345505E-1,-9.528923035E-1,-2.130839527E-1
5.892029000E0,7.972691655E-1,-1.120486379E0,-3.232172430E-1
5.897034000E0,1.177947283E0,-1.328781962E0,-5.554547906E-1
5.902039000E0,1.841141105E0,-1.589749932E0,-9.361328483E-1
5.906983000E0,2.477998734E0,-1.721431017E0,-1.367089152E0
5.911988000E0,3.016694069E0,-1.874659896E0,-1.821987510E0
5.916993000E0,3.356670856E0,-2.152387381E0,-2.188300371E0
5.921997000E0,3.538630009E0,-2.463633537E0,-2.396595955E0
5.927002000E0,3.579331636E0,-2.837129116E0,-2.439691544E0
5.932007000E0,3.500322819E0,-3.347094059E0,-2.166752577E0
5.937012000E0,3.277662039E0,-3.672705412E0,-1.788468719E0
5.942017000E0,2.997540474E0,-3.964797974E0,-1.304839969E0
5.947022000E0,2.604891539E0,-4.122815132E0,-7.134721279E-1
5.952027000E0,2.190694571E0,-4.228160381E0,-5.267243832E-2
5.957032000E0,1.594538331E0,-4.316745758E0,8.140285611E-1
5.962036000E0,1.309628367E0,-4.371812344E0,1.661576033E0
5.966980000E0,1.055842996E0,-4.481945515E0,2.475604534E0
5.971985000E0,6.871358752E-1,-4.692635536E0,3.198653460E0
5.976990000E0,2.394201756E-1,-5.027823448E0,3.933673382E0
5.981995000E0,-3.016694188E-1,-5.717353821E0,4.649539471E0
5.987000000E0,-1.034295082E0,-6.572083473E0,5.829881191E0
5.992005000E0,-1.929726601E0,-7.955932140E0,7.477091789E0
5.997009000E0,-3.141192675E0,-9.270348549E0,9.895236015E0
6.002014000E0,-4.520252705E0,-1.082897472E1,1.300530338E1
6.007019000E0,-5.930437565E0,-1.266772079E1,1.598608494E1
6.012024000E0,-7.706935406E0,-1.471236992E1,1.822226906E1
6.017029000E0,-9.945513725E0,-1.706347466E1,1.946725464E1
6.022034000E0,-1.123120022E1,-1.883279037E1,1.973301125E1
6.027039000E0,-1.188002872E1,-2.053267288E1,1.965400124E1
6.031983000E0,-1.186566353E1,-2.203862572E1,1.891419411E1
6.036987000E0,-1.107797146E1,-2.299391365E1,1.691264153E1
6.041992000E0,-9.440337181E0,-2.306095123E1,1.417846203E1
6.046997000E0,-7.036558628E0,-2.150232506E1,1.102769279E1
6.052002000E0,-5.667075634E0,-1.919670868E1,9.236829758E0
6.057007000E0,-4.845864296E0,-1.660857773E1,8.305485725E0
6.062012000E0,-3.936067581E0,-1.410184765E1,8.173804283E0
6.067017000E0,-3.124433279E0,-1.170046329E1,8.219294548E0
6.072021000E0,-2.358288765E0,-9.531316757E0,8.204929352E0
6.077026000E0,-1.316810966E0,-7.323863029E0,7.730877399E0
6.082031000E0,-3.471592367E-1,-6.155492783E0,7.208941460E0
6.087036000E0,4.955997467E-1,-5.521028996E0,6.593631268E0
6.091980000E0,9.600749016E-1,-5.501875401E0,5.954379559E0
6.096985000E0,1.233013868E0,-6.102819920E0,5.023035049E0
6.101990000E0,1.173158884E0,-7.156269073E0,3.787626982E0
6.106995000E0,7.781155705E-1,-8.908824921E0,2.185906172E0
6.111999000E0,-1.795651317E-1,-1.035492229E1,8.690952063E-1
6.117004000E0,-1.489193439E0,-1.166215611E1,-4.429273009E-1
6.122009000E0,-2.501940727E0,-1.282573891E1,-1.977610588E0
6.127014000E0,-2.679111719E0,-1.404438686E1,-3.658340216E0
6.132995000E0,-1.829170108E0,-1.540429401E1,-5.377377033E0
6.138000000E0,-4.596867263E-1,-1.628296661E1,-5.813121796E0
6.143005000E0,1.831564307E0,-1.727177048E1,-4.845864296E0
6.148010000E0,3.167528868E0,-1.790623474E1,-3.229778051E0
6.153015000E0,3.976768970E0,-1.792538834E1,-1.379060149E0
6.158020000E0,4.656722069E0,-1.679532433E1,-9.576806799E-3
6.163025000E0,4.879383087E0,-1.434845066E1,5.530605912E-1
6.168030000E0,4.857835293E0,-1.149216843E1,1.663970232E0
6.173034000E0,5.355829239E0,-8.269572258E0,4.367023945E0
6.178039000E0,6.758831501E0,-6.256049156E0,5.331887245E0
6.182983000E0,8.377311707E0,-4.805162907E0,4.508281708E0
6.187988000E0,9.603142738E0,-3.751713991E0,3.016694069E0
6.192993000E0,9.787496567E0,-3.193865061E0,2.387019157E0
6.197998000E0,8.872911453E0,-3.184288263E0,2.583343744E0
6.203003000E0,6.198588371E0,-3.878606796E0,1.884236693E0
6.208007000E0,3.224989653E0,-4.817133904E0,-3.543418646E-1
6.213012000E0,9.576806799E-3,-5.549759388E0,-3.598485231E0
6.218017000E0,-3.023876667E0,-6.169857979E0,-6.629544735E0
6.223022000E0,-4.709394932E0,-7.220912457E0,-8.556877136E0
6.227844000E0,-5.870582581E0,-9.543288231E0,-9.780313492E0
6.233032000E0,-7.070077419E0,-1.175074196E1,-1.036928749E1
6.238037000E0,-8.276755333E0,-1.406593513E1,-1.080503273E1
6.242980000E0,-9.471462250E0,-1.615128517E1,-1.101811600E1
6.247985000E0,-1.038125896E1,-1.759498787E1,-1.050336266E1
6.252932000E0,-1.087207031E1,-1.821987534E1,-8.317456245E0
6.257998000E0,-1.090798283E1,-1.816241455E1,-4.311957359E0
6.263003000E0,-1.056800652E1,-1.734599113E1,1.539471745E0
6.268007000E0,-9.753977776E0,-1.600523758E1,4.757278919E0
6.273012000E0,-8.461109161E0,-1.417606831E1,5.513846397E0
6.278017000E0,-7.158663273E0,-1.233253288E1,5.125985622E0
6.283022000E0,-5.671864033E0,-1.067335129E1,4.501099110E0
6.288027000E0,-3.564966440E0,-8.978256226E0,3.749319792E0
6.293032000E0,-1.529894829E0,-7.728483200E0,3.184288263E0
6.298037000E0,1.963245422E-1,-6.576871872E0,2.504334927E0
6.302980000E0,1.714248419E0,-5.556941986E0,1.551442742E0
6.307985000E0,3.134010077E0,-4.673481941E0,7.493851185E-1
6.314028000E0,4.730942726E0,-4.005499363E0,1.771709323E-1
6.319033000E0,5.659893036E0,-3.940855980E0,1.173158810E-1
6.324038000E0,6.131550789E0,-4.333505154E0,-1.484405100E-1
6.328981000E0,5.796362400E0,-4.829104900E0,-2.370259613E-1
6.333986000E0,4.884171486E0,-5.461174011E0,-2.753331959E-1
6.338991000E0,3.663128614E0,-6.112396717E0,-8.379705995E-2
6.343996000E0,2.413355350E0,-6.524199486E0,2.418143749E-1
6.349001000E0,1.098938584E0,-6.921637058E0,9.576806426E-2
6.354006000E0,-2.944868207E-1,-7.326257229E0,-2.537853718E-1
6.359011000E0,-1.261744261E0,-7.829039574E0,-5.075707436E-1
6.364015000E0,-2.128445387E0,-8.248024940E0,-8.714894056E-1
6.369020000E0,-2.997540474E0,-8.729259491E0,-1.723825216E0
6.374025000E0,-3.722983599E0,-9.069235802E0,-2.418143749E0
6.379030000E0,-3.960009575E0,-9.064447403E0,-2.851494312E0
6.384035000E0,-3.739742994E0,-8.568847656E0,-3.057395458E0
6.388979000E0,-3.366247654E0,-7.984662533E0,-2.983175278E0
6.393984000E0,-2.686294317E0,-7.405265808E0,-2.387019157E0
6.398989000E0,-2.106897593E0,-6.916848660E0,-1.889025092E0
6.403993000E0,-1.561019540E0,-6.478709698E0,-1.209071875E0
6.408998000E0,-1.156399369E0,-6.318298340E0,-6.967126727E-1
6.414003000E0,-7.134721279E-1,-6.186617374E0,-5.841852427E-1
6.419008000E0,-5.434837937E-1,-6.277596951E0,-7.829039693E-1
6.424013000E0,-4.477157295E-1,-6.519411087E0,-1.067813993E0
6.429018000E0,-2.825157940E-1,-6.868964672E0,-1.180341482E0
6.434023000E0,-2.011129409E-1,-7.309497833E0,-9.121908545E-1
6.439027000E0,-3.160346150E-1,-7.831433773E0,-4.405331016E-1
6.444032000E0,-5.602431893E-1,-8.348581314E0,3.806780577E-1
6.449037000E0,-8.882488012E-1,-8.678980827E0,1.300051570E0
6.453981000E0,-1.285686255E0,-8.808267593E0,2.420537949E0
6.458986000E0,-1.661576033E0,-8.839392662E0,3.172317266E0
6.463991000E0,-2.193088770E0,-8.690952301E0,3.246537447E0
6.468996000E0,-2.736572504E0,-8.571242332E0,2.832340717E0
6.474001000E0,-3.471592426E0,-8.678980827E0,2.140416384E0
6.479005000E0,-3.988739967E0,-9.062053680E0,1.680729628E0
6.484010000E0,-4.484339714E0,-9.658209801E0,1.204283476E0
6.489015000E0,-4.766855717E0,-1.029506683E1,7.350199223E-1
6.494997000E0,-4.953603268E0,-1.092234802E1,1.699883193E-1
6.500001000E0,-5.030217648E0,-1.127190113E1,-7.422025502E-2
6.505006000E0,-5.035006046E0,-1.145864964E1,-1.029506698E-1
6.510011000E0,-4.881777287E0,-1.154723454E1,1.915361360E-2
6.515016000E0,-4.580107689E0,-1.153286934E1,6.703764945E-2
6.520021000E0,-4.084507942E0,-1.144188976E1,1.125274822E-1
6.525026000E0,-3.588908434E0,-1.142991924E1,4.094084799E-1
6.530031000E0,-3.035847664E0,-1.137964058E1,9.385270476E-1
6.535036000E0,-2.468421936E0,-1.128866100E1,1.403002143E0
6.539979000E0,-1.877054095E0,-1.105402946E1,1.534683347E0
6.544984000E0,-1.838746905E0,-1.093192482E1,1.276109457E0
6.549989000E0,-2.178723574E0,-1.107078838E1,6.344634295E-1
6.554994000E0,-2.837129116E0,-1.148738003E1,-5.985504389E-2
6.559999000E0,-3.576937437E0,-1.209311295E1,-6.248866320E-1
6.565004000E0,-4.158728123E0,-1.281855583E1,-8.020575643E-1
6.570009000E0,-4.335899353E0,-1.366370869E1,-6.416460276E-1
6.575013000E0,-4.400542736E0,-1.416888523E1,-4.189853072E-1
6.580018000E0,-4.326322556E0,-1.438675785E1,1.436521020E-2
6.585023000E0,-4.007893562E0,-1.439394093E1,6.799532771E-1
6.590028000E0,-3.541024208E0,-1.428859615E1,1.386242747E0
6.595033000E0,-3.174711466E0,-1.414973164E1,2.430114746E0
6.600038000E0,-3.074155092E0,-1.404678154E1,3.169923067E0
6.604982000E0,-3.330334663E0,-1.410903072E1,3.658340216E0
6.609987000E0,-3.907337189E0,-1.433408546E1,3.627215624E0
6.614991000E0,-4.747702122E0,-1.485362720E1,2.999934673E0
6.619996000E0,-5.592854977E0,-1.554076290E1,1.948880196E0
6.625001000E0,-6.241683960E0,-1.602678680E1,8.020575643E-1
6.630006000E0,-6.998251438E0,-1.612973595E1,5.003881454E-1
6.635011000E0,-7.474697590E0,-1.576103020E1,4.812345505E-1
6.640016000E0,-8.152256966E0,-1.536598682E1,7.038952708E-1
6.645021000E0,-8.856152534E0,-1.502600956E1,1.182735682E0
6.650025000E0,-9.354146004E0,-1.458547688E1,1.601720929E0
6.655030000E0,-8.947132111E0,-1.383130360E1,8.092401624E-1
6.659852000E0,-8.090007782E0,-1.315374374E1,-4.572925270E-1
6.664918000E0,-6.938396454E0,-1.285686302E1,-8.882488012E-1
6.669984000E0,-5.200206280E0,-1.274912453E1,-1.867477298E-1
6.676026000E0,-2.159569979E0,-1.281855583E1,1.570596337E0
6.681031000E0,6.368576288E-1,-1.309628296E1,2.846705914E0
6.686036000E0,3.186682463E0,-1.345062542E1,2.918531895E0
6.690980000E0,5.125985622E0,-1.374750614E1,1.197100878E0
6.695985000E0,6.459556103E0,-1.413057804E1,-2.274491638E-1
6.700990000E0,6.689399719E0,-1.479856110E1,-1.091755986E0
6.705995000E0,6.655880928E0,-1.547372532E1,-1.565807939E0
6.710999000E0,6.277596951E0,-1.608424759E1,-1.867477298E0
6.716004000E0,5.645527840E0,-1.647689629E1,-2.102109194E0
6.721009000E0,4.596867085E0,-1.667800903E1,-2.434903145E0
6.726014000E0,3.655946016E0,-1.663012505E1,-2.487575531E0
6.731019000E0,2.722207308E0,-1.656787491E1,-2.063801765E0
6.736024000E0,1.778891921E0,-1.662773132E1,-1.192312479E0
6.741029000E0,9.361328483E-1,-1.671392250E1,-2.250549644E-1
6.746034000E0,1.221042871E-1,-1.676420021E1,4.381389022E-1
6.751038000E0,-8.714894056E-1,-1.670913315E1,8.283938169E-1
6.755982000E0,-1.608903527E0,-1.662773132E1,8.451532125E-1
6.760987000E0,-2.173935175E0,-1.636197472E1,5.817909837E-1
6.765992000E0,-2.679111719E0,-1.594777775E1,3.351882473E-2
6.770997000E0,-3.076549292E0,-1.546893692E1,-3.112462163E-1
6.776002000E0,-3.162740469E0,-1.500685596E1,-4.429273009E-1
6.781007000E0,-3.047818661E0,-1.429577827E1,-4.908113480E-1
6.786011000E0,-2.779668093E0,-1.351526833E1,-5.267243981E-1
6.791016000E0,-2.427720547E0,-1.266772079E1,-6.248866320E-1
6.796021000E0,-2.126051188E0,-1.188960552E1,-6.129156351E-1
6.801026000E0,-1.886630893E0,-1.107318306E1,-5.817909837E-1
6.806031000E0,-1.719036818E0,-1.031422138E1,-8.643068075E-1
6.811036000E0,-1.604115129E0,-9.454702377E0,-1.350329757E0
6.815980000E0,-1.403002143E0,-8.827422142E0,-1.673547029E0
6.820985000E0,-9.313444495E-1,-8.264783859E0,-1.917755604E0
6.825989000E0,-2.801215947E-1,-7.682993412E0,-2.047042370E0
6.830994000E0,3.806780577E-1,-7.168240070E0,-1.996764183E0
6.835999000E0,8.236053586E-1,-6.701370716E0,-1.948880196E0
6.841004000E0,1.005564690E0,-6.110002518E0,-2.003946781E0
6.846009000E0,9.313444495E-1,-5.748478413E0,-2.078166962E0
6.851014000E0,9.457096457E-1,-5.343858242E0,-1.659181833E0
6.856019000E0,8.643068075E-1,-4.951209068E0,-1.307234168E0
6.861023000E0,7.661445141E-1,-4.553771496E0,-1.158793569E0
6.866028000E0,7.445967197E-1,-4.070142746E0,-1.017535686E0
6.871033000E0,7.924807668E-1,-3.404554844E0,-7.924807668E-1
6.876038000E0,6.607996821E-1,-2.853888512E0,-9.241618514E-1
6.880982000E0,4.572925270E-1,-2.461239338E0,-1.259350061E0
6.885987000E0,2.226607651E-1,-2.171540976E0,-1.508347034E0
6.890992000E0,1.460463107E-1,-2.042253971E0,-1.745373011E0
6.895997000E0,1.029506698E-1,-1.929726601E0,-1.647210717E0
6.901001000E0,2.394201700E-3,-1.781286120E0,-1.558625340E0
6.906006000E0,-1.508347094E-1,-1.661576033E0,-1.544260144E0
6.911011000E0,-3.375824392E-1,-1.582567334E0,-1.414973259E0
6.916016000E0,-4.955997467E-1,-1.537077546E0,-1.225831270E0
6.921021000E0,-5.003881454E-1,-1.455674648E0,-1.086967587E0
6.926026000E0,-2.657563984E-1,-1.352723956E0,-9.935936928E-1
6.931031000E0,-5.027823523E-2,-1.199495077E0,-1.005564690E0
6.936035000E0,2.082955539E-1,-1.127668977E0,-1.074996591E0
6.940979000E0,5.841852427E-1,-1.192312479E0,-1.228225470E0
6.945984000E0,9.888052940E-1,-1.314416766E0,-1.340752959E0
6.950989000E0,1.400607944E0,-1.453280449E0,-1.462857246E0
6.955994000E0,1.810016513E0,-1.735796213E0,-1.668758631E0
6.960999000E0,2.305616140E0,-2.080561161E0,-1.824381709E0
6.966004000E0,2.659958124E0,-2.339135170E0,-1.905784607E0
6.971009000E0,2.932897091E0,-2.568978310E0,-1.924938202E0
6.976013000E0,2.990357876E0,-2.880224705E0,-1.855506301E0
6.981018000E0,2.815581083E0,-3.198653460E0,-1.616086125E0
6.986023000E0,2.403778553E0,-3.521870613E0,-9.337386489E-1
6.991028000E0,2.059013367E0,-3.938461781E0,-2.466027737E-1
6.996033000E0,1.673547029E0,-4.295197964E0,4.884171486E-1
7.001038000E0,1.300051570E0,-4.647145271E0,1.386242747E0
7.005982000E0,8.714894056E-1,-5.027823448E0,2.334346771E0
7.010986000E0,4.022258818E-1,-5.437232018E0,3.289633036E0
7.015991000E0,3.351882473E-2,-5.863399982E0,4.522646904E0
7.020996000E0,-4.094084799E-1,-6.586448669E0,5.549759388E0
7.026001000E0,-9.121908545E-1,-7.455543995E0,6.751648903E0
7.031006000E0,-1.338358760E0,-8.504204750E0,8.020575523E0
7.036011000E0,-1.836352706E0,-9.742006302E0,9.337387085E0
7.041016000E0,-2.439691544E0,-1.115697956E1,1.069729328E1
7.046021000E0,-3.670311213E0,-1.326148319E1,1.275870132E1
7.051025000E0,-4.936843872E0,-1.497333717E1,1.469321537E1
7.056030000E0,-6.160281181E0,-1.659660530E1,1.630212021E1
7.061035000E0,-7.122750282E0,-1.802355003E1,1.731726074E1
7.065979000E0,-7.750030994E0,-1.924698830E1,1.779131317E1
7.070984000E0,-8.190564156E0,-2.016875458E1,1.766202545E1
7.075806000E0,-8.461109161E0,-2.063801956E1,1.616564941E1
7.080994000E0,-8.195352554E0,-1.984314346E1,1.411860752E1
7.085998000E0,-7.680599213E0,-1.817199135E1,1.196143150E1
7.091003000E0,-7.091625214E0,-1.621353340E1,1.022324085E1
7.096008000E0,-6.440402508E0,-1.422155857E1,9.107542992E0
7.101013000E0,-5.772420406E0,-1.242590714E1,8.597578049E0
7.106018000E0,-4.817133904E0,-1.081221485E1,8.523358345E0
7.111023000E0,-3.770867586E0,-1.006043530E1,8.523358345E0
7.116028000E0,-2.664746523E0,-9.792284966E0,8.537723541E0
7.121033000E0,-1.620874524E0,-1.011789608E1,8.674192429E0
7.126037000E0,-7.398083210E-1,-1.098699188E1,8.750806808E0
7.130981000E0,-1.891419291E-1,-1.222239971E1,8.274360657E0
7.135986000E0,1.197100803E-2,-1.379778481E1,6.651092529E0
7.140991000E0,3.974374831E-1,-1.491587639E1,5.279214859E0
7.145996000E0,1.022324085E0,-1.603875732E1,4.860229492E0
7.151001000E0,1.273715258E0,-1.712333107E1,3.971980572E0
7.156006000E0,7.685387731E-1,-1.810734749E1,3.969586372E0
7.161010000E0,-5.841852427E-1,-1.889743423E1,3.907337189E0
7.166015000E0,-2.166752577E0,-1.954386902E1,2.928108692E0
7.171020000E0,-2.571372509E0,-1.967315483E1,1.800439715E0
7.176025000E0,-2.051830769E0,-1.871786880E1,-9.959878922E-1
7.181030000E0,-6.416460276E-1,-1.595495987E1,-4.565742493E0
7.186035000E0,7.685387731E-1,-1.170285797E1,-7.788338184E0
7.190979000E0,1.256955862E0,-6.907271862E0,-1.139400578E1
7.195984000E0,2.375048161E0,-1.838746905E0,-1.343865395E1
7.200988000E0,4.302380562E0,6.488286853E-1,-1.153286934E1
7.205993000E0,7.177816868E0,1.659181833E0,-7.881711960E0
7.210998000E0,1.029027843E1,1.881842494E0,-3.734954596E0
7.216003000E0,1.237084007E1,1.599326730E0,1.323993564E0
7.221008000E0,1.279940224E1,6.392518282E-1,5.695806026E0
7.226013000E0,1.091995430E1,-1.187524080E0,7.031770229E0
7.231018000E0,7.584830761E0,-3.107673883E0,4.601655483E0
7.236023000E0,3.476380825E0,-5.331887245E0,7.972691655E-1
7.241027000E0,-2.873042040E-2,-7.422025204E0,-2.310404539E0
7.246032000E0,-2.537853718E0,-9.423578262E0,-4.039018154E0
7.250979000E0,-4.639962673E0,-1.173877048E1,-4.793191910E0
7.255984000E0,-6.102819920E0,-1.464054298E1,-6.189011574E0
7.260988000E0,-6.270414352E0,-1.643379974E1,-8.142680168E0
7.265993000E0,-6.184223175E0,-1.792299461E1,-9.296685219E0
7.270998000E0,-6.426037312E0,-1.911051750E1,-8.504204750E0
7.276003000E0,-7.158663273E0,-1.989102745E1,-5.849034786E0
7.281008000E0,-8.104372978E0,-2.013523674E1,-1.802833915E0
7.286013000E0,-8.664615631E0,-1.917755508E1,7.781155705E-1
7.291018000E0,-8.420407295E0,-1.723825264E1,2.250549555E0
7.296022000E0,-7.541735172E0,-1.471236992E1,2.600103140E0
7.301027000E0,-6.447585106E0,-1.248336792E1,2.322375536E0
7.306032000E0,-5.008669853E0,-1.047463226E1,1.848323703E0
7.311037000E0,-3.500322819E0,-8.803479195E0,1.142034173E0
7.315981000E0,-2.463633537E0,-7.125144482E0,9.457096457E-1
7.320986000E0,-1.441309452E0,-6.160281181E0,8.188169599E-1
7.325991000E0,-1.747767180E-1,-5.432443619E0,7.781155705E-1
7.330996000E0,1.264138460E0,-4.762067318E0,6.871358752E-1
7.336000000E0,2.518700123E0,-4.201824188E0,2.729389966E-1
7.341005000E0,3.507505417E0,-3.861847401E0,-3.974374831E-1
7.346010000E0,3.857059002E0,-3.979163170E0,-6.847416759E-1
7.351015000E0,3.835511208E0,-4.402936935E0,-8.068459630E-1
7.356020000E0,3.478775024E0,-5.020640850E0,-7.589619160E-1
7.361025000E0,2.827552319E0,-5.820304394E0,-5.889736414E-1
7.366030000E0,1.884236693E0,-6.500257492E0,-3.926490843E-1
7.371034000E0,5.315127969E-1,-7.120356083E0,-1.819593310E-1
7.376039000E0,-5.889736414E-1,-7.445967197E0,-5.267243832E-2
7.380983000E0,-1.690306425E0,-7.663839817E0,4.788403399E-3
7.385988000E0,-2.664746523E0,-7.876923561E0,8.858546615E-2
7.390993000E0,-3.672705412E0,-8.207323074E0,3.830722719E-2
7.395937000E0,-4.309563160E0,-8.456320763E0,-1.221042871E-1
7.401003000E0,-4.587290287E0,-8.602366447E0,-6.033388376E-1
7.406984000E0,-4.292803764E0,-8.590395927E0,-1.175553083E0
7.411989000E0,-3.830722809E0,-8.453926086E0,-1.632845521E0
7.416994000E0,-3.150769472E0,-8.157045364E0,-1.953668594E0
7.421999000E0,-2.360682964E0,-7.785943985E0,-1.912967205E0
7.427004000E0,-1.821987510E0,-7.460332394E0,-1.924938202E0
7.432008000E0,-1.460463047E0,-7.182605267E0,-1.515529633E0
7.437013000E0,-1.103726983E0,-6.890512466E0,-1.058237195E0
7.442018000E0,-8.044517636E-1,-6.610390663E0,-7.876923680E-1
7.447023000E0,-5.386953950E-1,-6.483498096E0,-5.410895944E-1
7.452028000E0,-2.418143749E-1,-6.528987885E0,-3.591302633E-1
7.457033000E0,-2.873042040E-2,-6.689399719E0,-1.747767180E-1
7.462038000E0,1.891419291E-1,-6.936002254E0,1.268926859E-1
7.466982000E0,2.729389966E-1,-7.283161640E0,6.727706790E-1
7.471986000E0,3.471592367E-1,-7.453149796E0,1.242590666E0
7.476991000E0,2.896983922E-1,-7.513004780E0,1.944091797E0
7.481996000E0,6.224924326E-2,-7.498639584E0,2.537853718E0
7.487001000E0,-2.585737705E-1,-7.503427982E0,2.645592928E0
7.492006000E0,-7.613561153E-1,-7.613561630E0,2.193088770E0
7.497987000E0,-1.386242747E0,-7.855375767E0,1.345541358E0
7.502992000E0,-1.886630893E0,-8.470685959E0,8.140285611E-1
7.507997000E0,-2.219424963E0,-9.255983353E0,6.967126727E-1
7.513002000E0,-2.461239338E0,-1.027591324E1,7.398083210E-1
7.518007000E0,-2.645592928E0,-1.128626728E1,6.703764796E-1
7.523012000E0,-2.674323320E0,-1.209071827E1,4.979939461E-1
7.528017000E0,-2.578555346E0,-1.253604031E1,4.501099288E-1
7.533021000E0,-2.513911724E0,-1.267729759E1,7.350199223E-1
7.538026000E0,-2.487575531E0,-1.237323475E1,1.118092179E0
7.543031000E0,-2.633621931E0,-1.194467258E1,1.407790542E0
7.548036000E0,-2.863465309E0,-1.153765774E1,1.482010841E0
7.552980000E0,-3.086126089E0,-1.125514221E1,1.343147159E0
7.557985000E0,-3.303998232E0,-1.113064384E1,1.283292055E0
7.562990000E0,-3.512293816E0,-1.108036518E1,1.300051570E0
7.567994000E0,-3.660734415E0,-1.102290440E1,1.252167463E0
7.572999000E0,-3.833117008E0,-1.105402946E1,1.223437071E0
7.578981000E0,-4.144362926E0,-1.121444035E1,9.720458984E-1
7.583986000E0,-4.479551315E0,-1.140358257E1,5.123591423E-1
7.588990000E0,-4.829104900E0,-1.171243477E1,1.436521020E-2
7.593995000E0,-5.111620426E0,-1.215057373E1,-3.591302633E-1
7.599000000E0,-5.305551052E0,-1.281855583E1,-5.386953950E-1
7.604005000E0,-5.324704647E0,-1.345780754E1,-4.357447028E-1
7.609010000E0,-5.317522049E0,-1.402523327E1,-1.436520964E-1
7.614015000E0,-5.087678432E0,-1.448970890E1,1.795651317E-1
7.619020000E0,-4.790797710E0,-1.477701283E1,7.374141216E-1
7.624025000E0,-4.177882195E0,-1.496615505E1,2.109291792E0
7.629029000E0,-3.660734415E0,-1.510980701E1,3.493140221E0
7.634034000E0,-3.361459255E0,-1.527979565E1,4.481945515E0
7.639039000E0,-3.488351822E0,-1.544020653E1,4.762067318E0
7.643983000E0,-3.950432777E0,-1.568680954E1,4.402936935E0
7.648988000E0,-4.496310711E0,-1.594298935E1,3.639186621E0
7.653993000E0,-5.027823448E0,-1.612973595E1,2.669534922E0
7.658998000E0,-5.961562157E0,-1.592144108E1,1.671152830E0
7.664002000E0,-6.751648903E0,-1.524867058E1,8.068459630E-1
7.669007000E0,-7.553706169E0,-1.470997524E1,2.681505978E-1
7.674012000E0,-8.283937454E0,-1.435323906E1,5.171475410E-1
7.679017000E0,-8.875306129E0,-1.386721611E1,1.417367458E0
7.684022000E0,-8.710105896E0,-1.339795303E1,1.874659896E0
7.689027000E0,-8.288725853E0,-1.318008041E1,1.125274777E0
7.694032000E0,-7.240066051E0,-1.306037045E1,4.333505034E-1
7.699037000E0,-5.255272865E0,-1.295023727E1,3.256114423E-1
7.703980000E0,-2.779668093E0,-1.296939087E1,1.082179189E0
7.708985000E0,8.619125932E-2,-1.269884586E1,1.793257117E0
7.713990000E0,3.593696833E0,-1.231098557E1,1.800439715E0
7.718995000E0,5.257667065E0,-1.227507210E1,1.213860273E0
7.724000000E0,5.786785603E0,-1.301966858E1,3.998316824E-1
7.729005000E0,5.746084213E0,-1.417606831E1,-4.812345505E-1
7.734010000E0,5.528211594E0,-1.527261257E1,-1.465251446E0
7.739015000E0,5.157110691E0,-1.612494850E1,-2.542642117E0
7.744019000E0,4.252102375E0,-1.671392250E1,-3.332728863E0
7.749024000E0,3.433285236E0,-1.687672806E1,-3.548206806E0
7.754029000E0,2.748543501E0,-1.690545845E1,-3.354276657E0
7.760011000E0,2.128445387E0,-1.706826401E1,-2.375048161E0
7.765015000E0,1.661576033E0,-1.730050087E1,-1.280897856E0
7.770020000E0,1.149216771E0,-1.738429832E1,-4.860229492E-1
7.775025000E0,5.051765442E-1,-1.739626884E1,-3.591302410E-2
7.780030000E0,-2.082955539E-1,-1.738669205E1,4.046200812E-1
7.785035000E0,-7.565677166E-1,-1.726458931E1,1.771709323E-1
7.789979000E0,-1.098938584E0,-1.698207283E1,-3.758896589E-1
7.794984000E0,-1.273715258E0,-1.665167236E1,-9.002198577E-1
7.799988000E0,-1.369483352E0,-1.625184059E1,-1.000776291E0
7.804993000E0,-1.347935557E0,-1.584243298E1,-8.092401624E-1
7.809998000E0,-1.237802267E0,-1.516008472E1,-2.082955539E-1
7.815003000E0,-1.031900883E0,-1.436042213E1,2.298433632E-1
7.820008000E0,-8.595184088E-1,-1.344104862E1,4.213795066E-1
7.825013000E0,-7.924807668E-1,-1.252167511E1,3.208230138E-1
7.830018000E0,-8.595184088E-1,-1.171722317E1,2.226607651E-1
7.835023000E0,-1.168370485E0,-1.106839466E1,-9.097966552E-2
7.840027000E0,-1.860294700E0,-1.044590187E1,-7.254431248E-1
7.845032000E0,-2.157175779E0,-1.001015759E1,-1.307234168E0
7.850037000E0,-2.178723574E0,-9.572018623E0,-1.795651317E0
7.854981000E0,-1.800439715E0,-9.162610054E0,-1.860294700E0
7.859986000E0,-9.888052940E-1,-8.750806808E0,-1.391031146E0
7.864991000E0,-3.040636182E-1,-8.305485725E0,-1.043871999E0
7.869996000E0,5.506663769E-2,-7.357381821E0,-1.163581967E0
7.875000000E0,-8.619125932E-2,-6.382941723E0,-1.637633920E0
7.880005000E0,-3.711012602E-1,-5.477933407E0,-2.104503393E0
7.885010000E0,-4.596867263E-1,-4.572925091E0,-2.288856745E0
7.890015000E0,-3.040636182E-1,-3.636792421E0,-1.903390408E0
7.895020000E0,-2.825157940E-1,-2.841917515E0,-1.656787634E0
7.900025000E0,-2.346317619E-1,-2.063801765E0,-1.752555609E0
7.905030000E0,-7.661445439E-2,-1.666364431E0,-1.924938202E0
7.910035000E0,-1.412578970E-1,-1.477222443E0,-2.193088770E0
7.915039000E0,-9.097966552E-2,-1.273715258E0,-2.106897593E0
7.919983000E0,-3.112462163E-2,-9.552865028E-1,-1.869871497E0
7.924988000E0,-3.351882473E-2,-7.230489254E-1,-1.778891921E0
7.929993000E0,-2.250549644E-1,-5.817909837E-1,-1.905784607E0
7.934998000E0,-3.471592367E-1,-4.141969085E-1,-1.810016513E0
7.940003000E0,-4.309563041E-1,-3.064578176E-1,-1.501164436E0
7.945008000E0,-4.812345505E-1,-2.561795712E-1,-1.139639974E0
7.950012000E0,-3.543418646E-1,-2.035071403E-1,-8.236053586E-1
7.955017000E0,-1.580173075E-1,-2.681505978E-1,-6.919242740E-1
7.960022000E0,-7.182605099E-3,-5.339069963E-1,-8.834604025E-1
7.965027000E0,1.819593310E-1,-8.930372596E-1,-1.223437071E0
7.970032000E0,7.038952708E-1,-1.204283476E0,-1.501164436E0
7.975037000E0,1.338358760E0,-1.436521053E0,-1.934514999E0
7.979981000E0,2.121262789E0,-1.563413739E0,-2.312798738E0
7.984986000E0,2.817975283E0,-1.707065821E0,-2.705447912E0
7.989990000E0,3.332728863E0,-1.915361404E0,-2.916137695E0
7.994995000E0,3.588908434E0,-2.152387381E0,-2.858676910E0
8.000000000E0,3.699041605E0,-2.406172752E0,-2.633621931E0
8.005005000E0,3.404554844E0,-2.671929121E0,-2.308010340E0
8.010010000E0,3.007117271E0,-2.856282711E0,-1.805228114E0
8.015015000E0,2.377442360E0,-3.028665066E0,-9.289502501E-1
8.020020000E0,1.707065821E0,-3.294421434E0,-1.771709323E-1
8.025025000E0,1.125274777E0,-3.517082214E0,5.291185975E-1
8.030029000E0,5.746083856E-1,-3.782838583E0,1.323993564E0
8.035034000E0,-2.873042040E-2,-4.060565948E0,2.178723574E0
8.039856000E0,-8.834604025E-1,-4.515464306E0,3.361459255E0
8.044983000E0,-1.493981838E0,-4.908113480E0,4.448426723E0
8.049988000E0,-2.494758129E0,-5.746084213E0,5.772420406E0
8.054993000E0,-3.236960649E0,-6.816292286E0,7.565677166E0
8.059998000E0,-3.847482204E0,-8.137891769E0,9.806650162E0
8.065002000E0,-4.410119534E0,-9.658209801E0,1.233253288E1
8.070007000E0,-5.087678432E0,-1.132936287E1,1.485123348E1
8.075012000E0,-6.148310184E0,-1.377384281E1,1.749443245E1
8.080017000E0,-6.775590897E0,-1.563892555E1,1.857421684E1
8.085022000E0,-7.170634270E0,-1.735317421E1,1.889743423E1
8.090027000E0,-7.038952827E0,-1.898362541E1,1.840901756E1
8.095032000E0,-6.552929878E0,-2.066196060E1,1.747048950E1
8.100037000E0,-5.920860767E0,-2.233790207E1,1.598369026E1
8.104797000E0,-5.025429249E0,-2.384864235E1,1.323514652E1
8.109985000E0,-4.283226967E0,-2.351584816E1,1.111867237E1
8.114990000E0,-4.074931145E0,-2.146880722E1,9.591172218E0
8.119995000E0,-4.848258495E0,-1.867477417E1,8.683769226E0
8.125000000E0,-5.691017628E0,-1.587116337E1,8.441955566E0
8.130005000E0,-5.901707172E0,-1.340034676E1,8.664615631E0
8.135010000E0,-5.300762653E0,-1.066616821E1,9.066842079E0
8.140014000E0,-4.369418144E0,-8.547300339E0,9.109937668E0
8.145019000E0,-3.406949043E0,-6.411672115E0,8.858546257E0
8.150024000E0,-2.782062292E0,-4.462791920E0,8.712499619E0
8.155029000E0,-2.451662540E0,-2.997540474E0,9.014169693E0
8.160034000E0,-2.068590164E0,-2.557007313E0,8.104372978E0
8.165039000E0,-1.651999116E0,-3.727771997E0,6.402095318E0
8.169983000E0,-1.637633920E0,-5.360617638E0,4.479551315E0
8.174988000E0,-1.611297727E0,-7.247248650E0,1.896207690E0
8.179992000E0,-1.280897856E0,-9.224859238E0,-1.053448796E0
8.184997000E0,-5.363011956E-1,-1.121922874E1,-3.940855980E0
8.190002000E0,6.799532771E-1,-1.315853214E1,-5.975927353E0
8.195007000E0,2.473210335E0,-1.587116337E1,-7.613561630E0
8.200012000E0,3.555389643E0,-1.826296997E1,-8.779537201E0
8.205017000E0,4.024652958E0,-2.091335106E1,-9.780313492E0
8.210022000E0,4.122815132E0,-2.389892197E1,-8.645462036E0
8.215026000E0,3.095702887E0,-2.636494827E1,-5.164293289E0
8.220031000E0,1.362300754E0,-2.719573784E1,2.394201756E-1
8.225036000E0,1.077390760E-1,-2.224931717E1,9.900024414E0
8.229980000E0,-5.746084079E-2,-1.601002693E1,1.108275986E1
8.234985000E0,1.098938584E0,-1.074278259E1,6.782773495E0
8.239990000E0,3.186682463E0,-6.955155849E0,2.492363930E0
8.244995000E0,5.516240597E0,-4.077325344E0,-5.722141862E-1
8.250000000E0,7.560888767E0,-1.608903527E0,-2.310404539E0
8.255007000E0,8.961497307E0,7.613561153E-1,-1.721431017E0
8.260012000E0,8.374917984E0,1.824381709E0,-4.094084799E-1
8.265017000E0,6.466738701E0,1.989581585E0,8.619125932E-2
8.270022000E0,3.734954596E0,1.410184860E0,-1.288080573E0
8.275026000E0,1.323993564E0,-3.830722719E-2,-3.438073635E0
8.280031000E0,-5.315127969E-1,-2.406172752E0,-5.494692802E0
8.285036000E0,-1.058237195E0,-6.054935932E0,-7.055712223E0
8.289980000E0,-1.383848548E0,-8.987833023E0,-9.081207275E0
8.294985000E0,-2.114080191E0,-1.145864964E1,-1.087446404E1
8.299990000E0,-3.478775024E0,-1.366370869E1,-1.156638813E1
8.304995000E0,-5.130774021E0,-1.567723274E1,-1.048899746E1
8.309999000E0,-6.710947514E0,-1.742260551E1,-7.141903877E0
8.315004000E0,-8.774748802E0,-1.915600777E1,-1.592144132E0
8.320009000E0,-1.040520096E1,-1.995567131E1,1.994369984E0
8.325014000E0,-1.106360626E1,-1.972343445E1,3.536235809E0
8.330019000E0,-1.086967564E1,-1.833240318E1,3.040636063E0
8.335024000E0,-1.043393135E1,-1.627338982E1,1.891419291E0
8.340029000E0,-9.129091263E0,-1.373074722E1,1.046266198E0
8.345034000E0,-7.386112213E0,-1.200931549E1,7.350199223E-1
8.350038000E0,-5.312733650E0,-1.051772785E1,7.230489254E-1
8.354982000E0,-3.296815634E0,-9.090784073E0,7.374141216E-1
8.359987000E0,-1.400607944E0,-7.714118004E0,6.775590777E-1
8.364992000E0,5.075707436E-1,-6.418854713E0,5.339069963E-1
8.369997000E0,2.652775526E0,-5.082890034E0,-3.088520169E-1
8.375002000E0,4.070142746E0,-4.347870350E0,-5.817909837E-1
8.380007000E0,5.377377033E0,-3.804386616E0,-2.537853718E-1
8.385012000E0,6.248866558E0,-3.541024208E0,-3.160346150E-1
8.390016000E0,6.464344501E0,-3.629609823E0,1.005564705E-1
8.395021000E0,6.033388138E0,-3.960009575E0,6.296750307E-1
8.400026000E0,4.915296078E0,-4.513070107E0,1.185129881E0
8.405031000E0,3.828328609E0,-4.946420670E0,1.484405041E0
8.410036000E0,2.475604534E0,-5.442020416E0,1.364694953E0
8.414980000E0,7.422025204E-1,-5.983109951E0,1.003170490E0
8.419985000E0,-1.086967587E0,-6.809109688E0,3.663128614E-1
8.424989000E0,-2.825158119E0,-7.824251175E0,-2.753331959E-1
8.429994000E0,-4.434061527E0,-8.887276649E0,-9.576807022E-1
8.434999000E0,-5.001487255E0,-9.394847870E0,-1.343147159E0
8.440004000E0,-5.006275654E0,-9.598354340E0,-1.426944256E0
8.445009000E0,-4.596867085E0,-9.598354340E0,-1.338358760E0
8.450014000E0,-4.106055737E0,-9.425971985E0,-1.379060149E0
8.455019000E0,-3.383007050E0,-9.018958092E0,-1.067813993E0
8.460024000E0,-2.466027737E0,-8.394071579E0,-5.674257874E-1
8.465028000E0,-1.651999116E0,-7.704541206E0,-2.154781520E-1
8.470033000E0,-9.481038451E-1,-7.019799232E0,-6.224924326E-2
8.475038000E0,-5.243301988E-1,-6.488286495E0,-2.130839527E-1
8.479982000E0,-2.633621991E-1,-6.124367714E0,-5.291185975E-1
8.484987000E0,2.394201607E-2,-5.803544998E0,-1.063025594E0
8.489992000E0,2.466027737E-1,-5.564124584E0,-1.647210717E0
8.494997000E0,2.681505978E-1,-5.647922039E0,-1.807622313E0
8.500001000E0,1.795651317E-1,-5.918466568E0,-1.508347034E0
8.505006000E0,8.858546615E-2,-6.318298340E0,-7.589619160E-1
8.510011000E0,2.633621916E-2,-6.710947514E0,2.442085743E-1
8.515016000E0,-5.027823523E-2,-6.988674641E0,1.407790542E0
8.520021000E0,-1.604115069E-1,-7.132327080E0,2.545036316E0
8.525026000E0,-4.740519226E-1,-7.326257229E0,3.004723072E0
8.530031000E0,-9.888052940E-1,-7.697358608E0,3.021482468E0
8.535036000E0,-1.613691926E0,-8.264783859E0,2.516305923E0
8.539979000E0,-2.212242365E0,-9.023746490E0,1.637633920E0
8.544984000E0,-2.770091295E0,-9.988609314E0,7.541735172E-1
8.549989000E0,-3.354276657E0,-1.112346077E1,-4.788403399E-3
8.554994000E0,-3.667917013E0,-1.176750088E1,-3.112462163E-1
8.559999000E0,-3.945644379E0,-1.202128696E1,-4.572925270E-1
8.565004000E0,-4.127603531E0,-1.186566353E1,-4.261679053E-1
8.570009000E0,-4.151545525E0,-1.149695683E1,-3.136404157E-1
8.575013000E0,-3.952826977E0,-1.112346077E1,-1.053448766E-1
8.580018000E0,-3.507505417E0,-1.096544361E1,3.782838583E-1
8.585023000E0,-3.004723072E0,-1.110191345E1,1.027112484E0
8.590028000E0,-2.480392933E0,-1.135569859E1,1.644816518E0
8.595033000E0,-2.197877169E0,-1.167891598E1,1.917755604E0
8.600038000E0,-2.418143749E0,-1.216254425E1,1.740584612E0
8.604982000E0,-3.081337690E0,-1.280419064E1,1.266532660E0
8.609987000E0,-4.280832767E0,-1.364694977E1,5.530605912E-1
8.614991000E0,-5.260061264E0,-1.424310589E1,2.082955539E-1
8.619996000E0,-6.153098583E0,-1.468842697E1,6.703764945E-2
8.625001000E0,-6.833051682E0,-1.497094345E1,-2.394201700E-3
8.630006000E0,-7.086836815E0,-1.501643276E1,2.154781520E-1
8.635011000E0,-6.777985096E0,-1.487756920E1,7.182605267E-1
8.640016000E0,-5.925649166E0,-1.464772606E1,1.680729628E0
8.645021000E0,-5.212177277E0,-1.453040981E1,2.552218914E0
8.650025000E0,-4.711789131E0,-1.453998661E1,3.184288263E0
8.655030000E0,-4.520252705E0,-1.466687965E1,3.579331636E0
8.661012000E0,-4.709394932E0,-1.501643276E1,3.849876404E0
8.666017000E0,-5.011064053E0,-1.540908241E1,3.751713991E0
8.671022000E0,-5.619191170E0,-1.604354477E1,2.987963676E0
8.676026000E0,-6.088454723E0,-1.638352203E1,2.267308950E0
8.681031000E0,-6.469132900E0,-1.611297798E1,1.802833915E0
8.686036000E0,-6.897695065E0,-1.550724411E1,1.704671621E0
8.690980000E0,-6.926425457E0,-1.474110031E1,1.671152830E0
8.695985000E0,-6.895300865E0,-1.409705925E1,2.468421936E0
8.700990000E0,-6.258443356E0,-1.329739666E1,2.801215887E0
8.705995000E0,-5.477933407E0,-1.259350109E1,1.802833915E0
8.710999000E0,-4.944026470E0,-1.252167511E1,1.244984865E0
8.716004000E0,-3.801992416E0,-1.245224285E1,1.256955862E0
8.721009000E0,-2.147598982E0,-1.264617348E1,1.637633920E0
8.726014000E0,-2.130839527E-1,-1.317768574E1,1.960851192E0
8.731019000E0,1.865083098E0,-1.382172680E1,1.204283476E0
8.736024000E0,3.021482468E0,-1.422634697E1,-1.891419291E-1
8.741029000E0,3.509899616E0,-1.477461910E1,-1.505952835E0
8.746034000E0,3.629609823E0,-1.586876869E1,-2.176329374E0
8.751038000E0,3.801992416E0,-1.706587029E1,-2.533065319E0
8.755982000E0,4.039018154E0,-1.791341782E1,-3.131615877E0
8.760987000E0,3.986345768E0,-1.847365952E1,-3.505111217E0
8.765992000E0,3.842693806E0,-1.860534096E1,-3.567360640E0
8.770997000E0,3.569754839E0,-1.840901756E1,-3.301604033E0
8.776002000E0,3.014299870E0,-1.821508598E1,-2.602497339E0
8.781007000E0,2.262520552E0,-1.810255814E1,-1.300051570E0
8.786011000E0,1.458068848E0,-1.801876259E1,5.027823523E-2
8.791016000E0,5.482721925E-1,-1.763329506E1,1.077390790E0
8.796021000E0,-8.379705995E-2,-1.717121506E1,1.235408068E0
8.801026000E0,-5.961562395E-1,-1.666843224E1,9.289502501E-1
8.806031000E0,-9.840168953E-1,-1.606269836E1,9.576806426E-2
8.811036000E0,-1.453280449E0,-1.552639771E1,-7.996633649E-1
8.815980000E0,-1.912967205E0,-1.524388218E1,-1.108515382E0
8.820985000E0,-2.154781580E0,-1.495897198E1,-1.134851575E0
8.825989000E0,-2.276885748E0,-1.467645645E1,-1.161187768E0
8.830994000E0,-2.252943754E0,-1.422874069E1,-1.019929886E0
8.835999000E0,-2.059013367E0,-1.362300777E1,-6.296750307E-1
8.841004000E0,-1.829170108E0,-1.303403378E1,-1.029506698E-1
8.846009000E0,-1.654393315E0,-1.249294472E1,2.250549644E-1
8.851014000E0,-2.015917778E0,-1.192551899E1,-1.197100878E-1
8.856019000E0,-2.466027737E0,-1.152808094E1,-6.177040339E-1
8.861023000E0,-2.506729126E0,-1.112824917E1,-1.209071875E0
8.866028000E0,-2.106897593E0,-1.069729328E1,-1.656787634E0
8.871033000E0,-1.347935557E0,-1.030224991E1,-1.912967205E0
8.876038000E0,-3.112462163E-1,-9.923966408E0,-1.656787634E0
8.880982000E0,9.481038451E-1,-9.193734169E0,-9.792284966E-1
8.885987000E0,1.635239720E0,-8.262390137E0,-9.169792533E-1
8.890992000E0,1.953668594E0,-7.120356083E0,-1.158793569E0
8.895997000E0,2.240972757E0,-5.882553577E0,-1.082179189E0
8.901001000E0,2.501940727E0,-4.627991676E0,-9.959878922E-1
8.905884000E0,2.020706177E0,-3.208230257E0,-1.520318031E0
8.911011000E0,1.601720929E0,-2.315192938E0,-1.922544003E0
8.916016000E0,1.312022567E0,-1.486799240E0,-1.922544003E0
8.921021000E0,1.086967587E0,-8.236053586E-1,-1.692700624E0
8.926026000E0,8.212111592E-1,-3.687070608E-1,-1.529894829E0
8.931031000E0,4.668693244E-1,-1.436520964E-1,-1.699883223E0
8.936035000E0,1.436520964E-1,-3.830722719E-2,-1.745373011E0
8.940979000E0,-1.053448766E-1,1.077390760E-1,-1.529894829E0
8.945984000E0,-6.200982332E-1,9.097966552E-2,-1.570596337E0
8.950989000E0,-1.077390790E0,-2.873042040E-2,-1.683123827E0
8.955994000E0,-1.369483352E0,-5.027823523E-2,-1.556231141E0
8.960999000E0,-1.460463047E0,-8.858546615E-2,-1.225831270E0
8.966004000E0,-1.508347034E0,-1.508347094E-1,-9.217676520E-1
8.971009000E0,-1.259350061E0,-1.843535304E-1,-8.499416113E-1
8.976013000E0,-8.044517636E-1,-1.436520964E-1,-8.858546019E-1
8.981018000E0,-3.543418646E-1,-2.202665508E-1,-1.115697980E0
8.986023000E0,1.628057212E-1,-3.303998411E-1,-1.374271750E0
8.991028000E0,8.714894056E-1,-5.123591423E-1,-1.752555609E0
8.996033000E0,1.740584612E0,-6.512228847E-1,-2.291250944E0
9.001038000E0,2.336740971E0,-9.409212470E-1,-2.707842112E0
9.005982000E0,2.952050686E0,-1.213860273E0,-2.952050686E0
9.010986000E0,3.390189648E0,-1.491587639E0,-3.122039080E0
9.015991000E0,3.629609823E0,-1.766920805E0,-3.241749048E0
9.022034000E0,3.675099611E0,-2.109291792E0,-3.165134668E0
9.027039000E0,3.533841610E0,-2.394201756E0,-2.944868088E0
9.031983000E0,3.184288263E0,-2.662352324E0,-2.379836559E0
9.036987000E0,2.497152328E0,-3.083731890E0,-1.513135433E0
9.041992000E0,1.821987510E0,-3.533841610E0,-7.086837292E-1
9.046997000E0,1.264138460E0,-3.945644379E0,3.399766386E-1
9.052002000E0,5.434837937E-1,-4.443638325E0,1.450886250E0
9.056824000E0,-4.932055473E-1,-5.001487255E0,3.131615877E0
9.062012000E0,-1.446097851E0,-5.631162167E0,4.592078686E0
9.067017000E0,-2.403778553E0,-6.445190907E0,6.222530365E0
9.072021000E0,-3.141192675E0,-7.556100368E0,8.008605003E0
9.077026000E0,-3.775655985E0,-8.884882927E0,9.852140427E0
9.082031000E0,-4.177882195E0,-1.043393135E1,1.171482849E1
9.087036000E0,-4.364629745E0,-1.216254425E1,1.341231823E1
9.091980000E0,-4.711789131E0,-1.449210262E1,1.584961510E1
9.096985000E0,-5.049371243E0,-1.631169701E1,1.789426422E1
9.101990000E0,-5.475539207E0,-1.797087860E1,1.965639687E1
9.106995000E0,-5.815515995E0,-1.948161888E1,2.079124832E1
9.111999000E0,-5.906495571E0,-2.075054550E1,2.069069099E1
9.117004000E0,-5.980715752E0,-2.161485291E1,1.914403725E1
9.122009000E0,-5.940014362E0,-2.166752625E1,1.574427032E1
9.127014000E0,-5.564124584E0,-2.049436569E1,1.306994724E1
9.132019000E0,-5.236119270E0,-1.861013031E1,1.063264942E1
9.137024000E0,-4.809951305E0,-1.640267563E1,8.717288017E0
9.142029000E0,-4.153939724E0,-1.420719242E1,7.575253963E0
9.147033000E0,-3.435679436E0,-1.216015053E1,7.192182064E0
9.152038000E0,-2.425326347E0,-1.022084713E1,7.204153061E0
9.156982000E0,-1.388636947E0,-9.416395187E0,7.187393665E0
9.161987000E0,-1.149216816E-1,-9.361329079E0,7.333439827E0
9.166992000E0,8.762778044E-1,-9.988609314E0,7.778761387E0
9.171997000E0,1.113303781E0,-1.119768143E1,7.987056732E0
9.177002000E0,6.153098345E-1,-1.265575027E1,7.247248650E0
9.182007000E0,1.795651317E-1,-1.466209126E1,6.069301128E0
9.187011000E0,2.561795712E-1,-1.635000420E1,5.760449409E0
9.192016000E0,4.022258818E-1,-1.795890617E1,5.157110691E0
9.197021000E0,1.053448766E-1,-1.940261078E1,4.891354084E0
9.203003000E0,-1.276109457E0,-2.064041328E1,4.556165695E0
9.208007000E0,-3.107673883E0,-2.125572205E1,3.191470861E0
9.213012000E0,-4.517858505E0,-2.161485291E1,1.400607944E0
9.218017000E0,-4.187458992E0,-2.085110283E1,-1.764526606E0
9.223022000E0,-2.537853718E0,-1.843295860E1,-4.707000732E0
9.228027000E0,-4.668693244E-1,-1.451604462E1,-6.627150536E0
9.233032000E0,8.164227605E-1,-9.782708168E0,-8.628703117E0
9.238037000E0,1.865083098E0,-5.111620426E0,-1.068771648E1
9.242980000E0,3.383007050E0,-1.309628367E0,-1.185129833E1
9.247985000E0,6.236895561E0,2.066195965E0,-1.007480049E1
9.252932000E0,8.856152534E0,3.624821424E0,-6.624756336E0
9.257998000E0,1.068053341E1,4.302380562E0,-2.681505919E0
9.263003000E0,1.122641182E1,4.280832767E0,1.309628367E0
9.268007000E0,1.071165848E1,3.421314240E0,4.718971729E0
9.273012000E0,8.880094528E0,1.908178806E0,6.019022942E0
9.278017000E0,4.295197964E0,-6.895300746E-1,3.842693806E0
9.283022000E0,2.585737705E-1,-3.246537447E0,6.368576288E-1
9.288027000E0,-2.691082716E0,-6.062118530E0,-1.534683347E0
9.293032000E0,-4.467580318E0,-9.222464561E0,-3.102885485E0
9.298037000E0,-5.391742229E0,-1.223197651E1,-5.161899090E0
9.302980000E0,-6.050147533E0,-1.483686829E1,-7.216124058E0
9.307985000E0,-6.493074894E0,-1.781286049E1,-9.447520256E0
9.312990000E0,-6.897695065E0,-1.977131844E1,-9.490615845E0
9.317995000E0,-7.644686222E0,-2.103306198E1,-7.228095055E0
9.323000000E0,-8.602366447E0,-2.135867310E1,-3.052607059E0
9.328005000E0,-9.246406555E0,-2.064520073E1,1.252167463E0
9.333010000E0,-9.349357605E0,-1.875856972E1,4.242525578E0
9.338015000E0,-8.425195694E0,-1.526303577E1,4.855441093E0
9.343019000E0,-6.969521046E0,-1.252406883E1,4.671087742E0
9.348024000E0,-5.676652431E0,-1.026633644E1,3.816357613E0
9.353029000E0,-4.639962673E0,-8.619126320E0,2.650381327E0
9.358034000E0,-3.572149038E0,-7.517793179E0,1.630451322E0
9.363039000E0,-1.982398987E0,-6.663063526E0,5.554547906E-1
9.367983000E0,-4.620809257E-1,-6.050147533E0,1.101332754E-1
9.372988000E0,1.048660398E0,-5.444414616E0,3.112462163E-2
9.377992000E0,2.257732153E0,-5.042188644E0,-3.663128614E-1
9.384035000E0,3.045424461E0,-4.958391666E0,-6.631938815E-1
9.388979000E0,3.284844637E0,-5.178658485E0,-7.422025204E-1
9.393984000E0,3.323152065E0,-5.540182590E0,-9.600749016E-1
9.398989000E0,3.038241863E0,-6.100425720E0,-9.504981041E-1
9.403993000E0,2.568978310E0,-6.466738701E0,-8.164227605E-1
9.408998000E0,2.001552582E0,-6.782773495E0,-5.841852427E-1
9.414003000E0,1.323993564E0,-6.902483463E0,-1.532289088E-1
9.419008000E0,7.445967197E-1,-6.926425457E0,2.466027737E-1
9.424013000E0,2.681505978E-1,-6.924031258E0,4.405331016E-1
9.429018000E0,-2.585737705E-1,-6.991068840E0,6.200982332E-1
9.434023000E0,-8.140285611E-1,-7.141903877E0,5.147533417E-1
9.439027000E0,-1.223437071E0,-7.256825447E0,3.303998411E-1
9.444032000E0,-1.776497602E0,-7.522581577E0,-2.226607651E-1
9.449037000E0,-2.346317768E0,-7.781155586E0,-8.212111592E-1
9.453981000E0,-2.547430515E0,-7.867346764E0,-1.053448796E0
9.458986000E0,-2.360682964E0,-7.896077156E0,-1.108515382E0
9.463991000E0,-2.197877169E0,-7.970297337E0,-1.180341482E0
9.468996000E0,-1.867477298E0,-8.039729118E0,-7.541735172E-1
9.474001000E0,-1.561019540E0,-8.214506149E0,-3.615244627E-1
9.479005000E0,-1.185129881E0,-8.298302650E0,-5.027823523E-2
9.484010000E0,-7.469909191E-1,-8.243236542E0,1.053448766E-1
9.489015000E0,-4.884171486E-1,-8.185775757E0,1.412578970E-1
9.494020000E0,-3.567360640E-1,-7.982268333E0,-1.412578970E-1
9.499025000E0,-2.753331959E-1,-7.757213593E0,-6.033388376E-1
9.504030000E0,-2.106897533E-1,-7.505822182E0,-1.120486379E0
9.509035000E0,-1.723825186E-1,-7.302315235E0,-1.601720929E0
9.514039000E0,-1.125274822E-1,-7.127538681E0,-1.867477298E0
9.518983000E0,-1.388636976E-1,-7.127538681E0,-1.709460020E0
9.523988000E0,-1.532289088E-1,-7.232883453E0,-1.070208192E0
9.528993000E0,-1.268926859E-1,-7.338228226E0,-1.149216816E-1
9.533998000E0,-9.576806426E-2,-7.422025204E0,9.720458984E-1
9.539003000E0,-1.484405100E-1,-7.469909191E0,1.932120800E0
9.544008000E0,-3.543418646E-1,-7.584830761E0,2.463633537E0
9.549013000E0,-8.283938169E-1,-7.891288757E0,2.327163935E0
9.554017000E0,-1.297657371E0,-8.315062523E0,1.601720929E0
9.559022000E0,-1.786074519E0,-8.951920509E0,6.200982332E-1
9.564027000E0,-2.205059767E0,-9.753977776E0,-5.027823523E-2
9.569032000E0,-2.518700123E0,-1.057758331E1,-1.029506698E-1
9.574037000E0,-2.822763920E0,-1.115937424E1,1.340752989E-1
9.578981000E0,-3.215412855E0,-1.152808094E1,7.158663273E-1
9.583986000E0,-3.351882458E0,-1.152568722E1,1.015141487E0
9.588990000E0,-3.248931646E0,-1.143470764E1,9.433154464E-1
9.593995000E0,-2.923320293E0,-1.140597725E1,5.841852427E-1
9.599000000E0,-2.382230759E0,-1.147301483E1,2.082955539E-1
9.604005000E0,-1.812410712E0,-1.166215611E1,1.101332754E-1
9.609010000E0,-1.223437071E0,-1.190157700E1,3.495534360E-1
9.614015000E0,-1.055842996E0,-1.208592987E1,5.626373887E-1
9.619020000E0,-1.316810966E0,-1.221761131E1,6.536170840E-1
9.624025000E0,-2.111685991E0,-1.236605167E1,7.757213712E-1
9.629029000E0,-3.287238836E0,-1.249773312E1,7.900865674E-1
9.634034000E0,-4.723760128E0,-1.271799946E1,5.075707436E-1
9.639039000E0,-6.464344501E0,-1.298854446E1,1.244984865E-1
9.643983000E0,-7.513004780E0,-1.321838760E1,-1.412578970E-1
9.648988000E0,-8.039729118E0,-1.348653793E1,-1.340752989E-1
9.653993000E0,-8.075642586E0,-1.378102493E1,1.244984865E-1
9.658998000E0,-7.706935406E0,-1.412578964E1,6.392518282E-1
9.664002000E0,-7.024587631E0,-1.442506504E1,1.584961534E0
9.669007000E0,-6.327875137E0,-1.474588871E1,2.384624958E0
9.674012000E0,-5.705382824E0,-1.500446224E1,2.904166698E0
9.679017000E0,-5.317522049E0,-1.530373764E1,2.817975283E0
9.684022000E0,-5.307945251E0,-1.576103020E1,2.032677174E0
9.689027000E0,-5.717353821E0,-1.632845497E1,6.871358752E-1
9.694032000E0,-6.481103897E0,-1.700840950E1,-5.674257874E-1
9.699037000E0,-7.050923824E0,-1.741302872E1,-4.812345505E-1
9.703980000E0,-7.718906403E0,-1.696291924E1,2.154781520E-1
9.708985000E0,-8.453926086E0,-1.620156288E1,1.031900883E0
9.713990000E0,-9.085995674E0,-1.535401535E1,1.431732655E0
9.718995000E0,-9.447520256E0,-1.450167942E1,1.029506683E0
9.724000000E0,-9.507374763E0,-1.386961079E1,2.082955539E-1
9.729005000E0,-8.786720276E0,-1.331894398E1,-8.834604025E-1
9.734010000E0,-7.551311970E0,-1.315374374E1,-1.546654344E0
9.739015000E0,-5.829881191E0,-1.317768574E1,-8.331822157E-1
9.744019000E0,-3.509899616E0,-1.317289734E1,7.302315235E-1
9.749024000E0,-6.751648784E-1,-1.332373238E1,2.130839586E0
9.754029000E0,2.643198729E0,-1.375708294E1,2.664746523E0
9.759034000E0,4.865017891E0,-1.400847435E1,1.798045516E0
9.764039000E0,6.517016888E0,-1.414015484E1,3.711012602E-1
9.768983000E0,7.041347027E0,-1.479137802E1,-4.501099288E-1
9.773988000E0,7.177816868E0,-1.561258888E1,-1.149216771E0
9.778992000E0,7.161057472E0,-1.628057098E1,-1.898601890E0
9.783997000E0,6.619967937E0,-1.697967911E1,-2.497152328E0
9.789002000E0,5.882553577E0,-1.722388649E1,-2.837129116E0
9.794007000E0,5.190629482E0,-1.722388649E1,-2.940079689E0
9.799012000E0,4.505887508E0,-1.714248466E1,-2.545036316E0
9.804017000E0,3.667917013E0,-1.714248466E1,-1.707065821E0
9.809022000E0,2.810792685E0,-1.725501251E1,-6.248866320E-1
9.814027000E0,1.924938202E0,-1.738429832E1,6.727706790E-1
9.819031000E0,1.252167463E0,-1.736275101E1,9.385270476E-1
9.824036000E0,3.160346150E-1,-1.731007767E1,5.339069963E-1
9.828980000E0,-6.967126727E-1,-1.715684891E1,-4.141969085E-1
9.833985000E0,-1.570596337E0,-1.694615936E1,-8.810662031E-1
9.838990000E0,-2.310404539E0,-1.678335381E1,-7.613561153E-1
9.843995000E0,-2.817975283E0,-1.650323296E1,-3.830722570E-1
9.849000000E0,-2.873042107E0,-1.607227516E1,1.149216816E-1
9.854004000E0,-2.664746523E0,-1.540189934E1,4.453215301E-1
9.859009000E0,-2.418143749E0,-1.458787060E1,6.344634295E-1
9.864014000E0,-2.181117773E0,-1.364455509E1,5.003881454E-1
9.869019000E0,-2.193088770E0,-1.271321106E1,2.849099934E-1
9.874024000E0,-2.169146776E0,-1.168130970E1,-2.154781483E-2
9.879029000E0,-1.922544003E0,-1.091277122E1,-6.631938815E-1
9.884034000E0,-1.484405041E0,-1.018253994E1,-1.563413739E0
9.889039000E0,-7.757213712E-1,-9.497797966E0,-2.231395960E0
9.893982000E0,1.077390760E-1,-8.798690796E0,-2.267308950E0
9.898987000E0,9.337386489E-1,-8.078036308E0,-1.946485996E0
9.903992000E0,1.388636947E0,-6.914454460E0,-1.630451322E0
9.908997000E0,1.479616642E0,-5.839457989E0,-1.343147159E0
9.914002000E0,1.161187768E0,-4.898536682E0,-1.446097851E0
9.919007000E0,6.703764796E-1,-3.993528366E0,-1.704671621E0
9.924012000E0,2.633621991E-1,-3.086126089E0,-1.783680320E0
9.929016000E0,3.208230138E-1,-2.094926596E0,-1.393425345E0
9.934021000E0,5.003881454E-1,-1.015141487E0,-8.858546019E-1
9.939026000E0,5.961562395E-1,-4.596867263E-1,-9.864110947E-1
9.944031000E0,7.086837292E-1,-1.268926859E-1,-1.271321058E0
9.949036000E0,6.607996821E-1,-5.506663769E-2,-1.663970232E0
9.953980000E0,4.118026793E-1,-2.178723514E-1,-1.934514999E0
9.958985000E0,0.000000000E0,-5.482721925E-1,-2.085349798E0
9.963990000E0,-4.285621047E-1,-8.523358107E-1,-1.733402014E0
9.968994000E0,-9.313444495E-1,-1.067813993E0,-1.740584612E0
9.973999000E0,-1.295263171E0,-1.242590666E0,-1.549048543E0
9.979004000E0,-1.477222443E0,-1.355118155E0,-1.259350061E0
9.984009000E0,-1.450886250E0,-1.498770237E0,-9.361328483E-1
9.989014000E0,-1.067813993E0,-1.546654344E0,-5.985504389E-1
9.994019000E0,-6.392518282E-1,-1.546654344E0,-5.434837937E-1
9.999024000E0,-1.532289088E-1,-1.599326730E0,-6.153098345E-1
1.000402800E1,4.165911078E-1,-1.625662923E0,-8.307880163E-1
1.000903300E1,1.072602391E0,-1.594538331E0,-1.051054597E0
1.001403800E1,1.692700624E0,-1.577778935E0,-1.328781962E0
1.001898200E1,2.264914751E0,-1.534683347E0,-1.754949808E0
1.002398700E1,2.944868088E0,-1.537077546E0,-2.037465572E0
1.002899200E1,3.349488258E0,-1.592144132E0,-2.293645144E0
1.003399700E1,3.536235809E0,-1.795651317E0,-2.451662540E0
1.003900200E1,3.581725836E0,-2.082955360E0,-2.425326347E0
1.004400600E1,3.483563423E0,-2.375048161E0,-2.229001760E0
1.004901100E1,3.217807055E0,-2.662352324E0,-1.776497602E0
1.005401600E1,2.738966703E0,-2.940079689E0,-1.347935557E0
1.005902100E1,2.118868589E0,-3.129221678E0,-7.206547260E-1
1.006402600E1,1.333570361E0,-3.351882458E0,8.140286058E-2
1.006903100E1,5.123591423E-1,-3.596091032E0,1.055842996E0
1.007403600E1,-2.825157940E-1,-3.897760391E0,2.252943754E0
1.007897900E1,-1.194706678E0,-4.328716755E0,3.928884983E0
1.008398400E1,-2.281674147E0,-5.070919037E0,5.573701382E0
1.008898900E1,-3.009511471E0,-5.971138954E0,7.522581577E0
1.009399400E1,-3.620033026E0,-7.101202011E0,9.696516991E0
1.009899900E1,-4.065354347E0,-8.492233276E0,1.179862595E1
1.010498000E1,-4.355052948E0,-1.032619190E1,1.427901936E1
1.010998500E1,-4.120420933E0,-1.179144382E1,1.546654320E1
1.011499000E1,-3.536235809E0,-1.370680428E1,1.595735455E1
1.011999500E1,-3.306392431E0,-1.544738960E1,1.651999092E1
1.012500000E1,-3.342305660E0,-1.718557930E1,1.677138329E1
1.013000500E1,-3.445256233E0,-1.859097672E1,1.643140602E1
1.013501000E1,-3.620033026E0,-1.986469078E1,1.539471722E1
1.014001400E1,-4.165910721E0,-2.092292786E1,1.390791798E1
1.014501900E1,-5.046977043E0,-2.135149002E1,1.175553036E1
1.015002400E1,-5.465962410E0,-2.034353256E1,1.008916569E1
1.015502900E1,-5.925649166E0,-1.850717926E1,8.714894295E0
