"Time (s)","Gyroscope x (rad/s)","Gyroscope y (rad/s)","Gyroscope z (rad/s)"
2.602746930E-1,4.276056774E-3,1.240056455E-1,6.108652335E-3
2.652796930E-1,-6.108652451E-4,1.356120855E-1,9.162978269E-3
2.702846930E-1,-6.719517522E-3,1.398881376E-1,1.282817032E-2
2.752886930E-1,-7.330383174E-3,1.472185254E-1,8.552113548E-3
2.802936930E-1,6.108652451E-4,1.429424733E-1,4.886921961E-3
2.852986930E-1,6.719517522E-3,1.386664063E-1,6.108652335E-3
2.902426930E-1,1.282817032E-2,1.301143020E-1,5.497787148E-3
2.952476930E-1,2.443460934E-2,1.252273768E-1,-3.054326167E-3
3.002526930E-1,2.687807009E-2,1.233947799E-1,-8.552113548E-3
3.052576930E-1,3.298672289E-2,1.203404516E-1,-1.099557430E-2
3.102616930E-1,3.481931984E-2,1.233947799E-1,-1.832595654E-2
3.152666930E-1,3.726277873E-2,1.264491081E-1,-1.710422710E-2
3.202716930E-1,3.726277873E-2,1.288925707E-1,-2.199114859E-2
3.252766930E-1,3.726277873E-2,1.343903542E-1,-2.321287990E-2
3.302816930E-1,2.871066704E-2,1.325577646E-1,-2.626720630E-2
3.352866930E-1,1.954768784E-2,1.197295859E-1,-2.565634064E-2
3.402916930E-1,1.954768784E-2,1.050688252E-1,-2.504547499E-2
3.452966930E-1,1.099557430E-2,9.712757170E-2,-2.748893574E-2
3.503006930E-1,1.343903504E-2,8.246681094E-2,-2.871066704E-2
3.552446930E-1,8.552113548E-3,7.391469181E-2,-2.748893574E-2
3.602496930E-1,9.162978269E-3,6.108652428E-2,-2.076941915E-2
3.652546930E-1,1.832595794E-3,4.948008433E-2,-1.954768784E-2
3.702596930E-1,-4.886921961E-3,4.153883830E-2,-1.404990070E-2
3.752646930E-1,2.443460980E-3,3.115412779E-2,-1.221730467E-2
3.802696930E-1,-7.941247895E-3,3.237585723E-2,-1.099557430E-2
3.852746930E-1,-1.404990070E-2,2.809980139E-2,-6.108652335E-3
3.902786930E-1,-1.649336144E-2,2.748893574E-2,4.276056774E-3
3.952836930E-1,-1.710422710E-2,3.726277873E-2,2.443460980E-3
4.002886930E-1,-1.649336144E-2,3.054326214E-2,7.941247895E-3
4.052936930E-1,-1.466076635E-2,3.298672289E-2,1.038470957E-2
4.102986930E-1,-1.038470957E-2,3.237585723E-2,5.497787148E-3
4.152426930E-1,-6.719517522E-3,2.382374369E-2,4.276056774E-3
4.202476930E-1,5.497787148E-3,9.773843922E-3,6.108652451E-4
4.252516930E-1,6.108652335E-3,2.443460980E-3,-6.719517522E-3
4.302566930E-1,7.941247895E-3,1.221730490E-3,-1.282817032E-2
4.352616930E-1,1.221730467E-2,5.497787148E-3,-1.466076635E-2
4.402666930E-1,1.343903504E-2,1.527163107E-2,-1.771509275E-2
4.452716930E-1,9.162978269E-3,2.321287990E-2,-1.771509275E-2
4.502766930E-1,8.552113548E-3,3.726277873E-2,-2.138028294E-2
4.552816930E-1,8.552113548E-3,4.764748737E-2,-1.710422710E-2
4.602866930E-1,9.773843922E-3,4.520402849E-2,-2.076941915E-2
4.652906930E-1,7.330383174E-3,3.909537569E-2,-2.199114859E-2
4.702956930E-1,1.099557430E-2,3.237585723E-2,-2.504547499E-2
4.753006930E-1,1.343903504E-2,2.382374369E-2,-1.954768784E-2
4.802446930E-1,1.282817032E-2,1.710422710E-2,-2.382374369E-2
4.852496930E-1,5.497787148E-3,8.552113548E-3,-2.321287990E-2
4.902546930E-1,1.832595794E-3,6.719517522E-3,-2.138028294E-2
4.952596930E-1,2.443460980E-3,4.276056774E-3,-2.015855350E-2
5.002636930E-1,-1.832595794E-3,9.162978269E-3,-1.588249579E-2
5.052686930E-1,-1.221730490E-3,1.099557430E-2,-1.282817032E-2
5.102736930E-1,-4.886921961E-3,6.719517522E-3,-1.160643995E-2
5.152786930E-1,-1.099557430E-2,9.162978269E-3,-9.162978269E-3
5.202836930E-1,-1.038470957E-2,1.466076635E-2,-7.941247895E-3
5.252886930E-1,-1.099557430E-2,1.710422710E-2,-4.886921961E-3
5.302936930E-1,-1.282817032E-2,2.138028294E-2,-6.108652335E-3
5.352986930E-1,-1.343903504E-2,2.199114859E-2,-3.054326167E-3
5.401196930E-1,-9.162978269E-3,3.054326214E-2,-6.108652335E-3
5.452466930E-1,-1.404990070E-2,3.543018550E-2,-6.719517522E-3
5.502516930E-1,-1.404990070E-2,3.909537569E-2,-6.719517522E-3
5.552566930E-1,-1.038470957E-2,3.420845419E-2,-1.038470957E-2
5.602616930E-1,-1.404990070E-2,2.687807009E-2,-1.649336144E-2
5.652666930E-1,-1.649336144E-2,2.321287990E-2,-1.710422710E-2
5.702716930E-1,-1.527163107E-2,1.832595654E-2,-1.710422710E-2
5.752756930E-1,-1.343903504E-2,1.893682219E-2,-2.871066704E-2
5.802806930E-1,-1.343903504E-2,9.162978269E-3,-2.443460934E-2
5.852856930E-1,-1.404990070E-2,7.941247895E-3,-2.809980139E-2
5.902906930E-1,-7.941247895E-3,3.054326167E-3,-2.993239649E-2
5.952956930E-1,-6.719517522E-3,-3.054326167E-3,-3.054326214E-2
6.003006930E-1,-1.404990070E-2,-5.497787148E-3,-2.932153270E-2
6.052446930E-1,-1.527163107E-2,-1.954768784E-2,-3.115412779E-2
6.102496930E-1,-2.138028294E-2,-2.015855350E-2,-2.687807009E-2
6.152536930E-1,-1.893682219E-2,-2.382374369E-2,-2.382374369E-2
6.202586930E-1,-2.138028294E-2,-2.443460934E-2,-2.443460934E-2
6.252636930E-1,-1.588249579E-2,-2.565634064E-2,-1.893682219E-2
6.302686930E-1,-1.771509275E-2,-2.382374369E-2,-2.138028294E-2
6.352736930E-1,-9.162978269E-3,-2.321287990E-2,-2.076941915E-2
6.402786930E-1,-1.160643995E-2,-2.015855350E-2,-1.771509275E-2
6.452836930E-1,-7.330383174E-3,-1.343903504E-2,-1.466076635E-2
6.502876930E-1,-6.719517522E-3,-6.108652335E-3,-1.588249579E-2
6.552926930E-1,-8.552113548E-3,3.665191587E-3,-1.466076635E-2
6.602976930E-1,-1.588249579E-2,2.260201424E-2,-1.527163107E-2
6.652416930E-1,-1.771509275E-2,2.809980139E-2,-1.404990070E-2
6.702466930E-1,-2.138028294E-2,3.115412779E-2,-1.588249579E-2
6.752516930E-1,-2.382374369E-2,2.443460934E-2,-1.466076635E-2
6.802566930E-1,-2.687807009E-2,2.199114859E-2,-1.893682219E-2
6.852616930E-1,-2.260201424E-2,1.282817032E-2,-2.687807009E-2
6.902656930E-1,-2.260201424E-2,-1.221730490E-3,-3.237585723E-2
6.952706930E-1,-3.054326214E-2,-9.773843922E-3,-3.115412779E-2
7.002756930E-1,-2.748893574E-2,-2.076941915E-2,-3.787364438E-2
7.052806930E-1,-2.443460934E-2,-3.359758854E-2,-4.276056588E-2
7.102856930E-1,-2.626720630E-2,-3.848451003E-2,-3.543018550E-2
7.152906930E-1,-2.993239649E-2,-4.520402849E-2,-4.031710699E-2
7.202956930E-1,-3.298672289E-2,-4.398229718E-2,-3.359758854E-2
7.252996930E-1,-3.298672289E-2,-4.092797264E-2,-3.237585723E-2
7.302436930E-1,-3.543018550E-2,-3.665191308E-2,-3.115412779E-2
7.352486930E-1,-3.604105115E-2,-3.543018550E-2,-3.115412779E-2
7.402536930E-1,-3.481931984E-2,-2.443460934E-2,-2.809980139E-2
7.452586930E-1,-3.298672289E-2,-1.893682219E-2,-2.199114859E-2
7.502636930E-1,-2.321287990E-2,-8.552113548E-3,-2.382374369E-2
7.552686930E-1,-2.565634064E-2,-6.719517522E-3,-2.015855350E-2
7.602736930E-1,-2.076941915E-2,-5.497787148E-3,-2.199114859E-2
7.652776930E-1,-1.588249579E-2,-3.054326167E-3,-2.015855350E-2
7.702826930E-1,-1.404990070E-2,-7.330383174E-3,-2.809980139E-2
7.752876930E-1,-1.710422710E-2,-6.719517522E-3,-2.321287990E-2
7.802926930E-1,-1.771509275E-2,-9.773843922E-3,-2.076941915E-2
7.852976930E-1,-1.221730467E-2,-1.649336144E-2,-2.443460934E-2
7.902416930E-1,-1.527163107E-2,-2.199114859E-2,-2.626720630E-2
7.952466930E-1,-1.588249579E-2,-2.382374369E-2,-2.748893574E-2
8.002506930E-1,-1.954768784E-2,-2.504547499E-2,-2.321287990E-2
8.052556930E-1,-2.443460934E-2,-2.932153270E-2,-2.748893574E-2
8.102606930E-1,-2.809980139E-2,-2.932153270E-2,-2.382374369E-2
8.152656930E-1,-2.260201424E-2,-3.359758854E-2,-2.199114859E-2
8.202706930E-1,-2.382374369E-2,-3.726277873E-2,-2.626720630E-2
8.252756930E-1,-2.015855350E-2,-3.726277873E-2,-2.199114859E-2
8.302806930E-1,-2.199114859E-2,-4.092797264E-2,-2.382374369E-2
8.352856930E-1,-2.626720630E-2,-4.153883830E-2,-2.260201424E-2
8.402896930E-1,-2.260201424E-2,-4.214970022E-2,-1.466076635E-2
8.452946930E-1,-2.138028294E-2,-3.970624134E-2,-1.343903504E-2
8.502996930E-1,-2.260201424E-2,-3.726277873E-2,-1.588249579E-2
8.552436930E-1,-1.649336144E-2,-3.970624134E-2,-1.099557430E-2
8.602486930E-1,-1.466076635E-2,-3.543018550E-2,-1.710422710E-2
8.652536930E-1,-1.282817032E-2,-3.176499158E-2,-1.527163107E-2
8.702586930E-1,-6.719517522E-3,-2.871066704E-2,-1.893682219E-2
8.752626930E-1,-1.649336144E-2,-1.832595654E-2,-1.527163107E-2
8.802676930E-1,-1.954768784E-2,-2.138028294E-2,-1.527163107E-2
8.852726930E-1,-2.199114859E-2,-1.527163107E-2,-1.221730467E-2
8.902776930E-1,-2.565634064E-2,-7.330383174E-3,-1.893682219E-2
8.952826930E-1,-2.321287990E-2,-4.276056774E-3,-1.893682219E-2
9.002876930E-1,-2.199114859E-2,-8.552113548E-3,-1.893682219E-2
9.052926930E-1,-1.588249579E-2,-9.162978269E-3,-1.832595654E-2
9.102976930E-1,-1.832595654E-2,-5.497787148E-3,-2.504547499E-2
9.153016930E-1,-2.015855350E-2,-6.108652335E-3,-2.687807009E-2
9.202456930E-1,-1.649336144E-2,-9.162978269E-3,-2.748893574E-2
9.252506930E-1,-1.404990070E-2,-1.343903504E-2,-3.115412779E-2
9.302556930E-1,-2.138028294E-2,-1.832595654E-2,-3.054326214E-2
9.352606930E-1,-2.504547499E-2,-1.832595654E-2,-3.054326214E-2
9.402656930E-1,-1.710422710E-2,-1.282817032E-2,-2.993239649E-2
9.452706930E-1,-2.321287990E-2,-6.108652451E-4,-2.687807009E-2
9.502746930E-1,-2.321287990E-2,6.719517522E-3,-3.054326214E-2
9.552796930E-1,-1.649336144E-2,1.466076635E-2,-3.115412779E-2
9.602846930E-1,-2.138028294E-2,1.954768784E-2,-3.420845419E-2
9.652896930E-1,-2.260201424E-2,1.832595654E-2,-3.359758854E-2
9.702946930E-1,-2.321287990E-2,1.282817032E-2,-3.726277873E-2
9.752996930E-1,-3.420845419E-2,1.038470957E-2,-3.543018550E-2
9.802436930E-1,-3.176499158E-2,2.443460980E-3,-3.909537569E-2
9.852486930E-1,-3.054326214E-2,-1.343903504E-2,-3.054326214E-2
9.902526930E-1,-3.787364438E-2,-2.809980139E-2,-3.909537569E-2
9.952576930E-1,-4.153883830E-2,-3.298672289E-2,-4.459316283E-2
1.000262693E0,-4.886921868E-2,-3.359758854E-2,-4.520402849E-2
1.005267693E0,-4.703662544E-2,-3.176499158E-2,-4.459316283E-2
1.010272693E0,-5.375614017E-2,-3.481931984E-2,-3.787364438E-2
1.015277693E0,-5.375614017E-2,-3.543018550E-2,-4.153883830E-2
1.020282693E0,-5.497787148E-2,-4.398229718E-2,-4.153883830E-2
1.025287693E0,-6.658431143E-2,-3.970624134E-2,-4.703662544E-2
1.030291693E0,-7.208210230E-2,-4.276056588E-2,-5.009094998E-2
1.035296693E0,-7.086037099E-2,-4.459316283E-2,-5.619960278E-2
1.040301693E0,-7.880161703E-2,-3.543018550E-2,-5.192354694E-2
1.045245693E0,-7.391469181E-2,-3.054326214E-2,-5.986479297E-2
1.050250693E0,-7.024950534E-2,-2.382374369E-2,-6.230825558E-2
1.055255693E0,-6.780604273E-2,-1.466076635E-2,-5.375614017E-2
1.060260693E0,-6.658431143E-2,-7.941247895E-3,-5.497787148E-2
1.065264693E0,-6.047565863E-2,-7.330383174E-3,-4.520402849E-2
1.070269693E0,-5.864306539E-2,-7.330383174E-3,-3.665191308E-2
1.075274693E0,-5.925392732E-2,-9.773843922E-3,-3.359758854E-2
1.080279693E0,-5.864306539E-2,-1.099557430E-2,-2.809980139E-2
1.085284693E0,-5.375614017E-2,-1.038470957E-2,-2.809980139E-2
1.090289693E0,-5.436700583E-2,-6.108652335E-3,-2.626720630E-2
1.095294693E0,-4.642575979E-2,-9.773843922E-3,-3.054326214E-2
1.100299693E0,-4.092797264E-2,-6.719517522E-3,-2.626720630E-2
1.105242693E0,-2.626720630E-2,-9.162978269E-3,-1.893682219E-2
1.110247693E0,-1.343903504E-2,-1.404990070E-2,-1.954768784E-2
1.115252693E0,-3.054326167E-3,-2.260201424E-2,-1.466076635E-2
1.120257693E0,4.886921961E-3,-2.748893574E-2,-1.282817032E-2
1.125262693E0,5.497787148E-3,-2.687807009E-2,-7.941247895E-3
1.130267693E0,9.162978269E-3,-2.871066704E-2,-4.276056774E-3
1.135272693E0,2.932153270E-2,-2.932153270E-2,-4.276056774E-3
1.140276693E0,2.626720630E-2,-2.260201424E-2,-3.665191587E-3
1.145281693E0,2.748893574E-2,-1.099557430E-2,0.000000000E0
1.150286693E0,2.260201424E-2,-3.665191587E-3,1.527163107E-2
1.155291693E0,2.076941915E-2,1.038470957E-2,1.832595654E-2
1.160296693E0,2.199114859E-2,7.330383174E-3,2.565634064E-2
1.165301693E0,2.443460934E-2,-6.108652335E-3,2.138028294E-2
1.170245693E0,2.626720630E-2,-1.893682219E-2,3.054326214E-2
1.175250693E0,3.176499158E-2,-3.604105115E-2,2.932153270E-2
1.180254693E0,1.771509275E-2,-5.925392732E-2,3.909537569E-2
1.185259693E0,9.162978269E-3,-8.185594529E-2,4.153883830E-2
1.190264693E0,-4.886921961E-3,-9.896016866E-2,3.848451003E-2
1.195269693E0,-6.719517522E-3,-1.160643995E-1,2.932153270E-2
1.200274693E0,-4.886921961E-3,-1.246165112E-1,1.710422710E-2
1.205279693E0,-1.038470957E-2,-1.203404516E-1,7.941247895E-3
1.210284693E0,-1.404990070E-2,-1.172861308E-1,-1.221730490E-3
1.215288693E0,-1.771509275E-2,-1.081231460E-1,-4.886921961E-3
1.220293693E0,-1.466076635E-2,-8.979719132E-2,-1.282817032E-2
1.225298693E0,-8.552113548E-3,-5.864306539E-2,-2.321287990E-2
1.230242693E0,3.665191587E-3,-2.504547499E-2,-3.726277873E-2
1.235247693E0,1.160643995E-2,0.000000000E0,-4.886921868E-2
1.240252693E0,2.015855350E-2,1.221730467E-2,-6.047565863E-2
1.245257693E0,2.626720630E-2,1.771509275E-2,-7.696902007E-2
1.250262693E0,2.871066704E-2,2.382374369E-2,-9.957103431E-2
1.255269693E0,3.481931984E-2,1.771509275E-2,-1.227839142E-1
1.260274693E0,3.298672289E-2,1.893682219E-2,-1.429424733E-1
1.265279693E0,3.481931984E-2,1.832595654E-2,-1.661553532E-1
1.270284693E0,4.214970022E-2,2.138028294E-2,-1.814269722E-1
1.275288693E0,5.497787148E-2,2.504547499E-2,-1.832595766E-1
1.280293693E0,8.552113175E-2,3.176499158E-2,-1.979203373E-1
1.285298693E0,1.282816976E-1,3.787364438E-2,-1.991420686E-1
1.290242693E0,1.667662114E-1,3.604105115E-2,-1.991420686E-1
1.295247693E0,2.040289938E-1,2.199114859E-2,-1.850921661E-1
1.300252693E0,2.394591719E-1,1.221730490E-3,-1.783726513E-1
1.305257693E0,2.779437006E-1,-2.076941915E-2,-1.667662114E-1
1.310261693E0,3.145956099E-1,-4.214970022E-2,-1.478293836E-1
1.315266693E0,3.597996235E-1,-6.597344577E-2,-1.288925707E-1
1.320271693E0,4.092797041E-1,-8.674286306E-2,-9.712757170E-2
1.325276693E0,4.612032473E-1,-1.038470939E-1,-6.597344577E-2
1.330281693E0,5.216789246E-1,-1.191187203E-1,-3.298672289E-2
1.335286693E0,6.029239893E-1,-1.276708394E-1,8.552113548E-3
1.340291693E0,7.183775306E-1,-1.417207420E-1,6.169738993E-2
1.345174693E0,8.344419003E-1,-1.563815027E-1,1.044579595E-1
1.350300693E0,9.621127844E-1,-1.844813079E-1,1.545489132E-1
1.355244693E0,1.106887817E0,-2.113593817E-1,2.101376504E-1
1.360249693E0,1.265101910E0,-2.614503205E-1,2.761110961E-1
1.365254693E0,1.415985584E0,-3.188716471E-1,3.433062732E-1
1.370259693E0,1.602299571E0,-3.885102868E-1,4.428772926E-1
1.375264693E0,1.742798567E0,-4.557054639E-1,5.430592299E-1
1.380269693E0,1.875967145E0,-4.618141353E-1,6.499606371E-1
1.385274693E0,1.985922933E0,-4.575380683E-1,7.629706860E-1
1.390278693E0,2.064724445E0,-4.776966274E-1,8.881980777E-1
1.395283693E0,2.123978376E0,-5.119050741E-1,1.016479731E0
1.400288693E0,2.183232307E0,-5.406157374E-1,1.172861218E0
1.405293693E0,2.210721254E0,-5.381723046E-1,1.291369081E0
1.410298693E0,2.219884396E0,-5.442809463E-1,1.399492264E0
1.415242693E0,2.227825642E0,-5.748242140E-1,1.491732955E0
1.420247693E0,2.246762276E0,-6.145304441E-1,1.568701982E0
1.425251693E0,2.276083946E0,-6.542366743E-1,1.638951421E0
1.430256693E0,2.345722437E0,-6.658431292E-1,1.725694299E0
1.435261693E0,2.413528681E0,-6.078109145E-1,1.789835215E0
1.440266693E0,2.467284679E0,-5.491678715E-1,1.835650086E0
1.445271693E0,2.469117403E0,-5.571091175E-1,1.842980504E0
1.450276693E0,2.383596182E0,-7.122688890E-1,1.803274155E0
1.455281693E0,2.214386463E0,-9.718865752E-1,1.738522530E0
1.460286693E0,1.949270964E0,-1.314581990E0,1.665829539E0
1.465290693E0,1.747685432E0,-1.554041147E0,1.652390480E0
1.470295693E0,1.587638736E0,-1.750739813E0,1.683544636E0
1.475300693E0,1.472185254E0,-1.924225569E0,1.773952723E0
1.480244693E0,1.416596532E0,-2.084272146E0,1.849089146E0
1.485249693E0,1.393383622E0,-2.216830015E0,1.861917257E0
1.490254693E0,1.403157473E0,-2.360994101E0,1.773952723E0
1.495259693E0,1.394605398E0,-2.503325701E0,1.603521228E0
1.500263693E0,1.371392488E0,-2.621833563E0,1.409266114E0
1.505268693E0,1.331075311E0,-2.666426897E0,1.222341299E0
1.510273693E0,1.285260439E0,-2.649322510E0,1.056796908E0
1.515278693E0,1.208291411E0,-2.607172966E0,9.175195694E-1
1.520283693E0,1.099557400E0,-2.573575258E0,7.134906054E-1
1.525288693E0,1.045801282E0,-2.507601738E0,5.406157374E-1
1.530293693E0,1.011592865E0,-2.404365540E0,4.098905921E-1
1.535298693E0,9.816604257E-1,-2.271197081E0,3.078760803E-1
1.540241693E0,9.431759119E-1,-2.121535063E0,2.241875380E-1
1.545246693E0,8.808676600E-1,-1.954157948E0,1.569923609E-1
1.550251693E0,8.038986921E-1,-1.766011477E0,9.529497474E-2
1.555256693E0,7.354817390E-1,-1.610851645E0,8.429940045E-2
1.560261693E0,6.743952036E-1,-1.472185254E0,9.162978828E-2
1.565266693E0,6.114761233E-1,-1.340849161E0,1.056796908E-1
1.570271693E0,5.626068711E-1,-1.195463300E0,1.459967941E-1
1.575275693E0,5.070181489E-1,-1.064127207E0,1.930334121E-1
1.580280693E0,4.349360466E-1,-9.340129495E-1,2.620611787E-1
1.585285693E0,3.646865487E-1,-8.637634516E-1,3.243694305E-1
1.590290693E0,2.913827300E-1,-8.246681094E-1,3.671300113E-1
1.595295693E0,1.985312104E-1,-8.155050874E-1,3.976732790E-1
1.600300693E0,1.197295859E-1,-7.470881939E-1,4.422664344E-1
1.605244693E0,5.497787148E-2,-6.346889734E-1,4.984660447E-1
1.610249693E0,-3.909537569E-2,-5.027421117E-1,5.772676468E-1
1.615253693E0,-1.142318025E-1,-4.459316432E-1,6.084218025E-1
1.620258693E0,-1.936442852E-1,-4.276056588E-1,5.998696685E-1
1.625202693E0,-2.565633953E-1,-4.276056588E-1,5.656611919E-1
1.630268693E0,-3.176499307E-1,-4.367686510E-1,5.241223574E-1
1.635273693E0,-3.604104817E-1,-4.612032473E-1,4.392121136E-1
1.640278693E0,-3.964515328E-1,-5.027421117E-1,3.494149148E-1
1.645283693E0,-3.976732790E-1,-5.320636034E-1,2.541199327E-1
1.650287693E0,-3.836233616E-1,-5.583308339E-1,1.557706445E-1
1.655292693E0,-3.488040566E-1,-5.583308339E-1,8.429940045E-2
1.660297693E0,-3.158173263E-1,-5.363397002E-1,-6.108652335E-3
1.665241693E0,-2.828305960E-1,-5.002986193E-1,-9.957103431E-2
1.670246693E0,-2.351831198E-1,-4.734205604E-1,-1.551597714E-1
1.675251693E0,-1.893682331E-1,-4.673119187E-1,-2.199114859E-1
1.680256693E0,-1.417207420E-1,-4.715879560E-1,-2.730567753E-1
1.685261693E0,-8.124507964E-2,-4.819726646E-1,-2.938261926E-1
1.691242693E0,-1.832595654E-2,-4.728097022E-1,-3.115412891E-1
1.696247693E0,3.543018550E-2,-4.453207552E-1,-2.974913716E-1
1.701252693E0,9.285151958E-2,-3.933972120E-1,-2.632829249E-1
1.706257693E0,1.386664063E-1,-3.286454976E-1,-2.388483137E-1
1.711261693E0,1.747074574E-1,-2.651155293E-1,-2.162462920E-1
1.716266693E0,2.064724565E-1,-2.095267773E-1,-1.924225539E-1
1.721271693E0,2.211332172E-1,-1.649336219E-1,-1.753183305E-1
1.726276693E0,2.302961946E-1,-1.637118906E-1,-1.569923609E-1
1.731281693E0,2.168571651E-1,-2.076941878E-1,-1.313360333E-1
1.736286693E0,1.954768747E-1,-3.262020350E-1,-1.142318025E-1
1.741291693E0,1.551597714E-1,-4.734205604E-1,-1.014036313E-1
1.746296693E0,1.020144969E-1,-6.401867867E-1,-8.979719132E-2
1.751300693E0,4.520402849E-2,-8.142833710E-1,-9.224065393E-2
1.756244693E0,-2.015855350E-2,-9.663888216E-1,-8.002334833E-2
1.761249693E0,-7.452555746E-2,-1.091616154E0,-5.558873713E-2
1.766254693E0,-1.136209369E-1,-1.169196129E0,-3.970624134E-2
1.771259693E0,-1.362229437E-1,-1.189354658E0,5.497787148E-3
1.776264693E0,-1.356120855E-1,-1.165530920E0,6.475171447E-2
1.781269693E0,-1.246165112E-1,-1.112996459E0,1.270599663E-1
1.786273693E0,-1.062905490E-1,-1.058018565E0,1.966986060E-1
1.791278693E0,-7.880161703E-2,-1.001819015E0,3.109304011E-1
1.796283693E0,-5.192354694E-2,-9.358455539E-1,4.184426963E-1
1.801288693E0,-4.031710699E-2,-8.778133392E-1,4.972442985E-1
1.806293693E0,-5.253441259E-2,-8.265006542E-1,5.638286471E-1
1.811298693E0,-4.459316283E-2,-7.953465581E-1,6.145304441E-1
1.816242693E0,-4.337143153E-2,-7.855727077E-1,6.505714655E-1
1.821247693E0,-1.404990070E-2,-8.045095205E-1,6.847799420E-1
1.826251693E0,6.108652335E-3,-8.503243923E-1,7.055493593E-1
1.831256693E0,1.038470957E-2,-9.150761366E-1,6.982190013E-1
1.836261693E0,1.221730467E-2,-9.627236128E-1,6.945537925E-1
1.841266693E0,-2.504547499E-2,-9.706648588E-1,6.786713004E-1
1.846271693E0,-9.285151958E-2,-9.248499870E-1,6.511823535E-1
1.851276693E0,-2.113593817E-1,-7.513642311E-1,5.858197808E-1
1.856281693E0,-3.121521473E-1,-5.155702829E-1,5.253441334E-1
1.861285693E0,-4.202753007E-1,-2.254092693E-1,4.459316432E-1
1.866290693E0,-5.210680366E-1,8.063421398E-2,3.500257730E-1
1.871295693E0,-5.968153477E-1,3.640756905E-1,2.724458873E-1
1.876300693E0,-6.377432942E-1,6.041457057E-1,2.015855312E-1
1.881244693E0,-6.530149579E-1,8.295549750E-1,1.154535338E-1
1.886249693E0,-6.585127115E-1,9.388998747E-1,4.092797264E-2
1.891254693E0,-6.499606371E-1,9.993755221E-1,-2.993239649E-2
1.896259693E0,-5.974262357E-1,1.014647126E0,-8.246681094E-2
1.901263693E0,-4.941899776E-1,1.016479731E0,-1.062905490E-1
1.906268693E0,-3.194825351E-1,1.017090678E0,-8.979719132E-2
1.911273693E0,-1.832595654E-2,1.045190454E0,-3.604105115E-2
1.916278693E0,2.186897546E-1,1.103222609E0,5.497787148E-3
1.921283693E0,3.439171314E-1,1.213178396E0,3.420845419E-2
1.926288693E0,3.402519524E-1,1.403768301E0,5.253441259E-2
1.931293693E0,2.284636050E-1,1.631010175E0,4.764748737E-2
1.936297693E0,-2.748893574E-2,1.838704348E0,0.000000000E0
1.941241693E0,-2.559525371E-1,2.084272146E0,-8.002334833E-2
1.946246693E0,-4.825835526E-1,2.219273329E0,-1.942551434E-1
1.951251693E0,-7.079927921E-1,2.306627274E0,-3.439171314E-1
1.956256693E0,-9.364564419E-1,2.304183722E0,-4.691445231E-1
1.961261693E0,-1.161865711E0,2.215608358E0,-5.888741016E-1
1.966266693E0,-1.371392488E0,2.051285505E0,-6.743952036E-1
1.971271693E0,-1.584584475E0,1.774563551E0,-7.318165898E-1
1.976275693E0,-1.719585657E0,1.546710849E0,-7.391469479E-1
1.981280693E0,-1.809993744E0,1.334740520E0,-7.202101350E-1
1.986285693E0,-1.844202161E0,1.205237150E0,-6.805039048E-1
1.991290693E0,-1.854586840E0,1.170417786E0,-6.218608022E-1
1.996295693E0,-1.827708840E0,1.236391306E0,-5.400048494E-1
2.001300693E0,-1.800830722E0,1.430035591E0,-4.703662395E-1
2.006244693E0,-1.808161139E0,1.572978020E0,-3.891211748E-1
2.011248693E0,-1.814269781E0,1.685377240E0,-3.152064681E-1
2.016253693E0,-1.827097893E0,1.753794074E0,-2.565633953E-1
2.021258693E0,-1.841147900E0,1.766622305E0,-2.131919712E-1
2.026263693E0,-1.845423937E0,1.753183246E0,-1.588249654E-1
2.031268693E0,-1.850921750E0,1.715309620E0,-1.001819000E-1
2.036273693E0,-1.876578093E0,1.658499122E0,-4.092797264E-2
2.041278693E0,-1.908953905E0,1.541823864E0,-1.832595794E-3
2.046283693E0,-1.948049307E0,1.381777167E0,-1.771509275E-2
2.051287693E0,-1.968818665E0,1.252884626E0,-6.841690838E-2
2.056292693E0,-1.932166815E0,1.204015374E0,-1.734857261E-1
2.061297693E0,-1.867415071E0,1.270599723E0,-2.871066630E-1
2.066241693E0,-1.792889476E0,1.373835921E0,-4.135557711E-1
2.071246693E0,-1.718974829E0,1.513113260E0,-5.571091175E-1
2.076251693E0,-1.643838406E0,1.626734138E0,-6.927211881E-1
2.081256693E0,-1.569312811E0,1.659109950E0,-7.916813493E-1
2.086260693E0,-1.481959105E0,1.659109950E0,-8.649851680E-1
2.091265693E0,-1.429424644E0,1.652390480E0,-9.004153609E-1
2.096270693E0,-1.394605398E0,1.635286212E0,-9.138544202E-1
2.101275693E0,-1.378722906E0,1.546710849E0,-8.869763613E-1
2.106280693E0,-1.339016676E0,1.539991260E0,-8.558222055E-1
2.111285693E0,-1.300532103E0,1.563814998E0,-8.295549750E-1
2.116290693E0,-1.261436701E0,1.572367191E0,-7.965682745E-1
2.121295693E0,-1.229060888E0,1.558317184E0,-7.782423496E-1
2.126299693E0,-1.206458807E0,1.491122007E0,-7.623597980E-1
2.131243693E0,-1.198517561E0,1.420872569E0,-7.318165898E-1
2.136248693E0,-1.193019867E0,1.362229466E0,-7.067710757E-1
2.141253693E0,-1.226006508E0,1.234558702E0,-6.499606371E-1
2.147295693E0,-1.244943380E0,1.070235968E0,-5.797111392E-1
2.152300693E0,-1.241889000E0,9.847147465E-1,-5.485569835E-1
2.157244693E0,-1.236391306E0,9.657779336E-1,-5.314527750E-1
2.162249693E0,-1.252884626E0,9.291260242E-1,-5.137376785E-1
2.167254693E0,-1.262047648E0,9.175195694E-1,-5.137376785E-1
2.172259693E0,-1.258993268E0,9.553932548E-1,-5.039638281E-1
2.177264693E0,-1.269377947E0,9.547823668E-1,-4.838052690E-1
2.182269693E0,-1.293201685E0,9.346238375E-1,-4.593706727E-1
2.187273693E0,-1.310305953E0,9.450085163E-1,-4.324925840E-1
2.192278693E0,-1.310916781E0,9.932668805E-1,-4.129449129E-1
2.197283693E0,-1.311527729E0,1.064738154E0,-3.982841372E-1
2.202288693E0,-1.288314819E0,1.161254883E0,-4.202753007E-1
2.207293693E0,-1.239445567E0,1.257771492E0,-4.361577928E-1
2.212298693E0,-1.211956620E0,1.204015374E0,-4.440990388E-1
2.217242693E0,-1.194852471E0,1.143539786E0,-4.685336351E-1
2.222246693E0,-1.151481032E0,1.124602914E0,-4.886921942E-1
2.227251693E0,-1.097113967E0,1.130100727E0,-5.204572082E-1
2.232256693E0,-1.047633886E0,1.126435518E0,-5.461135507E-1
2.237261693E0,-1.013425469E0,1.105055213E0,-5.638286471E-1
2.242266693E0,-9.755517840E-1,1.047023058E0,-5.778785348E-1
2.247271693E0,-9.395107627E-1,9.944885969E-1,-5.968153477E-1
2.252217693E0,-8.985827565E-1,9.407324791E-1,-6.133087277E-1
2.257283693E0,-8.631525636E-1,8.839219809E-1,-6.298020482E-1
2.262288693E0,-8.368853927E-1,8.283332586E-1,-6.517932415E-1
2.267293693E0,-8.240572214E-1,7.806857824E-1,-6.627888083E-1
2.272298693E0,-8.478809595E-1,7.263187766E-1,-6.823364496E-1
2.277242693E0,-8.881980777E-1,7.116580009E-1,-6.976081133E-1
2.282246693E0,-9.547823668E-1,7.116580009E-1,-7.177666426E-1
2.287251693E0,-1.009760261E0,7.452555895E-1,-7.318165898E-1
2.292256693E0,-1.049466491E0,7.916813493E-1,-7.385360599E-1
2.297261693E0,-1.080009699E0,8.436049223E-1,-7.513642311E-1
2.302266693E0,-1.094670534E0,8.869763613E-1,-7.641924024E-1
2.307271693E0,-1.086729288E0,9.156870246E-1,-7.593054771E-1
2.312276693E0,-1.048244715E0,9.327912331E-1,-7.483099103E-1
2.317281693E0,-9.737191796E-1,9.358455539E-1,-7.153232098E-1
2.322285693E0,-8.704829812E-1,9.431759119E-1,-6.664539576E-1
2.327290693E0,-7.367035151E-1,9.431759119E-1,-5.852088928E-1
2.332295693E0,-6.420193911E-1,9.095783234E-1,-5.057964325E-1
2.337300693E0,-5.644394755E-1,8.619308472E-1,-4.269948006E-1
2.342244693E0,-5.070181489E-1,8.173376918E-1,-3.597996235E-1
2.347249693E0,-4.581489265E-1,8.051204085E-1,-3.023782969E-1
2.352254693E0,-4.019493461E-1,8.252789378E-1,-2.528982162E-1
2.357258693E0,-3.408628106E-1,8.839219809E-1,-2.131919712E-1
2.363301693E0,-2.828305960E-1,9.810495973E-1,-1.765400618E-1
2.368245693E0,-2.345722616E-1,1.014647126E0,-1.582140923E-1
2.373250693E0,-1.722639948E-1,1.031140566E0,-1.521054506E-1
2.378254693E0,-1.148426682E-1,1.035416603E0,-1.404990107E-1
2.383259693E0,-5.070181563E-2,1.043357849E0,-1.386664063E-1
2.388264693E0,1.282817032E-2,1.072068453E0,-1.130100712E-1
2.393269693E0,9.407325089E-2,1.114218235E0,-5.742133409E-2
2.398274693E0,1.857030392E-1,1.136209369E0,-1.099557430E-2
2.403279693E0,3.005456924E-1,1.164309144E0,4.948008433E-2
2.408284693E0,4.416555762E-1,1.180191636E0,1.075122803E-1
2.413289693E0,5.681046844E-1,1.168585181E0,1.795943826E-1
2.418293693E0,6.719517708E-1,1.086118460E0,2.706133127E-1
2.423298693E0,7.617489696E-1,8.936958313E-1,4.141666293E-1
2.428242693E0,8.020660877E-1,7.000515461E-1,5.235115290E-1
2.433247693E0,8.356636763E-1,4.850270152E-1,6.139195561E-1
2.438252693E0,8.747590184E-1,2.748893499E-1,6.982190013E-1
2.443257693E0,9.731083512E-1,1.069014147E-1,7.672467232E-1
2.449299693E0,1.218065262E0,-1.026253626E-1,8.674286604E-1
2.454243693E0,1.478293896E0,-3.353650272E-1,9.602801800E-1
2.459248693E0,1.802663326E0,-7.043276429E-1,1.084896684E0
2.464253693E0,2.028072596E0,-9.511171579E-1,1.191187263E0
2.469258693E0,2.254703522E0,-1.040303469E0,1.285871387E0
2.474263693E0,2.449569702E0,-9.334021211E-1,1.378722906E0
2.479267693E0,2.583960056E0,-7.079927921E-1,1.431868076E0
2.484272693E0,2.711630821E0,-4.276056588E-1,1.519832730E0
2.489277693E0,2.943759680E0,-1.130100712E-1,1.626734138E0
2.494282693E0,3.133738756E0,4.153883830E-2,1.659109950E0
2.499287693E0,3.284622431E0,5.681046844E-2,1.646281838E0
2.504292693E0,3.322496176E0,-4.703662544E-2,1.604743004E0
2.509297693E0,3.227200985E0,-2.608394623E-1,1.555262923E0
2.514301693E0,3.051271915E0,-5.057964325E-1,1.525330544E0
2.519245693E0,2.858849287E0,-6.438519955E-1,1.496619821E0
2.524250693E0,2.771495581E0,-5.442809463E-1,1.485624313E0
2.529255693E0,2.751337051E0,-2.516764700E-1,1.468520045E0
2.534260693E0,2.742784977E0,1.117883399E-1,1.431868076E0
2.539265693E0,2.715906858E0,4.111123085E-1,1.391551018E0
2.544270693E0,2.684752703E0,5.791002512E-1,1.352455616E0
2.549275693E0,2.641381264E0,6.035348773E-1,1.294423461E0
2.554279693E0,2.629774809E0,4.459316432E-1,1.258382440E0
2.559284693E0,2.644435644E0,1.527163088E-1,1.233336926E0
2.564289693E0,2.683531046E0,-2.186897546E-1,1.237612963E0
2.569294693E0,2.718350410E0,-5.986479521E-1,1.246165156E0
2.574299693E0,2.722015619E0,-9.114109278E-1,1.274264932E0
2.579243693E0,2.641992092E0,-1.254717231E0,1.292590857E0
2.584248693E0,2.531425476E0,-1.465465665E0,1.304808140E0
2.589252693E0,2.430022001E0,-1.561982393E0,1.297477722E0
2.594257693E0,2.343279123E0,-1.568701982E0,1.266934514E0
2.599262693E0,2.243708134E0,-1.527773976E0,1.197295904E0
2.604267693E0,2.171625853E0,-1.428813815E0,1.141096234E0
2.609272693E0,2.123367548E0,-1.295034289E0,1.105055213E0
2.614277693E0,2.097100496E0,-1.222952247E0,1.102000952E0
2.619282693E0,2.075720072E0,-1.176526427E0,1.108720422E0
2.624287693E0,2.037235498E0,-1.207069755E0,1.122159481E0
2.629291693E0,1.991420746E0,-1.307251573E0,1.135598540E0
2.634296693E0,1.937053680E0,-1.426981211E0,1.143539786E0
2.639301693E0,1.885740995E0,-1.485624313E0,1.144150615E0
2.644245693E0,1.864360690E0,-1.394605398E0,1.124602914E0
2.649250693E0,1.842980504E0,-1.285260439E0,1.083674908E0
2.654255693E0,1.809993744E0,-1.313360333E0,1.043968678E0
2.659260693E0,1.761735320E0,-1.465465665E0,1.004873276E0
2.664264693E0,1.718363881E0,-1.668883801E0,9.456194043E-1
2.669269693E0,1.689653277E0,-1.886351824E0,8.881980777E-1
2.674274693E0,1.671938181E0,-2.004248857E0,8.197811842E-1
2.679279693E0,1.663996935E0,-2.081828833E0,7.397578359E-1
2.684284693E0,1.626734138E0,-2.121535063E0,6.597344875E-1
2.689289693E0,1.572978020E0,-2.136806726E0,5.943718553E-1
2.694294693E0,1.506393671E0,-2.091602564E0,5.363397002E-1
2.699299693E0,1.460578799E0,-2.085494041E0,5.027421117E-1
2.704242693E0,1.421483397E0,-2.107485056E0,4.734205604E-1
2.709247693E0,1.398881435E0,-2.131308794E0,4.416555762E-1
2.714252693E0,1.350623012E0,-2.172847748E0,4.172209501E-1
2.719257693E0,1.307251573E0,-2.238210201E0,3.732386529E-1
2.724262693E0,1.225395679E0,-2.265699148E0,3.072652221E-1
2.729267693E0,1.134376764E0,-2.251038313E0,2.736676335E-1
2.734272693E0,1.010982037E0,-2.272418737E0,2.767219543E-1
2.739277693E0,8.790351152E-1,-2.320066214E0,2.834414840E-1
2.744281693E0,7.360926270E-1,-2.325563908E0,2.779437006E-1
2.749286693E0,5.980370641E-1,-2.258368731E0,2.681698501E-1
2.754291693E0,4.147774875E-1,-2.103209019E0,2.315179259E-1
2.759296693E0,2.443460971E-1,-1.937053680E0,1.905899495E-1
2.764301693E0,6.230825558E-2,-1.768454909E0,1.343903542E-1
2.769245693E0,-1.356120855E-1,-1.598634362E0,6.719517708E-2
2.774250693E0,-3.414736688E-1,-1.431868076E0,7.330383174E-3
2.779254693E0,-5.540547967E-1,-1.263880134E0,-4.764748737E-2
2.784259693E0,-8.167268038E-1,-1.086118460E0,-1.117883399E-1
2.789264693E0,-1.013425469E0,-8.607091308E-1,-1.692096740E-1
2.794269693E0,-1.189965487E0,-6.963863969E-1,-2.266310006E-1
2.799274693E0,-1.352455616E0,-5.601634383E-1,-2.474004179E-1
2.804279693E0,-1.489289522E0,-4.453207552E-1,-2.455678284E-1
2.809284693E0,-1.620014668E0,-3.176499307E-1,-2.186897546E-1
2.814289693E0,-1.737911582E0,-1.459967941E-1,-1.618792862E-1
2.819293693E0,-1.828319669E0,-1.832595794E-3,-1.178969890E-1
2.824298693E0,-1.888795376E0,1.062905490E-1,-6.108652428E-2
2.829242693E0,-1.949881911E0,2.290744632E-1,-8.552113548E-3
2.834247693E0,-1.992642403E0,3.543018401E-1,2.687807009E-2
2.839252693E0,-2.012800932E0,4.550946057E-1,5.131268129E-2
2.844257693E0,-1.987144589E0,5.210680366E-1,7.819075137E-2
2.849262693E0,-1.918727756E0,5.381723046E-1,7.330382615E-2
2.854266693E0,-1.784337401E0,5.192354321E-1,4.276056588E-2
2.859271693E0,-1.561982393E0,4.740314186E-1,-3.054326167E-3
2.864276693E0,-1.243110776E0,3.988949955E-1,-6.719517522E-3
2.869281693E0,-8.234463334E-1,3.200933933E-1,2.260201424E-2
2.874286693E0,-2.687807083E-1,1.997529417E-1,9.651670605E-2
2.879291693E0,1.178969890E-1,5.986479297E-2,1.692096740E-1
2.884296693E0,4.263839424E-1,-1.282816976E-1,2.522873580E-1
2.889301693E0,6.554583907E-1,-3.677408695E-1,3.488040566E-1
2.894244693E0,8.075638413E-1,-6.285803318E-1,4.465425014E-1
2.899249693E0,8.918632865E-1,-8.820894361E-1,5.277875662E-1
2.904254693E0,9.169087410E-1,-1.197295904E0,5.815436840E-1
2.909259693E0,8.845328689E-1,-1.477072120E0,5.772676468E-1
2.914264693E0,8.442157507E-1,-1.760513663E0,5.821545720E-1
2.919269693E0,8.106181622E-1,-1.985312104E0,5.992587805E-1
2.924274693E0,8.106181622E-1,-2.128254414E0,6.340781450E-1
2.929278693E0,8.081747293E-1,-2.184454203E0,6.756169796E-1
2.934283693E0,7.941248417E-1,-2.171625853E0,7.159340382E-1
2.939288693E0,7.519751191E-1,-2.079996109E0,7.293730974E-1
2.944293693E0,6.609562039E-1,-1.880243182E0,6.878342628E-1
2.949237693E0,5.070181489E-1,-1.579697490E0,5.748242140E-1
2.954242693E0,3.066543639E-1,-1.208902359E0,4.282165468E-1
2.959247693E0,6.352998316E-2,-8.069530129E-1,2.926044464E-1
2.964252693E0,-2.119702399E-1,-3.011565804E-1,1.814269722E-1
2.969256693E0,-3.549126983E-1,1.392772794E-1,1.276708394E-1
2.974261693E0,-4.019493461E-1,5.662720799E-1,8.979719132E-2
2.979266693E0,-4.587597847E-1,8.674286604E-1,1.191187203E-1
2.984271693E0,-5.002986193E-1,1.048244715E0,2.217440903E-1
2.989276693E0,-4.752531648E-1,1.216232657E0,3.842342496E-1
2.994281693E0,-3.316998184E-1,1.476461291E0,5.045747161E-1
2.999286693E0,-1.337794960E-1,1.561982393E0,6.194173694E-1
3.004290693E0,6.108652428E-2,1.408044338E0,6.896668673E-1
3.009295693E0,2.217440903E-1,1.052520871E0,6.841690540E-1
3.014300693E0,3.365867436E-1,7.336491346E-1,5.919284225E-1
3.019244693E0,3.323107064E-1,6.017022729E-1,4.361577928E-1
3.024249693E0,1.502728462E-1,5.852088928E-1,3.604104817E-1
3.029254693E0,-1.276708394E-1,6.945537925E-1,3.152064681E-1
3.034259693E0,-4.563163519E-1,8.698720932E-1,2.687807083E-1
3.039264693E0,-7.336491346E-1,9.865473509E-1,1.728748679E-1
3.044268693E0,-9.340129495E-1,9.572258592E-1,1.832595794E-3
3.049273693E0,-1.079398870E0,7.495316267E-1,-2.577851415E-1
3.054278693E0,-1.109331250E0,4.056145251E-1,-4.673119187E-1
3.059283693E0,-1.073290229E0,3.164281845E-1,-6.352998614E-1
3.064288693E0,-1.081842303E0,5.473352671E-1,-7.275404930E-1
3.069293693E0,-1.160643935E0,1.106276989E0,-7.544185519E-1
3.074298693E0,-1.345125318E0,1.821600199E0,-7.531968355E-1
3.079241693E0,-1.597412586E0,2.539366722E0,-8.069530129E-1
3.084246693E0,-1.902234316E0,3.298061371E0,-8.680394888E-1
3.089251693E0,-2.090380907E0,3.711006403E0,-9.169087410E-1
3.094256693E0,-2.232101679E0,3.878383398E0,-9.431759119E-1
3.099261693E0,-2.317622662E0,3.775758028E0,-9.474520087E-1
3.104266693E0,-2.340835571E0,3.403741121E0,-9.285151958E-1
3.109271693E0,-2.295631647E0,2.675589800E0,-8.399397135E-1
3.114276693E0,-2.247373343E0,1.979203343E0,-7.098253965E-1
3.119280693E0,-2.210110426E0,1.346346974E0,-5.229006410E-1
3.124285693E0,-2.193617105E0,9.010262489E-1,-3.121521473E-1
3.129290693E0,-2.175291061E0,7.006624341E-1,-1.325577646E-1
3.134295693E0,-2.153300047E0,7.116580009E-1,-1.954768784E-2
3.139300693E0,-2.116647959E0,8.961393237E-1,3.115412779E-2
3.144244693E0,-2.101376534E0,1.128878951E0,2.443460934E-2
3.149249693E0,-2.092824221E0,1.408655286E0,-1.588249579E-2
3.154253693E0,-2.103819847E0,1.697594523E0,-1.087340117E-1
3.159258693E0,-2.123367548E0,2.011579275E0,-2.565633953E-1
3.164263693E0,-2.147191286E0,2.318233490E0,-4.471533597E-1
3.169268693E0,-2.172847748E0,2.605951071E0,-7.092145681E-1
3.174273693E0,-2.160630465E0,2.716517687E0,-9.028588533E-1
3.179278693E0,-2.125200272E0,2.726902485E0,-1.065348983E0
3.184283693E0,-2.071444035E0,2.579072952E0,-1.167974353E0
3.189288693E0,-1.970651269E0,2.363437653E0,-1.212567568E0
3.194292693E0,-1.863139033E0,2.055561543E0,-1.187522054E0
3.199297693E0,-1.741576791E0,1.647503614E0,-1.100779176E0
3.204241693E0,-1.630399346E0,1.468520045E0,-1.054964304E0
3.209246693E0,-1.503950238E0,1.406211853E0,-1.043357849E0
3.214251693E0,-1.379333735E0,1.428813815E0,-1.061683774E0
3.219256693E0,-1.304197311E0,1.415374756E0,-1.072679400E0
3.224261693E0,-1.278540969E0,1.352455616E0,-1.034194827E0
3.229265693E0,-1.279151797E0,1.301753879E0,-9.553932548E-1
3.234270693E0,-1.271210551E0,1.367116451E0,-8.845328689E-1
3.239275693E0,-1.291980028E0,1.414763927E0,-8.277224302E-1
3.244280693E0,-1.331075311E0,1.464244008E0,-7.794640660E-1
3.249285693E0,-1.382998943E0,1.525941372E0,-7.593054771E-1
3.254231693E0,-1.425759435E0,1.590082288E0,-7.458664775E-1
3.259297693E0,-1.480737329E0,1.642616630E0,-7.458664775E-1
3.264241693E0,-1.498452425E0,1.720196486E0,-7.757988572E-1
3.269246693E0,-1.511280656E0,1.744631171E0,-8.216137290E-1
3.274251693E0,-1.500285029E0,1.697594523E0,-8.894197941E-1
3.279256693E0,-1.484402537E0,1.543045640E0,-9.560040832E-1
3.284261693E0,-1.475239515E0,1.327410221E0,-1.017701507E0
3.289265693E0,-1.489289522E0,1.065348983E0,-1.075733662E0
3.294270693E0,-1.513113260E0,9.217956662E-1,-1.105666041E0
3.299275693E0,-1.543045640E0,8.436049223E-1,-1.130100727E0
3.304280693E0,-1.567480206E0,7.929030657E-1,-1.141707182E0
3.309285693E0,-1.591303945E0,7.538077235E-1,-1.152091861E0
3.314290693E0,-1.603521228E0,7.709119320E-1,-1.130100727E0
3.319295693E0,-1.593747377E0,8.845328689E-1,-1.104444385E0
3.324300693E0,-1.563814998E0,9.926560521E-1,-1.056185961E0
3.329243693E0,-1.522276163E0,1.081231475E0,-9.975429177E-1
3.334248693E0,-1.481959105E0,1.128878951E0,-9.480628371E-1
3.339253693E0,-1.441031098E0,1.147204876E0,-9.004153609E-1
3.344258693E0,-1.406211853E0,1.141707182E0,-8.570439219E-1
3.349263693E0,-1.371392488E0,1.084896684E0,-8.271115422E-1
3.354268693E0,-1.332297087E0,1.027475357E0,-8.130616546E-1
3.359273693E0,-1.273043156E0,9.767735004E-1,-8.008443117E-1
3.364277693E0,-1.196684957E0,9.279043078E-1,-7.947356701E-1
3.369282693E0,-1.074512005E0,8.753699064E-1,-7.977899909E-1
3.374287693E0,-9.004153609E-1,8.100073338E-1,-7.953465581E-1
3.379292693E0,-7.440338731E-1,7.678576112E-1,-7.776314616E-1
3.384297693E0,-5.913175344E-1,7.250970602E-1,-7.635815740E-1
3.389241693E0,-4.471533597E-1,6.969972253E-1,-7.336491346E-1
3.394246693E0,-3.231477141E-1,6.817256212E-1,-6.896668673E-1
3.399251693E0,-2.266310006E-1,6.823364496E-1,-6.365215778E-1
3.404255693E0,-1.459967941E-1,6.951646209E-1,-5.644394755E-1
3.409260693E0,-9.651670605E-2,7.238753438E-1,-4.990769029E-1
3.414265693E0,-6.780604273E-2,7.745771408E-1,-4.263839424E-1
3.419270693E0,-5.803219974E-2,8.081747293E-1,-3.591887653E-1
3.424275693E0,-6.902777404E-2,8.112290502E-1,-3.005456924E-1
3.429158693E0,-9.346238524E-2,7.721336484E-1,-2.174680233E-1
3.434285693E0,-9.773843735E-2,7.513642311E-1,-1.618792862E-1
3.439289693E0,-8.735372871E-2,7.757988572E-1,-1.227839142E-1
3.444294693E0,-4.398229718E-2,8.222246170E-1,-7.819075137E-2
3.449299693E0,1.893682219E-2,8.649851680E-1,-3.909537569E-2
3.454243693E0,1.062905490E-1,9.059131742E-1,-2.504547499E-2
3.459248693E0,2.064724565E-1,9.584475756E-1,-1.771509275E-2
3.464253693E0,3.329215646E-1,1.009149432E0,-1.038470957E-2
3.469258693E0,4.025602043E-1,1.029307961E0,2.382374369E-2
3.474263693E0,4.728097022E-1,9.987646937E-1,6.230825558E-2
3.479267693E0,5.693264008E-1,9.401215911E-1,1.142318025E-1
3.484272693E0,7.134906054E-1,8.368853927E-1,1.466076523E-1
3.489277693E0,8.943067193E-1,6.811147332E-1,1.789835095E-1
3.494282693E0,1.130100727E0,4.459316432E-1,2.504547536E-1
3.499287693E0,1.316414595E0,2.803871334E-1,3.488040566E-1
3.505268693E0,1.552819490E0,1.148426682E-1,5.100724697E-1
3.510273693E0,1.726916075E0,-3.726277873E-2,6.499606371E-1
3.515278693E0,1.896125674E0,-2.504547536E-1,7.794640660E-1
3.520283693E0,2.098322153E0,-4.874704778E-1,9.132435322E-1
3.525288693E0,2.371989727E0,-6.853908300E-1,1.047633886E0
3.530293693E0,2.671313763E0,-8.387179971E-1,1.212567568E0
3.535298693E0,2.822197437E0,-8.894197941E-1,1.338405728E0
3.540241693E0,2.918714046E0,-8.674286604E-1,1.479515672E0
3.545246693E0,3.032945871E0,-7.880161405E-1,1.590082288E0
3.550251693E0,3.181386232E0,-6.676757336E-1,1.658499122E0
3.555256693E0,3.307224512E0,-5.693264008E-1,1.678046823E0
3.560261693E0,3.348152399E0,-5.455026627E-1,1.636507988E0
3.565266693E0,3.281568050E0,-6.029239893E-1,1.607186437E0
3.570271693E0,3.149010420E0,-6.481280327E-1,1.653001308E0
3.575275693E0,2.982855082E0,-6.261368990E-1,1.769065738E0
3.580280693E0,2.815477848E0,-5.595525503E-1,1.901623487E0
3.585285693E0,2.657874584E0,-5.051855445E-1,2.031126976E0
3.590290693E0,2.463619471E0,-4.825835526E-1,2.163073778E0
3.595295693E0,2.356718063E0,-4.355469346E-1,2.240653753E0
3.600300693E0,2.288912058E0,-2.871066630E-1,2.276083946E0
3.605244693E0,2.284636021E0,-5.375614017E-2,2.276083946E0
3.610249693E0,2.299907684E0,1.576032341E-1,2.243097067E0
3.615253693E0,2.326785803E0,2.138028294E-1,2.190562725E0
3.620258693E0,2.366492033E0,3.237585723E-2,2.108095884E0
3.625263693E0,2.382374525E0,-3.579670191E-1,2.037846565E0
3.630268693E0,2.312124968E0,-1.072679400E0,1.977981687E0
3.635273693E0,2.186286688E0,-1.949270964E0,1.912619114E0
3.640278693E0,2.092824221E0,-2.652376890E0,1.872301936E0
3.645283693E0,2.045176744E0,-3.079371691E0,1.836871743E0
3.650287693E0,2.073887587E0,-3.167947054E0,1.806939363E0
3.655292693E0,2.123978376E0,-2.962696552E0,1.767843962E0
3.660297693E0,2.126421928E0,-2.650544405E0,1.737300754E0
3.665241693E0,2.062281132E0,-2.357328892E0,1.706146598E0
3.670246693E0,1.961488247E0,-2.134974003E0,1.687820673E0
3.675251693E0,1.831984878E0,-2.051285505E0,1.709811807E0
3.680256693E0,1.659720898E0,-2.166128159E0,1.755015850E0
3.685261693E0,1.552819490E0,-2.389704943E0,1.793500304E0
3.690265693E0,1.514334917E0,-2.617557526E0,1.790446043E0
3.695270693E0,1.548543453E0,-2.664594173E0,1.699427128E0
3.700275693E0,1.601688623E0,-2.576629639E0,1.521054506E0
3.705280693E0,1.642005801E0,-2.481334686E0,1.287093043E0
3.710285693E0,1.624290705E0,-2.538145065E0,1.140485406E0
3.715290693E0,1.587027907E0,-2.616946697E0,1.014647126E0
3.720295693E0,1.541823864E0,-2.682309389E0,9.169087410E-1
3.725299693E0,1.523497939E0,-2.687807083E0,8.313875794E-1
3.730243693E0,1.554041147E0,-2.585181713E0,7.507534027E-1
3.735248693E0,1.606575608E0,-2.435519695E0,6.585127115E-1
3.740253693E0,1.686598897E0,-2.371378899E0,5.797111392E-1
3.745258693E0,1.733024716E0,-2.349998713E0,5.045747161E-1
3.750263693E0,1.737300754E0,-2.327396631E0,4.660901725E-1
3.755268693E0,1.726916075E0,-2.277916431E0,4.691445231E-1
3.760273693E0,1.680490255E0,-2.208888769E0,4.899139404E-1
3.765277693E0,1.587638736E0,-2.140471935E0,5.265658498E-1
3.770282693E0,1.501506805E0,-2.065335512E0,5.393940210E-1
3.775287693E0,1.416596532E0,-2.030516148E0,5.290092826E-1
3.780292693E0,1.328021049E0,-2.020131350E0,5.137376785E-1
3.785297693E0,1.232115149E0,-1.960877419E0,4.709770977E-1
3.790241693E0,1.103833556E0,-1.885130167E0,4.153883755E-1
3.795246693E0,9.040805697E-1,-1.828930497E0,3.488040566E-1
3.800250693E0,7.489207983E-1,-1.758681059E0,2.981022298E-1
3.805255693E0,5.974262357E-1,-1.646892667E0,2.492330223E-1
3.810260693E0,4.459316432E-1,-1.576032281E0,2.034181207E-1
3.815265693E0,2.846632004E-1,-1.548543453E0,1.392772794E-1
3.820270693E0,1.246165112E-1,-1.560760736E0,6.597344577E-2
3.825275693E0,-1.069014147E-1,-1.574199796E0,-3.909537569E-2
3.830280693E0,-3.121521473E-1,-1.590082288E0,-1.172861308E-1
3.835285693E0,-5.332853794E-1,-1.582751870E0,-1.973094791E-1
3.840289693E0,-7.556403279E-1,-1.554041147E0,-2.724458873E-1
3.845294693E0,-9.657779336E-1,-1.535715222E0,-3.408628106E-1
3.850299693E0,-1.172861218E0,-1.500285029E0,-3.940080702E-1
3.855243693E0,-1.409876943E0,-1.374446750E0,-4.636467099E-1
3.860248693E0,-1.582751870E0,-1.258993268E0,-4.948008358E-1
3.865253693E0,-1.755626678E0,-1.153313637E0,-4.966334403E-1
3.870258693E0,-1.916284323E0,-1.026864529E0,-4.911356568E-1
3.875262693E0,-2.076330900E0,-8.772025108E-1,-4.697553813E-1
3.880267693E0,-2.229047298E0,-7.299839854E-1,-4.233296216E-1
3.885272693E0,-2.420858860E0,-5.045747161E-1,-3.567453027E-1
3.890277693E0,-2.549751520E0,-2.748893499E-1,-2.968805134E-1
3.895282693E0,-2.660928965E0,-5.314527452E-2,-2.351831198E-1
3.900287693E0,-2.731178522E0,1.508837193E-1,-1.942551434E-1
3.905292693E0,-2.710409164E0,2.895501256E-1,-1.673770845E-1
3.910297693E0,-2.556471109E0,3.622430861E-1,-1.747074574E-1
3.915301693E0,-2.152689219E0,3.842342496E-1,-2.211332172E-1
3.920245693E0,-1.675603390E0,3.384193480E-1,-2.351831198E-1
3.925250693E0,-1.119716048E0,2.590068579E-1,-2.070833147E-1
3.930255693E0,-5.626068711E-1,1.313360333E-1,-1.472185254E-1
3.935260693E0,-6.169738993E-2,-1.240056455E-1,-6.291911751E-2
3.940265693E0,3.927863538E-1,-5.265658498E-1,4.276056588E-2
3.945270693E0,8.374962807E-1,-1.133154988E0,2.339613885E-1
3.950274693E0,1.071457624E0,-1.574810624E0,3.982841372E-1
3.955279693E0,1.199128509E0,-1.883297563E0,4.893030524E-1
3.960284693E0,1.223563075E0,-2.025018215E0,5.271766782E-1
3.965289693E0,1.166141748E0,-2.085494041E0,5.845980644E-1
3.970294693E0,1.056796908E0,-2.125200272E0,6.835582256E-1
3.975299693E0,9.908234477E-1,-2.087937355E0,7.476990819E-1
3.980243693E0,9.462302923E-1,-1.945605755E0,7.898487449E-1
3.985248693E0,9.077457786E-1,-1.710422635E0,8.069530129E-1
3.990252693E0,9.010262489E-1,-1.414153099E0,8.045095205E-1
3.995257693E0,9.059131742E-1,-1.097724795E0,7.611380816E-1
4.000262693E0,8.943067193E-1,-7.574729323E-1,6.621779203E-1
4.005267693E0,8.326093554E-1,-3.371976018E-1,4.752531648E-1
4.010272693E0,7.452555895E-1,-7.880161703E-2,3.335324228E-1
4.015277693E0,6.426302195E-1,8.613199741E-2,2.076941878E-1
4.020282693E0,5.381723046E-1,2.547308207E-1,1.185078546E-1
4.025287693E0,4.318817258E-1,4.459316432E-1,7.880161703E-2
4.030291693E0,3.610213697E-1,6.194173694E-1,8.552113175E-2
4.035296693E0,4.361577928E-1,6.908885837E-1,1.087340117E-1
4.040301693E0,5.687155724E-1,7.336491346E-1,1.667662114E-1
4.045245693E0,5.656611919E-1,7.861835957E-1,2.241875380E-1
4.050250693E0,3.995058835E-1,6.542366743E-1,2.510656118E-1
4.055255693E0,2.052507252E-1,3.622430861E-1,2.596177161E-1
4.060260693E0,1.374446750E-1,2.217440903E-1,3.023782969E-1
4.065264693E0,1.191187203E-1,3.677408695E-1,3.164281845E-1
4.070269693E0,-4.398229718E-2,4.514294267E-1,2.724458873E-1
4.075274693E0,-2.852740586E-1,3.433062732E-1,2.083050460E-1
4.080279693E0,-5.393940210E-1,7.391469181E-2,8.857546002E-2
4.085284693E0,-7.550294399E-1,-1.185078546E-1,-8.185594529E-2
4.090289693E0,-9.572258592E-1,-9.162978828E-2,-2.803871334E-1
4.095294693E0,-1.077566266E0,9.224065393E-2,-3.891211748E-1
4.100299693E0,-1.189965487E0,5.552765131E-1,-4.483750761E-1
4.105242693E0,-1.386053205E0,1.234558702E0,-4.190535545E-1
4.110247693E0,-1.607186437E0,2.078163624E0,-3.756821156E-1
4.115252693E0,-1.805106759E0,2.864958048E0,-4.190535545E-1
4.120257693E0,-2.090991735E0,3.498425245E0,-6.230825782E-1
4.125201693E0,-2.264477491E0,3.965126276E0,-8.179485798E-1
4.130267693E0,-2.404976368E0,3.944356918E0,-9.798278809E-1
4.135272693E0,-2.482556343E0,3.614489555E0,-1.094670534E0
4.140276693E0,-2.481334686E0,3.062878370E0,-1.097724795E0
4.145281693E0,-2.414139509E0,2.334116220E0,-9.914342761E-1
4.150286693E0,-2.310292244E0,1.283427835E0,-7.354817390E-1
4.155291693E0,-2.282803535E0,5.797111392E-1,-4.764748812E-1
4.160296693E0,-2.301740170E0,2.877175212E-1,-2.535090744E-1
4.165301693E0,-2.348165989E0,4.214970171E-1,-1.136209369E-1
4.170245693E0,-2.395813465E0,7.751879692E-1,-7.391469181E-2
4.175250693E0,-2.417193890E0,1.161254883E0,-1.087340117E-1
4.180254693E0,-2.406809092E0,1.569312811E0,-1.685988009E-1
4.185259693E0,-2.388483047E0,1.791667819E0,-2.150245607E-1
4.190264693E0,-2.357939959E0,2.002416372E0,-2.736676335E-1
4.195269693E0,-2.320066214E0,2.224771261E0,-3.652974069E-1
4.200274693E0,-2.295020819E0,2.430022001E0,-4.721988440E-1
4.205279693E0,-2.282803535E0,2.536923409E0,-5.949827433E-1
4.210284693E0,-2.287079573E0,2.492330313E0,-7.538077235E-1
4.215288693E0,-2.274251223E0,2.321287870E0,-8.704829812E-1
4.220293693E0,-2.229047298E0,2.073887587E0,-9.700540304E-1
4.225298693E0,-2.184454203E0,1.755015850E0,-1.048244715E0
4.230242693E0,-2.119091511E0,1.409266114E0,-1.078177214E0
4.235247693E0,-2.038457394E0,1.095281363E0,-1.089172721E0
4.240252693E0,-1.904677868E0,8.998045325E-1,-1.137431145E0
4.245257693E0,-1.806939363E0,9.309586287E-1,-1.166141748E0
4.250262693E0,-1.740355134E0,1.053742528E0,-1.161254883E0
4.255269693E0,-1.725694299E0,1.136209369E0,-1.121548533E0
4.260274693E0,-1.727526903E0,1.188132882E0,-1.059240341E0
4.265279693E0,-1.718363881E0,1.195463300E0,-9.804387093E-1
4.270284693E0,-1.693929315E0,1.185689449E0,-8.894197941E-1
4.275227693E0,-1.676825047E0,1.182635069E0,-8.234463334E-1
4.280293693E0,-1.683544636E0,1.183246017E0,-7.782423496E-1
4.285298693E0,-1.704313993E0,1.213178396E0,-7.586946487E-1
4.290242693E0,-1.718974829E0,1.298699498E0,-7.849618196E-1
4.295247693E0,-1.726305127E0,1.373835921E0,-8.173376918E-1
4.300252693E0,-1.738522530E0,1.400103092E0,-8.759807348E-1
4.305257693E0,-1.728748679E0,1.368338108E0,-9.089674950E-1
4.310261693E0,-1.722640038E0,1.318858027E0,-9.279043078E-1
4.315266693E0,-1.683544636E0,1.295034289E0,-9.584475756E-1
4.320271693E0,-1.630399346E0,1.283427835E0,-1.000597239E0
4.325276693E0,-1.581530094E0,1.241889000E0,-1.045190454E0
4.330281693E0,-1.548543453E0,1.114829063E0,-1.109942198E0
4.335286693E0,-1.598634362E0,9.883799553E-1,-1.148426652E0
4.340291693E0,-1.711033583E0,8.857545853E-1,-1.160033107E0
4.345296693E0,-1.858862996E0,8.332201838E-1,-1.146594048E0
4.350300693E0,-1.969429493E0,8.240572214E-1,-1.127046347E0
4.355244693E0,-1.987144589E0,8.643743396E-1,-1.097113967E0
4.360249693E0,-1.847867370E0,9.724974632E-1,-1.052520871E0
4.365254693E0,-1.665829539E0,1.073290229E0,-1.015258074E0
4.370259693E0,-1.488678575E0,1.122159481E0,-9.712757468E-1
4.375264693E0,-1.385442376E0,1.117883444E0,-9.364564419E-1
4.380269693E0,-1.367727280E0,1.089783549E0,-9.034696817E-1
4.385274693E0,-1.396438003E0,1.071457624E0,-8.588765264E-1
4.390278693E0,-1.373225093E0,1.113607287E0,-8.051204085E-1
4.395283693E0,-1.279762745E0,1.182635069E0,-7.336491346E-1
4.400288693E0,-1.138652802E0,1.248608589E0,-6.469063163E-1
4.405293693E0,-9.828822017E-1,1.280373573E0,-5.650503635E-1
4.410298693E0,-8.350527883E-1,1.254717231E0,-4.862487316E-1
4.415242693E0,-6.805039048E-1,1.172861218E0,-4.208861589E-1
4.420247693E0,-5.882632136E-1,9.944885969E-1,-3.848451078E-1
4.425251693E0,-5.198463202E-1,8.387179971E-1,-3.756821156E-1
4.430256693E0,-4.508185387E-1,7.544185519E-1,-3.933972120E-1
4.435261693E0,-3.481931984E-1,7.031059265E-1,-4.392121136E-1
4.440266693E0,-2.406809032E-1,6.835582256E-1,-5.057964325E-1
4.445271693E0,-8.185594529E-2,6.688974500E-1,-5.754350424E-1
4.450276693E0,3.298672289E-2,6.389650702E-1,-6.035348773E-1
4.455281693E0,1.032362282E-1,5.809328556E-1,-5.931501389E-1
4.460286693E0,1.264491081E-1,5.198463202E-1,-5.467243791E-1
4.465290693E0,1.069014147E-1,4.789183438E-1,-4.789183438E-1
4.470295693E0,5.681046844E-2,4.618141353E-1,-3.903428912E-1
4.475300693E0,-2.321287990E-2,4.844161272E-1,-2.687807083E-1
4.480244693E0,-6.902777404E-2,5.674937963E-1,-1.753183305E-1
4.485249693E0,-8.735372871E-2,7.049384713E-1,-9.590584040E-2
4.490254693E0,-8.185594529E-2,8.576548100E-1,-3.359758854E-2
4.495259693E0,-6.352998316E-2,9.871582389E-1,4.886921961E-3
4.500263693E0,-1.466076635E-2,1.058018565E0,2.382374369E-2
4.505268693E0,9.590584040E-2,1.010371089E0,4.642575979E-2
4.510273693E0,2.474004179E-1,8.729264140E-1,4.459316283E-2
4.515278693E0,4.337143302E-1,6.976081133E-1,4.886921868E-2
4.520283693E0,6.304129362E-1,5.100724697E-1,6.475171447E-2
4.525288693E0,7.935139537E-1,3.316998184E-1,1.056796908E-1
4.530293693E0,9.279043078E-1,1.612684280E-1,1.887573600E-1
4.535298693E0,1.077566266E0,-4.948008433E-2,3.457497358E-1
4.540241693E0,1.223563075E0,-2.138028294E-1,5.009095073E-1
4.545246693E0,1.419039965E0,-4.068362415E-1,6.682865620E-1
4.550251693E0,1.603521228E0,-6.603453159E-1,8.356636763E-1
4.555256693E0,1.811215401E0,-9.498954415E-1,1.007316828E0
4.560261693E0,2.039068222E0,-1.205237150E0,1.161865711E0
4.565266693E0,2.322509766E0,-1.387885809E0,1.354899168E0
4.570271693E0,2.501493216E0,-1.413542151E0,1.491732955E0
4.575275693E0,2.606561899E0,-1.346346974E0,1.609629869E0
4.580280693E0,2.709187269E0,-1.260215044E0,1.728748679E0
4.585285693E0,2.831971169E0,-1.169196129E0,1.835039139E0
4.590290693E0,2.978579044E0,-1.094059706E0,1.916895151E0
4.595295693E0,3.107471466E0,-1.040914416E0,1.924836397E0
4.600300693E0,3.092810631E0,-1.072679400E0,1.905288696E0
4.605244693E0,2.965139866E0,-1.134987593E0,1.913229942E0
4.610249693E0,2.785545588E0,-1.130711555E0,1.970040441E0
4.615253693E0,2.612670660E0,-1.019534111E0,2.011579275E0
4.620258693E0,2.474004269E0,-7.953465581E-1,2.038457394E0
4.625263693E0,2.398257017E0,-4.502076805E-1,2.033570290E0
4.630268693E0,2.372600555E0,-2.119702399E-1,2.009746552E0
4.635273693E0,2.382374525E0,-1.893682219E-2,1.976759911E0
4.640278693E0,2.434908867E0,1.417207420E-1,1.939497113E0
4.645283693E0,2.506990910E0,2.809980214E-1,1.902845263E0
4.650287693E0,2.590068579E0,3.524692357E-1,1.868636727E0
4.655292693E0,2.678033352E0,3.469714522E-1,1.831374049E0
4.660297693E0,2.729345798E0,2.333505303E-1,1.810604572E0
4.665241693E0,2.758056641E0,-1.343903504E-2,1.787391663E0
4.670246693E0,2.713463306E0,-4.563163519E-1,1.771509171E0
4.675251693E0,2.599842548E0,-1.143539786E0,1.737300754E0
4.680256693E0,2.431854486E0,-1.923003793E0,1.704313993E0
4.685261693E0,2.279138327E0,-2.659096479E0,1.703092337E0
4.690265693E0,2.235155821E0,-2.900388241E0,1.718363881E0
4.695270693E0,2.266921043E0,-2.859460115E0,1.715309620E0
4.700275693E0,2.318233490E0,-2.571742773E0,1.692707539E0
4.705280693E0,2.330451012E0,-2.214997292E0,1.654833913E0
4.710285693E0,2.262644768E0,-1.891238809E0,1.604132175E0
4.715290693E0,2.142915249E0,-1.705535769E0,1.602910399E0
4.720295693E0,2.011579275E0,-1.700648785E0,1.642616630E0
4.725299693E0,1.904677868E0,-1.798387289E0,1.723861694E0
4.730243693E0,1.797165513E0,-1.954768777E0,1.796554685E0
4.735248693E0,1.729970336E0,-2.141693592E0,1.831374049E0
4.740253693E0,1.746463776E0,-2.288912058E0,1.752572417E0
4.745258693E0,1.809993744E0,-2.487443209E0,1.614516854E0
4.750263693E0,1.885740995E0,-2.627331495E0,1.455080986E0
4.755085693E0,1.942551494E0,-2.744617462E0,1.269988894E0
4.760212693E0,1.970040441E0,-2.779436827E0,1.156978726E0
4.765277693E0,1.994475007E0,-2.721404552E0,1.011592865E0
4.770282693E0,2.033570290E0,-2.528371334E0,8.112290502E-1
4.775287693E0,2.049452782E0,-2.346944332E0,6.389650702E-1
4.780292693E0,1.996307611E0,-2.207667112E0,5.015203953E-1
4.785114693E0,1.877799749E0,-2.136806726E0,3.878994286E-1
4.790241693E0,1.790446043E0,-2.108095884E0,3.506366611E-1
4.795246693E0,1.676214218E0,-2.063502789E0,3.298672438E-1
4.800250693E0,1.540602207E0,-1.948660135E0,3.585779071E-1
4.805255693E0,1.444696307E0,-1.789835215E0,3.982841372E-1
4.810260693E0,1.343903542E0,-1.700037956E0,4.349360466E-1
4.815265693E0,1.242499948E0,-1.640173197E0,4.495968223E-1
4.820270693E0,1.141096234E0,-1.630399346E0,4.593706727E-1
4.825275693E0,1.028086185E0,-1.643227458E0,4.471533597E-1
4.830280693E0,8.790351152E-1,-1.704313993E0,4.214970171E-1
4.835285693E0,7.641924024E-1,-1.712255239E0,4.062253833E-1
4.840289693E0,6.627888083E-1,-1.626123309E0,3.762930036E-1
4.845294693E0,5.687155724E-1,-1.473407030E0,3.549126983E-1
4.850299693E0,4.685336351E-1,-1.307862520E0,3.274237812E-1
4.855243693E0,3.610213697E-1,-1.161254883E0,3.109304011E-1
4.860248693E0,2.009746730E-1,-1.015258074E0,2.730567753E-1
4.865131693E0,2.443460934E-2,-9.156870246E-1,2.064724565E-1
4.871295693E0,-1.417207420E-1,-8.625417352E-1,1.484402567E-1
4.876300693E0,-3.292563558E-1,-8.252789378E-1,8.735372871E-2
4.881244693E0,-5.467243791E-1,-7.910705209E-1,2.443460934E-2
4.886249693E0,-7.757988572E-1,-7.165449262E-1,-3.420845419E-2
4.891254693E0,-1.016479731E0,-6.572909951E-1,-8.674286306E-2
4.896259693E0,-1.294423461E0,-6.340781450E-1,-1.545489132E-1
4.901263693E0,-1.503339410E0,-6.285803318E-1,-1.832595766E-1
4.906268693E0,-1.690875053E0,-5.937610269E-1,-2.131919712E-1
4.911273693E0,-1.869247675E0,-5.326744914E-1,-2.315179259E-1
4.916278693E0,-2.024407387E0,-4.355469346E-1,-2.541199327E-1
4.921283693E0,-2.163684607E0,-3.292563558E-1,-2.785545588E-1
4.926288693E0,-2.313957453E0,-2.138028294E-1,-2.962696552E-1
4.931293693E0,-2.400089502E0,-7.086037099E-2,-3.078760803E-1
4.936297693E0,-2.447126150E0,9.834930301E-2,-3.090978265E-1
4.941241693E0,-2.447736979E0,2.357939780E-1,-2.748893499E-1
4.946246693E0,-2.372600555E0,3.597996235E-1,-2.492330223E-1
4.951251693E0,-2.243097067E0,4.850270152E-1,-2.357939780E-1
4.956256693E0,-2.024407387E0,6.255260110E-1,-2.290744632E-1
4.961261693E0,-1.794722080E0,6.615670323E-1,-2.400700450E-1
4.966266693E0,-1.520443559E0,5.974262357E-1,-2.351831198E-1
4.971271693E0,-1.175915599E0,4.202753007E-1,-1.973094791E-1
4.976275693E0,-7.898487449E-1,1.276708394E-1,-1.423316002E-1
4.981280693E0,-3.921754956E-1,-3.573561609E-1,-9.040805697E-2
4.986285693E0,1.411098689E-1,-1.199128509E0,-3.665191308E-2
4.991290693E0,5.198463202E-1,-1.809382915E0,2.687807009E-2
4.996295693E0,8.051204085E-1,-2.197282314E0,7.880161703E-2
5.001300693E0,9.963212013E-1,-2.407419920E0,1.453859210E-1
5.006244693E0,1.111163855E0,-2.498438835E0,2.443460971E-1
5.011248693E0,1.188743711E0,-2.505158424E0,3.988949955E-1
5.016253693E0,1.270599723E0,-2.407419920E0,5.174028873E-1
5.021258693E0,1.280373573E0,-2.236377716E0,6.102544069E-1
5.026263693E0,1.224784851E0,-1.978592515E0,6.640105247E-1
5.031268693E0,1.094670534E0,-1.667051196E0,6.853908300E-1
5.036273693E0,9.450085163E-1,-1.302364707E0,6.517932415E-1
5.041278693E0,7.342600226E-1,-8.808676600E-1,5.784893632E-1
5.046283693E0,5.687155724E-1,-3.170390725E-1,5.259549618E-1
5.052264693E0,3.341432810E-1,2.541199327E-1,4.990769029E-1
5.057269693E0,1.356120855E-1,6.914994717E-1,4.801400900E-1
5.062274693E0,-9.407325089E-2,1.001819015E0,4.526511431E-1
5.067279693E0,-2.516764700E-1,1.174693823E0,4.373795092E-1
5.072283693E0,-2.736676335E-1,1.308473349E0,4.367686510E-1
5.077288693E0,-1.014036313E-1,1.474628687E0,5.247332454E-1
5.082293693E0,1.484402567E-1,1.461189628E0,6.811147332E-1
5.087298693E0,3.885102868E-1,1.159422278E0,8.332201838E-1
5.092242693E0,4.795292318E-1,7.061602473E-1,9.126327038E-1
5.097247693E0,3.732386529E-1,3.714060783E-1,8.723155856E-1
5.102252693E0,7.880161703E-2,3.304781020E-1,7.953465581E-1
5.107257693E0,-2.871066630E-1,4.129449129E-1,7.434229851E-1
5.112261693E0,-4.031710625E-1,5.033529401E-1,6.633996367E-1
5.117266693E0,-3.891211748E-1,4.422664344E-1,4.807509482E-1
5.122271693E0,-3.927863538E-1,1.368338168E-1,2.119702399E-1
5.127276693E0,-4.477642179E-1,-3.463605940E-1,-9.651670605E-2
5.132281693E0,-5.155702829E-1,-8.607091308E-1,-3.927863538E-1
5.137286693E0,-5.687155724E-1,-1.168585181E0,-7.220427394E-1
5.142291693E0,-6.334672570E-1,-9.144652486E-1,-8.796459436E-1
5.147295693E0,-8.649851680E-1,-1.362229437E-1,-8.808676600E-1
5.152300693E0,-1.257771492E0,1.120326877E0,-7.641924024E-1
5.157244693E0,-1.673770785E0,2.513710499E0,-6.542366743E-1
5.162249693E0,-1.995085835E0,3.692680359E0,-6.536257863E-1
5.167254693E0,-2.292577267E0,4.713436127E0,-7.806857824E-1
5.172259693E0,-2.508823633E0,5.076900959E0,-9.382890463E-1
5.177264693E0,-2.722015619E0,5.023755550E0,-1.100168347E0
5.182269693E0,-2.870455742E0,4.618752003E0,-1.195463300E0
5.187273693E0,-2.901609898E0,3.900985479E0,-1.177748203E0
5.192278693E0,-2.764165163E0,2.977967978E0,-1.023199320E0
5.197283693E0,-2.453845739E0,1.657277465E0,-7.067710757E-1
5.202288693E0,-2.204612732E0,5.925393105E-1,-4.166100919E-1
5.207293693E0,-2.034792185E0,-1.747074574E-1,-1.930334121E-1
5.212298693E0,-1.928501606E0,-3.891211748E-1,-3.481931984E-2
5.217242693E0,-1.897347450E0,-1.795943826E-1,8.735372871E-2
5.222246693E0,-1.918116927E0,2.614503205E-1,1.313360333E-1
5.227251693E0,-1.999361992E0,9.395107627E-1,1.142318025E-1
5.232256693E0,-2.080606937E0,1.494787216E0,6.108652428E-2
5.237261693E0,-2.196671486E0,1.987144589E0,-4.948008433E-2
5.242266693E0,-2.299907684E0,2.418415546E0,-2.217440903E-1
5.247271693E0,-2.360994101E0,2.715296030E0,-4.483750761E-1
5.252217693E0,-2.374433279E0,2.790432453E0,-6.963863969E-1
5.257283693E0,-2.329839945E0,2.574186087E0,-9.737191796E-1
5.262288693E0,-2.240653753E0,2.219273329E0,-1.144150615E0
5.267293693E0,-2.134974003E0,1.782504797E0,-1.234558702E0
5.272298693E0,-2.022574902E0,1.390940189E0,-1.261436701E0
5.277242693E0,-1.923003793E0,1.102611780E0,-1.237002134E0
5.282246693E0,-1.824654460E0,9.639453292E-1,-1.197295904E0
5.287251693E0,-1.712255239E0,9.987646937E-1,-1.177137375E0
5.292256693E0,-1.608408213E0,1.136209369E0,-1.202793717E0
5.297261693E0,-1.518000126E0,1.235780358E0,-1.228450060E0
5.302266693E0,-1.422705173E0,1.301753879E0,-1.243721604E0
5.307271693E0,-1.337184072E0,1.334129691E0,-1.247997642E0
5.312276693E0,-1.252884626E0,1.284649611E0,-1.223563075E0
5.317281693E0,-1.207680583E0,1.138041973E0,-1.162476540E0
5.322285693E0,-1.213789225E0,1.023199320E0,-1.050688267E0
5.327290693E0,-1.241889000E0,9.645562172E-1,-9.498954415E-1
5.332295693E0,-1.288314819E0,9.602801800E-1,-8.772025108E-1
5.337300693E0,-1.331686258E0,1.053742528E0,-8.491026759E-1
5.342244693E0,-1.366505504E0,1.182024240E0,-8.460483551E-1
5.347249693E0,-1.382998943E0,1.329242826E0,-8.625417352E-1
5.352254693E0,-1.377501130E0,1.378111959E0,-8.863654733E-1
5.357258693E0,-1.354288220E0,1.385442376E0,-9.120218158E-1
5.362263693E0,-1.323134065E0,1.337184072E0,-9.578366876E-1
5.367268693E0,-1.285260439E0,1.271210551E0,-9.932668805E-1
5.372273693E0,-1.279151797E0,1.204626322E0,-1.034194827E0
5.377278693E0,-1.305419087E0,1.110553026E0,-1.065348983E0
5.382283693E0,-1.356731653E0,1.019534111E0,-1.099557400E0
5.387288693E0,-1.437976837E0,9.254608750E-1,-1.109942198E0
5.392293693E0,-1.548543453E0,8.399397135E-1,-1.117272496E0
5.397297693E0,-1.657888293E0,8.008443117E-1,-1.113607287E0
5.402058693E0,-1.749518037E0,8.051204085E-1,-1.094670534E0
5.407246693E0,-1.783115625E0,8.387179971E-1,-1.076955438E0
5.412190693E0,-1.773341775E0,8.839219809E-1,-1.055575132E0
5.417256693E0,-1.708590150E0,9.450085163E-1,-1.045190454E0
5.422261693E0,-1.621847272E0,9.993755221E-1,-1.017090678E0
5.427266693E0,-1.517389297E0,1.034805775E0,-9.877691269E-1
5.432270693E0,-1.402546644E0,1.024420977E0,-9.242390990E-1
5.437275693E0,-1.337794900E0,9.865473509E-1,-8.698720932E-1
5.442280693E0,-1.279762745E0,9.376781583E-1,-8.173376918E-1
5.447285693E0,-1.201571941E0,8.930850029E-1,-7.550294399E-1
5.452290693E0,-1.091005325E0,8.662069440E-1,-6.945537925E-1
5.457295693E0,-9.511171579E-1,8.295549750E-1,-6.420193911E-1
5.462300693E0,-8.191702962E-1,7.556403279E-1,-5.803219676E-1
5.467244693E0,-7.293730974E-1,7.037167549E-1,-5.259549618E-1
5.472248693E0,-6.524040699E-1,6.554583907E-1,-4.929682612E-1
5.477253693E0,-5.607742667E-1,6.224716902E-1,-4.746423066E-1
5.482258693E0,-4.404338300E-1,6.059783101E-1,-4.758640230E-1
5.487263693E0,-2.803871334E-1,6.120869517E-1,-5.106833577E-1
5.492268693E0,-8.613199741E-2,6.560692787E-1,-5.424483418E-1
5.497273693E0,2.993239649E-2,6.853908300E-1,-5.497786999E-1
5.502278693E0,8.674286306E-2,6.829473376E-1,-5.222898126E-1
5.507282693E0,9.834930301E-2,6.743952036E-1,-4.538728893E-1
5.512287693E0,7.147123665E-2,6.963863969E-1,-3.769038618E-1
5.517292693E0,4.092797264E-2,7.568620443E-1,-2.962696552E-1
5.522297693E0,2.565634064E-2,8.319984674E-1,-2.095267773E-1
5.527241693E0,3.909537569E-2,8.765916228E-1,-1.319468915E-1
5.532246693E0,7.819075137E-2,9.297369123E-1,-5.742133409E-2
5.537251693E0,1.319468915E-1,1.001208186E0,-3.054326167E-3
5.542256693E0,1.924225539E-1,1.063516378E0,5.253441259E-2
5.547260693E0,2.638937831E-1,1.089783549E0,9.834930301E-2
5.552265693E0,3.878994286E-1,1.040303469E0,1.368338168E-1
5.557270693E0,5.455026627E-1,9.425650835E-1,1.569923609E-1
5.562275693E0,7.348709106E-1,7.947356701E-1,1.765400618E-1
5.567280693E0,9.169087410E-1,6.212499738E-1,2.138028294E-1
5.572285693E0,1.050688267E0,4.251621962E-1,2.919935882E-1
5.577290693E0,1.146594048E0,2.528982162E-1,4.062253833E-1
5.582294693E0,1.304808140E0,7.574728876E-2,5.784893632E-1
5.587299693E0,1.447139740E0,-9.834930301E-2,7.031059265E-1
5.592243693E0,1.623068929E0,-3.659082949E-1,8.295549750E-1
5.597248693E0,1.871691108E0,-6.695083380E-1,9.621127844E-1
5.602253693E0,2.183843136E0,-9.425650835E-1,1.092227101E0
5.607258693E0,2.486221552E0,-1.145372391E0,1.208902359E0
5.612263693E0,2.770273924E0,-1.304808140E0,1.329853654E0
5.617268693E0,2.921157598E0,-1.292590857E0,1.423316002E0
5.622272693E0,3.059823990E0,-1.174693823E0,1.531439185E0
5.627277693E0,3.179553509E0,-1.001208186E0,1.643838406E0
5.632282693E0,3.289509296E0,-8.637634516E-1,1.742798567E0
5.637287693E0,3.348152399E0,-8.326093554E-1,1.798387289E0
5.642292693E0,3.284622431E0,-9.505063295E-1,1.797165513E0
5.647297693E0,3.156340837E0,-1.102611780E0,1.797776461E0
5.652302693E0,3.020728588E0,-1.182024240E0,1.815491557E0
5.657245693E0,2.917492390E0,-1.128878951E0,1.806328535E0
5.662250693E0,2.831971169E0,-9.376781583E-1,1.773952723E0
5.667255693E0,2.748893499E0,-6.658431292E-1,1.734857321E0
5.672260693E0,2.679865837E0,-3.133738637E-1,1.713477015E0
5.677265693E0,2.640159607E0,-5.314527452E-2,1.681101203E0
5.682270693E0,2.615114212E0,1.539380401E-1,1.629788518E0
5.687275693E0,2.626109600E0,3.029891551E-1,1.568701982E0
5.692280693E0,2.652376890E0,3.781255782E-1,1.500285029E0
5.697284693E0,2.696359158E0,3.164281845E-1,1.448361516E0
5.702228693E0,2.731789351E0,1.710422710E-2,1.469130874E0
5.707294693E0,2.776993513E0,-3.518583775E-1,1.549154282E0
5.712299693E0,2.822808266E0,-6.982190013E-1,1.629788518E0
5.717243693E0,2.827695131E0,-1.045190454E0,1.678046823E0
5.722248693E0,2.725069761E0,-1.464244008E0,1.687820673E0
5.727253693E0,2.569910049E0,-1.831374049E0,1.701259732E0
5.732074693E0,2.353663683E0,-1.993864179E0,1.723250866E0
5.737262693E0,2.191173553E0,-1.919338584E0,1.723861694E0
5.742267693E0,2.075720072E0,-1.748296380E0,1.696983695E0
5.747272693E0,1.968818665E0,-1.588249683E0,1.658499122E0
5.752277693E0,1.870469332E0,-1.463633180E0,1.639562368E0
5.757282693E0,1.753183246E0,-1.398881435E0,1.652390480E0
5.762287693E0,1.668883801E0,-1.445918083E0,1.712866187E0
5.767292693E0,1.594358325E0,-1.535104394E0,1.783115625E0
5.772296693E0,1.528384805E0,-1.692096710E0,1.842369556E0
5.777301693E0,1.459967971E0,-1.896125674E0,1.879632354E0
5.782245693E0,1.407433510E0,-2.122756720E0,1.871691108E0
5.787250693E0,1.394605398E0,-2.323120594E0,1.783726573E0
5.792255693E0,1.437976837E0,-2.508823633E0,1.662775159E0
5.797260693E0,1.484402537E0,-2.652987719E0,1.546099901E0
5.802265693E0,1.502117634E0,-2.784934759E0,1.453248382E0
5.807269693E0,1.516778350E0,-2.820975780E0,1.367116451E0
5.812274693E0,1.540602207E0,-2.753169775E0,1.283427835E0
5.817279693E0,1.562593341E0,-2.544864655E0,1.153924465E0
5.822284693E0,1.563204169E0,-2.376876593E0,1.043968678E0
5.827289693E0,1.538769603E0,-2.304794550E0,9.388998747E-1
5.832294693E0,1.511280656E0,-2.318844557E0,8.594874144E-1
5.837299693E0,1.455080986E0,-2.357328892E0,7.990117669E-1
5.842243693E0,1.354899168E0,-2.396424294E0,7.538077235E-1
5.847247693E0,1.238223910E0,-2.370157242E0,7.012733221E-1
5.852252693E0,1.137431145E0,-2.315790176E0,6.640105247E-1
5.857257693E0,1.032362223E0,-2.247373343E0,6.383541822E-1
5.862262693E0,9.095783234E-1,-2.210721254E0,6.212499738E-1
5.867267693E0,8.063421249E-1,-2.152689219E0,6.096435189E-1
5.872272693E0,7.073819637E-1,-2.042733431E0,5.919284225E-1
5.877277693E0,5.797111392E-1,-1.852143407E0,5.467243791E-1
5.882282693E0,4.825835526E-1,-1.715920448E0,5.027421117E-1
5.887286693E0,3.799581826E-1,-1.610240817E0,4.379903674E-1
5.892291693E0,2.858849466E-1,-1.550375938E0,3.634648323E-1
5.897296693E0,1.631010175E-1,-1.446528912E0,3.194825351E-1
5.902301693E0,3.481931984E-2,-1.330464482E0,2.889392674E-1
5.907245693E0,-1.649336219E-1,-1.218676209E0,2.480112910E-1
5.912250693E0,-3.280346394E-1,-1.167974353E0,1.960877478E-1
5.917255693E0,-5.045747161E-1,-1.120937705E0,1.435533315E-1
5.922259693E0,-6.872233748E-1,-1.065348983E0,8.979719132E-2
5.927264693E0,-8.668177724E-1,-1.003651619E0,4.581489414E-2
5.932269693E0,-1.029918790E0,-9.370672703E-1,4.276056774E-3
5.937274693E0,-1.210124016E0,-8.399397135E-1,-5.070181563E-2
5.942279693E0,-1.335962296E0,-7.501425147E-1,-8.552113175E-2
5.947284693E0,-1.458746195E0,-6.212499738E-1,-1.221730486E-1
5.952289693E0,-1.586417079E0,-4.728097022E-1,-1.496619880E-1
5.957294693E0,-1.717753053E0,-3.072652221E-1,-1.582140923E-1
5.962298693E0,-1.857030392E0,-1.362229437E-1,-1.569923609E-1
5.967242693E0,-2.032348633E0,9.529497474E-2,-1.563815027E-1
5.972247693E0,-2.187508345E0,2.730567753E-1,-1.649336219E-1
5.977252693E0,-2.344500780E0,4.092797041E-1,-1.838704348E-1
5.982257693E0,-2.508212805E0,5.039638281E-1,-2.138028294E-1
5.987262693E0,-2.656042099E0,5.534439087E-1,-2.669481039E-1
5.992267693E0,-2.753780603E0,5.485569835E-1,-3.445279896E-1
5.997271693E0,-2.731178522E0,4.807509482E-1,-3.878994286E-1
6.002276693E0,-2.537534237E0,3.561344445E-1,-4.208861589E-1
6.007281693E0,-2.163684607E0,2.302961946E-1,-4.428772926E-1
6.012286693E0,-1.688431501E0,1.404990107E-1,-4.129449129E-1
6.017291693E0,-1.158200502E0,1.136209369E-1,-3.213151097E-1
6.022296693E0,-4.844161272E-1,1.178969890E-1,-1.612684280E-1
6.027301693E0,5.619960278E-2,-1.893682219E-2,-1.954768784E-2
6.032245693E0,5.644394755E-1,-2.919935882E-1,1.215621829E-1
6.037249693E0,9.388998747E-1,-5.809328556E-1,2.583959997E-1
6.042254693E0,1.126435518E0,-7.996225953E-1,3.866777122E-1
6.047259693E0,1.182024240E0,-9.920451641E-1,4.697553813E-1
6.052264693E0,1.174082994E0,-1.219897866E0,5.149593949E-1
6.057269693E0,1.185078621E0,-1.599856019E0,5.742133260E-1
6.062274693E0,1.252273798E0,-1.905288696E0,6.487388611E-1
6.067279693E0,1.329853654E0,-2.154521704E0,7.122688890E-1
6.072283693E0,1.378722906E0,-2.321287870E0,7.776314616E-1
6.077288693E0,1.348179579E0,-2.378098488E0,8.185594082E-1
6.082293693E0,1.157589674E0,-2.342668295E0,8.075638413E-1
6.087298693E0,9.126327038E-1,-2.069000483E0,7.226535678E-1
6.092242693E0,6.304129362E-1,-1.632842779E0,6.041457057E-1
6.097247693E0,3.481931984E-1,-1.078788042E0,4.648684561E-1
6.102252693E0,5.986479297E-2,-4.624249935E-1,3.433062732E-1
6.107257693E0,-2.095267773E-1,1.368338168E-1,2.296853364E-1
6.112261693E0,-5.057964325E-1,7.153232098E-1,1.887573600E-1
6.117266693E0,-6.994407177E-1,1.340849161E0,2.706133127E-1
6.122271693E0,-8.643743396E-1,1.774563551E0,4.508185387E-1
6.127276693E0,-9.908234477E-1,2.199725866E0,6.560692787E-1
6.133257693E0,-1.076955438E0,2.654209375E0,8.704829812E-1
6.138262693E0,-1.059240341E0,2.819753885E0,9.370672703E-1
6.143267693E0,-9.578366876E-1,2.693915844E0,8.698720932E-1
6.148272693E0,-7.531968355E-1,2.130087137E0,6.597344875E-1
6.153277693E0,-5.070181489E-1,1.485624313E0,4.844161272E-1
6.158282693E0,-2.510656118E-1,8.313875794E-1,2.926044464E-1
6.163287693E0,-5.314527452E-2,2.162462920E-1,9.224065393E-2
6.168292693E0,8.674286306E-2,-2.907718420E-1,-8.979719132E-2
6.173296693E0,2.528982162E-1,-5.393940210E-1,-2.480112910E-1
6.178301693E0,4.728097022E-1,-4.544837475E-1,-4.654793143E-1
6.183245693E0,5.094616413E-1,-2.932153046E-1,-6.957755089E-1
6.188250693E0,3.878994286E-1,-2.626720667E-1,-9.529497623E-1
6.193255693E0,1.887573600E-1,-3.207042515E-1,-1.193019867E0
6.198260693E0,4.886921961E-3,-2.730567753E-1,-1.376890302E0
6.203265693E0,-1.783726513E-1,1.056796908E-1,-1.478904724E0
6.208269693E0,-5.381723046E-1,1.117272496E0,-1.478293896E0
6.213274693E0,-9.822713137E-1,2.287079573E0,-1.370170712E0
6.218279693E0,-1.523497939E0,3.549127102E0,-1.172250390E0
6.223284693E0,-2.045787811E0,4.617530346E0,-1.003651619E0
6.228106693E0,-2.536312580E0,5.386609554E0,-9.718865752E-1
6.233294693E0,-2.723848104E0,5.549710751E0,-9.877691269E-1
6.238299693E0,-2.911383867E0,5.418374538E0,-1.013425469E0
6.243242693E0,-3.000570059E0,5.042692661E0,-9.969320893E-1
6.248247693E0,-3.040887117E0,4.438546658E0,-9.144652486E-1
6.253194693E0,-2.992628813E0,3.678019524E0,-7.812966704E-1
6.258260693E0,-2.779436827E0,2.797152042E0,-6.273586154E-1
6.263265693E0,-2.404976368E0,1.816713214E0,-4.605923891E-1
6.268269693E0,-1.861306429E0,5.699372888E-1,-2.761110961E-1
6.273274693E0,-1.579697490E0,-1.716531366E-1,-1.857030392E-1
6.278279693E0,-1.519221902E0,-4.428772926E-1,-1.178969890E-1
6.283284693E0,-1.614516854E0,-2.150245607E-1,-5.803219974E-2
6.288289693E0,-1.806328535E0,3.903428912E-1,-2.443460980E-3
6.293294693E0,-2.003027201E0,1.193630695E0,-6.108652451E-4
6.298299693E0,-2.214997292E0,2.225382090E0,-8.124507964E-2
6.303242693E0,-2.342668295E0,2.875953674E0,-2.089159191E-1
6.308247693E0,-2.416582823E0,3.229644537E0,-3.891211748E-1
6.314290693E0,-2.415361166E0,3.246748686E0,-6.652322412E-1
6.319295693E0,-2.315179348E0,3.017063379E0,-9.077457786E-1
6.324300693E0,-2.171625853E0,2.623666286E0,-1.122770309E0
6.329243693E0,-2.008524895E0,2.130697966E0,-1.288925648E0
6.334248693E0,-1.799609065E0,1.518000126E0,-1.388496757E0
6.339253693E0,-1.646892667E0,1.186300278E0,-1.379333735E0
6.344258693E0,-1.509448051E0,1.076955438E0,-1.322523236E0
6.349263693E0,-1.404379249E0,1.122770309E0,-1.258382440E0
6.354268693E0,-1.339627504E0,1.236391306E0,-1.213789225E0
6.359273693E0,-1.277930140E0,1.368949056E0,-1.196684957E0
6.364277693E0,-1.208291411E0,1.475239515E0,-1.192408919E0
6.369282693E0,-1.155757070E0,1.486845970E0,-1.175304770E0
6.374287693E0,-1.161254883E0,1.437976837E0,-1.106276989E0
6.379292693E0,-1.202793717E0,1.403157473E0,-1.001208186E0
6.384297693E0,-1.274264932E0,1.398270488E0,-8.943067193E-1
6.389241693E0,-1.373225093E0,1.442252874E0,-8.038986921E-1
6.394246693E0,-1.483180761E0,1.577864885E0,-7.391469479E-1
6.399251693E0,-1.567480206E0,1.736689925E0,-7.263187766E-1
6.404255693E0,-1.609629869E0,1.871080279E0,-7.440338731E-1
6.409260693E0,-1.618182063E0,1.992031574E0,-7.794640660E-1
6.414265693E0,-1.594969153E0,2.030516148E0,-8.307767510E-1
6.419270693E0,-1.568091035E0,1.976149082E0,-9.120218158E-1
6.424275693E0,-1.551597714E0,1.798998117E0,-9.718865752E-1
6.429280693E0,-1.561371565E0,1.612073421E0,-1.021977544E0
6.434285693E0,-1.585806131E0,1.438587666E0,-1.084285855E0
6.439289693E0,-1.616960287E0,1.277930140E0,-1.138652802E0
6.444294693E0,-1.634064555E0,1.125213742E0,-1.188743711E0
6.449299693E0,-1.642616630E0,9.718865752E-1,-1.233336926E0
6.454243693E0,-1.627955914E0,9.156870246E-1,-1.263269305E0
6.459248693E0,-1.582141042E0,9.053022861E-1,-1.269988894E0
6.464253693E0,-1.537547827E0,9.181304574E-1,-1.262047648E0
6.469258693E0,-1.489900351E0,9.266825914E-1,-1.233336926E0
6.474263693E0,-1.435533285E0,9.486737251E-1,-1.182635069E0
6.479267693E0,-1.327410221E0,9.578366876E-1,-1.104444385E0
6.484272693E0,-1.231504321E0,9.480628371E-1,-1.039081812E0
6.489277693E0,-1.152702689E0,9.279043078E-1,-9.718865752E-1
6.495259693E0,-1.079398870E0,9.327912331E-1,-9.028588533E-1
6.500263693E0,-1.037860036E0,9.541715384E-1,-8.442157507E-1
6.505268693E0,-9.608910084E-1,9.639453292E-1,-7.739662528E-1
6.510273693E0,-8.631525636E-1,9.480628371E-1,-7.134906054E-1
6.515278693E0,-7.183775306E-1,8.790351152E-1,-6.346889734E-1
6.520283693E0,-6.212499738E-1,8.185594082E-1,-5.766568184E-1
6.525288693E0,-5.363397002E-1,7.531968355E-1,-5.296201706E-1
6.530293693E0,-4.361577928E-1,6.835582256E-1,-4.880813360E-1
6.535298693E0,-3.029891551E-1,6.224716902E-1,-4.721988440E-1
6.540241693E0,-1.618792862E-1,5.815436840E-1,-4.838052690E-1
6.545246693E0,4.886921961E-3,5.705481172E-1,-5.186246037E-1
6.550251693E0,8.918632567E-2,5.564982295E-1,-5.393940210E-1
6.555256693E0,1.240056455E-1,5.119050741E-1,-5.247332454E-1
6.560261693E0,1.099557430E-1,4.795292318E-1,-4.758640230E-1
6.565266693E0,6.780604273E-2,4.874704778E-1,-4.013384581E-1
6.570271693E0,2.076941915E-2,5.430592299E-1,-3.268128932E-1
6.575275693E0,-2.809980139E-2,6.133087277E-1,-2.278527319E-1
6.580280693E0,-3.481931984E-2,6.731734872E-1,-1.478293836E-1
6.585285693E0,-1.832595794E-3,7.672467232E-1,-6.902777404E-2
6.590290693E0,5.192354694E-2,8.827002645E-1,-7.330383174E-3
6.595295693E0,1.343903542E-1,9.749409556E-1,3.909537569E-2
6.600300693E0,2.675589919E-1,1.007316828E0,9.468411654E-2
6.605244693E0,4.721988440E-1,9.303477407E-1,1.368338168E-1
6.610249693E0,6.530149579E-1,7.916813493E-1,1.869247705E-1
6.615253693E0,8.277224302E-1,5.864306092E-1,2.504547536E-1
6.620258693E0,9.743300676E-1,3.414736688E-1,3.506366611E-1
6.625263693E0,1.094670534E0,1.075122803E-1,4.825835526E-1
6.630268693E0,1.209513187E0,-8.735372871E-2,6.389650702E-1
6.635273693E0,1.379944563E0,-3.170390725E-1,8.313875794E-1
6.640278693E0,1.572367191E0,-5.571091175E-1,9.877691269E-1
6.645283693E0,1.824654460E0,-8.411614299E-1,1.132544160E0
6.650287693E0,2.132530689E0,-1.087340117E0,1.278540969E0
6.655292693E0,2.427578449E0,-1.235169530E0,1.398881435E0
6.660114693E0,2.626109600E0,-1.273653984E0,1.500285029E0
6.665180693E0,2.704300404E0,-1.178359032E0,1.590082288E0
6.670246693E0,2.806925774E0,-9.993755221E-1,1.706757545E0
6.676288693E0,3.011565685E0,-7.690793276E-1,1.848478198E0
6.681293693E0,3.186883926E0,-6.346889734E-1,1.906510472E0
6.686298693E0,3.286454916E0,-6.145304441E-1,1.905288696E0
6.691242693E0,3.256522655E0,-7.153232098E-1,1.869247675E0
6.696247693E0,3.069597960E0,-8.625417352E-1,1.822211027E0
6.701252693E0,2.813645363E0,-9.101892114E-1,1.789835215E0
6.706257693E0,2.674978971E0,-8.020660877E-1,1.772120118E0
6.711261693E0,2.603507757E0,-5.742133260E-1,1.746463776E0
6.716266693E0,2.603507757E0,-2.602286041E-1,1.713477015E0
6.721271693E0,2.630385637E0,6.475171447E-2,1.685988069E0
6.726276693E0,2.649322510E0,3.243694305E-1,1.648725271E0
6.731281693E0,2.654209375E0,4.978551865E-1,1.631621122E0
6.736286693E0,2.657874584E0,5.039638281E-1,1.607797384E0
6.741291693E0,2.688417912E0,3.567453027E-1,1.590082288E0
6.746296693E0,2.729345798E0,5.742133409E-2,1.585806131E0
6.751300693E0,2.750115395E0,-3.671300113E-1,1.579086661E0
6.756244693E0,2.770884752E0,-8.588765264E-1,1.584584475E0
6.761249693E0,2.758056641E0,-1.455080986E0,1.577254057E0
6.766254693E0,2.706133127E0,-1.828319669E0,1.563814998E0
6.771259693E0,2.624887943E0,-2.078163624E0,1.558928132E0
6.776264693E0,2.528982162E0,-2.166738987E0,1.535104394E0
6.781269693E0,2.438574076E0,-2.114204645E0,1.523497939E0
6.786273693E0,2.321898699E0,-1.955379605E0,1.503950238E0
6.791278693E0,2.236988544E0,-1.803274155E0,1.475239515E0
6.796283693E0,2.168571711E0,-1.656055689E0,1.448361516E0
6.801288693E0,2.103819847E0,-1.542434692E0,1.432479024E0
6.806293693E0,2.059226751E0,-1.496008992E0,1.423316002E0
6.811298693E0,2.004248857E0,-1.567480206E0,1.433700681E0
6.816242693E0,1.933999419E0,-1.699427128E0,1.443474531E0
6.821247693E0,1.877799749E0,-1.869247675E0,1.439809442E0
6.826251693E0,1.824654460E0,-1.949270964E0,1.414763927E0
6.831256693E0,1.783726573E0,-1.966986060E0,1.353066564E0
6.836261693E0,1.761124492E0,-1.979814291E0,1.274264932E0
6.841266693E0,1.736689925E0,-2.018298864E0,1.181413412E0
6.846271693E0,1.694540143E0,-2.132530689E0,1.081231475E0
6.851276693E0,1.662164330E0,-2.211943150E0,1.014036298E0
6.856281693E0,1.623068929E0,-2.182010651E0,9.560040832E-1
6.861285693E0,1.575421453E0,-2.137417555E0,9.071348906E-1
6.866290693E0,1.531439185E0,-2.084882975E0,8.607091308E-1
6.871295693E0,1.487456918E0,-1.994475007E0,8.100073338E-1
6.876300693E0,1.450194120E0,-1.902234316E0,7.452555895E-1
6.881244693E0,1.405600905E0,-1.913840771E0,7.171558142E-1
6.886249693E0,1.339627504E0,-1.959044814E0,7.116580009E-1
6.891254693E0,1.257771492E0,-2.046398640E0,7.159340382E-1
6.896259693E0,1.190576315E0,-2.119702339E0,7.086036801E-1
6.901263693E0,1.128878951E0,-2.166128159E0,6.884451509E-1
6.906268693E0,1.061683774E0,-2.251038313E0,6.462954283E-1
6.911273693E0,1.002429843E0,-2.300518513E0,5.998696685E-1
6.916278693E0,9.541715384E-1,-2.321898699E0,5.491678715E-1
6.921283693E0,8.888089061E-1,-2.284636021E0,4.929682612E-1
6.926288693E0,8.051204085E-1,-2.191784382E0,4.318817258E-1
6.931293693E0,6.982190013E-1,-2.074498415E0,3.640756905E-1
6.936297693E0,5.400048494E-1,-1.939497113E0,2.871066630E-1
6.941241693E0,3.915646076E-1,-1.860084653E0,2.364048511E-1
6.946246693E0,2.376265824E-1,-1.792889476E0,1.857030392E-1
6.951251693E0,7.208210230E-2,-1.734857321E0,1.337794960E-1
6.956256693E0,-1.038470939E-1,-1.669494748E0,7.330382615E-2
6.961261693E0,-2.907718420E-1,-1.576643229E0,2.809980139E-2
6.966266693E0,-5.528330207E-1,-1.390329242E0,-1.221730467E-2
6.971271693E0,-7.550294399E-1,-1.249219418E0,-4.153883830E-2
6.976275693E0,-9.535606503E-1,-1.139263630E0,-7.513642311E-2
6.981280693E0,-1.144761443E0,-1.026864529E0,-9.407325089E-2
6.986285693E0,-1.330464482E0,-8.979719281E-1,-1.032362282E-1
6.991290693E0,-1.511891484E0,-7.428121567E-1,-9.346238524E-2
6.996295693E0,-1.712866187E0,-5.412266254E-1,-7.391469181E-2
7.001300693E0,-1.872912884E0,-3.781255782E-1,-5.742133409E-2
7.006244693E0,-2.003027201E0,-2.113593817E-1,-3.237585723E-2
7.011248693E0,-2.121535063E0,-3.726277873E-2,-1.038470957E-2
7.016253693E0,-2.200947523E0,1.374446750E-1,1.404990070E-2
7.021258693E0,-2.266309977E0,3.084869385E-1,2.748893574E-2
7.026263693E0,-2.302962065E0,4.685336351E-1,1.954768784E-2
7.031268693E0,-2.277916431E0,5.314527750E-1,-5.497787148E-3
7.036273693E0,-2.213164806E0,5.595525503E-1,-5.619960278E-2
7.041278693E0,-2.084272146E0,5.522221923E-1,-1.295034289E-1
7.046283693E0,-1.903456092E0,5.027421117E-1,-2.113593817E-1
7.051287693E0,-1.565647602E0,3.677408695E-1,-2.791654170E-1
7.056292693E0,-1.206458807E0,1.753183305E-1,-2.681698501E-1
7.061297693E0,-7.922922373E-1,8.552113548E-3,-2.034181207E-1
7.066241693E0,-3.316998184E-1,-2.419026345E-1,-1.123992056E-1
7.071246693E0,1.130100712E-1,-6.163630486E-1,7.941247895E-3
7.076068693E0,5.705481172E-1,-1.135598540E0,1.698205322E-1
7.081256693E0,7.825183868E-1,-1.359786034E0,2.675589919E-1
7.086260693E0,8.741481900E-1,-1.555262923E0,3.225368559E-1
7.091265693E0,8.906415105E-1,-1.610240817E0,3.769038618E-1
7.096270693E0,8.668177724E-1,-1.636507988E0,4.184426963E-1
7.101275693E0,8.313875794E-1,-1.667051196E0,4.660901725E-1
7.106280693E0,8.069530129E-1,-1.687209845E0,5.131267905E-1
7.111285693E0,7.574729323E-1,-1.642616630E0,5.510004759E-1
7.116290693E0,6.902777553E-1,-1.544267297E0,5.552765131E-1
7.121295693E0,6.090326309E-1,-1.440420270E0,5.363397002E-1
7.126299693E0,5.381723046E-1,-1.350623012E0,4.923573732E-1
7.131243693E0,4.838052690E-1,-1.207680583E0,4.465425014E-1
7.136248693E0,4.092797041E-1,-9.242390990E-1,3.903428912E-1
7.141253693E0,3.139847219E-1,-4.007275999E-1,3.323107064E-1
7.146258693E0,3.036000133E-1,2.626720630E-2,2.614503205E-1
7.151263693E0,3.145956099E-1,3.292563558E-1,1.960877478E-1
7.156268693E0,3.445279896E-1,5.137376785E-1,1.783726513E-1
7.161272693E0,4.954117239E-1,6.640105247E-1,2.583959997E-1
7.166277693E0,7.299839854E-1,9.279043078E-1,4.202753007E-1
7.171282693E0,1.073901057E0,1.060462117E0,6.383541822E-1
7.176287693E0,1.171028733E0,9.059131742E-1,7.641924024E-1
7.181292693E0,9.676105380E-1,8.210029006E-1,7.794640660E-1
7.186297693E0,5.864306092E-1,8.973610401E-1,6.737843752E-1
7.191241693E0,7.147123665E-2,1.128268123E0,5.693264008E-1
7.196246693E0,-4.893030524E-1,1.324355841E0,4.984660447E-1
7.201250693E0,-1.015868902E0,1.358564258E0,3.585779071E-1
7.206255693E0,-1.189354658E0,1.162476540E0,1.692096740E-1
7.211260693E0,-1.193019867E0,7.018841505E-1,-1.075122803E-1
7.216265693E0,-1.021977544E0,-4.092797264E-2,-4.227187634E-1
7.221270693E0,-7.312057018E-1,-9.254608750E-1,-7.293730974E-1
7.226275693E0,-4.807509482E-1,-1.431257248E0,-1.014036298E0
7.231280693E0,-4.288274050E-1,-1.056796908E0,-1.252273798E0
7.236285693E0,-6.951646209E-1,-1.594358236E-1,-1.271821499E0
7.241289693E0,-1.144150615E0,1.032973170E0,-1.185689449E0
7.246294693E0,-1.623679876E0,2.306016207E0,-1.114829063E0
7.251241693E0,-2.015855312E0,3.484375477E0,-1.062294602E0
7.256246693E0,-2.279749155E0,4.413501263E0,-1.040303469E0
7.261250693E0,-2.557081938E0,5.015203476E0,-1.109331250E0
7.266255693E0,-2.756834745E0,5.008484364E0,-1.207069755E0
7.271260693E0,-2.903442621E0,4.648684502E0,-1.257160664E0
7.276265693E0,-2.906496763E0,4.073249340E0,-1.203404546E0
7.281270693E0,-2.778825998E0,3.327993870E0,-1.008538485E0
7.286275693E0,-2.562579632E0,2.447736979E0,-7.153232098E-1
7.291280693E0,-2.265088320E0,1.312138557E0,-3.347541690E-1
7.296284693E0,-2.089159250E0,6.847799420E-1,-9.407325089E-2
7.301289693E0,-2.010357618E0,4.612032473E-1,4.642575979E-2
7.306294693E0,-2.007914066E0,5.974262357E-1,9.040805697E-2
7.311299693E0,-2.057394028E0,9.352346659E-1,5.864306539E-2
7.316243693E0,-2.117259026E0,1.387274981E0,-2.199114859E-2
7.321248693E0,-2.174680233E0,1.968818665E0,-1.288925707E-1
7.326253693E0,-2.180788994E0,2.376876593E0,-2.223549485E-1
7.331258693E0,-2.177123785E0,2.715296030E0,-3.524692357E-1
7.336262693E0,-2.170404196E0,2.944370508E0,-5.210680366E-1
7.341267693E0,-2.157576084E0,2.967583418E0,-7.018841505E-1
7.346272693E0,-2.133141518E0,2.798373699E0,-9.162978530E-1
7.351277693E0,-2.066557169E0,2.428800106E0,-1.059240341E0
7.356282693E0,-1.991420746E0,2.055561543E0,-1.151481032E0
7.361287693E0,-1.913229942E0,1.733635545E0,-1.211956620E0
7.366292693E0,-1.836871743E0,1.507004619E0,-1.219897866E0
7.371296693E0,-1.767233133E0,1.384220600E0,-1.204626322E0
7.376301693E0,-1.692707539E0,1.346346974E0,-1.175304770E0
7.381245693E0,-1.637729764E0,1.378111959E0,-1.159422278E0
7.386250693E0,-1.583362699E0,1.439198494E0,-1.138041973E0
7.391255693E0,-1.549765110E0,1.541823864E0,-1.089172721E0
7.396199693E0,-1.546710849E0,1.685988069E0,-1.007927656E0
7.401265693E0,-1.558928132E0,1.808161139E0,-9.187413454E-1
7.407246693E0,-1.588860512E0,1.884519339E0,-8.100073338E-1
7.412251693E0,-1.616960287E0,1.884519339E0,-7.458664775E-1
7.417256693E0,-1.665218711E0,1.811215401E0,-7.299839854E-1
7.422261693E0,-1.700037956E0,1.762346268E0,-7.519751191E-1
7.427266693E0,-1.739133358E0,1.716531396E0,-7.971791625E-1
7.432270693E0,-1.770898342E0,1.679268599E0,-8.417723179E-1
7.437275693E0,-1.778228760E0,1.679268599E0,-8.820894361E-1
7.442280693E0,-1.761735320E0,1.610851645E0,-9.272934198E-1
7.447285693E0,-1.728748679E0,1.504561067E0,-9.779952765E-1
7.452290693E0,-1.679268599E0,1.359786034E0,-1.023199320E0
7.457295693E0,-1.637118816E0,1.233947754E0,-1.071457624E0
7.462300693E0,-1.604132175E0,1.133154988E0,-1.109942198E0
7.467244693E0,-1.583362699E0,1.027475357E0,-1.144150615E0
7.472248693E0,-1.547321677E0,8.918632865E-1,-1.175915599E0
7.477253693E0,-1.502728462E0,7.171558142E-1,-1.208291411E0
7.482258693E0,-1.441031098E0,6.175847650E-1,-1.227839112E0
7.487263693E0,-1.389718413E0,5.626068711E-1,-1.228450060E0
7.492268693E0,-1.348179579E0,5.296201706E-1,-1.213789225E0
7.498249693E0,-1.338405728E0,5.180137157E-1,-1.162476540E0
7.503254693E0,-1.331686258E0,5.522221923E-1,-1.103222609E0
7.508259693E0,-1.310916781E0,6.432411075E-1,-1.040914416E0
7.513264693E0,-1.282817006E0,7.751879692E-1,-9.883799553E-1
7.518269693E0,-1.260825872E0,8.991936445E-1,-9.450085163E-1
7.523274693E0,-1.247386813E0,1.009760261E0,-8.998045325E-1
7.528279693E0,-1.219287038E0,1.086118460E0,-8.576548100E-1
7.533283693E0,-1.169806957E0,1.132544160E0,-8.197811842E-1
7.538288693E0,-1.047633886E0,1.136820197E0,-7.715228200E-1
7.543293693E0,-9.040805697E-1,1.089783549E0,-7.208209634E-1
7.548298693E0,-7.434229851E-1,9.816604257E-1,-6.652322412E-1
7.553242693E0,-6.035348773E-1,8.491026759E-1,-6.041457057E-1
7.558247693E0,-4.813618064E-1,7.324274182E-1,-5.516113043E-1
7.563252693E0,-3.848451078E-1,6.603453159E-1,-5.070181489E-1
7.568256693E0,-2.577851415E-1,5.888741016E-1,-4.703662395E-1
7.573261693E0,-1.563815027E-1,5.619960427E-1,-4.532620013E-1
7.579243693E0,-1.771509275E-2,5.607742667E-1,-4.300491214E-1
7.584248693E0,6.291911751E-2,5.619960427E-1,-4.013384581E-1
7.589252693E0,1.105666086E-1,5.534439087E-1,-3.555235863E-1
7.594257693E0,1.197295859E-1,5.503895879E-1,-2.919935882E-1
7.599262693E0,1.056796908E-1,5.601634383E-1,-2.266310006E-1
7.604267693E0,9.162978828E-2,6.017022729E-1,-1.514945775E-1
7.609272693E0,9.346238524E-2,6.695083380E-1,-7.391469181E-2
7.614277693E0,1.056796908E-1,7.507534027E-1,-6.108652451E-4
7.619282693E0,1.240056455E-1,8.173376918E-1,7.086037099E-2
7.624287693E0,1.673770845E-1,8.674286604E-1,1.301143020E-1
7.629291693E0,2.773328125E-1,8.930850029E-1,1.795943826E-1
7.634296693E0,4.996877611E-1,8.436049223E-1,1.905899495E-1
7.639301693E0,7.079927921E-1,7.318165898E-1,2.095267773E-1
7.644245693E0,9.059131742E-1,5.497786999E-1,2.577851415E-1
7.649250693E0,1.085507512E0,3.225368559E-1,3.359758854E-1
7.654255693E0,1.258382440E0,9.162978828E-2,4.514294267E-1
7.659260693E0,1.437976837E0,-1.386664063E-1,5.943718553E-1
7.664264693E0,1.632842779E0,-4.440990388E-1,7.984008789E-1
7.669269693E0,1.801441550E0,-7.489207983E-1,9.731083512E-1
7.674274693E0,2.009746552E0,-1.070235968E0,1.143539786E0
7.679279693E0,2.269364357E0,-1.299921274E0,1.310305953E0
7.684284693E0,2.571742773E0,-1.375668526E0,1.455691934E0
7.689289693E0,2.830749512E0,-1.328021049E0,1.583362699E0
7.694294693E0,2.946814060E0,-1.087950945E0,1.696983695E0
7.699299693E0,3.031724215E0,-8.087855577E-1,1.795943856E0
7.704242693E0,3.126408339E0,-5.375614166E-1,1.871691108E0
7.709247693E0,3.223536015E0,-3.799581826E-1,1.893682241E0
7.714252693E0,3.260187864E0,-4.153883755E-1,1.836260915E0
7.719257693E0,3.218648911E0,-6.285803318E-1,1.701870561E0
7.724262693E0,3.083036900E0,-9.841039181E-1,1.624901533E0
7.729267693E0,2.929709673E0,-1.136820197E0,1.583973527E0
7.734272693E0,2.780658484E0,-1.050688267E0,1.565036774E0
7.739277693E0,2.646879196E0,-7.318165898E-1,1.543656468E0
7.744281693E0,2.556471109E0,-3.145956099E-1,1.527163148E0
7.749286693E0,2.509434462E0,5.497787148E-2,1.520443559E0
7.754291693E0,2.514321327E0,3.842342496E-1,1.522276163E0
7.760273693E0,2.562579632E0,5.522221923E-1,1.526552200E0
7.765277693E0,2.640770435E0,5.583308339E-1,1.527773976E0
7.770282693E0,2.720793724E0,4.227187634E-1,1.536326051E0
7.775287693E0,2.784934759E0,1.490511149E-1,1.570534587E0
7.780292693E0,2.831971169E0,-2.284636050E-1,1.618182063E0
7.785297693E0,2.822808266E0,-6.805039048E-1,1.684155464E0
7.790241693E0,2.755002260E0,-1.292590857E0,1.725083470E0
7.795246693E0,2.629163980E0,-1.704924941E0,1.736689925E0
7.800250693E0,2.478891134E0,-1.976759911E0,1.722029090E0
7.805255693E0,2.328618288E0,-2.081828833E0,1.692096710E0
7.810260693E0,2.211943150E0,-2.023796558E0,1.662164330E0
7.815265693E0,2.104430676E0,-1.761124492E0,1.610851645E0
7.820270693E0,2.040289879E0,-1.458746195E0,1.576032281E0
7.825275693E0,1.966986060E0,-1.200961113E0,1.547321677E0
7.830280693E0,1.879021525E0,-1.044579625E0,1.535104394E0
7.835285693E0,1.798998117E0,-1.018923283E0,1.535715222E0
7.840289693E0,1.726305127E0,-1.137431145E0,1.580919266E0
7.845294693E0,1.642005801E0,-1.431257248E0,1.665829539E0
7.850299693E0,1.593747377E0,-1.732413888E0,1.735468149E0
7.855243693E0,1.560760736E0,-1.987755537E0,1.760513663E0
7.860248693E0,1.605353832E0,-2.145358801E0,1.726305127E0
7.865253693E0,1.692096710E0,-2.204612732E0,1.637729764E0
7.870258693E0,1.790446043E0,-2.251038313E0,1.513724089E0
7.875262693E0,1.880243182E0,-2.319455385E0,1.345125318E0
7.880267693E0,1.897347450E0,-2.387872219E0,1.230282545E0
7.885272693E0,1.876578093E0,-2.442850113E0,1.131322384E0
7.890277693E0,1.838093519E0,-2.393369913E0,1.025642753E0
7.895282693E0,1.789224267E0,-2.213164806E0,9.309586287E-1
7.900287693E0,1.718363881E0,-2.067778826E0,8.533787727E-1
7.905292693E0,1.617571115E0,-1.994475007E0,7.709119320E-1
7.910297693E0,1.535715222E0,-2.020742178E0,7.348709106E-1
7.915301693E0,1.458746195E0,-2.056783199E0,7.183775306E-1
7.920245693E0,1.386053205E0,-2.047620296E0,7.086036801E-1
7.925250693E0,1.320079803E0,-2.034181356E0,6.927211881E-1
7.930255693E0,1.231504321E0,-2.092824221E0,6.792821288E-1
7.935260693E0,1.108720422E0,-2.193617105E0,6.591235995E-1
7.940265693E0,1.006705880E0,-2.235766888E0,6.322455406E-1
7.945270693E0,9.071348906E-1,-2.224160433E0,5.974262357E-1
7.950274693E0,8.087855577E-1,-2.163684607E0,5.461135507E-1
7.955279693E0,7.086036801E-1,-2.078163624E0,4.899139404E-1
7.960284693E0,5.992587805E-1,-1.988366365E0,4.324925840E-1
7.965289693E0,4.318817258E-1,-1.901623487E0,3.744603992E-1
7.970294693E0,2.681698501E-1,-1.808161139E0,3.433062732E-1
7.975299693E0,8.674286306E-2,-1.744631171E0,3.029891551E-1
7.980243693E0,-1.056796908E-1,-1.703703165E0,2.480112910E-1
7.985248693E0,-3.176499307E-1,-1.648725271E0,1.710422635E-1
7.990252693E0,-5.369505286E-1,-1.598634362E0,9.040805697E-2
7.995257693E0,-8.130616546E-1,-1.530217409E0,6.719517522E-3
8.000262693E0,-1.002429843E0,-1.453248382E0,-5.925392732E-2
8.005267693E0,-1.175304770E0,-1.387885809E0,-1.288925707E-1
8.010272693E0,-1.321301579E0,-1.315192819E0,-1.704314053E-1
8.015277693E0,-1.455691934E0,-1.202793717E0,-2.058615834E-1
8.020282693E0,-1.580308437E0,-1.061072946E0,-2.345722616E-1
8.025287693E0,-1.725694299E0,-8.558222055E-1,-2.351831198E-1
8.030291693E0,-1.857641220E0,-6.762278080E-1,-2.339613885E-1
8.035296693E0,-1.987755537E0,-4.715879560E-1,-2.290744632E-1
8.040118693E0,-2.164906502E0,-1.912008226E-1,-2.101376504E-1
8.045245693E0,-2.271807909E0,-1.282817032E-2,-1.905899495E-1
8.050250693E0,-2.409863472E0,2.095267773E-1,-1.417207420E-1
8.055255693E0,-2.544253826E0,4.569272101E-1,-1.136209369E-1
8.060260693E0,-2.558303595E0,5.913175344E-1,-1.020144969E-1
8.065264693E0,-2.450791359E0,6.627888083E-1,-1.062905490E-1
8.070269693E0,-2.218662500E0,6.646214128E-1,-1.356120855E-1
8.075274693E0,-1.884519339E0,6.035348773E-1,-1.698205322E-1
8.080279693E0,-1.497230768E0,5.210680366E-1,-1.985312104E-1
8.085284693E0,-9.676105380E-1,3.915646076E-1,-1.850921661E-1
8.090289693E0,-5.320636034E-1,2.205223590E-1,-1.618792862E-1
8.095294693E0,-1.062905490E-1,-8.246681094E-2,-9.651670605E-2
8.100299693E0,2.822197378E-1,-5.198463202E-1,9.162978269E-3
8.105059693E0,6.359107494E-1,-1.125213742E0,1.734857261E-1
8.110247693E0,7.648032904E-1,-1.465465665E0,2.840523422E-1
8.115252693E0,9.230173826E-1,-1.908953905E0,3.219259977E-1
8.120257693E0,1.039692640E0,-2.167349815E0,3.799581826E-1
8.125262693E0,1.142318010E0,-2.347555161E0,5.070181489E-1
8.130267693E0,1.231504321E0,-2.454456568E0,6.554583907E-1
8.135272693E0,1.279151797E0,-2.495995283E0,7.770205736E-1
8.140276693E0,1.268156290E0,-2.444071770E0,8.271115422E-1
8.145281693E0,1.166752577E0,-2.255925417E0,7.935139537E-1
8.150286693E0,1.028697014E0,-2.024407387E0,7.232644558E-1
8.155291693E0,9.138544202E-1,-1.753794074E0,6.621779203E-1
8.160296693E0,7.519751191E-1,-1.415985584E0,5.913175344E-1
8.165301693E0,5.131267905E-1,-9.523389339E-1,5.192354321E-1
8.170245693E0,1.875356287E-1,-3.946189582E-1,4.801400900E-1
8.175250693E0,-1.062905490E-1,4.966334403E-1,4.856378734E-1
8.180254693E0,-4.386012554E-1,1.246775985E0,4.923573732E-1
8.185259693E0,-8.173376918E-1,1.909564734E0,5.119050741E-1
8.190264693E0,-1.168585181E0,2.440406561E0,4.893030524E-1
8.195269693E0,-1.387274981E0,2.803871393E0,4.184426963E-1
8.200274693E0,-1.477072120E0,3.004846096E0,2.657263875E-1
8.205279693E0,-1.514945865E0,3.015841722E0,1.313360333E-1
8.210284693E0,-1.495398164E0,2.725069761E0,3.054326167E-3
8.215288693E0,-1.299921274E0,2.028683424E0,-4.948008433E-2
8.220293693E0,-9.248499870E-1,9.804387093E-1,5.436700583E-2
8.225298693E0,-2.852740586E-1,-1.533271819E-1,2.034181207E-1
8.230242693E0,6.597344875E-1,-1.010982037E0,2.028072625E-1
8.235247693E0,9.993755221E-1,-9.877691269E-1,9.468411654E-2
8.240252693E0,1.034194827E0,-7.959573865E-1,-3.543018550E-2
8.245257693E0,8.698720932E-1,-6.151412725E-1,-1.716531366E-1
8.250262693E0,5.772676468E-1,-5.534439087E-1,-3.066543639E-1
8.255269693E0,2.254092693E-1,-5.864306092E-1,-4.819726646E-1
8.260274693E0,-2.217440903E-1,-4.172209501E-1,-7.006624341E-1
8.265279693E0,-5.632177591E-1,1.557706445E-1,-8.106181622E-1
8.270284693E0,-9.639453292E-1,1.171639562E0,-7.800748944E-1
8.275288693E0,-1.455691934E0,2.528371334E0,-6.682865620E-1
8.280293693E0,-1.936442852E0,3.920533180E0,-5.687155724E-1
8.285298693E0,-2.321287870E0,4.994434357E0,-5.516113043E-1
8.290242693E0,-2.706743956E0,5.676770687E0,-7.165449262E-1
8.295247693E0,-2.962085485E0,5.755572319E0,-9.272934198E-1
8.300252693E0,-3.121521473E0,5.488624096E0,-1.125824690E0
8.305257693E0,-3.168558121E0,4.925406456E0,-1.258382440E0
8.310261693E0,-3.040276289E0,4.138612270E0,-1.297477722E0
8.315266693E0,-2.717128515E0,3.156951666E0,-1.254717231E0
8.320271693E0,-2.186897516E0,1.774563551E0,-1.075122833E0
8.325276693E0,-1.832595706E0,7.519751191E-1,-8.875871897E-1
8.330281693E0,-1.663386106E0,8.491026610E-2,-7.342600226E-1
8.335286693E0,-1.670105577E0,-1.899790913E-1,-5.955936313E-1
8.340291693E0,-1.755626678E0,-7.513642311E-2,-4.489859641E-1
8.345296693E0,-1.874745488E0,3.463605940E-1,-2.767219543E-1
8.350300693E0,-2.015855312E0,1.100168347E0,-1.936442852E-1
8.355244693E0,-2.117869854E0,1.720807433E0,-1.649336219E-1
8.360249693E0,-2.204001904E0,2.230268955E0,-1.991420686E-1
8.365254693E0,-2.265699148E0,2.585181713E0,-2.816088796E-1
8.370259693E0,-2.316401005E0,2.708576441E0,-4.050036669E-1
8.375264693E0,-2.358550787E0,2.578462124E0,-5.803219676E-1
8.380269693E0,-2.335337877E0,2.204001904E0,-7.305948138E-1
8.385274693E0,-2.279138327E0,1.773952723E0,-8.814785480E-1
8.390278693E0,-2.188730240E0,1.299921274E0,-1.009149432E0
8.395283693E0,-2.067778826E0,8.888089061E-1,-1.094059706E0
8.400288693E0,-1.927279830E0,6.041457057E-1,-1.137431145E0
8.405293693E0,-1.722029090E0,4.984660447E-1,-1.177748203E0
8.410298693E0,-1.579697490E0,6.371324658E-1,-1.225395679E0
8.415242693E0,-1.470352650E0,8.081747293E-1,-1.276097536E0
8.420247693E0,-1.374446750E0,9.578366876E-1,-1.309084177E0
8.425251693E0,-1.337794900E0,1.072068453E0,-1.295645237E0
8.430256693E0,-1.337184072E0,1.172250390E0,-1.241278172E0
8.435261693E0,-1.363451242E0,1.246775985E0,-1.129489779E0
8.440266693E0,-1.408655286E0,1.340849161E0,-1.020144939E0
8.445271693E0,-1.464244008E0,1.474628687E0,-9.401215911E-1
8.450276693E0,-1.532050014E0,1.613295078E0,-8.582656980E-1
8.455281693E0,-1.594358325E0,1.742798567E0,-7.977899909E-1
8.460286693E0,-1.616349459E0,1.864971638E0,-7.733554244E-1
8.465290693E0,-1.586417079E0,1.919338584E0,-7.690793276E-1
8.470295693E0,-1.508837104E0,1.891849637E0,-8.100073338E-1
8.475300693E0,-1.417207360E0,1.811215401E0,-8.680394888E-1
8.480244693E0,-1.341460109E0,1.725694299E0,-9.364564419E-1
8.485249693E0,-1.299921274E0,1.652390480E0,-9.969320893E-1
8.490254693E0,-1.302364707E0,1.545489073E0,-1.061683774E0
8.495259693E0,-1.351844788E0,1.399492264E0,-1.125824690E0
8.500263693E0,-1.421483397E0,1.171639562E0,-1.167974353E0
8.505268693E0,-1.496619821E0,1.010371089E0,-1.202793717E0
8.510273693E0,-1.573588848E0,8.985827565E-1,-1.230893493E0
8.515278693E0,-1.631621122E0,8.277224302E-1,-1.261436701E0
8.520283693E0,-1.668883801E0,8.020660877E-1,-1.293201685E0
8.525288693E0,-1.677435994E0,8.142833710E-1,-1.326799273E0
8.530293693E0,-1.640784025E0,8.796459436E-1,-1.321301579E0
8.535298693E0,-1.561371565E0,9.779952765E-1,-1.290147424E0
8.540241693E0,-1.461800575E0,1.037249207E0,-1.251662850E0
8.545246693E0,-1.365283847E0,1.028086185E0,-1.188743711E0
8.550251693E0,-1.291369081E0,9.810495973E-1,-1.126435518E0
8.555256693E0,-1.216232657E0,9.248499870E-1,-1.055575132E0
8.560261693E0,-1.164309144E0,9.272934198E-1,-9.834930301E-1
8.565266693E0,-1.084285855E0,9.804387093E-1,-9.071348906E-1
8.570271693E0,-9.798278809E-1,1.052520871E0,-8.148942590E-1
8.575275693E0,-8.570439219E-1,1.105055213E0,-7.360926270E-1
8.580280693E0,-7.354817390E-1,1.106887817E0,-6.475171447E-1
8.585285693E0,-5.699372888E-1,1.059851170E0,-5.491678715E-1
8.590290693E0,-4.098905921E-1,1.040914416E0,-4.893030524E-1
8.595295693E0,-2.425135076E-1,1.025031924E0,-4.612032473E-1
8.600300693E0,-7.086037099E-2,9.712757468E-1,-4.550946057E-1
8.605244693E0,6.536258012E-2,8.723155856E-1,-4.410447180E-1
8.610249693E0,1.563815027E-1,7.635815740E-1,-4.184426963E-1
8.615253693E0,2.211332172E-1,7.061602473E-1,-3.457497358E-1
8.620258693E0,2.357939780E-1,7.544185519E-1,-2.742784917E-1
8.625263693E0,2.309070677E-1,8.411614299E-1,-1.789835095E-1
8.630268693E0,2.089159191E-1,9.407324791E-1,-6.597344577E-2
8.635273693E0,2.064724565E-1,1.012814522E0,3.054326214E-2
8.640278693E0,2.400700450E-1,1.022588372E0,1.044579595E-1
8.645283693E0,3.543018401E-1,9.535606503E-1,1.631010175E-1
8.650287693E0,4.880813360E-1,8.582656980E-1,1.887573600E-1
8.655292693E0,6.377432942E-1,7.562511563E-1,2.021963894E-1
8.661274693E0,8.429940343E-1,5.699372888E-1,2.406809032E-1
8.666279693E0,1.046412110E0,3.769038618E-1,2.913827300E-1
8.671284693E0,1.241278172E0,1.771509200E-1,3.854559660E-1
8.676288693E0,1.416596532E0,1.466076635E-2,5.736024380E-1
8.681293693E0,1.632842779E0,-1.997529417E-1,7.452555895E-1
8.686298693E0,1.813048005E0,-4.373795092E-1,9.254608750E-1
8.691242693E0,2.024407387E0,-7.061602473E-1,1.090394497E0
8.696247693E0,2.282803535E0,-8.881980777E-1,1.239445567E0
8.701252693E0,2.582738161E0,-9.474520087E-1,1.378722906E0
8.706257693E0,2.806314945E0,-8.943067193E-1,1.481959105E0
8.711261693E0,2.996904850E0,-7.476990819E-1,1.610851645E0
8.716266693E0,3.156951666E0,-5.894849896E-1,1.748296380E0
8.721271693E0,3.351206779E0,-4.465425014E-1,1.849699974E0
8.726276693E0,3.516751289E0,-3.457497358E-1,1.919338584E0
8.731281693E0,3.596774578E0,-3.500257730E-1,1.938886285E0
8.736286693E0,3.517972946E0,-4.948008358E-1,1.922392964E0
8.741291693E0,3.205209970E0,-7.312057018E-1,1.919949412E0
8.746296693E0,2.916270733E0,-8.069530129E-1,1.943162322E0
8.751300693E0,2.684141874E0,-6.615670323E-1,1.979203343E0
8.756244693E0,2.517375708E0,-3.457497358E-1,1.989588141E0
8.761249693E0,2.413528681E0,2.321287990E-2,1.979203343E0
8.766254693E0,2.364659309E0,3.506366611E-1,1.987144589E0
8.771259693E0,2.340224743E0,6.615670323E-1,1.980425119E0
8.776264693E0,2.332894325E0,7.678576112E-1,1.975538254E0
8.781269693E0,2.356718063E0,7.244861722E-1,1.979203343E0
8.786273693E0,2.425135136E0,5.522221923E-1,1.990198970E0
8.791278693E0,2.516154051E0,2.755002379E-1,1.997529387E0
8.796283693E0,2.623666286E0,-8.429940045E-2,2.017076969E0
8.801288693E0,2.685363531E0,-6.047565937E-1,2.017076969E0
8.806293693E0,2.703078747E0,-1.083674908E0,1.998140216E0
8.811298693E0,2.659096479E0,-1.616349459E0,1.953547001E0
8.816242693E0,2.587625265E0,-2.075720072E0,1.905899525E0
8.821247693E0,2.503325701E0,-2.387872219E0,1.839926124E0
8.826251693E0,2.376265764E0,-2.601675034E0,1.769065738E0
8.831256693E0,2.259590626E0,-2.719572067E0,1.726916075E0
8.836261693E0,2.141693592E0,-2.651155233E0,1.675603390E0
8.841266693E0,2.032348633E0,-2.449569702E0,1.640173197E0
8.846271693E0,1.937664509E0,-2.143526077E0,1.600466967E0
8.851276693E0,1.820989251E0,-1.873523712E0,1.603521228E0
8.856281693E0,1.669494748E0,-1.707368374E0,1.687209845E0
8.861285693E0,1.558317184E0,-1.752572417E0,1.784948230E0
8.866290693E0,1.453248382E0,-1.899180055E0,1.871691108E0
8.871295693E0,1.388496757E0,-2.118480682E0,1.905288696E0
8.876300693E0,1.378722906E0,-2.371989727E0,1.857641220E0
8.881244693E0,1.444085479E0,-2.603507757E0,1.763567924E0
8.886249693E0,1.594358325E0,-2.750726223E0,1.576032281E0
8.891254693E0,1.700648785E0,-2.827084303E0,1.404990077E0
8.896259693E0,1.773341775E0,-2.778215170E0,1.227839112E0
8.901263693E0,1.827097893E0,-2.630996704E0,1.056185961E0
8.906146693E0,1.809993744E0,-2.459343433E0,8.814785480E-1
8.911273693E0,1.739133358E0,-2.389093876E0,8.075638413E-1
8.916278693E0,1.636507988E0,-2.335337877E0,6.945537925E-1
8.921283693E0,1.588249683E0,-2.293798923E0,6.120869517E-1
8.926288693E0,1.548543453E0,-2.212553978E0,5.503895879E-1
8.931293693E0,1.518000126E0,-2.147802114E0,5.070181489E-1
8.936297693E0,1.461189628E0,-2.105041742E0,4.807509482E-1
8.941241693E0,1.390940189E0,-2.015855312E0,4.471533597E-1
8.946246693E0,1.289536476E0,-1.937664509E0,4.245513380E-1
8.951251693E0,1.182024240E0,-1.952936172E0,4.239404798E-1
8.956256693E0,1.065959811E0,-1.984701157E0,4.227187634E-1
8.961261693E0,9.547823668E-1,-1.958433986E0,4.129449129E-1
8.966266693E0,8.491026759E-1,-1.883908391E0,3.903428912E-1
8.971271693E0,7.556403279E-1,-1.802663326E0,3.604104817E-1
8.976275693E0,6.279694438E-1,-1.712866187E0,2.968805134E-1
8.981280693E0,5.265658498E-1,-1.688431501E0,2.302961946E-1
8.986285693E0,3.903428912E-1,-1.660942554E0,1.747074574E-1
8.991290693E0,2.296853364E-1,-1.646892667E0,1.374446750E-1
8.996295693E0,6.291911751E-2,-1.679879427E0,8.491026610E-2
9.001300693E0,-1.123992056E-1,-1.752572417E0,2.748893574E-2
9.006244693E0,-3.543018401E-1,-1.803274155E0,-5.375614017E-2
9.011248693E0,-5.595525503E-1,-1.785559058E0,-1.233947799E-1
9.016253693E0,-7.678576112E-1,-1.756237626E0,-1.869247705E-1
9.022296693E0,-1.042747021E0,-1.714087844E0,-2.700024247E-1
9.027301693E0,-1.249830246E0,-1.687820673E0,-3.225368559E-1
9.032245693E0,-1.442252874E0,-1.627955914E0,-3.530801237E-1
9.037249693E0,-1.614516854E0,-1.536326051E0,-3.726277947E-1
9.042254693E0,-1.814269781E0,-1.401935697E0,-3.457497358E-1
9.047259693E0,-1.945605755E0,-1.236391306E0,-3.219259977E-1
9.052264693E0,-2.067167997E0,-1.021977544E0,-2.919935882E-1
9.057086693E0,-2.173458576E0,-7.495316267E-1,-2.437352389E-1
9.062274693E0,-2.221106052E0,-5.693264008E-1,-2.095267773E-1
9.067279693E0,-2.275473118E0,-3.243694305E-1,-1.404990107E-1
9.072283693E0,-2.296242476E0,-1.710422710E-2,-9.468411654E-2
9.077288693E0,-2.274862289E0,2.266310006E-1,-6.597344577E-2
9.082293693E0,-2.196060658E0,4.239404798E-1,-5.436700583E-2
9.087298693E0,-2.047009468E0,5.644394755E-1,-8.063421398E-2
9.092242693E0,-1.831984878E0,6.291912198E-1,-1.240056455E-1
9.097247693E0,-1.544878244E0,5.797111392E-1,-1.350012124E-1
9.102252693E0,-1.041525245E0,4.196644127E-1,-9.896016866E-2
9.107257693E0,-5.516113043E-1,2.083050460E-1,-2.993239649E-2
9.112261693E0,-5.009094998E-2,-1.264491081E-1,6.536258012E-2
9.117266693E0,3.732386529E-1,-5.644394755E-1,1.728748679E-1
9.122271693E0,6.646214128E-1,-9.981538057E-1,2.883284092E-1
9.127276693E0,8.552113175E-1,-1.326799273E0,3.744603992E-1
9.132281693E0,9.266825914E-1,-1.546710849E0,3.988949955E-1
9.137286693E0,9.505063295E-1,-1.613295078E0,4.312708676E-1
9.142291693E0,9.364564419E-1,-1.632231951E0,4.770857692E-1
9.147295693E0,9.272934198E-1,-1.653612256E0,5.320636034E-1
9.152300693E0,9.071348906E-1,-1.662164330E0,5.852088928E-1
9.157244693E0,8.423831463E-1,-1.672549009E0,6.139195561E-1
9.162249693E0,6.792821288E-1,-1.682933807E0,5.833762884E-1
9.167254693E0,5.100724697E-1,-1.659720898E0,5.155702829E-1
9.172259693E0,3.561344445E-1,-1.535104394E0,4.331034720E-1
9.177264693E0,2.156354338E-1,-1.289536476E0,3.830125034E-1
9.182269693E0,7.269296050E-2,-9.309586287E-1,3.720169365E-1
9.187273693E0,-1.282817032E-2,-4.263839424E-1,3.048217595E-1
9.192278693E0,-1.160643995E-2,-1.282817032E-2,2.351831198E-1
9.197283693E0,3.848451003E-2,3.909537494E-1,1.899790913E-1
9.203265693E0,2.168571651E-1,9.431759119E-1,2.235766798E-1
9.208269693E0,4.416555762E-1,1.436755061E0,3.677408695E-1
9.213274693E0,6.493497491E-1,1.784337401E0,5.980370641E-1
9.218279693E0,7.635815740E-1,1.976149082E0,8.429940343E-1
9.223284693E0,6.084218025E-1,2.009746552E0,1.048855662E0
9.228289693E0,3.408628106E-1,1.838704348E0,1.067792416E0
9.233294693E0,1.710422710E-2,1.660942554E0,9.877691269E-1
9.238299693E0,-3.665191531E-1,1.554041147E0,9.095783234E-1
9.243242693E0,-7.599163651E-1,1.502117634E0,8.002334833E-1
9.248247693E0,-1.053742528E0,1.363451242E0,6.181956530E-1
9.253194693E0,-1.217454433E0,1.083064079E0,2.877175212E-1
9.258260693E0,-1.184467673E0,4.599815309E-1,-1.343903504E-2
9.263265693E0,-1.065959811E0,-1.753183305E-1,-2.767219543E-1
9.268269693E0,-8.918632865E-1,-7.800748944E-1,-5.357288122E-1
9.273274693E0,-7.446447611E-1,-1.034805775E0,-7.684684992E-1
9.278279693E0,-7.794640660E-1,-7.800748944E-1,-8.979719281E-1
9.283284693E0,-1.144761443E0,2.785545588E-1,-8.564330935E-1
9.288289693E0,-1.551597714E0,1.513724089E0,-7.727445364E-1
9.293294693E0,-1.899790883E0,2.788599730E0,-7.550294399E-1
9.298299693E0,-2.192395449E0,3.830125093E0,-8.283332586E-1
9.303242693E0,-2.434298038E0,4.548502445E0,-9.633345008E-1
9.308247693E0,-2.623055458E0,4.826446533E0,-1.145372391E0
9.313252693E0,-2.814867020E0,4.581489563E0,-1.342070937E0
9.318257693E0,-2.833803892E0,3.999334812E0,-1.395216227E0
9.323262693E0,-2.712852478E0,3.172834158E0,-1.291980028E0
9.328267693E0,-2.468506575E0,2.187508345E0,-1.061072946E0
9.333272693E0,-2.225992918E0,1.164309144E0,-7.452555895E-1
9.338277693E0,-2.063502789E0,3.530801237E-1,-4.221078753E-1
9.343281693E0,-1.957212210E0,1.649336144E-2,-1.343903542E-1
9.348286693E0,-1.939497113E0,2.400700450E-1,-9.162978269E-3
9.353291693E0,-1.982868552E0,6.921103001E-1,5.253441259E-2
9.358296693E0,-2.050674677E0,1.216843605E0,8.246681094E-2
9.363301693E0,-2.135584831E0,1.723861694E0,7.880161703E-2
9.368245693E0,-2.227214575E0,2.144747972E0,2.260201424E-2
9.373250693E0,-2.322509766E0,2.609005451E0,-1.496619880E-1
9.378254693E0,-2.375654936E0,2.811812639E0,-3.426954150E-1
9.384297693E0,-2.428800106E0,2.731178522E0,-5.931501389E-1
9.389241693E0,-2.425135136E0,2.459343433E0,-7.635815740E-1
9.394246693E0,-2.395202637E0,2.029294252E0,-8.845328689E-1
9.399251693E0,-2.346944332E0,1.550375938E0,-9.602801800E-1
9.404255693E0,-2.282803535E0,1.114218235E0,-9.853256345E-1
9.409260693E0,-2.181399822E0,6.835582256E-1,-9.810495973E-1
9.414265693E0,-2.085494041E0,4.972442985E-1,-9.615018964E-1
9.419270693E0,-1.971262097E0,4.459316432E-1,-9.547823668E-1
9.424275693E0,-1.852143407E0,4.990769029E-1,-9.816604257E-1
9.429280693E0,-1.742187738E0,6.157521605E-1,-1.031140566E0
9.434285693E0,-1.614516854E0,7.434229851E-1,-1.082453251E0
9.439289693E0,-1.516778350E0,8.106181622E-1,-1.130100727E0
9.444294693E0,-1.422705173E0,7.996225953E-1,-1.141096234E0
9.449299693E0,-1.378111959E0,7.757988572E-1,-1.103833556E0
9.454243693E0,-1.372614264E0,7.703011036E-1,-1.033583999E0
9.459248693E0,-1.370170712E0,8.521569967E-1,-9.822713137E-1
9.464253693E0,-1.411098719E0,9.712757468E-1,-9.272934198E-1
9.469258693E0,-1.477072120E0,1.134376764E0,-8.888089061E-1
9.474263693E0,-1.513113260E0,1.260825872E0,-8.668177724E-1
9.479267693E0,-1.530217409E0,1.345125318E0,-8.503243923E-1
9.484272693E0,-1.510669708E0,1.378111959E0,-8.576548100E-1
9.489277693E0,-1.466687441E0,1.408044338E0,-8.857545853E-1
9.494282693E0,-1.404379249E0,1.452637553E0,-9.211847782E-1
9.499287693E0,-1.357953429E0,1.470963478E0,-9.657779336E-1
9.504292693E0,-1.317636371E0,1.448361516E0,-1.016479731E0
9.509297693E0,-1.298088670E0,1.373225093E0,-1.057407737E0
9.514301693E0,-1.320690632E0,1.269377947E0,-1.095281363E0
9.519245693E0,-1.380555511E0,1.149037480E0,-1.122770309E0
9.524250693E0,-1.503950238E0,1.026864529E0,-1.152702689E0
9.529255693E0,-1.616960287E0,8.772025108E-1,-1.174082994E0
9.534260693E0,-1.705535769E0,7.874053121E-1,-1.193019867E0
9.539265693E0,-1.742187738E0,7.751879692E-1,-1.204015374E0
9.544270693E0,-1.731802940E0,8.356636763E-1,-1.208902359E0
9.549275693E0,-1.662775159E0,9.688322544E-1,-1.197906733E0
9.554279693E0,-1.531439185E0,1.153924465E0,-1.171639562E0
9.559284693E0,-1.433089852E0,1.231504321E0,-1.125824690E0
9.564289693E0,-1.354899168E0,1.242499948E0,-1.077566266E0
9.569294693E0,-1.288925648E0,1.222952247E0,-1.034805775E0
9.574299693E0,-1.222341299E0,1.205847979E0,-9.737191796E-1
9.579243693E0,-1.135598540E0,1.214400053E0,-8.985827565E-1
9.584248693E0,-9.724974632E-1,1.239445567E0,-7.794640660E-1
9.589252693E0,-8.240572214E-1,1.240667343E0,-6.780604124E-1
9.594257693E0,-6.994407177E-1,1.213789225E0,-5.803219676E-1
9.599262693E0,-5.974262357E-1,1.185078621E0,-5.009095073E-1
9.604267693E0,-5.180137157E-1,1.171639562E0,-4.361577928E-1
9.609272693E0,-4.294382632E-1,1.168585181E0,-4.111123085E-1
9.614277693E0,-3.054326177E-1,1.163087368E0,-4.153883755E-1
9.619282693E0,-1.936442852E-1,1.139263630E0,-4.459316432E-1
9.624287693E0,-9.224065393E-2,1.079398870E0,-4.721988440E-1
9.629291693E0,6.108652451E-4,9.999864101E-1,-4.709770977E-1
9.634296693E0,5.925392732E-2,9.297369123E-1,-4.453207552E-1
9.639301693E0,7.941248268E-2,8.674286604E-1,-3.457497358E-1
9.644245693E0,5.070181563E-2,8.240572214E-1,-2.547308207E-1
9.649250693E0,2.382374369E-2,8.393288255E-1,-1.514945775E-1
9.654255693E0,8.552113548E-3,8.851437569E-1,-5.253441259E-2
9.659260693E0,1.832595654E-2,9.578366876E-1,2.748893574E-2
9.664264693E0,4.703662544E-2,1.026253581E0,9.590584040E-2
9.669269693E0,1.093448773E-1,1.054964304E0,1.594358236E-1
9.674274693E0,2.706133127E-1,9.822713137E-1,2.125810981E-1
9.679279693E0,4.392121136E-1,8.240572214E-1,2.419026345E-1
9.684284693E0,6.285803318E-1,5.870414972E-1,2.718350291E-1
9.689289693E0,7.788531780E-1,3.121521473E-1,3.219259977E-1
9.694294693E0,8.753699064E-1,5.253441259E-2,4.294382632E-1
9.699299693E0,9.590584636E-1,-1.502728462E-1,6.322455406E-1
9.704242693E0,1.123381138E0,-3.518583775E-1,8.167268038E-1
9.709247693E0,1.349401355E0,-5.907067060E-1,1.003040791E0
9.714252693E0,1.654833913E0,-9.034696817E-1,1.175304770E0
9.719257693E0,1.977981687E0,-1.229060888E0,1.335351467E0
9.724262693E0,2.292577267E0,-1.503950238E0,1.479515672E0
9.729267693E0,2.538145065E0,-1.662164330E0,1.651168704E0
9.734272693E0,2.714685202E0,-1.653612256E0,1.766011477E0
9.739277693E0,2.833193064E0,-1.499674201E0,1.896125674E0
9.744281693E0,2.993850470E0,-1.284649611E0,2.028683424E0
9.749286693E0,3.184440613E0,-1.094670534E0,2.128254414E0
9.754291693E0,3.349374056E0,-9.779952765E-1,2.171625853E0
9.759296693E0,3.392134666E0,-9.896016717E-1,2.171015024E0
9.764301693E0,3.273626804E0,-1.119716048E0,2.104430676E0
9.769245693E0,3.104417086E0,-1.227839112E0,2.040900707E0
9.774250693E0,2.949257374E0,-1.206458807E0,1.996918440E0
9.779254693E0,2.837469101E0,-1.013425469E0,1.934610248E0
9.784259693E0,2.780047655E0,-6.780604124E-1,1.878410578E0
9.789264693E0,2.790432453E0,-3.011565804E-1,1.827097893E0
9.794269693E0,2.830138683E0,8.246681094E-2,1.776396155E0
9.799274693E0,2.857627630E0,3.042109013E-1,1.730581284E0
9.804279693E0,2.893057823E0,4.331034720E-1,1.681712031E0
9.809284693E0,2.931542397E0,4.514294267E-1,1.662164330E0
9.814289693E0,2.982244015E0,3.494149148E-1,1.641394973E0
9.819293693E0,3.048828363E0,1.771509275E-2,1.610851645E0
9.824298693E0,3.032945871E0,-3.805690408E-1,1.610851645E0
9.829242693E0,2.935207605E0,-9.205739498E-1,1.629177570E0
9.834247693E0,2.781880379E0,-1.508837104E0,1.646892667E0
9.839252693E0,2.637105227E0,-1.951714516E0,1.664607763E0
9.844257693E0,2.503325701E0,-2.243097067E0,1.684155464E0
9.849262693E0,2.396424294E0,-2.340835571E0,1.693929315E0
9.854266693E0,2.346333504E0,-2.193617105E0,1.701870561E0
9.859271693E0,2.313346624E0,-1.888795376E0,1.711644411E0
9.864276693E0,2.286468506E0,-1.562593341E0,1.726916075E0
9.869281693E0,2.248594999E0,-1.328631878E0,1.748296380E0
9.874286693E0,2.218051672E0,-1.227839112E0,1.783726573E0
9.879291693E0,2.168571711E0,-1.346957922E0,1.819156647E0
9.884296693E0,2.107485056E0,-1.598023534E0,1.830152273E0
9.889301693E0,2.026850939E0,-1.927890658E0,1.806328535E0
9.894244693E0,1.973705649E0,-2.224771261E0,1.734857321E0
9.899249693E0,1.972483873E0,-2.419026375E0,1.609629869E0
9.904254693E0,1.992031574E0,-2.540588617E0,1.452026725E0
9.909259693E0,2.043344259E0,-2.656652927E0,1.227228284E0
9.914264693E0,2.083050489E0,-2.714685202E0,1.046412110E0
9.919269693E0,2.075720072E0,-2.755613089E0,9.144652486E-1
9.924274693E0,2.050674677E0,-2.791654110E0,8.093964458E-1
9.929278693E0,2.013411760E0,-2.750726223E0,7.116580009E-1
9.934283693E0,1.998751044E0,-2.534479856E0,5.962044597E-1
9.939288693E0,1.957823157E0,-2.304794550E0,4.660901725E-1
9.944293693E0,1.902234316E0,-2.180178165E0,3.695734739E-1
9.949298693E0,1.819156647E0,-2.132530689E0,2.932153046E-1
9.954242693E0,1.711644411E0,-2.123367548E0,2.406809032E-1
9.959247693E0,1.585806131E0,-2.150245667E0,2.199114859E-1
9.964252693E0,1.474017859E0,-2.134974003E0,2.174680233E-1
9.969256693E0,1.354899168E0,-2.141693592E0,2.486221492E-1
9.974261693E0,1.254717231E0,-2.171015024E0,2.773328125E-1
9.979266693E0,1.183246017E0,-2.168571711E0,2.974913716E-1
9.984271693E0,1.114218235E0,-2.116647959E0,2.987131178E-1
9.989276693E0,1.043357849E0,-1.996307611E0,2.816088796E-1
9.994281693E0,9.560040832E-1,-1.875356317E0,2.431243658E-1
9.999286693E0,8.179485798E-1,-1.764178872E0,1.826487035E-1
1.000429069E1,6.817256212E-1,-1.716531396E0,1.282816976E-1
1.000929569E1,5.235115290E-1,-1.694540143E0,6.902777404E-2
1.001430069E1,3.659082949E-1,-1.676214218E0,9.773843922E-3
1.001924469E1,1.783726513E-1,-1.630399346E0,-2.626720630E-2
1.002424969E1,-1.954768784E-2,-1.568701982E0,-6.597344577E-2
1.002925469E1,-2.663372457E-1,-1.505782843E0,-1.172861308E-1
1.003425969E1,-4.667010605E-1,-1.457524419E0,-1.710422635E-1
1.003926469E1,-6.658431292E-1,-1.377501130E0,-2.113593817E-1
1.004426869E1,-8.655960560E-1,-1.274264932E0,-2.528982162E-1
1.004927369E1,-1.052520871E0,-1.142318010E0,-3.029891551E-1
1.005427869E1,-1.240667343E0,-9.920451641E-1,-3.365867436E-1
1.005928369E1,-1.482569933E0,-7.739662528E-1,-3.396410644E-1
1.006428869E1,-1.668272972E0,-5.839871764E-1,-3.207042515E-1
1.006929369E1,-1.844202161E0,-3.933972120E-1,-2.773328125E-1
1.007429869E1,-2.010357618E0,-1.795943826E-1,-2.168571651E-1
1.007924169E1,-2.151467323E0,6.352998316E-2,-1.282816976E-1
1.008424669E1,-2.263866663E0,3.078760803E-1,-3.176499158E-2
1.008925169E1,-2.359161615E0,6.285803318E-1,7.635815442E-2
1.009425669E1,-2.396424294E0,9.077457786E-1,1.533271819E-1
1.009926169E1,-2.393369913E0,1.197906733E0,1.979203373E-1
1.010524269E1,-2.288301229E0,1.476461291E0,2.247984111E-1
1.011024769E1,-2.112982988E0,1.595579982E0,1.997529417E-1
1.011525269E1,-1.866193295E0,1.576032281E0,1.020144969E-1
1.012025769E1,-1.566258430E0,1.409266114E0,-6.291911751E-2
1.012526269E1,-1.104444385E0,9.676105380E-1,-1.612684280E-1
1.013026769E1,-6.737843752E-1,4.728097022E-1,-1.930334121E-1
1.013527269E1,-2.327396572E-1,-1.032362282E-1,-1.618792862E-1
1.014027669E1,1.606575549E-1,-7.153232098E-1,-7.208210230E-2
1.014528169E1,4.783074856E-1,-1.268156290E0,7.574728876E-2
1.015028669E1,7.403686643E-1,-1.653001308E0,2.168571651E-1
1.015529169E1,8.863654733E-1,-1.871691108E0,2.724458873E-1
1.016029669E1,9.621127844E-1,-1.896736622E0,3.414736688E-1
1.016530169E1,9.963212013E-1,-1.877188921E0,4.233296216E-1
1.017024569E1,9.999864101E-1,-1.813658953E0,5.119050741E-1
1.017525069E1,9.908234477E-1,-1.742187738E0,5.955936313E-1
1.018025469E1,9.175195694E-1,-1.612684250E0,6.438519955E-1
1.018525969E1,8.057312369E-1,-1.500895858E0,6.603453159E-1
1.019026469E1,6.359107494E-1,-1.421483397E0,6.579018831E-1
1.019526969E1,4.196644127E-1,-1.350623012E0,6.505714655E-1
1.020027469E1,2.254092693E-1,-1.286482215E0,6.267477274E-1
1.020527969E1,3.909537569E-2,-1.149648428E0,5.583308339E-1
1.021028469E1,-2.492330223E-1,-8.069530129E-1,4.740314186E-1
1.021528869E1,-4.612032473E-1,-4.037819207E-1,4.343251884E-1
1.022029369E1,-5.998696685E-1,1.490511149E-1,4.086688459E-1
1.022529869E1,-7.177666426E-1,7.794640660E-1,4.129449129E-1
1.023024269E1,-8.912523985E-1,1.384220600E0,4.508185387E-1
1.023524769E1,-1.085507512E0,1.946216702E0,5.039638281E-1
1.024025269E1,-1.276097536E0,2.515542984E0,5.290092826E-1
1.024525769E1,-1.324966669E0,2.787988901E0,5.015203953E-1
1.025026269E1,-1.350012183E0,2.852740765E0,4.764748812E-1
1.025526969E1,-1.361007810E0,2.686585426E0,4.288274050E-1
1.026027469E1,-1.284649611E0,2.260812283E0,3.426954150E-1
1.026527969E1,-1.052520871E0,1.649336219E0,2.938261926E-1
1.027028469E1,-5.577199459E-1,7.012733221E-1,3.781255782E-1
1.027528869E1,-1.233947799E-1,2.138028294E-2,4.398229718E-1
1.028029369E1,2.846632004E-1,-4.544837475E-1,4.233296216E-1
1.028627569E1,5.503895879E-1,-7.898487449E-1,3.097086847E-1
1.029128069E1,6.157521605E-1,-7.843509912E-1,1.655444801E-1
1.029628469E1,5.729916096E-1,-6.652322412E-1,1.404990070E-2
1.030128969E1,3.707951903E-1,-4.831944108E-1,-1.447750628E-1
1.030629469E1,-5.131268129E-2,-1.838704348E-1,-3.634648323E-1
1.031129969E1,-4.502076805E-1,9.224065393E-2,-5.552765131E-1
1.031624369E1,-7.959573865E-1,4.996877611E-1,-6.835582256E-1
1.032124869E1,-1.078788042E0,1.151481032E0,-7.012733221E-1
1.032625369E1,-1.403157473E0,2.159408569E0,-5.943718553E-1
1.033125869E1,-1.811826348E0,3.423288822E0,-4.691445231E-1
1.033626269E1,-2.339613914E0,4.786739826E0,-4.960225821E-1
1.034126769E1,-2.677422285E0,5.309640884E0,-6.340781450E-1
1.034627269E1,-2.908329487E0,5.382333755E0,-8.295549750E-1
1.035127769E1,-3.048828363E0,5.140430927E0,-9.950994849E-1
1.035628269E1,-3.105028152E0,4.706105709E0,-1.117883444E0
1.036128769E1,-3.044552326E0,4.152661800E0,-1.207069755E0
1.036629269E1,-2.784323692E0,3.254689932E0,-1.227228284E0
1.037129669E1,-2.439184904E0,2.374433279E0,-1.185078621E0
1.037630169E1,-2.040900707E0,1.444085479E0,-1.087950945E0
1.038124569E1,-1.698205352E0,6.475171447E-1,-9.706648588E-1
1.038625069E1,-1.512502313E0,1.973094791E-1,-8.228355050E-1
1.039125569E1,-1.469130874E0,1.160643995E-1,-6.646214128E-1
1.039626069E1,-1.621847272E0,4.599815309E-1,-4.612032473E-1
