"Time (s)","Acceleration x (m/s^2)","Acceleration y (m/s^2)","Acceleration z (m/s^2)"
0.000000000E0,4.324293137E0,4.766626358E0,7.703277588E0
1.439437500E-2,3.699433327E0,4.869572163E0,8.038451195E0
1.679385400E-2,3.637186766E0,4.915060520E0,8.131820679E0
1.919328100E-2,3.562969685E0,4.903090000E0,8.182096481E0
2.159197900E-2,3.498329163E0,4.893513203E0,8.158156395E0
2.399062500E-2,3.400170803E0,4.883936882E0,8.213220596E0
2.639010400E-2,3.321165562E0,4.831266880E0,8.251525879E0
2.878953100E-2,3.244554758E0,4.771414280E0,8.258708000E0
3.118822900E-2,3.194278479E0,4.642132759E0,8.208432198E0
3.358687500E-2,3.201460838E0,4.491304874E0,8.153367996E0
3.598635400E-2,3.227795839E0,4.323717594E0,8.079151154E0
3.838578100E-2,3.258919239E0,4.144160748E0,7.997751236E0
4.078447900E-2,3.309195042E0,3.947844505E0,7.925928593E0
4.318312500E-2,3.378624201E0,3.753922462E0,7.892410755E0
4.558260400E-2,3.409747362E0,3.564788818E0,7.803829670E0
4.798203100E-2,3.474388123E0,3.385231256E0,7.779888630E0
5.038072900E-2,3.531846523E0,3.222432613E0,7.782282352E0
5.277937500E-2,3.606063366E0,3.069210291E0,7.739189148E0
5.517885400E-2,3.694645166E0,2.942322969E0,7.746370792E0
5.757828100E-2,3.809561968E0,2.839376688E0,7.705671310E0
5.997697900E-2,3.828714609E0,2.738824844E0,7.530901909E0
6.237562500E-2,3.871808290E0,2.717277765E0,7.193334579E0
6.477510400E-2,3.890961170E0,2.714883804E0,6.870131016E0
6.717453100E-2,3.960390091E0,2.681366205E0,7.061658859E0
6.957322900E-2,4.077701092E0,2.707701445E0,7.257975101E0
7.197187500E-2,4.238105774E0,2.664607525E0,7.571601868E0
7.437135400E-2,4.412874699E0,2.631090403E0,7.937899113E0
7.677078100E-2,4.592432499E0,2.597572803E0,8.325742722E0
7.916947900E-2,4.755230904E0,2.530538082E0,8.680069923E0
8.156812500E-2,4.934788227E0,2.456321001E0,9.036789894E0
8.396760400E-2,5.083222389E0,2.410833359E0,9.264229774E0
8.636703100E-2,5.246020794E0,2.358163118E0,9.479699135E0
8.876572900E-2,5.365725994E0,2.305492878E0,9.558704376E0
9.116437500E-2,5.435154915E0,2.236063957E0,9.613767624E0
9.356380200E-2,5.526130676E0,2.192970276E0,9.513216019E0
9.596328100E-2,5.509371758E0,2.130723476E0,9.348023415E0
9.836192700E-2,5.521342278E0,2.109176874E0,9.132554054E0
1.007606250E-1,5.473460197E0,2.042141914E0,8.897933006E0
1.031601040E-1,5.404031754E0,1.929619312E0,8.572335243E0
1.055595310E-1,4.690590382E0,1.819490790E0,8.328137398E0
1.079581770E-1,2.686729670E0,1.477134705E0,8.629794121E0
1.103568750E-1,2.808828592E0,1.383764744E0,8.486147881E0
1.127563540E-1,3.093726397E0,1.283212662E0,8.502905846E0
1.151557810E-1,3.486358643E0,1.149143219E0,8.591487885E0
1.175544270E-1,3.936449051E0,1.055773258E0,8.775834084E0
1.199531250E-1,4.448786259E0,9.600092769E-1,9.099037170E0
1.223525520E-1,4.994640827E0,9.719797969E-1,9.367176056E0
1.247520310E-1,5.432760715E0,9.456446767E-1,9.656862259E0
1.271506770E-1,5.743993759E0,8.690335155E-1,9.855571747E0
1.295493750E-1,5.882851601E0,7.517226934E-1,9.984852791E0
1.319488020E-1,5.985797405E0,6.679292321E-1,9.915425301E0
1.343482810E-1,5.978615284E0,6.272295713E-1,9.678408623E0
1.367469270E-1,5.890033722E0,6.032885313E-1,9.398299217E0
1.391456250E-1,5.727234840E0,5.721653104E-1,9.125371933E0
1.415450520E-1,5.511765957E0,5.434361100E-1,9.020031929E0
1.439445310E-1,5.308268070E0,4.955541790E-1,9.032001495E0
1.463431770E-1,5.140680790E0,4.620367587E-1,9.156495094E0
1.487418230E-1,5.047310829E0,4.428839684E-1,9.431817055E0
1.511413020E-1,4.841418266E0,3.399377167E-1,9.807689667E0
1.535407290E-1,4.307534218E0,4.785767943E-2,1.076293564E1
1.559393750E-1,4.321898937E0,7.179866731E-2,1.096643353E1
1.583380730E-1,4.245287895E0,1.172865331E-1,1.118669128E1
1.607375520E-1,3.979542971E0,2.058681995E-1,1.136385441E1
1.631369790E-1,3.948419571E0,2.561442554E-1,1.126090813E1
1.655356250E-1,3.946025372E0,2.681147754E-1,1.119387341E1
1.679343230E-1,3.969966412E0,2.705088854E-1,1.132794285E1
1.703338020E-1,3.898143768E0,3.016321659E-1,1.171578693E1
1.727332290E-1,3.850261688E0,2.657206953E-1,1.204377842E1
1.751319270E-1,3.895749331E0,2.250209749E-1,1.226403522E1
1.775306250E-1,3.919690371E0,3.207849562E-1,1.237176991E1
1.799300520E-1,3.886173248E0,3.136026263E-1,1.238134575E1
1.823294790E-1,3.838291168E0,4.380957782E-1,1.237895203E1
1.847281250E-1,3.756891727E0,4.069724977E-1,1.201026058E1
1.871268230E-1,3.610851765E0,4.357016981E-1,1.179957962E1
1.895263020E-1,3.397776842E0,4.572485685E-1,1.164157009E1
1.919257290E-1,3.184702158E0,4.261252880E-1,1.150989437E1
1.943244270E-1,3.081755877E0,4.189430177E-1,1.114599133E1
1.967230730E-1,2.933321714E0,3.040262759E-1,1.077251148E1
1.991225520E-1,2.641241550E0,1.148924381E-1,1.046127892E1
2.015219790E-1,2.392255306E0,-1.221233457E-1,1.013568211E1
2.039206250E-1,2.119328260E0,-3.304099143E-1,9.814871788E0
2.063193230E-1,1.944558978E0,-4.620853364E-1,9.518004417E0
2.087188020E-1,1.832036376E0,-5.482729673E-1,9.185223579E0
2.111182290E-1,1.786548495E0,-6.153076887E-1,8.893143654E0
2.135168750E-1,1.803307295E0,-6.464309692E-1,8.708799362E0
2.159155730E-1,1.915829897E0,-6.847366095E-1,8.550787926E0
2.183150520E-1,2.059475660E0,-6.368545890E-1,8.426295280E0
2.207144790E-1,2.205515862E0,-5.339083076E-1,8.246737480E0
2.231131250E-1,2.301279545E0,-4.046269953E-1,8.024086952E0
2.255118230E-1,2.365920305E0,-3.471686244E-1,7.801435471E0
2.279113020E-1,2.406620026E0,-2.705574632E-1,7.490202427E0
2.303107290E-1,2.392255306E0,-2.801338434E-1,7.238821983E0
2.327093750E-1,2.385073185E0,-2.992866039E-1,6.970683098E0
2.351080730E-1,2.454501867E0,-3.399862945E-1,6.733667374E0
2.375075520E-1,2.610118389E0,-3.663213849E-1,6.570868492E0
2.399069790E-1,2.794463873E0,-4.213856757E-1,6.408070087E0
2.423056250E-1,2.906986713E0,-3.998387754E-1,6.475104332E0
2.447043230E-1,2.911774874E0,-2.897102535E-1,6.867736816E0
2.471038020E-1,3.124849558E0,-3.423804045E-1,7.123905659E0
2.495032290E-1,3.440870762E0,-4.812381566E-1,7.293886662E0
2.519018750E-1,3.639580965E0,-5.865785480E-1,7.803829670E0
2.543005730E-1,3.732950687E0,-6.727660894E-1,8.675280571E0
2.567000520E-1,3.773650408E0,-7.014952898E-1,9.702349663E0
2.590994790E-1,3.383412361E0,-7.733182311E-1,1.196956062E1
2.614981250E-1,3.309195042E0,-8.858408332E-1,1.401172829E1
2.638968230E-1,3.732950687E0,-1.024698496E0,1.570435524E1
2.662963020E-1,4.367386818E0,-1.005545735E0,1.733234215E1
2.686957290E-1,4.827054024E0,-8.618999124E-1,1.804578209E1
2.710943750E-1,5.092798710E0,-7.278303504E-1,1.619754028E1
2.734930730E-1,5.174198627E0,-5.243319273E-1,1.258005619E1
2.758925520E-1,5.061675549E0,-3.232276142E-1,8.969756126E0
2.782919790E-1,4.681014061E0,-2.394341826E-1,6.551715851E0
2.806906250E-1,4.132765293E0,-2.561928630E-1,5.481553555E0
2.830893230E-1,3.567757845E0,-3.112571239E-1,5.507888794E0
2.854888020E-1,3.754497766E0,-1.364879310E-1,5.340301991E0
2.878882290E-1,4.568491459E0,2.513560951E-1,5.428883553E0
2.902868750E-1,5.365725994E0,6.846879125E-1,6.204571247E0
2.926855730E-1,6.093532085E0,9.839503169E-1,7.269945621E0
2.950850520E-1,6.778244495E0,1.244907022E0,8.146185875E0
2.974844790E-1,7.285793304E0,1.340671062E0,8.665704727E0
2.998831250E-1,7.537173271E0,1.283212662E0,8.859626770E0
3.022818230E-1,7.503656387E0,1.012679577E0,8.754286766E0
3.046813020E-1,7.158905983E0,5.865298510E-1,8.569940567E0
3.070807290E-1,5.827786922E0,-3.543508947E-1,9.228318214E0
3.094793750E-1,3.979542971E0,-1.560976624E0,1.041100311E1
3.118780730E-1,3.835896969E0,-2.018249512E0,9.762202263E0
3.142775520E-1,3.586910725E0,-2.207383156E0,9.381541252E0
3.166769790E-1,3.270889759E0,-2.159501314E0,9.257046700E0
3.190756250E-1,3.115273237E0,-1.956002951E0,9.278594017E0
3.214743230E-1,3.045844316E0,-1.637587786E0,9.482092857E0
3.238738020E-1,3.141608477E0,-1.216226459E0,9.783748627E0
3.262732290E-1,3.218219519E0,-7.757123113E-1,1.005906963E1
3.286718750E-1,3.201460838E0,-2.777397335E-1,1.053070831E1
3.310705730E-1,3.155972958E0,4.306948185E-2,1.102149773E1
3.334700520E-1,3.165549517E0,4.045784175E-1,1.161284065E1
3.358694790E-1,2.952474594E0,6.344118714E-1,1.214193630E1
3.382681250E-1,2.277338743E0,4.787954688E-1,1.247710991E1
3.406668230E-1,1.259846926E0,9.095145762E-2,1.231431103E1
3.430663020E-1,1.298322082E-1,-4.261738658E-1,1.184746170E1
3.454657290E-1,-7.296493053E-1,-9.193581939E-1,1.151228809E1
3.478643750E-1,-1.014546990E0,-1.204255939E0,1.145483017E1
3.502630730E-1,-7.655607462E-1,-1.223408699E0,1.120823765E1
3.526625520E-1,-9.281897545E-2,-8.858408332E-1,1.067674828E1
3.550619790E-1,9.510080814E-1,-1.269115359E-1,9.860360146E0
3.574606250E-1,2.444925547E0,1.017467737E0,9.295352936E0
3.598593230E-1,4.436815739E0,2.140300035E0,8.378413200E0
3.622588020E-1,6.083955765E0,3.203279734E0,7.621878147E0
3.646582290E-1,7.072718620E0,3.859262943E0,7.265156746E0
3.670568750E-1,7.242699623E0,3.986150026E0,7.281916142E0
3.694555730E-1,6.641780853E0,3.670129061E0,7.530901909E0
3.718550520E-1,5.437549114E0,2.937534809E0,7.806223392E0
3.742544790E-1,3.804773569E0,2.034959555E0,8.052815437E0
3.766531250E-1,2.301279545E0,1.201813340E0,8.196461678E0
3.790518230E-1,1.180841565E0,6.631410718E-1,8.246737480E0
3.814513020E-1,5.392230749E-1,1.220747381E-1,8.198856354E0
3.838507290E-1,2.351725549E-1,-8.621184528E-2,8.127033234E0
3.862493750E-1,6.828689575E-1,3.926079273E-1,8.383201599E0
3.886480730E-1,1.087471724E0,9.600092769E-1,9.022425652E0
3.910475520E-1,1.319699287E0,1.527410746E0,9.874725342E0
3.934469790E-1,1.142536044E0,1.915254831E0,1.049958515E1
3.958456250E-1,7.427215576E-1,2.116358995E0,1.073899460E1
3.982443230E-1,2.375666499E-1,2.152270555E0,1.076533031E1
4.006438020E-1,-7.152845860E-1,1.321518302E0,1.018835163E1
4.030432290E-1,-1.033699751E0,1.438829064E0,1.023144627E1
4.054418750E-1,-7.057082653E-1,1.876949191E0,1.054507256E1
4.078405730E-1,-6.075501442E-1,2.300704479E0,1.117471981E1
4.102400520E-1,-5.788209438E-1,2.717277765E0,1.149553013E1
4.126394790E-1,-7.344374657E-1,2.870500088E0,1.130639553E1
4.150381250E-1,-9.499063492E-1,2.827406406E0,1.084912300E1
4.174368230E-1,-1.129463673E0,2.523355722E0,1.036790848E1
4.198363020E-1,-1.756717563E0,1.632750988E0,9.405482292E0
4.222357290E-1,-1.352114797E0,1.762032390E0,9.465333939E0
4.246344270E-1,-7.775311470E-1,2.037353754E0,9.953729630E0
4.270330730E-1,-6.123384237E-1,2.142693996E0,1.051394939E1
4.294325520E-1,-7.440137863E-1,2.080447435E0,1.069350719E1
4.318319790E-1,-1.129463673E0,1.881737471E0,1.033678627E1
4.342306250E-1,-1.512519479E0,1.632750988E0,9.781354904E0
4.366293230E-1,-2.269054890E0,8.379102349E-1,8.783016205E0
4.390288020E-1,-2.297784090E0,6.703233719E-1,8.179702759E0
4.414282290E-1,-1.524489999E0,7.684813738E-1,8.268284798E0
4.438269270E-1,-8.589305878E-1,9.432505965E-1,8.342501640E0
4.462255730E-1,-4.878452718E-1,1.094078898E0,8.107879639E0
4.486250520E-1,-3.537757695E-1,1.175478339E0,7.585966587E0
4.510245310E-1,-5.046039820E-1,8.403043747E-1,6.843795776E0
4.534231770E-1,-6.650085449E-1,6.463823318E-1,5.833486080E0
4.558218230E-1,-6.123384237E-1,5.625889301E-1,5.048222065E0
4.582213020E-1,-5.812151432E-1,5.889239907E-1,4.736989021E0
4.606207810E-1,-4.375691712E-1,6.846879125E-1,4.964428425E0
4.630194270E-1,-3.465934396E-1,9.097332358E-1,5.476765633E0
4.654180730E-1,-2.771645784E-1,1.067743778E0,5.919673443E0
4.678175520E-1,-2.819527686E-1,1.115625739E0,6.149507046E0
4.702169790E-1,-4.160223305E-1,1.094078898E0,6.221330166E0
4.726156770E-1,-4.950275719E-1,1.053379178E0,6.202177525E0
4.750143230E-1,-6.147325039E-1,9.624033570E-1,6.252453327E0
4.774138020E-1,-7.320432663E-1,8.570630550E-1,6.448769569E0
4.798132810E-1,-8.349895477E-1,7.565109134E-1,6.719302654E0
4.822119270E-1,-1.009758711E0,6.966584325E-1,7.059264660E0
4.846106250E-1,-1.165375233E0,6.224413514E-1,7.394438267E0
4.870101040E-1,-1.301838875E0,5.051305294E-1,7.648212910E0
4.894095310E-1,-1.431120038E0,3.902138174E-1,8.165338516E0
4.918081770E-1,-1.522095799E0,3.351495564E-1,8.562759399E0
4.942068750E-1,-1.560401440E0,2.537501752E-1,8.845261574E0
4.966063540E-1,-1.639406681E0,7.179866731E-2,9.091855049E0
4.990057810E-1,-1.651377201E0,-1.795817018E-1,9.185223579E0
5.014044270E-1,-1.577160239E0,-9.600691497E-3,9.558704376E0
5.038030730E-1,-1.534066319E0,1.938976943E-1,9.980065346E0
5.062026040E-1,-1.572371960E0,3.758492172E-1,1.037748623E1
5.086020310E-1,-1.639406681E0,5.697711706E-1,1.073181152E1
5.110006770E-1,-1.687288761E0,6.751115322E-1,1.094967461E1
5.133993230E-1,-1.675318241E0,7.445403934E-1,1.106219769E1
5.157988020E-1,-1.744747043E0,7.948164940E-1,1.129681969E1
5.181982810E-1,-2.170896769E0,9.887384772E-1,1.169663429E1
5.205969270E-1,-2.374395132E0,1.146749020E0,1.208447838E1
5.229956250E-1,-2.123014927E0,1.122808099E0,1.194801426E1
5.253951040E-1,-1.917122245E0,1.158719540E0,1.174451637E1
5.277945310E-1,-1.648983121E0,1.120413899E0,1.148595333E1
5.301931770E-1,-1.450272918E0,1.065349698E0,1.123696709E1
5.325918750E-1,-1.292262435E0,9.480388165E-1,1.104065132E1
5.349913540E-1,-1.105522752E0,7.708754539E-1,1.091615772E1
5.373907810E-1,-9.786354303E-1,6.128649712E-1,1.082278824E1
5.397894270E-1,-8.852657080E-1,4.165488780E-1,1.076772404E1
5.421881250E-1,-8.086545467E-1,2.178386897E-1,1.079884720E1
5.445876040E-1,-7.104964256E-1,-2.157118544E-2,1.069829464E1
5.469870310E-1,-6.195206642E-1,-2.968925238E-1,1.049000835E1
5.493856770E-1,-6.697967052E-1,-3.902623951E-1,1.062168407E1
5.517843750E-1,-7.631666660E-1,-3.639273047E-1,1.092812824E1
5.541838540E-1,-8.589305878E-1,-2.609810531E-1,1.131118393E1
5.565832810E-1,-9.187829494E-1,-1.917708665E-2,1.170860481E1
5.589819270E-1,-1.021729231E0,1.819272041E-1,1.199589634E1
5.613806250E-1,-1.064823151E0,3.782433271E-1,1.217066574E1
5.637801040E-1,-1.069611192E0,5.721653104E-1,1.228797626E1
5.661795310E-1,-1.088763952E0,7.301757932E-1,1.224967098E1
5.685781770E-1,-1.064823151E0,7.684813738E-1,1.218263626E1
5.709768750E-1,-9.953942299E-1,7.277817130E-1,1.207011318E1
5.733763540E-1,-6.195206642E-1,3.255731463E-1,1.211320686E1
5.757757810E-1,6.040333956E-2,-3.351981044E-1,1.181394482E1
5.781744270E-1,-2.460412681E-1,-1.843699068E-1,1.143328285E1
5.805731250E-1,-3.872931302E-1,2.152259275E-2,1.112444401E1
5.829726040E-1,-4.926334321E-1,2.298091799E-1,1.085151672E1
5.853720310E-1,2.449186891E-2,4.333075881E-1,1.045649052E1
5.877706770E-1,4.817647040E-1,5.506184101E-1,1.014286423E1
5.901693750E-1,9.631482512E-2,7.205994129E-1,1.049000835E1
5.925688540E-1,-2.651940882E-1,9.432505965E-1,1.077490616E1
5.949682810E-1,-5.069980621E-1,1.163507819E0,1.079884720E1
5.973669270E-1,-7.368315458E-1,1.362217903E0,1.059295464E1
5.997656250E-1,-8.924479485E-1,1.584869146E0,1.026735687E1
6.021651040E-1,-1.031305552E0,1.785973430E0,9.980065346E0
6.045645310E-1,-1.112704992E0,1.946377993E0,9.719107628E0
6.069631770E-1,-1.162981153E0,2.056506634E0,9.620949745E0
6.093618750E-1,-1.129463673E0,2.173817396E0,9.484486580E0
6.117613540E-1,-1.083975792E0,2.288733959E0,9.348023415E0
6.141607810E-1,-1.021729231E0,2.382104158E0,9.343235016E0
6.165594270E-1,-9.116007090E-1,2.516173601E0,9.142130852E0
6.189581250E-1,-6.051561832E-1,3.014146090E0,8.854839325E0
6.213576040E-1,-5.189685822E-1,2.834588528E0,9.249864578E0
6.237570310E-1,-5.788209438E-1,2.664607525E0,9.359993935E0
6.261556770E-1,-6.865553856E-1,2.470685482E0,9.259441376E0
6.285543750E-1,-9.020243883E-1,2.291128397E0,9.132554054E0
6.309538540E-1,-1.107916832E0,2.058900595E0,9.082278252E0
6.333532810E-1,-1.332962155E0,1.831461310E0,9.017638206E0
6.357519270E-1,-1.529278278E0,1.649509788E0,8.905115128E0
6.381506250E-1,-1.653771400E0,1.556139946E0,8.826109886E0
6.405501040E-1,-1.577160239E0,1.534592986E0,8.682463646E0
6.429495310E-1,-1.349720836E0,1.544169426E0,8.455024719E0
6.453481770E-1,-1.423937798E0,1.577686787E0,8.416718483E0
6.477468750E-1,-1.452666998E0,1.611204147E0,8.371231079E0
6.501463540E-1,-1.510125399E0,1.694997668E0,8.275466919E0
6.525457810E-1,-1.560401440E0,1.762032390E0,8.107879639E0
6.549444270E-1,-1.553219199E0,1.783579350E0,7.966628075E0
6.573431250E-1,-1.605889320E0,1.833855391E0,7.844529152E0
6.597426040E-1,-1.615465760E0,1.881737471E0,7.722429752E0
6.621420310E-1,-1.660953641E0,1.900890112E0,7.595542908E0
6.645406770E-1,-1.706441522E0,1.927225232E0,7.480626106E0
6.669393750E-1,-1.756717563E0,1.924831152E0,7.480626106E0
6.693388540E-1,-1.845299244E0,1.924831152E0,7.442320347E0
6.717382810E-1,-1.912334085E0,1.917648792E0,7.439926624E0
6.741369270E-1,-1.996127486E0,1.867372751E0,7.418379307E0
6.765356250E-1,-2.065556288E0,1.809914470E0,7.432744026E0
6.789351040E-1,-2.146955729E0,1.769214630E0,7.483019829E0
6.813345310E-1,-2.206808329E0,1.709362268E0,7.564419270E0
6.837331770E-1,-2.230749369E0,1.632750988E0,7.672153950E0
6.861318750E-1,-2.228355169E0,1.548957705E0,7.760735512E0
6.885313540E-1,-2.211596251E0,1.496287465E0,7.779888630E0
6.909307810E-1,-2.209202290E0,1.422070384E0,7.770311832E0
6.933294270E-1,-2.134985447E0,1.335882783E0,7.772706032E0
6.957281250E-1,-2.111044407E0,1.288000941E0,7.751159668E0
6.981276040E-1,-2.101467848E0,1.216177940E0,7.746370792E0
7.005270310E-1,-2.137379408E0,1.153931260E0,7.741582870E0
7.029256770E-1,-2.209202290E0,1.096472859E0,7.777494431E0
7.053243750E-1,-2.297784090E0,1.027044058E0,7.827770233E0
7.077238540E-1,-2.422276974E0,9.600092769E-1,7.904381275E0
7.101232810E-1,-2.570711374E0,8.810040355E-1,7.995357513E0
7.125219270E-1,-2.728721857E0,7.660872936E-1,8.028874397E0
7.149206250E-1,-2.853214741E0,6.703233719E-1,8.048027992E0
7.173201040E-1,-2.910673380E0,5.410419703E-1,8.038451195E0
7.197195310E-1,-2.925037861E0,4.141547978E-1,8.007328033E0
7.221181770E-1,-2.915461540E0,3.159967661E-1,7.885229111E0
7.245168750E-1,-2.855609179E0,2.465678751E-1,7.758341312E0
7.269163540E-1,-2.798150539E0,1.579862088E-1,7.583572388E0
7.293157810E-1,-2.695204258E0,1.148924381E-1,7.425561905E0
7.317144270E-1,-2.642534256E0,1.005278528E-1,7.291492462E0
7.341131250E-1,-2.635351896E0,1.101042479E-1,7.186151981E0
7.365126040E-1,-2.676051617E0,1.244688332E-1,7.116723061E0
7.389120310E-1,-2.728721857E0,1.675626040E-1,7.018565178E0
7.413106770E-1,-2.812515259E0,1.938976943E-1,6.946742058E0
7.437093750E-1,-2.925037861E0,2.130504996E-1,6.918013096E0
7.461088540E-1,-3.090230703E0,2.417796701E-1,6.839007378E0
7.485082810E-1,-3.219511986E0,2.633265853E-1,6.803095818E0
7.509069270E-1,-3.377522707E0,3.159967661E-1,6.728878975E0
7.533056250E-1,-3.470892429E0,4.021842778E-1,6.625933170E0
7.557051040E-1,-3.564262390E0,5.099187493E-1,6.513410091E0
7.581045310E-1,-3.590597391E0,6.104708314E-1,6.283576965E0
7.605031770E-1,-3.616932392E0,7.301757932E-1,6.003467083E0
7.629018750E-1,-3.569050312E0,8.690335155E-1,5.778421879E0
7.653013540E-1,-3.537927151E0,9.959207773E-1,5.479159355E0
7.677007810E-1,-3.506803751E0,1.103655338E0,5.206232548E0
7.700994270E-1,-3.478074551E0,1.189842820E0,4.947669506E0
7.724981250E-1,-3.430192947E0,1.247301221E0,4.689106941E0
7.748976040E-1,-3.485257149E0,1.242513061E0,4.478426456E0
7.772970310E-1,-3.482862949E0,1.232936502E0,4.320415974E0
7.796956770E-1,-3.499621630E0,1.237724781E0,4.140858650E0
7.820943750E-1,-3.466104031E0,1.225754261E0,3.963695049E0
7.844938540E-1,-3.389492989E0,1.242513061E0,3.762590647E0
7.868932810E-1,-3.308093548E0,1.242513061E0,3.537545443E0
7.892919270E-1,-3.253029346E0,1.283212662E0,3.377140999E0
7.916906250E-1,-3.322458267E0,1.173084140E0,3.341229439E0
7.940901040E-1,-3.999988556E0,5.051305294E-1,4.073823452E0
7.964895310E-1,-4.402196407E0,4.763901234E-3,4.006788731E0
7.988881770E-1,-4.335162163E0,-5.030037090E-2,3.803290367E0
8.012868750E-1,-4.289674282E0,-7.663545012E-2,3.697949886E0
8.036863540E-1,-4.280097485E0,-8.142365515E-2,3.547122002E0
8.060857810E-1,-4.220244884E0,-5.269446969E-2,3.384323120E0
8.084844270E-1,-4.244185925E0,-1.438888907E-2,3.214342117E0
8.108831250E-1,-4.282492161E0,4.763901234E-3,3.018025875E0
8.132826040E-1,-4.227427483E0,2.391669154E-2,2.876774311E0
8.156820310E-1,-4.241792202E0,3.588718548E-2,2.812133551E0
8.180806770E-1,-4.201092720E0,5.743407458E-2,2.670881748E0
8.204793750E-1,-4.150816441E0,1.053160429E-1,2.565541506E0
8.228788540E-1,-4.141240120E0,1.268629432E-1,2.524841785E0
8.252782810E-1,-4.076599598E0,1.029219478E-1,2.476959705E0
8.276769270E-1,-4.021534920E0,1.196806431E-1,2.512871265E0
8.300756250E-1,-3.920982838E0,7.658687234E-2,2.520053387E0
8.324751040E-1,-3.779731035E0,4.067538306E-2,2.472171545E0
8.348745310E-1,-3.695937634E0,5.982817337E-2,2.421895504E0
8.372731770E-1,-3.590597391E0,4.306948185E-2,2.359648943E0
8.396718750E-1,-3.518774271E0,2.391669154E-2,2.352466345E0
8.420713540E-1,-3.415827990E0,2.369802911E-3,2.302190542E0
8.444707810E-1,-3.300911427E0,9.552098811E-3,2.227973461E0
8.468694270E-1,-3.169235945E0,3.109898791E-2,2.295008183E0
8.492681250E-1,-3.030378342E0,3.349308670E-2,2.227973461E0
8.516676040E-1,-2.889126301E0,3.349308670E-2,2.160938740E0
8.540670310E-1,-2.690416098E0,7.419276237E-2,2.357254744E0
8.564656770E-1,-2.479735613E0,1.699567139E-1,2.613423347E0
8.588643750E-1,-2.290601492E0,3.207849562E-1,2.702004910E0
8.612638540E-1,-2.089497328E0,4.500662982E-1,2.577512026E0
8.636632810E-1,-2.204414129E0,3.495141268E-1,2.563147306E0
8.660619270E-1,-2.494100094E0,6.461636722E-2,2.453018665E0
8.684606250E-1,-2.800544739E0,-3.902623951E-1,2.110662460E0
8.708601040E-1,-3.178812265E0,-8.690821528E-1,2.007716417E0
8.732595310E-1,-3.461316109E0,-1.273684859E0,2.098692179E0
8.756581770E-1,-3.636085033E0,-1.589705825E0,2.297402143E0
8.780568750E-1,-3.688755274E0,-1.862633109E0,2.570329428E0
8.804563540E-1,-3.626508951E0,-2.104436874E0,2.864803791E0
8.828557810E-1,-3.549897671E0,-2.288782597E0,3.051543474E0
8.852544270E-1,-3.557079792E0,-2.398911238E0,3.154489756E0
8.876531250E-1,-3.561868191E0,-2.396517277E0,3.185612917E0
8.900526040E-1,-3.518774271E0,-2.430034399E0,3.010843754E0
8.924520310E-1,-3.499621630E0,-2.482704639E0,2.742704630E0
8.948506770E-1,-3.516380310E0,-2.494675159E0,2.419501543E0
8.972493750E-1,-3.521168709E0,-2.521010160E0,2.108268499E0
8.996488540E-1,-3.504409790E0,-2.513828039E0,1.739577293E0
9.020482810E-1,-3.461316109E0,-2.566498280E0,1.363703847E0
9.044469270E-1,-3.377522707E0,-2.616774321E0,9.854362607E-1
9.068456250E-1,-3.248241186E0,-2.662261963E0,5.928040147E-1
9.092451040E-1,-3.147689104E0,-2.710144043E0,2.408715189E-1
9.116445310E-1,-3.092624903E0,-2.805907965E0,-1.134550944E-1
9.140431770E-1,-3.090230703E0,-2.911248207E0,-4.222938418E-1
9.164418750E-1,-3.102200985E0,-3.023771048E0,-7.598617673E-1
9.188413540E-1,-3.150083065E0,-3.222481251E0,-1.039971352E0
9.212407810E-1,-3.219511986E0,-3.394856215E0,-1.334445596E0
9.236394270E-1,-3.312881947E0,-3.581595898E0,-1.624131441E0
9.260381250E-1,-3.418222427E0,-3.734818220E0,-1.885088205E0
9.284376040E-1,-3.525956631E0,-3.914375782E0,-2.114921808E0
9.308370310E-1,-3.559473991E0,-4.120268345E0,-2.395031214E0
9.332356770E-1,-3.727060795E0,-4.307008266E0,-2.531494856E0
9.356343750E-1,-3.885071754E0,-4.431501389E0,-2.615288258E0
9.380338540E-1,-4.035899639E0,-4.527265072E0,-2.593741655E0
9.404332810E-1,-4.201092720E0,-4.615846634E0,-2.512341976E0
9.428319270E-1,-4.327979565E0,-4.651758194E0,-2.426154613E0
9.452306250E-1,-4.435714245E0,-4.702033997E0,-2.380666494E0
9.476301040E-1,-4.526690006E0,-4.747522354E0,-2.349543333E0
9.500295310E-1,-4.615271568E0,-4.790616035E0,-2.327996492E0
9.524281770E-1,-4.684700489E0,-4.869621277E0,-2.356725454E0
9.548268750E-1,-4.766099453E0,-4.970173836E0,-2.337572813E0
9.572263540E-1,-4.847498894E0,-5.094666481E0,-2.320814371E0
9.596257810E-1,-4.964809895E0,-5.262253761E0,-2.270538092E0
9.620244270E-1,-5.096485615E0,-5.403505325E0,-2.277720213E0
9.644231250E-1,-5.230555058E0,-5.535180569E0,-2.299267292E0
9.668226040E-1,-5.407718182E0,-5.676432610E0,-2.296873331E0
9.692220310E-1,-5.594458103E0,-5.820078850E0,-2.330390453E0
9.716206770E-1,-5.829079628E0,-5.966118813E0,-2.344755411E0
9.740193750E-1,-6.056519032E0,-6.133705616E0,-2.327996492E0
9.764188540E-1,-6.269593716E0,-6.296504021E0,-2.339967012E0
9.788183330E-1,-6.537733078E0,-6.480849743E0,-2.263355732E0
9.812169790E-1,-6.789113045E0,-6.643648624E0,-2.179562330E0
9.836156770E-1,-7.026129246E0,-6.780112267E0,-2.169986010E0
9.860151040E-1,-7.265539169E0,-6.904605389E0,-2.158015490E0
9.884145310E-1,-7.528889656E0,-7.017127514E0,-2.114921808E0
9.908131770E-1,-7.782664299E0,-7.112891674E0,-2.119709730E0
9.932118750E-1,-8.089109421E0,-7.177532673E0,-2.126892328E0
9.956113540E-1,-8.450617790E0,-7.242173195E0,-2.169986010E0
9.980107810E-1,-8.812127113E0,-7.328360558E0,-2.253779650E0
1.000409479E0,-9.238276482E0,-7.378636837E0,-2.320814371E0
1.002808177E0,-9.628514290E0,-7.438488960E0,-2.371090412E0
1.005207656E0,-1.001875210E1,-7.491159916E0,-2.474036455E0
1.007607083E0,-1.036829090E1,-7.534253120E0,-2.584165096E0
1.010005729E0,-1.062685299E1,-7.543829918E0,-2.732599258E0
1.012404427E0,-1.088541603E1,-7.529465199E0,-2.909762621E0
1.014803906E0,-1.103863811E1,-7.539041519E0,-3.046226025E0
1.017203333E0,-1.118467808E1,-7.500735760E0,-3.218601227E0
1.019601979E0,-1.138578320E1,-7.515100479E0,-3.376611710E0
1.022000677E0,-1.149830532E1,-7.541435719E0,-3.496316910E0
1.024400156E0,-1.167307472E1,-7.543829918E0,-3.618415833E0
1.026799583E0,-1.185023785E1,-7.551011562E0,-3.764455795E0
1.029198229E0,-1.201782513E1,-7.606076241E0,-3.917677879E0
1.031596927E0,-1.219019985E1,-7.634805202E0,-4.092447281E0
1.033996406E0,-1.241524506E1,-7.692263603E0,-4.219334602E0
1.036395833E0,-1.269056702E1,-7.725780964E0,-4.315098763E0
1.038794479E0,-1.290124702E1,-7.766480923E0,-4.487473488E0
1.041193177E0,-1.317177963E1,-7.811968803E0,-4.688578129E0
1.043592656E0,-1.344949627E1,-7.816756725E0,-4.769977093E0
1.045992083E0,-1.357638264E1,-7.924491405E0,-4.954322815E0
1.048390729E0,-1.380861092E1,-8.010678291E0,-5.186550617E0
1.050789427E0,-1.411026669E1,-8.099260330E0,-5.315831661E0
1.053188906E0,-1.434010124E1,-8.245300293E0,-5.392443180E0
1.055588333E0,-1.453162956E1,-8.398522377E0,-5.665369987E0
1.057986979E0,-1.474470329E1,-8.491892815E0,-5.780287266E0
1.060385677E0,-1.496017170E1,-8.606808662E0,-5.816198349E0
1.062785156E0,-1.519479370E1,-8.697784424E0,-5.842533588E0
1.065184583E0,-1.540547466E1,-8.752848625E0,-5.832957268E0
1.067583229E0,-1.561854935E1,-8.793548584E0,-5.797045708E0
1.069981927E0,-1.581486511E1,-8.855795860E0,-5.751557350E0
1.072381406E0,-1.601597023E1,-8.913253784E0,-5.643823147E0
1.074780833E0,-1.620989227E1,-8.913253784E0,-5.504965782E0
1.077179479E0,-1.646127129E1,-8.910860062E0,-5.332590580E0
1.079578177E0,-1.665280151E1,-8.910860062E0,-5.167397499E0
1.081977656E0,-1.688742065E1,-8.908465385E0,-4.942352772E0
1.084377083E0,-1.710049629E1,-8.841430664E0,-4.731671333E0
1.086775729E0,-1.738060760E1,-8.812702179E0,-4.480290890E0
1.089174427E0,-1.766789627E1,-8.798336983E0,-4.118782520E0
1.091573906E0,-1.797913170E1,-8.812702179E0,-3.754879236E0
1.093973333E0,-1.826881790E1,-8.836642265E0,-3.371823549E0
1.096371979E0,-1.855850220E1,-8.891706467E0,-3.000738382E0
1.098770677E0,-1.879073143E1,-8.949164391E0,-2.689505339E0
1.101170156E0,-1.904450417E1,-8.980288506E0,-2.457277775E0
1.103569583E0,-1.922406387E1,-8.975500107E0,-2.287296772E0
1.105968229E0,-1.940361977E1,-8.925223351E0,-2.205897570E0
1.108366927E0,-1.954247665E1,-8.853401184E0,-2.090980768E0
1.110766406E0,-1.965739250E1,-8.714543343E0,-2.038310528E0
1.113165833E0,-1.978188705E1,-8.554139137E0,-1.956911087E0
1.115564479E0,-1.989919662E1,-8.360217094E0,-1.959305286E0
1.117963177E0,-2.001890373E1,-8.101654053E0,-2.009581327E0
1.120362656E0,-2.012184906E1,-7.845486164E0,-2.119709730E0
1.122762083E0,-2.020564270E1,-7.553406239E0,-2.313631773E0
1.125160729E0,-2.026549530E1,-7.246961117E0,-2.593741655E0
1.127559427E0,-2.032774162E1,-6.957275867E0,-2.914550781E0
1.129958906E0,-2.034450150E1,-6.662801266E0,-3.211419106E0
1.132358333E0,-2.038041115E1,-6.387480259E0,-3.496316910E0
1.134756979E0,-2.040914154E1,-6.102581978E0,-3.776426315E0
1.137155677E0,-2.038998985E1,-5.829654694E0,-4.015836239E0
1.139555156E0,-2.035647202E1,-5.544757366E0,-4.214546680E0
1.141954583E0,-2.028704071E1,-5.276618004E0,-4.415650368E0
1.144353229E0,-2.022719002E1,-5.101848602E0,-4.470715046E0
1.146751927E0,-2.013860703E1,-4.941444397E0,-4.499444008E0
1.149151406E0,-2.010269737E1,-4.838498116E0,-4.463532448E0
1.151550833E0,-2.000693321E1,-4.797798157E0,-4.362980366E0
1.153949479E0,-1.994468498E1,-4.778645515E0,-4.159482002E0
1.156348177E0,-1.981540489E1,-4.795404434E0,-3.977530479E0
1.158747656E0,-1.963584709E1,-4.783433914E0,-3.714179516E0
1.161147083E0,-1.938686180E1,-4.793010235E0,-3.484346390E0
1.163545729E0,-1.912111473E1,-4.795404434E0,-3.218601227E0
1.165944427E0,-1.885776520E1,-4.800192833E0,-3.007920504E0
1.168343906E0,-1.854174232E1,-4.804980755E0,-2.785269260E0
1.170743333E0,-1.827121162E1,-4.812163353E0,-2.593741655E0
1.173141979E0,-1.798152542E1,-4.814557076E0,-2.366302013E0
1.175540677E0,-1.772296333E1,-4.797798157E0,-2.184350491E0
1.177940156E0,-1.745482254E1,-4.759492874E0,-2.014369488E0
1.180339583E0,-1.714837837E1,-4.747522354E0,-1.906635046E0
1.182738229E0,-1.677489853E1,-4.752310753E0,-1.882694125E0
1.185136927E0,-1.638705444E1,-4.773857117E0,-1.808477044E0
1.187536406E0,-1.594654083E1,-4.821739197E0,-1.753412843E0
1.189935833E0,-1.551560307E1,-4.912715435E0,-1.612160921E0
1.192334479E0,-1.507508945E1,-5.003690720E0,-1.406268477E0
1.194733177E0,-1.467527390E1,-5.101848602E0,-1.147705793E0
1.197132656E0,-1.424912548E1,-5.192824841E0,-8.292906284E-1
1.199532083E0,-1.382297516E1,-5.279012203E0,-4.534171224E-1
1.201930729E0,-1.339922047E1,-5.336470604E0,-3.326557577E-3
1.204329427E0,-1.303052902E1,-5.386746883E0,4.395817220E-1
1.206728906E0,-1.273605442E1,-5.365199566E0,8.465784788E-1
1.209128333E0,-1.253016186E1,-5.283800125E0,1.184146285E0
1.211526979E0,-1.240088081E1,-5.180854321E0,1.390038848E0
1.213925677E0,-1.234102821E1,-5.006085396E0,1.433132648E0
1.216325156E0,-1.237693977E1,-4.802586555E0,1.164993525E0
1.218724583E0,-1.249903870E1,-4.644576073E0,8.202434182E-1
1.221123229E0,-1.267620182E1,-4.512900829E0,3.629705608E-1
1.223521927E0,-1.285097122E1,-4.462624550E0,-1.469724774E-1
1.225921406E0,-1.298743534E1,-4.453048229E0,-6.521273255E-1
1.228320833E0,-1.304968071E1,-4.467412472E0,-1.061518312E0
1.230719479E0,-1.301616383E1,-4.587117672E0,-1.322475076E0
1.233118177E0,-1.291082382E1,-4.697246075E0,-1.322475076E0
1.235517656E0,-1.271929646E1,-4.809768677E0,-1.178829074E0
1.237917083E0,-1.247749233E1,-4.895956039E0,-9.035077095E-1
1.240315729E0,-1.219259453E1,-4.934262276E0,-6.162158251E-1
1.242714427E0,-1.191009045E1,-4.893562317E0,-3.025889099E-1
1.245113906E0,-1.157970524E1,-4.845680237E0,-2.487344295E-2
1.247513333E0,-1.126129055E1,-4.711610794E0,1.427134722E-1
1.249911979E0,-1.097160435E1,-4.539235592E0,2.289010286E-1
1.252310677E0,-1.071543503E1,-4.318978786E0,2.672066092E-1
1.254710156E0,-1.054545403E1,-4.077174664E0,1.977777481E-1
1.257109583E0,-1.039462566E1,-3.842552662E0,3.019082546E-2
1.259508229E0,-1.036350346E1,-3.684542179E0,-1.972485483E-1
1.261906927E0,-1.033237934E1,-3.574413776E0,-3.935646415E-1
1.264306406E0,-1.042096138E1,-3.495408535E0,-5.372105837E-1
1.266705833E0,-1.048320770E1,-3.478649616E0,-5.994571447E-1
1.269104479E0,-1.063882446E1,-3.478649616E0,-6.353686452E-1
1.271503177E0,-1.086865711E1,-3.495408535E0,-5.779102445E-1
1.273902656E0,-1.112243176E1,-3.572019815E0,-5.156636834E-1
1.276302083E0,-1.138099480E1,-3.701300859E0,-4.486289024E-1
1.278700729E0,-1.158928108E1,-3.789882421E0,-4.629935026E-1
1.281099427E0,-1.170659256E1,-3.902405262E0,-4.246879220E-1
1.283498906E0,-1.174968624E1,-3.995774984E0,-3.552590609E-1
1.285898333E0,-1.176165581E1,-4.081963062E0,-2.547069192E-1
1.288296979E0,-1.181432629E1,-4.192090988E0,-4.163213074E-2
1.290695677E0,-1.173053265E1,-4.271096706E0,1.343213022E-2
1.293095156E0,-1.173771477E1,-4.469806671E0,3.318472505E-1
1.295494583E0,-1.263310814E1,-5.190430641E0,2.354860783E0
1.297893229E0,-1.281505966E1,-5.669250011E0,3.554304123E0
1.300291927E0,-1.211358929E1,-5.568698406E0,2.455412626E0
1.302691406E0,-1.154618740E1,-5.365199566E0,2.175303221E0
1.305090833E0,-1.112482643E1,-5.231130123E0,1.825764775E0
1.307489479E0,-1.137620640E1,-5.343652725E0,2.278249502E0
1.309888177E0,-1.121580219E1,-4.939050198E0,1.978987217E0
1.312287656E0,-1.125889587E1,-4.802586555E0,1.859282255E0
1.314687083E0,-1.113440228E1,-4.625423431E0,1.674936533E0
1.317085729E0,-1.053827190E1,-3.990987062E0,1.004588962E0
1.319484427E0,-9.652455330E0,-3.255998373E0,-3.205574304E-2
1.321883906E0,-9.365162849E0,-3.174599171E0,9.961968660E-2
1.324283333E0,-9.185606003E0,-3.385279894E0,8.777018189E-1
1.326681979E0,-9.231094360E0,-3.832976341E0,1.825764775E0
1.329080677E0,-9.312493324E0,-4.409954071E0,2.749886990E0
1.331480156E0,-9.247853279E0,-4.872014999E0,3.580639124E0
1.333879583E0,-9.211940765E0,-5.221553802E0,4.234228134E0
1.336278229E0,-9.432198524E0,-5.599821568E0,4.722624302E0
1.338676927E0,-9.717096329E0,-5.793743610E0,5.045827389E0
1.341076406E0,-9.714701653E0,-5.832049370E0,5.002734184E0
1.343475833E0,-9.551902771E0,-5.815289974E0,4.693894863E0
1.345874479E0,-9.326858521E0,-5.796137810E0,4.181558132E0
1.348273177E0,-9.140117645E0,-5.915842533E0,3.638097763E0
1.350672656E0,-8.994077682E0,-6.121735096E0,3.379534960E0
1.353072083E0,-8.816915512E0,-6.334809780E0,3.247859478E0
1.355470729E0,-8.658904076E0,-6.509579182E0,3.259829998E0
1.357869427E0,-8.740303993E0,-6.988398552E0,3.310106039E0
1.360268906E0,-8.977318764E0,-7.294843197E0,3.523180962E0
1.362668333E0,-9.403469086E0,-7.388213158E0,4.066641331E0
1.365066979E0,-1.042574883E1,-8.044196129E0,5.009915829E0
1.367465677E0,-1.207288933E1,-9.313067436E0,7.123905659E0
1.369865156E0,-1.174010944E1,-9.020987511E0,6.305123329E0
1.372264583E0,-1.152224636E1,-8.702572823E0,5.376213551E0
1.374663229E0,-1.126607800E1,-8.360217094E0,4.772900581E0
1.377061927E0,-1.080880547E1,-7.709022522E0,4.112129211E0
1.379461406E0,-1.010494041E1,-6.753777027E0,3.372352600E0
1.381860833E0,-8.812127113E0,-5.147336483E0,2.158544540E0
1.384259479E0,-8.007709503E0,-4.299825668E0,1.629448652E0
1.386658177E0,-7.469037056E0,-4.117874622E0,1.155417204E0
1.389057656E0,-7.220051289E0,-4.431501389E0,9.207955599E-1
1.391457083E0,-7.160198689E0,-5.001296520E0,8.753076792E-1
1.393855729E0,-6.985429764E0,-5.508845806E0,6.550506353E-1
1.396254427E0,-6.705319405E0,-5.920630932E0,4.395817220E-1
1.398653906E0,-6.561674118E0,-6.215104580E0,5.449220538E-1
1.401053333E0,-6.520974159E0,-6.428179741E0,5.784394145E-1
1.403451979E0,-6.408451557E0,-6.514367104E0,8.046690375E-2
1.405850677E0,-6.173830032E0,-6.492820263E0,-6.377627254E-1
1.408250156E0,-6.118765354E0,-6.442543983E0,-9.489955306E-1
1.410649583E0,-6.090036392E0,-6.308474541E0,-1.267410755E0
1.413048229E0,-5.762044907E0,-5.944571495E0,-1.686378002E0
1.415446927E0,-5.177884579E0,-5.413081646E0,-2.150833368E0
1.417846406E0,-4.615271568E0,-5.245494843E0,-2.713446379E0
1.420245833E0,-4.004776478E0,-5.381958485E0,-3.750091076E0
1.422644479E0,-3.095018864E0,-5.666856289E0,-5.531300545E0
1.425043177E0,-2.051191807E0,-6.009212017E0,-7.257446289E0
1.427442656E0,-1.028911591E0,-6.186375618E0,-8.361124992E0
1.429842083E0,-2.125239074E-1,-6.409026623E0,-8.748969078E0
1.432240729E0,1.346203983E-1,-6.689136028E0,-8.248602867E0
1.434639427E0,2.040492594E-1,-7.019522190E0,-7.068312168E0
1.437038906E0,-5.690750480E-2,-7.460036278E0,-5.519330025E0
1.439438333E0,-5.476977825E-1,-7.883791924E0,-3.855431557E0
1.441836979E0,-8.828715086E-1,-8.166295052E0,-2.423760653E0
1.444235677E0,-1.165375233E0,-8.317123413E0,-1.367962956E0
1.446635156E0,-1.354508996E0,-8.329093933E0,-6.712801456E-1
1.449034583E0,-1.395208716E0,-8.312335014E0,-3.073771000E-1
1.451433229E0,-1.445484757E0,-8.276423454E0,-1.278196871E-1
1.453831927E0,-1.486184478E0,-8.309940338E0,-8.114747703E-3
1.456231406E0,-1.546036839E0,-8.391339302E0,6.610231102E-2
1.458630833E0,-1.517307758E0,-8.333881378E0,1.810190380E-1
1.461029479E0,-1.505337238E0,-8.300364494E0,2.648124993E-1
1.463428177E0,-1.591524720E0,-8.206995010E0,3.031180799E-1
1.465827656E0,-1.572371960E0,-8.001102448E0,3.079062700E-1
1.468227083E0,-1.723200202E0,-7.855062485E0,2.265069187E-1
1.470625729E0,-1.905151725E0,-7.620440483E0,1.187724769E-1
1.473024427E0,-2.180473089E0,-7.469612598E0,-4.402623326E-2
1.475423906E0,-2.484523535E0,-7.369060040E0,-2.954065800E-1
1.477823333E0,-2.908279181E0,-7.282872677E0,-4.941167831E-1
1.480221979E0,-3.312881947E0,-7.215838432E0,-5.994571447E-1
1.482620677E0,-3.717484474E0,-7.199079037E0,-5.922748446E-1
1.485020156E0,-4.148422718E0,-7.170350075E0,-5.132695436E-1
1.487419583E0,-4.536266327E0,-7.184714794E0,-4.055351615E-1
1.489818229E0,-4.864258289E0,-7.108103752E0,-2.523128092E-1
1.492216927E0,-5.101273537E0,-6.983610630E0,-1.086669043E-1
1.494616406E0,-5.359836102E0,-6.813629627E0,1.103803515E-2
1.497015833E0,-5.690222263E0,-6.686742306E0,1.690485477E-1
1.499414479E0,-6.003849030E0,-6.526337624E0,4.012761414E-1
1.501813177E0,-6.307899475E0,-6.353962898E0,6.742033958E-1
1.504212656E0,-6.688560963E0,-6.265380859E0,9.471306205E-1
1.506612083E0,-7.028522968E0,-6.195952415E0,1.157811284E0
1.509010729E0,-7.358908653E0,-6.114552498E0,1.315821767E0
1.511409427E0,-7.629442215E0,-6.028365135E0,1.445103049E0
1.513808906E0,-7.926310539E0,-5.908660412E0,1.516926050E0
1.516208333E0,-8.201631546E0,-5.793743610E0,1.658177972E0
1.518606979E0,-8.412312508E0,-5.666856289E0,1.730000973E0
1.521005677E0,-8.589474678E0,-5.556727886E0,1.832947016E0
1.523405156E0,-8.737910271E0,-5.448993206E0,1.840129495E0
1.525804583E0,-8.843250275E0,-5.420264244E0,1.789853334E0
1.528203229E0,-9.022807121E0,-5.458569527E0,1.840129495E0
1.530601927E0,-9.286158562E0,-5.678826809E0,2.271067142E0
1.533001406E0,-9.334039688E0,-5.765014172E0,2.096297979E0
1.535400833E0,-9.022807121E0,-5.295770645E0,2.000534058E0
1.537799479E0,-8.855219841E0,-4.838498116E0,2.206426382E0
1.540198177E0,-8.790579796E0,-4.553600311E0,2.366831303E0
1.542597656E0,-8.974925041E0,-4.596693993E0,2.407531023E0
1.544997083E0,-9.142512321E0,-4.759492874E0,2.486536264E0
1.547395729E0,-9.235881805E0,-4.965384960E0,2.555964947E0
1.549794427E0,-9.262217522E0,-5.152125359E0,2.785798550E0
1.552193906E0,-9.326858521E0,-5.281406403E0,3.025208235E0
1.554593333E0,-9.372345924E0,-5.377170086E0,3.396293640E0
1.556991979E0,-9.453744888E0,-5.365199566E0,3.834413767E0
1.559390677E0,-9.496839523E0,-5.283800125E0,4.313233376E0
1.561790156E0,-9.568661690E0,-5.171277523E0,4.787264824E0
1.564189583E0,-9.638091087E0,-5.025237560E0,5.419306755E0
1.566588229E0,-9.879895210E0,-5.099454880E0,6.673814774E0
1.568986927E0,-9.982841492E0,-5.034814358E0,7.394438267E0
1.571386406E0,-1.004987621E1,-5.149730682E0,7.277127266E0
1.573785833E0,-1.018873310E1,-5.348441124E0,6.515804291E0
1.576184479E0,-9.997204781E0,-4.800192833E0,5.814333439E0
1.578583177E0,-1.043293095E1,-4.642182350E0,5.867003441E0
1.580982656E0,-1.034674454E1,-4.299825668E0,5.002734184E0
1.583382083E0,-9.709914207E0,-3.368521214E0,3.894266129E0
1.585780729E0,-9.386710167E0,-2.631138802E0,3.348411798E0
1.588179427E0,-9.334039688E0,-2.374970198E0,2.769039631E0
1.590578906E0,-9.379528046E0,-2.473128319E0,2.249520302E0
1.592978333E0,-9.465716362E0,-2.839425564E0,1.804217935E0
1.595376979E0,-9.542326927E0,-3.172205210E0,1.445103049E0
1.597775677E0,-9.597391129E0,-3.351762533E0,1.236816525E0
1.600175156E0,-9.638091087E0,-3.370915174E0,1.095564723E0
1.602574583E0,-9.618938446E0,-3.191357851E0,1.169781804E0
1.604973229E0,-9.578238487E0,-2.956736326E0,1.370886087E0
1.607371927E0,-9.460927010E0,-2.746055365E0,1.516926050E0
1.609771406E0,-9.427410126E0,-2.573680401E0,1.500167489E0
1.612170833E0,-9.389103889E0,-2.465945959E0,1.428344488E0
1.614569479E0,-9.314887047E0,-2.394123077E0,1.289486647E0
1.616968177E0,-9.173636436E0,-2.396517277E0,1.263151526E0
1.619367656E0,-8.948590279E0,-2.389334679E0,1.174569964E0
1.621767083E0,-8.742697716E0,-2.521010160E0,1.062047362E0
1.624165729E0,-8.491316795E0,-2.700567722E0,9.591011405E-1
1.626564427E0,-8.323730469E0,-2.983071327E0,8.106669784E-1
1.628963906E0,-8.165719986E0,-3.203328371E0,6.406860352E-1
1.631363333E0,-7.974191666E0,-3.428373814E0,5.544984341E-1
1.633761979E0,-7.722811699E0,-3.600748777E0,4.994342029E-1
1.636160677E0,-7.418761253E0,-3.679754019E0,4.539463222E-1
1.638560156E0,-7.095558167E0,-3.777911901E0,4.443699121E-1
1.640959583E0,-6.746019363E0,-3.902405262E0,3.893056214E-1
1.643358229E0,-6.461121559E0,-4.043657303E0,3.701528609E-1
1.645756927E0,-6.255228996E0,-4.268702507E0,3.988820314E-1
1.648156406E0,-6.102006912E0,-4.469806671E0,5.161928535E-1
1.650555833E0,-5.932025909E0,-4.668517113E0,7.340558767E-1
1.652954479E0,-5.824291706E0,-4.874409676E0,9.112191796E-1
1.655353177E0,-5.757256508E0,-5.049178600E0,1.157811284E0
1.657752656E0,-5.647128105E0,-5.231130123E0,1.385250688E0
1.660152083E0,-5.568122864E0,-5.391534805E0,1.605507731E0
1.662550729E0,-5.453206062E0,-5.549545288E0,1.878434896E0
1.664949427E0,-5.383777142E0,-5.671644211E0,2.136997700E0
1.667348906E0,-5.350260258E0,-5.748255730E0,2.417107105E0
1.669748333E0,-5.369412422E0,-5.855990410E0,2.675669909E0
1.672146979E0,-5.371806622E0,-5.925418854E0,2.931838512E0
1.674545677E0,-5.414900780E0,-5.980483055E0,3.099425554E0
1.676945156E0,-5.510664463E0,-6.004424095E0,3.276588678E0
1.679344583E0,-5.632763386E0,-6.023576736E0,3.300529718E0
1.681743229E0,-5.831473827E0,-6.006818295E0,3.231100798E0
1.684141927E0,-5.994272709E0,-6.030759335E0,3.214342117E0
1.686541406E0,-6.214529514E0,-6.016394615E0,3.164065838E0
1.688940833E0,-6.456333637E0,-5.975695133E0,3.087455034E0
1.691339479E0,-6.698137760E0,-5.949359894E0,2.972538233E0
1.693738177E0,-6.832207203E0,-5.918236732E0,2.893532991E0
1.696137656E0,-7.030917168E0,-5.844019890E0,2.642152548E0
1.698537083E0,-7.210474491E0,-5.805714130E0,2.407531023E0
1.700935729E0,-7.375667572E0,-5.748255730E0,2.158544540E0
1.703334427E0,-7.595924377E0,-5.602215767E0,1.897587776E0
1.705733906E0,-7.713235378E0,-5.516028404E0,1.811400175E0
1.708133333E0,-7.828152180E0,-5.372382164E0,1.624660611E0
1.710531979E0,-7.943069458E0,-5.240706921E0,1.471438169E0
1.712930677E0,-8.034044266E0,-5.075513840E0,1.277516246E0
1.715330156E0,-8.084321022E0,-4.931867599E0,1.100352883E0
1.717729583E0,-8.089109421E0,-4.793010235E0,1.006983161E0
1.720128229E0,-8.067562103E0,-4.620635033E0,8.896722794E-1
1.722526927E0,-8.041227341E0,-4.476989269E0,7.915142775E-1
1.724926406E0,-7.990950584E0,-4.352496147E0,7.340558767E-1
1.727325833E0,-7.864063263E0,-4.251943588E0,6.861738563E-1
1.729724479E0,-7.832940102E0,-4.163362026E0,6.502623558E-1
1.732123177E0,-7.794634819E0,-4.053233624E0,6.071686149E-1
1.734522656E0,-7.799423218E0,-3.940710783E0,5.808334947E-1
1.736922083E0,-7.746752739E0,-3.813823462E0,6.335036755E-1
1.739320729E0,-7.662959099E0,-3.636660099E0,6.287155151E-1
1.741719427E0,-7.612683296E0,-3.442738295E0,6.215332150E-1
1.744118906E0,-7.562407017E0,-3.205722570E0,6.981443763E-1
1.746518333E0,-7.461854935E0,-2.920824766E0,7.101148963E-1
1.748916979E0,-7.272721291E0,-2.693385363E0,7.795437574E-1
1.751315677E0,-7.102740288E0,-2.470734119E0,8.800958991E-1
1.753715156E0,-6.951911926E0,-2.219353676E0,9.375542402E-1
1.756114583E0,-6.796295643E0,-2.013461351E0,9.830421209E-1
1.758513229E0,-6.681378365E0,-1.793204188E0,1.009377122E0
1.760911927E0,-6.542521000E0,-1.589705825E0,1.117111683E0
1.763311406E0,-6.384510517E0,-1.422118902E0,1.241604686E0
1.765710833E0,-6.303111076E0,-1.247349739E0,1.299063087E0
1.768109479E0,-6.169041634E0,-1.079762816E0,1.346945047E0
1.770508177E0,-6.015819550E0,-8.858408332E-1,1.382856607E0
1.772907656E0,-5.872173786E0,-7.613477111E-1,1.454679608E0
1.775307083E0,-5.695010185E0,-5.889725685E-1,1.459467649E0
1.777705729E0,-5.517846584E0,-4.070210755E-1,1.421162248E0
1.780104427E0,-5.340683460E0,-2.130990773E-1,1.373280168E0
1.782503906E0,-5.134790897E0,-4.311807454E-2,1.279910326E0
1.784903333E0,-4.926504612E0,4.306948185E-2,1.239210725E0
1.787301979E0,-4.763705730E0,1.699567139E-1,1.198511004E0
1.789700677E0,-4.718218327E0,2.633265853E-1,1.117111683E0
1.792100156E0,-4.715823650E0,2.944498658E-1,1.129082084E0
1.794499583E0,-4.754128933E0,2.848734856E-1,1.210481405E0
1.796898229E0,-4.837922573E0,3.351495564E-1,1.179358244E0
1.799296927E0,-4.914534092E0,2.800852656E-1,1.188934565E0
1.801696406E0,-5.407718182E0,-3.471686244E-1,9.231896996E-1
1.804095833E0,-5.958361149E0,-1.089339256E0,5.688630342E-1
1.806494479E0,-5.671069145E0,-6.248840690E-1,9.734657407E-1
1.808893177E0,-5.388565540E0,-1.532466114E-1,1.430738568E0
1.811292656E0,-5.220978737E0,2.082622945E-1,1.672542572E0
1.813692083E0,-5.261678219E0,4.357016981E-1,1.885617375E0
1.816090729E0,-5.529817104E0,5.051305294E-1,1.756335974E0
1.818489427E0,-5.874567509E0,4.764013588E-1,1.698877573E0
1.820888906E0,-6.197771072E0,4.261252880E-1,1.586354971E0
1.823288333E0,-6.516186237E0,2.441737801E-1,1.502561450E0
1.825686979E0,-7.069222450E0,-2.849220634E-1,1.459467649E0
1.828085677E0,-7.777875900E0,-1.072580457E0,1.548049331E0
1.830485156E0,-8.433858871E0,-1.800386429E0,1.785065174E0
1.832884583E0,-8.838461876E0,-2.291176796E0,1.792247415E0
1.835283229E0,-8.979714394E0,-2.657474041E0,1.878434896E0
1.837681927E0,-9.025200844E0,-2.734084845E0,1.880829096E0
1.840081406E0,-9.008442879E0,-2.767602444E0,1.777882814E0
1.842480833E0,-9.037172318E0,-2.698173523E0,1.380462408E0
1.844879479E0,-8.996472359E0,-2.652685642E0,1.179358244E0
1.847278177E0,-8.962955475E0,-2.540163040E0,8.585489988E-1
1.849677656E0,-8.994077682E0,-2.370182037E0,6.191391349E-1
1.852077083E0,-9.111389160E0,-2.248082876E0,3.940938413E-1
1.854475729E0,-9.278976440E0,-2.140348434E0,2.576301992E-1
1.856874427E0,-9.496839523E0,-2.090072393E0,2.540262789E-2
1.859273906E0,-9.657242775E0,-2.075707912E0,1.355311722E-1
1.861673333E0,-9.743431091E0,-2.092466354E0,3.270590901E-1
1.864071979E0,-9.870318413E0,-2.161895514E0,4.012761414E-1
1.866470677E0,-1.016239834E1,-2.104436874E0,4.180348217E-1
1.868870156E0,-1.012648678E1,-2.106831312E0,5.999863744E-1
1.871269583E0,-1.030364990E1,-2.164289474E0,5.090105534E-1
1.873668229E0,-1.041617298E1,-2.279206276E0,5.784394145E-1
1.876066927E0,-1.042096138E1,-2.418063879E0,5.137987733E-1
1.878466406E0,-1.045687199E1,-2.588044882E0,4.156407118E-1
1.880865833E0,-1.046884346E1,-2.822666645E0,4.826754928E-1
1.883264479E0,-1.058376026E1,-3.150658131E0,2.935416996E-1
1.885663177E0,-1.063642979E1,-3.528925657E0,4.252171218E-1
1.888062656E0,-1.084711075E1,-3.957469463E0,6.622328758E-1
1.890462083E0,-1.111285591E1,-4.330949306E0,8.920663595E-1
1.892860729E0,-1.128523064E1,-4.570359230E0,1.265545726E0
1.895259427E0,-1.138817692E1,-4.821739197E0,1.437920809E0
1.897658906E0,-1.151267052E1,-4.984538078E0,1.399615169E0
1.900058333E0,-1.160604000E1,-5.214371681E0,1.531290650E0
1.902456979E0,-1.164434528E1,-5.437022686E0,1.646207452E0
1.904855677E0,-1.164434528E1,-5.556727886E0,2.081933498E0
1.907255156E0,-1.146957588E1,-5.669250011E0,2.261490583E0
1.909654583E0,-1.069388771E1,-5.923024654E0,2.302190542E0
1.912053229E0,-1.060770130E1,-5.985270977E0,2.634970188E0
1.914451927E0,-1.092132854E1,-5.939783573E0,2.812133551E0
1.916851406E0,-1.126368427E1,-5.982877254E0,2.522447348E0
1.919250833E0,-1.157491684E1,-6.057094097E0,2.359648943E0
1.921649479E0,-1.172574520E1,-6.200740337E0,2.321343184E0
1.924048177E0,-1.211598301E1,-6.358750820E0,1.988563538E0
1.926447656E0,-1.228835773E1,-6.555066586E0,1.715636373E0
1.928847083E0,-1.236018085E1,-6.878270149E0,1.562413931E0
1.931245729E0,-1.247749233E1,-7.266114235E0,1.234422445E0
1.933644427E0,-1.249185562E1,-7.697052002E0,1.006983161E0
1.936043906E0,-1.252297974E1,-8.077713013E0,8.034847379E-1
1.938443333E0,-1.248706818E1,-8.494286537E0,4.587345123E-1
1.940841979E0,-1.245594501E1,-8.836642265E0,1.115901843E-1
1.943240677E0,-1.235299873E1,-9.040141106E0,8.764919639E-2
1.945640156E0,-1.229553986E1,-9.174210548E0,1.283488721E-1
1.948039583E0,-1.229075241E1,-9.219698906E0,8.046690375E-2
1.950438229E0,-1.196515465E1,-8.853401184E0,3.988820314E-1
1.952836927E0,-1.182869148E1,-8.824671745E0,6.670211554E-1
1.955236406E0,-1.172813892E1,-8.879736900E0,6.430801153E-1
1.957635833E0,-1.162519264E1,-8.889312744E0,6.789915562E-1
1.960034479E0,-1.160125256E1,-8.853401184E0,6.933562160E-1
1.962433177E0,-1.124692535E1,-8.755242348E0,6.335036755E-1
1.964832656E0,-1.085908127E1,-8.640326500E0,4.826754928E-1
1.967232083E0,-1.045926666E1,-8.599626541E0,2.959357798E-1
1.969630729E0,-1.023182678E1,-8.439221382E0,1.355311722E-1
1.972029427E0,-9.867923737E0,-8.053771973E0,2.672066092E-1
1.974428906E0,-8.651721954E0,-4.687669754E0,2.072356939E0
1.976828333E0,-7.550436497E0,-5.551939487E0,1.440314889E0
1.979226979E0,-7.500160694E0,-5.750649929E0,1.655783772E0
1.981625677E0,-7.502554417E0,-5.566304207E0,1.899981976E0
1.984025156E0,-7.629442215E0,-5.508845806E0,2.017292738E0
1.986424583E0,-7.715629578E0,-5.537574768E0,2.091509819E0
1.988823229E0,-7.825757980E0,-5.556727886E0,1.876040936E0
1.991221927E0,-7.950250626E0,-5.652491570E0,1.502561450E0
1.993621406E0,-7.938281059E0,-5.705161572E0,1.167387724E0
1.996020833E0,-7.876033783E0,-5.808108330E0,9.758598208E-1
1.998419479E0,-7.830545902E0,-5.997241497E0,8.058788180E-1
2.000818177E0,-7.715629578E0,-6.243834019E0,6.742033958E-1
2.003217656E0,-7.576771736E0,-6.404238701E0,7.532086372E-1
2.005617083E0,-7.421154976E0,-6.622101784E0,4.132466316E-1
2.008015729E0,-7.311026573E0,-6.758565426E0,2.289010286E-1
2.010414427E0,-7.136257648E0,-6.808841228E0,3.855742514E-3
2.012813906E0,-7.059646606E0,-6.916575909E0,-1.733075678E-1
2.015213333E0,-7.023735046E0,-6.952486992E0,-2.690715194E-1
2.017611979E0,-7.035705566E0,-7.021916389E0,-3.552590609E-1
2.020010677E0,-7.066828728E0,-7.079374790E0,-3.193475902E-1
2.022410156E0,-7.088375568E0,-7.072192192E0,-2.810419798E-1
2.024809583E0,-7.018946648E0,-7.033886909E0,-2.499186993E-1
2.027208229E0,-7.021340370E0,-7.007551670E0,-2.331600189E-1
2.029606927E0,-7.064434528E0,-6.981216431E0,-2.355541289E-1
2.032006406E0,-7.081192970E0,-6.923758030E0,-2.571010292E-1
2.034405833E0,-7.093163490E0,-6.849541187E0,-2.451305389E-1
2.036804479E0,-7.121892929E0,-6.734624386E0,-1.876721382E-1
2.039203125E0,-7.169775009E0,-6.605342865E0,-1.230315045E-1
2.041602604E0,-7.203292370E0,-6.480849743E0,-1.529704779E-2
2.044002083E0,-7.294268131E0,-6.356356621E0,1.211665720E-1
2.046400729E0,-7.318209171E0,-6.133705616E0,2.480538189E-1
2.048799375E0,-7.337362289E0,-5.958936214E0,3.414236903E-1
2.051198854E0,-7.366091251E0,-5.836837292E0,4.132466316E-1
2.053598333E0,-7.411579132E0,-5.712344170E0,5.233751535E-1
2.055996979E0,-7.416367054E0,-5.518422127E0,5.951981544E-1
2.058395677E0,-7.416367054E0,-5.310135841E0,7.053266764E-1
2.060795104E0,-7.409184456E0,-5.118607521E0,8.848840594E-1
2.063194531E0,-7.418761253E0,-4.924685478E0,9.998008013E-1
2.065593229E0,-7.351726532E0,-4.706822872E0,1.148234963E0
2.067991875E0,-7.361302853E0,-4.520082474E0,1.323004127E0
2.070391354E0,-7.370879173E0,-4.374042511E0,1.440314889E0
2.072790833E0,-7.315814972E0,-4.199273586E0,1.545655370E0
2.075189427E0,-7.263144493E0,-4.024504662E0,1.658177972E0
2.077588125E0,-7.184139729E0,-3.854523182E0,1.703665853E0
2.079987604E0,-7.136257648E0,-3.718059778E0,1.670148492E0
2.082387031E0,-7.047676086E0,-3.588778257E0,1.677330732E0
2.084785677E0,-6.975852966E0,-3.452314615E0,1.646207452E0
2.087184375E0,-6.920788765E0,-3.323033094E0,1.607901812E0
2.089583854E0,-6.872906685E0,-3.186569691E0,1.629448652E0
2.091983281E0,-6.805871964E0,-3.050106049E0,1.603113651E0
2.094381927E0,-6.731655121E0,-2.980677128E0,1.605507731E0
2.096780625E0,-6.693348885E0,-2.959130287E0,1.545655370E0
2.099180104E0,-6.614344120E0,-2.870548725E0,1.552837610E0
2.101579531E0,-6.535338402E0,-2.865760565E0,1.454679608E0
2.103978177E0,-6.422816277E0,-2.889701366E0,1.346945047E0
2.106376875E0,-6.360569477E0,-2.860972166E0,1.270334005E0
2.108776354E0,-6.255228996E0,-2.844213486E0,1.263151526E0
2.111175781E0,-6.157071114E0,-2.858578205E0,1.176964045E0
2.113574427E0,-6.104401112E0,-2.908854246E0,1.030924082E0
2.115973125E0,-6.063701153E0,-2.968706608E0,8.968545794E-1
2.118372604E0,-6.008636951E0,-2.983071327E0,7.699673176E-1
2.120772031E0,-5.979907990E0,-3.002224207E0,7.220853567E-1
2.123170677E0,-5.955966949E0,-3.064470768E0,5.832276344E-1
2.125569375E0,-5.951178551E0,-3.126717091E0,3.845174313E-1
2.127968854E0,-5.972725391E0,-3.179387569E0,2.336892188E-1
2.130368281E0,-6.003849030E0,-3.205722570E0,1.427134722E-1
2.132766927E0,-6.109189034E0,-3.284727812E0,7.089050114E-2
2.135165625E0,-6.207346916E0,-3.370915174E0,-4.402623326E-2
2.137565104E0,-6.360569477E0,-3.504984617E0,-1.278196871E-1
2.139964531E0,-6.561674118E0,-3.679754019E0,-1.302137971E-1
2.142363177E0,-6.690955162E0,-3.797065020E0,-1.373960674E-1
2.144761875E0,-6.853754044E0,-3.952681303E0,-1.350019872E-1
2.147161354E0,-7.047676086E0,-4.069992542E0,-9.669641405E-2
2.149560781E0,-7.306238651E0,-4.170544624E0,-7.993771881E-2
2.151959427E0,-7.591135979E0,-4.307008266E0,6.370820850E-2
2.154358125E0,-7.935886383E0,-4.395589828E0,4.946460128E-1
2.156757604E0,-8.560746193E0,-4.510506630E0,9.447365403E-1
2.159157031E0,-9.113782883E0,-4.725975037E0,5.616807342E-1
2.161555677E0,-9.515992165E0,-4.972567558E0,3.246649802E-1
2.163954375E0,-9.860741615E0,-5.245494843E0,2.624184191E-1
2.166353854E0,-1.014564037E1,-5.527998924E0,2.576301992E-1
2.168753281E0,-1.040420246E1,-5.810502052E0,4.156407118E-1
2.171151927E0,-1.062685299E1,-6.064276695E0,4.898577929E-1
2.173550625E0,-1.081838131E1,-6.339598179E0,4.970400929E-1
2.175950104E0,-1.097399807E1,-6.610131264E0,5.209810734E-1
2.178349531E0,-1.114637280E1,-6.904605389E0,6.095627546E-1
2.180748177E0,-1.127326012E1,-7.163167477E0,6.239272952E-1
2.183146875E0,-1.123495483E1,-7.304419518E0,5.951981544E-1
2.185546354E0,-1.125889587E1,-7.483977318E0,5.616807342E-1
2.187945781E0,-1.128283691E1,-7.651564121E0,5.137987733E-1
2.190344427E0,-1.123974323E1,-7.788027763E0,4.276112318E-1
2.192743125E0,-1.116552639E1,-7.924491405E0,3.150885701E-1
2.195142604E0,-1.100512123E1,-7.876609325E0,3.916997612E-1
2.197542031E0,-1.077768230E1,-7.665928841E0,6.598387957E-1
2.199940677E0,-1.070585918E1,-7.661140919E0,4.994342029E-1
2.202339375E0,-1.061727715E1,-7.697052002E0,3.414236903E-1
2.204738854E0,-1.063403606E1,-7.795210361E0,1.762308478E-1
2.207138281E0,-1.063882446E1,-7.886185646E0,3.019082546E-2
2.209536927E0,-1.050954342E1,-7.996314526E0,-2.487344295E-2
2.211935625E0,-1.032998466E1,-8.092077255E0,-1.050885022E-2
2.214335104E0,-1.008578682E1,-8.137565613E0,2.540262789E-2
2.216734531E0,-9.851164818E0,-8.151929855E0,5.892001092E-2
2.219133177E0,-9.628514290E0,-8.178265572E0,6.249845028E-3
2.221531875E0,-9.415438652E0,-8.180659294E0,-8.114747703E-3
2.223931354E0,-9.089841843E0,-8.094471931E0,-7.754360884E-2
2.226330781E0,-8.788186073E0,-8.032225609E0,-1.182432994E-1
2.228729427E0,-8.441040993E0,-8.111230850E0,-1.972485483E-1
2.231128125E0,-8.125020981E0,-8.130383492E0,-2.331600189E-1
2.233527604E0,-7.820969582E0,-8.281211853E0,-2.594951093E-1
2.235927031E0,-7.648594379E0,-8.590050697E0,-2.642832994E-1
2.238325677E0,-7.416367054E0,-8.851006508E0,-4.246879220E-1
2.240724375E0,-7.210474491E0,-9.052111626E0,-8.173201084E-1
2.243123854E0,-7.030917168E0,-8.920435905E0,-1.171646833E0
2.245523281E0,-6.786719322E0,-8.523015976E0,-1.660042882E0
2.247921927E0,-6.592797279E0,-8.240511894E0,-2.169986010E0
2.250320625E0,-6.243258476E0,-7.953220844E0,-2.655987978E0
2.252720104E0,-6.046942711E0,-7.972373009E0,-3.041437864E0
2.255119531E0,-5.869779587E0,-8.111230850E0,-3.683056355E0
2.257518177E0,-5.661492825E0,-8.166295052E0,-4.257639885E0
2.259916875E0,-5.525029182E0,-8.290788651E0,-4.741248131E0
2.262316354E0,-5.395747662E0,-8.420069695E0,-5.205703259E0
2.264715781E0,-5.314348698E0,-8.568503380E0,-5.361319542E0
2.267114427E0,-5.259284019E0,-8.652297020E0,-5.306255341E0
2.269513125E0,-5.156338215E0,-8.697784424E0,-4.999810696E0
2.271912604E0,-5.053391457E0,-8.678631783E0,-4.487473488E0
2.274312031E0,-4.993538857E0,-8.520621300E0,-3.704603195E0
2.276710677E0,-5.039027214E0,-8.470345497E0,-2.787663460E0
2.279109375E0,-5.192249775E0,-8.800730705E0,-2.069433689E0
2.281508854E0,-5.321530819E0,-9.047322273E0,-1.511608839E0
2.283908281E0,-5.364624500E0,-9.111963272E0,-9.825130105E-1
2.286306927E0,-5.484329700E0,-9.296309471E0,-5.396046638E-1
2.288705625E0,-5.699798107E0,-9.597966194E0,-2.475246191E-1
2.291105104E0,-5.836262226E0,-9.744006157E0,-6.317903847E-2
2.293504531E0,-5.932025909E0,-1.005045033E1,1.307429671E-1
2.295903177E0,-6.027790070E0,-1.032577133E1,3.055121899E-1
2.298301875E0,-6.085247993E0,-1.052208805E1,4.276112318E-1
2.300701354E0,-6.068489552E0,-1.064658070E1,5.688630342E-1
2.303100781E0,-6.011031151E0,-1.074234486E1,7.196912766E-1
2.305499427E0,-5.979907990E0,-1.085247326E1,8.824899793E-1
2.307898125E0,-5.927237511E0,-1.096499634E1,1.093170643E0
2.310297604E0,-5.845838547E0,-1.108948994E1,1.344550967E0
2.312697031E0,-5.661492825E0,-1.111821842E1,1.433132648E0
2.315095677E0,-5.527422905E0,-1.114215946E1,1.682118893E0
2.317494323E0,-5.359836102E0,-1.115173531E1,1.928711057E0
2.319893802E0,-5.247313499E0,-1.116131306E1,2.101086140E0
2.322293229E0,-5.220978737E0,-1.129298782E1,2.333313704E0
2.324691875E0,-5.149155617E0,-1.137199306E1,2.448230505E0
2.327090573E0,-5.022268772E0,-1.130495834E1,2.508082867E0
2.329490052E0,-4.869046211E0,-1.132171631E1,2.457807064E0
2.331889479E0,-4.699065208E0,-1.128101730E1,2.539206266E0
2.334288125E0,-4.529084206E0,-1.124989414E1,2.491324186E0
2.336686823E0,-4.392620564E0,-1.124271202E1,2.481747866E0
2.339086302E0,-4.198698521E0,-1.121158886E1,2.424289465E0
2.341485729E0,-3.988018036E0,-1.115652370E1,2.479353666E0
2.343884375E0,-3.751001835E0,-1.107033634E1,2.553570986E0
2.346283073E0,-3.578626871E0,-1.097696686E1,2.582299948E0
2.348682552E0,-3.466104031E0,-1.086683846E1,2.634970188E0
2.351081979E0,-3.391887188E0,-1.075431538E1,2.769039631E0
2.353480625E0,-3.300911427E0,-1.070164585E1,2.962961674E0
2.355879323E0,-3.154871225E0,-1.056278801E1,3.166460276E0
2.358278802E0,-3.006437302E0,-1.044787025E1,3.293347359E0
2.360678229E0,-2.893914700E0,-1.035450077E1,3.379534960E0
2.363076875E0,-2.755056858E0,-1.028267765E1,3.403476000E0
2.365475573E0,-2.644928455E0,-1.020127869E1,3.374746799E0
2.367875052E0,-2.597046375E0,-1.013184929E1,3.372352600E0
2.370274479E0,-2.563529015E0,-1.000975037E1,3.278982639E0
2.372673125E0,-2.570711374E0,-9.930746078E0,3.199977398E0
2.375071823E0,-2.611410856E0,-9.880469322E0,3.032390594E0
2.377471302E0,-2.685628176E0,-9.846951485E0,2.864803791E0
2.379870729E0,-2.783786058E0,-9.823010445E0,2.704399109E0
2.382269375E0,-2.948978901E0,-9.770340919E0,2.512871265E0
2.384668073E0,-3.039954662E0,-9.722458839E0,2.345284224E0
2.387067552E0,-3.145295143E0,-9.681759834E0,2.208820581E0
2.389466979E0,-3.264999866E0,-9.636271477E0,2.026869059E0
2.391865625E0,-3.365552187E0,-9.609936714E0,1.842523575E0
2.394264323E0,-3.444557428E0,-9.540507317E0,1.703665853E0
2.396663802E0,-3.490045071E0,-9.497413635E0,1.581566811E0
2.399063229E0,-3.545109272E0,-9.437561989E0,1.433132648E0
2.401461875E0,-3.576232910E0,-9.356162071E0,1.311033607E0
2.403860573E0,-3.557079792E0,-9.272368431E0,1.188934565E0
2.406260052E0,-3.600173950E0,-9.207727432E0,1.059653282E0
2.408659479E0,-3.581020832E0,-9.114357948E0,9.567070603E-1
2.411058125E0,-3.597779512E0,-9.044928551E0,8.370021582E-1
2.413456823E0,-3.597779512E0,-9.013805389E0,7.268735766E-1
2.415856302E0,-3.585808992E0,-8.965923309E0,6.167449951E-1
2.418255729E0,-3.573838472E0,-8.925223351E0,5.137987733E-1
2.420654375E0,-3.583415031E0,-8.927618980E0,4.228230417E-1
2.423053073E0,-3.573838472E0,-8.910860062E0,3.701528609E-1
2.425452552E0,-3.621720552E0,-8.922829628E0,2.887535095E-1
2.427851979E0,-3.621720552E0,-8.934801102E0,1.570780575E-1
2.430250625E0,-3.662420273E0,-8.977894783E0,1.822032779E-2
2.432649323E0,-3.724666834E0,-9.016200066E0,-7.036130875E-2
2.435048802E0,-3.755789995E0,-9.023382187E0,-2.283718288E-1
2.437448229E0,-3.796489954E0,-9.023382187E0,-3.480767608E-1
2.439846875E0,-3.846765757E0,-9.068869591E0,-4.989050031E-1
2.442245573E0,-3.873101234E0,-9.140692711E0,-6.377627254E-1
2.444645052E0,-3.906618118E0,-9.178998947E0,-7.598617673E-1
2.447044479E0,-3.992805958E0,-9.210122108E0,-8.628079891E-1
2.449443125E0,-4.067023277E0,-9.241244316E0,-9.154781699E-1
2.451841823E0,-4.143634319E0,-9.293915749E0,-1.028000951E0
2.454241302E0,-4.296856403E0,-9.327432632E0,-1.123764753E0
2.456640729E0,-4.411773205E0,-9.399255753E0,-1.181223154E0
2.459039375E0,-4.560206890E0,-9.413620949E0,-1.231499314E0
2.461438073E0,-4.653577328E0,-9.444744110E0,-1.315292716E0
2.463837552E0,-4.768494129E0,-9.430378914E0,-1.329657316E0
2.466236979E0,-4.825952053E0,-9.461503029E0,-1.329657316E0
2.468635625E0,-4.909745693E0,-9.447137833E0,-1.336839557E0
2.471034323E0,-4.983962536E0,-9.435166359E0,-1.310504556E0
2.473433802E0,-5.003115654E0,-9.389679909E0,-1.265016675E0
2.475833229E0,-4.952839375E0,-9.344191551E0,-1.260228395E0
2.478231875E0,-4.964809895E0,-9.272368431E0,-1.130947232E0
2.480630573E0,-4.964809895E0,-9.202939987E0,-1.030394912E0
2.483030000E0,-5.029450417E0,-9.159845352E0,-8.963253498E-1
2.485429479E0,-5.094091415E0,-9.133510590E0,-7.742263675E-1
2.487828125E0,-5.180279255E0,-9.099993706E0,-6.497331858E-1
2.490226823E0,-5.218584538E0,-9.047322273E0,-5.300282240E-1
2.492626302E0,-5.302378178E0,-9.037746429E0,-3.744118810E-1
2.495025729E0,-5.398141861E0,-9.018593788E0,-2.259777486E-1
2.497424323E0,-5.486723423E0,-8.980288506E0,-1.230315045E-1
2.499823021E0,-5.575304985E0,-8.985076904E0,-4.163213074E-2
2.502222500E0,-5.661492825E0,-8.999441147E0,3.497902304E-2
2.504621927E0,-5.766833305E0,-8.999441147E0,1.522898674E-1
2.507020573E0,-5.876961708E0,-9.035352707E0,2.312951386E-1
2.509419271E0,-5.963149071E0,-9.119145393E0,3.821233511E-1
2.511818750E0,-6.049336433E0,-9.178998947E0,5.736512542E-1
2.514218177E0,-6.123553753E0,-9.219698906E0,7.795437574E-1
2.516616823E0,-6.183405876E0,-9.281944275E0,1.004588962E0
2.519015521E0,-6.181012154E0,-9.308279991E0,1.210481405E0
2.521415000E0,-6.142706394E0,-9.226881027E0,1.461861849E0
2.523814427E0,-6.080460072E0,-9.104782104E0,1.658177972E0
2.526213073E0,-5.953572750E0,-8.872553825E0,1.801823854E0
2.528611771E0,-5.766833305E0,-8.570898056E0,1.890405416E0
2.531011250E0,-5.644733906E0,-8.192629814E0,2.132209539E0
2.533410677E0,-5.510664463E0,-7.881397724E0,2.235155582E0
2.535809323E0,-5.457994461E0,-7.665928841E0,2.297402143E0
2.538208021E0,-5.462782383E0,-7.491159916E0,2.237549782E0
2.540607500E0,-5.489117622E0,-7.416942120E0,2.115450859E0
2.543006927E0,-5.556152821E0,-7.426518917E0,1.952652097E0
2.545405573E0,-5.560940742E0,-7.443277836E0,1.765912294E0
2.547804271E0,-5.563334465E0,-7.462430000E0,1.562413931E0
2.550203750E0,-5.498693943E0,-7.515100479E0,1.390038848E0
2.552603177E0,-5.419688702E0,-7.555799961E0,1.246392965E0
2.555001823E0,-5.381382942E0,-7.622834682E0,1.136264443E0
2.557400521E0,-5.273648739E0,-7.665928841E0,1.009377122E0
2.559800000E0,-5.180279255E0,-7.732963085E0,9.064310193E-1
2.562199427E0,-4.986357212E0,-7.776057243E0,7.292677164E-1
2.564598073E0,-4.869046211E0,-7.828727245E0,6.263214350E-1
2.566996771E0,-4.615271568E0,-7.898156166E0,5.137987733E-1
2.569396250E0,-4.387832165E0,-7.905338764E0,5.066164732E-1
2.571795677E0,-4.105328560E0,-7.802392006E0,5.209810734E-1
2.574194323E0,-3.925771236E0,-7.608469963E0,7.125089765E-1
2.576593021E0,-3.739031315E0,-7.479189396E0,5.784394145E-1
2.578992500E0,-3.482862949E0,-7.254143715E0,4.419758320E-1
2.581391927E0,-3.241058826E0,-7.091345310E0,3.510000706E-1
2.583790573E0,-2.996860743E0,-6.880664349E0,2.025659382E-1
2.586189271E0,-2.747874498E0,-6.684348106E0,9.004329145E-2
2.588588750E0,-2.568317175E0,-6.466485023E0,-9.324550629E-4
2.590988177E0,-2.422276974E0,-6.176799297E0,1.461640000E-3
2.593386823E0,-2.271448851E0,-5.908660412E0,2.061443403E-2
2.595785521E0,-2.163714647E0,-5.590245247E0,1.283488721E-1
2.598185000E0,-2.072738886E0,-5.204795361E0,3.701528609E-1
2.600584427E0,-2.027250767E0,-4.862439156E0,6.454741955E-1
2.602983073E0,-1.998521447E0,-4.532052994E0,8.992487192E-1
2.605381771E0,-1.874028563E0,-4.069992542E0,1.172175765E0
2.607781250E0,-1.845299244E0,-3.550472736E0,1.519320250E0
2.610180677E0,-1.854875684E0,-3.047711849E0,1.868858576E0
2.612579323E0,-1.727988362E0,-2.571286201E0,1.938287497E0
2.614978021E0,-1.574766040E0,-2.145136595E0,1.892799616E0
2.617377500E0,-1.450272918E0,-1.774051428E0,1.739577293E0
2.619776927E0,-1.347326756E0,-1.470000863E0,1.552837610E0
2.622175573E0,-1.230015874E0,-1.089339256E0,1.380462408E0
2.624574271E0,-1.088763952E0,-6.440368891E-1,1.157811284E0
2.626973750E0,-9.953942299E-1,-2.514046729E-1,1.050076842E0
2.629373177E0,-8.613246679E-1,2.800852656E-1,8.872781992E-1
2.631771823E0,-6.434617043E-1,9.911325574E-1,7.915142775E-1
2.634170521E0,-6.051561832E-1,1.309547782E0,6.550506353E-1
2.636569948E0,-7.823194265E-1,1.161113620E0,4.707050025E-1
2.638969427E0,-8.230190277E-1,1.086896539E0,2.648124993E-1
2.641368073E0,-1.052852631E0,8.331220150E-1,1.498957574E-1
2.643766771E0,-1.119887352E0,5.793476105E-1,-3.815941513E-1
2.646166250E0,-1.026517510E0,1.915035993E-1,-7.407090068E-1
2.648565677E0,-7.368315458E-1,-3.591390848E-1,-1.169252634E0
2.650964271E0,-8.230190277E-1,-1.668711066E0,-1.784536004E0
2.653362968E0,-1.208468914E0,-3.179387569E0,-3.156354666E0
2.655762448E0,-1.548430920E0,-4.637393475E0,-4.860952854E0
2.658161875E0,-1.419149637E0,-5.642915249E0,-6.168130875E0
2.660560521E0,-1.452666998E0,-6.488032341E0,-5.983785152E0
2.662959218E0,-2.046403646E0,-7.596499920E0,-6.000544071E0
2.665358698E0,-2.594652414E0,-8.870160103E0,-6.692438602E0
2.667758125E0,-3.073472023E0,-9.964262962E0,-7.183228493E0
2.670156771E0,-3.353581667E0,-1.059869862E1,-7.448973656E0
2.672555468E0,-3.274576426E0,-1.088359642E1,-7.501644135E0
2.674954948E0,-3.640873432E0,-1.142945194E1,-7.176046371E0
2.677354375E0,-4.265733242E0,-1.216683388E1,-6.766655445E0
2.679753021E0,-4.481202126E0,-1.234878540E1,-6.002938271E0
2.682151718E0,-4.770888329E0,-1.243257904E1,-5.469054222E0
2.684551198E0,-4.938475132E0,-1.238709068E1,-4.932775974E0
2.686950625E0,-5.132397175E0,-1.226020336E1,-4.281580925E0
2.689349271E0,-5.417294502E0,-1.208304119E1,-3.604051113E0
2.691747968E0,-5.484329700E0,-1.180053711E1,-2.861880541E0
2.694147448E0,-5.328712940E0,-1.134805202E1,-1.937758446E0
2.696546875E0,-5.165914059E0,-1.136720467E1,-1.595402360E0
2.698945521E0,-5.130002499E0,-1.154915714E1,-1.432603598E0
2.701344218E0,-5.118031979E0,-1.181968975E1,-1.442179918E0
2.703743698E0,-5.192249775E0,-1.221471596E1,-1.332051396E0
2.706143125E0,-5.053391457E0,-1.259537792E1,-1.401480317E0
2.708541771E0,-4.737370491E0,-1.281563473E1,-1.643284321E0
2.710940468E0,-4.584147930E0,-1.340218830E1,-1.681589842E0
2.713339948E0,-4.191515923E0,-1.362244606E1,-1.401480317E0
2.715739375E0,-3.820430756E0,-1.405577755E1,-1.267410755E0
2.718138021E0,-3.640873432E0,-1.454896164E1,-1.360780597E0
2.720536718E0,-3.332034588E0,-1.493680573E1,-1.389509797E0
2.722936198E0,-2.901096821E0,-1.531267929E1,-1.463726759E0
2.725335625E0,-2.858003139E0,-1.590641594E1,-1.791718483E0
2.727734271E0,-2.951373100E0,-1.661746407E1,-2.088586569E0
2.730132968E0,-2.860397339E0,-1.712979889E1,-2.414184093E0
2.732532448E0,-2.877155781E0,-1.731653976E1,-2.543465376E0
2.734931875E0,-2.714357138E0,-1.729020500E1,-2.586559057E0
2.737330521E0,-2.769421339E0,-1.712022400E1,-2.569800615E0
2.739729218E0,-2.731115818E0,-1.682814407E1,-2.514736414E0
2.742128698E0,-2.702386618E0,-1.601654434E1,-2.284902811E0
2.744528125E0,-2.699992657E0,-1.546829605E1,-1.956911087E0
2.746926771E0,-2.735903978E0,-1.498947716E1,-1.573855400E0
2.749325468E0,-2.757451057E0,-1.470697308E1,-1.169252634E0
2.751724948E0,-2.843638659E0,-1.450107956E1,-7.239502668E-1
2.754124375E0,-2.802938938E0,-1.403901863E1,-3.169534802E-1
2.756523021E0,-2.972919941E0,-1.389297867E1,-4.163213074E-2
2.758921718E0,-3.171630144E0,-1.378285027E1,1.690485477E-1
2.761321198E0,-3.317670107E0,-1.355301666E1,4.611285925E-1
2.763720625E0,-3.528350830E0,-1.335670090E1,5.880158544E-1
2.766119271E0,-3.736637354E0,-1.312926197E1,7.915142775E-1
2.768517968E0,-3.942529678E0,-1.288266945E1,1.002194881E0
2.770917396E0,-4.174757481E0,-1.268635368E1,1.217663646E0
2.773316875E0,-4.438107967E0,-1.271747684E1,1.315821767E0
2.775715521E0,-4.742158413E0,-1.269592953E1,1.433132648E0
2.778114166E0,-4.931292534E0,-1.238948441E1,1.464255929E0
2.780513646E0,-5.007903576E0,-1.213571072E1,1.435526729E0
2.782913073E0,-5.103667736E0,-1.182926559E1,1.483408689E0
2.785311718E0,-5.189855099E0,-1.188193607E1,1.457073569E0
2.787710416E0,-5.043815136E0,-1.163534355E1,1.239210725E0
2.790109896E0,-4.861863613E0,-1.146296883E1,9.782539606E-1
2.792509323E0,-4.545842648E0,-1.118764782E1,7.125089765E-1
2.794907968E0,-4.205880642E0,-1.131214046E1,1.905954480E-1
2.797306666E0,-3.710302353E0,-1.138396358E1,-1.565488875E-1
2.799706146E0,-3.243453026E0,-1.109667206E1,-2.008525282E-2
2.802105573E0,-2.975313902E0,-1.105597210E1,-2.427364290E-1
2.804504218E0,-2.793362379E0,-1.097457314E1,-5.635457039E-1
2.806902916E0,-2.594652414E0,-1.074234486E1,-9.705424905E-1
2.809302396E0,-2.659292936E0,-1.068249226E1,-1.202769995E0
2.811701823E0,-2.726327658E0,-1.095541954E1,-1.566673040E0
2.814100468E0,-2.506070614E0,-1.069685650E1,-1.748624563E0
2.816499166E0,-2.130197048E0,-1.028986073E1,-1.727077723E0
2.818898646E0,-1.723200202E0,-9.765552521E0,-1.801294804E0
2.821298073E0,-1.352114797E0,-9.492626190E0,-2.167591810E0
2.823696718E0,-1.227621675E0,-9.341797829E0,-2.507553816E0
2.826095416E0,-1.184527993E0,-9.384890556E0,-2.914550781E0
2.828494896E0,-1.347326756E0,-9.665000916E0,-3.424493790E0
2.830894323E0,-1.510125399E0,-9.983415604E0,-3.862613916E0
2.833292968E0,-1.778264523E0,-1.032098389E1,-4.145117760E0
2.835691666E0,-1.969792485E0,-1.028746700E1,-4.362980366E0
2.838091146E0,-2.065556288E0,-9.200545311E0,-4.252851963E0
2.840490573E0,-2.422276974E0,-9.123934746E0,-4.104417801E0
2.842889218E0,-2.676051617E0,-9.133510590E0,-3.932042599E0
2.845287916E0,-2.798150539E0,-9.174210548E0,-3.884160519E0
2.847687396E0,-3.037560701E0,-9.585995674E0,-3.776426315E0
2.850086823E0,-3.190782785E0,-9.916380882E0,-3.742908716E0
2.852485468E0,-3.264999866E0,-1.014382076E1,-3.589686632E0
2.854884166E0,-2.951373100E0,-9.911592484E0,-3.458011150E0
2.857283646E0,-1.103128552E0,-8.108837128E0,-2.028733969E0
2.859683073E0,-1.526884079E0,-8.025043488E0,-2.007187366E0
2.862081718E0,-1.821358204E0,-7.958008766E0,-2.000005007E0
2.864480416E0,-1.864452004E0,-7.653958321E0,-1.995216846E0
2.866879896E0,-1.914728045E0,-7.347513676E0,-2.150833368E0
2.869279323E0,-1.938669086E0,-6.842358589E0,-1.964093447E0
2.871677968E0,-1.902757525E0,-6.399450302E0,-1.789324284E0
2.874076666E0,-1.811781883E0,-5.980483055E0,-1.770171404E0
2.876476146E0,-1.684894562E0,-5.573486328E0,-1.885088205E0
2.878875573E0,-1.529278278E0,-5.219159603E0,-2.028733969E0
2.881274166E0,-1.411967397E0,-4.955808640E0,-2.311237812E0
2.883672864E0,-1.313809395E0,-4.754704475E0,-2.584165096E0
2.886072343E0,-1.220439434E0,-4.565570831E0,-2.969614983E0
2.888471771E0,-1.143828392E0,-4.357284069E0,-3.587292671E0
2.890870416E0,-1.016941071E0,-4.223214626E0,-4.190605640E0
2.893269114E0,-8.014721870E-1,-4.170544624E0,-4.817859173E0
2.895668593E0,-5.453035831E-1,-4.168150425E0,-5.358925343E0
2.898068021E0,-3.058937490E-1,-4.199273586E0,-5.777892590E0
2.900466666E0,-2.339011431E-2,-4.256731987E0,-6.098701954E0
2.902865364E0,3.093895912E-1,-4.359678268E0,-6.192071915E0
2.905264843E0,6.110460758E-1,-4.390801907E0,-6.225589275E0
2.907664271E0,8.528500795E-1,-4.383619308E0,-6.201648235E0
2.910062916E0,1.092259884E0,-4.338131428E0,-6.206436634E0
2.912461614E0,1.341246128E0,-4.345313549E0,-6.096308231E0
2.914861093E0,1.669237733E0,-4.369254589E0,-5.909567833E0
2.917260521E0,2.018776178E0,-4.424319267E0,-5.605517387E0
2.919659166E0,2.449713945E0,-4.570359230E0,-5.188944340E0
2.922057864E0,2.883045673E0,-4.797798157E0,-4.961504936E0
2.924457343E0,3.325953960E0,-4.929473877E0,-4.746036053E0
2.926856771E0,3.828714609E0,-4.939050198E0,-4.580843449E0
2.929255416E0,4.053760052E0,-4.771463394E0,-4.283975124E0
2.931654114E0,4.051365852E0,-4.515294552E0,-3.845854998E0
2.934053593E0,3.953207970E0,-4.259126186E0,-3.548986912E0
2.936453021E0,3.833503008E0,-3.998169184E0,-3.314365149E0
2.938851666E0,3.627610445E0,-3.830582142E0,-3.115654945E0
2.941250364E0,3.404959202E0,-3.737212420E0,-2.840333462E0
2.943649843E0,3.201460838E0,-3.725241899E0,-2.371090412E0
2.946049271E0,2.971627474E0,-3.744394779E0,-1.985640526E0
2.948447916E0,2.705882311E0,-3.811429501E0,-1.607372761E0
2.950846614E0,2.351555586E0,-3.847341061E0,-1.233893275E0
2.953246093E0,1.958923697E0,-3.840158701E0,-8.747785091E-1
2.955645521E0,1.592626572E0,-3.873676062E0,-7.191620469E-1
2.958044166E0,1.113806844E0,-4.050839901E0,-9.801188111E-1
2.960442864E0,7.810270786E-1,-4.249549866E0,-1.341627836E0
2.962842343E0,5.248584747E-1,-4.388407707E0,-1.672013402E0
2.965241771E0,2.688595653E-2,-4.560782909E0,-2.064645529E0
2.967640416E0,-5.357272625E-1,-4.843286037E0,-2.488400936E0
2.970039114E0,-9.810296297E-1,-5.015661240E0,-2.960038662E0
2.972438593E0,-1.095946312E0,-4.903138638E0,-3.300000668E0
2.974838021E0,-1.897969365E0,-5.190430641E0,-4.283975124E0
2.977236666E0,-1.893181205E0,-4.998902798E0,-4.705336571E0
2.979635364E0,-2.228355169E0,-5.135365963E0,-5.483418465E0
2.982034843E0,-2.723933697E0,-5.451387405E0,-6.536821842E0
2.984434271E0,-3.150083065E0,-5.736285210E0,-7.750629902E0
2.986832916E0,-3.616932392E0,-6.071458817E0,-9.184695244E0
2.989231562E0,-4.215456963E0,-6.437756062E0,-1.080071163E1
2.991631041E0,-4.634424686E0,-6.748988628E0,-1.224435329E1
2.994030468E0,-4.931292534E0,-6.981216431E0,-1.340070343E1
2.996429114E0,-5.323924541E0,-7.270902157E0,-1.438707161E1
2.998827812E0,-5.546576023E0,-7.443277836E0,-1.488504410E1
3.001227291E0,-5.754862785E0,-7.519888878E0,-1.483716202E1
3.003626718E0,-5.991878510E0,-7.618046761E0,-1.441819477E1
3.006025364E0,-6.094824791E0,-7.644381523E0,-1.376700020E1
3.008424062E0,-6.056519032E0,-7.603682041E0,-1.271838474E1
3.010823541E0,-6.058913231E0,-7.546223640E0,-1.151894188E1
3.013222968E0,-6.073277473E0,-7.510312080E0,-1.029555702E1
3.015621614E0,-6.121159554E0,-7.589317799E0,-9.103296280E0
3.018020312E0,-5.977513790E0,-7.565376759E0,-7.791329861E0
3.020419791E0,-5.793168068E0,-7.495947838E0,-6.462605000E0
3.022819218E0,-5.668674946E0,-7.510312080E0,-5.255979061E0
3.025217864E0,-5.536999702E0,-7.524676800E0,-4.130753040E0
3.027616562E0,-5.326319218E0,-7.567770481E0,-3.007920504E0
3.030016041E0,-5.043815136E0,-7.507918358E0,-1.973670006E0
3.032415468E0,-4.778069973E0,-7.474400520E0,-9.585719705E-1
3.034814114E0,-4.569783688E0,-7.507918358E0,-1.565488875E-1
3.037212812E0,-4.368679523E0,-7.565376759E0,5.592866540E-1
3.039612291E0,-4.165181160E0,-7.632411003E0,1.212875605E0
3.042011718E0,-4.009564400E0,-7.780845165E0,1.811400175E0
3.044410364E0,-3.810854435E0,-7.914915085E0,2.302190542E0
3.046809062E0,-3.578626871E0,-8.087289810E0,2.814527750E0
3.049208541E0,-3.320064068E0,-8.345851898E0,3.238283157E0
3.051607968E0,-3.054319143E0,-8.613991737E0,3.697949886E0
3.054006614E0,-2.745480537E0,-8.918042183E0,4.078611851E0
3.056405312E0,-2.383971691E0,-9.202939987E0,4.289292336E0
3.058804791E0,-2.211596251E0,-9.631484032E0,4.521520138E0
3.061204218E0,-2.101467848E0,-1.020606709E1,4.435332298E0
3.063602864E0,-1.962609887E0,-1.083332062E1,4.540672779E0
3.066001562E0,-1.766294003E0,-1.162097931E1,4.808812141E0
3.068400989E0,-1.426331997E0,-1.230090332E1,4.990763664E0
3.070800468E0,-1.182133794E0,-1.304546738E1,5.208626270E0
3.073199114E0,-1.009758711E0,-1.370863342E1,5.306784630E0
3.075597760E0,-7.871075869E-1,-1.436222267E1,5.371425152E0
3.077997239E0,-6.314911842E-1,-1.487934780E1,5.266085148E0
3.080396666E0,-4.878452718E-1,-1.534380245E1,4.952457905E0
3.082795312E0,-5.453035831E-1,-1.589205170E1,4.672348499E0
3.085194010E0,-6.003679037E-1,-1.678744316E1,4.193528652E0
3.087593489E0,-5.860033035E-1,-1.738836288E1,3.563880444E0
3.089992916E0,-5.237567425E-1,-1.752243423E1,2.950991154E0
3.092391562E0,-6.674027443E-1,-1.813292694E1,2.687640429E0
3.094790260E0,-7.224669456E-1,-1.844416237E1,1.248787045E0
3.097189739E0,-4.591160715E-1,-1.814489746E1,-1.786930203E0
3.099589166E0,-5.237567425E-1,-1.719444084E1,-5.926327229E0
3.101987812E0,-9.570885897E-1,-1.535337925E1,-9.146389961E0
3.104386510E0,-1.778264523E0,-1.311729050E1,-9.328341484E0
3.106785989E0,-1.720806122E0,-1.217641068E1,-5.483418465E0
3.109185416E0,-4.088400304E-1,-1.317474937E1,-1.174040914E0
3.111584062E0,9.031261206E-1,-1.377806282E1,1.449891329E0
3.113982760E0,1.128171325E0,-1.371581554E1,2.247126102E0
3.116382239E0,5.487995148E-1,-1.396001339E1,2.498506784E0
3.118781666E0,1.801082790E-1,-1.432870483E1,2.522447348E0
3.121180312E0,3.453010917E-1,-1.438855743E1,3.053937435E0
3.123579010E0,4.147299528E-1,-1.451305103E1,3.934965849E0
3.125978489E0,2.399607450E-1,-1.515706253E1,5.306784630E0
3.128377916E0,1.058912203E-1,-1.602851486E1,6.884495258E0
3.130776562E0,-1.071835756E-1,-1.754637337E1,8.380807877E0
3.133175260E0,-4.208104908E-1,-1.873863602E1,9.427027702E0
3.135574739E0,-1.002576470E0,-1.920309067E1,9.805295944E0
3.137974166E0,-1.505337238E0,-1.861892891E1,9.549126625E0
3.140372812E0,-1.802205443E0,-1.760861969E1,9.223529816E0
3.142771510E0,-1.955427766E0,-1.631341362E1,8.893143654E0
3.145170989E0,-1.955427766E0,-1.495356464E1,8.699221611E0
3.147570416E0,-1.785446763E0,-1.402704906E1,8.536423683E0
3.149969062E0,-1.651377201E0,-1.451783848E1,8.747103691E0
3.152367760E0,-1.644194961E0,-1.439095211E1,8.598670006E0
3.154767239E0,-1.629830360E0,-1.449150372E1,8.225191116E0
3.157166666E0,-1.531672359E0,-1.446277428E1,7.741582870E0
3.159565312E0,-1.282685995E0,-1.434546375E1,7.143057823E0
3.161963958E0,-1.052852631E0,-1.412760067E1,6.582839012E0
3.164363437E0,-7.511961460E-1,-1.374933243E1,6.094442844E0
3.166762864E0,-5.764269829E-1,-1.353386497E1,5.632381916E0
3.169161510E0,-3.872931302E-1,-1.307419777E1,5.251719952E0
3.171560208E0,-2.029475272E-1,-1.256904316E1,4.945275307E0
3.173959687E0,-1.790065467E-1,-1.207585812E1,4.672348499E0
3.176359114E0,-1.071835756E-1,-1.196333599E1,4.291686535E0
3.178757760E0,7.733166218E-3,-1.178377819E1,3.908630610E0
3.181156458E0,1.322263032E-1,-1.145818043E1,3.515998363E0
3.183555937E0,2.471430451E-1,-1.116610050E1,3.089848995E0
3.185955364E0,3.500893116E-1,-1.080459213E1,2.776221991E0
3.188354010E0,3.644538820E-1,-1.066094589E1,2.448230505E0
3.190752708E0,3.692420721E-1,-1.062503433E1,2.158544540E0
3.193152187E0,3.788184822E-1,-1.055321217E1,1.950257897E0
3.195551614E0,3.572716117E-1,-1.052927113E1,1.691695333E0
3.197950260E0,3.883948922E-1,-1.035929012E1,1.457073569E0
3.200348958E0,4.434591532E-1,-1.012706184E1,1.306245446E0
3.202748437E0,4.985234141E-1,-9.909198761E0,1.217663646E0
3.205147864E0,5.033116341E-1,-9.782311440E0,1.150628924E0
3.207546510E0,4.099417627E-1,-9.715276718E0,1.126688004E0
3.209945208E0,5.751345754E-1,-9.669788361E0,1.145840764E0
3.212344687E0,7.546919584E-1,-9.784706116E0,1.220057845E0
3.214744114E0,1.065924764E0,-9.923563957E0,1.243998766E0
3.217142760E0,1.458557010E0,-9.988204002E0,1.303851366E0
3.219541458E0,1.875130296E0,-9.957080841E0,1.411585689E0
3.221940937E0,2.186362982E0,-9.880469322E0,1.442709088E0
3.224340364E0,2.483231068E0,-9.772734642E0,1.500167489E0
3.226739010E0,2.954868555E0,-9.650635719E0,1.504955530E0
3.229137708E0,3.323559999E0,-9.638666153E0,1.552837610E0
3.231537187E0,3.689857006E0,-9.679366112E0,1.557625771E0
3.233936614E0,3.981936932E0,-9.741611481E0,1.500167489E0
3.236335260E0,4.266834736E0,-9.779917717E0,1.433132648E0
3.238733958E0,4.546944618E0,-9.846951485E0,1.308639407E0
3.241133437E0,4.767201424E0,-1.000017452E1,1.236816525E0
3.243532864E0,4.939576626E0,-1.005045033E1,1.153023124E0
3.245931510E0,5.061675549E0,-1.010551453E1,1.066835523E0
3.248330208E0,5.123921871E0,-1.008875561E1,1.033318162E0
3.250729635E0,5.097587109E0,-1.003608608E1,9.088250399E-1
3.253129062E0,5.013793468E0,-1.008875561E1,8.800958991E-1
3.255527708E0,4.910847187E0,-1.020367241E1,7.651791573E-1
3.257926406E0,4.798325062E0,-1.027310181E1,5.904099345E-1
3.260325885E0,4.716925621E0,-1.023719025E1,4.539463222E-1
3.262725312E0,4.618767262E0,-1.006960392E1,3.916997612E-1
3.265123958E0,4.523003578E0,-9.892439842E0,2.743889093E-1
3.267522656E0,4.475121498E0,-9.653029442E0,1.858072579E-1
3.269922135E0,4.388934135E0,-9.404044151E0,7.807280123E-2
3.272321562E0,4.305140495E0,-9.169422150E0,6.249845028E-3
3.274720208E0,4.147130013E0,-9.020987511E0,-9.909049422E-2
3.277118906E0,4.032213211E0,-8.860583305E0,-2.355541289E-1
3.279518385E0,3.898143768E0,-8.702572823E0,-2.762538195E-1
3.281917812E0,3.740132809E0,-8.534985542E0,-2.642832994E-1
3.284316458E0,3.577334404E0,-8.297969818E0,-2.978006899E-1
3.286715156E0,3.364259481E0,-8.123201370E0,-3.265298605E-1
3.289114635E0,3.134426117E0,-8.015466690E0,-4.318702221E-1
3.291514062E0,2.947686434E0,-7.910126686E0,-5.252400637E-1
3.293912708E0,2.691517591E0,-7.823939323E0,-5.994571447E-1
3.296311406E0,2.476048946E0,-7.761692524E0,-7.311325669E-1
3.298710885E0,2.234244823E0,-7.495947838E0,-8.508374691E-1
3.301110312E0,2.009199619E0,-7.031492710E0,-1.102217913E0
3.303508958E0,1.743454814E0,-6.595766544E0,-1.260228395E0
3.305907656E0,1.527985930E0,-6.191163540E0,-1.288957715E0
3.308307135E0,1.310122848E0,-5.951754093E0,-1.233893275E0
3.310706562E0,1.118595004E0,-5.697979927E0,-1.099823833E0
3.313105208E0,9.390375614E-1,-5.683614731E0,-8.268964887E-1
3.315503906E0,8.767910004E-1,-5.987665653E0,-5.922748446E-1
3.317903385E0,9.294612408E-1,-6.571825504E0,-3.600472808E-1
3.320302812E0,9.797372818E-1,-7.053039074E0,-7.036130875E-2
3.322701458E0,8.360912800E-1,-7.167956352E0,2.935416996E-1
3.325100104E0,6.876572371E-1,-7.373848915E0,5.904099345E-1
3.327499583E0,6.349869967E-1,-7.754510403E0,7.986965179E-1
3.329899010E0,6.086519957E-1,-8.350640297E0,8.848840594E-1
3.332297656E0,5.942873955E-1,-9.011411667E0,9.064310193E-1
3.334696354E0,5.080997944E-1,-9.411225319E0,8.920663595E-1
3.337095833E0,4.386709332E-1,-9.643453598E0,9.447365403E-1
3.339495260E0,4.314886630E-1,-9.779917717E0,9.375542402E-1
3.341893906E0,4.482473433E-1,-9.885257721E0,9.998008013E-1
3.344292604E0,4.362768531E-1,-1.006002712E1,1.095564723E0
3.346692083E0,4.123358727E-1,-1.019409657E1,1.155417204E0
3.349091510E0,3.740302920E-1,-1.031859016E1,1.234422445E0
3.351490156E0,3.069955111E-1,-1.045265865E1,1.272728086E0
3.353888854E0,2.399607450E-1,-1.064897537E1,1.320609927E0
3.356288333E0,1.011030227E-1,-1.088359642E1,1.399615169E0
3.358687760E0,-7.606028020E-2,-1.110145950E1,1.509743810E0
3.361086406E0,-2.987114787E-1,-1.133368778E1,1.706059933E0
3.363485104E0,-4.950275719E-1,-1.144620991E1,1.986169457E0
3.365884583E0,-6.434617043E-1,-1.147254467E1,2.347678423E0
3.368284010E0,-8.062603474E-1,-1.151085091E1,2.893532991E0
3.370682656E0,-9.834237099E-1,-1.151085091E1,3.413052082E0
3.373081354E0,-1.194104314E0,-1.150127506E1,3.738649607E0
3.375480833E0,-1.359297276E0,-1.146296883E1,3.800896168E0
3.377880260E0,-1.488578439E0,-1.147972775E1,3.527968884E0
3.380278906E0,-1.558007360E0,-1.148690987E1,3.063513994E0
3.382677604E0,-1.565189719E0,-1.147254467E1,2.570329428E0
3.385077083E0,-1.641800880E0,-1.142705727E1,2.160938740E0
3.387476510E0,-1.737564802E0,-1.129059410E1,1.995745778E0
3.389875156E0,-1.842905045E0,-1.110145950E1,2.069962978E0
3.392273854E0,-1.969792485E0,-1.090514374E1,2.165726900E0
3.394673333E0,-2.046403646E0,-1.071601009E1,2.184879780E0
3.397072760E0,-2.120620489E0,-1.051729965E1,2.122632980E0
3.399471406E0,-2.127803087E0,-1.035689449E1,2.017292738E0
3.401870104E0,-2.151744127E0,-1.014142704E1,1.909558296E0
3.404269531E0,-2.146955729E0,-9.902016640E0,1.770700574E0
3.406668958E0,-2.170896769E0,-9.648241997E0,1.603113651E0
3.409067604E0,-2.221172810E0,-9.281944275E0,1.366097808E0
3.411466302E0,-2.285813570E0,-8.862977982E0,1.174569964E0
3.413865781E0,-2.350454092E0,-8.525409698E0,9.830421209E-1
3.416265208E0,-2.367212772E0,-8.307546616E0,7.651791573E-1
3.418663854E0,-2.403124332E0,-8.139959335E0,6.430801153E-1
3.421062552E0,-2.410306692E0,-8.046589851E0,5.257692933E-1
3.423462031E0,-2.386365652E0,-7.967585087E0,3.605764806E-1
3.425861458E0,-2.333695650E0,-7.962796688E0,2.001718283E-1
3.428260104E0,-2.295389891E0,-7.984343529E0,5.413181335E-2
3.430658802E0,-2.233143330E0,-7.967585087E0,-1.421842873E-1
3.433058281E0,-2.218778849E0,-8.037014008E0,-3.768059611E-1
3.435457708E0,-2.185261250E0,-8.065742493E0,-5.084813833E-1
3.437856354E0,-2.187655687E0,-8.075319290E0,-5.491810441E-1
3.440255052E0,-2.192443609E0,-8.092077255E0,-4.605994225E-1
3.442654531E0,-2.187655687E0,-8.113624573E0,-3.265298605E-1
3.445053958E0,-2.199625731E0,-8.154324532E0,-1.110609993E-1
3.447452604E0,-2.197231770E0,-8.242906570E0,1.690485477E-1
3.449851302E0,-2.158926249E0,-8.417675018E0,4.802814126E-1
3.452250781E0,-2.087103367E0,-8.613991737E0,8.800958991E-1
3.454650208E0,-1.993733525E0,-8.831854820E0,1.272728086E0
3.457048854E0,-1.888393044E0,-9.004229546E0,1.624660611E0
3.459447552E0,-1.797417164E0,-9.114357948E0,1.950257897E0
3.461847031E0,-1.689682841E0,-9.195757866E0,2.249520302E0
3.464246458E0,-1.589130759E0,-9.238850594E0,2.436259985E0
3.466645104E0,-1.529278278E0,-9.284338951E0,2.582299948E0
3.469043802E0,-1.438302517E0,-9.286732674E0,2.675669909E0
3.471443281E0,-1.368873596E0,-9.313067436E0,2.716369390E0
3.473842708E0,-1.299444675E0,-9.329826355E0,2.761857510E0
3.476241354E0,-1.287474275E0,-9.372920990E0,2.776221991E0
3.478640000E0,-1.371267676E0,-9.052111626E0,2.816921711E0
3.481039479E0,-1.962609887E0,-6.713077068E0,2.591876507E0
3.483438906E0,-2.597046375E0,-9.504815340E-1,2.812133551E0
3.485837552E0,-2.522829294E0,1.400523543E0,3.922995329E0
3.488236250E0,-2.292995930E0,5.601947904E-1,4.231834412E0
3.490635729E0,-2.312148571E0,2.226268798E-1,4.109735012E0
3.493035156E0,-2.434247494E0,-6.129136086E-1,3.738649607E0
3.495433802E0,-2.498888254E0,-2.401305199E0,3.154489756E0
3.497832500E0,-2.489311934E0,-4.225608826E0,2.579905987E0
3.500231979E0,-2.501282454E0,-5.604609489E0,2.168120861E0
3.502631406E0,-2.395941973E0,-6.574219704E0,1.866464615E0
3.505030052E0,-2.273843050E0,-7.155985832E0,1.813794374E0
3.507428750E0,-2.130197048E0,-7.409759998E0,1.825764775E0
3.509828229E0,-1.953033805E0,-7.517494678E0,1.847311735E0
3.512227656E0,-1.742352962E0,-7.560588360E0,1.904770017E0
3.514626302E0,-1.603495240E0,-7.603682041E0,1.945469856E0
3.517025000E0,-1.337750316E0,-7.766480923E0,2.041233778E0
3.519424479E0,-1.060034871E0,-7.924491405E0,2.113056660E0
3.521823906E0,-8.086545467E-1,-8.240511894E0,2.211214781E0
3.524222552E0,-5.165743828E-1,-8.563715935E0,2.268673182E0
3.526621250E0,-2.987114787E-1,-9.016200066E0,2.445836544E0
3.529020729E0,-1.843214035E-3,-9.404044151E0,2.644546747E0
3.531420156E0,1.777141839E-1,-9.789493561E0,2.840862751E0
3.533818802E0,4.410650730E-1,-1.000975037E1,3.025208235E0
3.536217500E0,6.014696360E-1,-1.023240185E1,3.166460276E0
3.538616979E0,7.642683983E-1,-1.044308281E1,3.286164999E0
3.541016406E0,8.983379602E-1,-1.065855217E1,3.434599161E0
3.543415052E0,1.034801602E0,-1.087641430E1,3.525574923E0
3.545813750E0,1.202388525E0,-1.106076050E1,3.642885685E0
3.548213229E0,1.307728767E0,-1.132171631E1,3.712314606E0
3.550612656E0,1.516015410E0,-1.144142151E1,3.786531687E0
3.553011302E0,1.662055373E0,-1.160422039E1,3.822443247E0
3.555409948E0,1.815277815E0,-1.165449715E1,3.817654848E0
3.557809427E0,1.932588696E0,-1.170956039E1,3.788925648E0
3.560208854E0,1.997229338E0,-1.175026035E1,3.741044044E0
3.562607500E0,2.171998501E0,-1.176941395E1,3.688373804E0
3.565006198E0,2.337191105E0,-1.179814243E1,3.604580164E0
3.567405677E0,2.437743425E0,-1.169998455E1,3.518392801E0
3.569805104E0,2.550266027E0,-1.165210247E1,3.446569681E0
3.572203750E0,2.631665468E0,-1.163773727E1,3.324470758E0
3.574602448E0,2.772917271E0,-1.165449715E1,3.135336876E0
3.577001927E0,2.887833834E0,-1.163294983E1,2.974932194E0
3.579401354E0,2.966839075E0,-1.167843819E1,2.807345152E0
3.581800000E0,2.985991955E0,-1.167843819E1,2.589482546E0
3.584198698E0,2.957262754E0,-1.165449715E1,2.484142065E0
3.586598177E0,2.839951992E0,-1.159224987E1,2.462595224E0
3.588997604E0,2.646029949E0,-1.149169731E1,2.474565744E0
3.591396250E0,2.344373465E0,-1.124271202E1,2.577512026E0
3.593794948E0,1.891888857E0,-1.084050274E1,2.776221991E0
3.596194427E0,1.429827929E0,-1.105118370E1,2.929444551E0
3.598593854E0,1.425039649E0,-1.152521610E1,3.027602434E0
3.600992500E0,1.563897371E0,-1.189390659E1,3.056331635E0
3.603391198E0,1.767395735E0,-1.204234028E1,3.164065838E0
3.605790677E0,1.911041617E0,-1.249961376E1,3.274194717E0
3.608190104E0,2.198333502E0,-1.265762329E1,3.314894199E0
3.610588750E0,2.488019466E0,-1.274381161E1,3.360382080E0
3.612987448E0,2.784887552E0,-1.272944641E1,3.384323120E0
3.615386927E0,3.074573755E0,-1.270071793E1,3.369958401E0
3.617786354E0,3.258919239E0,-1.294970417E1,3.379534960E0
3.620185000E0,3.598881245E0,-1.303589153E1,3.288559198E0
3.622583698E0,3.761679888E0,-1.311729050E1,3.199977398E0
3.624983177E0,3.931660891E0,-1.301434517E1,3.176036358E0
3.627382604E0,4.065730572E0,-1.298561573E1,3.106607676E0
3.629781250E0,4.118400574E0,-1.294252205E1,2.979720354E0
3.632179896E0,4.178253174E0,-1.257861900E1,3.029996395E0
3.634579375E0,4.151917934E0,-1.279648209E1,2.814527750E0
3.636978802E0,4.171071053E0,-1.248285484E1,2.706793308E0
3.639377448E0,4.171071053E0,-1.239427376E1,2.510477304E0
3.641776146E0,4.202194214E0,-1.260974216E1,2.177697420E0
3.644175625E0,4.264440536E0,-1.221232128E1,1.844917536E0
3.646575052E0,4.348233700E0,-1.191545391E1,1.519320250E0
3.648973698E0,4.324293137E0,-1.185799503E1,1.093170643E0
3.651372396E0,4.302746296E0,-1.198248863E1,4.826754928E-1
3.653771875E0,4.250076294E0,-1.153957939E1,-1.421842873E-1
3.656171302E0,4.171071053E0,-1.124271202E1,-7.885909081E-1
3.658569948E0,4.106430054E0,-1.116370678E1,-1.540338039E0
3.660968646E0,4.032213211E0,-1.119243526E1,-2.313631773E0
3.663368125E0,3.984331131E0,-1.121158886E1,-3.168324947E0
3.665767552E0,3.934054852E0,-1.127383518E1,-4.011047840E0
3.668166198E0,3.910114050E0,-1.133847618E1,-4.791523933E0
3.670564896E0,3.874202728E0,-1.141987514E1,-5.442718983E0
3.672964375E0,3.831108570E0,-1.152521610E1,-5.947873592E0
3.675363802E0,3.814350128E0,-1.162097931E1,-6.316565037E0
3.677762448E0,3.730556726E0,-1.168801403E1,-6.560762882E0
3.680161146E0,3.668310165E0,-1.173589611E1,-6.623009682E0
3.682560625E0,3.622822046E0,-1.181011295E1,-6.553580761E0
3.684960052E0,3.586910725E0,-1.188193607E1,-6.397964478E0
3.687358698E0,3.553393364E0,-1.200164032E1,-6.230377674E0
3.689757396E0,3.507905483E0,-1.213571072E1,-6.000544071E0
3.692156875E0,3.476782084E0,-1.225541592E1,-5.696493626E0
3.694556302E0,3.445658922E0,-1.234639168E1,-5.385260582E0
3.696954948E0,3.436082363E0,-1.247327900E1,-5.062057018E0
3.699353646E0,3.433688402E0,-1.258340645E1,-4.765189171E0
3.701753125E0,3.464811563E0,-1.268874741E1,-4.473109245E0
3.704152552E0,3.457629442E0,-1.280366325E1,-4.147511482E0
3.706551198E0,3.517481804E0,-1.293055153E1,-3.826702356E0
3.708949896E0,3.507905483E0,-1.304307365E1,-3.537016392E0
3.711349375E0,3.512693644E0,-1.314123154E1,-3.240148067E0
3.713748802E0,3.500723124E0,-1.320587254E1,-2.955250263E0
3.716147448E0,3.572546244E0,-1.330163670E1,-2.675140858E0
3.718546146E0,3.606063366E0,-1.335670090E1,-2.407001734E0
3.720945573E0,3.649157047E0,-1.340697670E1,-2.174774170E0
3.723345000E0,3.663522005E0,-1.346922398E1,-1.973670006E0
3.725743646E0,3.694645166E0,-1.354344082E1,-1.791718483E0
3.728142343E0,3.701827526E0,-1.362483978E1,-1.645678282E0
3.730541823E0,3.682674646E0,-1.359850502E1,-1.490061879E0
3.732941250E0,3.582122326E0,-1.355062294E1,-1.327263236E0
3.735339896E0,3.483964443E0,-1.338064194E1,-1.159676313E0
3.737738593E0,3.330742121E0,-1.318432617E1,-9.154781699E-1
3.740138073E0,3.189490318E0,-1.295928097E1,-6.736741662E-1
3.742537500E0,2.983597994E0,-1.284436417E1,-1.757016778E-1
3.744936146E0,2.811222553E0,-1.262410641E1,4.826754928E-1
3.747334843E0,2.598147869E0,-1.231766129E1,1.234422445E0
3.749734323E0,2.459290266E0,-1.188672447E1,1.967016697E0
3.752133750E0,2.286915064E0,-1.143902779E1,2.620605707E0
3.754532396E0,2.200727463E0,-1.092429638E1,3.147307396E0
3.756931093E0,2.284520864E0,-1.009354496E1,3.386717081E0
3.759330573E0,2.399437666E0,-9.152664185E0,3.554304123E0
3.761730000E0,2.380285025E0,-8.633143425E0,3.853566408E0
3.764128646E0,2.420984745E0,-8.223752975E0,4.078611851E0
3.766527343E0,2.521536589E0,-7.879003525E0,4.282109737E0
3.768926823E0,2.610118389E0,-7.565376759E0,4.382662296E0
3.771326250E0,2.660394430E0,-7.347513676E0,4.380268574E0
3.773724896E0,2.720246792E0,-7.261326313E0,4.322810173E0
3.776123593E0,2.722641230E0,-7.115286350E0,4.346750736E0
3.778523073E0,2.693911791E0,-6.964457512E0,4.363509655E0
3.780922500E0,2.703488111E0,-6.801659107E0,4.270139694E0
3.783321146E0,2.602936268E0,-6.813629627E0,4.112129211E0
3.785719843E0,2.516748667E0,-6.734624386E0,3.858354807E0
3.788119323E0,1.518409491E0,-6.217498779E0,3.827231407E0
3.790518750E0,1.154506564E0,-6.073853016E0,3.231100798E0
3.792917396E0,1.003678203E0,-6.143281460E0,2.524841785E0
3.795316093E0,7.355391979E-1,-6.236651897E0,1.916740537E0
3.797715573E0,3.955771923E-1,-6.492820263E0,1.399615169E0
3.800115000E0,-1.860190928E-2,-6.887846470E0,8.705195189E-1
3.802513646E0,-4.639042318E-1,-7.354695797E0,3.103003800E-1
3.804912343E0,-8.756892681E-1,-7.859850883E0,-2.020367384E-1
3.807311771E0,-1.282685995E0,-8.467951775E0,-7.790145278E-1
3.809711198E0,-1.675318241E0,-9.061687469E0,-1.353598356E0
3.812109843E0,-2.048797846E0,-9.708094597E0,-1.923393726E0
3.814508541E0,-2.431853533E0,-1.028267765E1,-2.433336735E0
3.816908021E0,-2.726327658E0,-1.086923313E1,-2.878639221E0
3.819307448E0,-2.970525742E0,-1.144860458E1,-3.285635948E0
3.821706458E0,-3.164447784E0,-1.199206448E1,-3.654327393E0
3.824105364E0,-3.423010349E0,-1.242539692E1,-3.936830997E0
3.826504479E0,-3.837189674E0,-1.266720104E1,-4.027806759E0
3.828903698E0,-4.306433201E0,-1.284436417E1,-4.063717842E0
3.831302343E0,-4.679912090E0,-1.294970417E1,-4.092447281E0
3.833701041E0,-4.904957771E0,-1.311729050E1,-4.137935162E0
3.836100521E0,-5.077332497E0,-1.329924297E1,-4.145117760E0
3.838499948E0,-5.115638256E0,-1.351471138E1,-4.204969883E0
3.840898593E0,-5.132397175E0,-1.378763866E1,-4.353404045E0
3.843297291E0,-5.118031979E0,-1.412520695E1,-4.499444008E0
3.845696771E0,-5.072544575E0,-1.448432159E1,-4.676607609E0
3.848096198E0,-4.885804653E0,-1.471894264E1,-4.810677052E0
3.850494843E0,-4.612877369E0,-1.482907200E1,-4.882500172E0
3.852893541E0,-4.234610081E0,-1.486019516E1,-4.894470692E0
3.855293021E0,-3.818036556E0,-1.492244148E1,-4.813071251E0
3.857692448E0,-3.334428787E0,-1.500623512E1,-4.659848690E0
3.860091093E0,-2.867579699E0,-1.503017616E1,-4.463532448E0
3.862489791E0,-2.472553253E0,-1.499187088E1,-4.233698845E0
3.864889271E0,-2.091891527E0,-1.487695408E1,-3.934436798E0
3.867288698E0,-1.658559442E0,-1.475246048E1,-3.606445312E0
3.869687343E0,-1.273109555E0,-1.458247948E1,-3.249724627E0
3.872086041E0,-8.804774284E-1,-1.440531540E1,-2.967220783E0
3.874485521E0,-4.208104908E-1,-1.421857643E1,-2.644017458E0
3.876884948E0,-2.339011431E-2,-1.403423119E1,-2.471642256E0
3.879283593E0,4.554296136E-1,-1.381876183E1,-2.373484373E0
3.881682291E0,9.246729612E-1,-1.358414078E1,-2.248991251E0
3.884081771E0,1.343640327E0,-1.331360626E1,-2.184350491E0
3.886481198E0,1.693178773E0,-1.300237465E1,-2.167591810E0
3.888879843E0,2.025958300E0,-1.273902416E1,-2.196321011E0
3.891278541E0,2.365920305E0,-1.246130753E1,-2.215473890E0
3.893677968E0,2.641241550E0,-1.223626232E1,-2.332784891E0
3.896077396E0,2.945292234E0,-1.204473495E1,-2.392637014E0
3.898476093E0,3.244554758E0,-1.196094131E1,-2.505159855E0
3.900874739E0,3.534240723E0,-1.191306019E1,-2.543465376E0
3.903274218E0,3.802379608E0,-1.189630032E1,-2.517130375E0
3.905673646E0,4.039395332E0,-1.187954140E1,-2.292085171E0
3.908072291E0,4.317111015E0,-1.197291183E1,-1.976063967E0
3.910470989E0,4.604403019E0,-1.208304119E1,-1.557096720E0
3.912870468E0,4.827054024E0,-1.213810444E1,-1.176434994E0
3.915269896E0,5.080828190E0,-1.226978016E1,-8.484434485E-1
3.917668541E0,5.377696514E0,-1.241821384E1,-5.228459835E-1
3.920067239E0,5.626682758E0,-1.247806644E1,-1.924603283E-1
3.922466718E0,5.830181599E0,-1.256425476E1,1.810190380E-1
3.924866146E0,6.019314766E0,-1.265044212E1,5.999863744E-1
3.927264791E0,6.265907288E0,-1.264086533E1,1.062047362E0
3.929663489E0,6.517287254E0,-1.260495377E1,1.459467649E0
3.932062968E0,6.838097095E0,-1.252116108E1,1.787459254E0
3.934462396E0,7.223546982E0,-1.242300320E1,2.086721659E0
3.936861041E0,7.532385349E0,-1.232245064E1,2.280643702E0
3.939259739E0,7.788553715E0,-1.227456856E1,2.572723627E0
3.941659218E0,7.910653114E0,-1.221950340E1,2.898321152E0
3.944058646E0,7.963323593E0,-1.218119907E1,3.379534960E0
3.946457291E0,7.917835236E0,-1.209261703E1,3.946936369E0
3.948855989E0,7.743065834E0,-1.198009396E1,4.646012783E0
3.951255468E0,7.498867989E0,-1.192502975E1,5.527041435E0
3.953654896E0,7.269034386E0,-1.189151287E1,6.518198490E0
3.956053541E0,7.015259743E0,-1.184363079E1,7.427956104E0
3.958452239E0,6.955407619E0,-1.169759083E1,7.782282352E0
3.960851718E0,7.060748100E0,-1.147015095E1,7.466261387E0
3.963251146E0,7.125388622E0,-1.122595310E1,7.380074024E0
3.965649791E0,6.955407619E0,-1.103203106E1,7.617089748E0
3.968048489E0,6.584322453E0,-1.090035534E1,8.148579597E0
3.970447968E0,6.052832603E0,-1.083092690E1,8.471782684E0
3.972847396E0,5.387272835E0,-1.081416798E1,9.055942535E0
3.975246041E0,4.733684063E0,-1.070403957E1,9.783748627E0
3.977644739E0,4.070518970E0,-1.036886597E1,1.036312103E1
3.980044218E0,3.706615686E0,-9.892439842E0,1.154101753E1
3.982443646E0,3.404959202E0,-9.404044151E0,1.348502636E1
3.984842291E0,2.839951992E0,-8.965923309E0,1.414100933E1
3.987240989E0,2.523931026E0,-8.551744461E0,1.418410301E1
3.989640468E0,2.358738184E0,-8.123201370E0,1.395905685E1
3.992039896E0,2.205515862E0,-7.835909843E0,1.337729073E1
3.994438489E0,2.035534859E0,-7.591711521E0,1.243880463E1
3.996837187E0,1.867947936E0,-7.404971600E0,1.123696709E1
3.999236666E0,1.638114452E0,-7.407366276E0,9.975276947E0
4.001636093E0,1.415463328E0,-7.527070999E0,8.562759399E0
4.004034739E0,1.262240887E0,-7.673110962E0,7.085599899E0
4.006433437E0,1.063530803E0,-7.828727245E0,5.546194553E0
4.008832916E0,8.648204803E-1,-8.046589851E0,4.035518169E0
4.011232343E0,7.283568382E-1,-8.204600334E0,2.426683664E0
4.013630989E0,6.517457962E-1,-8.388945580E0,8.729135394E-1
4.016029687E0,6.086519957E-1,-8.573291779E0,-6.880388260E-1
4.018429166E0,6.134401560E-1,-8.812702179E0,-2.191532850E0
4.020828593E0,6.062579155E-1,-9.023382187E0,-3.675873995E0
4.023227239E0,6.828689575E-1,-9.150269508E0,-5.303861141E0
4.025625937E0,7.187805176E-1,-9.188574791E0,-7.408274174E0
4.028025416E0,6.038637161E-1,-9.320250511E0,-9.862224579E0
4.030424843E0,4.314886630E-1,-9.461503029E0,-1.171765232E1
4.032823489E0,3.069955111E-1,-9.540507317E0,-1.264656162E1
4.035222187E0,2.950250506E-1,-9.633877754E0,-1.266571522E1
4.037621666E0,3.716361821E-1,-9.662607193E0,-1.205521965E1
4.040021093E0,4.314886630E-1,-9.600359917E0,-1.127953243E1
4.042419739E0,4.674001336E-1,-9.442349434E0,-1.040329170E1
4.044818437E0,5.440112352E-1,-9.145482063E0,-9.354676247E0
4.047217916E0,5.535876751E-1,-8.918042183E0,-8.140868187E0
4.049617343E0,4.578237534E-1,-8.697784424E0,-6.797779083E0
4.052015989E0,3.357247114E-1,-8.597232819E0,-5.397231102E0
4.054414687E0,2.136256695E-1,-8.549350739E0,-3.958377838E0
4.056814166E0,2.449186891E-2,-8.542168617E0,-2.433336735E0
4.059213593E0,-1.622478366E-1,-8.561320305E0,-1.035183191E0
4.061612239E0,-3.848989904E-1,-8.618780136E0,2.241128385E-1
4.064010937E0,-6.290971041E-1,-8.697784424E0,1.445103049E0
4.066410416E0,-9.139947891E-1,-8.834248543E0,2.579905987E0
4.068809843E0,-1.160586953E0,-8.970711708E0,3.700344086E0
4.071208489E0,-1.289868355E0,-8.997046471E0,4.775294304E0
4.073607187E0,-1.320991635E0,-8.982683182E0,5.637169838E0
4.076006666E0,-1.253956795E0,-8.920435905E0,6.257241249E0
4.078406093E0,-1.155798793E0,-8.800730705E0,6.570868492E0
4.080804739E0,-9.187829494E-1,-8.649902344E0,6.494257450E0
4.083203437E0,-5.883973837E-1,-8.453586578E0,6.132748604E0
4.085602916E0,-2.388589978E-1,-8.266847610E0,5.632381916E0
4.088002343E0,5.082695186E-2,-8.118412971E0,5.091315269E0
4.090400989E0,2.806604505E-1,-7.986737728E0,4.411391258E0
4.092799687E0,5.057057142E-1,-7.876609325E0,3.690767765E0
4.095199166E0,7.451155186E-1,-7.749722004E0,2.936626673E0
4.097598593E0,9.653726816E-1,-7.646775723E0,2.151362419E0
4.099997239E0,1.154506564E0,-7.505524158E0,1.423556209E0
4.102395885E0,1.341246128E0,-7.416942120E0,8.034847379E-1
4.104795364E0,1.496862650E0,-7.304419518E0,2.384774089E-1
4.107194791E0,1.630932212E0,-7.206261635E0,-2.690715194E-1
4.109593489E0,1.741060615E0,-7.120074272E0,-7.167679667E-1
4.111992135E0,1.841612935E0,-7.060221672E0,-1.030394912E0
4.114391614E0,1.923012137E0,-7.014733791E0,-1.253046155E0
4.116791041E0,1.982864618E0,-6.974034309E0,-1.334445596E0
4.119189687E0,2.042716980E0,-6.940516472E0,-1.351204157E0
4.121588385E0,2.109751940E0,-6.895028591E0,-1.291351676E0
4.123987864E0,2.171998501E0,-6.890240669E0,-1.097429633E0
4.126387291E0,2.219880342E0,-6.902211189E0,-8.292906284E-1
4.128785937E0,2.286915064E0,-6.866299629E0,-5.252400637E-1
4.131184635E0,2.356343985E0,-6.861511707E0,-2.235836089E-1
4.133584114E0,2.416196346E0,-6.844752789E0,1.283488721E-1
4.135983541E0,2.492807627E0,-6.835175991E0,4.754931927E-1
4.138382187E0,2.538295507E0,-6.837570667E0,8.417903185E-1
4.140780885E0,2.576601267E0,-6.813629627E0,1.109929323E0
4.143180364E0,2.614906549E0,-6.806447029E0,1.423556209E0
4.145579791E0,2.665182590E0,-6.777718067E0,1.694089413E0
4.147978437E0,2.684335470E0,-6.756171227E0,1.931105256E0
4.150377135E0,2.725035191E0,-6.729835987E0,2.122632980E0
4.152776614E0,2.729823351E0,-6.715471745E0,2.290220022E0
4.155176041E0,2.744187832E0,-6.662801266E0,2.388377905E0
4.157574687E0,2.770523071E0,-6.636466026E0,2.488930225E0
4.159973385E0,2.787281752E0,-6.607737064E0,2.522447348E0
4.162372864E0,2.813616991E0,-6.598160744E0,2.505688906E0
4.164772291E0,2.866286993E0,-6.557461262E0,2.450624704E0
4.167170937E0,2.878257513E0,-6.569431782E0,2.395560503E0
4.169569635E0,2.911774874E0,-6.571825504E0,2.259096622E0
4.171969114E0,2.966839075E0,-6.583796024E0,2.084327459E0
4.174368541E0,3.038662195E0,-6.588584423E0,1.878434896E0
4.176767187E0,3.103302717E0,-6.593372345E0,1.629448652E0
4.179165885E0,3.203854799E0,-6.631678104E0,1.349339247E0
4.181565364E0,3.239766359E0,-6.665194988E0,1.062047362E0
4.183964791E0,3.278071880E0,-6.667589664E0,7.867260575E-1
4.186363437E0,3.278071880E0,-6.705895424E0,5.592866540E-1
4.188762135E0,3.254130840E0,-6.772929668E0,2.983298898E-1
4.191161614E0,3.218219519E0,-6.780112267E0,1.211665720E-1
4.193561041E0,3.108090878E0,-6.799264908E0,-6.078492850E-2
4.195959687E0,3.026691675E0,-6.789688587E0,-2.140072584E-1
4.198358385E0,2.851922512E0,-6.758565426E0,-3.552590609E-1
4.200757864E0,2.701094151E0,-6.760959148E0,-5.036931634E-1
4.203157291E0,2.528719187E0,-6.753777027E0,-6.593096256E-1
4.205555937E0,2.334797144E0,-6.693924904E0,-7.861968875E-1
4.207954635E0,2.138480902E0,-6.684348106E0,-9.226605296E-1
4.210354114E0,1.930194497E0,-6.636466026E0,-1.042365432E0
4.212753541E0,1.736272573E0,-6.638860226E0,-1.186011434E0
4.215152187E0,1.592626572E0,-6.600554466E0,-1.288957715E0
4.217550885E0,1.432221889E0,-6.605342865E0,-1.406268477E0
4.219950364E0,1.288576007E0,-6.583796024E0,-1.537943959E0
4.222349791E0,1.168871045E0,-6.576613903E0,-1.657648802E0
4.224748437E0,1.094653964E0,-6.605342865E0,-1.791718483E0
4.227147135E0,1.020436883E0,-6.593372345E0,-1.940152645E0
4.229546562E0,9.438258410E-1,-6.626889706E0,-2.064645529E0
4.231945989E0,9.103083611E-1,-6.626889706E0,-2.220262051E0
4.234344687E0,9.055202007E-1,-6.691530704E0,-2.380666494E0
4.236743333E0,9.103083611E-1,-6.727442265E0,-2.586559057E0
4.239142812E0,9.103083611E-1,-6.784900188E0,-2.778087139E0
4.241542239E0,9.342494011E-1,-6.856723309E0,-2.967220783E0
4.243940885E0,9.510080814E-1,-6.914181709E0,-3.182689905E0
4.246339583E0,9.845254421E-1,-7.031492710E0,-3.390976191E0
4.248739062E0,9.653726816E-1,-7.153591633E0,-3.587292671E0
4.251138489E0,9.821313620E-1,-7.280478477E0,-3.774032116E0
4.253537135E0,1.013254642E0,-7.409759998E0,-3.965559959E0
4.255935833E0,1.001284122E0,-7.515100479E0,-4.169058323E0
4.258335312E0,9.605845213E-1,-7.682687283E0,-4.358191967E0
4.260734739E0,9.534021616E-1,-7.811968803E0,-4.552114010E0
4.263133385E0,8.767910004E-1,-7.929279804E0,-4.667031288E0
4.265532083E0,8.265149593E-1,-8.084896088E0,-4.825041771E0
4.267931562E0,7.139923573E-1,-8.190236092E0,-4.904046535E0
4.270330989E0,5.751345754E-1,-8.415280342E0,-4.963899136E0
4.272729635E0,5.200703144E-1,-8.582867622E0,-5.002204418E0
4.275128333E0,4.793706238E-1,-8.537379265E0,-5.114727497E0
4.277527812E0,3.620597720E-1,-8.657084465E0,-5.121909618E0
4.279927239E0,2.710840404E-1,-8.827065468E0,-5.107544899E0
4.282325885E0,1.441968083E-1,-8.989864349E0,-5.083603859E0
4.284724583E0,3.167416155E-2,-9.145482063E0,-4.987840176E0
4.287124062E0,-7.366618514E-2,-9.320250511E0,-4.983052254E0
4.289523489E0,-1.550655365E-1,-9.530930519E0,-4.908834934E0
4.291922135E0,-3.250465691E-1,-9.897229195E0,-4.796311855E0
4.294320833E0,-4.495396912E-1,-1.005523872E1,-4.753218651E0
4.296720312E0,-5.692446232E-1,-1.015579033E1,-4.779553413E0
4.299119739E0,-7.392256260E-1,-1.025394917E1,-4.813071251E0
4.301518385E0,-9.355417490E-1,-1.042632389E1,-4.865741253E0
4.303917083E0,-1.162981153E0,-1.060109329E1,-4.975869656E0
4.306316562E0,-1.445484757E0,-1.080937958E1,-5.167397499E0
4.308715989E0,-1.792629123E0,-1.101766682E1,-5.356531620E0
4.311114635E0,-2.163714647E0,-1.124271202E1,-5.622276783E0
4.313513333E0,-2.563529015E0,-1.143423939E1,-5.955056190E0
4.315912812E0,-2.984890223E0,-1.159943295E1,-6.271077156E0
4.318312239E0,-3.355975628E0,-1.178856659E1,-6.615827560E0
4.320710885E0,-3.669602633E0,-1.189151287E1,-6.996489048E0
4.323109583E0,-3.992805958E0,-1.205910015E1,-7.355604172E0
4.325509062E0,-4.251368523E0,-1.217880440E1,-7.697959900E0
4.327908489E0,-4.426137447E0,-1.210937595E1,-8.128897667E0
4.330307135E0,-4.572177410E0,-1.204473495E1,-8.468859673E0
4.332705833E0,-4.624847889E0,-1.194178867E1,-8.686722755E0
4.335105312E0,-4.574572086E0,-1.183405399E1,-8.796851158E0
4.337504739E0,-4.507536888E0,-1.168083191E1,-8.851916313E0
4.339903385E0,-4.402196407E0,-1.149888039E1,-8.717845917E0
4.342302083E0,-4.296856403E0,-1.135523510E1,-8.435341835E0
4.344701562E0,-4.296856403E0,-1.137199306E1,-8.028345108E0
4.347100989E0,-4.179545403E0,-1.099611950E1,-7.604589939E0
4.349499635E0,-4.052658558E0,-1.063939857E1,-7.144923210E0
4.351898333E0,-3.952106476E0,-1.031380177E1,-6.668497562E0
4.354297812E0,-3.796489954E0,-1.000256824E1,-6.163342476E0
4.356697239E0,-3.636085033E0,-9.684153557E0,-5.722828388E0
4.359095885E0,-3.456527948E0,-9.327432632E0,-5.380472660E0
4.361494583E0,-3.224300385E0,-8.951560020E0,-5.117121696E0
4.363894062E0,-3.037560701E0,-8.812702179E0,-4.904046535E0
4.366293489E0,-2.743086338E0,-8.400917053E0,-4.741248131E0
4.368692135E0,-2.376789331E0,-7.898156166E0,-4.667031288E0
4.371090833E0,-2.058374166E0,-7.515100479E0,-4.542538166E0
4.373490312E0,-1.790234923E0,-7.201473713E0,-4.362980366E0
4.375889739E0,-1.538854599E0,-6.897423267E0,-4.149905682E0
4.378288385E0,-1.383238196E0,-6.660407066E0,-3.900919199E0
4.380687083E0,-1.251562715E0,-6.456908703E0,-3.644750834E0
4.383086562E0,-1.107916832E0,-6.341992378E0,-3.326335669E0
4.385485989E0,-9.092066288E-1,-6.289321899E0,-2.991161823E0
4.387884635E0,-7.033141851E-1,-6.303686619E0,-2.588953257E0
4.390283333E0,-4.447515309E-1,-6.334809780E0,-2.146044970E0
4.392682812E0,-1.478832662E-1,-6.437756062E0,-1.662437081E0
4.395082239E0,2.351725549E-1,-6.626889706E0,-1.236287475E0
4.397480885E0,6.182283163E-1,-6.885452747E0,-9.250546098E-1
4.399879583E0,1.041983843E0,-7.270902157E0,-8.029555678E-1
4.402279062E0,1.537562251E0,-7.797604084E0,-8.173201084E-1
4.404678489E0,2.040323019E0,-8.470345497E0,-9.059017897E-1
4.407077135E0,2.569418669E0,-9.234063148E0,-9.920893312E-1
4.409475781E0,3.076967716E0,-1.011269665E1,-1.071094632E0
4.411875260E0,3.536634684E0,-1.102963638E1,-1.183617353E0
4.414274687E0,3.826320648E0,-1.189151287E1,-1.229105234E0
4.416673333E0,4.010666370E0,-1.281324100E1,-1.214740515E0
4.419072031E0,4.072912693E0,-1.380439758E1,-1.056730032E0
4.421471510E0,4.070518970E0,-1.493201733E1,-7.502853870E-1
4.423870937E0,4.003484249E0,-1.623201370E1,-3.337121904E-1
4.426269583E0,3.967572451E0,-1.754158592E1,2.169305384E-1
4.428668281E0,3.953207970E0,-1.886552238E1,8.848840594E-1
4.431067760E0,3.955601931E0,-2.008411789E1,1.792247415E0
4.433467187E0,3.986725092E0,-2.119019127E1,2.833680391E0
4.435865833E0,4.118400574E0,-2.229626656E1,3.903842449E0
4.438264531E0,4.362598896E0,-2.332094002E1,4.885423183E0
4.440664010E0,4.602008343E0,-2.441264915E1,5.673081398E0
4.443063437E0,4.819871426E0,-2.548760033E1,6.432011127E0
4.445462083E0,5.028157711E0,-2.658888435E1,7.121511459E0
4.447860781E0,5.305873394E0,-2.766144180E1,7.763129711E0
4.450260260E0,5.607530117E0,-2.849458694E1,8.524453163E0
4.452659687E0,5.940310001E0,-2.914578247E1,9.118189812E0
4.455058333E0,6.344912529E0,-2.956953812E1,9.599404335E0
4.457457031E0,6.727968216E0,-2.990231705E1,9.836419106E0
4.459856510E0,7.046383381E0,-2.991189384E1,9.925001144E0
4.462255937E0,7.216364384E0,-2.884412575E1,9.941760063E0
4.464654583E0,7.003289223E0,-2.698630524E1,9.857966423E0
4.467053281E0,6.493346214E0,-2.427139854E1,9.518004417E0
4.469452760E0,5.964251041E0,-2.150142479E1,9.158888817E0
4.471852187E0,5.485430717E0,-1.899241066E1,8.974543571E0
4.474250833E0,5.054493427E0,-1.666773987E1,8.706404686E0
4.476649531E0,4.688195705E0,-1.448671532E1,8.227584839E0
4.479049010E0,4.355416298E0,-1.246849060E1,7.633848667E0
4.481448437E0,4.137553692E0,-1.066094589E1,6.879707336E0
4.483847083E0,4.037001133E0,-9.095204353E0,6.173448086E0
4.486245781E0,3.931660891E0,-7.742539883E0,5.421700954E0
4.488645260E0,3.807168007E0,-6.691530704E0,4.703471661E0
4.491044687E0,3.565363884E0,-5.808108330E0,3.841595888E0
4.493443333E0,3.249342918E0,-5.041996479E0,2.941414833E0
4.495842031E0,2.878257513E0,-4.364466667E0,2.026869059E0
4.498241510E0,2.452107906E0,-3.672571659E0,1.160205364E0
4.500640937E0,2.107357740E0,-3.035741568E0,3.198767900E-1
4.503039583E0,1.879918456E0,-2.374970198E0,-3.696236610E-1
4.505438281E0,1.760213494E0,-1.709410667E0,-8.819608092E-1
4.507837760E0,1.616567492E0,-1.161162257E0,-1.291351676E0
4.510237187E0,1.549532771E0,-6.344604492E-1,-1.590614080E0
4.512635833E0,1.566291571E0,-1.149410456E-1,-1.751018643E0
4.515034531E0,1.571079612E0,3.686669171E-1,-1.669619322E0
4.517434010E0,1.669237733E0,8.450925350E-1,-1.566673040E0
4.519833437E0,1.990046859E0,1.362217903E0,-1.446968198E0
4.522232083E0,2.397043705E0,1.903284311E0,-1.257834315E0
4.524630781E0,2.789675951E0,2.331828117E0,-1.051941752E0
4.527030260E0,3.311589479E0,2.815435886E0,-7.790145278E-1
4.529429687E0,3.737738848E0,3.210462093E0,-6.353686452E-1
4.531828333E0,4.178253174E0,3.452265978E0,-4.725699425E-1
4.534227031E0,4.678619862E0,3.737163782E0,-2.690715194E-1
4.536626510E0,5.152651310E0,3.978967905E0,-3.684394062E-2
4.539025937E0,5.600347996E0,4.065155506E0,3.855742514E-3
4.541424583E0,5.985797405E0,4.065155506E0,-1.529704779E-2
4.543823281E0,6.318577290E0,3.914327383E0,2.061443403E-2
4.546222760E0,6.478981972E0,3.490571737E0,4.694951698E-2
4.548622187E0,6.423917770E0,2.501809120E0,9.483149648E-2
4.551020833E0,6.282665730E0,1.283212662E0,1.498957574E-1
4.553419531E0,6.110291004E0,-2.429634333E-5,1.762308478E-1
4.555819010E0,5.892427921E0,-1.407754302E0,9.243739396E-2
4.558218437E0,5.691323280E0,-2.884913206E0,-9.324550629E-4
4.560617083E0,5.456701756E0,-4.378831387E0,-1.134550944E-1
4.563015781E0,5.269961834E0,-5.774590492E0,-2.211895287E-1
4.565415260E0,5.090404987E0,-7.234990597E0,-2.930124998E-1
4.567814687E0,4.929999828E0,-8.642721176E0,-3.720177412E-1
4.570213333E0,4.786354542E0,-9.928351402E0,-4.079292417E-1
4.572612031E0,4.618767262E0,-1.115173531E1,-3.983528316E-1
4.575011510E0,4.434422016E0,-1.226020336E1,-3.624413610E-1
4.577410937E0,4.281199455E0,-1.324178410E1,-2.307659388E-1
4.579809583E0,4.161494255E0,-1.412520695E1,-1.589429677E-1
4.582208281E0,3.989119291E0,-1.489371300E1,-6.557313353E-2
4.584607760E0,3.871808290E0,-1.545632553E1,1.103803515E-2
4.587007187E0,3.728162766E0,-1.586811066E1,4.216131940E-2
4.589405833E0,3.601275444E0,-1.621525383E1,2.061443403E-2
4.591804531E0,3.428900242E0,-1.650494003E1,-6.078492850E-2
4.594204010E0,3.227795839E0,-1.670604515E1,-1.182432994E-1
4.596603437E0,2.983597994E0,-1.679462814E1,-1.828839481E-1
4.599002083E0,2.696305990E0,-1.684729767E1,-2.475246191E-1
4.601400781E0,2.298885584E0,-1.684490395E1,-3.193475902E-1
4.603800260E0,1.851189256E0,-1.671562195E1,-4.246879220E-1
4.606199687E0,1.329275608E0,-1.653845787E1,-5.180578232E-1
4.608598333E0,7.379332781E-1,-1.624159050E1,-5.779102445E-1
4.610997031E0,1.154676154E-1,-1.581304646E1,-6.233981252E-1
4.613396510E0,-4.351751506E-1,-1.529113293E1,-5.515751839E-1
4.615795937E0,-1.031305552E0,-1.472612572E1,-3.768059611E-1
4.618194583E0,-1.498154998E0,-1.408929443E1,-2.487344295E-2
4.620593281E0,-1.938669086E0,-1.341176510E1,4.012761414E-1
4.622992760E0,-2.324119091E0,-1.271029472E1,9.184014201E-1
4.625392187E0,-2.632957935E0,-1.200642967E1,1.550443411E0
4.627790833E0,-2.860397339E0,-1.128101730E1,2.244732141E0
4.630189531E0,-3.027984142E0,-1.059869862E1,3.073090315E0
4.632589010E0,-3.174024105E0,-9.949898720E0,3.937360048E0
4.634988437E0,-3.320064068E0,-9.368132591E0,4.871058464E0
4.637387083E0,-3.432586908E0,-8.803124428E0,5.680263996E0
4.639785781E0,-3.439769030E0,-8.166295052E0,6.257241249E0
4.642185260E0,-3.377522707E0,-7.627623081E0,6.736061573E0
4.644584687E0,-3.413434029E0,-7.155985832E0,7.028141499E0
4.646983333E0,-3.430192947E0,-6.768141747E0,7.181364059E0
4.649382031E0,-3.394281387E0,-6.361144543E0,7.262763023E0
4.651781510E0,-3.408645868E0,-6.025971413E0,7.272339344E0
4.654180937E0,-3.439769030E0,-5.805714130E0,7.217275620E0
4.656579583E0,-3.461316109E0,-5.647703171E0,6.925194740E0
4.658978281E0,-3.420616388E0,-5.575880527E0,6.551715851E0
4.661377760E0,-3.336822748E0,-5.583062649E0,6.123171806E0
4.663777187E0,-3.224300385E0,-5.640521049E0,5.685051918E0
4.666175833E0,-3.066289663E0,-5.695585251E0,5.290025711E0
4.668574531E0,-2.843638659E0,-5.844019890E0,4.945275307E0
4.670974010E0,-2.692810297E0,-6.121735096E0,4.547854900E0
4.673373437E0,-2.565922976E0,-6.562249184E0,4.083399773E0
4.675772083E0,-2.470159054E0,-7.120074272E0,3.537545443E0
4.678170781E0,-2.403124332E0,-7.749722004E0,2.989296913E0
4.680570260E0,-2.314542532E0,-8.357822418E0,2.498506784E0
4.682969687E0,-2.149349928E0,-8.970711708E0,2.060386658E0
4.685368333E0,-2.041615248E0,-9.509385109E0,1.677330732E0
4.687767031E0,-1.936274886E0,-1.003129768E1,1.421162248E0
4.690166510E0,-1.871634364E0,-1.056278801E1,1.162599444E0
4.692565937E0,-1.816570044E0,-1.106315517E1,8.609430790E-1
4.694964583E0,-1.749535203E0,-1.149648571E1,5.018282533E-1
4.697363281E0,-1.680106521E0,-1.186996555E1,2.073541284E-1
4.699762760E0,-1.613071561E0,-1.218598652E1,-8.472590894E-2
4.702162187E0,-1.481396198E0,-1.245891380E1,-3.385003805E-1
4.704560833E0,-1.347326756E0,-1.267198849E1,-6.377627254E-1
4.706959531E0,-1.179739714E0,-1.279887581E1,-8.723843694E-1
4.709359010E0,-9.738472700E-1,-1.279887581E1,-1.023212671E0
4.711758437E0,-7.607724667E-1,-1.271987057E1,-1.073488832E0
4.714157083E0,-5.165743828E-1,-1.260495377E1,-1.121370673E0
4.716555781E0,-3.370170295E-1,-1.237033272E1,-1.030394912E0
4.718955260E0,-1.526714265E-1,-1.199685287E1,-9.777247310E-1
4.721354687E0,4.843284935E-2,-1.157549191E1,-9.082958698E-1
4.723753333E0,2.279902548E-1,-1.113737202E1,-8.532316089E-1
4.726152031E0,4.051535726E-1,-1.073037434E1,-7.790145278E-1
4.728551510E0,5.583758354E-1,-1.037844181E1,-7.047975063E-1
4.730950937E0,7.068099976E-1,-1.006960392E1,-6.305804253E-1
4.733349583E0,8.408795595E-1,-9.791887283E0,-5.443928838E-1
4.735748281E0,9.174907207E-1,-9.559660912E0,-4.438407421E-1
4.738147760E0,1.022831082E0,-9.341797829E0,-2.834360898E-1
4.740547187E0,1.113806844E0,-9.162240028E0,-1.900662482E-1
4.742945833E0,1.243088126E0,-9.013805389E0,-7.514951378E-2
4.745344531E0,1.374763489E0,-8.908465385E0,2.779673040E-2
4.747744010E0,1.499256730E0,-8.841430664E0,1.618662477E-1
4.750143437E0,1.611779451E0,-8.810307503E0,2.552361190E-1
4.752542083E0,1.697966933E0,-8.731301308E0,3.988820314E-1
4.754940781E0,1.784154534E0,-8.728907585E0,6.023804545E-1
4.757340260E0,1.855977416E0,-8.726513863E0,7.986965179E-1
4.759739687E0,1.891888857E0,-8.688208580E0,1.050076842E0
4.762138333E0,1.934982657E0,-8.659479141E0,1.287092566E0
4.764537031E0,1.975682378E0,-8.647508621E0,1.524108410E0
4.766936510E0,2.004411459E0,-8.599626541E0,1.732394934E0
4.769335937E0,2.025958300E0,-8.606808662E0,1.916740537E0
4.771734583E0,2.021170139E0,-8.621173859E0,2.127421379E0
4.774133281E0,2.049899340E0,-8.633143425E0,2.259096622E0
4.776532760E0,2.073840380E0,-8.661873817E0,2.395560503E0
4.778932187E0,2.078628540E0,-8.647508621E0,2.553570986E0
4.781330833E0,2.104963541E0,-8.664267540E0,2.666093349E0
4.783729531E0,2.085810900E0,-8.647508621E0,2.742704630E0
4.786129010E0,2.061869860E0,-8.661873817E0,2.807345152E0
4.788528437E0,2.049899340E0,-8.678631783E0,2.857621431E0
4.790927083E0,2.011593819E0,-8.685814857E0,2.900715113E0
4.793325781E0,2.018776178E0,-8.688208580E0,2.955779552E0
4.795725260E0,2.023564339E0,-8.712149620E0,2.974932194E0
4.798124687E0,2.018776178E0,-8.736090660E0,3.006055355E0
4.800523333E0,2.018776178E0,-8.786366463E0,3.006055355E0
4.802922031E0,2.028352499E0,-8.829460144E0,2.962961674E0
4.805321510E0,2.028352499E0,-8.894101143E0,2.934232473E0
4.807720937E0,2.037928820E0,-8.939588547E0,2.874380112E0
4.810119583E0,2.028352499E0,-9.023382187E0,2.754675150E0
4.812518281E0,2.040323019E0,-9.116751671E0,2.642152548E0
4.814917760E0,2.002017260E0,-9.210122108E0,2.522447348E0
4.817317187E0,2.004411459E0,-9.310673714E0,2.330919743E0
4.819715833E0,1.987652898E0,-9.404044151E0,2.110662460E0
4.822114531E0,1.958923697E0,-9.521354675E0,1.897587776E0
4.824514010E0,1.870342016E0,-9.585995674E0,1.624660611E0
4.826913437E0,1.743454814E0,-9.693729401E0,1.334974527E0
4.829312083E0,1.609385252E0,-9.779917717E0,1.064441442E0
4.831710781E0,1.453768849E0,-9.858922958E0,7.532086372E-1
4.834110260E0,1.276605487E0,-9.973839760E0,4.754931927E-1
4.836509687E0,1.063530803E0,-1.006481457E1,2.049600482E-1
4.838908333E0,8.959437609E-1,-1.023000813E1,-1.182432994E-1
4.841307031E0,7.403273582E-1,-1.027788925E1,-3.959587514E-1
4.843706510E0,5.559817553E-1,-1.039280701E1,-6.640977859E-1
4.846105937E0,3.644538820E-1,-1.048138905E1,-9.154781699E-1
4.848504583E0,2.232020646E-1,-1.053884697E1,-1.152494073E0
4.850903281E0,1.130735129E-1,-1.056997013E1,-1.355992436E0
4.853302760E0,-1.860190928E-2,-1.055799961E1,-1.571461320E0
4.855702187E0,-1.167599559E-1,-1.054124069E1,-1.695954442E0
4.858100833E0,-2.029475272E-1,-1.049575233E1,-1.849176764E0
4.860499531E0,-2.915291488E-1,-1.042153549E1,-1.930576086E0
4.862899010E0,-3.274406493E-1,-1.034731865E1,-1.988034487E0
4.865298437E0,-3.777167499E-1,-1.026352596E1,-2.040704489E0
4.867697083E0,-4.303868711E-1,-1.017494392E1,-2.040704489E0
4.870095781E0,-4.399633110E-1,-1.005523872E1,-2.011975527E0
4.872495260E0,-4.303868711E-1,-9.971446037E0,-2.014369488E0
4.874894687E0,-4.447515309E-1,-9.906805038E0,-1.961699486E0
4.877293333E0,-4.279927909E-1,-9.789493561E0,-1.909029126E0
4.879692031E0,-4.399633110E-1,-9.748793602E0,-1.851570845E0
4.882091510E0,-4.016576707E-1,-9.693729401E0,-1.782141924E0
4.884490937E0,-3.441993594E-1,-9.662607193E0,-1.691166162E0
4.886889583E0,-3.106819689E-1,-9.641059875E0,-1.607372761E0
4.889288281E0,-2.340708077E-1,-9.638666153E0,-1.492456079E0
4.891687760E0,-1.646419466E-1,-9.660212517E0,-1.415844917E0
4.894087187E0,-7.845437527E-2,-9.672183037E0,-1.308110476E0
4.896485833E0,-1.843214035E-3,-9.724852562E0,-1.186011434E0
4.898884531E0,8.673843741E-2,-9.787099838E0,-1.097429633E0
4.901284010E0,1.705318838E-1,-9.837375641E0,-1.013636351E0
4.903683437E0,2.399607450E-1,-9.923563957E0,-8.891430497E-1
4.906082083E0,3.381187916E-1,-1.004087353E1,-7.957732677E-1
4.908480781E0,3.764243722E-1,-1.011269665E1,-7.311325669E-1
4.910880260E0,4.602178335E-1,-1.016776180E1,-6.114276052E-1
4.913279687E0,4.745824337E-1,-1.027549553E1,-5.084813833E-1
4.915678333E0,4.793706238E-1,-1.034971237E1,-3.959587514E-1
4.918077031E0,5.128879547E-1,-1.038323116E1,-3.265298605E-1
4.920476510E0,4.697942138E-1,-1.051969337E1,-1.757016778E-1
