"Time (s)","Gyroscope x (rad/s)","Gyroscope y (rad/s)","Gyroscope z (rad/s)"
4.860375000E-3,-4.421268106E-1,-5.696929097E-1,2.156528831E-1
7.441625000E-3,-4.357388914E-1,-5.324301124E-1,2.438573986E-1
9.338500000E-3,-4.309566915E-1,-4.925144613E-1,2.726029754E-1
1.085881300E-2,-4.298920333E-1,-4.541870356E-1,3.018895984E-1
1.286037500E-2,-4.320213497E-1,-4.147949517E-1,3.306351602E-1
1.485881300E-2,-4.314977527E-1,-3.722089231E-1,3.588396907E-1
1.686037500E-2,-4.277627468E-1,-3.274935782E-1,3.833266497E-1
1.886037500E-2,-4.213748276E-1,-2.833192945E-1,4.062253833E-1
2.086037500E-2,-4.150044024E-1,-2.434036136E-1,4.264537394E-1
2.286193800E-2,-4.117929935E-1,-2.135759443E-1,4.456174672E-1
2.486037500E-2,-4.144633412E-1,-1.912357211E-1,4.621108174E-1
2.744162500E-2,-4.187219441E-1,-1.694016606E-1,4.770159423E-1
2.888381300E-2,-4.235216081E-1,-1.470439881E-1,4.882034957E-1
3.086350000E-2,-4.277802110E-1,-1.252273768E-1,4.988500178E-1
3.286037500E-2,-4.314977527E-1,-1.007229537E-1,5.094965100E-1
3.486037500E-2,-4.309566915E-1,-7.038912922E-2,5.217312574E-1
3.686037500E-2,-4.266980886E-1,-3.736750036E-2,5.345070958E-1
3.887287500E-2,-4.208337963E-1,-5.427973811E-3,5.472828746E-1
4.086037500E-2,-4.155105352E-1,2.701769583E-2,5.574058294E-1
4.286037500E-2,-4.069933295E-1,6.269222498E-2,5.659230351E-1
4.486037500E-2,-3.926292658E-1,1.047372073E-1,5.712462664E-1
4.749787500E-2,-3.745301962E-1,1.494525373E-1,5.755048394E-1
4.890100000E-2,-3.574957848E-1,1.931032240E-1,5.786988139E-1
5.086037500E-2,-3.431317210E-1,2.383421659E-1,5.797634721E-1
5.286037500E-2,-3.303559124E-1,2.825338840E-1,5.797634721E-1
5.486037500E-2,-3.197094202E-1,3.251199424E-1,5.776341558E-1
5.686037500E-2,-3.117158115E-1,3.650356233E-1,5.728344917E-1
5.886037500E-2,-3.058689535E-1,4.022983909E-1,5.659230351E-1
6.086037500E-2,-3.010867536E-1,4.395611584E-1,5.595350862E-1
6.286037500E-2,-2.989400029E-1,4.757592976E-1,5.542118549E-1
6.486818800E-2,-2.962696254E-1,5.119748712E-1,5.483475327E-1
6.744475000E-2,-2.909638286E-1,5.497612357E-1,5.408949852E-1
6.888225000E-2,-2.835112810E-1,5.880886912E-1,5.323777795E-1
7.085881300E-2,-2.723237276E-1,6.253514886E-1,5.222723484E-1
7.286350000E-2,-2.595653534E-1,6.625968218E-1,5.132140517E-1
7.486037500E-2,-2.457249016E-1,6.987949014E-1,5.041732788E-1
7.686037500E-2,-2.308023423E-1,7.307519317E-1,4.951150119E-1
7.886037500E-2,-2.158972323E-1,7.568271160E-1,4.850095510E-1
8.086662500E-2,-2.052507252E-1,7.775965333E-1,4.727573395E-1
8.286037500E-2,-2.031214237E-1,7.909134030E-1,4.594579339E-1
8.486037500E-2,-2.089682668E-1,8.020834923E-1,4.450764060E-1
8.744318800E-2,-2.196147740E-1,8.159239888E-1,4.317770004E-1
8.923068800E-2,-2.329316437E-1,8.260468841E-1,4.216541052E-1
9.086037500E-2,-2.489013970E-1,8.318937421E-1,4.158072472E-1
9.286037500E-2,-2.686061561E-1,8.340230584E-1,4.147425890E-1
9.486037500E-2,-2.792526782E-1,8.361523151E-1,4.158072472E-1
9.686037500E-2,-2.978753448E-1,8.521220684E-1,4.216541052E-1
9.886037500E-2,-3.154508173E-1,8.654215336E-1,4.280419946E-1
1.008603750E-1,-3.345970809E-1,8.691565394E-1,4.291066527E-1
1.028603750E-1,-3.564311266E-1,8.680918813E-1,4.259127080E-1
1.048603750E-1,-3.819827735E-1,8.691565394E-1,4.211305082E-1
1.074603750E-1,-4.277802110E-1,8.659625649E-1,4.094193280E-1
1.088619380E-1,-4.448146224E-1,8.622275591E-1,4.051607251E-1
1.108635000E-1,-4.799481034E-1,8.531693220E-1,3.966435194E-1
1.128603750E-1,-5.134758353E-1,8.393462896E-1,3.870616555E-1
1.148713130E-1,-5.422214270E-1,8.207061887E-1,3.769387603E-1
1.168603750E-1,-5.603030324E-1,7.946309447E-1,3.657686412E-1
1.188603750E-1,-5.720142126E-1,7.685557604E-1,3.497988880E-1
1.208603750E-1,-5.800077915E-1,7.451159358E-1,3.279648125E-1
1.228603750E-1,-5.880014300E-1,7.222346663E-1,3.013485372E-1
1.248603750E-1,-5.970422029E-1,6.977477074E-1,2.699500620E-1
1.274431880E-1,-6.146351695E-1,6.572735310E-1,2.188468277E-1
1.288838130E-1,-6.210230589E-1,6.434330940E-1,2.018124163E-1
1.308713130E-1,-6.380400062E-1,6.162931919E-1,1.682671905E-1
1.328603750E-1,-6.566627026E-1,5.865004659E-1,1.368687153E-1
1.348603750E-1,-6.758263707E-1,5.529552102E-1,1.065174416E-1
1.368603750E-1,-6.987076402E-1,5.151688457E-1,7.618362457E-2
1.388635000E-1,-7.226535678E-1,4.725827873E-1,4.424409568E-2
1.408603750E-1,-7.471579909E-1,4.294557273E-1,1.123992074E-2
1.428603750E-1,-7.679099441E-1,3.847578466E-1,-1.855284907E-2
1.448603750E-1,-7.849269509E-1,3.437775075E-1,-4.410447180E-2
1.474400630E-1,-7.987848520E-1,2.947860956E-1,-7.232644409E-2
1.488775630E-1,-8.009141088E-1,2.798810005E-1,-8.030259609E-2
1.508588130E-1,-8.030608892E-1,2.495297194E-1,-9.361945838E-2
1.528603750E-1,-8.014726639E-1,2.159844935E-1,-1.069188714E-1
1.548603750E-1,-7.988023162E-1,1.797863692E-1,-1.202357337E-1
1.568603750E-1,-7.934790254E-1,1.419825405E-1,-1.356644481E-1
1.588603750E-1,-7.849618196E-1,1.063254550E-1,-1.495049000E-1
1.608603750E-1,-7.732506394E-1,7.438593358E-2,-1.622807086E-1
1.628603750E-1,-7.594102025E-1,4.351105914E-2,-1.739918739E-1
1.648603750E-1,-7.450461388E-1,1.741838641E-2,-1.846383810E-1
1.674885000E-1,-7.280117273E-1,-1.076868176E-2,-2.000845522E-1
1.692228750E-1,-7.205417156E-1,-2.567379363E-2,-2.123192996E-1
1.708588130E-1,-7.189534903E-1,-3.364994749E-2,-2.181836069E-1
1.728853750E-1,-7.194595933E-1,-5.227261037E-2,-2.314830124E-1
1.748603750E-1,-7.221300006E-1,-7.091272622E-2,-2.458645254E-1
1.768603750E-1,-7.274706960E-1,-9.060004354E-2,-2.591639459E-1
1.788603750E-1,-7.327764630E-1,-1.124341115E-1,-2.724808156E-1
1.808666250E-1,-7.386407852E-1,-1.347917765E-1,-2.868448496E-1
1.828603750E-1,-7.450286746E-1,-1.555437446E-1,-3.038792610E-1
1.848603750E-1,-7.514166236E-1,-1.752485037E-1,-3.209137022E-1
1.874431880E-1,-7.631277442E-1,-1.986708343E-1,-3.390127420E-1
1.891978750E-1,-7.716449499E-1,-2.109230459E-1,-3.485946059E-1
1.909025630E-1,-7.759035826E-1,-2.162462920E-1,-3.533942699E-1
1.928760000E-1,-7.844207883E-1,-2.252870947E-1,-3.608468175E-1
1.948603750E-1,-7.881383300E-1,-2.295456976E-1,-3.640407622E-1
1.968603750E-1,-7.870736718E-1,-2.305929065E-1,-3.645643592E-1
1.988603750E-1,-7.806857824E-1,-2.305929065E-1,-3.698876202E-1
2.008603750E-1,-7.689746022E-1,-2.279399931E-1,-3.778812289E-1
2.028603750E-1,-7.567398548E-1,-2.242224514E-1,-3.842691481E-1
2.048603750E-1,-7.476816177E-1,-2.199638486E-1,-3.885277510E-1
2.074416250E-1,-7.391818166E-1,-2.050587386E-1,-3.895924091E-1
2.088603750E-1,-7.381172180E-1,-1.992118806E-1,-3.890513480E-1
2.108588130E-1,-7.386407852E-1,-1.880243123E-1,-3.890513480E-1
2.128603750E-1,-7.423583269E-1,-1.768367589E-1,-3.879866898E-1
2.148603750E-1,-7.482226491E-1,-1.635373533E-1,-3.885277510E-1
2.168603750E-1,-7.551516294E-1,-1.513025910E-1,-3.890513480E-1
2.188603750E-1,-7.610158920E-1,-1.385267824E-1,-3.906570375E-1
2.208603750E-1,-7.663391829E-1,-1.273566782E-1,-3.943746090E-1
2.228603750E-1,-7.706152201E-1,-1.151219159E-1,-3.975685537E-1
2.248603750E-1,-7.721860409E-1,-1.023286507E-1,-4.023682177E-1
2.274416250E-1,-7.663217187E-1,-7.677703351E-2,-4.119500518E-1
2.288822500E-1,-7.631452084E-1,-6.878342479E-2,-4.156676233E-1
2.306838130E-1,-7.551516294E-1,-5.387831479E-2,-4.220555127E-1
2.328603750E-1,-7.455697656E-1,-4.057890549E-2,-4.279198349E-1
2.348603750E-1,-7.365289330E-1,-2.886774577E-2,-4.332430661E-1
2.368603750E-1,-7.269470692E-1,-1.715658605E-2,-4.375016689E-1
2.388603750E-1,-7.157595158E-1,-5.445427261E-3,-4.396309853E-1
2.408603750E-1,-7.035073042E-1,1.052433532E-2,-4.417602718E-1
2.428603750E-1,-6.891257763E-1,3.768165782E-2,-4.401545823E-1
2.448603750E-1,-6.715503335E-1,7.120943069E-2,-4.337666631E-1
2.474416250E-1,-6.433458328E-1,1.185776666E-1,-4.162086546E-1
2.491978750E-1,-6.337639689E-1,1.318945289E-1,-4.092797041E-1
2.508603750E-1,-6.151412725E-1,1.563815027E-1,-3.965038955E-1
2.528603750E-1,-5.949129462E-1,1.792627722E-1,-3.847927451E-1
2.548603750E-1,-5.730963349E-1,2.016204298E-1,-3.736226261E-1
2.568603750E-1,-5.486093163E-1,2.239781022E-1,-3.640407622E-1
2.588603750E-1,-5.230576992E-1,2.457947135E-1,-3.544589281E-1
2.608603750E-1,-4.969825149E-1,2.649584413E-1,-3.470063508E-1
2.628603750E-1,-4.682194889E-1,2.835985422E-1,-3.390127420E-1
2.648603750E-1,-4.426678419E-1,3.016976118E-1,-3.310365975E-1
2.674447500E-1,-4.038168192E-1,3.309667706E-1,-3.182607889E-1
2.688603750E-1,-3.905174136E-1,3.410722315E-1,-3.145257831E-1
2.709369380E-1,-3.639011383E-1,3.597123623E-1,-3.092025220E-1
2.728603750E-1,-3.362202346E-1,3.788760602E-1,-3.065496385E-1
2.748603750E-1,-3.074746430E-1,3.980397880E-1,-3.049439192E-1
2.768603750E-1,-2.776644230E-1,4.161388576E-1,-3.054849803E-1
2.788603750E-1,-2.478542030E-1,4.342379272E-1,-3.070732355E-1
2.808603750E-1,-2.175029367E-1,4.523369670E-1,-3.097435832E-1
2.828603750E-1,-1.887573600E-1,4.720417559E-1,-3.129375279E-1
2.848603750E-1,-1.653175801E-1,4.912054539E-1,-3.166550994E-1
2.874416250E-1,-1.392423660E-1,5.204746127E-1,-3.241076469E-1
2.888822500E-1,-1.328544617E-1,5.305975676E-1,-3.262369335E-1
2.908588130E-1,-1.222079545E-1,5.529552102E-1,-3.310365975E-1
2.928603750E-1,-1.115788966E-1,5.763601065E-1,-3.363598585E-1
2.948603750E-1,-9.934414178E-2,6.013880968E-1,-3.416831195E-1
2.968603750E-1,-8.337438107E-2,6.274633408E-1,-3.454006612E-1
2.988603750E-1,-6.527531147E-2,6.546206474E-1,-3.485946059E-1
3.008603750E-1,-4.396484420E-2,6.828251481E-1,-3.485946059E-1
3.028603750E-1,-2.054252476E-2,7.115707397E-1,-3.454006612E-1
3.048603750E-1,4.974188283E-3,7.403163314E-1,-3.400774002E-1
3.074416250E-1,4.384266958E-2,7.834433913E-1,-3.299719393E-1
3.088822500E-1,5.714207888E-2,7.972664237E-1,-3.262369335E-1
3.108588130E-1,8.162904531E-2,8.254883885E-1,-3.177197278E-1
3.128603750E-1,1.061334684E-1,8.505163789E-1,-3.076142669E-1
3.148603750E-1,1.290147305E-1,8.723329902E-1,-2.974913716E-1
3.168603750E-1,1.481784582E-1,8.888438344E-1,-2.857802212E-1
3.188603750E-1,1.636246145E-1,9.026842713E-1,-2.751336992E-1
3.208603750E-1,1.748121828E-1,9.133307934E-1,-2.650282383E-1
3.228603750E-1,1.822647303E-1,9.229126573E-1,-2.559700012E-1
3.248603750E-1,1.859822869E-1,9.271886945E-1,-2.490584850E-1
3.274400630E-1,1.865233332E-1,9.234536886E-1,-2.442588210E-1
3.293385000E-1,1.843940318E-1,9.133482575E-1,-2.394766212E-1
3.308588130E-1,1.795943826E-1,8.968374133E-1,-2.341533750E-1
3.328603750E-1,1.726828814E-1,8.744797707E-1,-2.267008126E-1
3.348603750E-1,1.646892726E-1,8.462752700E-1,-2.187072039E-1
3.368603750E-1,1.577777565E-1,8.127300143E-1,-2.086017579E-1
3.388603750E-1,1.519309133E-1,7.749436498E-1,-1.963495463E-1
3.408603750E-1,1.487195045E-1,7.328811884E-1,-1.825090796E-1
3.428603750E-1,1.460491568E-1,6.854954958E-1,-1.660157144E-1
3.448603750E-1,1.439198554E-1,6.338512301E-1,-1.473755985E-1
3.474400630E-1,1.423316002E-1,5.790304542E-1,-1.276882887E-1
3.488822500E-1,1.396612525E-1,5.231449604E-1,-1.063952744E-1
3.508603750E-1,1.359436959E-1,4.651128054E-1,-8.562584966E-2
3.528603750E-1,1.311440468E-1,4.097509384E-1,-6.433283538E-2
3.548603750E-1,1.252971888E-1,3.565184176E-1,-4.251622036E-2
3.568603750E-1,1.199739352E-1,3.048741221E-1,-2.015855350E-2
3.588603750E-1,1.151917279E-1,2.569822669E-1,2.722713631E-3
3.608603750E-1,1.098684743E-1,2.143962383E-1,2.614503168E-2
3.628603750E-1,1.050688177E-1,1.755277663E-1,4.956734926E-2
3.648603750E-1,1.002866179E-1,1.414589286E-1,7.457792014E-2
3.674431880E-1,9.494590759E-2,1.111251116E-1,1.006705910E-1
3.688603750E-1,8.962265402E-2,8.449138701E-2,1.272868663E-1
3.709353750E-1,8.217009902E-2,6.215117499E-2,1.533620805E-1
3.728603750E-1,7.417649031E-2,4.244640842E-2,1.789136976E-1
3.748603750E-1,6.674139202E-2,2.275909297E-2,2.055299729E-1
3.768603750E-1,5.663593486E-2,3.054326167E-3,2.316226512E-1
3.788603750E-1,4.651302472E-2,-1.609193534E-2,2.561096251E-1
3.808603750E-1,3.797836602E-2,-3.473205119E-2,2.811201811E-1
3.828603750E-1,2.893755957E-2,-5.389576778E-2,3.056071401E-1
3.848603750E-1,1.935570128E-2,-7.304202765E-2,3.295705318E-1
3.874400630E-1,1.137954649E-2,-9.114108980E-2,3.529928327E-1
3.888822500E-1,4.991641734E-3,-1.071108580E-1,3.764151633E-1
3.908603750E-1,1.797689125E-3,-1.204277202E-1,3.987728357E-1
3.928603750E-1,2.844886621E-3,-1.310742199E-1,4.211305082E-1
3.948603750E-1,1.083849464E-2,-1.406735331E-1,4.440117478E-1
3.968603750E-1,2.413790300E-2,-1.502553970E-1,4.663694203E-1
3.988603750E-1,4.331907257E-2,-1.587551534E-1,4.887270927E-1
4.008603750E-1,6.834709644E-2,-1.683195531E-1,5.100201368E-1
4.028603750E-1,9.761626273E-2,-1.800481677E-1,5.307895541E-1
4.048603750E-1,1.290321946E-1,-1.922829300E-1,5.510178804E-1
4.074400630E-1,1.631010175E-1,-2.066469789E-1,5.712462664E-1
4.093385000E-1,1.982344985E-1,-2.210284919E-1,5.909335613E-1
4.108603750E-1,2.290919125E-1,-2.343453616E-1,6.106383204E-1
4.128681880E-1,2.562492490E-1,-2.449918687E-1,6.298020482E-1
4.148603750E-1,2.775422633E-1,-2.545737326E-1,6.489657760E-1
4.168603750E-1,2.919063270E-1,-2.641555667E-1,6.681295037E-1
4.188603750E-1,3.014881611E-1,-2.721491754E-1,6.851639152E-1
4.208603750E-1,3.084171414E-1,-2.790606916E-1,7.021983266E-1
4.228603750E-1,3.116110861E-1,-2.854486108E-1,7.176270485E-1
4.248603750E-1,3.132167757E-1,-2.929011583E-1,7.298792601E-1
4.274400630E-1,3.110874891E-1,-3.024830222E-1,7.389200330E-1
4.288853750E-1,3.036174774E-1,-3.184527755E-1,7.442433238E-1
4.308603750E-1,2.892534137E-1,-3.408104479E-1,7.431786656E-1
4.328603750E-1,2.743483186E-1,-3.652974069E-1,7.352024913E-1
4.348603750E-1,2.668783069E-1,-3.855257630E-1,7.234913111E-1
4.368603750E-1,2.706133127E-1,-4.031012356E-1,7.123037577E-1
4.388603750E-1,2.871241271E-1,-4.212003052E-1,7.064568996E-1
4.408603750E-1,3.163932860E-1,-4.446051717E-1,7.075215578E-1
4.428603750E-1,3.568500280E-1,-4.744328558E-1,7.128448486E-1
4.448603750E-1,4.058239460E-1,-5.074370503E-1,7.197563052E-1
4.474400630E-1,4.633325636E-1,-5.420294404E-1,7.266852856E-1
4.488838130E-1,5.266705751E-1,-5.766218901E-1,7.335968018E-1
4.508588130E-1,5.937435627E-1,-6.128200293E-1,7.383964658E-1
4.528603750E-1,6.624222398E-1,-6.495417356E-1,7.389200330E-1
4.548603750E-1,7.300188541E-1,-6.857573390E-1,7.357261181E-1
4.568603750E-1,7.955036163E-1,-7.230026126E-1,7.298792601E-1
4.588603750E-1,8.263784647E-1,-7.405781150E-1,7.256206274E-1
4.608603750E-1,8.811993003E-1,-7.714529634E-1,7.144330740E-1
4.628603750E-1,9.264382124E-1,-7.938281298E-1,7.000690103E-1
4.648603750E-1,9.583951831E-1,-8.065864444E-1,6.824935675E-1
4.674463130E-1,9.796882272E-1,-8.081921339E-1,6.510950923E-1
4.688603750E-1,9.802117944E-1,-8.044571280E-1,6.393839121E-1
4.709353750E-1,9.738239050E-1,-7.911577225E-1,6.127676368E-1
4.728603750E-1,9.610480666E-1,-7.725350857E-1,5.840220451E-1
4.748588130E-1,9.445372820E-1,-7.512420416E-1,5.526061654E-1
4.768603750E-1,9.280264378E-1,-7.288843989E-1,5.190783739E-1
4.788603750E-1,9.141860008E-1,-7.054620981E-1,4.839448929E-1
4.808603750E-1,9.046041369E-1,-6.809751391E-1,4.503996670E-1
4.828681880E-1,9.003455639E-1,-6.543588638E-1,4.190011919E-1
4.848603750E-1,9.003629684E-1,-6.224192977E-1,3.891909719E-1
4.874416250E-1,9.051626325E-1,-5.606521368E-1,3.497988880E-1
4.893385000E-1,9.094212651E-1,-5.090252757E-1,3.258355260E-1
4.908603750E-1,9.110094905E-1,-4.802797139E-1,3.146654069E-1
4.929103750E-1,9.120741487E-1,-4.164006412E-1,2.938959897E-1
4.948603750E-1,9.131388068E-1,-3.456101120E-1,2.747322619E-1
4.968603750E-1,9.147270322E-1,-2.710845470E-1,2.598271668E-1
4.988603750E-1,9.157742262E-1,-1.949707270E-1,2.491806597E-1
5.008603750E-1,9.179210067E-1,-1.177748144E-1,2.433338016E-1
5.028603750E-1,9.221796393E-1,-4.164355621E-2,2.417280972E-1
5.048603750E-1,9.296321869E-1,3.073524870E-2,2.406634539E-1
5.074447500E-1,9.440136552E-1,1.281420738E-1,2.358812541E-1
5.089650630E-1,9.503841400E-1,1.558229923E-1,2.332108915E-1
5.108603750E-1,9.637010098E-1,2.042733282E-1,2.257583439E-1
5.128603750E-1,9.770178795E-1,2.420597076E-1,2.161764801E-1
5.148603750E-1,9.887115359E-1,2.692170441E-1,2.050063759E-1
5.168635000E-1,9.998991489E-1,2.873161137E-1,1.927541643E-1
5.188603750E-1,1.010563135E0,2.958333194E-1,1.799783558E-1
5.208603750E-1,1.020668507E0,2.942450643E-1,1.666789502E-1
5.228603750E-1,1.028121114E0,2.841221392E-1,1.528384835E-1
5.248635000E-1,1.034509063E0,2.665641308E-1,1.368687153E-1
5.274431880E-1,1.039832234E0,2.293013632E-1,1.097113937E-1
5.288822500E-1,1.040373325E0,2.159844935E-1,9.960594028E-2
5.308588130E-1,1.039849758E0,1.899092793E-1,7.883652300E-2
5.328697500E-1,1.037702918E0,1.659633517E-1,5.808455870E-2
5.348603750E-1,1.033985376E0,1.473232359E-1,3.785619140E-2
5.371978750E-1,1.025450706E0,1.292067170E-1,6.440265104E-3
5.388900630E-1,1.021174669E0,1.254717261E-1,-3.647738136E-3
5.408713130E-1,1.012674928E0,1.201659217E-1,-2.228785492E-2
5.428603750E-1,1.001504779E0,1.159073189E-1,-3.932226822E-2
5.448603750E-1,9.892700911E-1,1.089958102E-1,-5.688028038E-2
5.474431880E-1,9.711535573E-1,9.674359858E-2,-8.403760195E-2
5.488822500E-1,9.653066993E-1,9.248499572E-2,-9.307841212E-2
5.508588130E-1,9.562658668E-1,8.450884372E-2,-1.117185280E-1
5.528603750E-1,9.498779774E-1,7.332128286E-2,-1.314058453E-1
5.548603750E-1,9.450783134E-1,5.948081985E-2,-1.511106044E-1
5.568603750E-1,9.418843985E-1,4.192280769E-2,-1.713389754E-1
5.588588130E-1,9.408197403E-1,2.328269184E-2,-1.894380301E-1
5.608603750E-1,9.424079657E-1,4.642575979E-3,-2.080606967E-1
5.628603750E-1,9.450609088E-1,-1.237438433E-2,-2.277654707E-1
5.648603750E-1,9.487958550E-1,-2.673844434E-2,-2.463881224E-1
5.674713130E-1,9.520072937E-1,-3.844960406E-2,-2.730044127E-1
5.692056880E-1,9.525308609E-1,-4.270820692E-2,-2.900388241E-1
5.708603750E-1,9.520072937E-1,-4.323180392E-2,-2.985560298E-1
5.728744380E-1,9.509426355E-1,-4.162610322E-2,-3.155904412E-1
5.748603750E-1,9.477486610E-1,-3.897320107E-2,-3.310365975E-1
5.768603750E-1,9.429490566E-1,-3.419100121E-2,-3.454006612E-1
5.788603750E-1,9.360200763E-1,-2.886774577E-2,-3.581764698E-1
5.808603750E-1,9.285675287E-1,-2.515019476E-2,-3.682993650E-1
5.828775630E-1,9.216385484E-1,-2.249729447E-2,-3.757519424E-1
5.848603750E-1,9.131388068E-1,-2.035053819E-2,-3.810751736E-1
5.874416250E-1,9.009040594E-1,-1.609193534E-2,-3.869220316E-1
5.888822500E-1,8.966454268E-1,-1.396263391E-2,-3.890513480E-1
5.908603750E-1,8.907811642E-1,-5.986479111E-3,-3.906570375E-1
5.928603750E-1,8.902575374E-1,9.442231618E-3,-3.885277510E-1
5.946853750E-1,8.934340477E-1,2.806489356E-2,-3.832044899E-1
5.968603750E-1,8.992983699E-1,4.829325899E-2,-3.746872842E-1
5.988603750E-1,9.062272906E-1,6.960373372E-2,-3.634997308E-1
6.008603750E-1,9.136624336E-1,9.196139872E-2,-3.512649536E-1
6.028603750E-1,9.173974395E-1,1.143190637E-1,-3.390127420E-1
6.048603750E-1,9.163327813E-1,1.340063810E-1,-3.273015916E-1
6.074853750E-1,9.094212651E-1,1.632930040E-1,-3.092025220E-1
6.091978750E-1,9.062098265E-1,1.733984649E-1,-3.022910357E-1
6.106838130E-1,9.003629684E-1,1.946914792E-1,-2.889741659E-1
6.128603750E-1,8.944987059E-1,2.159844935E-1,-2.767394185E-1
6.148603750E-1,8.896990418E-1,2.356718034E-1,-2.660928965E-1
6.168838130E-1,8.838347197E-1,2.532298267E-1,-2.559700012E-1
6.188603750E-1,8.774642944E-1,2.686759830E-1,-2.463881224E-1
6.208603750E-1,8.710938096E-1,2.798635364E-1,-2.389355749E-1
6.228603750E-1,8.625591397E-1,2.873161137E-1,-2.336123139E-1
6.248697500E-1,8.519126773E-1,2.920983136E-1,-2.288301140E-1
6.274416250E-1,8.332899809E-1,2.952922583E-1,-2.245715111E-1
6.288822500E-1,8.263610601E-1,2.958333194E-1,-2.240304649E-1
6.308635000E-1,8.114559054E-1,2.990098000E-1,-2.224422097E-1
6.328791250E-1,7.960097790E-1,3.038094640E-1,-2.235068679E-1
6.348603750E-1,7.805810571E-1,3.091327250E-1,-2.240304649E-1
6.368603750E-1,7.646113038E-1,3.155206144E-1,-2.250951082E-1
6.388603750E-1,7.486415505E-1,3.203202784E-1,-2.250951082E-1
6.408603750E-1,7.326543331E-1,3.234967887E-1,-2.240304649E-1
6.428603750E-1,7.167019844E-1,3.251024783E-1,-2.240304649E-1
6.448603750E-1,6.996850371E-1,3.245788813E-1,-2.240304649E-1
6.474697500E-1,6.730687618E-1,3.229906261E-1,-2.245715111E-1
6.492306880E-1,6.640105247E-1,3.229906261E-1,-2.245715111E-1
6.508603750E-1,6.459114552E-1,3.245788813E-1,-2.235068679E-1
6.528603750E-1,6.272887588E-1,3.283138871E-1,-2.213775665E-1
6.548603750E-1,6.070604324E-1,3.299195766E-1,-2.187072039E-1
6.568603750E-1,5.857848525E-1,3.320488930E-1,-2.155132592E-1
6.588603750E-1,5.649979711E-1,3.325724900E-1,-2.123192996E-1
6.608603750E-1,5.421167016E-1,3.325724900E-1,-2.091253549E-1
6.628603750E-1,5.197415948E-1,3.352253735E-1,-2.075370997E-1
6.648603750E-1,4.979249835E-1,3.373546898E-1,-2.075370997E-1
6.674447500E-1,4.643797576E-1,3.426779509E-1,-2.101899981E-1
6.688603750E-1,4.532096386E-1,3.442836404E-1,-2.107310593E-1
6.708619380E-1,4.308519661E-1,3.485422432E-1,-2.117957026E-1
6.728603750E-1,4.074296653E-1,3.495894372E-1,-2.128603607E-1
6.748603750E-1,3.845309317E-1,3.490658402E-1,-2.149896622E-1
6.768603750E-1,3.626968563E-1,3.469190896E-1,-2.160543054E-1
6.788603750E-1,3.398156166E-1,3.421368897E-1,-2.165779024E-1
6.808603750E-1,3.174753785E-1,3.368310928E-1,-2.165779024E-1
6.828603750E-1,2.940530777E-1,3.304431736E-1,-2.165779024E-1
6.848603750E-1,2.711543441E-1,3.245788813E-1,-2.165779024E-1
6.874416250E-1,2.471909821E-1,3.176499307E-1,-2.155132592E-1
6.888822500E-1,2.232450694E-1,3.107384145E-1,-2.133839577E-1
6.908588130E-1,1.987580955E-1,3.048741221E-1,-2.112546563E-1
6.928603750E-1,1.758593768E-1,3.006155193E-1,-2.091253549E-1
6.948603750E-1,1.529606581E-1,2.974215448E-1,-2.086017579E-1
6.968603750E-1,1.306029856E-1,2.931629419E-1,-2.080606967E-1
6.988603750E-1,1.093274206E-1,2.899689972E-1,-2.064724565E-1
7.008603750E-1,8.909905702E-2,2.878571451E-1,-2.064724565E-1
7.028603750E-1,6.887069345E-2,2.862514555E-1,-2.075370997E-1
7.048603750E-1,4.864232615E-2,2.862514555E-1,-2.101899981E-1
7.074416250E-1,2.947861142E-2,2.857278585E-1,-2.133839577E-1
7.088900630E-1,1.085594762E-2,2.846632004E-1,-2.176425606E-1
7.108588130E-1,-7.243116386E-3,2.830575109E-1,-2.224422097E-1
7.128603750E-1,-2.480112948E-2,2.809281945E-1,-2.277654707E-1
7.148603750E-1,-4.235913977E-2,2.782752812E-1,-2.325476706E-1
7.168603750E-1,-5.993460491E-2,2.756049335E-1,-2.389355749E-1
7.188603750E-1,-7.644542307E-2,2.713463306E-1,-2.453234792E-1
7.208603750E-1,-9.239772707E-2,2.654994726E-1,-2.517113984E-1
7.228603750E-1,-1.083674952E-1,2.596526444E-1,-2.570346296E-1
7.248603750E-1,-1.248783097E-1,2.527062297E-1,-2.623578906E-1
7.274400630E-1,-1.408655196E-1,2.447300702E-1,-2.671575546E-1
7.293385000E-1,-1.568178385E-1,2.362128645E-1,-2.719397545E-1
7.308603750E-1,-1.733111888E-1,2.250427604E-1,-2.756747603E-1
7.328603750E-1,-1.887399107E-1,2.112022936E-1,-2.793923020E-1
7.348603750E-1,-2.057917714E-1,1.962797344E-1,-2.831273079E-1
7.368603750E-1,-2.212379426E-1,1.803099662E-1,-2.863212526E-1
7.388603750E-1,-2.372076958E-1,1.616872996E-1,-2.905798554E-1
7.408603750E-1,-2.537010610E-1,1.409178823E-1,-2.932327688E-1
7.428603750E-1,-2.702118754E-1,1.169719696E-1,-2.953620553E-1
7.448603750E-1,-2.856405973E-1,9.087929130E-2,-2.974913716E-1
7.474431880E-1,-2.994984984E-1,6.426302344E-2,-2.985560298E-1
7.488603750E-1,-3.122568429E-1,3.605850041E-2,-2.990970612E-1
7.508588130E-1,-3.245090544E-1,6.771877408E-3,-2.980324328E-1
7.528603750E-1,-3.372848630E-1,-2.195624262E-2,-2.964267135E-1
7.548603750E-1,-3.479139209E-1,-5.016076192E-2,-2.927091718E-1
7.568603750E-1,-3.585779071E-1,-7.731808722E-2,-2.873859107E-1
7.588603750E-1,-3.676361442E-1,-1.012639999E-1,-2.815216184E-1
7.608603750E-1,-3.761533499E-1,-1.241627261E-1,-2.751336992E-1
7.628603750E-1,-3.836059272E-1,-1.454557329E-1,-2.682222128E-1
7.648603750E-1,-3.915646076E-1,-1.640783995E-1,-2.597049773E-1
7.674447500E-1,-3.990171850E-1,-1.805717647E-1,-2.511877716E-1
7.688822500E-1,-4.091400802E-1,-1.949532777E-1,-2.437352240E-1
7.708588130E-1,-4.197866023E-1,-2.066644430E-1,-2.368062735E-1
7.728603750E-1,-4.293684363E-1,-2.167698890E-1,-2.309594154E-1
7.748603750E-1,-4.394913614E-1,-2.268927991E-1,-2.256361693E-1
7.768603750E-1,-4.490732253E-1,-2.386214137E-1,-2.213775665E-1
7.788603750E-1,-4.591961205E-1,-2.524618804E-1,-2.187072039E-1
7.808603750E-1,-4.693190455E-1,-2.684316337E-1,-2.160543054E-1
7.828603750E-1,-4.783598483E-1,-2.881189585E-1,-2.144486010E-1
7.848603750E-1,-4.863359928E-1,-3.115412593E-1,-2.133839577E-1
7.874416250E-1,-4.911356568E-1,-3.376165032E-1,-2.144486010E-1
7.888822500E-1,-4.911356568E-1,-3.684913516E-1,-2.155132592E-1
7.908588130E-1,-4.873831868E-1,-4.025602043E-1,-2.181836069E-1
7.928603750E-1,-4.778187871E-1,-4.387583137E-1,-2.208365053E-1
7.948603750E-1,-4.639783204E-1,-4.749564528E-1,-2.250951082E-1
7.968603750E-1,-4.453382194E-1,-5.111545920E-1,-2.309594154E-1
7.988603750E-1,-4.235216081E-1,-5.473527312E-1,-2.362826765E-1
8.008603750E-1,-3.979699612E-1,-5.814215541E-1,-2.421295196E-1
8.028603750E-1,-3.681597412E-1,-6.112317443E-1,-2.485174239E-1
8.048603750E-1,-3.362202346E-1,-6.341304779E-1,-2.511877716E-1
8.074416250E-1,-3.005631566E-1,-6.495766640E-1,-2.517113984E-1
8.091978750E-1,-2.622357309E-1,-6.570292115E-1,-2.511877716E-1
8.108603750E-1,-2.207143307E-1,-6.580938697E-1,-2.495820820E-1
8.128666250E-1,-1.765400469E-1,-6.532942057E-1,-2.458645254E-1
8.148603750E-1,-1.302015632E-1,-6.437123418E-1,-2.421295196E-1
8.168603750E-1,-8.335692436E-2,-6.293308139E-1,-2.384119779E-1
8.188603750E-1,-3.757693991E-2,-6.117728353E-1,-2.346769720E-1
8.208603750E-1,-1.521927118E-2,-6.027145386E-1,-2.330887169E-1
8.228603750E-1,2.680825815E-2,-5.825036168E-1,-2.314830124E-1
8.248603750E-1,6.513568759E-2,-5.601285100E-1,-2.298947722E-1
8.274400630E-1,1.141096279E-1,-5.255186558E-1,-2.267008126E-1
8.288822500E-1,1.407433450E-1,-5.015727282E-1,-2.250951082E-1
8.308603750E-1,1.519134641E-1,-4.887969196E-1,-2.245715111E-1
8.328603750E-1,1.721418202E-1,-4.643099308E-1,-2.229658067E-1
8.348603750E-1,1.907819360E-1,-4.392819107E-1,-2.192482650E-1
8.368603750E-1,2.077988982E-1,-4.153360128E-1,-2.139250040E-1
8.388603750E-1,2.243097126E-1,-3.913726211E-1,-2.069960535E-1
8.408603750E-1,2.408205271E-1,-3.690149486E-1,-1.974141896E-1
8.428603750E-1,2.583611012E-1,-3.471983373E-1,-1.830501258E-1
8.448603750E-1,2.759365439E-1,-3.248406649E-1,-1.654746681E-1
8.474416250E-1,3.041759729E-1,-2.966187000E-1,-1.324704885E-1
8.488822500E-1,3.142988980E-1,-2.886250913E-1,-1.196946800E-1
8.508603750E-1,3.350508511E-1,-2.753256857E-1,-9.520771354E-2
8.528603750E-1,3.541971147E-1,-2.678731382E-1,-7.072073966E-2
8.548603750E-1,3.707079291E-1,-2.668084800E-1,-4.358087108E-2
8.568603750E-1,3.829426765E-1,-2.689377964E-1,-1.535889693E-2
8.588603750E-1,3.920009434E-1,-2.737374306E-1,1.495747175E-2
8.608603750E-1,3.941127956E-1,-2.806489468E-1,4.583234712E-2
8.628603750E-1,3.903952539E-1,-2.902308106E-1,7.618362457E-2
8.648603750E-1,3.813544512E-1,-3.024830222E-1,1.054527909E-1
8.674416250E-1,3.600439727E-1,-3.253817260E-1,1.469741762E-1
8.688822500E-1,3.515267670E-1,-3.354871869E-1,1.597499847E-1
8.708900630E-1,3.334276974E-1,-3.567802012E-1,1.821076572E-1
8.728603750E-1,3.169168830E-1,-3.802199662E-1,1.991420686E-1
8.748603750E-1,3.030764163E-1,-4.062951803E-1,2.103296220E-1
8.768603750E-1,2.918888628E-1,-4.355818331E-1,2.140471786E-1
8.788603750E-1,2.823244631E-1,-4.701742530E-1,2.113942802E-1
8.808603750E-1,2.754129469E-1,-5.058313012E-1,2.039417177E-1
8.828603750E-1,2.716779411E-1,-5.377708673E-1,1.932952106E-1
8.848603750E-1,2.700722516E-1,-5.617341995E-1,1.831723005E-1
8.874431880E-1,2.663547099E-1,-5.814215541E-1,1.709375530E-1
8.893385000E-1,2.626371384E-1,-5.846154690E-1,1.634849906E-1
8.913369380E-1,2.578375041E-1,-5.819625854E-1,1.565560400E-1
8.928588130E-1,2.551845908E-1,-5.798332691E-1,1.528384835E-1
8.948603750E-1,2.493377328E-1,-5.776865482E-1,1.448448747E-1
8.968603750E-1,2.434734255E-1,-5.824862123E-1,1.352630109E-1
8.988635000E-1,2.354798168E-1,-5.952619910E-1,1.219636053E-1
9.008603750E-1,2.275036722E-1,-6.128374338E-1,1.065174416E-1
9.028603750E-1,2.189690024E-1,-6.341304779E-1,9.054768085E-2
9.048603750E-1,2.067342550E-1,-6.591410637E-1,7.351326942E-2
9.074931880E-1,1.795943826E-1,-6.921452284E-1,4.902629927E-2
9.089025630E-1,1.694889218E-1,-7.017270923E-1,4.105014354E-2
9.108603750E-1,1.476373971E-1,-7.187615037E-1,2.453932911E-2
9.128603750E-1,1.231678873E-1,-7.326019406E-1,8.045967668E-3
9.148635000E-1,9.920451790E-2,-7.416602373E-1,-9.512044489E-3
9.168603750E-1,7.579965144E-2,-7.469660044E-1,-2.761110850E-2
9.188603750E-1,5.396557972E-2,-7.485716939E-1,-4.571017250E-2
9.208603750E-1,3.480186686E-2,-7.448366880E-1,-6.487388909E-2
9.228603750E-1,1.509709843E-2,-7.379252315E-1,-8.510225266E-2
9.248588130E-1,-4.572762642E-3,-7.294080257E-1,-1.063952744E-1
9.274416250E-1,-3.759439290E-2,-7.145028710E-1,-1.367290914E-1
9.288822500E-1,-5.089380220E-2,-7.091796398E-1,-1.468520015E-1
9.308588130E-1,-7.963937521E-2,-7.012034655E-1,-1.654746681E-1
9.328760000E-1,-1.099906489E-1,-6.969448924E-1,-1.835737228E-1
9.348603750E-1,-1.424537748E-1,-6.948155761E-1,-2.000845522E-1
9.368603750E-1,-1.738522500E-1,-6.953391433E-1,-2.149896622E-1
9.388588130E-1,-2.026152760E-1,-6.969448924E-1,-2.277654707E-1
9.408822500E-1,-2.281668931E-1,-6.990741491E-1,-2.373473197E-1
9.428994380E-1,-2.494424582E-1,-6.990741491E-1,-2.447998822E-1
9.448603750E-1,-2.654296756E-1,-6.964212656E-1,-2.479938269E-1
9.474416250E-1,-2.803173363E-1,-6.862983704E-1,-2.485174239E-1
9.489119380E-1,-2.824640870E-1,-6.820397377E-1,-2.469291836E-1
9.508588130E-1,-2.835287452E-1,-6.703286171E-1,-2.410648763E-1
9.528603750E-1,-2.771408260E-1,-6.575527787E-1,-2.325476706E-1
9.548603750E-1,-2.654122114E-1,-6.426302195E-1,-2.213775665E-1
9.566916250E-1,-2.467720956E-1,-6.277251244E-1,-2.064724565E-1
9.588603750E-1,-2.217789888E-1,-6.133610606E-1,-1.851794273E-1
9.608603750E-1,-1.935744733E-1,-5.979323387E-1,-1.585631669E-1
9.628603750E-1,-1.621585339E-1,-5.819800496E-1,-1.276882887E-1
9.648603750E-1,-1.302190125E-1,-5.617341995E-1,-9.414306283E-2
9.674447500E-1,-8.335692436E-2,-5.175424814E-1,-3.984586522E-2
9.691978750E-1,-7.004006207E-2,-5.010316372E-1,-2.122320421E-2
9.708588130E-1,-4.769985005E-2,-4.659156501E-1,1.443387289E-2
9.728666250E-1,-3.279473633E-2,-4.291764498E-1,4.689699784E-2
9.748588130E-1,-2.586578019E-2,-3.929783404E-1,7.670722157E-2
9.768603750E-1,-2.745402977E-2,-3.594331145E-1,1.011941880E-1
9.788588130E-1,-3.490658477E-2,-3.280171752E-1,1.224872097E-1
9.808588130E-1,-4.663519561E-2,-2.982244194E-1,1.416509151E-1
9.828775630E-1,-5.780530348E-2,-2.726728022E-1,1.597499847E-1
9.848588130E-1,-6.791076064E-2,-2.550973296E-1,1.789136976E-1
9.874416250E-1,-8.068656921E-2,-2.401922047E-1,2.124589235E-1
9.888822500E-1,-8.602727950E-2,-2.375393063E-1,2.236290425E-1
9.908713130E-1,-9.719738364E-2,-2.332807034E-1,2.470513582E-1
9.928603750E-1,-1.110378429E-1,-2.279574573E-1,2.715383172E-1
9.948603750E-1,-1.286133081E-1,-2.194402516E-1,2.970899343E-1
9.968603750E-1,-1.504299343E-1,-2.087937444E-1,3.231826127E-1
9.988713130E-1,-1.786344498E-1,-1.954768747E-1,3.508635461E-1
1.000860375E0,-2.111150324E-1,-1.805892140E-1,3.769387603E-1
1.002858813E0,-2.462659627E-1,-1.646194607E-1,4.009021223E-1
1.004858813E0,-2.824640870E-1,-1.465203911E-1,4.216541052E-1
1.007483813E0,-3.362202346E-1,-1.199041158E-1,4.445528090E-1
1.008891625E0,-3.537956774E-1,-1.119105145E-1,4.498760700E-1
1.010858813E0,-3.883881271E-1,-9.700539708E-2,4.578522146E-1
1.012860375E0,-4.219158888E-1,-8.316493779E-2,4.647811651E-1
1.014860375E0,-4.543964565E-1,-7.145377994E-2,4.679751396E-1
1.016869750E0,-4.858123958E-1,-6.134832278E-2,4.706280231E-1
1.018860375E0,-5.166698098E-1,-5.070181563E-2,4.716926813E-1
1.020860375E0,-5.459564328E-1,-4.218460619E-2,4.711690843E-1
1.022858813E0,-5.741783977E-1,-3.312635049E-2,4.701044261E-1
1.024858813E0,-5.991889834E-1,-2.302089334E-2,4.690397680E-1
1.027443188E0,-6.311284900E-1,-5.445427261E-3,4.658458233E-1
1.028858813E0,-6.412339807E-1,1.989675453E-3,4.653047621E-1
1.030935375E0,-6.582683921E-1,1.795943826E-2,4.637165368E-1
1.032879125E0,-6.737145185E-1,3.445279971E-2,4.642401338E-1
1.034860375E0,-6.859493256E-1,5.096361414E-2,4.658458233E-1
1.036858813E0,-6.966132522E-1,6.480407715E-2,4.674340785E-1
1.038858813E0,-7.067187428E-1,7.332128286E-2,4.679751396E-1
1.040865063E0,-7.152359486E-1,7.757988572E-2,4.674340785E-1
1.042858813E0,-7.237531543E-1,8.450884372E-2,4.663694203E-1
1.044858813E0,-7.322528958E-1,9.515535086E-2,4.647811651E-1
1.047440063E0,-7.407875657E-1,1.079137102E-1,4.626518786E-1
1.049369750E0,-7.514340281E-1,1.228362694E-1,4.599815309E-1
1.050872875E0,-7.620805502E-1,1.430471838E-1,4.589168727E-1
1.052876000E0,-7.753799558E-1,1.659459025E-1,4.589168727E-1
1.054860375E0,-7.913497090E-1,1.872389168E-1,4.594579339E-1
1.056874438E0,-8.089077473E-1,2.058790326E-1,4.594579339E-1
1.058858813E0,-8.259596229E-1,2.298249602E-1,4.599815309E-1
1.060858813E0,-8.408647180E-1,2.617644668E-1,4.615872204E-1
1.062858813E0,-8.547052145E-1,2.952922583E-1,4.637165368E-1
1.064858813E0,-8.664163351E-1,3.288374841E-1,4.658458233E-1
1.067443188E0,-8.770453930E-1,3.613180518E-1,4.669104815E-1
1.068858813E0,-8.861036301E-1,3.916518688E-1,4.663694203E-1
1.070860375E0,-8.935562372E-1,4.161388576E-1,4.637165368E-1
1.072858813E0,-8.999266624E-1,4.369082749E-1,4.615872204E-1
1.074869750E0,-9.042026997E-1,4.534016252E-1,4.594579339E-1
1.076858813E0,-9.058084488E-1,4.645717442E-1,4.573286176E-1
1.078872875E0,-9.068730474E-1,4.704360366E-1,4.541346729E-1
1.080860375E0,-9.073966742E-1,4.730889499E-1,4.488114119E-1
1.082858813E0,-9.047437906E-1,4.725653529E-1,4.402942061E-1
1.084858813E0,-8.983384371E-1,4.715006948E-1,4.285830557E-1
1.087440063E0,-8.903622627E-1,4.698950052E-1,4.147425890E-1
1.088885375E0,-8.834507465E-1,4.693714082E-1,3.982317746E-1
1.090858813E0,-8.759981990E-1,4.725653529E-1,3.817384243E-1
1.092858813E0,-8.711985350E-1,4.794943035E-1,3.657686412E-1
1.094860375E0,-8.706749678E-1,4.858822227E-1,3.503224850E-1
1.096860375E0,-8.738514185E-1,4.917290509E-1,3.338291347E-1
1.098872875E0,-8.791747093E-1,4.975933731E-1,3.167947233E-1
1.100860375E0,-8.871682882E-1,5.007873178E-1,2.976309955E-1
1.102858813E0,-8.967501521E-1,4.986580312E-1,2.747322619E-1
1.104858813E0,-9.052673578E-1,4.911880195E-1,2.470513582E-1
1.107440063E0,-9.111316800E-1,4.800179005E-1,2.161764801E-1
1.108882250E0,-9.127199054E-1,4.698950052E-1,1.863662601E-1
1.110858813E0,-9.058084488E-1,4.645717442E-1,1.602910310E-1
1.112858813E0,-8.914269209E-1,4.651128054E-1,1.416509151E-1
1.114858813E0,-8.711985350E-1,4.688303471E-1,1.288751066E-1
1.116858813E0,-8.456469178E-1,4.757592976E-1,1.198343039E-1
1.118858813E0,-8.179485798E-1,4.832293093E-1,1.129053459E-1
1.120860375E0,-7.881557941E-1,4.885525703E-1,1.059938446E-1
1.122860375E0,-7.588691711E-1,4.901408255E-1,9.693558514E-2
1.124858813E0,-7.322528958E-1,4.890761673E-1,8.576548100E-2
1.127443188E0,-7.098951936E-1,4.842765033E-1,7.138396800E-2
1.129197875E0,-6.939254403E-1,4.768239558E-1,5.489060655E-2
1.130860375E0,-6.816906929E-1,4.683067501E-1,3.731513768E-2
1.132861938E0,-6.721088290E-1,4.640481472E-1,1.975712739E-2
1.134858813E0,-6.646388173E-1,4.645891786E-1,4.852015525E-3
1.136858813E0,-6.587919593E-1,4.656538367E-1,-8.447393775E-3
1.138858813E0,-6.529451013E-1,4.704360366E-1,-2.122320421E-2
1.140860375E0,-6.465572119E-1,4.784296453E-1,-3.239331022E-2
1.142858813E0,-6.359106898E-1,4.858822227E-1,-4.251622036E-2
1.144858813E0,-6.252642274E-1,4.906644225E-1,-5.262167752E-2
1.147441625E0,-6.119473577E-1,4.927937090E-1,-6.274458766E-2
1.148882250E0,-5.986304879E-1,4.922701120E-1,-7.285004109E-2
1.150858813E0,-5.863957405E-1,4.869468510E-1,-8.403760195E-2
1.152858813E0,-5.767964125E-1,4.768413901E-1,-9.787806123E-2
1.154858813E0,-5.688202381E-1,4.640655816E-1,-1.143714264E-1
1.156858813E0,-5.656263232E-1,4.560719728E-1,-1.319468915E-1
1.158858813E0,-5.667083859E-1,4.550073445E-1,-1.526988596E-1
1.160858813E0,-5.693613291E-1,4.603305757E-1,-1.729272157E-1
1.162860375E0,-5.704259276E-1,4.656538367E-1,-1.931555867E-1
1.164860375E0,-5.709670186E-1,4.645891786E-1,-2.117957026E-1
1.167485375E0,-5.715080500E-1,4.576602280E-1,-2.309594154E-1
1.168879125E0,-5.704433918E-1,4.565955698E-1,-2.490584850E-1
1.170858813E0,-5.683141351E-1,4.581838250E-1,-2.666164935E-1
1.172858813E0,-5.672494769E-1,4.555309415E-1,-2.815216184E-1
1.174858813E0,-5.677730441E-1,4.470137358E-1,-2.937738299E-1
1.176858813E0,-5.683315396E-1,4.352851212E-1,-3.060085773E-1
1.178860375E0,-5.699023604E-1,4.251796603E-1,-3.187843859E-1
1.180860375E0,-5.693787336E-1,4.150741994E-1,-3.315601945E-1
1.182858813E0,-5.682966709E-1,4.097509384E-1,-3.374245167E-1
1.184858813E0,-5.661673546E-1,3.996454775E-1,-3.480710089E-1
1.187440063E0,-5.603030324E-1,3.906046748E-1,-3.629761338E-1
1.188955688E0,-5.539151430E-1,3.884753883E-1,-3.714933395E-1
1.190858813E0,-5.501976013E-1,3.884753883E-1,-3.752108812E-1
1.192860375E0,-5.437922478E-1,3.895400465E-1,-3.810751736E-1
1.194860375E0,-5.368807316E-1,3.890164495E-1,-3.847927451E-1
1.196860375E0,-5.299692154E-1,3.879343271E-1,-3.879866898E-1
1.198860375E0,-5.230576992E-1,3.868696690E-1,-3.917216957E-1
1.200860375E0,-5.156051517E-1,3.826110661E-1,-3.943746090E-1
1.202860375E0,-5.081526041E-1,3.762231767E-1,-3.981096148E-1
1.204858813E0,-5.017647147E-1,3.698352575E-1,-4.018271565E-1
1.207441625E0,-4.948357344E-1,3.576005101E-1,-4.092797041E-1
1.209235375E0,-4.905945957E-1,3.485422432E-1,-4.151440263E-1
1.210860375E0,-4.889889061E-1,3.426779509E-1,-4.188615680E-1
1.212860375E0,-4.868595898E-1,3.283138871E-1,-4.289844632E-1
1.214858813E0,-4.857774973E-1,3.038269281E-1,-4.417602718E-1
1.216865063E0,-4.863185287E-1,2.734756470E-1,-4.587947130E-1
1.218858813E0,-4.847128391E-1,2.553940415E-1,-4.784820080E-1
1.220860375E0,-4.804542363E-1,2.495297194E-1,-4.960574806E-1
1.222858813E0,-4.746073782E-1,2.516590357E-1,-5.077686310E-1
1.224860375E0,-4.676958919E-1,2.607172728E-1,-5.152211785E-1
1.227443188E0,-4.538379610E-1,2.761634588E-1,-5.162858367E-1
1.228883813E0,-4.479911029E-1,2.814692557E-1,-5.157448053E-1
1.230858813E0,-4.341506362E-1,2.915921509E-1,-5.136154890E-1
1.232877563E0,-4.171162248E-1,2.985036671E-1,-5.114861727E-1
1.234860375E0,-3.974289298E-1,3.032858670E-1,-5.098979473E-1
1.237197875E0,-3.639011383E-1,3.022212088E-1,-5.114861727E-1
1.238877563E0,-3.527135849E-1,3.006155193E-1,-5.130918622E-1
1.240860375E0,-3.314205706E-1,2.931804061E-1,-5.173504949E-1
1.242858813E0,-3.154508173E-1,2.761285305E-1,-5.237383842E-1
1.244858813E0,-3.037396371E-1,2.575058639E-1,-5.343849063E-1
1.247440063E0,-2.877873480E-1,2.628291249E-1,-5.492900014E-1
1.248890063E0,-2.835287452E-1,2.734756470E-1,-5.524839759E-1
1.250858813E0,-2.744704783E-1,3.011565506E-1,-5.508782864E-1
1.252858813E0,-2.680651248E-1,3.330960870E-1,-5.423610806E-1
1.254860375E0,-2.616946697E-1,3.682295680E-1,-5.263913274E-1
1.256860375E0,-2.542246580E-1,4.054923356E-1,-5.072275996E-1
1.258858813E0,-2.483778000E-1,4.448844194E-1,-4.869992137E-1
1.260860375E0,-2.414662987E-1,4.848001003E-1,-4.662472606E-1
1.262858813E0,-2.329490930E-1,5.263214707E-1,-4.465425014E-1
1.264860375E0,-2.223025858E-1,5.678603053E-1,-4.284434319E-1
1.267461938E0,-2.025978118E-1,6.258750558E-1,-4.028918147E-1
1.268858813E0,-1.946216673E-1,6.439741254E-1,-3.949156404E-1
1.270858813E0,-1.791754961E-1,6.785665751E-1,-3.789458871E-1
1.272860375E0,-1.637293398E-1,7.099824548E-1,-3.640407622E-1
1.274866625E0,-1.493652761E-1,7.382044792E-1,-3.485946059E-1
1.276858813E0,-1.365894675E-1,7.621503472E-1,-3.336895108E-1
1.278858813E0,-1.264665574E-1,7.839844227E-1,-3.182607889E-1
1.280860375E0,-1.200786531E-1,8.010188341E-1,-3.022910357E-1
1.282874438E0,-1.158200502E-1,8.116653562E-1,-2.857802212E-1
1.284858813E0,-1.137081981E-1,8.153828979E-1,-2.698104382E-1
1.287441625E0,-1.110378429E-1,8.084714413E-1,-2.469291836E-1
1.289338500E0,-1.094321460E-1,7.978249192E-1,-2.314830124E-1
1.290861938E0,-1.078438908E-1,7.908959389E-1,-2.245715111E-1
1.292858813E0,-1.051909924E-1,7.727968693E-1,-2.096664011E-1
1.294858813E0,-1.025206372E-1,7.493745685E-1,-1.942202449E-1
1.296858813E0,-9.878563881E-2,7.254286408E-1,-1.798561811E-1
1.298863500E0,-9.400343150E-2,6.977477074E-1,-1.644100100E-1
1.300860375E0,-9.026842564E-2,6.663318276E-1,-1.489813030E-1
1.302860375E0,-8.759807795E-2,6.317393780E-1,-1.330115348E-1
1.304860375E0,-8.707447350E-2,5.950002074E-1,-1.149124801E-1
1.307493188E0,-8.868017793E-2,5.417676568E-1,-8.881980181E-2
1.308888500E0,-8.974482864E-2,5.236685872E-1,-7.871434838E-2
1.310858813E0,-9.239772707E-2,4.853411615E-1,-5.794493109E-2
1.312860375E0,-9.560913593E-2,4.422315359E-1,-3.719296679E-2
1.314860375E0,-9.880308807E-2,3.948458433E-1,-1.377064735E-2
1.316879125E0,-1.025206372E-1,3.426779509E-1,9.634217247E-3
1.318683813E0,-1.083674952E-1,2.878571451E-1,3.199188411E-2
1.320860375E0,-1.168847010E-1,2.324953079E-1,5.434955284E-2
1.322860375E0,-1.269901544E-1,1.744805574E-1,7.618362457E-2
1.325011938E0,-1.403070241E-1,1.169719696E-1,9.693558514E-2
1.327326000E0,-1.658760905E-1,3.179989755E-2,1.267458051E-1
1.328858813E0,-1.759815514E-1,5.183627829E-3,1.358040720E-1
1.330860375E0,-1.983392090E-1,-4.429645464E-2,1.544267386E-1
1.332858813E0,-2.233497798E-1,-8.901178837E-2,1.725257933E-1
1.334861938E0,-2.494424582E-1,-1.289449185E-1,1.895602047E-1
1.336858813E0,-2.760587335E-1,-1.656666547E-1,2.065946162E-1
1.338858813E0,-3.021514118E-1,-2.002765238E-1,2.241700888E-1
1.340860375E0,-3.276855648E-1,-2.354100049E-1,2.427927554E-1
1.342877563E0,-3.516489267E-1,-2.684141994E-1,2.630211115E-1
1.344858813E0,-3.734655380E-1,-2.987480164E-1,2.832494974E-1
1.347440063E0,-4.000992775E-1,-3.386811316E-1,3.178593516E-1
1.349104125E0,-4.075343907E-1,-3.525215983E-1,3.306351602E-1
1.350701000E0,-4.176572859E-1,-3.812671602E-1,3.567104042E-1
1.352858813E0,-4.235041440E-1,-4.105363488E-1,3.838677108E-1
1.354858813E0,-4.235041440E-1,-4.371526241E-1,4.110075831E-1
1.356869750E0,-4.181983471E-1,-4.616570473E-1,4.386885166E-1
1.358858813E0,-4.064871669E-1,-4.829500616E-1,4.674340785E-1
1.360860375E0,-3.905174136E-1,-4.999844730E-1,4.977853596E-1
1.362858813E0,-3.724009097E-1,-5.106135011E-1,5.281191468E-1
1.364858813E0,-3.500432372E-1,-5.186071396E-1,5.589940548E-1
1.367485375E0,-3.127804399E-1,-5.244539976E-1,6.042504311E-1
1.369213500E0,-3.005282283E-1,-5.255186558E-1,6.186144948E-1
1.370858813E0,-2.760587335E-1,-5.255186558E-1,6.462954283E-1
1.372861938E0,-2.542421222E-1,-5.234068036E-1,6.713234186E-1
1.374866625E0,-2.372076958E-1,-5.175424814E-1,6.952693462E-1
1.376858813E0,-2.260201424E-1,-5.122192502E-1,7.192327380E-1
1.378858813E0,-2.206794322E-1,-5.084842443E-1,7.405257225E-1
1.380858813E0,-2.217615396E-1,-5.068959594E-1,7.618187666E-1
1.382858813E0,-2.265611887E-1,-5.079606175E-1,7.804414034E-1
1.384858813E0,-2.334726900E-1,-5.116781592E-1,7.985404730E-1
1.387461938E0,-2.462659627E-1,-5.234068036E-1,8.208981752E-1
1.388860375E0,-2.489188612E-1,-5.313829184E-1,8.272860646E-1
1.390935375E0,-2.499835044E-1,-5.521523356E-1,8.368679285E-1
1.392860375E0,-2.441191971E-1,-5.792922378E-1,8.443204761E-1
1.394858813E0,-2.276258469E-1,-6.091024280E-1,8.491201401E-1
1.396858813E0,-2.020742148E-1,-6.399773359E-1,8.501847982E-1
1.398860375E0,-1.706757396E-1,-6.687403321E-1,8.485791087E-1
1.400860375E0,-1.355422735E-1,-6.905569434E-1,8.421911597E-1
1.402860375E0,-9.986773878E-2,-7.038563490E-1,8.336739540E-1
1.404860375E0,-6.047565863E-2,-7.102442980E-1,8.235685229E-1
1.407449438E0,-1.682497375E-2,-7.107853293E-1,8.113163114E-1
1.408901000E0,3.108431399E-2,-7.102442980E-1,7.974758148E-1
1.410860375E0,8.325220644E-2,-7.139618397E-1,7.857646942E-1
1.412860375E0,1.402197480E-1,-7.246083617E-1,7.745945454E-1
1.414858813E0,2.024931014E-1,-7.427074313E-1,7.644716501E-1
1.416858813E0,2.690424919E-1,-7.687826157E-1,7.559544444E-1
1.418858813E0,3.398330510E-1,-8.028514385E-1,7.485018969E-1
1.420860375E0,4.143586159E-1,-8.422610164E-1,7.426550388E-1
1.422860375E0,4.920781255E-1,-8.843059540E-1,7.367907166E-1
1.424858813E0,5.703212619E-1,-9.242216349E-1,7.288146019E-1
1.427441625E0,6.469761133E-1,-9.615018964E-1,7.197563052E-1
1.428882250E0,7.177666426E-1,-9.929178357E-1,7.064568996E-1
1.430861938E0,7.795338631E-1,-1.014734387E0,6.888814569E-1
1.432860375E0,8.295549750E-1,-1.025380969E0,6.697177291E-1
1.434860375E0,8.620355725E-1,-1.024839878E0,6.489657760E-1
1.436860375E0,8.790699840E-1,-1.012605071E0,6.276727319E-1
1.438860375E0,8.795935512E-1,-9.929178357E-1,6.063797474E-1
1.440860375E0,8.678824306E-1,-9.684308171E-1,5.856103301E-1
1.442858813E0,8.487187028E-1,-9.418145418E-1,5.621880293E-1
1.444860375E0,8.258374333E-1,-9.125279188E-1,5.377010107E-1
1.447441625E0,8.029386997E-1,-8.805884123E-1,5.137551427E-1
1.449338500E0,7.826929092E-1,-8.486663699E-1,4.876624346E-1
1.450860375E0,7.646287680E-1,-8.167093396E-1,4.605225623E-1
1.452860375E0,7.486415505E-1,-7.858344913E-1,4.323005974E-1
1.454860375E0,7.364242077E-1,-7.565304041E-1,4.046196938E-1
1.456860375E0,7.225837708E-1,-7.278022766E-1,3.769387603E-1
1.458876000E0,7.066140175E-1,-7.011860013E-1,3.508635461E-1
1.460858813E0,6.869092584E-1,-6.756343842E-1,3.274412155E-1
1.462858813E0,6.634868979E-1,-6.500827670E-1,3.045425117E-1
1.464858813E0,6.389824748E-1,-6.234664917E-1,2.827258706E-1
1.467457250E0,6.139719486E-1,-5.947209597E-1,2.624975145E-1
1.468874438E0,5.905495882E-1,-5.638460517E-1,2.433338016E-1
1.470858813E0,5.703212619E-1,-5.319065452E-1,2.231054306E-1
1.472860375E0,5.543340445E-1,-4.999844730E-1,2.039417177E-1
1.474860375E0,5.442285538E-1,-4.691095948E-1,1.858426630E-1
1.476871313E0,5.373170376E-1,-4.398229718E-1,1.677435935E-1
1.478860375E0,5.351877809E-1,-4.110774100E-1,1.517738253E-1
1.480860375E0,5.357113481E-1,-3.812671602E-1,1.395216137E-1
1.482860375E0,5.372996330E-1,-3.514569402E-1,1.294161677E-1
1.484872875E0,5.389053226E-1,-3.205820620E-1,1.208989546E-1
1.487441625E0,5.394463539E-1,-2.907718420E-1,1.123817489E-1
1.488882250E0,5.383816957E-1,-2.620262802E-1,1.011941880E-1
1.490858813E0,5.351877809E-1,-2.380803674E-1,8.895943314E-2
1.492858813E0,5.335820317E-1,-2.157226950E-1,7.990117371E-2
1.494858813E0,5.335994959E-1,-1.960179210E-1,7.298967242E-2
1.496858813E0,5.351877809E-1,-1.805717647E-1,6.766641140E-2
1.498858813E0,5.405110121E-1,-1.694016606E-1,6.180210784E-2
1.500866625E0,5.485046506E-1,-1.608844548E-1,5.169665068E-2
1.502858813E0,5.586275458E-1,-1.544790864E-1,3.518583626E-2
1.504858813E0,5.687329769E-1,-1.491558403E-1,1.336922217E-2
1.507441625E0,5.777738094E-1,-1.454382837E-1,-1.377064735E-2
1.508888500E0,5.841791630E-1,-1.465029418E-1,-4.571017250E-2
1.510858813E0,5.857673883E-1,-1.496968865E-1,-7.923794538E-2
1.512858813E0,5.820323825E-1,-1.571494490E-1,-1.127831787E-1
1.514858813E0,5.735151768E-1,-1.651430577E-1,-1.452462971E-1
1.516858813E0,5.607568622E-1,-1.709899008E-1,-1.734682769E-1
1.518858813E0,5.447696447E-1,-1.741838604E-1,-1.979552358E-1
1.520860375E0,5.272116065E-1,-1.741838604E-1,-2.187072039E-1
1.522858813E0,5.080478787E-1,-1.709899008E-1,-2.352180183E-1
1.524871313E0,4.899488389E-1,-1.677959561E-1,-2.479938269E-1
1.527440063E0,4.723559022E-1,-1.667487621E-1,-2.602286041E-1
1.529379125E0,4.553389549E-1,-1.694016606E-1,-2.703514993E-1
1.530880688E0,4.345869720E-1,-1.736602634E-1,-2.772630155E-1
1.532858813E0,4.143586159E-1,-1.800307184E-1,-2.815216184E-1
1.534858813E0,3.994534910E-1,-1.853539646E-1,-2.847155631E-1
1.536858813E0,3.914598823E-1,-1.896300167E-1,-2.863212526E-1
1.538858813E0,3.909362853E-1,-1.938886195E-1,-2.879095078E-1
1.540868188E0,3.983888626E-1,-1.986708343E-1,-2.879095078E-1
1.542858813E0,4.132939577E-1,-2.045351416E-1,-2.873859107E-1
1.544858813E0,4.351105690E-1,-2.114640921E-1,-2.868448496E-1
1.547441625E0,4.622504413E-1,-2.199812979E-1,-2.852566242E-1
1.548882250E0,4.952546358E-1,-2.300867587E-1,-2.847155631E-1
1.550858813E0,5.144183636E-1,-2.364746630E-1,-2.852566242E-1
1.552858813E0,5.554161072E-1,-2.519033849E-1,-2.895152271E-1
1.554858813E0,5.985432267E-1,-2.710670829E-1,-2.980324328E-1
1.556858813E0,6.411292553E-1,-2.902308106E-1,-3.060085773E-1
1.558858813E0,6.799802780E-1,-3.051533699E-1,-3.102671802E-1
1.560860375E0,7.119197845E-1,-3.173881173E-1,-3.102671802E-1
1.562858813E0,7.363893390E-1,-3.296403289E-1,-3.097435832E-1
1.564858813E0,7.545058131E-1,-3.408104479E-1,-3.049439192E-1
1.567455688E0,7.736870050E-1,-3.503748477E-1,-2.916445136E-1
1.568901000E0,7.779281735E-1,-3.514395058E-1,-2.863212526E-1
1.570858813E0,7.843335271E-1,-3.482455313E-1,-2.761983573E-1
1.572858813E0,7.891331911E-1,-3.381226361E-1,-2.682222128E-1
1.574858813E0,7.917860746E-1,-3.211056888E-1,-2.602286041E-1
1.576858813E0,7.944564223E-1,-2.960776389E-1,-2.527760267E-1
1.578858813E0,8.013679385E-1,-2.604031265E-1,-2.458645254E-1
1.580860375E0,8.120144606E-1,-2.167698890E-1,-2.410648763E-1
1.582879125E0,8.237081170E-1,-1.757895648E-1,-2.378709167E-1
1.584858813E0,8.343546391E-1,-1.454557329E-1,-2.362826765E-1
1.587440063E0,8.433954716E-1,-1.113694608E-1,-2.357416153E-1
1.589338500E0,8.396779299E-1,-9.274679422E-2,-2.352180183E-1
1.590858813E0,8.348956704E-1,-8.368853480E-2,-2.341533750E-1
1.592861938E0,8.205316663E-1,-6.770132482E-2,-2.320240736E-1
1.594858813E0,7.997622490E-1,-4.694935679E-2,-2.293537110E-1
1.596858813E0,7.710166574E-1,-1.448623277E-2,-2.277654707E-1
1.598858813E0,7.326892018E-1,2.808234841E-2,-2.267008126E-1
1.600868188E0,6.890385151E-1,7.599163800E-2,-2.277654707E-1
1.602858813E0,6.384589076E-1,1.217716187E-1,-2.282890677E-1
1.604858813E0,5.825560093E-1,1.616872996E-1,-2.304183692E-1
1.607440063E0,4.947310388E-1,2.101201862E-1,-2.362826765E-1
1.609343188E0,4.367162883E-1,2.340835631E-1,-2.416059226E-1
1.610886938E0,4.079706967E-1,2.431418151E-1,-2.453234792E-1
1.612863500E0,3.531324565E-1,2.543119192E-1,-2.533170879E-1
1.614858813E0,3.004409671E-1,2.575233281E-1,-2.628989518E-1
1.616858813E0,2.509259880E-1,2.522000670E-1,-2.708750963E-1
1.618868188E0,2.051459998E-1,2.410125136E-1,-2.783276439E-1
1.620858813E0,1.636420637E-1,2.229134440E-1,-2.841919661E-1
1.622858813E0,1.263618320E-1,1.989500821E-1,-2.900388241E-1
1.624858813E0,9.602801502E-2,1.696809083E-1,-2.953620553E-1
1.627471313E0,6.354743987E-2,1.180366203E-1,-3.001617193E-1
1.628868188E0,5.555383116E-2,9.887290001E-2,-3.012263775E-1
1.630863500E0,4.492477328E-2,5.895722285E-2,-3.022910357E-1
1.632858813E0,3.906046972E-2,1.795943826E-2,-3.022910357E-1
1.634858813E0,3.693116829E-2,-2.035053819E-2,-2.996206582E-1
1.636858813E0,3.640756756E-2,-5.707226694E-2,-2.959031165E-1
1.638858813E0,3.586651757E-2,-8.901178837E-2,-2.895152271E-1
1.640860375E0,3.586651757E-2,-1.166927144E-1,-2.815216184E-1
1.642860375E0,3.480186686E-2,-1.374621242E-1,-2.724808156E-1
1.644858813E0,3.213151172E-2,-1.529082954E-1,-2.612932324E-1
1.647438500E0,2.415535599E-2,-1.683370024E-1,-2.437352240E-1
1.648957250E0,1.937315427E-2,-1.720545590E-1,-2.373473197E-1
1.650860375E0,8.203047328E-3,-1.795071065E-1,-2.245715111E-1
1.652858813E0,-7.225662936E-3,-1.858950108E-1,-2.123192996E-1
1.654858813E0,-2.640683204E-2,-1.928239763E-1,-1.995434910E-1
1.656860375E0,-4.768239334E-2,-1.997354776E-1,-1.862440854E-1
1.658880688E0,-7.110471278E-2,-2.045176774E-1,-1.724036187E-1
1.660858813E0,-9.880308807E-2,-2.071880400E-1,-1.574985087E-1
1.662860375E0,-1.248957589E-1,-2.077290863E-1,-1.425933987E-1
1.664858813E0,-1.509535313E-1,-2.055997849E-1,-1.271472424E-1
1.667444750E0,-1.903630644E-1,-1.981472224E-1,-1.053306237E-1
1.668882250E0,-2.031388730E-1,-1.949532777E-1,-9.787806123E-2
1.670858813E0,-2.276258469E-1,-1.869771183E-1,-8.403760195E-2
1.672858813E0,-2.478542030E-1,-1.768542081E-1,-7.178539038E-2
1.674858813E0,-2.659532726E-1,-1.662077010E-1,-6.007423252E-2
1.676860375E0,-2.819055915E-1,-1.560847908E-1,-4.890412465E-2
1.678860375E0,-2.968106866E-1,-1.486322433E-1,-3.878121451E-2
1.680860375E0,-3.096039593E-1,-1.433089823E-1,-3.080506064E-2
1.682685375E0,-3.207740486E-1,-1.395914257E-1,-2.228785492E-2
1.684860375E0,-3.303559124E-1,-1.385267824E-1,-1.322959550E-2
1.687441625E0,-3.431317210E-1,-1.406560838E-1,-9.948377265E-4
1.689466625E0,-3.500607014E-1,-1.449146867E-1,8.045967668E-3
1.690704125E0,-3.532546461E-1,-1.481086463E-1,1.282817032E-2
1.692858813E0,-3.596251011E-1,-1.576904953E-1,2.295107953E-2
1.694858813E0,-3.660129905E-1,-1.683195531E-1,3.199188411E-2
1.696860375E0,-3.718423843E-1,-1.810779124E-1,4.050909355E-2
1.698860375E0,-3.766420484E-1,-1.954594254E-1,4.902629927E-2
1.700860375E0,-3.814417124E-1,-2.119702399E-1,5.701990798E-2
1.702860375E0,-3.862413764E-1,-2.311339527E-1,6.447245926E-2
1.704860375E0,-3.894353211E-1,-2.529680133E-1,7.138396800E-2
1.707441625E0,-3.952821791E-1,-2.896897495E-1,8.150687814E-2
1.708883813E0,-3.968878686E-1,-3.024655581E-1,8.470083028E-2
1.710858813E0,-4.000818133E-1,-3.290818334E-1,9.108873457E-2
1.712858813E0,-4.032757878E-1,-3.551745117E-1,9.641198814E-2
1.714860375E0,-4.064522684E-1,-3.812497258E-1,1.011941880E-1
1.716860375E0,-4.112519324E-1,-4.068013430E-1,1.059938446E-1
1.718860375E0,-4.181808829E-1,-4.302411079E-1,1.102524474E-1
1.720860375E0,-4.283038080E-1,-4.477991164E-1,1.134463996E-1
1.722860375E0,-4.416032135E-1,-4.595102966E-1,1.160992980E-1
1.724858813E0,-4.575729668E-1,-4.658981860E-1,1.187696531E-1
1.727441625E0,-4.863534570E-1,-4.653920531E-1,1.187696531E-1
1.728882250E0,-4.969999492E-1,-4.621980786E-1,1.192932576E-1
1.730858813E0,-5.198812485E-1,-4.515341222E-1,1.203579083E-1
1.732860375E0,-5.432860851E-1,-4.323704243E-1,1.182285994E-1
1.734860375E0,-5.693613291E-1,-4.057366848E-1,1.123817489E-1
1.736860375E0,-5.954539776E-1,-3.722089231E-1,1.033234894E-1
1.738860375E0,-6.199234724E-1,-3.370754421E-1,9.215338528E-2
1.740860375E0,-6.412165165E-1,-3.045948744E-1,8.096582443E-2
1.742858813E0,-6.577273011E-1,-2.769139409E-1,7.192502171E-2
1.744858813E0,-6.689149141E-1,-2.582912743E-1,6.393141299E-2
1.747441625E0,-6.720913649E-1,-2.471037209E-1,5.115560070E-2
1.748882250E0,-6.688974500E-1,-2.471037209E-1,4.743804783E-2
1.750858813E0,-6.566627026E-1,-2.508387268E-1,3.892084211E-2
1.752858813E0,-6.348460317E-1,-2.577676773E-1,2.879793197E-2
1.754858813E0,-6.039711833E-1,-2.668084800E-1,1.869247667E-2
1.756858813E0,-5.667083859E-1,-2.769139409E-1,9.110618383E-3
1.758858813E0,-5.246459842E-1,-2.864958048E-1,-9.948377265E-4
1.760860375E0,-4.793895781E-1,-2.918190360E-1,-1.057669520E-2
1.762860375E0,-4.320213497E-1,-2.934247553E-1,-2.015855350E-2
1.764860375E0,-3.841120601E-1,-2.875604331E-1,-2.919935808E-2
1.767446313E0,-3.372674286E-1,-2.779785991E-1,-3.984586522E-2
1.769338500E0,-2.898817360E-1,-2.614852190E-1,-5.155702680E-2
1.770858813E0,-2.430545539E-1,-2.391275615E-1,-6.380923837E-2
1.772858813E0,-1.946042180E-1,-2.125112861E-1,-7.497934252E-2
1.774858813E0,-1.450892240E-1,-1.810953617E-1,-8.723155409E-2
1.776858813E0,-9.717993438E-2,-1.475675851E-1,-1.000073627E-1
1.778858813E0,-5.246459693E-2,-1.124341115E-1,-1.138478294E-1
1.780858813E0,-1.200786512E-2,-7.463027537E-2,-1.292765439E-1
1.782858813E0,2.415535599E-2,-3.364994749E-2,-1.452462971E-1
1.784858813E0,5.131268129E-2,1.050688233E-2,-1.628217697E-1
1.787440063E0,6.993534416E-2,5.843362212E-2,-1.814444214E-1
1.788882250E0,8.218755573E-2,1.084722131E-1,-2.027374506E-1
1.790861938E0,8.698721230E-2,1.611637026E-1,-2.240304649E-1
1.792858813E0,8.698721230E-2,2.154608965E-1,-2.453234792E-1
1.794858813E0,8.218755573E-2,2.697580755E-1,-2.660928965E-1
1.796858813E0,7.368779927E-2,3.224670291E-1,-2.852566242E-1
1.798858813E0,6.408849359E-2,3.740938604E-1,-3.022910357E-1
1.800860375E0,5.396557972E-2,4.225267470E-1,-3.161314726E-1
1.802858813E0,4.546582699E-2,4.688477814E-1,-3.278426528E-1
1.804858813E0,4.066617042E-2,5.109102130E-1,-3.347541392E-1
1.807440063E0,3.960151970E-2,5.481730103E-1,-3.374245167E-1
1.808882250E0,4.386012256E-2,5.806361437E-1,-3.368834555E-1
1.810860375E0,5.874778330E-2,6.067113280E-1,-3.315601945E-1
1.812858813E0,8.377580345E-2,6.322629452E-1,-3.214547336E-1
1.814858813E0,1.210385859E-1,6.540796161E-1,-3.081378639E-1
1.816858813E0,1.678832173E-1,6.716550589E-1,-2.921681106E-1
1.818858813E0,2.227214724E-1,6.844483018E-1,-2.735454440E-1
1.820860375E0,2.839476168E-1,6.934891343E-1,-2.543817461E-1
1.822860375E0,3.483502567E-1,6.993359923E-1,-2.352180183E-1
1.824858813E0,4.132939577E-1,7.025299072E-1,-2.165779024E-1
1.827441625E0,4.782376587E-1,7.025299072E-1,-1.979552358E-1
1.828882250E0,5.394463539E-1,6.977477074E-1,-1.819854826E-1
1.830858813E0,5.948256850E-1,6.865776181E-1,-1.686686128E-1
1.832858813E0,6.421939135E-1,6.684785485E-1,-1.580221057E-1
1.834858813E0,6.847799420E-1,6.429094672E-1,-1.489813030E-1
1.836858813E0,7.215016484E-1,6.115109921E-1,-1.431169957E-1
1.838860375E0,7.534586191E-1,5.779832602E-1,-1.383347958E-1
1.840860375E0,7.822042108E-1,5.423086882E-1,-1.345997900E-1
1.842860375E0,8.088030219E-1,5.045048594E-1,-1.303411871E-1
1.844860375E0,8.327664137E-1,4.651128054E-1,-1.255589873E-1
1.847443188E0,8.556476831E-1,4.257207215E-1,-1.223650351E-1
1.849205688E0,8.764171004E-1,3.884579241E-1,-1.207593307E-1
1.850858813E0,8.907811642E-1,3.576005101E-1,-1.186300293E-1
1.852860375E0,8.992983699E-1,3.325724900E-1,-1.175653785E-1
1.854858813E0,9.019687176E-1,3.139498234E-1,-1.202357337E-1
1.856858813E0,8.982337117E-1,3.006329536E-1,-1.266236305E-1
1.858882250E0,8.918457627E-1,2.883982062E-1,-1.372701526E-1
1.860858813E0,8.828049898E-1,2.745577395E-1,-1.521752626E-1
1.862858813E0,8.694881201E-1,2.606998384E-1,-1.707979143E-1
1.864858813E0,8.508480191E-1,2.479240149E-1,-1.915673316E-1
1.867443188E0,8.268846273E-1,2.372775078E-1,-2.112546563E-1
1.868882250E0,7.960272431E-1,2.308896035E-1,-2.304183692E-1
1.870888500E0,7.576997876E-1,2.276956588E-1,-2.474527806E-1
1.872858813E0,7.129844427E-1,2.255663574E-1,-2.634225488E-1
1.874858813E0,6.640105247E-1,2.250427604E-1,-2.772630155E-1
1.876860375E0,6.123836637E-1,2.218488008E-1,-2.895152271E-1
1.878858813E0,5.612629652E-1,2.154608965E-1,-3.022910357E-1
1.880860375E0,5.117654204E-1,2.053379864E-1,-3.134611249E-1
1.882858813E0,4.660029113E-1,1.909739226E-1,-3.267779946E-1
1.884869750E0,4.223522246E-1,1.750216186E-1,-3.400774002E-1
1.887440063E0,3.813544512E-1,1.606401056E-1,-3.523296118E-1
1.888955688E0,3.387683928E-1,1.462585926E-1,-3.640407622E-1
1.890858813E0,2.945941091E-1,1.302888244E-1,-3.757519424E-1
1.892865063E0,2.450791299E-1,1.148426607E-1,-3.879866898E-1
1.894858813E0,1.918465942E-1,9.993755072E-2,-3.996978402E-1
1.896858813E0,1.364847422E-1,8.503244072E-2,-4.114090204E-1
1.898860375E0,7.845254987E-2,6.906268001E-2,-4.220555127E-1
1.900860375E0,2.202605456E-2,5.096361414E-2,-4.321784377E-1
1.902858813E0,-3.171263263E-2,3.234095126E-2,-4.406956434E-1
1.904860375E0,-8.122762293E-2,1.370083448E-2,-4.465425014E-1
1.907441625E0,-1.238136590E-1,-1.186823938E-3,-4.486717880E-1
1.908882250E0,-1.594881862E-1,-1.396263391E-2,-4.449542463E-1
1.910861938E0,-1.866280586E-1,-2.087413706E-2,-4.343077242E-1
1.912858813E0,-1.967335194E-1,-2.193878777E-2,-4.268551767E-1
1.914858813E0,-2.100503743E-1,-1.926843449E-2,-4.066268206E-1
1.916858813E0,-2.143089771E-1,-1.235693134E-2,-3.800105453E-1
1.918886938E0,-2.036450207E-1,8.918632753E-3,-3.251723051E-1
1.920860375E0,-1.967335194E-1,1.904154196E-2,-3.028146327E-1
1.922858813E0,-1.780934036E-1,3.981095925E-2,-2.543817461E-1
1.924858813E0,-1.584060788E-1,5.949827284E-2,-2.016727924E-1
1.927461938E0,-1.264665574E-1,8.983209729E-2,-1.159771308E-1
1.929197875E0,-1.078438908E-1,1.089958102E-1,-5.794493109E-2
1.930858813E0,-9.985028952E-2,1.191012710E-1,-2.919935808E-2
1.932865063E0,-8.494517207E-2,1.398706883E-1,2.508038096E-2
1.934868188E0,-7.375761122E-2,1.585108042E-1,7.564257085E-2
1.937197875E0,-6.098180264E-2,1.856506765E-1,1.405862719E-1
1.938921313E0,-5.778785050E-2,1.936442852E-1,1.586853415E-1
1.940858813E0,-5.298819765E-2,2.101550996E-1,1.906248629E-1
1.942871313E0,-4.981169850E-2,2.266484499E-1,2.156528831E-1
1.944858813E0,-4.872959107E-2,2.420946211E-1,2.358812541E-1
1.947441625E0,-5.139994621E-2,2.649758756E-1,2.624975145E-1
1.948882250E0,-5.352924764E-2,2.719048560E-1,2.704736590E-1
1.950858813E0,-5.991715193E-2,2.846632004E-1,2.880491316E-1
1.952858813E0,-6.843435764E-2,2.979800701E-1,3.066717982E-1
1.954858813E0,-8.016297221E-2,3.102148175E-1,3.242472708E-1
1.956858813E0,-9.239772707E-2,3.208613396E-1,3.402170241E-1
1.958858813E0,-1.073028445E-1,3.283138871E-1,3.545810878E-1
1.960865063E0,-1.222079545E-1,3.325724900E-1,3.668332994E-1
1.962858813E0,-1.360484213E-1,3.378957510E-1,3.748094440E-1
1.964858813E0,-1.466949284E-1,3.432189822E-1,3.785444498E-1
1.967444750E0,-1.541474760E-1,3.554537594E-1,3.774798214E-1
1.968918188E0,-1.541474760E-1,3.607770205E-1,3.764151633E-1
1.970858813E0,-1.520181745E-1,3.725056350E-1,3.732212186E-1
1.972858813E0,-1.477595717E-1,3.863460720E-1,3.721565604E-1
1.974858813E0,-1.413542181E-1,4.023158550E-1,3.742858469E-1
1.976871313E0,-1.339191198E-1,4.188092053E-1,3.780034184E-1
1.978858813E0,-1.243372560E-1,4.363846779E-1,3.822620213E-1
1.980860375E0,-1.168847010E-1,4.565955698E-1,3.859970272E-1
1.982858813E0,-1.094321460E-1,4.784296453E-1,3.870616555E-1
1.984861938E0,-1.025031880E-1,5.034576654E-1,3.870616555E-1
1.987441625E0,-9.717993438E-2,5.439143777E-1,3.854559660E-1
1.988882250E0,-9.611528367E-2,5.582784414E-1,3.843913078E-1
1.990858813E0,-9.450957924E-2,5.918236971E-1,3.817384243E-1
1.992858813E0,-9.505063295E-2,6.280218363E-1,3.796091080E-1
1.994858813E0,-9.772098809E-2,6.658082008E-1,3.764151633E-1
1.996858813E0,-9.985028952E-2,7.052002549E-1,3.742858469E-1
1.998858813E0,-1.051735431E-1,7.424630523E-1,3.732212186E-1
2.000860375E0,-1.115614474E-1,7.791848183E-1,3.716154993E-1
2.002858813E0,-1.190140024E-1,8.148593307E-1,3.700272441E-1
2.004858813E0,-1.270076036E-1,8.489281535E-1,3.700272441E-1
2.007441625E0,-1.403070241E-1,8.973610401E-1,3.710919023E-1
2.009338500E0,-1.504473835E-1,9.282358885E-1,3.726801574E-1
2.010958813E0,-1.557531804E-1,9.431410432E-1,3.742858469E-1
2.012858813E0,-1.653175801E-1,9.697747231E-1,3.764151633E-1
2.014858813E0,-1.765051484E-1,9.931970835E-1,3.790680468E-1
2.016858813E0,-1.866106093E-1,1.012884378E0,3.822620213E-1
2.018866625E0,-1.961924583E-1,1.030459881E0,3.849323690E-1
2.020858813E0,-2.047096640E-1,1.042171001E0,3.870616555E-1
2.022858813E0,-2.121622264E-1,1.048558950E0,3.891909719E-1
2.024860375E0,-2.190737277E-1,1.050164580E0,3.907792270E-1
2.027461938E0,-2.254616320E-1,1.043776751E0,3.918438554E-1
2.028858813E0,-2.270847857E-1,1.038435936E0,3.918438554E-1
2.030863500E0,-2.313259393E-1,1.024071932E0,3.907792270E-1
2.032858813E0,-2.350609452E-1,1.005972862E0,3.897145689E-1
2.034858813E0,-2.377138436E-1,9.873327613E-1,3.881263137E-1
2.036858813E0,-2.387959510E-1,9.692336917E-1,3.865206242E-1
2.038860375E0,-2.387959510E-1,9.511346221E-1,3.849323690E-1
2.040860375E0,-2.361255884E-1,9.356884360E-1,3.833266497E-1
2.042860375E0,-2.339788377E-1,9.202771783E-1,3.828030527E-1
2.044685375E0,-2.318669856E-1,9.026842713E-1,3.811973631E-1
2.047632250E0,-2.297376841E-1,8.728740811E-1,3.764151633E-1
2.048871313E0,-2.297376841E-1,8.617039323E-1,3.742858469E-1
2.050718188E0,-2.308023423E-1,8.398698568E-1,3.678979576E-1
2.052858813E0,-2.318669856E-1,8.191179037E-1,3.599043489E-1
2.054858813E0,-2.345198840E-1,8.010362983E-1,3.503224850E-1
2.056858813E0,-2.371902466E-1,7.834608555E-1,3.412816823E-1
2.058858813E0,-2.403841913E-1,7.690793276E-1,3.327644765E-1
2.060858813E0,-2.451838553E-1,7.594974637E-1,3.242472708E-1
2.062858813E0,-2.499660552E-1,7.520449162E-1,3.157300651E-1
2.064858813E0,-2.574186027E-1,7.451334000E-1,3.056071401E-1
2.067443188E0,-2.723237276E-1,7.312754989E-1,2.864434421E-1
2.068883813E0,-2.776469886E-1,7.259522676E-1,2.789908946E-1
2.070858813E0,-2.898817360E-1,7.163878679E-1,2.608918250E-1
2.072858813E0,-3.015928864E-1,7.078706622E-1,2.417280972E-1
2.074868188E0,-3.148922920E-1,6.998944879E-1,2.214997411E-1
2.076858813E0,-3.292738199E-1,6.919008493E-1,2.002067119E-1
2.078858813E0,-3.447199762E-1,6.860365868E-1,1.799783558E-1
2.080860375E0,-3.590840399E-1,6.844483018E-1,1.608146429E-1
2.082874438E0,-3.745301962E-1,6.839072704E-1,1.432566196E-1
2.084860375E0,-3.915471733E-1,6.849893928E-1,1.267458051E-1
2.087441625E0,-4.197691381E-1,6.876422763E-1,9.906488657E-2
2.089463500E0,-4.394564629E-1,6.892479658E-1,7.990117371E-2
2.090685375E0,-4.490382969E-1,6.897715926E-1,7.031931728E-2
2.092866625E0,-4.703487754E-1,6.913598180E-1,4.956734926E-2
2.094860375E0,-4.905771315E-1,6.924244761E-1,2.773328125E-2
2.096860375E0,-5.097582936E-1,6.913598180E-1,4.852015525E-3
2.098858813E0,-5.283809900E-1,6.892305017E-1,-1.748819835E-2
2.100874438E0,-5.448743105E-1,6.844483018E-1,-4.038691893E-2
2.102860375E0,-5.587148070E-1,6.780604124E-1,-6.220353395E-2
2.104860375E0,-5.704085231E-1,6.690195799E-1,-8.403760195E-2
2.107440063E0,-5.832017660E-1,6.567673683E-1,-1.170417815E-1
2.108915063E0,-5.858721137E-1,6.551616788E-1,-1.271472424E-1
2.110858813E0,-5.869367719E-1,6.540970206E-1,-1.447227001E-1
2.112858813E0,-5.847899914E-1,6.546381116E-1,-1.596278101E-1
2.114858813E0,-5.805314183E-1,6.572909951E-1,-1.713389754E-1
2.116880688E0,-5.736199021E-1,6.615495682E-1,-1.798561811E-1
2.118858813E0,-5.634970069E-1,6.647610068E-1,-1.867676824E-1
2.120860375E0,-5.533741117E-1,6.668903232E-1,-1.942202449E-1
2.122860375E0,-5.453979373E-1,6.690195799E-1,-2.059313953E-1
2.124868188E0,-5.379279256E-1,6.711488962E-1,-2.229658067E-1
2.127441625E0,-5.336867571E-1,6.727371812E-1,-2.426705807E-1
2.128883813E0,-5.337042212E-1,6.737843752E-1,-2.618342936E-1
2.130861938E0,-5.374217629E-1,6.759136319E-1,-2.793923020E-1
2.132858813E0,-5.432860851E-1,6.796486378E-1,-2.948384583E-1
2.134858813E0,-5.496565104E-1,6.828426123E-1,-3.070732355E-1
2.136858813E0,-5.555033684E-1,6.865776181E-1,-3.187843859E-1
2.138858813E0,-5.618913174E-1,6.887069345E-1,-3.321012557E-1
2.140860375E0,-5.698848963E-1,6.881658435E-1,-3.475299478E-1
2.142861938E0,-5.784195662E-1,6.897541285E-1,-3.656290174E-1
2.144858813E0,-5.864131451E-1,6.956009865E-1,-3.826634288E-1
2.147591625E0,-5.970422029E-1,7.126528621E-1,-4.028918147E-1
2.148865063E0,-6.007772088E-1,7.201054096E-1,-4.076914489E-1
2.150888500E0,-6.061004996E-1,7.365987301E-1,-4.151440263E-1
2.152860375E0,-6.082123518E-1,7.552388906E-1,-4.204672575E-1
2.154860375E0,-6.060830355E-1,7.722907662E-1,-4.257905185E-1
2.156860375E0,-5.991715193E-1,7.871783972E-1,-4.311137795E-1
2.158858813E0,-5.879839659E-1,7.999716401E-1,-4.380252659E-1
2.160860375E0,-5.725377798E-1,8.095535040E-1,-4.470835328E-1
2.162860375E0,-5.560269952E-1,8.170060515E-1,-4.561243355E-1
2.164858813E0,-5.379453897E-1,8.202000260E-1,-4.662472606E-1
2.167496313E0,-5.171759725E-1,8.218057156E-1,-4.763527215E-1
2.169233813E0,-4.985533059E-1,8.223293424E-1,-4.869992137E-1
2.170860375E0,-4.804367721E-1,8.218057156E-1,-4.981867671E-1
2.172922875E0,-4.644670188E-1,8.218057156E-1,-5.088332891E-1
2.174876000E0,-4.516912103E-1,8.218057156E-1,-5.210680366E-1
2.176860375E0,-4.399974942E-1,8.223293424E-1,-5.343849063E-1
2.178860375E0,-4.282688797E-1,8.239350319E-1,-5.487489700E-1
2.180860375E0,-4.181459844E-1,8.265879154E-1,-5.609837174E-1
2.182860375E0,-4.080230594E-1,8.303229213E-1,-5.716302395E-1
2.184860375E0,-3.973940015E-1,8.361697793E-1,-5.822767615E-1
2.187482250E0,-3.862413764E-1,8.420166373E-1,-5.902703404E-1
2.188888500E0,-3.745301962E-1,8.473398685E-1,-5.950700045E-1
2.190861938E0,-3.617543876E-1,8.510574698E-1,-5.987875462E-1
2.192888500E0,-3.463082314E-1,8.531867266E-1,-6.009168625E-1
2.194860375E0,-3.297974169E-1,8.537278175E-1,-6.014578938E-1
2.196860375E0,-3.111747503E-1,8.537278175E-1,-6.019815207E-1
2.198858813E0,-2.909463942E-1,8.515985012E-1,-6.009168625E-1
2.200883813E0,-2.669830024E-1,8.478809595E-1,-5.987875462E-1
2.202860375E0,-2.414314002E-1,8.446869850E-1,-5.961346626E-1
2.204860375E0,-2.174680233E-1,8.436223269E-1,-5.923996568E-1
2.207440063E0,-1.951278150E-1,8.457516432E-1,-5.892056823E-1
2.208916625E0,-1.727875918E-1,8.505338430E-1,-5.865527987E-1
2.210860375E0,-1.530653685E-1,8.585274816E-1,-5.828177929E-1
2.212860375E0,-1.339016557E-1,8.654389381E-1,-5.769709349E-1
2.214858813E0,-1.136732921E-1,8.744972348E-1,-5.700420141E-1
2.216865063E0,-9.396852553E-2,8.835554719E-1,-5.620483756E-1
2.218860375E0,-7.375761122E-2,8.920552135E-1,-5.524839759E-1
2.220860375E0,-5.194099993E-2,8.995077610E-1,-5.418374538E-1
2.222860375E0,-3.064798191E-2,9.074839354E-1,-5.295852423E-1
2.224858813E0,-8.290314116E-3,9.160011411E-1,-5.168094635E-1
2.227444750E0,1.139700040E-2,9.239947796E-1,-5.035100579E-1
2.228879125E0,3.056071512E-2,9.309237003E-1,-4.891285300E-1
2.230858813E0,4.651302472E-2,9.346238375E-1,-4.768937528E-1
2.232858813E0,5.876523629E-2,9.314473271E-1,-4.662472606E-1
2.234860375E0,6.515314430E-2,9.181304574E-1,-4.587947130E-1
2.236860375E0,6.675884128E-2,9.096132517E-1,-4.561243355E-1
2.238860375E0,6.677629799E-2,9.154949784E-1,-4.534714520E-1
2.240860375E0,6.623524427E-2,9.266651273E-1,-4.476071298E-1
2.242858813E0,6.358234584E-2,9.330530167E-1,-4.385488927E-1
2.244860375E0,5.825908855E-2,9.367880225E-1,-4.289670289E-1
2.247476000E0,5.133013427E-2,9.378352165E-1,-4.188615680E-1
2.249210375E0,4.279547185E-2,9.319708943E-1,-4.103443623E-1
2.250858813E0,3.534291685E-2,9.133482575E-1,-4.034328461E-1
2.252860375E0,3.001966327E-2,8.787383437E-1,-3.975685537E-1
2.254860375E0,2.523746155E-2,8.329758644E-1,-3.943746090E-1
2.256860375E0,2.150245570E-2,7.850490808E-1,-3.922452927E-1
2.258860375E0,1.937315427E-2,7.424630523E-1,-3.895924091E-1
2.260860375E0,2.043780498E-2,7.025473714E-1,-3.847927451E-1
2.262860375E0,2.417281084E-2,6.636788845E-1,-3.773401976E-1
2.264860375E0,3.056071512E-2,6.237632036E-1,-3.682993650E-1
2.267466625E0,4.120722413E-2,5.838475227E-1,-3.560471535E-1
2.268879125E0,5.612978712E-2,5.423261523E-1,-3.422067165E-1
2.270858813E0,7.422885299E-2,5.008047819E-1,-3.262369335E-1
2.272860375E0,8.433430642E-2,4.800353646E-1,-3.177197278E-1
2.274860375E0,1.034805700E-1,4.374493361E-1,-2.985560298E-1
2.276860375E0,1.221206859E-1,3.937986493E-1,-2.767394185E-1
2.278860375E0,1.359611452E-1,3.512125909E-1,-2.533170879E-1
2.280860375E0,1.471487135E-1,3.086265624E-1,-2.282890677E-1
2.282860375E0,1.561895162E-1,2.660405338E-1,-2.022138536E-1
2.284860375E0,1.620538235E-1,2.223898470E-1,-1.755975783E-1
2.287443188E0,1.668360233E-1,1.601165086E-1,-1.340761930E-1
2.289197875E0,1.689653248E-1,1.207244247E-1,-1.047895700E-1
2.290899438E0,1.695063710E-1,8.239699155E-2,-7.497934252E-2
2.292860375E0,1.679181308E-1,6.377433240E-2,-5.955063552E-2
2.294860375E0,1.625774205E-1,2.862340026E-2,-2.654645778E-2
2.296860375E0,1.535366178E-1,-5.410520826E-3,5.916666240E-3
2.298860375E0,1.391725540E-1,-3.363249451E-2,3.892084211E-2
2.300860375E0,1.194677874E-1,-5.972516537E-2,7.244861871E-2
2.302858813E0,9.443976730E-2,-8.314748853E-2,1.065174416E-1
2.304858813E0,6.462953985E-2,-1.055051535E-1,1.421919763E-1
2.307443188E0,1.354375482E-2,-1.390329301E-1,1.938362718E-1
2.308882250E0,-4.537856206E-3,-1.512676924E-1,2.103296220E-1
2.310861938E0,-4.286528751E-2,-1.757546514E-1,2.401398569E-1
2.312858813E0,-8.225736767E-2,-2.013062686E-1,2.678207755E-1
2.314858813E0,-1.216669008E-1,-2.268753499E-1,2.938959897E-1
2.316858813E0,-1.562767774E-1,-2.556209266E-1,3.189240098E-1
2.318858813E0,-1.850223541E-1,-2.891661525E-1,3.444756269E-1
2.320860375E0,-2.031039596E-1,-3.226939142E-1,3.721565604E-1
2.322860375E0,-2.084446698E-1,-3.578273952E-1,4.030314386E-1
2.324858813E0,-1.983217597E-1,-3.908315897E-1,4.365592003E-1
2.327441625E0,-1.573239714E-1,-4.280943573E-1,4.913974404E-1
2.329197875E0,-1.168672442E-1,-4.429820180E-1,5.313131213E-1
2.330858813E0,-9.344492853E-2,-4.467170238E-1,5.510178804E-1
2.332860375E0,-4.340633750E-2,-4.472406209E-1,5.914746523E-1
2.334860375E0,3.961897455E-3,-4.371351600E-1,6.319313645E-1
2.336858813E0,4.548327997E-2,-4.174304008E-1,6.718470454E-1
2.338858813E0,7.901105285E-2,-3.902905285E-1,7.101744413E-1
2.340858813E0,1.018923223E-1,-3.599567115E-1,7.469136715E-1
2.342858813E0,1.130624264E-1,-3.306875229E-1,7.815060616E-1
2.344860375E0,1.162563786E-1,-3.067241609E-1,8.123809695E-1
2.347441625E0,1.045626774E-1,-2.774375379E-1,8.528376818E-1
2.348882250E0,9.922196716E-2,-2.710670829E-1,8.650898933E-1
2.350858813E0,8.857546002E-2,-2.630909383E-1,8.874475360E-1
2.352858813E0,7.847000659E-2,-2.604205906E-1,9.076759219E-1
2.354860375E0,7.154104859E-2,-2.609616220E-1,9.247103333E-1
2.356858813E0,7.047639787E-2,-2.641555667E-1,9.390743971E-1
2.358858813E0,7.579965144E-2,-2.710670829E-1,9.502619505E-1
2.360860375E0,8.859290928E-2,-2.811725438E-1,9.609084725E-1
2.362858813E0,1.066919789E-1,-2.944719493E-1,9.720785618E-1
2.364860375E0,1.295732409E-1,-3.062005639E-1,9.827250838E-1
2.367455688E0,1.769589335E-1,-3.173706830E-1,9.986948371E-1
2.368861938E0,1.971698403E-1,-3.200410306E-1,1.005082726E0
2.370929125E0,2.413615882E-1,-3.274935782E-1,1.015729308E0
2.372860375E0,2.897944748E-1,-3.386636972E-1,1.024787545E0
2.374858813E0,3.430269957E-1,-3.525041342E-1,1.031699061E0
2.376860375E0,3.978652656E-1,-3.690149486E-1,1.035434008E0
2.378860375E0,4.542917609E-1,-3.892433345E-1,1.036498666E0
2.380860375E0,5.117828846E-1,-4.084070325E-1,1.032240033E0
2.382858813E0,5.703561306E-1,-4.232946932E-1,1.022134662E0
2.384858813E0,6.283883452E-1,-4.344648123E-1,1.006688476E0
2.387443188E0,7.108900547E-1,-4.461759627E-1,9.742078781E-1
2.388860375E0,7.369652987E-1,-4.483227134E-1,9.614320397E-1
2.390926000E0,7.875274420E-1,-4.509756267E-1,9.321628809E-1
2.392858813E0,8.354367614E-1,-4.504520297E-1,8.986176848E-1
2.394858813E0,8.801521063E-1,-4.467170238E-1,8.608313203E-1
2.396858813E0,9.216734767E-1,-4.387408793E-1,8.177042007E-1
2.398858813E0,9.589362741E-1,-4.291590154E-1,7.703359723E-1
2.400860375E0,9.924989343E-1,-4.169068038E-1,7.176444530E-1
2.402858813E0,1.023897409E0,-3.950901926E-1,6.617415547E-1
2.404858813E0,1.058489799E0,-3.610039055E-1,6.095737219E-1
2.407441625E0,1.115980983E0,-2.987305522E-1,5.462182164E-1
2.409221313E0,1.154308438E0,-2.534916103E-1,5.153433681E-1
2.410683813E0,1.173995733E0,-2.321985960E-1,5.031086206E-1
2.412860375E0,1.211258531E0,-1.917418689E-1,4.850095510E-1
2.414860375E0,1.244803667E0,-1.555437446E-1,4.722337425E-1
2.416860375E0,1.270896435E0,-1.219985113E-1,4.615872204E-1
2.418860375E0,1.290583730E0,-9.484118968E-2,4.488114119E-1
2.420860375E0,1.303359509E0,-7.356562465E-2,4.328416586E-1
2.422858813E0,1.310812116E0,-5.866051465E-2,4.126132727E-1
2.424858813E0,1.314547062E0,-4.799655452E-2,3.886499107E-1
2.427441625E0,1.312417746E0,-3.309144080E-2,3.481931984E-1
2.428885375E0,1.310271025E0,-2.778564207E-2,3.338291347E-1
2.430858813E0,1.302818418E0,-1.607448235E-2,3.050835431E-1
2.432860375E0,1.292171955E0,-2.757620299E-3,2.763379812E-1
2.434860375E0,1.279937148E0,1.265363675E-2,2.518510222E-1
2.436860375E0,1.265032053E0,3.183480725E-2,2.310815901E-1
2.438860375E0,1.248538733E0,5.152212083E-2,2.161764801E-1
2.440860375E0,1.229898572E0,7.548549026E-2,2.055299729E-1
2.442860375E0,1.209146619E0,9.995500743E-2,1.954245120E-1
2.444860375E0,1.184118629E0,1.217890754E-1,1.847780049E-1
2.447441625E0,1.141532540E0,1.462760419E-1,1.640085876E-1
2.448860375E0,1.126086473E0,1.515993029E-1,1.554913819E-1
2.450858813E0,1.093623281E0,1.611811519E-1,1.384569705E-1
2.452858813E0,1.058489799E0,1.654397547E-1,1.219636053E-1
2.454858813E0,1.023356318E0,1.691573113E-1,1.070584953E-1
2.456858813E0,9.887464643E-1,1.707630157E-1,9.161233157E-2
2.458858813E0,9.552361369E-1,1.707630157E-1,7.618362457E-2
2.460860375E0,9.211498499E-1,1.649161577E-1,5.647885427E-2
2.462890063E0,8.854753375E-1,1.521228999E-1,3.305653483E-2
2.464858813E0,8.482300043E-1,1.313709319E-1,4.310963210E-3
2.467485375E0,7.923445702E-1,8.878489584E-2,-4.303981736E-2
2.468890063E0,7.742455006E-1,7.229153812E-2,-5.846852809E-2
2.470861938E0,7.375063300E-1,3.822271153E-2,-8.829620481E-2
2.472860375E0,7.044847012E-1,7.330382708E-3,-1.143714264E-1
2.474860375E0,6.757565737E-1,-2.031563222E-2,-1.372701526E-1
2.476858813E0,6.507285833E-1,-4.534365237E-2,-1.574810594E-1
2.478858813E0,6.294530034E-1,-7.141887397E-2,-1.771858186E-1
2.480860375E0,6.140068173E-1,-9.803514183E-2,-1.952848881E-1
2.482858813E0,6.012310386E-1,-1.273217648E-1,-2.128603607E-1
2.484882250E0,5.911255479E-1,-1.576555967E-1,-2.325476706E-1
2.487441625E0,5.788733363E-1,-2.076941729E-1,-2.634225488E-1
2.489197875E0,5.751383305E-1,-2.263343036E-1,-2.746101022E-1
2.490858813E0,5.671622157E-1,-2.673146129E-1,-2.974913716E-1
2.492863500E0,5.575803518E-1,-3.141767085E-1,-3.198490441E-1
2.494858813E0,5.463927984E-1,-3.658035696E-1,-3.427477479E-1
2.496860375E0,5.341579914E-1,-4.201007485E-1,-3.656290174E-1
2.498858813E0,5.213822126E-1,-4.754625857E-1,-3.858574033E-1
2.500871313E0,5.086063743E-1,-5.276130438E-1,-4.055446982E-1
2.502860375E0,4.985009432E-1,-5.739340782E-1,-4.231201708E-1
2.504858813E0,4.910309315E-1,-6.133261323E-1,-4.390899241E-1
2.507441625E0,4.873133898E-1,-6.458067298E-1,-4.518657327E-1
2.508877563E0,4.883780181E-1,-6.697526574E-1,-4.619886577E-1
2.510858813E0,4.936838448E-1,-6.868045330E-1,-4.715705216E-1
2.512858813E0,5.037893057E-1,-6.969274282E-1,-4.795466661E-1
2.514858813E0,5.181707740E-1,-7.027742863E-1,-4.859345555E-1
2.516858813E0,5.341405869E-1,-7.070328593E-1,-4.891285300E-1
2.518858813E0,5.511749983E-1,-7.107504010E-1,-4.907342196E-1
2.520860375E0,5.698150992E-1,-7.144854069E-1,-4.901931584E-1
2.522858813E0,5.900434852E-1,-7.176619172E-1,-4.880638719E-1
2.524860375E0,6.113539338E-1,-7.203322649E-1,-4.848699272E-1
2.527447875E0,6.331880093E-1,-7.203148603E-1,-4.806113243E-1
2.528860375E0,6.550046206E-1,-7.144680023E-1,-4.763527215E-1
2.530927563E0,6.757740378E-1,-7.048861384E-1,-4.720941186E-1
2.532860375E0,6.949203014E-1,-6.921103001E-1,-4.689001441E-1
2.534858813E0,7.055668235E-1,-6.772052050E-1,-4.641179442E-1
2.536858813E0,7.098253965E-1,-6.596297622E-1,-4.577125907E-1
2.538860375E0,7.108900547E-1,-6.335545182E-1,-4.497364461E-1
2.540860375E0,7.119547129E-1,-6.000092626E-1,-4.412192404E-1
2.542858813E0,7.135429382E-1,-5.611582398E-1,-4.337666631E-1
2.544860375E0,7.151486874E-1,-5.212425590E-1,-4.284434319E-1
2.547441625E0,7.183600664E-1,-4.807683825E-1,-4.247084260E-1
2.548882250E0,7.220776081E-1,-4.392470121E-1,-4.241848290E-1
2.550872875E0,7.274183035E-1,-3.987902701E-1,-4.257730842E-1
2.552858813E0,7.332651615E-1,-3.578099608E-1,-4.295080602E-1
2.554858813E0,7.396356463E-1,-3.147003055E-1,-4.358959794E-1
2.556860375E0,7.449588776E-1,-2.699849904E-1,-4.449367821E-1
2.558860375E0,7.486938834E-1,-2.231228948E-1,-4.571889937E-1
2.560877563E0,7.513467669E-1,-1.784075499E-1,-4.726177156E-1
2.562858813E0,7.518878579E-1,-1.374272257E-1,-4.901931584E-1
2.564860375E0,7.497410774E-1,-1.017701477E-1,-5.082922578E-1
2.567443188E0,7.460060716E-1,-7.356562465E-2,-5.253266692E-1
2.569327563E0,7.401592135E-1,-5.227261037E-2,-5.375788808E-1
2.570877563E0,7.332476974E-1,-3.576179594E-2,-5.434257388E-1
2.572858813E0,7.257776856E-1,-2.298598550E-2,-5.444903374E-1
2.574860375E0,7.215191126E-1,-8.621926419E-3,-5.402317643E-1
2.576863500E0,7.194072604E-1,1.425934024E-2,-5.311909318E-1
2.578858813E0,7.183426023E-1,4.619886354E-2,-5.189387202E-1
2.580860375E0,7.167369127E-1,8.398524672E-2,-5.045746565E-1
2.582860375E0,7.146075964E-1,1.265887320E-1,-4.880638719E-1
2.584866625E0,7.114136815E-1,1.707630157E-1,-4.726177156E-1
2.587441625E0,7.087607384E-1,2.144311517E-1,-4.550597072E-1
2.588882250E0,7.071725130E-1,2.586054206E-1,-4.380252659E-1
2.590858813E0,7.071550488E-1,3.054500818E-1,-4.188615680E-1
2.592863500E0,7.071550488E-1,3.533593714E-1,-3.986332119E-1
2.594858813E0,7.071725130E-1,3.980746865E-1,-3.794694841E-1
2.596860375E0,7.028964758E-1,4.385314286E-1,-3.603057563E-1
2.598858813E0,6.954264641E-1,4.741710424E-1,-3.406184614E-1
2.600874438E0,6.826680899E-1,5.023930073E-1,-3.219783306E-1
2.602860375E0,6.650925875E-1,5.236860514E-1,-3.054849803E-1
2.604858813E0,6.427524090E-1,5.380675793E-1,-2.905798554E-1
2.607483813E0,6.161361337E-1,5.455201268E-1,-2.772630155E-1
2.608890063E0,5.836730003E-1,5.487140417E-1,-2.660754323E-1
2.610865063E0,5.463927984E-1,5.476493835E-1,-2.580992877E-1
2.612860375E0,5.043478012E-1,5.428671837E-1,-2.517113984E-1
2.614860375E0,4.606971145E-1,5.386086106E-1,-2.463881224E-1
2.616860375E0,4.154581726E-1,5.327442884E-1,-2.426531315E-1
2.618865063E0,3.691371381E-1,5.268974304E-1,-2.394766212E-1
2.620860375E0,3.217514455E-1,5.226388574E-1,-2.378709167E-1
2.622860375E0,2.765125036E-1,5.183802247E-1,-2.357416153E-1
2.624860375E0,2.339090258E-1,5.135805607E-1,-2.341533750E-1
2.627471313E0,1.945343912E-1,5.066691041E-1,-2.341533750E-1
2.628879125E0,1.588598639E-1,4.954815209E-1,-2.330887169E-1
2.630863500E0,1.279675364E-1,4.810999930E-1,-2.320240736E-1
2.632860375E0,1.008276716E-1,4.635419846E-1,-2.309594154E-1
2.634874438E0,7.742280513E-2,4.438546896E-1,-2.288301140E-1
2.637197875E0,5.932373926E-2,4.214970171E-1,-2.266833633E-1
2.638885375E0,4.337143153E-2,3.996804059E-1,-2.245540619E-1
2.640860375E0,3.696607426E-2,3.884928226E-1,-2.229658067E-1
2.642858813E0,2.579596639E-2,3.655941188E-1,-2.187072039E-1
2.644863500E0,1.727875881E-2,3.443185389E-1,-2.149721980E-1
2.647441625E0,7.173303049E-3,3.150319159E-1,-2.064549923E-1
2.649197875E0,1.850049011E-3,2.958856523E-1,-2.000670880E-1
2.650858813E0,-2.617993741E-4,2.857627571E-1,-1.963495463E-1
2.652893188E0,-3.455751808E-3,2.665990293E-1,-1.888969839E-1
2.654858813E0,-5.585053470E-3,2.453060299E-1,-1.814444214E-1
2.656858813E0,-6.667157635E-3,2.218662500E-1,-1.723861694E-1
2.658860375E0,-7.190756500E-3,1.957910359E-1,-1.633453667E-1
2.660860375E0,-6.667157635E-3,1.675865203E-1,-1.537635028E-1
2.662860375E0,-5.061454605E-3,1.377762854E-1,-1.431169957E-1
2.664860375E0,-1.867502346E-3,1.052957103E-1,-1.329940856E-1
2.667446313E0,3.979350906E-3,5.527457595E-2,-1.165007278E-1
2.668860375E0,6.108652335E-3,3.876376152E-2,-1.106364205E-1
2.670926000E0,1.089085452E-2,4.153883550E-3,-9.892526269E-2
2.672858813E0,1.408480667E-2,-3.096214123E-2,-8.614945412E-2
2.674858813E0,1.726130582E-2,-6.503096968E-2,-7.285004109E-2
2.676858813E0,1.993165910E-2,-9.751154482E-2,-5.953317881E-2
2.679485375E0,1.993165910E-2,-1.416858286E-1,-3.878121451E-2
2.680890063E0,1.832595654E-2,-1.550026834E-1,-3.239331022E-2
2.682860375E0,1.460840553E-2,-1.805543154E-1,-2.068215236E-2
2.684866625E0,8.220500313E-3,-2.061059326E-1,-1.003564335E-2
2.687440063E0,-4.014257342E-3,-2.471037209E-1,2.181661548E-3
2.688882250E0,-9.337511845E-3,-2.609267235E-1,5.375613924E-3
2.690860375E0,-2.209586836E-2,-2.891312540E-1,9.651671164E-3
2.692860375E0,-3.701843321E-2,-3.178942800E-1,1.230457146E-2
2.694860375E0,-5.403539166E-2,-3.482280970E-1,1.284562331E-2
2.696860375E0,-7.002261281E-2,-3.791029751E-1,1.123992074E-2
2.698860375E0,-8.597491682E-2,-4.083895981E-1,7.522369269E-3
2.700860375E0,-1.014210805E-1,-4.365940988E-1,3.246312495E-3
2.702858813E0,-1.142143458E-1,-4.621631801E-1,-3.124139272E-3
2.704858813E0,-1.237787530E-1,-4.861091077E-1,-1.055924222E-2
2.707441625E0,-1.312313080E-1,-5.169839859E-1,-2.120575123E-2
2.708860375E0,-1.322959512E-1,-5.260247588E-1,-2.439970337E-2
2.710915063E0,-1.322959512E-1,-5.398652554E-1,-3.026400879E-2
2.712858813E0,-1.296256036E-1,-5.499881506E-1,-3.558726236E-2
2.714858813E0,-1.264491081E-1,-5.547703505E-1,-4.091051593E-2
2.716858813E0,-1.216494516E-1,-5.542467833E-1,-4.516912252E-2
2.718860375E0,-1.157851443E-1,-5.499881506E-1,-4.942772537E-2
2.720860375E0,-1.078089848E-1,-5.409299135E-1,-5.633922666E-2
2.722860375E0,-9.983283281E-2,-5.265658498E-1,-6.487388909E-2
2.724860375E0,-9.131562710E-2,-5.111196637E-1,-7.497934252E-2
2.727441625E0,-8.066911995E-2,-4.829151630E-1,-9.307841212E-2
2.729338500E0,-7.586946338E-2,-4.605574906E-1,-1.074599251E-1
2.730858813E0,-7.374016196E-2,-4.488288760E-1,-1.154360771E-1
2.732860375E0,-7.054620981E-2,-4.243418872E-1,-1.324704885E-1
2.734860375E0,-6.894050539E-2,-4.009370208E-1,-1.500284970E-1
2.736860375E0,-6.628760695E-2,-3.775147200E-1,-1.665393114E-1
2.738860375E0,-6.415830553E-2,-3.562217057E-1,-1.825090796E-1
2.740860375E0,-6.309365481E-2,-3.386462331E-1,-1.963495463E-1
2.742860375E0,-6.098180264E-2,-3.232175112E-1,-2.091253549E-1
2.744860375E0,-5.778785050E-2,-3.104417026E-1,-2.197718620E-1
2.747441625E0,-5.085889250E-2,-2.923426628E-1,-2.346769720E-1
2.748882250E0,-4.871213809E-2,-2.880840600E-1,-2.394591719E-1
2.750858813E0,-4.178318381E-2,-2.811550796E-1,-2.485174239E-1
2.752860375E0,-3.221877664E-2,-2.752907872E-1,-2.570346296E-1
2.754858813E0,-2.049016580E-2,-2.710321844E-1,-2.650108039E-1
2.756858813E0,-7.190756500E-3,-2.689028680E-1,-2.724633515E-1
2.758858813E0,8.220500313E-3,-2.689028680E-1,-2.793923020E-1
2.760860375E0,2.579596639E-2,-2.721142769E-1,-2.847155631E-1
2.762858813E0,4.548327997E-2,-2.763554454E-1,-2.884331048E-1
2.764858813E0,6.890559942E-2,-2.811550796E-1,-2.889741659E-1
2.767443188E0,1.077566296E-1,-2.907544076E-1,-2.847155631E-1
2.768860375E0,1.205324382E-1,-2.944719493E-1,-2.809980214E-1
2.770683813E0,1.471487135E-1,-3.024480939E-1,-2.708750963E-1
2.772858813E0,1.764353365E-1,-3.077713549E-1,-2.570346296E-1
2.774860375E0,2.067866027E-1,-3.082949519E-1,-2.373298705E-1
2.776860375E0,2.392671853E-1,-3.029716909E-1,-2.128428966E-1
2.778860375E0,2.738596201E-1,-2.918016016E-1,-1.825090796E-1
2.780860375E0,3.111223876E-1,-2.752907872E-1,-1.473755985E-1
2.782858813E0,3.510555327E-1,-2.534741759E-1,-1.090481728E-1
2.784858813E0,3.904301524E-1,-2.268579006E-1,-6.911503524E-2
2.787440063E0,4.479213059E-1,-1.826836169E-1,-7.365289610E-3
2.788882250E0,4.654967487E-1,-1.672374457E-1,1.284562331E-2
2.790860375E0,4.995656013E-1,-1.368861794E-1,5.223770440E-2
2.792858813E0,5.288522243E-1,-1.022937447E-1,8.524188399E-2
2.794860375E0,5.527981520E-1,-6.396631896E-2,1.123817489E-1
2.796860375E0,5.698325634E-1,-2.296853252E-2,1.320865154E-1
2.798860375E0,5.793969631E-1,1.586504281E-2,1.443212777E-1
2.800860375E0,5.836555362E-1,4.780456796E-2,1.475152224E-1
2.802858813E0,5.815436840E-1,6.909758598E-2,1.427330226E-1
2.804858813E0,5.762204528E-1,7.496189326E-2,1.299572140E-1
2.807440063E0,5.629210472E-1,5.846852809E-2,9.747663885E-2
2.809476000E0,5.522745252E-1,3.131120652E-2,6.927211583E-2
2.810702563E0,5.464102030E-1,1.373574138E-2,5.436700583E-2
2.812860375E0,5.330933928E-1,-2.670353837E-2,2.295107953E-2
2.814860375E0,5.155178905E-1,-7.248352468E-2,-1.110029407E-2
2.816860375E0,4.920955896E-1,-1.246688664E-1,-4.623377323E-2
2.818872875E0,4.654793143E-1,-1.789486110E-1,-8.136724681E-2
2.820860375E0,4.394041002E-1,-2.358987033E-1,-1.148950234E-1
2.822860375E0,4.143935144E-1,-2.918016016E-1,-1.457698941E-1
2.824860375E0,3.914948106E-1,-3.418401778E-1,-1.734508276E-1
2.827485375E0,3.590142131E-1,-3.982666731E-1,-2.086017579E-1
2.828891625E0,3.494323790E-1,-4.126482010E-1,-2.181836069E-1
2.830858813E0,3.286803961E-1,-4.381998181E-1,-2.357416153E-1
2.832860375E0,3.116459846E-1,-4.594928324E-1,-2.501056790E-1
2.834869750E0,2.956587672E-1,-4.765272439E-1,-2.607696354E-1
2.836858813E0,2.818357646E-1,-4.919559658E-1,-2.698104382E-1
2.838860375E0,2.696010172E-1,-5.063374639E-1,-2.777866125E-1
2.840860375E0,2.568252087E-1,-5.207015276E-1,-2.841745019E-1
2.842874438E0,2.403143793E-1,-5.382769704E-1,-2.894977629E-1
2.844860375E0,2.179567218E-1,-5.611582398E-1,-2.942974269E-1
2.847438500E0,1.737824380E-1,-6.080029011E-1,-2.990796268E-1
2.848883813E0,1.562244147E-1,-6.276901960E-1,-3.001442850E-1
2.850874438E0,1.194852367E-1,-6.713408828E-1,-3.038792610E-1
2.852858813E0,7.956956327E-2,-7.197912335E-1,-3.065321743E-1
2.854858813E0,3.803072497E-2,-7.730237842E-1,-3.092025220E-1
2.856858813E0,-3.473205259E-3,-8.251916766E-1,-3.102671802E-1
2.858872875E0,-4.551818594E-2,-8.720362782E-1,-3.081378639E-1
2.860860375E0,-8.491026610E-2,-9.098227024E-1,-3.028146327E-1
2.862860375E0,-1.221730486E-1,-9.375035763E-1,-2.937563658E-1
2.864858813E0,-1.573065221E-1,-9.518676400E-1,-2.804569602E-1
2.867444750E0,-1.908342987E-1,-9.545380473E-1,-2.644872069E-1
2.868874438E0,-2.222502232E-1,-9.486911893E-1,-2.474527806E-1
2.870891625E0,-2.526015043E-1,-9.396328926E-1,-2.309419662E-1
2.872858813E0,-2.818706632E-1,-9.300510287E-1,-2.139075547E-1
2.874858813E0,-3.095515966E-1,-9.258099198E-1,-1.990024447E-1
2.876858813E0,-3.377735615E-1,-9.289863706E-1,-1.830326766E-1
2.878858813E0,-3.659780920E-1,-9.412385821E-1,-1.681275666E-1
2.880860375E0,-3.942000568E-1,-9.609434009E-1,-1.548281610E-1
2.882858813E0,-4.229281843E-1,-9.854128957E-1,-1.420523524E-1
2.884871313E0,-4.527558684E-1,-1.011505604E0,-1.282118857E-1
2.887482250E0,-4.815014303E-1,-1.034927845E0,-1.127657220E-1
2.889211938E0,-5.102469921E-1,-1.054615140E0,-9.679596126E-2
2.890858813E0,-5.389751196E-1,-1.069520354E0,-7.976154983E-2
2.892869750E0,-5.640031695E-1,-1.080166817E0,-6.059783325E-2
2.894858813E0,-5.842314959E-1,-1.087078333E0,-3.824016452E-2
2.896858813E0,-6.002187133E-1,-1.094024777E0,-1.377064735E-2
2.898858813E0,-6.108652353E-1,-1.102000833E0,1.389282104E-2
2.900858813E0,-6.183177829E-1,-1.109453440E0,4.370304570E-2
2.902858813E0,-6.231174469E-1,-1.117447019E0,7.618362457E-2
2.904858813E0,-6.257703304E-1,-1.124899626E0,1.097113937E-1
2.907441625E0,-6.262764931E-1,-1.129140735E0,1.448623240E-1
2.908858813E0,-6.273411512E-1,-1.131270051E0,1.789311469E-1
2.910866625E0,-6.310586929E-1,-1.133399367E0,2.129999846E-1
2.912858813E0,-6.347936988E-1,-1.133399367E0,2.465277612E-1
2.914858813E0,-6.401169300E-1,-1.129664302E0,2.779436707E-1
2.916858813E0,-6.470284462E-1,-1.124341130E0,3.072128594E-1
2.918858813E0,-6.534337997E-1,-1.117953181E0,3.348937631E-1
2.920869750E0,-6.608863473E-1,-1.109453440E0,3.604454100E-1
2.922860375E0,-6.704682112E-1,-1.101459861E0,3.854734302E-1
2.924860375E0,-6.816557646E-1,-1.092960119E0,4.088957310E-1
2.927460375E0,-6.949726343E-1,-1.083919287E0,4.301713109E-1
2.928869750E0,-7.093541622E-1,-1.073796391E0,4.520053566E-1
2.930861938E0,-7.247828841E-1,-1.064214468E0,4.727573395E-1
2.932860375E0,-7.418172956E-1,-1.054109097E0,4.935267568E-1
2.934858813E0,-7.609810233E-1,-1.042921543E0,5.153433681E-1
2.936901000E0,-7.796036601E-1,-1.029604673E0,5.361127853E-1
2.938858813E0,-7.992909551E-1,-1.013093829E0,5.547528863E-1
2.940860375E0,-8.184546828E-1,-9.955183268E-1,5.701816082E-1
2.942858813E0,-8.376184106E-1,-9.753074646E-1,5.834984779E-1
2.944858813E0,-8.567821383E-1,-9.502794147E-1,5.936039090E-1
2.947443188E0,-8.754222393E-1,-9.215512872E-1,6.010564566E-1
2.948858813E0,-8.929802775E-1,-8.880060911E-1,6.058561206E-1
2.950858813E0,-9.126675725E-1,-8.518079519E-1,6.079854369E-1
2.952858813E0,-9.339605570E-1,-8.134630322E-1,6.090500951E-1
2.954858813E0,-9.563007951E-1,-7.740709782E-1,6.090500951E-1
2.956860375E0,-9.791995287E-1,-7.304202914E-1,6.085090637E-1
2.958858813E0,-1.002098203E0,-6.835756302E-1,6.085090637E-1
2.960860375E0,-1.023932338E0,-6.351427436E-1,6.095737219E-1
2.962858813E0,-1.043096066E0,-5.813866258E-1,6.117029786E-1
2.964858813E0,-1.060654044E0,-5.260073543E-1,6.148969531E-1
2.967446313E0,-1.075559139E0,-4.695982933E-1,6.196966171E-1
2.969316625E0,-1.086746693E0,-4.089131951E-1,6.239551902E-1
2.970860375E0,-1.094199300E0,-3.482106328E-1,6.276727319E-1
2.972858813E0,-1.097916842E0,-2.875429988E-1,6.292784810E-1
2.974858813E0,-1.096328616E0,-2.279225439E-1,6.314077377E-1
2.976858813E0,-1.089940667E0,-1.693667471E-1,6.319313645E-1
2.978886938E0,-1.078753114E0,-1.118756011E-1,6.314077377E-1
2.980860375E0,-1.062783360E0,-5.490805954E-2,6.287373900E-1
2.982860375E0,-1.043619633E0,3.106686054E-3,6.218259335E-1
2.984860375E0,-1.020738363E0,6.164502725E-2,6.101147532E-1
2.987446313E0,-9.957277775E-1,1.164658219E-1,5.994507670E-1
2.989218188E0,-9.691115022E-1,1.627868563E-1,5.936039090E-1
2.990858813E0,-9.414305687E-1,2.021789402E-1,5.920156837E-1
2.992883813E0,-9.121614099E-1,2.357067168E-1,5.919982195E-1
2.994858813E0,-8.802044392E-1,2.644697428E-1,5.936039090E-1
2.996858813E0,-8.455945849E-1,2.894802988E-1,5.936039090E-1
2.998858813E0,-8.269718885E-1,3.001442850E-1,5.930803418E-1
3.000858813E0,-7.886444926E-1,3.182258904E-1,5.909510255E-1
3.002858813E0,-7.487288117E-1,3.325899541E-1,5.872160196E-1
3.004860375E0,-7.088131309E-1,3.437775075E-1,5.813691616E-1
3.007483813E0,-6.497337222E-1,3.528183103E-1,5.717698336E-1
3.008890063E0,-6.119298935E-1,3.533593714E-1,5.648583770E-1
3.010871313E0,-5.948954821E-1,3.522947133E-1,5.616644025E-1
3.012858813E0,-5.618738532E-1,3.506889939E-1,5.547528863E-1
3.014858813E0,-5.336867571E-1,3.496243656E-1,5.472828746E-1
3.016858813E0,-5.118526816E-1,3.490833044E-1,5.377010107E-1
3.018858813E0,-4.953244328E-1,3.491007686E-1,5.260073543E-1
3.020860375E0,-4.857600331E-1,3.501653969E-1,5.111021996E-1
3.022858813E0,-4.841543436E-1,3.522947133E-1,4.930031598E-1
3.024858813E0,-4.894775748E-1,3.570943773E-1,4.706454873E-1
3.027441625E0,-5.091649294E-1,3.645469248E-1,4.392295480E-1
3.028882250E0,-5.176821351E-1,3.629586697E-1,4.317770004E-1
3.030858813E0,-5.373694301E-1,3.539004028E-1,4.206068814E-1
3.032858813E0,-5.581388474E-1,3.448596001E-1,4.110250473E-1
3.034858813E0,-5.773025751E-1,3.416656554E-1,4.019667804E-1
3.036858813E0,-5.916840434E-1,3.501653969E-1,3.918613195E-1
3.038858813E0,-5.985955596E-1,3.666762114E-1,3.812148273E-1
3.040860375E0,-5.975309014E-1,3.847752810E-1,3.700272441E-1
3.042858813E0,-5.932723284E-1,3.959628344E-1,3.588571548E-1
3.044858813E0,-5.890136957E-1,3.975510895E-1,3.466049433E-1
3.047441625E0,-5.884901285E-1,3.783873916E-1,3.242472708E-1
3.049197875E0,-5.927487016E-1,3.560122550E-1,3.029542565E-1
3.050858813E0,-5.964837074E-1,3.448421657E-1,2.901784480E-1
3.052880688E0,-6.055245399E-1,3.225019276E-1,2.641032338E-1
3.054860375E0,-6.166946292E-1,3.027971685E-1,2.401398569E-1
3.056858813E0,-6.289643049E-1,2.857452929E-1,2.209761292E-1
3.058858813E0,-6.401343942E-1,2.703166008E-1,2.060710192E-1
3.060858813E0,-6.523691416E-1,2.548878789E-1,1.911659092E-1
3.062858813E0,-6.678153276E-1,2.373124212E-1,1.746725440E-1
3.064858813E0,-6.832440495E-1,2.208190560E-1,1.565734893E-1
3.067446313E0,-7.072073817E-1,1.989849806E-1,1.251575649E-1
3.068858813E0,-7.151835561E-1,1.920560300E-1,1.145110503E-1
3.070935375E0,-7.316769361E-1,1.782330275E-1,9.375908971E-2
3.072858813E0,-7.481703162E-1,1.649336070E-1,7.459536940E-2
3.074858813E0,-7.630754113E-1,1.537460536E-1,5.649630725E-2
3.076858813E0,-7.747691274E-1,1.436580569E-1,3.946189582E-2
3.078858813E0,-7.838273644E-1,1.335351467E-1,2.508038096E-2
3.080860375E0,-7.912973762E-1,1.212829277E-1,1.123992074E-2
3.082858813E0,-7.971442342E-1,1.069014147E-1,-2.042035107E-3
3.084858813E0,-8.035321236E-1,9.093165398E-2,-1.429424621E-2
3.087441625E0,-8.125903606E-1,6.431538612E-2,-3.558726236E-2
3.088882250E0,-8.152607679E-1,5.792747810E-2,-4.356341809E-2
3.090858813E0,-8.184372187E-1,4.675737023E-2,-5.740387738E-2
3.092858813E0,-8.189783096E-1,4.302236438E-2,-7.017968595E-2
3.094858813E0,-8.179136515E-1,4.515166581E-2,-8.082620054E-2
3.096858813E0,-8.141786456E-1,4.728097096E-2,-8.934340626E-2
3.098858813E0,-8.104611039E-1,4.993386939E-2,-9.892526269E-2
3.100860375E0,-8.056614399E-1,5.155702680E-2,-1.069188714E-1
3.102858813E0,-8.014028072E-1,5.368632823E-2,-1.143714264E-1
3.104860375E0,-7.976852655E-1,5.527457595E-2,-1.223475784E-1
3.107441625E0,-7.950149179E-1,5.633922666E-2,-1.356644481E-1
3.108882250E0,-7.944913507E-1,5.633922666E-2,-1.399230510E-1
3.110858813E0,-7.950323820E-1,5.527457595E-2,-1.478991956E-1
3.112858813E0,-7.955559492E-1,5.420992523E-2,-1.548281610E-1
3.114858813E0,-7.976852655E-1,5.260422453E-2,-1.622807086E-1
3.116858813E0,-8.019264340E-1,4.942772537E-2,-1.713215262E-1
3.118858813E0,-8.062024713E-1,4.408701509E-2,-1.835737228E-1
3.120860375E0,-8.125903606E-1,3.663446009E-2,-1.990024447E-1
3.122858813E0,-8.195193410E-1,2.651155181E-2,-2.155132592E-1
3.124858813E0,-8.259072304E-1,1.960004680E-2,-2.325476706E-1
3.127441625E0,-8.376184106E-1,1.373574138E-2,-2.586228848E-1
3.129338500E0,-8.472002745E-1,1.267109066E-2,-2.745926380E-1
3.130858813E0,-8.519999385E-1,1.267109066E-2,-2.825862467E-1
3.132860375E0,-8.615818024E-1,1.425934024E-2,-2.985560298E-1
3.134685375E0,-8.706225753E-1,1.534144394E-2,-3.129200935E-1
3.136860375E0,-8.796808720E-1,1.586504281E-2,-3.278251886E-1
3.138858813E0,-8.876569867E-1,1.747074537E-2,-3.400774002E-1
3.140858813E0,-8.929802775E-1,1.960004680E-2,-3.512475193E-1
3.142860375E0,-8.972388506E-1,2.385865152E-2,-3.608293831E-1
3.144860375E0,-8.993681669E-1,2.864085324E-2,-3.693465889E-1
3.147482250E0,-8.983035088E-1,3.502875939E-2,-3.799930811E-1
3.148882250E0,-8.972388506E-1,3.769911081E-2,-3.837280869E-1
3.150858813E0,-8.924391866E-1,4.249876738E-2,-3.901160061E-1
3.152858813E0,-8.850041032E-1,4.728097096E-2,-3.959628344E-1
3.154860375E0,-8.754047751E-1,5.153957382E-2,-4.012860954E-1
3.156858813E0,-8.642172217E-1,5.473352596E-2,-4.066093564E-1
3.158860375E0,-8.509178162E-1,5.686282739E-2,-4.114090204E-1
3.160858813E0,-8.381420374E-1,5.633922666E-2,-4.177969098E-1
3.162860375E0,-8.242840767E-1,5.262167752E-2,-4.257730842E-1
3.164860375E0,-8.104611039E-1,4.834562168E-2,-4.342902899E-1
3.167444750E0,-7.913148403E-1,3.768165782E-2,-4.486717880E-1
3.168886938E0,-7.854505181E-1,3.396410868E-2,-4.539950490E-1
3.170858813E0,-7.731983066E-1,2.705260366E-2,-4.657061994E-1
3.172860375E0,-7.609635592E-1,2.014109865E-2,-4.768763185E-1
3.174860375E0,-7.492349148E-1,1.481784508E-2,-4.869992137E-1
3.176860375E0,-7.364766002E-1,9.494591504E-3,-4.992339909E-1
3.178858813E0,-7.226361036E-1,3.106686054E-3,-5.104215145E-1
3.180860375E0,-7.082546353E-1,-4.869468510E-3,-5.215916634E-1
3.182858813E0,-6.928259134E-1,-1.071632188E-2,-5.338438749E-1
3.184858813E0,-6.763150692E-1,-1.392772701E-2,-5.466196537E-1
3.187441625E0,-6.491752267E-1,-1.445132587E-2,-5.636540651E-1
3.188883813E0,-6.406580210E-1,-1.338667516E-2,-5.684362650E-1
3.190858813E0,-6.209532619E-1,-6.998770405E-3,-5.774945617E-1
3.192858813E0,-5.980719924E-1,3.630284918E-3,-5.838824511E-1
3.194858813E0,-5.725203753E-1,1.586504281E-2,-5.892056823E-1
3.196860375E0,-5.453630090E-1,2.811725438E-2,-5.939878821E-1
3.198860375E0,-5.150117278E-1,3.558726236E-2,-5.993111730E-1
3.200860375E0,-4.857251346E-1,3.291691095E-2,-6.073047519E-1
3.202860375E0,-4.548677206E-1,3.556980938E-2,-6.158219576E-1
3.204860375E0,-4.207988679E-1,5.420992523E-2,-6.232745051E-1
3.207440063E0,-3.670427501E-1,9.625490755E-2,-6.259274483E-1
3.209338500E0,-3.500083387E-1,1.100953668E-1,-6.243391633E-1
3.210858813E0,-3.159394860E-1,1.356469840E-1,-6.174102426E-1
3.212860375E0,-2.845235765E-1,1.580046564E-1,-6.088930368E-1
3.214860375E0,-2.552369535E-1,1.792976707E-1,-6.003758311E-1
3.216858813E0,-2.297027856E-1,1.990024447E-1,-5.913349986E-1
3.218858813E0,-2.083923072E-1,2.165604532E-1,-5.822767615E-1
3.220858813E0,-1.897696555E-1,2.357416153E-1,-5.721712708E-1
3.222858813E0,-1.748470813E-1,2.570346296E-1,-5.620483756E-1
3.224858813E0,-1.626123190E-1,2.788512409E-1,-5.519429445E-1
3.227440063E0,-1.540951133E-1,3.006678820E-1,-5.402317643E-1
3.228885375E0,-1.471836120E-1,3.208962381E-1,-5.269148946E-1
3.230858813E0,-1.402721107E-1,3.395189047E-1,-5.120097995E-1
3.232858813E0,-1.328020990E-1,3.576354086E-1,-4.960400164E-1
3.234858813E0,-1.243023500E-1,3.703937829E-1,-4.811349213E-1
3.236860375E0,-1.168497950E-1,3.741287887E-1,-4.672944546E-1
3.238858813E0,-1.093797833E-1,3.693465889E-1,-4.545186460E-1
3.240860375E0,-1.035503820E-1,3.554886580E-1,-4.438721240E-1
3.242858813E0,-9.555677325E-2,3.453831971E-1,-4.337666631E-1
3.244858813E0,-8.491026610E-2,3.459067941E-1,-4.199262261E-1
3.247440063E0,-7.426375896E-2,3.448421657E-1,-4.002214372E-1
3.248883813E0,-6.468190253E-2,3.421892524E-1,-3.767991364E-1
3.250860375E0,-5.562364310E-2,3.379306495E-1,-3.501828611E-1
3.252860375E0,-4.656538367E-2,3.326073885E-1,-3.209137022E-1
3.254858813E0,-3.698352724E-2,3.256959021E-1,-2.900388241E-1
3.256860375E0,-2.686061710E-2,3.182607889E-1,-2.586228848E-1
3.258860375E0,-1.675515994E-2,3.102671802E-1,-2.277480066E-1
3.260860375E0,-8.237954229E-3,3.012089133E-1,-1.979377866E-1
3.262858813E0,-1.850049011E-3,2.900388241E-1,-1.670629084E-1
3.264858813E0,2.914699726E-3,2.761808932E-1,-1.367290914E-1
3.267444750E0,5.026548170E-3,2.612757981E-1,-1.063778177E-1
3.268885375E0,5.026548170E-3,2.442239225E-1,-7.710864395E-2
3.270861938E0,1.850049011E-3,2.245366126E-1,-4.942772537E-2
3.272860375E0,-3.473205259E-3,2.021789402E-1,-2.014109865E-2
3.274860375E0,-1.303760987E-2,1.792976707E-1,8.045967668E-3
3.276858813E0,-2.687807009E-2,1.569400132E-1,3.733259439E-2
3.278858813E0,-4.497713596E-2,1.324530393E-1,6.607816368E-2
3.280860375E0,-6.733480096E-2,1.069188714E-1,9.588839114E-2
3.282858813E0,-9.128072113E-2,7.869689912E-2,1.256986111E-1
3.284858813E0,-1.173559353E-1,4.623377323E-2,1.555088311E-1
3.287443188E0,-1.434311569E-1,1.057669520E-2,1.853190660E-1
3.289338500E0,-1.700474322E-1,-2.773328125E-2,2.135235816E-1
3.290858813E0,-1.977458000E-1,-6.873106211E-2,2.428102046E-1
3.292860375E0,-2.248856723E-1,-1.123817489E-1,2.726204395E-1
3.294858813E0,-2.541722953E-1,-1.587027907E-1,3.040189147E-1
3.296860375E0,-2.802649736E-1,-2.050063759E-1,3.348937631E-1
3.298860375E0,-3.036872745E-1,-2.491981089E-1,3.657686412E-1
3.300860375E0,-3.233745992E-1,-2.912431061E-1,3.971845806E-1
3.302858813E0,-3.409500718E-1,-3.295879662E-1,4.296477139E-1
3.304858813E0,-3.553315699E-1,-3.636567891E-1,4.621282816E-1
3.307441625E0,-3.659606278E-1,-3.929259777E-1,4.945914149E-1
3.308885375E0,-3.718249500E-1,-4.179539979E-1,5.281366110E-1
3.310861938E0,-3.755599558E-1,-4.376587570E-1,5.611408353E-1
3.312858813E0,-3.761009872E-1,-4.536285102E-1,5.946685672E-1
3.314858813E0,-3.728896081E-1,-4.685161710E-1,6.271491647E-1
3.316858813E0,-3.659780920E-1,-4.807683825E-1,6.596122980E-1
3.318858813E0,-3.563962281E-1,-4.908913076E-1,6.910282373E-1
3.320860375E0,-3.452086747E-1,-4.967381656E-1,7.213620543E-1
3.322860375E0,-3.308446109E-1,-5.036671162E-1,7.511722445E-1
3.324860375E0,-3.159569502E-1,-5.105960965E-1,7.799178362E-1
3.327441625E0,-2.983814776E-1,-5.164428949E-1,8.070576787E-1
3.328883813E0,-2.781531215E-1,-5.233544111E-1,8.320857286E-1
3.330858813E0,-2.547133565E-1,-5.276130438E-1,8.544433713E-1
3.332858813E0,-2.264913768E-1,-5.307895541E-1,8.746717572E-1
3.334860375E0,-1.929636002E-1,-5.361127853E-1,8.922472000E-1
3.337197875E0,-1.551597714E-1,-5.430417657E-1,9.076759219E-1
3.338882250E0,-1.099208370E-1,-5.504943132E-1,9.193871021E-1
3.340860375E0,-6.092944369E-2,-5.563411713E-1,9.295099974E-1
3.342858813E0,-1.143190637E-2,-5.590115190E-1,9.374861717E-1
3.344860375E0,3.911282867E-2,-5.558175445E-1,9.417447448E-1
3.347441625E0,9.180431813E-2,-5.441063643E-1,9.428094029E-1
3.348883813E0,1.482482702E-1,-5.286602378E-1,9.428094029E-1
3.350858813E0,2.073276639E-1,-5.137551427E-1,9.396154284E-1
3.352858813E0,2.680127621E-1,-5.063199997E-1,9.342921972E-1
3.354858813E0,3.271096051E-1,-5.073846579E-1,9.279043078E-1
3.356858813E0,3.856654167E-1,-5.153608322E-1,9.215163589E-1
3.358858813E0,4.415682852E-1,-5.275955796E-1,9.140638113E-1
3.360860375E0,4.687081575E-1,-5.339834690E-1,9.098052382E-1
3.362858813E0,5.230228305E-1,-5.483475327E-1,9.007644057E-1
3.364858813E0,5.751732588E-1,-5.637937188E-1,8.922472000E-1
3.367443188E0,6.534337997E-1,-5.840220451E-1,8.768010736E-1
3.369338500E0,7.050606608E-1,-5.973389149E-1,8.645662665E-1
3.370858813E0,7.300886512E-1,-6.037268639E-1,8.581783772E-1
3.372858813E0,7.785215378E-1,-6.154379845E-1,8.416675925E-1
3.374858813E0,8.226958513E-1,-6.250198483E-1,8.219802380E-1
3.376858813E0,8.620879054E-1,-6.324898601E-1,7.985579371E-1
3.378858813E0,8.929628134E-1,-6.394013762E-1,7.719416618E-1
3.380858813E0,9.131911397E-1,-6.431189179E-1,7.415903807E-1
3.382858813E0,9.233140945E-1,-6.441835761E-1,7.107155323E-1
3.384858813E0,9.211847782E-1,-6.415306926E-1,6.793170571E-1
3.387444750E0,8.998917341E-1,-6.346017122E-1,6.367310286E-1
3.388885375E0,8.897863030E-1,-6.324723959E-1,6.228905320E-1
3.390858813E0,8.663640022E-1,-6.308667064E-1,5.962742567E-1
3.392858813E0,8.402887583E-1,-6.340606809E-1,5.701816082E-1
3.394871313E0,8.120667934E-1,-6.415132284E-1,5.441063643E-1
3.396858813E0,7.838622928E-1,-6.542890072E-1,5.169490576E-1
3.398858813E0,7.567049265E-1,-6.713234186E-1,4.903328121E-1
3.400860375E0,7.316769361E-1,-6.910282373E-1,4.637165368E-1
3.402869750E0,7.093192339E-1,-7.107329965E-1,4.376413226E-1
3.404860375E0,6.880262494E-1,-7.282909751E-1,4.126132727E-1
3.407440063E0,6.651449800E-1,-7.485193610E-1,3.812148273E-1
3.408883813E0,6.598217487E-1,-7.543662190E-1,3.721565604E-1
3.410863500E0,6.513045430E-1,-7.655537724E-1,3.551221490E-1
3.412860375E0,6.433109045E-1,-7.788531780E-1,3.386287689E-1
3.414858813E0,6.353173256E-1,-7.985579371E-1,3.231826127E-1
3.416860375E0,6.268001199E-1,-8.214392066E-1,3.098832071E-1
3.418858813E0,6.193649769E-1,-8.437968493E-1,2.992366850E-1
3.420860375E0,6.135181189E-1,-8.629605770E-1,2.885901928E-1
3.422858813E0,6.071302295E-1,-8.751953244E-1,2.795319259E-1
3.424858813E0,6.028716564E-1,-8.805186152E-1,2.699500620E-1
3.427494750E0,5.943544507E-1,-8.783892989E-1,2.550449669E-1
3.428897875E0,5.906194448E-1,-8.768010736E-1,2.491981089E-1
3.430858813E0,5.815611482E-1,-8.773421049E-1,2.364223003E-1
3.432860375E0,5.682617426E-1,-8.826653361E-1,2.236464918E-1
3.434858813E0,5.533566475E-1,-8.890532851E-1,2.092649788E-1
3.436858813E0,5.373694301E-1,-8.949175477E-1,1.938362718E-1
3.438858813E0,5.203524828E-1,-9.007644057E-1,1.757372022E-1
3.440860375E0,5.033006072E-1,-9.055640697E-1,1.560324281E-1
3.442858813E0,4.846779406E-1,-9.098227024E-1,1.331511736E-1
3.444866625E0,4.649731517E-1,-9.140812755E-1,1.075995490E-1
3.447441625E0,4.356865287E-1,-9.204691648E-1,6.820746511E-2
3.449338500E0,4.159992337E-1,-9.236456752E-1,3.998549283E-2
3.450858813E0,4.053527117E-1,-9.247103333E-1,2.562143281E-2
3.452963500E0,3.867300451E-1,-9.241867661E-1,-4.712388851E-3
3.454858813E0,3.691546023E-1,-9.199281335E-1,-3.665191308E-2
3.456860375E0,3.537084162E-1,-9.124755859E-1,-6.805038452E-2
3.458860375E0,3.414736688E-1,-9.007644057E-1,-9.892526269E-2
3.460858813E0,3.329564631E-1,-8.842710853E-1,-1.287354827E-1
3.462858813E0,3.281567991E-1,-8.640426993E-1,-1.553517580E-1
3.464858813E0,3.271096051E-1,-8.432732821E-1,-1.782504767E-1
3.467490063E0,3.308446109E-1,-8.129220009E-1,-2.059313953E-1
3.468894750E0,3.329739273E-1,-8.033401370E-1,-2.128428966E-1
3.470858813E0,3.404090106E-1,-7.852585316E-1,-2.250951082E-1
3.472858813E0,3.500083387E-1,-7.682066560E-1,-2.346769720E-1
3.474858813E0,3.601312339E-1,-7.506312132E-1,-2.415884733E-1
3.476863500E0,3.718423843E-1,-7.325321436E-1,-2.485174239E-1
3.478858813E0,3.830125034E-1,-7.165623903E-1,-2.559700012E-1
3.480860375E0,3.952647150E-1,-7.027218938E-1,-2.634225488E-1
3.482858813E0,4.074994624E-1,-6.894224882E-1,-2.719397545E-1
3.484869750E0,4.192106426E-1,-6.771877408E-1,-2.809805572E-1
3.487441625E0,4.394389987E-1,-6.612005234E-1,-2.905624211E-1
3.488886938E0,4.463679492E-1,-6.564183235E-1,-2.926917076E-1
3.490858813E0,4.601909518E-1,-6.463128924E-1,-2.948210239E-1
3.492858813E0,4.740314186E-1,-6.346017122E-1,-2.937563658E-1
3.494860375E0,4.884129465E-1,-6.196966171E-1,-2.900388241E-1
3.496683813E0,5.038591027E-1,-6.026447415E-1,-2.857802212E-1
3.498858813E0,5.192878246E-1,-5.829574466E-1,-2.804569602E-1
3.500860375E0,5.342103839E-1,-5.611233711E-1,-2.751336992E-1
3.502882250E0,5.496391058E-1,-5.398303270E-1,-2.708750963E-1
3.504860375E0,5.645442009E-1,-5.196019411E-1,-2.666164935E-1
3.507441625E0,5.895547867E-1,-4.913974404E-1,-2.596875429E-1
3.509033813E0,5.980719924E-1,-4.834212959E-1,-2.554289401E-1
3.510702563E0,6.145827770E-1,-4.679751396E-1,-2.442588210E-1
3.512858813E0,6.321408153E-1,-4.557403624E-1,-2.309419662E-1
3.514858813E0,6.480931044E-1,-4.461585283E-1,-2.165779024E-1
3.516860375E0,6.629981995E-1,-4.397706091E-1,-2.027374506E-1
3.518872875E0,6.763150692E-1,-4.344473481E-1,-1.888969839E-1
3.520860375E0,6.885498166E-1,-4.307298064E-1,-1.761211753E-1
3.522858813E0,6.997548342E-1,-4.269773364E-1,-1.659982651E-1
3.524858813E0,7.088131309E-1,-4.248480499E-1,-1.574810594E-1
3.527466625E0,7.210478783E-1,-4.221951365E-1,-1.489638537E-1
3.529224438E0,7.247828841E-1,-4.205894470E-1,-1.468345523E-1
3.530858813E0,7.316944003E-1,-4.168718755E-1,-1.436405927E-1
3.532858813E0,7.370176315E-1,-4.099429250E-1,-1.415112913E-1
3.534858813E0,7.391294837E-1,-3.998374641E-1,-1.404466480E-1
3.536858813E0,7.412762642E-1,-3.886499107E-1,-1.415112913E-1
3.538860375E0,7.402116060E-1,-3.764151633E-1,-1.436405927E-1
3.540858813E0,7.375412583E-1,-3.657686412E-1,-1.468345523E-1
3.542858813E0,7.343472838E-1,-3.561868072E-1,-1.495049000E-1
3.544871313E0,7.290240526E-1,-3.503224850E-1,-1.526988596E-1
3.547441625E0,7.146425247E-1,-3.460813463E-1,-1.585457027E-1
3.548882250E0,7.087782025E-1,-3.455577493E-1,-1.606750041E-1
3.550858813E0,6.949377656E-1,-3.466223776E-1,-1.659982651E-1
3.552858813E0,6.763150692E-1,-3.503399491E-1,-1.734508276E-1
3.554861938E0,6.491577625E-1,-3.514045775E-1,-1.803797781E-1
3.556860375E0,6.161710620E-1,-3.482106328E-1,-1.851619780E-1
3.558860375E0,5.794492960E-1,-3.386113346E-1,-1.872912794E-1
3.560860375E0,5.416629314E-1,-3.231826127E-1,-1.867676824E-1
3.562860375E0,5.038591027E-1,-3.050835431E-1,-1.835737228E-1
3.564860375E0,4.649906158E-1,-2.875081003E-1,-1.798387319E-1
3.567447875E0,4.112344682E-1,-2.651504278E-1,-1.713215262E-1
3.568860375E0,3.947236538E-1,-2.598271668E-1,-1.686686128E-1
3.570921313E0,3.628015816E-1,-2.555685639E-1,-1.633453667E-1
3.572860375E0,3.335149586E-1,-2.582389116E-1,-1.580221057E-1
3.574860375E0,3.074222803E-1,-2.651504278E-1,-1.526988596E-1
3.576860375E0,2.861292660E-1,-2.704911232E-1,-1.463109553E-1
3.578860375E0,2.717652023E-1,-2.747322619E-1,-1.393819898E-1
3.580860375E0,2.627069652E-1,-2.768615782E-1,-1.324704885E-1
3.582860375E0,2.579247653E-1,-2.805965841E-1,-1.244768798E-1
3.584860375E0,2.541897595E-1,-2.864434421E-1,-1.159596741E-1
3.587441625E0,2.515368462E-1,-2.944370508E-1,-1.074424684E-1
3.588882250E0,2.494075447E-1,-3.040189147E-1,-9.840166569E-2
3.590858813E0,2.446078956E-1,-3.141243458E-1,-8.934340626E-2
3.592860375E0,2.393020988E-1,-3.252944648E-1,-8.082620054E-2
3.594858813E0,2.323731333E-1,-3.391349316E-1,-7.391469181E-2
3.596858813E0,2.227912843E-1,-3.535164297E-1,-6.805038452E-2
3.598858813E0,2.094744146E-1,-3.700272441E-1,-6.220353395E-2
3.600860375E0,1.908517480E-1,-3.875852525E-1,-5.633922666E-2
3.602860375E0,1.674294323E-1,-4.067489803E-1,-5.155702680E-2
3.604860375E0,1.402895600E-1,-4.275183976E-1,-4.836307466E-2
3.607440063E0,1.099382862E-1,-4.482703507E-1,-4.569271952E-2
3.609338500E0,7.585200667E-2,-4.685161710E-1,-4.303981736E-2
3.610858813E0,4.071853310E-2,-4.892681539E-1,-4.143411666E-2
3.612860375E0,5.061454605E-3,-5.084318519E-1,-4.036946595E-2
3.614860375E0,-3.057816811E-2,-5.259898901E-1,-4.036946595E-2
3.616860375E0,-6.571164727E-2,-5.435478687E-1,-4.091051593E-2
3.618860375E0,-1.003215238E-1,-5.605997443E-1,-4.143411666E-2
3.620860375E0,-1.338492930E-1,-5.749638081E-1,-4.356341809E-2
3.622860375E0,-1.668534726E-1,-5.882806778E-1,-4.462806880E-2
3.624860375E0,-1.993340552E-1,-5.989271998E-1,-4.729842395E-2
3.627443188E0,-2.291442752E-1,-6.069033146E-1,-4.836307466E-2
3.628883813E0,-2.583959997E-1,-6.111444831E-1,-5.049237609E-2
3.630861938E0,-2.855533063E-1,-6.138148308E-1,-5.262167752E-2
3.632858813E0,-3.121695817E-1,-6.148794889E-1,-5.527457595E-2
3.634858813E0,-3.366565704E-1,-6.143559217E-1,-5.794493109E-2
3.636858813E0,-3.616845906E-1,-6.143559217E-1,-6.113888323E-2
3.638858813E0,-3.856479526E-1,-6.148969531E-1,-6.379178166E-2
3.640860375E0,-4.095938802E-1,-6.159441471E-1,-6.698573381E-2
3.642858813E0,-4.324751198E-1,-6.175498366E-1,-6.965608895E-2
3.644858813E0,-4.558974504E-1,-6.180734634E-1,-7.285004109E-2
3.647441625E0,-4.782551229E-1,-6.180734634E-1,-7.656759769E-2
3.648883813E0,-4.985009432E-1,-6.154205203E-1,-8.030259609E-2
3.650858813E0,-5.171235800E-1,-6.106383204E-1,-8.349654824E-2
3.652858813E0,-5.336344242E-1,-6.053150892E-1,-8.775515109E-2
3.654858813E0,-5.490631461E-1,-6.015800834E-1,-9.094911069E-2
3.656858813E0,-5.634446144E-1,-6.005154252E-1,-9.360200912E-2
3.658860375E0,-5.762204528E-1,-6.026447415E-1,-9.573131055E-2
3.660860375E0,-5.868669748E-1,-6.085090637E-1,-9.840166569E-2
3.662860375E0,-5.964313745E-1,-6.175498366E-1,-9.892526269E-2
3.664860375E0,-6.049660444E-1,-6.292610168E-1,-9.840166569E-2
3.667493188E0,-6.124185920E-1,-6.425778866E-1,-9.679596126E-2
3.668896313E0,-6.198711395E-1,-6.558772922E-1,-9.679596126E-2
3.670858813E0,-6.278473139E-1,-6.675884128E-1,-9.733701497E-2
3.672860375E0,-6.374291182E-1,-6.782349348E-1,-9.786061198E-2
3.674858813E0,-6.480756402E-1,-6.867521405E-1,-9.946631640E-2
3.676868188E0,-6.624397039E-1,-6.942046881E-1,-1.010545641E-1
3.678858813E0,-6.794741154E-1,-6.990043521E-1,-1.042485163E-1
3.680860375E0,-7.007671595E-1,-7.021808624E-1,-1.074424684E-1
3.682858813E0,-7.263187766E-1,-7.053748369E-1,-1.127657220E-1
3.684858813E0,-7.539997101E-1,-7.064394951E-1,-1.191536263E-1
3.687443188E0,-7.811395526E-1,-7.027218938E-1,-1.255415380E-1
3.689338500E0,-8.061676025E-1,-6.936636567E-1,-1.329940856E-1
3.691336938E0,-8.253312707E-1,-6.803467870E-1,-1.399230510E-1
3.692858813E0,-8.413010836E-1,-6.643944979E-1,-1.473755985E-1
3.694860375E0,-8.540768623E-1,-6.468189955E-1,-1.542870998E-1
3.696860375E0,-8.626115322E-1,-6.292610168E-1,-1.622807086E-1
3.698860375E0,-8.684583902E-1,-6.106383204E-1,-1.713215262E-1
3.700860375E0,-8.716523051E-1,-5.930628777E-1,-1.830326766E-1
3.702860375E0,-8.700466156E-1,-5.813516974E-1,-1.974141896E-1
3.704860375E0,-8.657880425E-1,-5.792224407E-1,-2.144486010E-1
3.707441625E0,-8.583528996E-1,-5.856103301E-1,-2.325476706E-1
3.708882250E0,-8.471828103E-1,-5.994682312E-1,-2.522349954E-1
3.710858813E0,-8.328012824E-1,-6.207612753E-1,-2.724633515E-1
3.712858813E0,-8.136376143E-1,-6.457718015E-1,-2.916270494E-1
3.714858813E0,-7.896742225E-1,-6.734352708E-1,-3.092025220E-1
3.716858813E0,-7.587993145E-1,-7.048512101E-1,-3.225019276E-1
3.718858813E0,-7.210129499E-1,-7.373318076E-1,-3.326248527E-1
3.720860375E0,-6.762976050E-1,-7.708595395E-1,-3.411420584E-1
3.722860375E0,-6.518106461E-1,-7.884350419E-1,-3.437949419E-1
3.724860375E0,-5.985780954E-1,-8.209156394E-1,-3.475299478E-1
3.727441625E0,-5.118178129E-1,-8.635016680E-1,-3.469889164E-1
3.728882250E0,-4.537855983E-1,-8.869239688E-1,-3.432713449E-1
3.730858813E0,-4.250400364E-1,-8.965058327E-1,-3.406009972E-1
3.732858813E0,-3.675488830E-1,-9.098052382E-1,-3.342131078E-1
3.734860375E0,-3.121870458E-1,-9.140638113E-1,-3.267605305E-1
3.736860375E0,-2.605602145E-1,-9.092816114E-1,-3.182433248E-1
3.738858813E0,-2.121098638E-1,-8.975704908E-1,-3.086614907E-1
3.740860375E0,-1.663298756E-1,-8.789303303E-1,-2.996206582E-1
3.742858813E0,-1.242848933E-1,-8.571137190E-1,-2.900388241E-1
3.744858813E0,-8.703956753E-2,-8.342324495E-1,-2.815216184E-1
3.747441625E0,-4.071853310E-2,-8.012108207E-1,-2.698104382E-1
3.748883813E0,-2.740166895E-2,-7.911053896E-1,-2.650108039E-1
3.750858813E0,-2.373647876E-3,-7.740535140E-1,-2.549053431E-1
3.752860375E0,1.944296807E-2,-7.618187666E-1,-2.447824329E-1
3.754860375E0,4.232423380E-2,-7.511722445E-1,-2.336123139E-1
3.756860375E0,6.522295624E-2,-7.447843552E-1,-2.224247605E-1
3.758858813E0,9.023351967E-2,-7.410493493E-1,-2.107135952E-1
3.760860375E0,1.168497950E-1,-7.389200330E-1,-1.979377866E-1
3.762858813E0,1.456128210E-1,-7.373143435E-1,-1.830326766E-1
3.764858813E0,1.754055917E-1,-7.325321436E-1,-1.665393114E-1
3.767449438E0,2.227912843E-1,-7.208209634E-1,-1.388583928E-1
3.769197875E0,2.526015043E-1,-7.080451846E-1,-1.180889755E-1
3.770858813E0,2.675065994E-1,-7.000515461E-1,-1.074424684E-1
3.772868188E0,2.973168492E-1,-6.819524765E-1,-8.456119895E-2
3.774858813E0,3.249977529E-1,-6.606769562E-1,-6.166248396E-2
3.776858813E0,3.516140282E-1,-6.383192539E-1,-3.878121451E-2
3.778858813E0,3.771656454E-1,-6.148969531E-1,-1.535889693E-2
3.780858813E0,3.989822567E-1,-5.904099941E-1,7.522369269E-3
3.782858813E0,4.186870456E-1,-5.648583770E-1,2.881538495E-2
3.784858813E0,4.336096048E-1,-5.387656689E-1,4.956734926E-2
3.787441625E0,4.474500716E-1,-4.993736148E-1,7.778932154E-2
3.788883813E0,4.490382969E-1,-4.865978062E-1,8.630653471E-2
3.790858813E0,4.474326074E-1,-4.605051279E-1,1.022762954E-1
3.792858813E0,4.373096824E-1,-4.317770004E-1,1.161167547E-1
3.794858813E0,4.202752709E-1,-3.993138671E-1,1.278279126E-1
3.796860375E0,3.952472508E-1,-3.647040129E-1,1.368687153E-1
3.798858813E0,3.654544950E-1,-3.295530677E-1,1.437976807E-1
3.800860375E0,3.314031065E-1,-2.976135314E-1,1.475152224E-1
3.802858813E0,2.941228747E-1,-2.709972858E-1,1.475152224E-1
3.804858813E0,2.579247653E-1,-2.513099611E-1,1.443212777E-1
3.807440063E0,2.073451132E-1,-2.369458973E-1,1.336747706E-1
3.808885375E0,1.924400032E-1,-2.364048511E-1,1.283515096E-1
3.810858813E0,1.658237278E-1,-2.406634539E-1,1.182460561E-1
3.812860375E0,1.445481628E-1,-2.513099611E-1,1.081231460E-1
3.814860375E0,1.285784096E-1,-2.667386830E-1,9.960594028E-2
3.816860375E0,1.179144457E-1,-2.843141258E-1,9.269443899E-2
3.818860375E0,1.120675877E-1,-3.024131954E-1,8.789478242E-2
3.820860375E0,1.110203937E-1,-3.189065456E-1,8.683013171E-2
3.822860375E0,1.120675877E-1,-3.316823840E-1,8.683013171E-2
3.824860375E0,1.131322384E-1,-3.412816823E-1,8.683013171E-2
3.827441625E0,1.136732921E-1,-3.519107401E-1,8.737118542E-2
3.828882250E0,1.126086414E-1,-3.545810878E-1,8.683013171E-2
3.830860375E0,1.072853878E-1,-3.609515429E-1,8.363617957E-2
3.832860375E0,1.014210805E-1,-3.694862127E-1,7.778932154E-2
3.834860375E0,9.290387481E-2,-3.780034184E-1,6.714281440E-2
3.836858813E0,8.171631396E-2,-3.870616555E-1,5.436700583E-2
3.838860375E0,6.735225767E-2,-3.971671164E-1,3.892084211E-2
3.840860375E0,4.820599407E-2,-4.067489803E-1,2.029817924E-2
3.842860375E0,2.424262278E-2,-4.179190993E-1,-4.537856148E-4
3.844858813E0,-7.679448463E-3,-4.301713109E-1,-2.120575123E-2
3.847440063E0,-6.677629799E-2,-4.482703507E-1,-5.101597309E-2
3.849338500E0,-1.125562862E-1,-4.615872204E-1,-6.911503524E-2
3.850858813E0,-1.365196556E-1,-4.701044261E-1,-7.763224840E-2
3.852876000E0,-1.817585826E-1,-4.876624346E-1,-9.253735840E-2
3.854860375E0,-2.259328663E-1,-5.094790459E-1,-1.058542207E-1
3.856860375E0,-2.690599561E-1,-5.334424376E-1,-1.165007278E-1
3.858683813E0,-3.105813265E-1,-5.579293966E-1,-1.271472424E-1
3.860866625E0,-3.521027267E-1,-5.802870393E-1,-1.372526884E-1
3.862860375E0,-3.957534134E-1,-6.031857729E-1,-1.452462971E-1
3.864860375E0,-4.399276972E-1,-6.265906692E-1,-1.526988596E-1
3.867449438E0,-5.069832206E-1,-6.633123755E-1,-1.617396623E-1
3.868865063E0,-5.288172960E-1,-6.760882139E-1,-1.638689637E-1
3.870890063E0,-5.692566037E-1,-7.058984041E-1,-1.659982651E-1
3.872860375E0,-6.044074893E-1,-7.420965433E-1,-1.659982651E-1
3.874860375E0,-6.321058869E-1,-7.841590047E-1,-1.633453667E-1
3.876860375E0,-6.512870789E-1,-8.262388706E-1,-1.574810594E-1
3.878860375E0,-6.629807949E-1,-8.661545515E-1,-1.484402567E-1
3.880860375E0,-6.677629948E-1,-9.012705684E-1,-1.372526884E-1
3.882860375E0,-6.682865620E-1,-9.284104109E-1,-1.234122291E-1
3.884860375E0,-6.666983366E-1,-9.491798282E-1,-1.074424684E-1
3.887451000E0,-6.651100516E-1,-9.688846469E-1,-7.923794538E-2
3.888858813E0,-6.651100516E-1,-9.720785618E-1,-6.859143823E-2
3.890861938E0,-6.677629948E-1,-9.747315049E-1,-4.729842395E-2
3.892860375E0,-6.746919155E-1,-9.726021886E-1,-2.546435408E-2
3.894865063E0,-6.853384376E-1,-9.662317038E-1,-2.583087189E-3
3.896860375E0,-6.997025013E-1,-9.555677772E-1,1.923352852E-2
3.898860375E0,-7.156722546E-1,-9.422683716E-1,4.105014354E-2
3.900860375E0,-7.327066660E-1,-9.294750690E-1,6.234316155E-2
3.902871313E0,-7.508057356E-1,-9.204342961E-1,8.311257511E-2
3.904858813E0,-7.678401470E-1,-9.119170904E-1,1.054702476E-1
3.907440063E0,-7.918035388E-1,-9.050055742E-1,1.395390779E-1
3.908885375E0,-7.981914282E-1,-9.050055742E-1,1.512502283E-1
3.910872875E0,-8.082968593E-1,-9.081995487E-1,1.757372022E-1
3.912860375E0,-8.146848083E-1,-9.183049798E-1,2.002241760E-1
3.914860375E0,-8.200080395E-1,-9.332100749E-1,2.231054306E-1
3.916860375E0,-8.237255812E-1,-9.454448819E-1,2.438748628E-1
3.918869750E0,-8.290488720E-1,-9.566324353E-1,2.614328563E-1
3.920860375E0,-8.375834823E-1,-9.667553306E-1,2.768790424E-1
3.922860375E0,-8.482125401E-1,-9.752725363E-1,2.912431061E-1
3.924860375E0,-8.615294099E-1,-9.816429615E-1,3.061482012E-1
3.927483813E0,-8.860163689E-1,-9.885719419E-1,3.316998184E-1
3.929211938E0,-8.940100074E-1,-9.901776314E-1,3.412816823E-1
3.930886938E0,-9.105033875E-1,-9.901601672E-1,3.604454100E-1
3.932922875E0,-9.264731407E-1,-9.864426255E-1,3.801501691E-1
3.934858813E0,-9.408372045E-1,-9.805783033E-1,3.987728357E-1
3.936866625E0,-9.525483251E-1,-9.731432199E-1,4.158072472E-1
3.938860375E0,-9.610829949E-1,-9.630377889E-1,4.317770004E-1
3.940860375E0,-9.653416276E-1,-9.481326342E-1,4.472231567E-1
