"Time (s)","Gyroscope x (rad/s)","Gyroscope y (rad/s)","Gyroscope z (rad/s)"
5.519956300E-2,3.685455322E-1,-6.332550049E-1,2.114562988E-1
6.020444600E-2,3.749237061E-1,-6.779937744E-1,2.125244141E-1
6.520932900E-2,3.632202148E-1,-7.195434570E-1,2.093353271E-1
7.021421200E-2,3.482971191E-1,-7.483062744E-1,1.954803467E-1
7.521909500E-2,3.365783691E-1,-7.504272461E-1,1.731109619E-1
8.022397700E-2,3.280639648E-1,-7.270050049E-1,1.518096924E-1
8.519834300E-2,3.174133301E-1,-6.971740723E-1,1.262359619E-1
9.020322500E-2,2.960968018E-1,-6.726684570E-1,1.006774902E-1
9.520810800E-2,2.705383301E-1,-6.311187744E-1,6.765747070E-2
1.002129910E-1,2.588195801E-1,-5.618743896E-1,3.356933594E-2
1.052178740E-1,2.747955322E-1,-4.787902832E-1,1.438903809E-2
1.102227570E-1,2.897033691E-1,-3.893127441E-1,9.063720703E-3
1.152276390E-1,2.897033691E-1,-2.998199463E-1,2.670288086E-3
1.202020050E-1,2.758636475E-1,-2.231292725E-1,-7.980346680E-3
1.252068880E-1,2.673339844E-1,-1.762542725E-1,-6.912231445E-3
1.302117700E-1,2.705383301E-1,-1.826477051E-1,1.438903809E-2
1.352166530E-1,2.907714844E-1,-2.103424072E-1,4.101562500E-2
1.402215360E-1,3.248596191E-1,-2.518920898E-1,6.871032715E-2
1.452264190E-1,3.664093018E-1,-3.062133789E-1,9.428405762E-2
1.502007840E-1,4.122161865E-1,-3.648071289E-1,1.113281250E-1
1.552056670E-1,4.622802734E-1,-4.212646484E-1,1.134643555E-1
1.602105500E-1,4.803924561E-1,-4.606781006E-1,1.049346924E-1
1.652154320E-1,4.953002930E-1,-4.766540527E-1,9.854125977E-2
1.702203150E-1,5.219421387E-1,-4.894409180E-1,6.658935547E-2
1.751946800E-1,5.283355713E-1,-4.830474854E-1,1.971435547E-2
1.801995630E-1,4.857177734E-1,-4.905090332E-1,-2.076721191E-2
1.852044460E-1,4.217987061E-1,-5.128784180E-1,-4.632568359E-2
1.902093290E-1,3.493652344E-1,-5.320587158E-1,-6.231689453E-2
1.952142120E-1,2.854461670E-1,-5.054168701E-1,-7.722473145E-2
2.002190950E-1,2.172698975E-1,-4.404449463E-1,-9.001159668E-2
2.051934600E-1,1.629486084E-1,-3.498992920E-1,-8.680725098E-2
2.101983430E-1,1.363067627E-1,-2.540130615E-1,-6.869506836E-2
2.152032250E-1,1.405792236E-1,-1.528167725E-1,-3.887939453E-2
2.202081080E-1,1.618804932E-1,-5.162048340E-2,-5.844116211E-3
2.252129910E-1,1.799926758E-1,4.106140137E-2,2.717590332E-2
2.302178740E-1,1.927642822E-1,1.390686035E-1,5.166625977E-2
2.351922390E-1,1.991577148E-1,2.136383057E-1,6.977844238E-2
2.401971220E-1,2.012939453E-1,2.487792969E-1,7.617187500E-2
2.452020050E-1,1.981048584E-1,2.434539795E-1,7.510375977E-2
2.502068880E-1,1.927642822E-1,2.328033447E-1,6.977844238E-2
2.552117700E-1,1.831817627E-1,2.221527100E-1,6.658935547E-2
2.602166530E-1,1.703948975E-1,2.146911621E-1,5.166625977E-2
2.651910180E-1,1.565551758E-1,2.082977295E-1,2.717590332E-2
2.701959010E-1,1.405792236E-1,2.019195557E-1,-3.723144531E-3
2.752007840E-1,1.128692627E-1,1.827392578E-1,-3.355407715E-2
2.802056670E-1,6.494140625E-2,1.603698730E-1,-5.911254883E-2
2.852105500E-1,2.090454102E-3,1.582336426E-1,-7.296752930E-2
2.902154320E-1,-5.329895020E-2,1.838073730E-1,-7.402038574E-2
2.951897980E-1,-9.059143066E-2,2.178955078E-1,-5.697631836E-2
3.001946800E-1,-1.087036133E-1,2.360076904E-1,-2.928161621E-2
3.051995630E-1,-1.140289307E-1,2.360076904E-1,-5.187988281E-4
3.102044460E-1,-1.097717285E-1,2.168273926E-1,2.929687500E-2
3.152093290E-1,-9.165954590E-2,1.795349121E-1,6.233215332E-2
3.202142120E-1,-7.354736328E-2,1.465148926E-1,9.747314453E-2
3.251885770E-1,-6.289672852E-2,1.358642578E-1,1.411590576E-1
3.301934600E-1,-5.010986328E-2,1.390686035E-1,1.933593750E-1
3.351983430E-1,-2.453613281E-2,1.358642578E-1,2.562103271E-1
3.402032250E-1,1.487731934E-2,1.230773926E-1,3.190612793E-1
3.452081080E-1,4.896545410E-2,1.103057861E-1,3.733825684E-1
3.502129910E-1,7.878112793E-2,1.252136230E-1,4.234466553E-1
3.551873560E-1,1.000976562E-1,1.827392578E-1,4.777832031E-1
3.601922390E-1,1.171417236E-1,2.637023926E-1,5.267791748E-1
3.651971220E-1,1.256561279E-1,2.913970947E-1,5.683288574E-1
3.702020050E-1,1.459045410E-1,2.818145752E-1,6.152038574E-1
3.752068880E-1,1.863861084E-1,2.306823730E-1,6.641998291E-1
3.801812530E-1,2.332458496E-1,1.422576904E-1,7.174682617E-1
3.851861360E-1,2.790527344E-1,5.278015137E-2,7.739257812E-1
3.901910180E-1,3.056945801E-1,-1.556396484E-3,8.239898682E-1
3.951959010E-1,3.046264648E-1,-4.882812500E-4,8.612670898E-1
4.002007840E-1,2.865142822E-1,3.892517090E-2,8.847045898E-1
4.052056670E-1,2.620086670E-1,8.898925781E-2,8.985595703E-1
4.101800320E-1,2.428436279E-1,1.241455078E-1,9.081420898E-1
4.151849150E-1,2.289886475E-1,1.326751709E-1,9.219970703E-1
4.201897980E-1,2.151489258E-1,1.113586426E-1,9.443664551E-1
4.251946800E-1,1.895751953E-1,7.833862305E-2,9.699249268E-1
4.301995630E-1,1.522979736E-1,5.384826660E-2,1.004013062E0
4.352044460E-1,1.000976562E-1,5.490112305E-2,1.041305542E0
4.401788110E-1,3.724670410E-2,6.661987305E-2,1.074325562E0
4.451836940E-1,-2.667236328E-2,7.408142090E-2,1.105224609E0
4.501885770E-1,-9.698486328E-2,7.301330566E-2,1.131851196E0
4.551934600E-1,-1.800689697E-1,6.982421875E-2,1.152084351E0
4.601983430E-1,-2.759399414E-1,8.366394043E-2,1.161682129E0
4.652032250E-1,-3.867340088E-1,1.454467773E-1,1.162750244E0
4.701775910E-1,-5.166931152E-1,2.445220947E-1,1.162750244E0
4.751824730E-1,-6.636962891E-1,3.606414795E-1,1.164871216E0
4.801873560E-1,-8.288116455E-1,4.799499512E-1,1.171264648E0
4.851922390E-1,-1.012039185E0,6.013793945E-1,1.185119629E0
4.901971220E-1,-1.206985474E0,7.334747314E-1,1.207489014E0
4.952020050E-1,-1.409393311E0,9.017944336E-1,1.237319946E0
5.001763700E-1,-1.617111206E0,1.122299194E0,1.273529053E0
5.051812530E-1,-1.830169678E0,1.346008301E0,1.314010620E0
5.101861360E-1,-2.043212891E0,1.550537109E0,1.354492188E0
5.151910180E-1,-2.229644775E0,1.766784668E0,1.389648438E0
5.201959010E-1,-2.352142334E0,1.430160522E0,1.363006592E0
5.252007840E-1,-2.246688843E0,-1.975555420E-1,1.268203735E0
5.301751490E-1,-2.154006958E0,-1.966857910E-2,1.288452148E0
5.351800320E-1,-2.158264160E0,5.459899902E-1,1.356628418E0
5.401849150E-1,-2.239227295E0,1.358642578E-1,1.338516235E0
5.451897980E-1,-2.232833862E0,-7.791900635E-1,1.188308716E0
5.501946800E-1,-2.017654419E0,-1.009292603E0,9.923095703E-1
5.551995630E-1,-1.724700928E0,-1.049774170E0,8.175964355E-1
5.601739290E-1,-1.456253052E0,-1.408767700E0,7.227935791E-1
5.651788110E-1,-1.247467041E0,-2.133148193E0,7.110748291E-1
5.701836940E-1,-1.065307617E0,-2.938491821E0,7.174682617E-1
5.751885770E-1,-8.906097412E-1,-3.633041382E0,7.238616943E-1
5.801934600E-1,-7.169647217E-1,-4.101760864E0,7.281188965E-1
5.851678250E-1,-5.529174805E-1,-4.427734375E0,7.259826660E-1
5.901727080E-1,-4.048461914E-1,-4.761154175E0,7.185363770E-1
5.951775910E-1,-2.897949219E-1,-5.188323975E0,7.100067139E-1
6.001824730E-1,-1.971130371E-1,-5.664505005E0,7.004241943E-1
6.051873560E-1,-1.449127197E-1,-6.071426392E0,7.068176270E-1
6.101922390E-1,-1.150970459E-1,-6.118301392E0,7.217254639E-1
6.151666040E-1,-1.023101807E-1,-5.523880005E0,7.259826660E-1
6.201714870E-1,-1.204223633E-1,-4.150756836E0,7.142639160E-1
6.251763700E-1,-1.640930176E-1,-2.062835693E0,6.801757812E-1
6.301812530E-1,-2.141571045E-1,2.530517578E-1,6.471557617E-1
6.351861360E-1,-2.578430176E-1,2.110870361E0,6.226501465E-1
6.401910180E-1,-2.716827393E-1,3.086654663E0,5.970916748E-1
6.451653840E-1,-2.610321045E-1,3.260284424E0,5.789794922E-1
6.501702660E-1,-2.194824219E-1,2.944961548E0,5.587463379E-1
6.551751490E-1,-1.630249023E-1,2.444290161E0,5.363616943E-1
6.601800320E-1,-9.059143066E-2,2.030975342E0,5.033416748E-1
6.651849150E-1,-1.921081543E-2,1.883972168E0,4.628601074E-1
6.701897980E-1,4.896545410E-2,2.053344727E0,4.234466553E-1
6.751641630E-1,1.182098389E-1,2.446426392E0,3.968200684E-1
6.801690460E-1,1.821136475E-1,2.877853394E0,3.904266357E-1
6.851739290E-1,2.225952148E-1,3.009948730E0,3.755187988E-1
6.901788110E-1,2.002258301E-1,2.810745239E0,3.531494141E-1
6.951836940E-1,1.011657715E-1,2.645629883E0,3.478240967E-1
7.001885770E-1,-1.708984375E-2,2.555084229E0,3.510131836E-1
7.051629420E-1,-1.427917480E-1,2.430450439E0,3.083953857E-1
7.101678250E-1,-3.057708740E-1,2.217391968E0,2.199859619E-1
7.151727080E-1,-4.698181152E-1,1.912734985E0,1.166534424E-1
7.201775910E-1,-5.593109131E-1,1.549468994E0,1.652526855E-2
7.251824730E-1,-6.029815674E-1,1.138275146E0,-6.976318359E-2
7.301873560E-1,-6.551818848E-1,6.940612793E-1,-1.347503662E-1
7.351617210E-1,-7.254943848E-1,2.477264404E-1,-1.709594727E-1
7.401666040E-1,-8.128356934E-1,-1.656036377E-1,-1.773529053E-1
7.451714870E-1,-9.129791260E-1,-5.565490723E-1,-1.709594727E-1
7.501763700E-1,-1.014175415E0,-9.464416504E-1,-1.730957031E-1
7.551812530E-1,-1.106857300E0,-1.340591431E0,-2.199707031E-1
7.601861360E-1,-1.177154541E0,-1.746459961E0,-3.733673096E-1
7.651605010E-1,-1.215515137E0,-2.155517578E0,-5.406188965E-1
7.701653840E-1,-1.217636108E0,-2.836227417E0,-6.695098877E-1
7.751702660E-1,-1.163314819E0,-3.553146362E0,-8.058624268E-1
7.801751490E-1,-1.054656982E0,-4.165664673E0,-9.624633789E-1
7.851800320E-1,-8.863372803E-1,-4.620544434E0,-1.138229370E0
7.901543970E-1,-6.754150391E-1,-4.887924194E0,-1.299087524E0
7.951592800E-1,-4.442596436E-1,-4.602432251E0,-1.352340698E0
8.001641630E-1,-1.864624023E-1,-3.471115112E0,-1.250076294E0
8.051690460E-1,4.043579102E-2,-1.814636230E0,-1.006134033E0
8.101739290E-1,1.959686279E-1,-2.273864746E-1,-6.695098877E-1
8.151788110E-1,3.227386475E-1,8.613128662E-1,-3.382110596E-1
8.201531770E-1,4.239349365E-1,1.351333618E0,-9.213256836E-2
8.251580590E-1,4.516296387E-1,1.431228638E0,2.503967285E-2
8.301629420E-1,3.983612061E-1,1.291671753E0,2.503967285E-2
8.351678250E-1,2.982330322E-1,1.059448242E0,-4.953002930E-2
8.401727080E-1,1.831817627E-1,8.368072510E-1,-1.677703857E-1
8.451775910E-1,6.813049316E-2,6.706237793E-1,-3.073272705E-1
8.501519560E-1,-2.348327637E-2,5.886077881E-1,-4.500732422E-1
8.551568390E-1,-9.165954590E-2,5.896759033E-1,-5.704345703E-1
8.601617210E-1,-1.300048828E-1,6.791534424E-1,-6.524658203E-1
8.651666040E-1,-6.929016113E-2,4.575805664E-1,-7.440795898E-1
8.701714870E-1,1.618804932E-1,-2.273864746E-1,-8.857574463E-1
8.751763700E-1,3.674774170E-1,-4.329833984E-1,-1.005065918E0
8.801507350E-1,5.634765625E-1,-5.735931396E-1,-1.099884033E0
8.851556180E-1,7.477722168E-1,-8.249969482E-1,-1.182968140E0
8.901605010E-1,9.086303711E-1,-1.092376709E0,-1.259674072E0
8.951653840E-1,1.032196045E0,-1.238327026E0,-1.305480957E0
9.001702660E-1,1.092926025E0,-1.248977661E0,-1.378982544E0
9.051751490E-1,1.083328247E0,-1.211700439E0,-1.454605103E0
9.101495140E-1,9.927825928E-1,-1.089187622E0,-1.568588257E0
9.151543970E-1,8.628234863E-1,-9.506988525E-1,-1.670852661E0
9.201592800E-1,7.488403320E-1,-8.963775635E-1,-1.749694824E0
9.251641630E-1,6.550903320E-1,-8.590850830E-1,-1.809341431E0
9.301690460E-1,5.688018799E-1,-8.282012939E-1,-1.842361450E0
9.351739290E-1,4.665374756E-1,-8.132781982E-1,-1.841308594E0
9.401482940E-1,3.333892822E-1,-8.111572266E-1,-1.792297363E0
9.451531770E-1,1.703948975E-1,-8.058319092E-1,-1.708145142E0
9.501580590E-1,-1.815795898E-2,-7.291259766E-1,-1.600555420E0
9.551629420E-1,-1.843261719E-1,-5.224609375E-1,-1.484436035E0
9.601678250E-1,-3.238830566E-1,-2.284545898E-1,-1.356613159E0
9.651727080E-1,-4.240112305E-1,1.081695557E-1,-1.231964111E0
9.701470730E-1,-5.145721436E-1,4.085693359E-1,-1.108398438E0
9.751519560E-1,-6.029815674E-1,6.738281250E-1,-9.784393311E-1
9.801568390E-1,-7.020568848E-1,9.049835205E-1,-8.324890137E-1
9.851617210E-1,-8.234863281E-1,1.103134155E0,-6.599273682E-1
9.901666040E-1,-9.726257324E-1,1.284225464E0,-4.564514160E-1
9.951714870E-1,-1.135620117E0,1.446136475E0,-2.071838379E-1
1.000145852E0,-1.286880493E0,1.582489014E0,1.049346924E-1
1.005150735E0,-1.424301147E0,1.663452148E0,4.213256836E-1
1.010155618E0,-1.536148071E0,1.692214966E0,6.769866943E-1
1.015160501E0,-1.604324341E0,1.675170898E0,8.793792725E-1
1.020165384E0,-1.612854004E0,1.606994629E0,1.048767090E0
1.025139749E0,-1.558517456E0,1.495147705E0,1.201095581E0
1.030144632E0,-1.426437378E0,1.434417725E0,1.350234985E0
1.035149514E0,-1.209121704E0,1.381164551E0,1.464218140E0
1.040154397E0,-9.662322998E-1,1.160644531E0,1.530258179E0
1.045159280E0,-7.446594238E-1,8.261566162E-1,1.564346313E0
1.050164163E0,-5.475921631E-1,5.598449707E-1,1.562225342E0
1.055138528E0,-3.611602783E-1,4.671630859E-1,1.534515381E0
1.060143411E0,-1.971130371E-1,4.597015381E-1,1.489776611E0
1.065148294E0,-7.354736328E-2,4.394683838E-1,1.445037842E0
1.070153177E0,-2.166748047E-3,4.021759033E-1,1.406692505E0
1.075158059E0,1.487731934E-2,3.979187012E-1,1.380065918E0
1.080162942E0,-1.815795898E-2,4.543762207E-1,1.382186890E0
1.085137307E0,-8.845520020E-2,5.651702881E-1,1.398162842E0
1.090142190E0,-1.715545654E-1,6.951293945E-1,1.419479370E0
1.095147073E0,-2.471771240E-1,8.016510010E-1,1.437576294E0
1.100151956E0,-3.047027588E-1,8.772888184E-1,1.450363159E0
1.105156839E0,-3.441162109E-1,9.582519531E-1,1.465286255E0
1.110161721E0,-3.664855957E-1,1.039215088E0,1.471664429E0
1.115136087E0,-3.686218262E-1,1.086074829E0,1.458892822E0
1.120140970E0,-3.558349609E-1,1.089279175E0,1.429061890E0
1.125145852E0,-3.377380371E-1,1.064773560E0,1.391769409E0
1.130150735E0,-3.238830566E-1,1.032821655E0,1.357681274E0
1.135155618E0,-3.206939697E-1,1.030685425E0,1.327865601E0
1.140160501E0,-3.143005371E-1,1.080749512E0,1.276733398E0
1.145134866E0,-2.940521240E-1,1.167037964E0,1.182983398E0
1.150139749E0,-2.621002197E-1,1.223495483E0,1.057281494E0
1.155144632E0,-2.248077393E-1,1.243743896E0,9.177398682E-1
1.160149514E0,-1.885986328E-1,1.239486694E0,7.643280029E-1
1.165154397E0,-1.576995850E-1,1.213912964E0,5.885620117E-1
1.170159280E0,-1.470489502E-1,1.169174194E0,4.127960205E-1
1.175133645E0,-1.704864502E-1,1.172363281E0,2.657928467E-1
1.180138528E0,-2.269439697E-1,1.228820801E0,1.443481445E-1
1.185143411E0,-2.993774414E-1,1.343872070E0,7.298278809E-2
1.190148294E0,-3.707580566E-1,1.491943359E0,6.019592285E-2
1.195153177E0,-4.463806152E-1,1.650665283E0,7.830810547E-2
1.200158059E0,-5.379943848E-1,1.789154053E0,1.134643555E-1
1.205132425E0,-6.445312500E-1,1.908462524E0,1.656494141E-1
1.210137307E0,-7.638397217E-1,2.018188477E0,2.317047119E-1
1.215142190E0,-8.767547607E-1,2.101272583E0,2.956237793E-1
1.220147073E0,-9.726257324E-1,2.119384766E0,3.371582031E-1
1.225151956E0,-1.030151367E0,2.008605957E0,3.243865967E-1
1.230126321E0,-1.034408569E0,1.853073120E0,2.636566162E-1
1.235131204E0,-1.004592896E0,1.768920898E0,1.699218750E-1
1.240136087E0,-9.758300781E-1,1.722045898E0,7.298278809E-2
1.245140970E0,-9.651641846E-1,1.642150879E0,-1.586914062E-3
1.250145852E0,-9.619750977E-1,1.497268677E0,-4.206848145E-2
1.255150735E0,-9.555816650E-1,1.309783936E0,-5.485534668E-2
1.260125100E0,-9.396057129E-1,1.108459473E0,-4.420471191E-2
1.265129983E0,-9.183044434E-1,9.060516357E-1,-1.330566406E-2
1.270134866E0,-8.916625977E-1,6.961975098E-1,3.356933594E-2
1.275139749E0,-8.618469238E-1,4.842071533E-1,9.002685547E-2
1.280144632E0,-8.298797607E-1,2.743530273E-1,1.518096924E-1
1.285149514E0,-7.936706543E-1,6.661987305E-2,2.114562988E-1
1.290123880E0,-7.467956543E-1,-1.805114746E-1,2.753753662E-1
1.295128763E0,-6.722259521E-1,-4.393768311E-1,3.446197510E-1
1.300133645E0,-5.603637695E-1,-6.257934570E-1,4.032135010E-1
1.305138528E0,-4.357299805E-1,-7.483062744E-1,4.298400879E-1
1.310143411E0,-3.206939697E-1,-8.984985352E-1,4.351654053E-1
1.315148294E0,-2.173614502E-1,-1.127532959E0,4.468841553E-1
1.320122659E0,-1.140289307E-1,-1.407699585E0,4.841766357E-1
1.325127542E0,-8.560180664E-3,-1.699584961E0,5.406341553E-1
1.330132425E0,8.624267578E-2,-1.988265991E0,6.130676270E-1
1.335137307E0,1.661376953E-1,-2.259918213E0,6.972198486E-1
1.340142190E0,2.151489258E-1,-2.491073608E0,7.888336182E-1
1.345147073E0,2.247314453E-1,-2.652999878E0,8.783111572E-1
1.350121438E0,1.874389648E-1,-2.721176147E0,9.571533203E-1
1.355126321E0,1.054229736E-1,-2.687088013E0,1.013610840E0
1.360131204E0,-8.560180664E-3,-2.569900513E0,1.045562744E0
1.365136087E0,-1.331939697E-1,-2.407989502E0,1.058349609E0
1.370140970E0,-2.493133545E-1,-2.242874146E0,1.055145264E0
1.375145852E0,-3.387908936E-1,-2.095855713E0,1.042373657E0
1.380120218E0,-3.941955566E-1,-1.990402222E0,1.024261475E0
1.385125100E0,-4.389343262E-1,-1.947784424E0,9.944305420E-1
1.390129983E0,-4.644927979E-1,-1.944595337E0,9.731292725E-1
1.395134866E0,-4.570465088E-1,-1.966964722E0,9.645996094E-1
1.400139749E0,-4.336090088E-1,-1.988265991E0,9.496917725E-1
1.405144632E0,-4.080352783E-1,-1.980819702E0,9.209289551E-1
1.410118997E0,-3.963165283E-1,-1.960571289E0,8.708648682E-1
1.415123880E0,-3.920593262E-1,-1.935012817E0,8.133392334E-1
1.420128763E0,-3.707580566E-1,-1.908370972E0,7.440948486E-1
1.425133645E0,-3.164215088E-1,-1.887069702E0,6.578063965E-1
1.430138528E0,-2.514495850E-1,-1.886001587E0,5.406341553E-1
1.435143411E0,-1.917877197E-1,-1.924362183E0,3.946838379E-1
1.440117776E0,-1.118927002E-1,-1.989334106E0,2.593994141E-1
1.445122659E0,-1.069641113E-2,-2.090530396E0,1.390228271E-1
1.450127542E0,1.107482910E-1,-2.199188232E0,4.740905762E-2
1.455132425E0,2.460327148E-1,-2.288681030E0,-1.756286621E-2
1.460137307E0,3.749237061E-1,-2.350463867E0,-5.804443359E-2
1.465111673E0,4.814605713E-1,-2.374969482E0,-6.869506836E-2
1.470116555E0,5.538940430E-1,-2.353652954E0,-5.804443359E-2
1.475121438E0,5.869140625E-1,-2.290802002E0,-3.034973145E-2
1.480126321E0,5.805206299E-1,-2.201324463E0,6.927490234E-3
1.485131204E0,5.443115234E-1,-2.100128174E0,5.166625977E-2
1.490136087E0,4.867858887E-1,-2.010635376E0,1.006774902E-1
1.495110452E0,4.186096191E-1,-1.938201904E0,1.475524902E-1
1.500115335E0,3.472290039E-1,-1.873229980E0,1.922912598E-1
1.505120218E0,2.779846191E-1,-1.792266846E0,2.295684814E-1
1.510125100E0,2.108764648E-1,-1.682540894E0,2.530059814E-1
1.515129983E0,1.469573975E-1,-1.542984009E0,2.572631836E-1
1.520134866E0,8.731079102E-2,-1.371490479E0,2.444915771E-1
1.525109231E0,3.192138672E-2,-1.175476074E0,2.178497314E-1
1.530114114E0,-2.134704590E-2,-9.624176025E-1,1.752471924E-1
1.535118997E0,-7.780456543E-2,-7.344512939E-1,1.155853271E-1
1.540123880E0,-1.385192871E-1,-4.936981201E-1,4.208374023E-2
1.545128763E0,-2.024383545E-1,-2.412414551E-1,-2.928161621E-2
1.550133645E0,-2.706146240E-1,8.041381836E-3,-9.106445312E-2
1.555108011E0,-3.473205566E-1,2.487792969E-1,-1.251678467E-1
1.560112893E0,-4.346771240E-1,4.671630859E-1,-1.177062988E-1
1.565117776E0,-5.358734131E-1,6.386718750E-1,-6.231689453E-2
1.570122659E0,-6.498565674E-1,7.398681641E-1,4.847717285E-2
1.575127542E0,-7.766265869E-1,7.526550293E-1,2.029418945E-1
1.580132425E0,-9.172363281E-1,6.802215576E-1,3.893585205E-1
1.585106790E0,-1.069564819E0,5.481262207E-1,5.928344727E-1
1.590111673E0,-1.227233887E0,3.872680664E-1,7.973632812E-1
1.595116555E0,-1.381683350E0,2.168273926E-1,9.859161377E-1
1.600121438E0,-1.514846802E0,4.638671875E-2,1.141433716E0
1.605126321E0,-1.608596802E0,-1.038208008E-1,1.252227783E0
1.610131204E0,-1.650131226E0,-2.337799072E-1,1.315078735E0
1.615105569E0,-1.653335571E0,-3.435058594E-1,1.329986572E0
1.620110452E0,-1.618179321E0,-4.287261963E-1,1.309753418E0
1.625115335E0,-1.558517456E0,-4.692077637E-1,1.254364014E0
1.630120218E0,-1.483947754E0,-4.553527832E-1,1.174468994E0
1.635125100E0,-1.395538330E0,-3.797149658E-1,1.080718994E0
1.640129983E0,-1.294342041E0,-2.444305420E-1,9.869689941E-1
1.645104348E0,-1.197402954E0,-8.570861816E-2,9.038848877E-1
1.650109231E0,-1.113250732E0,6.982421875E-2,8.378448486E-1
1.655114114E0,-1.057846069E0,2.157592773E-1,7.867126465E-1
1.660118997E0,-1.029083252E0,3.670349121E-1,7.558135986E-1
1.665123880E0,-1.035476685E0,5.268249512E-1,7.419586182E-1
1.670128763E0,-1.070632935E0,6.855468750E-1,7.409057617E-1
1.675103128E0,-1.127090454E0,8.250885010E-1,7.462310791E-1
1.680108011E0,-1.189941406E0,9.273529053E-1,7.504882812E-1
1.685112893E0,-1.241073608E0,9.976654053E-1,7.536773682E-1
1.690117776E0,-1.273025513E0,1.038146973E0,7.579498291E-1
1.695122659E0,-1.292205811E0,1.042404175E0,7.707214355E-1
1.700097024E0,-1.304992676E0,1.006195068E0,7.930908203E-1
1.705101907E0,-1.319900513E0,9.263000488E-1,8.112030029E-1
1.710106790E0,-1.342269897E0,8.091125488E-1,8.133392334E-1
1.715111673E0,-1.376358032E0,6.642303467E-1,7.941589355E-1
1.720116555E0,-1.427490234E0,4.873962402E-1,7.558135986E-1
1.725121438E0,-1.489288330E0,2.977905273E-1,6.993560791E-1
1.730095804E0,-1.543609619E0,1.177520752E-1,6.269226074E-1
1.735100686E0,-1.583023071E0,-2.711486816E-2,5.502166748E-1
1.740105569E0,-1.597946167E0,-1.187286377E-1,4.767150879E-1
1.745110452E0,-1.589416504E0,-1.517486572E-1,4.181213379E-1
1.750115335E0,-1.556396484E0,-1.325836182E-1,3.808441162E-1
1.755120218E0,-1.503128052E0,-7.292175293E-2,3.627319336E-1
1.760094583E0,-1.428558350E0,1.869201660E-2,3.552703857E-1
1.765099466E0,-1.334823608E0,1.454467773E-1,3.478240967E-1
1.770104348E0,-1.229354858E0,2.892608643E-1,3.424835205E-1
1.775109231E0,-1.119628906E0,4.320068359E-1,3.371582031E-1
1.780114114E0,-1.012039185E0,5.513153076E-1,3.435516357E-1
1.785118997E0,-9.119110107E-1,6.354827881E-1,3.552703857E-1
1.790093362E0,-8.266906738E-1,6.802215576E-1,3.755187988E-1
1.795098245E0,-7.680969238E-1,6.748962402E-1,4.064025879E-1
1.800103128E0,-7.446594238E-1,6.248168945E-1,4.415588379E-1
1.805108011E0,-7.542419434E-1,5.257568359E-1,4.713897705E-1
1.810112893E0,-7.926025391E-1,3.894042969E-1,4.969482422E-1
1.815117776E0,-8.511810303E-1,2.360076904E-1,5.203857422E-1
1.820092141E0,-9.204254150E-1,9.112548828E-2,5.427551270E-1
1.825097024E0,-9.854125977E-1,-2.392578125E-2,5.725860596E-1
1.830101907E0,-1.042938232E0,-1.080780029E-1,6.162567139E-1
1.835106790E0,-1.078094482E0,-1.581420898E-1,6.748504639E-1
1.840111673E0,-1.084487915E0,-1.709289551E-1,7.355804443E-1
1.845116555E0,-1.057846069E0,-1.581420898E-1,7.920379639E-1
1.850090921E0,-9.981994629E-1,-1.283264160E-1,8.314514160E-1
1.855095804E0,-9.129791260E-1,-9.103393555E-2,8.399658203E-1
1.860100686E0,-8.117675781E-1,-5.268859863E-2,8.112030029E-1
1.865105569E0,-6.977844238E-1,-1.434326172E-2,7.430267334E-1
1.870110452E0,-5.784759521E-1,2.720642090E-2,6.375732422E-1
1.875115335E0,-4.517211914E-1,5.917358398E-2,5.065460205E-1
1.880089700E0,-3.217468262E-1,6.875610352E-2,3.563385010E-1
1.885094583E0,-1.960449219E-1,4.957580566E-2,1.965484619E-1
1.890099466E0,-7.994079590E-2,5.905151367E-3,4.101562500E-2
1.895104348E0,2.445983887E-2,-6.013488770E-2,-1.038513184E-1
1.900109231E0,1.118164062E-1,-1.538848877E-1,-2.263641357E-1
1.905083596E0,1.799926758E-1,-2.678680420E-1,-3.254241943E-1
1.910088479E0,2.289886475E-1,-3.946380615E-1,-4.010620117E-1
1.915093362E0,2.588195801E-1,-5.235290527E-1,-4.500732422E-1
1.920098245E0,2.726593018E-1,-6.439056396E-1,-4.820251465E-1
1.925103128E0,2.737274170E-1,-7.557525635E-1,-5.001373291E-1
1.930108011E0,2.662811279E-1,-8.526916504E-1,-5.129241943E-1
1.935082376E0,2.556152344E-1,-9.336547852E-1,-5.246276855E-1
1.940087259E0,2.460327148E-1,-1.001831055E0,-5.384826660E-1
1.945092141E0,2.321929932E-1,-1.059356689E0,-5.555267334E-1
1.950097024E0,2.119445801E-1,-1.109420776E0,-5.736389160E-1
1.955101907E0,1.853179932E-1,-1.152038574E0,-5.981445312E-1
1.960106790E0,1.512298584E-1,-1.180801392E0,-6.237030029E-1
1.965081155E0,1.128692627E-1,-1.185058594E0,-6.535339355E-1
1.970086038E0,7.240295410E-2,-1.165893555E0,-6.790924072E-1
1.975090921E0,2.764892578E-2,-1.121139526E0,-7.025299072E-1
1.980095804E0,-2.027893066E-2,-1.054031372E0,-7.174530029E-1
1.985100686E0,-6.608581543E-2,-9.656219482E-1,-7.291717529E-1
1.990105569E0,-1.044311523E-1,-8.601531982E-1,-7.419433594E-1
1.995079934E0,-1.342620850E-1,-7.578887939E-1,-7.515411377E-1
2.000084817E0,-1.555633545E-1,-6.620178223E-1,-7.557983398E-1
2.005089700E0,-1.736755371E-1,-5.757293701E-1,-7.525939941E-1
2.010094583E0,-1.928558350E-1,-4.947662354E-1,-7.366180420E-1
2.015099466E0,-2.088317871E-1,-4.148712158E-1,-7.099914551E-1
2.020104348E0,-2.248077393E-1,-3.424377441E-1,-6.790924072E-1
2.025078714E0,-2.344055176E-1,-2.795867920E-1,-6.450042725E-1
2.030083596E0,-2.450561523E-1,-2.209930420E-1,-6.077270508E-1
2.035088479E0,-2.599639893E-1,-1.506958008E-1,-5.800323486E-1
2.040093362E0,-2.834014893E-1,-6.759643555E-2,-5.683135986E-1
2.045098245E0,-3.110961914E-1,3.041076660E-2,-5.832214355E-1
2.050103128E0,-3.398590088E-1,1.390686035E-1,-6.215667725E-1
2.055077493E0,-3.643646240E-1,2.434539795E-1,-6.833648682E-1
2.060082376E0,-3.888702393E-1,3.361358643E-1,-7.579345703E-1
2.065087259E0,-4.101715088E-1,4.138946533E-1,-8.388824463E-1
2.070092141E0,-4.240112305E-1,4.820709229E-1,-9.145202637E-1
2.075097024E0,-4.272155762E-1,5.310821533E-1,-9.816284180E-1
2.080101907E0,-4.208221436E-1,5.534515381E-1,-1.029571533E0
2.085076272E0,-4.091033936E-1,5.428009033E-1,-1.061523438E0
2.090081155E0,-3.941955566E-1,5.087127686E-1,-1.075378418E0
2.095086038E0,-3.792724609E-1,4.607696533E-1,-1.077499390E0
2.100090921E0,-3.622283936E-1,3.979187012E-1,-1.068984985E0
2.105095804E0,-3.441162109E-1,3.244171143E-1,-1.051940918E0
2.110070169E0,-3.260192871E-1,2.317352295E-1,-1.028503418E0
2.115075052E0,-3.089752197E-1,1.230773926E-1,-1.006134033E0
2.120079934E0,-3.025817871E-1,-9.002685547E-3,-9.880218506E-1
2.125084817E0,-3.164215088E-1,-1.485595703E-1,-9.741821289E-1
2.130089700E0,-3.366699219E-1,-2.774505615E-1,-9.837646484E-1
2.135094583E0,-3.579711914E-1,-3.797149658E-1,-1.016784668E0
2.140068948E0,-3.664855957E-1,-4.425659180E-1,-1.078567505E0
2.145073831E0,-3.547821045E-1,-4.819793701E-1,-1.159530640E0
2.150078714E0,-3.228149414E-1,-4.915771484E-1,-1.254333496E0
2.155083596E0,-2.652893066E-1,-4.649353027E-1,-1.355545044E0
2.160088479E0,-1.928558350E-1,-4.255218506E-1,-1.451416016E0
2.165093362E0,-1.182861328E-1,-3.829193115E-1,-1.548355103E0
2.170067727E0,-4.797363281E-2,-3.435058594E-1,-1.646362305E0
2.175072610E0,9.552001953E-3,-3.051605225E-1,-1.743301392E0
2.180077493E0,4.682922363E-2,-2.763977051E-1,-1.824264526E0
2.185082376E0,5.322265625E-2,-2.678680420E-1,-1.887115479E0
2.190087259E0,3.297424316E-2,-2.710571289E-1,-1.930786133E0
2.195092141E0,-1.388549805E-2,-2.721252441E-1,-1.965942383E0
2.200066507E0,-7.461547852E-2,-2.742614746E-1,-1.996826172E0
2.205071389E0,-1.470489502E-1,-2.944946289E-1,-2.017074585E0
2.210076272E0,-2.312011719E-1,-3.371124268E-1,-2.027725220E0
2.215081155E0,-3.270721436E-1,-3.903808594E-1,-2.037307739E0
2.220086038E0,-4.176330566E-1,-4.553527832E-1,-2.025588989E0
2.225090921E0,-5.092315674E-1,-5.064849854E-1,-2.006423950E0
2.230065286E0,-6.029815674E-1,-4.958343506E-1,-2.024520874E0
2.235070169E0,-6.690216064E-1,-4.447021484E-1,-2.061813354E0
2.240075052E0,-7.095031738E-1,-3.903808594E-1,-2.095901489E0
2.245079934E0,-7.531890869E-1,-3.200683594E-1,-2.123596191E0
2.250084817E0,-8.128356934E-1,-2.348480225E-1,-2.141708374E0
2.255089700E0,-8.756866455E-1,-1.443023682E-1,-2.144897461E0
2.260064065E0,-9.310760498E-1,-6.333923340E-2,-2.119338989E0
2.265068948E0,-9.918060303E-1,4.531860352E-2,-2.070327759E0
2.270073831E0,-1.059982300E0,2.232208252E-1,-2.050094604E0
2.275078714E0,-1.086608887E0,3.819427490E-1,-2.082046509E0
2.280083596E0,-1.087677002E0,4.810180664E-1,-2.147033691E0
2.285088479E0,-1.166503906E0,5.704956055E-1,-2.181121826E0
2.290062845E0,-1.287948608E0,6.759490967E-1,-2.132125854E0
2.295067727E0,-1.404067993E0,7.792816162E-1,-2.069274902E0
2.300072610E0,-1.532958984E0,8.581085205E-1,-2.035186768E0
2.305077493E0,-1.673568726E0,9.220275879E-1,-2.011749268E0
2.310082376E0,-1.795013428E0,9.763641357E-1,-1.974456787E0
2.315087259E0,-1.872772217E0,1.002990723E0,-1.911605835E0
2.320061624E0,-1.899414062E0,9.657135010E-1,-1.833847046E0
2.325066507E0,-1.880233765E0,8.687744141E-1,-1.759277344E0
2.330071389E0,-1.839752197E0,7.334747314E-1,-1.706008911E0
2.335076272E0,-1.798202515E0,5.981903076E-1,-1.674057007E0
2.340081155E0,-1.772644043E0,4.810180664E-1,-1.648483276E0
2.345055520E0,-1.775833130E0,3.595733643E-1,-1.606948853E0
2.350060403E0,-1.834426880E0,1.710205078E-1,-1.532379150E0
2.355065286E0,-1.989959717E0,-1.400299072E-1,-1.425842285E0
2.360070169E0,-2.240295410E0,-3.914337158E-1,-1.335296631E0
2.365075052E0,-2.539627075E0,-4.734649658E-1,-1.273513794E0
2.370079934E0,-2.810211182E0,-4.468383789E-1,-1.226638794E0
2.375054300E0,-2.990234375E0,-4.063568115E-1,-1.187225342E0
2.380059182E0,-3.060546875E0,-3.701324463E-1,-1.149948120E0
2.385064065E0,-3.032852173E0,-2.636108398E-1,-1.106262207E0
2.390068948E0,-2.936981201E0,-6.120300293E-2,-1.058334351E0
2.395073831E0,-2.770797729E0,1.635589600E-1,-1.002944946E0
2.400078714E0,-2.586502075E0,3.265533447E-1,-9.294281006E-1
2.405053079E0,-2.364929199E0,3.861999512E-1,-7.824249268E-1
2.410057962E0,-2.095413208E0,3.808746338E-1,-5.778961182E-1
2.415062845E0,-1.738555908E0,3.041839600E-1,-3.243713379E-1
2.420067727E0,-1.325225830E0,1.582336426E-1,-5.378723145E-2
2.425072610E0,-9.566497803E-1,3.999328613E-2,1.752471924E-1
2.430077493E0,-6.775512695E-1,5.064392090E-2,3.137359619E-1
2.435051858E0,-4.953918457E-1,1.678314209E-1,3.797760010E-1
2.440056741E0,-3.941955566E-1,3.159027100E-1,4.032135010E-1
2.445061624E0,-3.515777588E-1,4.394683838E-1,4.000091553E-1
2.450066507E0,-3.292083740E-1,5.630340576E-1,3.904266357E-1
2.455071389E0,-3.132324219E-1,6.770172119E-1,3.648681641E-1
2.460076272E0,-3.047027588E-1,7.675628662E-1,3.062744141E-1
2.465050638E0,-3.047027588E-1,8.570556641E-1,2.338409424E-1
2.470055520E0,-3.068389893E-1,9.188385010E-1,1.795043945E-1
2.475060403E0,-3.089752197E-1,9.465332031E-1,1.358337402E-1
2.480065286E0,-3.057708740E-1,9.859466553E-1,1.038665771E-1
2.485070169E0,-2.887268066E-1,1.033889771E0,8.789062500E-2
2.490044534E0,-2.525024414E-1,1.086074829E0,8.363342285E-2
2.495049417E0,-2.013702393E-1,1.153198242E0,8.789062500E-2
2.500054300E0,-1.353302002E-1,1.227767944E0,1.006774902E-1
2.505059182E0,-6.076049805E-2,1.294876099E0,1.230468750E-1
2.510064065E0,8.483886719E-3,1.384353638E0,1.464843750E-1
2.515068948E0,6.600952148E-2,1.522842407E0,1.635284424E-1
2.520073831E0,1.160736084E-1,1.694351196E0,1.677856445E-1
2.525048196E0,1.650695801E-1,1.846679688E0,1.539459229E-1
2.530053079E0,2.279205322E-1,1.910598755E0,1.305084229E-1
2.535057962E0,3.046264648E-1,1.899948120E0,1.006774902E-1
2.540062845E0,3.749237061E-1,1.846679688E0,7.723999023E-2
2.545067727E0,4.260711670E-1,1.760391235E0,6.445312500E-2
2.550072610E0,4.782562256E-1,1.582489014E0,7.617187500E-2
2.555046975E0,5.315246582E-1,1.363052368E0,9.960937500E-2
2.560051858E0,5.325927734E-1,1.218170166E0,1.102600098E-1
2.565056741E0,4.878540039E-1,1.104187012E0,1.145172119E-1
2.570061624E0,4.111480713E-1,9.848785400E-1,1.241149902E-1
2.575066507E0,3.216705322E-1,8.304138184E-1,1.443481445E-1
2.580040872E0,2.257995605E-1,6.226959229E-1,1.741790771E-1
2.585045755E0,1.256561279E-1,3.883361816E-1,2.104034424E-1
2.590050638E0,3.724670410E-2,1.443939209E-1,2.508850098E-1
2.595055520E0,-3.625488281E-2,-1.080780029E-1,2.988128662E-1
2.600060403E0,-8.738708496E-2,-3.829193115E-1,3.424835205E-1
2.605065286E0,-9.059143066E-2,-7.216644287E-1,3.574066162E-1
2.610039651E0,-1.602172852E-2,-1.179733276E0,3.350372314E-1
2.615044534E0,1.469573975E-1,-1.656967163E0,2.934875488E-1
2.620049417E0,3.706665039E-1,-1.941406250E0,2.785797119E-1
2.625054300E0,6.242065430E-1,-2.085205078E0,2.998809814E-1
2.630059182E0,8.958435059E-1,-2.198135376E0,3.392944336E-1
2.635064065E0,1.187728882E0,-2.313171387E0,3.755187988E-1
2.640038430E0,1.487060547E0,-2.399459839E0,3.861694336E-1
2.645043313E0,1.793869019E0,-2.494277954E0,3.595275879E-1
2.650048196E0,2.087875366E0,-2.650863647E0,2.530059814E-1
2.655053079E0,2.350997925E0,-2.847946167E0,8.789062500E-2
2.660057962E0,2.607727051E0,-3.055664062E0,-9.106445312E-2
2.665062845E0,2.803741455E0,-3.169647217E0,-2.647094727E-1
2.670037210E0,2.880432129E0,-3.155807495E0,-4.330291748E-1
2.675042093E0,2.768585205E0,-2.866043091E0,-5.853576660E-1
2.680046975E0,2.128356934E0,-1.772018433E0,-6.109161377E-1
2.685051858E0,1.232467651E0,-8.377838135E-1,-5.747070312E-1
2.690056741E0,4.228668213E-1,-7.727966309E-1,-4.649810791E-1
2.695061624E0,-2.844696045E-1,-1.255371094E0,-2.199707031E-1
2.700035989E0,-8.863372803E-1,-1.805038452E0,1.049346924E-1
2.705040872E0,-1.353988647E0,-2.208786011E0,4.383697510E-1
2.710045755E0,-1.655456543E0,-2.544342041E0,7.345123291E-1
2.715050638E0,-1.785430908E0,-2.836227417E0,9.678039551E-1
2.720055520E0,-1.757720947E0,-3.058868408E0,1.127593994E0
2.725060403E0,-1.636291504E0,-3.098281860E0,1.196838379E0
2.730034768E0,-1.467971802E0,-2.957656860E0,1.192565918E0
2.735039651E0,-1.258117676E0,-2.709457397E0,1.107345581E0
2.740044534E0,-9.491882324E-1,-2.348327637E0,9.241180420E-1
2.745049417E0,-5.102996826E-1,-2.044723511E0,6.705932617E-1
2.750054300E0,-1.495361328E-2,-2.024490356E0,4.181213379E-1
2.755059182E0,4.622802734E-1,-2.079879761E0,2.231750488E-1
2.760033548E0,8.393859863E-1,-1.901977539E0,7.723999023E-2
2.765038430E0,1.016220093E0,-1.478012085E0,-1.651000977E-2
2.770043313E0,9.672241211E-1,-1.049774170E0,-5.697631836E-2
2.775048196E0,7.829284668E-1,-8.047637939E-1,-7.083129883E-2
2.780053079E0,5.464324951E-1,-7.259368896E-1,-7.083129883E-2
2.785027444E0,2.811889648E-1,-6.566925049E-1,-4.313659668E-2
2.790032327E0,3.085327148E-2,-5.757293701E-1,2.397155762E-2
2.795037210E0,-1.566314697E-1,-5.256652832E-1,1.230468750E-1
2.800042093E0,-2.748870850E-1,-4.969024658E-1,2.327728271E-1
2.805046975E0,-3.409271240E-1,-4.670715332E-1,3.147888184E-1
2.810051858E0,-3.771514893E-1,-4.180755615E-1,3.510131836E-1
2.815026223E0,-3.973846436E-1,-3.328552246E-1,3.424835205E-1
2.820031106E0,-3.973846436E-1,-2.401733398E-1,2.956237793E-1
2.825035989E0,-3.760833740E-1,-1.698608398E-1,2.295684814E-1
2.830040872E0,-3.366699219E-1,-1.613464355E-1,1.688537598E-1
2.835045755E0,-2.940521240E-1,-2.391052246E-1,1.262359619E-1
2.840050638E0,-2.642211914E-1,-3.690643311E-1,1.187896729E-1
2.845025003E0,-2.599639893E-1,-5.309906006E-1,1.496734619E-1
2.850029886E0,-2.951202393E-1,-7.142181396E-1,2.210540771E-1
2.855034768E0,-3.558349609E-1,-9.325866699E-1,3.318328857E-1
2.860039651E0,-4.410552979E-1,-1.161621094E0,4.692535400E-1
2.865044534E0,-5.518493652E-1,-1.415161133E0,6.109313965E-1
2.870049417E0,-6.850128174E-1,-1.731536865E0,7.515563965E-1
2.875023782E0,-8.320159912E-1,-2.084152222E0,9.006958008E-1
2.880028665E0,-9.768829346E-1,-2.460189819E0,1.058349609E0
2.885033548E0,-1.123901367E0,-2.829833984E0,1.205352783E0
2.890038430E0,-1.264511108E0,-3.173904419E0,1.319335938E0
2.895043313E0,-1.390213013E0,-3.464721680E0,1.374725342E0
2.900048196E0,-1.499938965E0,-3.693756104E0,1.370468140E0
2.905022561E0,-1.592605591E0,-3.853546143E0,1.312942505E0
2.910027444E0,-1.661849976E0,-3.963272095E0,1.207489014E0
2.915032327E0,-1.720443726E0,-4.006942749E0,1.062606812E0
2.920037210E0,-1.760925293E0,-3.982452393E0,8.868408203E-1
2.925042093E0,-1.769439697E0,-3.916397095E0,6.982879639E-1
2.930046975E0,-1.714050293E0,-3.839706421E0,5.395660400E-1
2.935021341E0,-1.612854004E0,-3.758743286E0,4.138641357E-1
2.940026223E0,-1.511657715E0,-3.699081421E0,3.083953857E-1
2.945031106E0,-1.444534302E0,-3.673522949E0,2.178497314E-1
2.950035989E0,-1.383819580E0,-3.653274536E0,1.709899902E-1
2.955040872E0,-1.231491089E0,-3.490295410E0,2.274475098E-1
2.960045755E0,-1.016311646E0,-3.333694458E0,3.361053467E-1
2.965020120E0,-8.575744629E-1,-3.199478149E0,4.234466553E-1
2.970025003E0,-8.011169434E-1,-3.089752197E0,4.404907227E-1
2.975029886E0,-8.352050781E-1,-2.973648071E0,4.106750488E-1
2.980034768E0,-9.172363281E-1,-2.828765869E0,3.648681641E-1
2.985039651E0,-1.034408569E0,-2.665786743E0,3.179931641E-1
2.990044534E0,-1.197402954E0,-2.504928589E0,2.721862793E-1
2.995018899E0,-1.380630493E0,-2.351531982E0,2.530059814E-1
3.000023782E0,-1.544677734E0,-2.186416626E0,2.700500488E-1
3.005028665E0,-1.666122437E0,-2.041534424E0,3.030700684E-1
3.010033548E0,-1.757720947E0,-1.952056885E0,3.169250488E-1
3.015038430E0,-1.809921265E0,-1.855117798E0,3.329010010E-1
3.020012796E0,-1.822708130E0,-1.769897461E0,3.638000488E-1
3.025017679E0,-1.822708130E0,-1.786941528E0,3.787078857E-1
3.030022561E0,-1.826965332E0,-1.830612183E0,3.787078857E-1
3.035027444E0,-1.795013428E0,-1.776290894E0,4.160003662E-1
3.040032327E0,-1.740676880E0,-1.671890259E0,4.895019531E-1
3.045037210E0,-1.689544678E0,-1.554702759E0,5.704498291E-1
3.050011575E0,-1.662918091E0,-1.419418335E0,6.183929443E-1
3.055016458E0,-1.681030273E0,-1.287322998E0,6.109313965E-1
3.060021341E0,-1.727905273E0,-1.145645142E0,5.661926270E-1
3.065026223E0,-1.764114380E0,-9.901123047E-1,5.076141357E-1
3.070031106E0,-1.776901245E0,-8.420410156E-1,4.671325684E-1
3.075035989E0,-1.768386841E0,-7.078247070E-1,4.383697510E-1
3.080010354E0,-1.736419678E0,-6.172790527E-1,4.319763184E-1
3.085015237E0,-1.691680908E0,-5.714721680E-1,4.596710205E-1
3.090020120E0,-1.643737793E0,-5.629425049E-1,5.139923096E-1
3.095025003E0,-1.579833984E0,-5.469665527E-1,5.832366943E-1
3.100029886E0,-1.493545532E0,-4.926452637E-1,6.418304443E-1
3.105034768E0,-1.432815552E0,-5.863800049E-1,7.036132812E-1
3.110009134E0,-1.373168945E0,-6.865234375E-1,7.590026855E-1
3.115014016E0,-1.334823608E0,-7.387084961E-1,7.888336182E-1
3.120018899E0,-1.301788330E0,-7.461700439E-1,8.122711182E-1
3.125023782E0,-1.257049561E0,-7.142181396E-1,8.293151855E-1
3.130028665E0,-1.196334839E0,-6.460418701E-1,8.197326660E-1
3.135033548E0,-1.115371704E0,-5.437774658E-1,7.835083008E-1
3.140007913E0,-1.013107300E0,-4.308471680E-1,7.504882812E-1
3.145012796E0,-9.076538086E-1,-3.115386963E-1,7.334442139E-1
3.150017679E0,-8.128356934E-1,-1.879730225E-1,7.291870117E-1
3.155022561E0,-7.265472412E-1,-8.570861816E-2,7.334442139E-1
3.160027444E0,-6.509246826E-1,-1.007080078E-2,7.430267334E-1
3.165032327E0,-5.870056152E-1,6.768798828E-2,7.515563965E-1
3.170006692E0,-5.337371826E-1,1.539764404E-1,7.558135986E-1
3.175011575E0,-4.879302979E-1,2.615661621E-1,7.558135986E-1
3.180016458E0,-4.549102783E-1,3.808746338E-1,7.462310791E-1
3.185021341E0,-4.218902588E-1,5.012512207E-1,7.409057617E-1
3.190026223E0,-3.835296631E-1,6.109771729E-1,7.504882812E-1
3.195031106E0,-3.483886719E-1,6.983184814E-1,7.749938965E-1
3.200005471E0,-3.238830566E-1,7.547912598E-1,8.026885986E-1
3.205010354E0,-3.153533936E-1,7.771606445E-1,8.144073486E-1
3.210015237E0,-3.185577393E-1,7.643737793E-1,8.218536377E-1
3.215020120E0,-3.249511719E-1,7.515869141E-1,8.421020508E-1
3.220025003E0,-3.345336914E-1,7.473297119E-1,8.708648682E-1
3.225029886E0,-3.601074219E-1,7.356109619E-1,9.006958008E-1
3.230004251E0,-3.984527588E-1,7.270812988E-1,9.187927246E-1
3.235009134E0,-4.400024414E-1,7.302856445E-1,9.326477051E-1
3.240014016E0,-4.815368652E-1,7.345428467E-1,9.496917725E-1
3.245018899E0,-5.220184326E-1,7.409362793E-1,9.859161377E-1
3.250023782E0,-5.486602783E-1,7.345428467E-1,1.035980225E0
3.254998147E0,-5.454559326E-1,6.599731445E-1,1.088180542E0
3.260003030E0,-5.316162109E-1,5.065765381E-1,1.131851196E0
3.265007913E0,-4.975128174E-1,3.063049316E-1,1.159545898E0
3.270012796E0,-4.708862305E-1,6.768798828E-2,1.187240601E0
3.275017679E0,-4.463806152E-1,-1.901092529E-1,1.222396851E0
3.280022561E0,-3.920593262E-1,-4.052886963E-1,1.245834351E0
3.284996927E0,-3.068389893E-1,-5.437774658E-1,1.250091553E0
3.290001809E0,-1.949920654E-1,-6.119537354E-1,1.235183716E0
3.295006692E0,-6.929016113E-2,-6.098175049E-1,1.205352783E0
3.300011575E0,4.150390625E-2,-5.672149658E-1,1.149963379E0
3.305016458E0,1.086120605E-1,-5.277862549E-1,1.069000244E0
3.310021341E0,1.267242432E-1,-4.809265137E-1,9.805908203E-1
3.314995706E0,1.245880127E-1,-4.127502441E-1,8.953704834E-1
3.320000589E0,9.156799316E-2,-3.115386963E-1,8.112030029E-1
3.325005471E0,5.641174316E-2,-2.327117920E-1,7.387695312E-1
3.330010354E0,3.724670410E-2,-1.783905029E-1,6.823120117E-1
3.335015237E0,2.020263672E-2,-1.336517334E-1,6.215972900E-1
3.340020120E0,1.699829102E-2,-9.103393555E-2,5.640716553E-1
3.344994485E0,3.831481934E-2,-6.652832031E-2,5.214538574E-1
3.349999368E0,8.410644531E-2,-4.948425293E-2,5.033416748E-1
3.355004251E0,1.448364258E-1,-2.178955078E-2,5.054779053E-1
3.360009134E0,2.098083496E-1,1.869201660E-2,5.225219727E-1
3.365014016E0,2.854461670E-1,5.917358398E-2,5.597991943E-1
3.370018899E0,3.695983887E-1,7.194519043E-2,5.960235596E-1
3.374993264E0,4.676055908E-1,6.661987305E-2,6.407623291E-1
3.379998147E0,5.677490234E-1,9.326171875E-2,6.940307617E-1
3.385003030E0,6.614837646E-1,1.710205078E-1,7.568817139E-1
3.390007913E0,7.403106689E-1,2.679595947E-1,8.090820312E-1
3.395012796E0,8.010406494E-1,2.839355469E-1,8.335723877E-1
3.400017679E0,8.457794189E-1,1.294708252E-1,8.026885986E-1
3.404992044E0,8.724060059E-1,-1.410980225E-1,7.355804443E-1
3.409996927E0,8.809356689E-1,-3.296508789E-1,6.428985596E-1
3.415001809E0,8.937225342E-1,-3.797149658E-1,5.619354248E-1
3.420006692E0,8.958435059E-1,-3.200683594E-1,4.937591553E-1
3.425011575E0,8.915863037E-1,-2.593536377E-1,4.660644531E-1
3.430016458E0,8.851928711E-1,-2.273864746E-1,4.618072510E-1
3.434990823E0,8.787994385E-1,-1.783905029E-1,4.170532227E-1
3.439995706E0,8.617553711E-1,-1.434326172E-2,3.339691162E-1
3.445000589E0,8.787994385E-1,1.699523926E-1,2.647247314E-1
3.450005471E0,9.033050537E-1,3.702239990E-1,2.476806641E-1
3.455010354E0,9.139556885E-1,5.438690186E-1,2.455444336E-1
3.460015237E0,9.437866211E-1,6.461334229E-1,2.221221924E-1
3.464989602E0,9.927825928E-1,6.898040771E-1,1.656494141E-1
3.469994485E0,1.025802612E0,7.121734619E-1,1.890869141E-1
3.474999368E0,1.035400391E0,6.674346924E-1,2.679290771E-1
3.480004251E0,1.060958862E0,4.937896729E-1,3.435516357E-1
3.485009134E0,1.104644775E0,2.754211426E-1,3.733825684E-1
3.489983499E0,1.157897949E0,1.369323730E-1,3.957519531E-1
3.494988382E0,1.210098267E0,6.982421875E-2,3.744506836E-1
3.499993264E0,1.255905151E0,-1.434326172E-2,3.094635010E-1
3.504998147E0,1.309173584E0,-6.866455078E-2,2.189178467E-1
3.510003030E0,1.333663940E0,-9.317016602E-2,1.166534424E-1
3.515007913E0,1.372024536E0,-4.203796387E-2,4.634094238E-2
3.519982278E0,1.427413940E0,-1.753234863E-2,1.652526855E-2
3.524987161E0,1.462570190E0,-1.860046387E-2,3.738403320E-3
3.529992044E0,1.444458008E0,4.425048828E-2,-2.822875977E-2
3.534996927E0,1.409301758E0,1.071014404E-1,-9.533691406E-2
3.540001809E0,1.366699219E0,1.550445557E-1,-9.640502930E-2
3.545006692E0,1.287857056E0,2.104339600E-1,1.119995117E-2
3.549981057E0,1.232467651E0,1.145629883E-1,1.656494141E-1
3.554985940E0,1.142990112E0,4.638671875E-2,3.723144531E-1
3.559990823E0,1.050308228E0,-1.283264160E-1,5.800476074E-1
3.564995706E0,9.661560059E-1,-3.349761963E-1,7.227935791E-1
3.570000589E0,8.809356689E-1,-5.320587158E-1,8.527526855E-1
3.575005471E0,8.021087646E-1,-7.078247070E-1,9.859161377E-1
3.579979837E0,7.285919189E-1,-8.431091309E-1,1.098831177E0
3.584984720E0,6.529693604E-1,-9.432525635E-1,1.201095581E0
3.589989602E0,5.847930908E-1,-1.003967285E0,1.243698120E0
3.594994485E0,5.006256104E-1,-1.063613892E0,1.319335938E0
3.599999368E0,4.356536865E-1,-1.070007324E0,1.386444092E0
3.605004251E0,3.419036865E-1,-1.006103516E0,1.378997803E0
3.609978616E0,2.449645996E-1,-9.986419678E-1,1.332122803E0
3.614983499E0,1.885070801E-1,-1.031661987E0,1.285247803E0
3.619988382E0,1.490936279E-1,-1.044448853E0,1.279922485E0
3.624993264E0,1.139373779E-1,-1.056167603E0,1.333190918E0
3.629998147E0,8.305358887E-2,-1.040191650E0,1.385391235E0
3.635003030E0,6.600952148E-2,-9.752044678E-1,1.432250977E0
3.639977395E0,6.494140625E-2,-8.793334961E-1,1.549438477E0
3.644982278E0,6.919860840E-2,-8.026275635E-1,1.612289429E0
3.649987161E0,2.978515625E-2,-7.568206787E-1,1.569671631E0
3.654992044E0,6.347656250E-3,-6.449737549E-1,1.510025024E0
3.659996927E0,1.380920410E-2,-4.936981201E-1,1.508956909E0
3.665001809E0,4.469299316E-2,-2.849121094E-1,1.563278198E0
3.669976175E0,5.108642578E-2,-4.629516602E-2,1.658096313E0
3.674981057E0,3.724670410E-2,5.917358398E-2,1.805099487E0
3.679985940E0,-5.969238281E-2,-4.629516602E-2,1.817886353E0
3.684990823E0,-2.184143066E-1,-2.849121094E-1,1.658096313E0
3.689995706E0,-3.398590088E-1,-4.340515137E-1,1.456756592E0
3.695000589E0,-3.973846436E-1,-4.340515137E-1,1.324661255E0
3.699974954E0,-4.186859131E-1,-3.456268311E-1,1.268203735E0
3.704979837E0,-4.400024414E-1,-2.604064941E-1,1.259689331E0
3.709984720E0,-4.687652588E-1,-1.965026855E-1,1.257553101E0
3.714989602E0,-5.017852783E-1,-1.613464355E-1,1.272460938E0
3.719994485E0,-5.262756348E-1,-1.709289551E-1,1.300170898E0
3.724968850E0,-5.305480957E-1,-2.199249268E-1,1.345962524E0
3.729973733E0,-5.454559326E-1,-2.391052246E-1,1.357681274E0
3.734978616E0,-5.795440674E-1,-2.380371094E-1,1.319335938E0
3.739983499E0,-6.242828369E-1,-2.391052246E-1,1.298034668E0
3.744988382E0,-6.594390869E-1,-2.646789551E-1,1.305496216E0
3.749993264E0,-6.892700195E-1,-3.477630615E-1,1.334259033E0
3.754967630E0,-7.244262695E-1,-4.958343506E-1,1.372604370E0
3.759972513E0,-7.659606934E-1,-6.396484375E-1,1.412017822E0
3.764977395E0,-8.011169434E-1,-7.930450439E-1,1.468475342E0
3.769982278E0,-8.575744629E-1,-9.166107178E-1,1.540908813E0
3.774987161E0,-9.502563477E-1,-1.049774170E0,1.590988159E0
3.779992044E0,-1.041870117E0,-1.194656372E0,1.615478516E0
3.784966409E0,-1.099395752E0,-1.311828613E0,1.620803833E0
3.789971292E0,-1.120697021E0,-1.401306152E0,1.613357544E0
3.794976175E0,-1.146270752E0,-1.451370239E0,1.643173218E0
3.799981057E0,-1.171829224E0,-1.496124268E0,1.732666016E0
3.804985940E0,-1.153717041E0,-1.442855835E0,1.780593872E0
3.809990823E0,-1.086608887E0,-1.224472046E0,1.792312622E0
3.814965188E0,-1.002456665E0,-9.347229004E-1,1.776336670E0
3.819970071E0,-9.161682129E-1,-6.108856201E-1,1.759292603E0
3.824974954E0,-8.543853760E-1,-2.976989746E-1,1.767807007E0
3.829979837E0,-8.117675781E-1,-6.120300293E-2,1.789123535E0
3.834984720E0,-7.744903564E-1,4.425048828E-2,1.808288574E0
3.839989602E0,-7.404022217E-1,6.449890137E-2,1.823211670E0
3.844963968E0,-7.116394043E-1,4.531860352E-2,1.838119507E0
3.849968850E0,-6.860656738E-1,-4.882812500E-4,1.846649170E0
3.854973733E0,-6.477203369E-1,-7.185363770E-2,1.818954468E0
3.859978616E0,-5.923309326E-1,-1.783905029E-1,1.783798218E0
3.864994576E0,-5.198974609E-1,-2.657318115E-1,1.760360718E0
3.869999459E0,-5.273437500E-1,-3.019561768E-1,1.722015381E0
3.874973824E0,-5.550384521E-1,-2.870483398E-1,1.613357544E0
3.879978707E0,-4.613037109E-1,-3.040924072E-1,1.436523438E0
3.884983590E0,-4.048461914E-1,-2.849121094E-1,1.266067505E0
3.889988472E0,-3.356018066E-1,-2.582855225E-1,1.157424927E0
3.894993355E0,-2.194824219E-1,-2.412414551E-1,1.132919312E0
3.899998238E0,-8.738708496E-2,-1.911773682E-1,1.141433716E0
3.904972603E0,3.724670410E-2,-1.677398682E-1,1.138244629E0
3.909977486E0,1.011657715E-1,-1.432342529E-1,1.102020264E0
3.914982369E0,1.799926758E-1,-1.304473877E-1,1.027450562E0
3.919987252E0,2.801208496E-1,-1.144714355E-1,9.209289551E-1
3.924992134E0,3.941040039E-1,-8.464050293E-2,8.229217529E-1
3.929997017E0,5.357818604E-1,-5.268859863E-2,7.377014160E-1
3.934971382E0,6.604156494E-1,2.401733398E-2,6.535491943E-1
3.939976265E0,7.978363037E-1,1.049804688E-1,5.693969727E-1
3.944981148E0,9.320678711E-1,1.944580078E-1,4.692535400E-1
3.949986031E0,1.065216064E0,2.658233643E-1,3.574066162E-1
3.954990914E0,1.190917969E0,2.903289795E-1,2.498168945E-1
3.959995797E0,1.315567017E0,2.690277100E-1,1.613922119E-1
3.964970162E0,1.423156738E0,2.679595947E-1,8.682250977E-2
3.969975045E0,1.506240845E0,2.764739990E-1,1.757812500E-2
3.974979927E0,1.576553345E0,2.786102295E-1,-4.846191406E-2
3.979984810E0,1.642593384E0,2.828674316E-1,-1.219635010E-1
3.984989693E0,1.702255249E0,2.818145752E-1,-2.050628662E-1
3.989964058E0,1.728881836E0,2.722167969E-1,-3.222351074E-1
3.994968941E0,1.716094971E0,2.615661621E-1,-4.585876465E-1
3.999973824E0,1.651123047E0,2.690277100E-1,-5.832214355E-1
4.004978707E0,1.538192749E0,2.860717773E-1,-6.929473877E-1
4.009983590E0,1.390121460E0,3.084411621E-1,-7.845611572E-1
4.014988472E0,1.220748901E0,3.574371338E-1,-8.527374268E-1
4.019962838E0,1.046051025E0,4.107055664E-1,-8.942871094E-1
4.024967720E0,8.830566406E-1,4.330749512E-1,-9.070587158E-1
4.029972603E0,7.445831299E-1,4.341430664E-1,-9.060058594E-1
4.034977486E0,6.391143799E-1,3.925933838E-1,-8.985443115E-1
4.039982369E0,5.677490234E-1,3.329467773E-1,-8.857574463E-1
4.044987252E0,5.219421387E-1,2.615661621E-1,-8.665771484E-1
4.049961617E0,5.070190430E-1,1.859283447E-1,-8.388824463E-1
4.054966500E0,5.144805908E-1,1.220245361E-1,-7.941436768E-1
4.059971382E0,5.325927734E-1,6.661987305E-2,-7.366180420E-1
4.064976265E0,5.389862061E-1,1.976013184E-2,-6.535339355E-1
4.069981148E0,5.208740234E-1,-4.948425293E-2,-5.544586182E-1
4.074986031E0,4.803924561E-1,-1.474914551E-1,-4.607238770E-1
4.079960396E0,4.090270996E-1,-2.529602051E-1,-3.904113770E-1
4.084965279E0,3.227386475E-1,-3.754577637E-1,-3.275604248E-1
4.089970162E0,2.321929932E-1,-4.745330811E-1,-2.476654053E-1
4.094975045E0,1.661376953E-1,-4.883728027E-1,-1.720275879E-1
4.099979927E0,1.224670410E-1,-5.182037354E-1,-1.326141357E-1
4.104984810E0,8.837890625E-2,-5.331268311E-1,-7.508850098E-2
4.109959175E0,1.171417236E-1,-3.839874268E-1,1.358337402E-1
4.114964058E0,1.746673584E-1,-2.423095703E-1,3.403625488E-1
4.119968941E0,2.236633301E-1,-2.348480225E-1,4.671325684E-1
4.124973824E0,2.481689453E-1,-3.115386963E-1,5.342407227E-1
4.129978707E0,2.598876953E-1,-3.893127441E-1,5.555419922E-1
4.134983590E0,2.588195801E-1,-4.138031006E-1,5.417022705E-1
4.139957955E0,2.417755127E-1,-3.712005615E-1,5.065460205E-1
4.144962838E0,2.119445801E-1,-2.742614746E-1,4.671325684E-1
4.149967720E0,1.554870605E-1,-1.624145508E-1,4.639282227E-1
4.154972603E0,8.198547363E-2,-4.948425293E-2,4.820404053E-1
4.159977486E0,1.913452148E-2,5.171203613E-2,4.873657227E-1
4.164951851E0,-2.667236328E-2,1.134948730E-1,4.809722900E-1
4.169956734E0,-4.904174805E-2,1.486511230E-1,4.660644531E-1
4.174961617E0,-5.010986328E-2,1.603698730E-1,4.404907227E-1
4.179966500E0,-3.520202637E-2,1.422576904E-1,4.000091553E-1
4.184971382E0,-7.492065430E-3,8.686828613E-2,3.286437988E-1
4.189976265E0,1.913452148E-2,4.745483398E-2,2.263793945E-1
4.194950631E0,3.617858887E-2,3.785705566E-2,1.230468750E-1
4.199955513E0,3.617858887E-2,4.745483398E-2,5.912780762E-2
4.204960396E0,2.659606934E-2,6.236267090E-2,5.273437500E-2
4.209965279E0,1.806640625E-2,6.236267090E-2,6.552124023E-2
4.214970162E0,1.167297363E-2,5.917358398E-2,7.723999023E-2
4.219975045E0,7.415771484E-3,6.129455566E-2,8.682250977E-2
4.224949410E0,8.483886719E-3,7.514953613E-2,8.682250977E-2
4.229954293E0,3.511047363E-2,1.145629883E-1,5.805969238E-2
4.234959175E0,5.429077148E-2,1.252136230E-1,6.126403809E-2
4.239964058E0,5.108642578E-2,1.316070557E-1,8.895874023E-2
4.244968941E0,3.297424316E-2,1.209564209E-1,1.123962402E-1
4.249973824E0,1.060485840E-2,8.580017090E-2,1.262359619E-1
4.254948189E0,-4.302978516E-3,3.573608398E-2,1.305084229E-1
4.259953072E0,-1.069641113E-2,-1.220703125E-2,1.241149902E-1
4.264957955E0,-6.439208984E-3,-5.908203125E-2,1.166534424E-1
4.269962838E0,7.415771484E-3,-1.006164551E-1,1.006774902E-1
4.274967720E0,2.445983887E-2,-1.240539551E-1,8.256530762E-2
4.279972603E0,4.469299316E-2,-1.219329834E-1,7.191467285E-2
4.284946968E0,6.387329102E-2,-1.176605225E-1,6.871032715E-2
4.289951851E0,7.878112793E-2,-1.102142334E-1,7.298278809E-2
4.294956734E0,8.517456055E-2,-1.027526855E-1,7.830810547E-2
4.299961617E0,7.878112793E-2,-9.635925293E-2,8.256530762E-2
4.304966500E0,9.582519531E-2,-7.185363770E-2,5.380249023E-2
4.309971382E0,1.959686279E-1,-2.392578125E-2,-1.223754883E-2
4.314945748E0,2.705383301E-1,-3.031921387E-2,-1.863098145E-2
4.319950631E0,2.428436279E-1,-7.717895508E-2,-1.330566406E-2
4.324955513E0,2.002258301E-1,-1.070098877E-1,-1.544189453E-2
4.329960396E0,1.778564453E-1,-1.656036377E-1,-2.655029297E-3
4.334965279E0,1.576232910E-1,-2.636108398E-1,4.806518555E-3
4.339970162E0,1.427001953E-1,-3.275299072E-1,-2.655029297E-3
4.344944527E0,1.352539062E-1,-3.413696289E-1,-2.609252930E-2
4.349949410E0,1.277923584E-1,-3.530883789E-1,-4.739379883E-2
4.354954293E0,1.352539062E-1,-3.797149658E-1,-5.378723145E-2
4.359959175E0,1.448364258E-1,-3.754577637E-1,-3.141784668E-2
4.364964058E0,1.416320801E-1,-3.104858398E-1,-2.655029297E-3
4.369968941E0,1.213989258E-1,-1.965026855E-1,2.397155762E-2
4.374943306E0,8.517456055E-2,-6.547546387E-2,4.634094238E-2
4.379948189E0,4.150390625E-2,4.638671875E-2,7.191467285E-2
4.384953072E0,7.415771484E-3,1.273498535E-1,1.038665771E-1
4.389957955E0,-1.069641113E-2,1.880645752E-1,1.390228271E-1
4.394962838E0,-1.921081543E-2,2.381286621E-1,1.816406250E-1
4.399967720E0,-1.708984375E-2,2.626342773E-1,2.295684814E-1
4.404942086E0,-1.495361328E-2,2.402648926E-1,2.636566162E-1
4.409946968E0,-8.560180664E-3,1.422576904E-1,2.775115967E-1
4.414951851E0,-3.234863281E-3,-7.949829102E-3,2.870941162E-1
4.419956734E0,-8.560180664E-3,-1.432342529E-1,3.009490967E-1
4.424961617E0,-2.774047852E-2,-2.337799072E-1,3.137359619E-1
4.429935982E0,-6.289672852E-2,-2.859802246E-1,3.307800293E-1
4.434940865E0,-1.023101807E-1,-2.966308594E-1,3.510131836E-1
4.439945748E0,-1.342620850E-1,-2.859802246E-1,3.733825684E-1
4.444950631E0,-1.502380371E-1,-2.753295898E-1,3.925628662E-1
4.449955513E0,-1.374664307E-1,-2.508239746E-1,3.914947510E-1
4.454960396E0,-1.236114502E-1,-2.156677246E-1,3.574066162E-1
4.459934761E0,-9.165954590E-2,-1.815795898E-1,2.839050293E-1
4.464939644E0,-3.520202637E-2,-1.197967529E-1,2.018737793E-1
4.469944527E0,2.659606934E-2,-7.185363770E-2,1.358337402E-1
4.474949410E0,7.559204102E-2,-7.931518555E-2,1.006774902E-1
4.479954293E0,9.156799316E-2,-1.229858398E-1,8.470153809E-2
4.484959175E0,7.559204102E-2,-1.794586182E-1,7.830810547E-2
4.489933541E0,4.682922363E-2,-1.922302246E-1,8.149719238E-2
4.494938423E0,3.724670410E-2,-1.634674072E-1,6.871032715E-2
4.499943306E0,2.020263672E-2,-1.197967529E-1,6.977844238E-2
4.504948189E0,8.483886719E-3,-1.187286377E-1,8.042907715E-2
4.509953072E0,3.192138672E-2,-1.570739746E-1,1.081390381E-1
4.514957955E0,6.347656250E-3,-2.305908203E-1,1.720428467E-1
4.519932320E0,-3.839111328E-2,-2.944946289E-1,2.540740967E-1
4.524937203E0,-8.206176758E-2,-3.200683594E-1,3.339691162E-1
4.529942086E0,-1.118927002E-1,-3.317871094E-1,4.064025879E-1
4.534946968E0,-1.640930176E-1,-2.944946289E-1,4.926910400E-1
4.539951851E0,-2.162933350E-1,-2.700042725E-1,5.704498291E-1
4.544956734E0,-2.535705566E-1,-2.753295898E-1,6.056060791E-1
4.549931099E0,-2.855377197E-1,-2.731933594E-1,6.045532227E-1
4.554935982E0,-2.983093262E-1,-2.721252441E-1,5.864410400E-1
4.559940865E0,-2.535705566E-1,-3.200683594E-1,5.384979248E-1
4.564945748E0,-1.204223633E-1,-4.638824463E-1,4.468841553E-1
4.569950631E0,3.297424316E-2,-5.757293701E-1,3.382263184E-1
4.574955513E0,1.192626953E-1,-4.936981201E-1,2.338409424E-1
4.579929879E0,1.309814453E-1,-2.593536377E-1,1.454162598E-1
4.584934761E0,1.352539062E-1,-6.881713867E-3,3.782653809E-2
4.589939644E0,1.437683105E-1,1.252136230E-1,-2.609252930E-2
4.594944527E0,1.459045410E-1,1.965789795E-1,-3.248596191E-2
4.599949410E0,1.299133301E-1,2.157592773E-1,-3.248596191E-2
4.604954293E0,1.128692627E-1,1.710205078E-1,-3.034973145E-2
4.609928658E0,6.813049316E-2,1.497192383E-1,-4.846191406E-2
4.614933541E0,3.085327148E-2,1.284027100E-1,-7.829284668E-2
4.619938423E0,1.022338867E-3,1.145629883E-1,-7.296752930E-2
4.624943306E0,-4.577636719E-5,7.514953613E-2,-5.271911621E-2
4.629948189E0,1.060485840E-2,3.041076660E-2,-3.887939453E-2
4.634922554E0,3.511047363E-2,-7.949829102E-3,-3.141784668E-2
4.639927437E0,6.280517578E-2,-1.860046387E-2,-3.248596191E-2
4.644932320E0,7.772827148E-2,1.762390137E-2,-3.993225098E-2
4.649937203E0,1.054229736E-1,7.089233398E-2,-3.993225098E-2
4.654942086E0,1.267242432E-1,1.230773926E-1,-3.781127930E-2
4.659946968E0,1.384429932E-1,1.465148926E-1,-1.863098145E-2
4.664921334E0,1.661376953E-1,1.347961426E-1,-1.863098145E-2
4.669926216E0,2.044830322E-1,1.305389404E-1,1.119995117E-2
4.674931099E0,2.151489258E-1,8.793640137E-2,6.126403809E-2
4.679935982E0,2.204742432E-1,6.973266602E-3,8.789062500E-2
4.684940865E0,2.385711670E-1,-6.759643555E-2,8.042907715E-2
4.689945748E0,2.939758301E-1,-9.635925293E-2,2.717590332E-2
4.694920113E0,4.058227539E-1,-7.931518555E-2,-4.206848145E-2
4.699924996E0,4.484405518E-1,-1.220703125E-2,4.101562500E-2
4.704929879E0,3.759918213E-1,4.531860352E-2,1.922912598E-1
4.709934761E0,2.737274170E-1,-1.166076660E-1,1.826934814E-1
4.714939644E0,2.747955322E-1,-2.582855225E-1,1.230468750E-1
4.719944527E0,2.726593018E-1,-3.094177246E-1,1.283721924E-1
4.724918892E0,2.066192627E-1,-3.679962158E-1,2.008056641E-1
4.729923775E0,8.198547363E-2,-3.679962158E-1,3.137359619E-1
4.734928658E0,1.593017578E-2,-4.287261963E-1,3.797760010E-1
4.739933541E0,-2.241516113E-2,-4.958343506E-1,3.435516357E-1
4.744938423E0,-2.774047852E-2,-4.841156006E-1,2.583312988E-1
4.749943306E0,-4.577636719E-5,-4.936981201E-1,1.390228271E-1
4.754917672E0,4.226684570E-3,-5.118103027E-1,5.912780762E-2
4.759922554E0,-3.945922852E-2,-5.331268311E-1,-6.336975098E-2
4.764927437E0,-4.264831543E-2,-6.737365723E-1,-1.240997314E-1
4.769932320E0,2.020263672E-2,-7.855834961E-1,-9.640502930E-2
4.774937203E0,1.118164062E-1,-7.610931396E-1,-3.355407715E-2
4.779942086E0,1.821136475E-1,-7.131500244E-1,5.874633789E-3
4.784916451E0,2.247314453E-1,-6.992950439E-1,-3.141784668E-2
4.789921334E0,3.014221191E-1,-7.003631592E-1,-1.081237793E-1
4.794926216E0,3.983612061E-1,-6.268615723E-1,-1.166381836E-1
4.799931099E0,4.772033691E-1,-4.404449463E-1,-5.911254883E-2
4.804935982E0,5.134124756E-1,-2.295227051E-1,4.101562500E-2
4.809940865E0,5.016937256E-1,-4.736328125E-2,1.741790771E-1
4.814915230E0,4.313964844E-1,1.198883057E-1,3.201141357E-1
4.819920113E0,3.259277344E-1,2.519836426E-1,4.330444336E-1
4.824924996E0,2.492370605E-1,3.808746338E-1,4.628601074E-1
4.829929879E0,1.725311279E-1,4.597015381E-1,4.916229248E-1
4.834934761E0,7.345581055E-2,4.490509033E-1,5.448913574E-1
4.839939644E0,-5.436706543E-2,3.553161621E-1,5.789794922E-1
4.844914009E0,-2.003173828E-1,2.274780273E-1,5.640716553E-1
4.849918892E0,-3.430633545E-1,9.963989258E-2,5.161285400E-1
4.854923775E0,-4.719543457E-1,-3.457641602E-2,4.649963379E-1
4.859928658E0,-5.816802979E-1,-1.645355225E-1,4.170532227E-1
4.864933541E0,-6.679687500E-1,-2.423095703E-1,3.627319336E-1
4.869938423E0,-7.180328369E-1,-3.008880615E-1,3.115997314E-1
4.874912789E0,-7.404022217E-1,-3.360443115E-1,2.647247314E-1
4.879917672E0,-7.404022217E-1,-3.104858398E-1,2.071990967E-1
4.884922554E0,-7.169647217E-1,-2.540130615E-1,1.518096924E-1
4.889927437E0,-6.913909912E-1,-1.986236572E-1,1.028137207E-1
4.894932320E0,-6.615753174E-1,-1.549530029E-1,6.019592285E-2
4.899906685E0,-6.296081543E-1,-9.635925293E-2,1.602172852E-3
4.904911568E0,-6.040496826E-1,-1.753234863E-2,-6.976318359E-2
4.909916451E0,-5.827484131E-1,6.129455566E-2,-1.443328857E-1
4.914921334E0,-5.625000000E-1,1.369323730E-1,-2.178344727E-1
4.919926216E0,-5.465240479E-1,2.019195557E-1,-2.849426270E-1
4.924931099E0,-5.422668457E-1,2.466583252E-1,-3.467407227E-1
4.929905465E0,-5.411987305E-1,2.807464600E-1,-3.968048096E-1
4.934910347E0,-5.358734131E-1,2.977905273E-1,-4.308929443E-1
4.939915230E0,-5.252227783E-1,3.180236816E-1,-4.500732422E-1
4.944920113E0,-5.060424805E-1,3.457183838E-1,-4.532623291E-1
4.949924996E0,-4.762115479E-1,3.712921143E-1,-4.372863770E-1
4.954929879E0,-4.400024414E-1,3.712921143E-1,-4.042663574E-1
4.959904244E0,-3.174896240E-1,1.667633057E-1,-3.115844727E-1
4.964909127E0,-1.928558350E-1,2.188110352E-2,-2.434082031E-1
4.969914009E0,-1.651611328E-1,2.008514404E-1,-2.295532227E-1
4.974918892E0,-1.363983154E-1,3.521118164E-1,-2.103881836E-1
4.979923775E0,-7.566833496E-2,3.403930664E-1,-1.901397705E-1
4.984928658E0,-1.113891602E-3,2.391967773E-1,-1.848144531E-1
4.989903023E0,4.364013672E-2,1.326751709E-1,-1.816253662E-1
4.994907906E0,4.789733887E-2,7.727050781E-2,-1.805572510E-1
4.999912789E0,2.978515625E-2,6.555175781E-2,-1.901397705E-1
5.004917672E0,2.659606934E-2,7.833862305E-2,-1.890716553E-1
5.009922554E0,3.085327148E-2,1.071014404E-1,-1.805572510E-1
5.014927437E0,2.978515625E-2,1.326751709E-1,-1.709594727E-1
5.019901802E0,2.127075195E-2,1.475830078E-1,-1.688385010E-1
5.024906685E0,-1.113891602E-3,1.582336426E-1,-1.794891357E-1
5.029911568E0,-3.092956543E-2,1.667633057E-1,-1.922760010E-1
5.034916451E0,-5.862426758E-2,1.902008057E-1,-2.061157227E-1
5.039921334E0,-7.887268066E-2,2.264099121E-1,-2.242279053E-1
5.044926216E0,-9.805297852E-2,2.764739990E-1,-2.370147705E-1
5.049900582E0,-1.140289307E-1,3.297424316E-1,-2.487335205E-1
5.054905465E0,-1.427917480E-1,3.798065186E-1,-2.593841553E-1
5.059910347E0,-1.875305176E-1,4.128417969E-1,-2.647094727E-1
5.064915230E0,-2.439880371E-1,4.245605469E-1,-2.615203857E-1
5.069920113E0,-3.004455566E-1,4.170989990E-1,-2.529907227E-1
5.074924996E0,-3.675537109E-1,3.968505859E-1,-2.380828857E-1
5.079899361E0,-4.346771240E-1,3.861999512E-1,-2.221069336E-1
5.084904244E0,-4.943237305E-1,3.883361816E-1,-2.167663574E-1
5.089909127E0,-5.241546631E-1,3.787536621E-1,-1.997222900E-1
5.094914009E0,-5.337371826E-1,3.531799316E-1,-1.752319336E-1
5.099918892E0,-5.337371826E-1,3.286743164E-1,-1.645812988E-1
5.104923775E0,-5.135040283E-1,3.041839600E-1,-1.656341553E-1
5.109898140E0,-4.708862305E-1,2.796783447E-1,-1.741638184E-1
5.114903023E0,-4.027099609E-1,2.541046143E-1,-2.071838379E-1
5.119907906E0,-3.270721436E-1,2.210845947E-1,-2.647094727E-1
5.124912789E0,-2.557067871E-1,1.624908447E-1,-3.169097900E-1
5.129917672E0,-2.056427002E-1,6.661987305E-2,-3.637847900E-1
5.134892037E0,-1.822052002E-1,-7.824707031E-2,-3.936004639E-1
5.139896920E0,-1.800689697E-1,-2.550811768E-1,-4.106445312E-1
5.144901802E0,-1.939239502E-1,-4.148712158E-1,-4.010620117E-1
5.149906685E0,-2.024383545E-1,-5.320587158E-1,-3.701782227E-1
5.154911568E0,-2.024383545E-1,-5.970306396E-1,-3.158416748E-1
5.159916451E0,-2.003173828E-1,-5.831909180E-1,-2.572479248E-1
5.164890816E0,-2.098999023E-1,-4.990386963E-1,-2.050628662E-1
5.169895699E0,-2.333374023E-1,-3.616180420E-1,-1.400756836E-1
5.174900582E0,-2.599639893E-1,-2.018280029E-1,-6.336975098E-2
5.179905465E0,-2.908630371E-1,-3.031921387E-2,5.874633789E-3
5.184910347E0,-3.366699219E-1,1.316070557E-1,6.126403809E-2
5.189915230E0,-3.995208740E-1,2.562408447E-1,9.747314453E-2
5.194889595E0,-4.740905762E-1,3.446655273E-1,1.123962402E-1
5.199894478E0,-5.529174805E-1,3.936614990E-1,1.070709229E-1
5.204899361E0,-6.232147217E-1,3.979187012E-1,8.895874023E-2
5.209904244E0,-6.828765869E-1,3.680877686E-1,5.593872070E-2
5.214909127E0,-7.329406738E-1,3.169555664E-1,1.013183594E-2
5.219914009E0,-7.755584717E-1,2.573089600E-1,-5.165100098E-2
5.224888375E0,-8.075103760E-1,1.923217773E-1,-1.134490967E-1
5.229893257E0,-8.266906738E-1,1.305389404E-1,-1.667022705E-1
5.234898140E0,-8.405303955E-1,8.580017090E-2,-2.114410400E-1
5.239903023E0,-8.469238281E-1,5.490112305E-2,-2.423400879E-1
5.244907906E0,-8.479919434E-1,3.892517090E-2,-2.572479248E-1
5.249912789E0,-8.458557129E-1,3.785705566E-2,-2.540588379E-1
5.254887154E0,-8.362731934E-1,4.318237305E-2,-2.391510010E-1
5.259892037E0,-8.202972412E-1,6.022644043E-2,-2.157135010E-1
5.264896920E0,-8.000488281E-1,8.686828613E-2,-1.869506836E-1
5.269901802E0,-7.766265869E-1,1.156311035E-1,-1.517944336E-1
5.274906685E0,-7.510528564E-1,1.454467773E-1,-1.134490967E-1
5.279911568E0,-7.297515869E-1,1.795349121E-1,-8.468627930E-2
5.284885933E0,-7.137756348E-1,2.051086426E-1,-6.018066406E-2
5.289890816E0,-7.041778564E-1,2.189636230E-1,-4.206848145E-2
5.294895699E0,-6.945953369E-1,2.200164795E-1,-2.822875977E-2
5.299900582E0,-6.828765869E-1,2.093658447E-1,-2.183532715E-2
5.304905465E0,-6.732940674E-1,1.880645752E-1,-2.076721191E-2
5.309910347E0,-6.679687500E-1,1.635589600E-1,-3.248596191E-2
5.314884713E0,-6.743469238E-1,1.529083252E-1,-6.018066406E-2
5.319889595E0,-6.807403564E-1,1.347961426E-1,-8.680725098E-2
5.324894478E0,-6.828765869E-1,1.092376709E-1,-1.081237793E-1
5.329899361E0,-6.956634521E-1,9.219360352E-2,-1.304931641E-1
5.334904244E0,-6.967315674E-1,5.490112305E-2,-1.464691162E-1
5.339909127E0,-6.935272217E-1,5.798339844E-4,-1.496582031E-1
5.344883492E0,-6.935272217E-1,-3.564453125E-2,-1.390075684E-1
5.349888375E0,-7.084503174E-1,-1.646423340E-2,-1.272888184E-1
5.354893257E0,-7.350769043E-1,6.129455566E-2,-1.400756836E-1
5.359898140E0,-7.340087891E-1,8.473205566E-2,-1.656341553E-1
5.364903023E0,-7.063140869E-1,4.638671875E-2,-1.826782227E-1
5.369877388E0,-6.669006348E-1,-3.564453125E-2,-1.890716553E-1
5.374882271E0,-6.360015869E-1,-1.187286377E-1,-1.741638184E-1
5.379887154E0,-5.997924805E-1,-2.231292725E-1,-1.485900879E-1
5.384892037E0,-5.688934326E-1,-3.466949463E-1,-1.070556641E-1
5.389896920E0,-5.667572021E-1,-4.212646484E-1,-7.615661621E-2
5.394901802E0,-5.763549805E-1,-4.532318115E-1,-5.804443359E-2
5.399876168E0,-5.816802979E-1,-4.702758789E-1,-4.527282715E-2
5.404881050E0,-5.795440674E-1,-4.883728027E-1,-2.183532715E-2
5.409885933E0,-5.625000000E-1,-5.139465332E-1,1.602172852E-3
5.414890816E0,-5.454559326E-1,-5.405731201E-1,2.824401855E-2
5.419895699E0,-5.358734131E-1,-5.576171875E-1,4.847717285E-2
5.424900582E0,-5.220184326E-1,-5.672149658E-1,6.019592285E-2
5.429874947E0,-5.113677979E-1,-5.480346680E-1,6.658935547E-2
5.434879830E0,-4.996490479E-1,-5.363159180E-1,7.405090332E-2
5.439884713E0,-4.985809326E-1,-5.341796875E-1,8.149719238E-2
5.444889595E0,-4.932556152E-1,-5.395050049E-1,8.470153809E-2
5.449894478E0,-4.762115479E-1,-5.501708984E-1,9.428405762E-2
5.454899361E0,-4.527740479E-1,-5.427093506E-1,9.535217285E-2
5.459873726E0,-4.431915283E-1,-5.192718506E-1,9.002685547E-2
5.464878609E0,-4.442596436E-1,-4.969024658E-1,7.617187500E-2
5.469883492E0,-4.442596436E-1,-4.947662354E-1,6.765747070E-2
5.474888375E0,-4.485168457E-1,-5.064849854E-1,6.126403809E-2
5.479893257E0,-4.570465088E-1,-5.214080811E-1,6.233215332E-2
5.484898140E0,-4.623718262E-1,-5.288543701E-1,6.233215332E-2
5.489872506E0,-4.698181152E-1,-5.309906006E-1,6.126403809E-2
5.494877388E0,-4.858093262E-1,-5.160827637E-1,6.126403809E-2
5.499882271E0,-5.209503174E-1,-4.745330811E-1,6.977844238E-2
5.504887154E0,-5.273437500E-1,-4.596099854E-1,7.298278809E-2
5.509892037E0,-5.017852783E-1,-4.468383789E-1,7.617187500E-2
5.514896920E0,-4.762115479E-1,-4.212646484E-1,8.470153809E-2
5.519871285E0,-4.591674805E-1,-3.946380615E-1,9.428405762E-2
5.524876168E0,-4.442596436E-1,-3.818511963E-1,1.134643555E-1
5.529881050E0,-4.272155762E-1,-3.882446289E-1,1.347656250E-1
5.534885933E0,-4.059143066E-1,-4.020996094E-1,1.475524902E-1
5.539890816E0,-3.803405762E-1,-4.244689941E-1,1.603240967E-1
5.544895699E0,-3.569030762E-1,-4.489593506E-1,1.688537598E-1
5.549870064E0,-3.398590088E-1,-4.745330811E-1,1.773681641E-1
5.554874947E0,-3.270721436E-1,-5.000915527E-1,1.858978271E-1
5.559879830E0,-3.174896240E-1,-5.224609375E-1,1.944122314E-1
5.564884713E0,-3.057708740E-1,-5.416412354E-1,1.986846924E-1
5.569889595E0,-3.036499023E-1,-5.544281006E-1,2.029418945E-1
5.574894478E0,-3.110961914E-1,-5.501708984E-1,2.050781250E-1
5.579868843E0,-3.302764893E-1,-5.214080811E-1,2.040100098E-1
5.584873726E0,-3.547821045E-1,-4.734649658E-1,2.018737793E-1
5.589878609E0,-3.707580566E-1,-4.201965332E-1,1.976165771E-1
5.594883492E0,-3.696899414E-1,-3.829193115E-1,1.922912598E-1
5.599888375E0,-3.622283936E-1,-3.584136963E-1,1.869659424E-1
5.604862740E0,-3.547821045E-1,-3.509521484E-1,1.848297119E-1
5.609867623E0,-3.526458740E-1,-3.584136963E-1,1.784362793E-1
5.614872506E0,-3.569030762E-1,-3.765258789E-1,1.731109619E-1
5.619877388E0,-3.611602783E-1,-4.020996094E-1,1.720428467E-1
5.624882271E0,-3.664855957E-1,-4.244689941E-1,1.741790771E-1
5.629887154E0,-3.696899414E-1,-4.457702637E-1,1.773681641E-1
5.634861519E0,-3.686218262E-1,-4.574890137E-1,1.848297119E-1
5.639866402E0,-3.643646240E-1,-4.606781006E-1,1.933593750E-1
5.644871285E0,-3.579711914E-1,-4.574890137E-1,2.008056641E-1
5.649876168E0,-3.515777588E-1,-4.478912354E-1,2.093353271E-1
5.654881050E0,-3.441162109E-1,-4.383087158E-1,2.178497314E-1
5.659885933E0,-3.356018066E-1,-4.319152832E-1,2.221221924E-1
5.664860298E0,-3.270721436E-1,-4.329833984E-1,2.199859619E-1
5.669865181E0,-3.228149414E-1,-4.436340332E-1,2.167968750E-1
5.674870064E0,-3.217468262E-1,-4.670715332E-1,2.135925293E-1
5.679874947E0,-3.174896240E-1,-4.969024658E-1,2.146606445E-1
5.684879830E0,-3.079071045E-1,-5.224609375E-1,2.210540771E-1
5.689884713E0,-2.940521240E-1,-5.352478027E-1,2.306365967E-1
5.694859078E0,-2.780761719E-1,-5.363159180E-1,2.434234619E-1
5.699863961E0,-2.599639893E-1,-5.288543701E-1,2.583312988E-1
5.704868843E0,-2.418518066E-1,-5.171356201E-1,2.743072510E-1
5.709873726E0,-2.280120850E-1,-5.107421875E-1,2.881622314E-1
5.714878609E0,-2.152252197E-1,-5.150146484E-1,3.020172119E-1
5.719883492E0,-2.013702393E-1,-5.320587158E-1,3.083953857E-1
5.724857857E0,-1.853942871E-1,-5.597534180E-1,3.105316162E-1
5.729862740E0,-1.726074219E-1,-5.810546875E-1,3.137359619E-1
5.734867623E0,-1.587677002E-1,-5.959777832E-1,3.179931641E-1
5.739872506E0,-1.459808350E-1,-6.034240723E-1,3.190612793E-1
5.744877388E0,-1.246795654E-1,-6.236724854E-1,3.179931641E-1
5.749882271E0,-1.033782959E-1,-6.545562744E-1,3.158569336E-1
5.754856636E0,-8.633422852E-2,-6.854553223E-1,3.233184814E-1
5.759861519E0,-7.566833496E-2,-7.099609375E-1,3.329010010E-1
5.764866402E0,-6.182861328E-2,-7.238006592E-1,3.414306641E-1
5.769871285E0,-4.585266113E-2,-7.270050049E-1,3.467559814E-1
5.774876168E0,-2.987670898E-2,-7.333831787E-1,3.552703857E-1
5.779881050E0,-1.283264160E-2,-7.365875244E-1,3.659210205E-1
5.784855416E0,3.158569336E-3,-7.376556396E-1,3.765716553E-1
5.789860298E0,1.274108887E-2,-7.376556396E-1,3.861694336E-1
5.794865181E0,2.020263672E-2,-7.408447266E-1,3.893585205E-1
5.799870064E0,2.232360840E-2,-7.461700439E-1,3.893585205E-1
5.804874947E0,1.913452148E-2,-7.525634766E-1,3.861694336E-1
5.809879830E0,1.060485840E-2,-7.621459961E-1,3.808441162E-1
5.814854195E0,1.060485840E-2,-7.727966309E-1,3.723144531E-1
5.819859078E0,1.487731934E-2,-7.738647461E-1,3.701934814E-1
5.824863961E0,2.552795410E-2,-7.621459961E-1,3.691253662E-1
5.829868843E0,4.043579102E-2,-7.429809570E-1,3.712463379E-1
5.834873726E0,6.068420410E-2,-7.206115723E-1,3.776397705E-1
5.839848091E0,8.305358887E-2,-6.982421875E-1,3.851013184E-1
5.844852974E0,1.086120605E-1,-6.737365723E-1,3.946838379E-1
5.849857857E0,1.416320801E-1,-6.439056396E-1,4.064025879E-1
5.854862740E0,1.799926758E-1,-6.098175049E-1,4.223785400E-1
5.859867623E0,2.225952148E-1,-5.704040527E-1,4.415588379E-1
5.864872506E0,2.684020996E-1,-5.341796875E-1,4.607391357E-1
5.869846871E0,3.152770996E-1,-5.000915527E-1,4.788513184E-1
5.874851754E0,3.642730713E-1,-4.670715332E-1,4.916229248E-1
5.879856636E0,4.164733887E-1,-4.329833984E-1,5.033416748E-1
5.884861519E0,4.739990234E-1,-3.935699463E-1,5.118713379E-1
5.889866402E0,5.389862061E-1,-3.488311768E-1,5.139923096E-1
5.894871285E0,6.124877930E-1,-2.987670898E-1,5.054779053E-1
5.899845650E0,6.913146973E-1,-2.423095703E-1,4.862976074E-1
5.904850533E0,7.690734863E-1,-1.858367920E-1,4.575347900E-1
5.909855416E0,8.425750732E-1,-1.379089355E-1,4.181213379E-1
5.914860298E0,9.075622559E-1,-9.956359863E-2,3.765716553E-1
5.919865181E0,9.672241211E-1,-6.652832031E-2,3.339691162E-1
5.924870064E0,1.032196045E0,-4.843139648E-2,2.945556641E-1
5.929844429E0,1.107833862E0,-4.522705078E-2,2.487487793E-1
5.934849312E0,1.200515747E0,-5.801391602E-2,1.869659424E-1
5.939854195E0,1.310226440E0,-8.357238770E-2,1.134643555E-1
5.944859078E0,1.440200806E0,-1.251220703E-1,4.315185547E-2
5.949863961E0,1.607437134E0,-1.687927246E-1,-1.756286621E-2
5.954868843E0,1.797058105E0,-2.103424072E-1,-6.550598145E-2
5.959843209E0,1.987747192E0,-2.785186768E-1,-9.959411621E-2
5.964848091E0,2.167770386E0,-3.946380615E-1,-1.230316162E-1
5.969852974E0,2.325424194E0,-5.458984375E-1,-1.368713379E-1
5.974857857E0,2.463912964E0,-7.238006592E-1,-1.422119141E-1
5.979862740E0,2.600265503E0,-9.325866699E-1,-1.517944336E-1
5.984867623E0,2.732360840E0,-1.143508911E0,-1.656341553E-1
5.989841988E0,2.838882446E0,-1.332061768E0,-1.943969727E-1
5.994846871E0,2.921981812E0,-1.493988037E0,-2.295532227E-1
5.999851754E0,2.979507446E0,-1.656967163E0,-2.647094727E-1
6.004856636E0,3.001876831E0,-1.832748413E0,-3.041229248E-1
6.009861519E0,2.961395264E0,-2.019165039E0,-3.605804443E-1
6.014866402E0,2.863388062E0,-2.227951050E0,-4.234313965E-1
6.019840767E0,2.728103638E0,-2.484680176E0,-4.809570312E-1
6.024845650E0,2.569381714E0,-2.708389282E0,-5.342254639E-1
6.029850533E0,2.404266357E0,-2.851135254E0,-5.949401855E-1
6.034855416E0,2.256195068E0,-2.896942139E0,-6.822967529E-1
6.039860298E0,2.137939453E0,-2.827697754E0,-7.856292725E-1
6.044865181E0,2.058044434E0,-2.700927734E0,-8.846893311E-1
6.049839547E0,1.989868164E0,-2.529418945E0,-9.731140137E-1
6.054844429E0,1.906784058E0,-2.347259521E0,-1.041290283E0
6.059849312E0,1.815170288E0,-2.088409424E0,-1.094558716E0
6.064854195E0,1.710769653E0,-1.766693115E0,-1.148880005E0
6.069859078E0,1.589340210E0,-1.447113037E0,-1.187225342E0
6.074833443E0,1.470016479E0,-1.264953613E0,-1.191497803E0
6.079838326E0,1.346450806E0,-1.207427979E0,-1.173385620E0
6.084843209E0,1.235671997E0,-1.124343872E0,-1.156341553E0
6.089848091E0,1.140853882E0,-9.176788330E-1,-1.152069092E0
6.094852974E0,1.048171997E0,-6.588134766E-1,-1.148880005E0
6.099857857E0,9.618988037E-1,-3.818511963E-1,-1.141418457E0
6.104832222E0,8.905181885E-1,-1.016845703E-1,-1.139297485E0
6.109837105E0,8.500366211E-1,1.635589600E-1,-1.149948120E0
6.114841988E0,8.340606689E-1,3.925933838E-1,-1.174438477E0
6.119846871E0,8.180847168E-1,5.843353271E-1,-1.201080322E0
6.124851754E0,7.925109863E-1,7.441253662E-1,-1.226638794E0
6.129856636E0,7.552337646E-1,8.645019531E-1,-1.249008179E0
6.134831002E0,7.104949951E-1,9.348144531E-1,-1.266052246E0
6.139835884E0,6.646881104E-1,9.689025879E-1,-1.276718140E0
6.144840767E0,6.188812256E-1,9.838104248E-1,-1.290557861E0
6.149845650E0,5.688018799E-1,9.848785400E-1,-1.303344727E0
6.154850533E0,5.102233887E-1,9.710388184E-1,-1.317184448E0
6.159855416E0,4.452362061E-1,9.539947510E-1,-1.332107544E0
6.164829781E0,3.749237061E-1,9.358825684E-1,-1.337432861E0
6.169834664E0,2.960968018E-1,9.199066162E-1,-1.340621948E0
6.174839547E0,2.108764648E-1,9.230957031E-1,-1.340621948E0
6.179844429E0,1.309814453E-1,9.497222900E-1,-1.341690063E0
6.184849312E0,6.173706055E-2,9.987335205E-1,-1.336364746E0
6.189854195E0,9.552001953E-3,1.071166992E0,-1.324645996E0
6.194828560E0,-3.520202637E-2,1.151062012E0,-1.291625977E0
6.199833443E0,-7.141113281E-2,1.230957031E0,-1.250076294E0
6.204838326E0,-9.910583496E-2,1.303390503E0,-1.198944092E0
6.209843209E0,-1.225433350E-1,1.359848022E0,-1.148880005E0
6.214848091E0,-1.449127197E-1,1.388610840E0,-1.102005005E0
6.219852974E0,-1.683502197E-1,1.393951416E0,-1.051940918E0
6.224827340E0,-1.928558350E-1,1.379028320E0,-1.002944946E0
6.229832222E0,-2.205505371E-1,1.351333618E0,-9.496765137E-1
6.234837105E0,-2.546386719E-1,1.316177368E0,-8.985443115E-1
6.239841988E0,-2.929840088E-1,1.273574829E0,-8.463439941E-1
6.244846871E0,-3.377380371E-1,1.226699829E0,-8.026733398E-1
6.249821236E0,-3.867340088E-1,1.180892944E0,-7.568664551E-1
6.254826119E0,-4.389343262E-1,1.137222290E0,-7.142486572E-1
6.259831002E0,-4.932556152E-1,1.098861694E0,-6.684417725E-1
6.264835884E0,-5.497131348E-1,1.064773560E0,-6.258392334E-1
6.269840767E0,-6.115112305E-1,1.025360107E0,-5.842895508E-1
6.274845650E0,-6.796875000E-1,9.816894531E-1,-5.427398682E-1
6.279850533E0,-7.489166260E-1,9.348144531E-1,-4.990692139E-1
6.284824898E0,-8.224334717E-1,8.815460205E-1,-4.564514160E-1
6.289829781E0,-8.980560303E-1,8.250885010E-1,-4.149169922E-1
6.294834664E0,-9.726257324E-1,7.601165771E-1,-3.669738770E-1
6.299839547E0,-1.042938232E0,6.908721924E-1,-3.158416748E-1
6.304844429E0,-1.110046387E0,6.205596924E-1,-2.657775879E-1
6.309818795E0,-1.173965454E0,5.513153076E-1,-2.157135010E-1
6.314823677E0,-1.236816406E0,4.916687012E-1,-1.677703857E-1
6.319828560E0,-1.296463013E0,4.362640381E-1,-1.230316162E-1
6.324833443E0,-1.356124878E0,3.861999512E-1,-7.615661621E-2
6.329838326E0,-1.410446167E0,3.403930664E-1,-2.609252930E-2
6.334843209E0,-1.462646484E0,3.031158447E-1,2.291870117E-2
6.339817574E0,-1.509521484E0,2.775421143E-1,7.084655762E-2
6.344822457E0,-1.551071167E0,2.637023926E-1,1.155853271E-1
6.349827340E0,-1.583023071E0,2.668914795E-1,1.582031250E-1
6.354832222E0,-1.603271484E0,2.935180664E-1,1.912231445E-1
6.359837105E0,-1.611785889E0,3.467864990E-1,2.135925293E-1
6.364841988E0,-1.611785889E0,4.096374512E-1,2.189178467E-1
6.369816353E0,-1.604324341E0,4.756927490E-1,2.104034424E-1
6.374821236E0,-1.578765869E0,5.342712402E-1,1.795043945E-1
6.379826119E0,-1.513778687E0,5.917968750E-1,1.230468750E-1
6.384831002E0,-1.394470215E0,6.589050293E-1,3.782653809E-2
6.389835884E0,-1.202728271E0,7.483978271E-1,-6.869506836E-2
6.394840767E0,-9.225616455E-1,8.730316162E-1,-1.816253662E-1
6.399815132E0,-5.507812500E-1,1.070098877E0,-2.977294922E-1
6.404820015E0,-7.354736328E-2,1.287414551E0,-4.553985596E-1
6.409824898E0,4.633483887E-1,1.449340820E0,-6.929473877E-1
6.414829781E0,9.544372559E-1,1.533493042E0,-1.012527466E0
6.419834664E0,1.309173584E0,1.546279907E0,-1.325714111E0
6.424839547E0,1.531814575E0,1.495147705E0,-1.520660400E0
6.429813912E0,1.682006836E0,1.290618896E0,-1.565399170E0
6.434818795E0,1.746994019E0,9.603881836E-1,-1.524917603E0
6.439823677E0,1.667098999E0,6.120452881E-1,-1.436508179E0
6.444828560E0,1.424209595E0,3.734130859E-1,-1.329971313E0
6.449833443E0,1.067352295E0,1.656951904E-1,-1.206405640E0
6.454838326E0,6.891784668E-1,-1.336517334E-1,-1.051940918E0
6.459812691E0,3.770599365E-1,-5.139465332E-1,-8.506011963E-1
6.464817574E0,1.288604736E-1,-8.612213135E-1,-6.258392334E-1
6.469822457E0,-5.224609375E-2,-1.055099487E0,-3.861541748E-1
6.474827340E0,-1.843261719E-1,-1.060424805E0,-1.379394531E-1
6.479832222E0,-2.695465088E-1,-9.198150635E-1,1.028137207E-1
6.484837105E0,-3.260192871E-1,-6.801300049E-1,3.169250488E-1
6.489811470E0,-3.707580566E-1,-3.839874268E-1,4.905548096E-1
6.494816353E0,-4.272155762E-1,-7.824707031E-2,6.439666748E-1
6.499821236E0,-5.007171631E-1,1.944580078E-1,7.781829834E-1
6.504826119E0,-6.029815674E-1,4.128417969E-1,8.953704834E-1
6.509831002E0,-7.361450195E-1,6.130981445E-1,1.010406494E0
6.514835884E0,-8.959350586E-1,8.495941162E-1,1.119064331E0
6.519810250E0,-1.072769165E0,1.109512329E0,1.212814331E0
6.524815132E0,-1.265579224E0,1.340682983E0,1.282058716E0
6.529820015E0,-1.473297119E0,1.499404907E0,1.314010620E0
6.534824898E0,-1.687423706E0,1.561187744E0,1.307617188E0
6.539829781E0,-1.882369995E0,1.514312744E0,1.265014648E0
6.544804146E0,-2.031494141E0,1.351333618E0,1.192565918E0
6.549809029E0,-2.113525391E0,1.063705444E0,1.090301514E0
6.554813912E0,-2.120986938E0,6.631774902E-1,9.656677246E-1
6.559818795E0,-2.058135986E0,1.710205078E-1,8.112030029E-1
6.564823677E0,-1.924972534E0,-3.701324463E-1,6.535491943E-1
6.569828560E0,-1.732162476E0,-8.857269287E-1,5.012207031E-1
6.574802925E0,-1.519104004E0,-1.281997681E0,3.446197510E-1
6.579807808E0,-1.285812378E0,-1.472686768E0,1.582031250E-1
6.584812691E0,-1.003524780E0,-1.403442383E0,-8.894348145E-2
6.589817574E0,-6.519775391E-1,-1.065750122E0,-4.639129639E-1
6.594822457E0,-2.738189697E-1,-5.874481201E-1,-8.804321289E-1
6.599827340E0,1.274108887E-2,-2.380371094E-1,-1.146743774E0
6.604801705E0,1.757202148E-1,-1.134033203E-1,-1.207473755E0
6.609806588E0,2.566833496E-1,-1.421661377E-1,-1.140350342E0
6.614811470E0,2.897033691E-1,-2.731933594E-1,-1.009323120E0
6.619816353E0,2.811889648E-1,-4.170074463E-1,-8.282318115E-1
6.624821236E0,2.055511475E-1,-5.011596680E-1,-5.832214355E-1
6.629826119E0,5.747985840E-2,-4.947662354E-1,-2.700347900E-1
6.634800484E0,-8.845520020E-2,-4.095458984E-1,4.101562500E-2
6.639805367E0,-1.917877197E-1,-2.657318115E-1,3.126678467E-1
6.644810250E0,-2.599639893E-1,-1.134033203E-1,5.885620117E-1
6.649815132E0,-2.940521240E-1,1.123046875E-2,8.932342529E-1
6.654820015E0,-3.206939697E-1,1.603698730E-1,1.185119629E0
6.659824898E0,-3.718261719E-1,3.254852295E-1,1.414154053E0
6.664799263E0,-4.580993652E-1,4.788818359E-1,1.576065063E0
6.669804146E0,-5.774078369E-1,6.077728271E-1,1.682586670E0
6.674809029E0,-7.212219238E-1,7.068481445E-1,1.748641968E0
6.679813912E0,-8.671722412E-1,7.750244141E-1,1.780593872E0
6.684818795E0,-9.683685303E-1,7.899322510E-1,1.756103516E0
6.689793160E0,-9.800872803E-1,8.208312988E-1,1.635726929E0
6.694798043E0,-9.065856934E-1,9.358825684E-1,1.456756592E0
6.699802925E0,-8.021850586E-1,1.013641357E0,1.190444946E0
6.704807808E0,-6.839447021E-1,9.039154053E-1,8.101348877E-1
6.709812691E0,-5.443878174E-1,6.759490967E-1,3.968200684E-1
6.714817574E0,-4.218902588E-1,3.659667969E-1,8.470153809E-2
6.719822457E0,-4.282836914E-1,7.408142090E-2,-1.091766357E-1
6.724796822E0,-5.220184326E-1,-2.444305420E-1,-2.402038574E-1
6.729801705E0,-6.509246826E-1,-5.714721680E-1,-3.275604248E-1
6.734806588E0,-8.021850586E-1,-8.345947266E-1,-3.786926270E-1
6.739811470E0,-9.598388672E-1,-9.954376221E-1,-3.978729248E-1
6.744816353E0,-1.105789185E0,-1.026336670E0,-3.765563965E-1
6.749821236E0,-1.181427002E0,-9.720153809E-1,-3.382110596E-1
6.754795601E0,-1.177154541E0,-8.537597656E-1,-2.934722900E-1
6.759800484E0,-1.126022339E0,-6.577606201E-1,-2.604522705E-1
6.764805367E0,-1.048263550E0,-4.138031006E-1,-2.135772705E-1
6.769810250E0,-9.534606934E-1,-1.656036377E-1,-8.361816406E-2
6.774815132E0,-8.778228760E-1,7.514953613E-2,7.084655762E-2
6.779820015E0,-7.840728760E-1,2.178955078E-1,2.402191162E-1
6.784794381E0,-6.722259521E-1,2.541046143E-1,4.085388184E-1
6.789799263E0,-5.880737305E-1,2.615661621E-1,5.459594727E-1
6.794804146E0,-5.273437500E-1,2.349395752E-1,6.524810791E-1
6.799809029E0,-4.868621826E-1,1.699523926E-1,7.291870117E-1
6.804813912E0,-4.676971436E-1,9.538269043E-2,7.664642334E-1
6.809788277E0,-4.517211914E-1,1.655578613E-2,7.686004639E-1
6.814793160E0,-4.410552979E-1,-7.505798340E-2,7.451629639E-1
6.819798043E0,-4.325408936E-1,-1.581420898E-1,6.929626465E-1
6.824802925E0,-4.378662109E-1,-2.103424072E-1,6.226501465E-1
6.829807808E0,-4.570465088E-1,-2.327117920E-1,5.480804443E-1
6.834812691E0,-4.889984131E-1,-2.540130615E-1,4.681854248E-1
6.839787056E0,-5.326690674E-1,-2.923736572E-1,3.968200684E-1
6.844791939E0,-5.870056152E-1,-3.445739746E-1,3.329010010E-1
6.849796822E0,-6.477203369E-1,-4.095458984E-1,2.785797119E-1
6.854801705E0,-7.020568848E-1,-5.182037354E-1,2.402191162E-1
6.859806588E0,-7.393341064E-1,-6.194000244E-1,2.146606445E-1
6.864811470E0,-7.542419434E-1,-6.726684570E-1,1.954803467E-1
6.869785836E0,-7.499847412E-1,-6.779937744E-1,1.837615967E-1
6.874790718E0,-7.297515869E-1,-6.513671875E-1,1.848297119E-1
6.879795601E0,-7.009887695E-1,-6.204681396E-1,1.965484619E-1
6.884800484E0,-6.669006348E-1,-5.895843506E-1,2.178497314E-1
6.889805367E0,-6.349334717E-1,-5.618743896E-1,2.476806641E-1
6.894810250E0,-6.072387695E-1,-5.256652832E-1,2.796325684E-1
6.899784615E0,-5.806121826E-1,-4.841156006E-1,3.115997314E-1
6.904789498E0,-5.582427979E-1,-4.404449463E-1,3.392944336E-1
6.909794381E0,-5.401306152E-1,-3.914337158E-1,3.669891357E-1
6.914799263E0,-5.230865479E-1,-3.413696289E-1,3.882904053E-1
6.919804146E0,-5.071105957E-1,-2.966308594E-1,4.074707031E-1
6.924809029E0,-4.943237305E-1,-2.667999268E-1,4.223785400E-1
6.929783394E0,-4.889984131E-1,-2.582855225E-1,4.340972900E-1
6.934788277E0,-4.911346436E-1,-2.657318115E-1,4.479522705E-1
6.939793160E0,-4.996490479E-1,-2.881164551E-1,4.586029053E-1
6.944798043E0,-5.177612305E-1,-2.987670898E-1,4.745788574E-1
6.949802925E0,-5.401306152E-1,-2.710571289E-1,4.841766357E-1
6.954807808E0,-5.667572021E-1,-2.369689941E-1,4.831085205E-1
6.959782173E0,-5.976562500E-1,-2.348480225E-1,4.777832031E-1
6.964787056E0,-6.221618652E-1,-2.561492920E-1,4.756469727E-1
6.969791939E0,-6.381378174E-1,-2.753295898E-1,4.735107422E-1
6.974796822E0,-6.509246826E-1,-2.753295898E-1,4.692535400E-1
6.979801705E0,-6.573028564E-1,-2.646789551E-1,4.618072510E-1
6.984806588E0,-6.530456543E-1,-2.593536377E-1,4.564666748E-1
6.989780953E0,-6.455993652E-1,-2.593536377E-1,4.532775879E-1
6.994785836E0,-6.328125000E-1,-2.774505615E-1,4.522094727E-1
6.999790718E0,-6.178894043E-1,-3.062133789E-1,4.522094727E-1
7.004795601E0,-5.987243652E-1,-3.477630615E-1,4.543457031E-1
7.009800484E0,-5.710296631E-1,-3.893127441E-1,4.618072510E-1
7.014805367E0,-5.348052979E-1,-4.255218506E-1,4.745788574E-1
7.019779732E0,-4.921875000E-1,-4.468383789E-1,4.895019531E-1
7.024784615E0,-4.431915283E-1,-4.478912354E-1,5.108032227E-1
7.029789498E0,-3.920593262E-1,-4.287261963E-1,5.342407227E-1
7.034794381E0,-3.356018066E-1,-3.946380615E-1,5.555419922E-1
7.039799263E0,-2.748870850E-1,-3.552246094E-1,5.715179443E-1
7.044804146E0,-2.173614502E-1,-3.147430420E-1,5.725860596E-1
7.049778511E0,-1.715545654E-1,-2.849121094E-1,5.630035400E-1
7.054783394E0,-1.427917480E-1,-2.742614746E-1,5.417022705E-1
7.059788277E0,-1.321411133E-1,-2.795867920E-1,5.150604248E-1
7.064793160E0,-1.342620850E-1,-2.934417725E-1,4.873657227E-1
7.069798043E0,-1.268157959E-1,-3.040924072E-1,4.660644531E-1
7.074772408E0,-1.044311523E-1,-2.955627441E-1,4.543457031E-1
7.079777291E0,-6.182861328E-2,-2.625427246E-1,4.458160400E-1
7.084782173E0,-6.439208984E-3,-2.018280029E-1,4.468841553E-1
7.089787056E0,4.896545410E-2,-1.304473877E-1,4.490203857E-1
7.094791939E0,9.370422363E-2,-7.080078125E-2,4.543457031E-1
7.099796822E0,1.256561279E-1,-4.309082031E-2,4.543457031E-1
7.104771187E0,1.437683105E-1,-6.547546387E-2,4.522094727E-1
7.109776070E0,1.597442627E-1,-1.357727051E-1,4.340972900E-1
7.114780953E0,1.778564453E-1,-2.380371094E-1,4.127960205E-1
7.119785836E0,1.991577148E-1,-3.616180420E-1,4.032135010E-1
7.124790718E0,2.311248779E-1,-5.043640137E-1,4.096069336E-1
7.129795601E0,2.779846191E-1,-6.556243896E-1,4.266510010E-1
7.134769966E0,3.461761475E-1,-8.026275635E-1,4.575347900E-1
7.139774849E0,4.345855713E-1,-9.187469482E-1,4.980163574E-1
7.144779732E0,5.379180908E-1,-9.794616699E-1,5.438232422E-1
7.149784615E0,6.433715820E-1,-9.954376221E-1,5.821685791E-1
7.154789498E0,7.349853516E-1,-9.858551025E-1,6.119995117E-1
7.159794381E0,8.159484863E-1,-9.773406982E-1,6.322479248E-1
7.164768746E0,8.947753906E-1,-9.783935547E-1,6.439666748E-1
7.169773629E0,9.863891602E-1,-9.901123047E-1,6.407623291E-1
7.174778511E0,1.097183228E0,-9.933166504E-1,6.130676270E-1
7.179783394E0,1.231399536E0,-9.783935547E-1,5.597991943E-1
7.184788277E0,1.391189575E0,-9.475097656E-1,4.745788574E-1
7.189793160E0,1.571228027E0,-9.027709961E-1,3.701934814E-1
7.194767525E0,1.752319336E0,-8.335266113E-1,2.562103271E-1
7.199772408E0,1.919570923E0,-7.483062744E-1,1.454162598E-1
7.204777291E0,2.081481934E0,-6.556243896E-1,4.847717285E-2
7.209782173E0,2.257247925E0,-5.672149658E-1,-4.313659668E-2
7.214787056E0,2.458587646E0,-5.107421875E-1,-1.464691162E-1
7.219791939E0,2.688690186E0,-4.915771484E-1,-2.593841553E-1
7.224766304E0,2.943283081E0,-4.851837158E-1,-3.659057617E-1
7.229771187E0,3.191497803E0,-4.756011963E-1,-4.585876465E-1
7.234776070E0,3.410934448E0,-4.681396484E-1,-5.406188965E-1
7.239780953E0,3.576049805E0,-5.118103027E-1,-6.130523682E-1
7.244785836E0,3.649551392E0,-6.886444092E-1,-6.609954834E-1
7.249790718E0,3.632507324E0,-9.347229004E-1,-7.014617920E-1
7.254765084E0,3.540893555E0,-1.226608276E0,-7.323608398E-1
7.259769966E0,3.422653198E0,-1.658035278E0,-7.675170898E-1
7.264774849E0,3.292694092E0,-2.223693848E0,-8.207855225E-1
7.269779732E0,3.112655640E0,-2.786148071E0,-8.324890137E-1
7.274784615E0,2.867645264E0,-3.263397217E0,-7.845611572E-1
7.279758980E0,2.613052368E0,-3.663925171E0,-7.291717529E-1
7.284763863E0,2.381896973E0,-3.922790527E0,-6.844177246E-1
7.289768746E0,2.168838501E0,-3.934509277E0,-6.524658203E-1
7.294773629E0,1.964309692E0,-3.618118286E0,-6.695098877E-1
7.299778511E0,1.777877808E0,-3.036483765E0,-7.248992920E-1
7.304783394E0,1.594665527E0,-2.415435791E0,-8.154449463E-1
7.309757759E0,1.430603027E0,-1.879608154E0,-9.123840332E-1
7.314762642E0,1.287857056E0,-1.451370239E0,-1.005065918E0
7.319767525E0,1.172821045E0,-1.223403931E0,-1.108398438E0
7.324772408E0,1.052444458E0,-1.195709229E0,-1.228775024E0
7.329777291E0,9.224700928E-1,-1.239395142E0,-1.387496948E0
7.334782173E0,8.234100342E-1,-1.276672363E0,-1.524917603E0
7.339756539E0,7.339324951E-1,-1.225540161E0,-1.611206055E0
7.344761422E0,6.742706299E-1,-1.015686035E0,-1.643157959E0
7.349766304E0,6.582946777E-1,-7.088928223E-1,-1.641036987E0
7.354771187E0,6.710815430E-1,-3.552246094E-1,-1.605880737E0
7.359776070E0,6.774597168E-1,-2.624511719E-3,-1.543029785E0
7.364780953E0,6.582946777E-1,3.009796143E-1,-1.471649170E0
7.369755318E0,6.146087646E-1,5.246887207E-1,-1.420516968E0
7.374760201E0,5.528259277E-1,6.674346924E-1,-1.393890381E0
7.379765084E0,4.825286865E-1,7.441253662E-1,-1.384307861E0
7.384769966E0,4.090270996E-1,7.899322510E-1,-1.376846313E0
7.389774849E0,3.451080322E-1,8.314819336E-1,-1.366195679E0
7.394779732E0,2.971649170E-1,8.826141357E-1,-1.345947266E0
7.399754097E0,2.630767822E-1,9.358825684E-1,-1.315063477E0
7.404758980E0,2.311248779E-1,9.827575684E-1,-1.279907227E0
7.409763863E0,1.885070801E-1,1.017898560E0,-1.251144409E0
7.414768746E0,1.224670410E-1,1.029617310E0,-1.234100342E0
7.419773629E0,2.764892578E-2,1.022171021E0,-1.222381592E0
7.424778511E0,-9.165954590E-2,1.010452271E0,-1.213867188E0
7.429752877E0,-2.216186523E-1,1.012573242E0,-1.201080322E0
7.434757759E0,-3.483886719E-1,1.040283203E0,-1.175506592E0
7.439762642E0,-4.580993652E-1,1.097793579E0,-1.139297485E0
7.444767525E0,-5.475921631E-1,1.177688599E0,-1.091354370E0
7.449772408E0,-6.210937500E-1,1.272506714E0,-1.039154053E0
7.454777291E0,-6.743469238E-1,1.339614868E0,-9.859008789E-1
7.459751656E0,-7.052459717E-1,1.379028320E0,-9.379577637E-1
7.464756539E0,-7.158966064E-1,1.401397705E0,-8.878936768E-1
7.469761422E0,-7.169647217E-1,1.396072388E0,-8.346252441E-1
7.474766304E0,-7.169647217E-1,1.371566772E0,-7.824249268E-1
7.479771187E0,-7.244262695E-1,1.312988281E0,-7.334289551E-1
7.484776070E0,-7.382659912E-1,1.227767944E0,-6.844177246E-1
7.489750435E0,-7.627716064E-1,1.134017944E0,-6.332855225E-1
7.494755318E0,-7.979278564E-1,1.017898560E0,-5.789642334E-1
7.499760201E0,-8.458557129E-1,8.836822510E-1,-5.278320312E-1
7.504765084E0,-9.065856934E-1,7.420043945E-1,-4.713745117E-1
7.509769966E0,-9.790191650E-1,6.003265381E-1,-4.074554443E-1
7.514744332E0,-1.063171387E0,4.629058838E-1,-3.435363770E-1
7.519749215E0,-1.155853271E0,3.212280273E-1,-2.774963379E-1
7.524754097E0,-1.257049561E0,1.720886230E-1,-2.082519531E-1
7.529758980E0,-1.359313965E0,2.827453613E-2,-1.358184814E-1
7.534763863E0,-1.458389282E0,-1.006164551E-1,-6.443786621E-2
7.539768746E0,-1.554260254E0,-2.082214355E-1,1.545715332E-2
7.544743111E0,-1.644805908E0,-2.934417725E-1,9.642028809E-2
7.549747994E0,-1.734298706E0,-3.679962158E-1,1.805725098E-1
7.554752877E0,-1.816314697E0,-4.212646484E-1,2.647247314E-1
7.559757759E0,-1.888763428E0,-4.585571289E-1,3.467559814E-1
7.564762642E0,-1.944152832E0,-4.723968506E-1,4.287719727E-1
7.569767525E0,-1.982498169E0,-4.308471680E-1,5.054779053E-1
7.574741890E0,-2.012329102E0,-3.626708984E-1,5.587463379E-1
7.579746773E0,-2.031494141E0,-3.019561768E-1,5.864410400E-1
7.584751656E0,-2.031494141E0,-2.284545898E-1,5.970916748E-1
7.589756539E0,-2.000610352E0,-1.240539551E-1,5.896301270E-1
7.594761422E0,-1.936691284E0,2.081298828E-2,5.597991943E-1
7.599766304E0,-1.832290649E0,2.029724121E-1,5.139923096E-1
7.604740670E0,-1.685287476E0,4.096374512E-1,4.575347900E-1
7.609745552E0,-1.479690552E0,6.269531250E-1,3.829650879E-1
7.614750435E0,-1.139877319E0,8.847503662E-1,2.881622314E-1
7.619755318E0,-5.411987305E-1,1.241607666E0,1.305084229E-1
7.624760201E0,4.431152344E-1,1.750808716E0,-2.210388184E-1
7.629765084E0,1.447647095E0,2.383575439E0,-8.335571289E-1
7.634739449E0,1.938735962E0,2.949234009E0,-1.471649170E0
7.639744332E0,1.947265625E0,3.008880615E0,-1.829589844E0
7.644749215E0,1.746994019E0,2.331375122E0,-1.927581787E0
7.649754097E0,1.484939575E0,1.218170166E0,-1.908416748E0
7.654758980E0,1.195190430E0,2.104339600E-1,-1.858352661E0
7.659763863E0,8.191528320E-1,-4.436340332E-1,-1.776321411E0
7.664738228E0,3.759918213E-1,-9.496307373E-1,-1.660202026E0
7.669743111E0,-4.371643066E-2,-1.505706787E0,-1.487640381E0
7.674747994E0,-3.664855957E-1,-2.024490356E0,-1.252212524E0
7.679752877E0,-5.646362305E-1,-2.307846069E0,-9.507446289E-1
7.684757759E0,-6.402587891E-1,-2.259918213E0,-5.981445312E-1
7.689762642E0,-5.997924805E-1,-1.895599365E0,-2.295532227E-1
7.694737007E0,-4.996490479E-1,-1.315017700E0,1.230468750E-1
7.699741890E0,-3.867340088E-1,-6.034240723E-1,4.639282227E-1
7.704746773E0,-3.057708740E-1,1.816711426E-1,8.037567139E-1
7.709751656E0,-3.132324219E-1,9.369506836E-1,1.103088379E0
7.714756539E0,-4.378662109E-1,1.542022705E0,1.367279053E0
7.719761422E0,-6.658325195E-1,2.029907227E0,1.618682861E0
7.724735787E0,-9.289550781E-1,2.410202026E0,1.853042603E0
7.729740670E0,-1.198471069E0,2.662673950E0,2.076736450E0
7.734745552E0,-1.492477417E0,2.724456787E0,2.329208374E0
7.739750435E0,-1.767318726E0,2.530578613E0,2.547592163E0
7.744755318E0,-1.867446899E0,2.055465698E0,2.566757202E0
7.749760201E0,-1.693817139E0,1.432296753E0,2.285537720E0
7.754734566E0,-1.260253906E0,9.465332031E-1,1.680465698E0
7.759739449E0,-6.541137695E-1,6.876678467E-1,7.409057617E-1
7.764744332E0,-2.237548828E-1,4.533081055E-1,-3.009338379E-1
7.769749215E0,-1.012420654E-1,1.529083252E-1,-1.002944946E0
7.774754097E0,-1.736755371E-1,-2.060852051E-1,-1.328903198E0
7.779728463E0,-2.770080566E-1,-7.664184570E-1,-1.440765381E0
7.784733345E0,-3.143005371E-1,-1.465225220E0,-1.410934448E0
7.789738228E0,-2.929840088E-1,-2.129943848E0,-1.249008179E0
7.794743111E0,-2.567749023E-1,-2.600799561E0,-9.411468506E-1
7.799747994E0,-2.290802002E-1,-2.752059937E0,-5.768280029E-1
7.804752877E0,-1.747436523E-1,-2.567779541E0,-1.443328857E-1
7.809727242E0,-1.438598633E-1,-2.124618530E0,3.424835205E-1
7.814732125E0,-1.790008545E-1,-1.429000854E0,7.717895508E-1
7.819737007E0,-2.663574219E-1,-5.682678223E-1,1.115875244E0
7.824709440E0,-3.153533936E-1,3.190917969E-1,1.384323120E0
7.829714323E0,-3.377380371E-1,9.955291748E-1,1.620803833E0
7.834719206E0,-3.686218262E-1,1.441879272E0,1.842376709E0
7.839693571E0,-4.037780762E-1,1.787033081E0,2.036254883E0
7.844698454E0,-4.431915283E-1,2.103408813E0,2.176879883E0
7.849703337E0,-4.943237305E-1,2.353744507E0,2.250381470E0
7.854708220E0,-5.625000000E-1,2.486907959E0,2.273818970E0
7.859713102E0,-6.498565674E-1,2.429382324E0,2.212036133E0
7.864717985E0,-7.105712891E-1,2.219528198E0,2.012832642E0
7.869692350E0,-7.382659912E-1,1.826446533E0,1.678329468E0
7.874697233E0,-7.521209717E-1,1.201126099E0,1.233047485E0
7.879702116E0,-7.382659912E-1,3.851318359E-1,6.769866943E-1
7.884706999E0,-7.308197021E-1,-4.692077637E-1,1.155853271E-1
7.889711882E0,-8.245544434E-1,-1.073211670E0,-2.881469727E-1
7.894716765E0,-9.449310303E-1,-1.460968018E0,-5.214385986E-1
7.899691130E0,-1.007781982E0,-1.761367798E0,-6.759033203E-1
7.904696013E0,-1.037612915E0,-1.940338135E0,-7.685852051E-1
7.909700895E0,-1.078094482E0,-1.900924683E0,-7.920227051E-1
7.914705778E0,-1.103652954E0,-1.709167480E0,-7.163848877E-1
7.919710661E0,-1.113250732E0,-1.348052979E0,-5.960083008E-1
7.924715544E0,-1.122833252E0,-8.665466309E-1,-4.734954834E-1
7.929689909E0,-1.112182617E0,-3.839874268E-1,-3.573913574E-1
7.934694792E0,-1.080215454E0,3.999328613E-2,-2.327575684E-1
7.939699675E0,-1.021636963E0,4.224243164E-1,-7.829284668E-2
7.944704557E0,-9.140319824E-1,6.919403076E-1,1.219787598E-1
7.949709440E0,-7.489166260E-1,7.420043945E-1,3.542022705E-1
7.954714323E0,-5.763549805E-1,6.940612793E-1,5.811157227E-1
7.959688688E0,-4.400024414E-1,6.152343750E-1,7.675323486E-1
7.964693571E0,-3.654327393E-1,5.055084229E-1,8.804473877E-1
7.969698454E0,-3.622283936E-1,3.627624512E-1,9.401092529E-1
7.974703337E0,-4.144287109E-1,2.466583252E-1,9.560852051E-1
7.979708220E0,-5.039062500E-1,1.752777100E-1,9.273223877E-1
7.984713102E0,-6.104431152E-1,1.380004883E-1,8.719329834E-1
7.989687468E0,-7.052459717E-1,1.220245361E-1,8.016204834E-1
7.994692350E0,-7.819519043E-1,8.898925781E-2,7.195892334E-1
7.999697233E0,-8.426666260E-1,3.146362305E-2,6.279754639E-1
8.004702116E0,-8.831481934E-1,-3.564453125E-2,5.395660400E-1
8.009706999E0,-9.033813477E-1,-1.027526855E-1,4.586029053E-1
8.014681364E0,-8.948669434E-1,-1.613464355E-1,3.989562988E-1
8.019686247E0,-8.597106934E-1,-2.135467529E-1,3.584747314E-1
8.024691130E0,-8.128356934E-1,-2.593536377E-1,3.318328857E-1
8.029696013E0,-7.606353760E-1,-2.934417725E-1,3.201141357E-1
8.034700895E0,-7.105712891E-1,-3.296508789E-1,3.265075684E-1
8.039705778E0,-6.636962891E-1,-3.658752441E-1,3.467559814E-1
8.044680143E0,-6.189575195E-1,-3.946380615E-1,3.787078857E-1
8.049685026E0,-5.848693848E-1,-4.031524658E-1,4.117279053E-1
8.054689909E0,-5.593109131E-1,-3.850555420E-1,4.436950684E-1
8.059694792E0,-5.316162109E-1,-3.403015137E-1,4.756469727E-1
8.064699675E0,-5.049743652E-1,-2.859802246E-1,5.033416748E-1
8.069704557E0,-4.783477783E-1,-2.412414551E-1,5.310363770E-1
8.074678923E0,-4.644927979E-1,-1.965026855E-1,5.534057617E-1
8.079683806E0,-4.549102783E-1,-1.581420898E-1,5.736541748E-1
8.084688688E0,-4.506530762E-1,-1.283264160E-1,5.896301270E-1
8.089693571E0,-4.559783936E-1,-1.102142334E-1,6.034851074E-1
8.094698454E0,-4.698181152E-1,-1.006164551E-1,6.152038574E-1
8.099703337E0,-4.889984131E-1,-1.038208008E-1,6.215972900E-1
8.104677702E0,-5.071105957E-1,-1.027526855E-1,6.269226074E-1
8.109682585E0,-5.294799805E-1,-1.102142334E-1,6.237182617E-1
8.114687468E0,-5.571746826E-1,-1.634674072E-1,6.183929443E-1
8.119692350E0,-5.795440674E-1,-2.369689941E-1,6.130676270E-1
8.124697233E0,-5.806121826E-1,-2.987670898E-1,6.152038574E-1
8.129702116E0,-5.646362305E-1,-3.339080811E-1,6.141357422E-1
8.134676481E0,-5.411987305E-1,-3.552246094E-1,6.141357422E-1
8.139681364E0,-5.124359131E-1,-3.637390137E-1,6.141357422E-1
8.144686247E0,-4.794158936E-1,-3.584136963E-1,6.173248291E-1
8.149691130E0,-4.421234131E-1,-3.466949463E-1,6.162567139E-1
8.154696013E0,-4.016418457E-1,-3.317871094E-1,6.141357422E-1
8.159700895E0,-3.601074219E-1,-3.158111572E-1,6.077423096E-1
8.164675261E0,-3.228149414E-1,-3.019561768E-1,5.896301270E-1
8.169680143E0,-2.919311523E-1,-2.976989746E-1,5.608673096E-1
8.174685026E0,-2.727508545E-1,-3.051605225E-1,5.310363770E-1
8.179689909E0,-2.642211914E-1,-3.307189941E-1,5.065460205E-1
8.184694792E0,-2.514495850E-1,-3.797149658E-1,5.022735596E-1
8.189699675E0,-2.098999023E-1,-4.244689941E-1,5.214538574E-1
8.194674040E0,-1.321411133E-1,-4.244689941E-1,5.555419922E-1
8.199678923E0,-1.602172852E-2,-3.584136963E-1,5.928344727E-1
8.204683806E0,1.277923584E-1,-2.348480225E-1,6.290435791E-1
8.209688688E0,2.737274170E-1,-9.210205078E-2,6.535491943E-1
8.214693571E0,3.770599365E-1,4.745483398E-2,6.716613770E-1
8.219698454E0,4.239349365E-1,1.646270752E-1,6.855010986E-1
8.224672819E0,4.335174561E-1,2.328033447E-1,6.780548096E-1
8.229677702E0,4.175415039E-1,2.136383057E-1,6.428985596E-1
8.234682585E0,4.026336670E-1,6.875610352E-2,5.821685791E-1
8.239687468E0,3.909149170E-1,-2.028808594E-1,5.054779053E-1
8.244692350E0,4.004974365E-1,-5.512237549E-1,4.340972900E-1
8.249697233E0,4.452362061E-1,-9.059600830E-1,3.797760010E-1
8.254671598E0,5.379180908E-1,-1.196777344E0,3.467559814E-1
8.259676481E0,6.859893799E-1,-1.369354248E0,3.275756836E-1
8.264681364E0,8.809356689E-1,-1.403442383E0,3.275756836E-1
8.269686247E0,1.103576660E0,-1.309692383E0,3.382263184E-1
8.274691130E0,1.321945190E0,-1.134994507E0,3.456878662E-1
8.279665495E0,1.506240845E0,-9.400482178E-1,3.392944336E-1
8.284670378E0,1.636199951E0,-7.664184570E-1,3.222503662E-1
8.289675261E0,1.719299316E0,-6.236724854E-1,2.860260010E-1
8.294680143E0,1.795989990E0,-5.214080811E-1,2.253112793E-1
8.299685026E0,1.906784058E0,-4.585571289E-1,1.379547119E-1
8.304689909E0,2.080413818E0,-4.415130615E-1,2.185058594E-2
8.309664274E0,2.329696655E0,-4.606781006E-1,-1.113128662E-1
8.314669157E0,2.617309570E0,-4.958343506E-1,-2.391510010E-1
8.319674040E0,2.885757446E0,-5.363159180E-1,-3.605804443E-1
8.324678923E0,3.106262207E0,-5.853118896E-1,-4.681701660E-1
8.329683806E0,3.262863159E0,-6.428375244E-1,-5.704345703E-1
8.334688688E0,3.367263794E0,-7.206115723E-1,-6.695098877E-1
8.339663054E0,3.429046631E0,-8.175506592E-1,-7.557983398E-1
8.344667936E0,3.442886353E0,-9.986419678E-1,-8.420867920E-1
8.349672819E0,3.404541016E0,-1.270278931E0,-8.996124268E-1
8.354677702E0,3.301208496E0,-1.566421509E0,-9.347686768E-1
8.359682585E0,3.161666870E0,-1.897720337E0,-9.358215332E-1
8.364687468E0,3.006134033E0,-2.299331665E0,-9.155883789E-1
8.369661833E0,2.835693359E0,-2.727569580E0,-8.740386963E-1
8.374666716E0,2.640747070E0,-3.095077515E0,-8.005371094E-1
8.379671598E0,2.428756714E0,-3.323043823E0,-7.238464355E-1
8.384676481E0,2.219970703E0,-3.372055054E0,-6.535339355E-1
8.389681364E0,2.027160645E0,-3.188827515E0,-5.991973877E-1
8.394686247E0,1.880157471E0,-2.738220215E0,-6.151885986E-1
8.399660612E0,1.783218384E0,-2.093734741E0,-6.854858398E-1
8.404665495E0,1.692657471E0,-1.503570557E0,-7.749786377E-1
8.409670378E0,1.601043701E0,-1.065750122E0,-8.772430420E-1
8.414675261E0,1.487060547E0,-8.633575439E-1,-1.001876831E0
8.419680143E0,1.336868286E0,-9.315338135E-1,-1.149948120E0
8.424685026E0,1.128067017E0,-1.188262939E0,-1.294815063E0
8.429659391E0,9.118194580E-1,-1.370422363E0,-1.437561035E0
8.434664274E0,7.530975342E-1,-1.451370239E0,-1.545150757E0
8.439669157E0,6.497650146E-1,-1.432205200E0,-1.605880737E0
8.444674040E0,5.922393799E-1,-1.218078613E0,-1.627182007E0
8.449678923E0,5.794677734E-1,-8.505706787E-1,-1.625045776E0
8.454683806E0,5.901184082E-1,-4.138031006E-1,-1.599487305E0
8.459658171E0,5.975646973E-1,2.188110352E-2,-1.554748535E0
8.464663054E0,6.029052734E-1,4.341430664E-1,-1.500411987E0
8.469667936E0,5.933074951E-1,7.547912598E-1,-1.463134766E0
8.474672819E0,5.634765625E-1,9.827575684E-1,-1.454605103E0
8.479677702E0,5.208740234E-1,1.142547607E0,-1.468460083E0
8.484682585E0,4.676055908E-1,1.250137329E0,-1.487640381E0
8.489656950E0,4.090270996E-1,1.340682983E0,-1.496154785E0
8.494661833E0,3.632202148E-1,1.413116455E0,-1.484436035E0
8.499666716E0,3.216705322E-1,1.467453003E0,-1.465255737E0
8.504671598E0,2.779846191E-1,1.489822388E0,-1.437561035E0
8.509676481E0,2.172698975E-1,1.487686157E0,-1.407745361E0
8.514681364E0,1.427001953E-1,1.486618042E0,-1.368316650E0
8.519655729E0,5.108642578E-2,1.488754272E0,-1.320388794E0
8.524660612E0,-5.969238281E-2,1.483428955E0,-1.270324707E0
8.529665495E0,-1.832733154E-1,1.479171753E0,-1.223449707E0
8.534670378E0,-3.110961914E-1,1.479171753E0,-1.180831909E0
8.539675261E0,-4.325408936E-1,1.480224609E0,-1.132904053E0
8.544649626E0,-5.443878174E-1,1.488754272E0,-1.086029053E0
8.549654509E0,-6.360015869E-1,1.498336792E0,-1.042358398E0
8.554659391E0,-7.084503174E-1,1.506866455E0,-1.000808716E0
8.559664274E0,-7.606353760E-1,1.510055542E0,-9.603271484E-1
8.564669157E0,-7.957916260E-1,1.506866455E0,-9.251708984E-1
8.569674040E0,-8.192291260E-1,1.490875244E0,-8.932189941E-1
8.574648405E0,-8.352050781E-1,1.467453003E0,-8.687133789E-1
8.579653288E0,-8.426666260E-1,1.428039551E0,-8.399505615E-1
8.584658171E0,-8.533172607E-1,1.371566772E0,-8.026733398E-1
8.589663054E0,-8.671722412E-1,1.294876099E0,-7.600555420E-1
8.594667936E0,-8.831481934E-1,1.196868896E0,-7.131805420E-1
8.599672819E0,-9.140319824E-1,1.090347290E0,-6.588592529E-1
8.604647184E0,-9.566497803E-1,9.720916748E-1,-6.045227051E-1
8.609652067E0,-1.013107300E0,8.389434814E-1,-5.374145508E-1
8.614656950E0,-1.083419800E0,7.089843750E-1,-4.724426270E-1
8.619661833E0,-1.162246704E0,5.886077881E-1,-4.106445312E-1
8.624666716E0,-1.242141724E0,4.778137207E-1,-3.456726074E-1
8.629671598E0,-1.328430176E0,3.648986816E-1,-2.721710205E-1
8.634645964E0,-1.414718628E0,2.551727295E-1,-1.954650879E-1
8.639650847E0,-1.495666504E0,1.635589600E-1,-1.134490967E-1
8.644655729E0,-1.571304321E0,9.219360352E-2,-2.502441406E-2
8.649660612E0,-1.638412476E0,3.785705566E-2,6.658935547E-2
8.654665495E0,-1.697006226E0,-5.813598633E-3,1.560668945E-1
8.659670378E0,-1.747070312E0,-2.711486816E-2,2.423553467E-1
8.664644743E0,-1.787551880E0,-2.711486816E-2,3.201141357E-1
8.669649626E0,-1.813125610E0,-1.646423340E-2,3.946838379E-1
8.674654509E0,-1.828033447E0,3.768920898E-3,4.586029053E-1
8.679659391E0,-1.818450928E0,4.106140137E-2,5.097351074E-1
8.684664274E0,-1.781158447E0,9.326171875E-2,5.374298096E-1
8.689669157E0,-1.695938110E0,1.390686035E-1,5.214538574E-1
8.694643522E0,-1.542541504E0,1.816711426E-1,4.916229248E-1
8.699648405E0,-1.317779541E0,2.413330078E-1,4.586029053E-1
8.704653288E0,-1.007781982E0,3.435974121E-1,4.191894531E-1
8.709658171E0,-5.688934326E-1,4.937896729E-1,3.520812988E-1
8.714663054E0,1.150054932E-1,7.366790771E-1,2.008056641E-1
8.719667936E0,1.164291382E0,1.187286377E0,-1.272888184E-1
8.724642302E0,2.211441040E0,1.854141235E0,-7.238464355E-1
8.729647184E0,2.681228638E0,2.588104248E0,-1.326782227E0
8.734652067E0,2.611984253E0,2.806488037E0,-1.650619507E0
8.739656950E0,2.272171021E0,2.237640381E0,-1.753952026E0
8.744661833E0,1.826889038E0,1.330032349E0,-1.764602661E0
8.749666716E0,1.388000488E0,5.609130859E-1,-1.736907959E0
8.754641081E0,9.757385254E-1,1.177520752E-1,-1.685775757E0
8.759645964E0,5.730743408E-1,-2.359161377E-1,-1.606948853E0
8.764650847E0,1.874389648E-1,-6.833190918E-1,-1.475921631E0
8.769655729E0,-1.534423828E-1,-1.250045776E0,-1.271377563E0
8.774660612E0,-4.261474609E-1,-1.854049683E0,-1.015716553E0
8.779634977E0,-6.189575195E-1,-2.316375732E0,-7.408905029E-1
8.784639860E0,-7.201538086E-1,-2.528366089E0,-4.660491943E-1
8.789644743E0,-7.414703369E-1,-2.458053589E0,-1.816253662E-1
8.794649626E0,-7.105712891E-1,-2.157653809E0,9.109497070E-2
8.799654509E0,-6.317443848E-1,-1.721954346E0,3.563385010E-1
8.804659391E0,-5.337371826E-1,-1.136062622E0,5.896301270E-1
8.809633757E0,-4.495849609E-1,-4.106140137E-1,8.101348877E-1
8.814638640E0,-4.176330566E-1,3.116302490E-1,1.021057129E0
8.819643522E0,-4.868621826E-1,9.571838379E-1,1.197891235E0
8.824648405E0,-6.605072021E-1,1.539886475E0,1.322540283E0
8.829653288E0,-9.023284912E-1,2.090621948E0,1.406692505E0
8.834658171E0,-1.156921387E0,2.568923950E0,1.456756592E0
8.839632536E0,-1.412582397E0,2.892776489E0,1.474868774E0
8.844637419E0,-1.674636841E0,3.015274048E0,1.446105957E0
8.849642302E0,-1.890884399E0,2.971603394E0,1.386444092E0
8.854647184E0,-2.022979736E0,2.772399902E0,1.290573120E0
8.859652067E0,-2.073043823E0,2.400619507E0,1.151031494E0
8.864656950E0,-2.050674438E0,1.887161255E0,9.635467529E-1
8.869631315E0,-2.002746582E0,1.240539551E0,7.451629639E-1
8.874636198E0,-1.984634399E0,4.533081055E-1,5.299835205E-1
8.879641081E0,-2.025115967E0,-4.340515137E-1,3.531494141E-1
8.884645964E0,-2.123107910E0,-1.338455200E0,2.732543945E-1
8.889650847E0,-2.212600708E0,-2.186416626E0,3.105316162E-1
8.894655729E0,-2.162521362E0,-2.968307495E0,4.319763184E-1
8.899630095E0,-1.923904419E0,-3.587234497E0,5.395660400E-1
8.904634977E0,-1.490341187E0,-3.776855469E0,4.522094727E-1
8.909639860E0,-8.969879150E-1,-3.231430054E0,1.602172852E-3
8.914644743E0,-3.398590088E-1,-2.024490356E0,-7.483367920E-1
8.919649626E0,4.896545410E-2,-7.259368896E-1,-1.399215698E0
8.924654509E0,2.588195801E-1,2.541046143E-1,-1.605880737E0
8.929628874E0,3.845214844E-1,7.792816162E-1,-1.447158813E0
8.934633757E0,4.494934082E-1,8.794250488E-1,-1.144622803E0
8.939638640E0,5.144805908E-1,6.844787598E-1,-8.058624268E-1
8.944643522E0,6.092834473E-1,4.618377686E-1,-4.426116943E-1
8.949648405E0,6.838531494E-1,3.126983643E-1,5.340576172E-4
8.954653288E0,7.392578125E-1,2.519836426E-1,4.895019531E-1
8.959627653E0,7.552337646E-1,3.169555664E-1,9.720611572E-1
8.964632536E0,7.008972168E-1,4.735565186E-1,1.343841553E0
8.969637419E0,6.359252930E-1,6.258850098E-1,1.611221313E0
8.974642302E0,5.997009277E-1,7.792816162E-1,1.838119507E0
8.979647184E0,5.688018799E-1,8.847503662E-1,2.026672363E0
8.984652067E0,4.931793213E-1,9.316253662E-1,2.143859863E0
8.989626432E0,3.440399170E-1,1.023239136E0,2.147048950E0
8.994631315E0,1.054229736E-1,1.127624512E0,2.024536133E0
8.999636198E0,-2.024383545E-1,1.205398560E0,1.800842285E0
9.004641081E0,-5.422668457E-1,1.222442627E0,1.520675659E0
9.009645964E0,-8.874053955E-1,1.168106079E0,1.161682129E0
9.014650847E0,-1.175033569E0,1.008316040E0,7.345123291E-1
9.019625212E0,-1.384887695E0,6.855468750E-1,2.743072510E-1
9.024630095E0,-1.499938965E0,2.019195557E-1,-1.507263184E-1
9.029634977E0,-1.481826782E0,-2.966308594E-1,-4.521942139E-1
9.034639860E0,-1.394470215E0,-7.355194092E-1,-5.811004639E-1
9.039644743E0,-1.314575195E0,-1.108367920E0,-6.066589355E-1
9.044619108E0,-1.268768311E0,-1.357635498E0,-6.194458008E-1
9.049623991E0,-1.241073608E0,-1.467361450E0,-6.269073486E-1
9.054628874E0,-1.244277954E0,-1.409835815E0,-6.290283203E-1
9.059633757E0,-1.250656128E0,-1.231933594E0,-5.949401855E-1
9.064638640E0,-1.230422974E0,-9.645538330E-1,-5.161132812E-1
9.069643522E0,-1.180358887E0,-6.566925049E-1,-4.085235596E-1
9.074617888E0,-1.083419800E0,-3.786621094E-1,-2.615203857E-1
9.079622770E0,-9.502563477E-1,-2.241973877E-1,-8.255004883E-2
9.084627653E0,-8.213653564E-1,-1.485595703E-1,9.535217285E-2
9.089632536E0,-7.286834717E-1,-1.336517334E-1,2.764434814E-1
9.094637419E0,-6.636962891E-1,-1.027526855E-1,4.543457031E-1
9.099642302E0,-6.147003174E-1,-5.908203125E-2,6.088104248E-1
9.104616667E0,-5.859375000E-1,1.016235352E-2,7.355804443E-1
9.109621550E0,-5.806121826E-1,9.645080566E-2,8.144073486E-1
9.114626432E0,-6.061706543E-1,1.784820557E-1,8.410339355E-1
9.119631315E0,-6.338806152E-1,1.688842773E-1,8.495635986E-1
9.124636198E0,-6.541137695E-1,6.982421875E-2,8.495635986E-1
9.129641081E0,-6.722259521E-1,-6.440734863E-2,8.293151855E-1
9.134615446E0,-6.850128174E-1,-1.890411377E-1,7.877655029E-1
9.139620329E0,-6.956634521E-1,-2.838439941E-1,7.313079834E-1
9.144625212E0,-7.031097412E-1,-3.435058594E-1,6.641998291E-1
9.149630095E0,-7.009887695E-1,-3.988952637E-1,5.800476074E-1
9.154634977E0,-6.903381348E-1,-4.745330811E-1,4.916229248E-1
9.159639860E0,-6.754150391E-1,-5.863800049E-1,4.138641357E-1
9.164614225E0,-6.583709717E-1,-7.163391113E-1,3.605957031E-1
9.169619108E0,-6.487884521E-1,-8.239440918E-1,3.329010010E-1
9.174623991E0,-6.445312500E-1,-8.931732178E-1,3.137359619E-1
9.179628874E0,-6.306762695E-1,-9.251403809E-1,3.094635010E-1
9.184633757E0,-6.157684326E-1,-9.027709961E-1,3.201141357E-1
9.189638640E0,-6.008453369E-1,-8.303222656E-1,3.382263184E-1
9.194613005E0,-5.923309326E-1,-7.238006592E-1,3.691253662E-1
9.199617888E0,-5.891265869E-1,-5.980987549E-1,4.032135010E-1
9.204622770E0,-5.870056152E-1,-4.883728027E-1,4.404907227E-1
9.209627653E0,-5.838012695E-1,-3.978271484E-1,4.777832031E-1
9.214632536E0,-5.848693848E-1,-3.275299072E-1,5.054779053E-1
9.219637419E0,-5.901947021E-1,-2.795867920E-1,5.246582031E-1
9.224611784E0,-5.965881348E-1,-2.561492920E-1,5.384979248E-1
9.229616667E0,-6.051177979E-1,-2.486877441E-1,5.459594727E-1
9.234621550E0,-6.168365479E-1,-2.529602051E-1,5.470275879E-1
9.239626432E0,-6.306762695E-1,-2.636108398E-1,5.438232422E-1
9.244631315E0,-6.434631348E-1,-2.721252441E-1,5.395660400E-1
9.249636198E0,-6.573028564E-1,-2.838439941E-1,5.331726074E-1
9.254610563E0,-6.647644043E-1,-2.923736572E-1,5.267791748E-1
9.259615446E0,-6.541137695E-1,-2.529602051E-1,5.310363770E-1
9.264620329E0,-6.381378174E-1,-2.518920898E-1,5.246582031E-1
9.269625212E0,-6.349334717E-1,-2.966308594E-1,5.139923096E-1
9.274630095E0,-6.253509521E-1,-3.616180420E-1,5.182647705E-1
9.279604460E0,-5.880737305E-1,-4.255218506E-1,5.267791748E-1
9.284609343E0,-5.241546631E-1,-4.670715332E-1,5.353088379E-1
9.289614225E0,-4.442596436E-1,-4.606781006E-1,5.384979248E-1
9.294619108E0,-3.558349609E-1,-4.116821289E-1,5.363616943E-1
9.299623991E0,-2.791442871E-1,-3.498992920E-1,5.246582031E-1
9.304628874E0,-2.194824219E-1,-2.944946289E-1,5.086669922E-1
9.309603239E0,-1.811370850E-1,-2.486877441E-1,4.926910400E-1
9.314608122E0,-1.598358154E-1,-2.231292725E-1,4.820404053E-1
9.319613005E0,-1.449127197E-1,-2.082214355E-1,4.809722900E-1
9.324617888E0,-1.214752197E-1,-2.007598877E-1,4.862976074E-1
9.329622770E0,-8.100891113E-2,-1.975555420E-1,4.926910400E-1
9.334627653E0,-2.241516113E-2,-1.901092529E-1,4.948272705E-1
9.339602018E0,5.001831055E-2,-1.751861572E-1,5.012207031E-1
9.344606901E0,1.224670410E-1,-1.496276855E-1,5.076141357E-1
9.349611784E0,1.831817627E-1,-1.176605225E-1,5.086669922E-1
9.354616667E0,2.332458496E-1,-8.357238770E-2,5.001525879E-1
9.359621550E0,2.694702148E-1,-7.292175293E-2,4.788513184E-1
9.364626432E0,2.960968018E-1,-1.006164551E-1,4.479522705E-1
9.369600798E0,3.152770996E-1,-1.773223877E-1,4.138641357E-1
9.374605681E0,3.333892822E-1,-3.008880615E-1,3.819122314E-1
9.379610563E0,3.632202148E-1,-4.553527832E-1,3.520812988E-1
9.384615446E0,4.143524170E-1,-6.268615723E-1,3.329010010E-1
9.389620329E0,4.942474365E-1,-7.855834961E-1,3.233184814E-1
9.394625212E0,6.029052734E-1,-8.910522461E-1,3.190612793E-1
9.399599577E0,7.381896973E-1,-9.272613525E-1,3.169250488E-1
9.404604460E0,8.937225342E-1,-9.027709961E-1,3.105316162E-1
9.409609343E0,1.054565430E0,-8.335266113E-1,3.041381836E-1
9.414614225E0,1.207962036E0,-7.301940918E-1,2.934875488E-1
9.419619108E0,1.333663940E0,-6.002349854E-1,2.668609619E-1
9.424623991E0,1.430603027E0,-4.542846680E-1,2.274475098E-1
9.429598356E0,1.515823364E0,-3.243255615E-1,1.784362793E-1
9.434603239E0,1.626617432E0,-2.540130615E-1,1.230468750E-1
9.439608122E0,1.790664673E0,-2.582855225E-1,6.126403809E-2
9.444613005E0,2.019699097E0,-3.488311768E-1,-5.844116211E-3
9.449617888E0,2.292404175E0,-5.054168701E-1,-8.361816406E-2
9.454622770E0,2.574707031E0,-6.790618896E-1,-1.667022705E-1
9.459597136E0,2.829299927E0,-8.164825439E-1,-2.508544922E-1
9.464602018E0,3.030639648E0,-8.984985352E-1,-3.179779053E-1
9.469606901E0,3.182968140E0,-9.027709961E-1,-3.637847900E-1
9.474611784E0,3.301208496E0,-8.665466309E-1,-4.202423096E-1
9.479616667E0,3.380035400E0,-8.516387939E-1,-4.990692139E-1
9.484621550E0,3.412002563E0,-9.048919678E-1,-5.938720703E-1
9.489595915E0,3.384307861E0,-1.059356689E0,-6.482086182E-1
9.494600798E0,3.305480957E0,-1.270278931E0,-6.599273682E-1
9.499605681E0,3.215988159E0,-1.579208374E0,-6.492767334E-1
9.504610563E0,3.116928101E0,-2.034072876E0,-6.322326660E-1
9.509615446E0,2.973114014E0,-2.564575195E0,-5.981445312E-1
9.514620329E0,2.772842407E0,-3.043945312E0,-5.214385986E-1
9.519594694E0,2.537414551E0,-3.360336304E0,-4.575195312E-1
9.524599577E0,2.300933838E0,-3.374176025E0,-4.479370117E-1
9.529604460E0,2.100662231E0,-3.171783447E0,-4.884185791E-1
9.534609343E0,1.928085327E0,-2.981094360E0,-5.725708008E-1
9.539614225E0,1.767227173E0,-2.632751465E0,-6.886901855E-1
9.544588591E0,1.648986816E0,-2.202392578E0,-7.973480225E-1
9.549593473E0,1.521148682E0,-1.746459961E0,-9.091949463E-1
9.554598356E0,1.413558960E0,-1.394912720E0,-1.015716553E0
9.559603239E0,1.313430786E0,-1.168014526E0,-1.104141235E0
9.564608122E0,1.195190430E0,-1.081726074E0,-1.169113159E0
9.569613005E0,1.052444458E0,-1.084930420E0,-1.230911255E0
9.574587370E0,9.203491211E-1,-1.071075439E0,-1.284164429E0
9.579592253E0,8.234100342E-1,-9.656219482E-1,-1.335296631E0
9.584597136E0,7.722778320E-1,-7.909088135E-1,-1.371520996E0
9.589602018E0,7.616271973E-1,-5.458984375E-1,-1.373657227E0
9.594606901E0,8.031616211E-1,-2.561492920E-1,-1.350219727E0
9.599611784E0,8.841247559E-1,4.425048828E-2,-1.317184448E0
9.604586149E0,9.629516602E-1,3.659667969E-1,-1.277770996E0
9.609591032E0,1.005569458E0,6.748962402E-1,-1.239425659E0
9.614595915E0,1.006637573E0,9.220275879E-1,-1.213867188E0
9.619600798E0,9.725494385E-1,1.079696655E0,-1.203201294E0
9.624605681E0,9.096984863E-1,1.144668579E0,-1.207473755E0
9.629610563E0,8.340606689E-1,1.147872925E0,-1.222381592E0
9.634584929E0,7.530975342E-1,1.128692627E0,-1.246887207E0
9.639589811E0,6.668090820E-1,1.102066040E0,-1.277770996E0
9.644594694E0,5.751953125E-1,1.070098877E0,-1.305480957E0
9.649599577E0,4.761352539E-1,1.036010742E0,-1.325714111E0
9.654604460E0,3.738708496E-1,1.000854492E0,-1.335296631E0
9.659609343E0,2.737274170E-1,9.699707031E-1,-1.333175659E0
9.664583708E0,1.799926758E-1,9.550476074E-1,-1.316131592E0
9.669588591E0,1.011657715E-1,9.646453857E-1,-1.288436890E0
9.674593473E0,3.617858887E-2,9.998016357E-1,-1.255401611E0
9.679598356E0,-1.815795898E-2,1.049865723E0,-1.217056274E0
9.684603239E0,-6.289672852E-2,1.097793579E0,-1.179779053E0
9.689608122E0,-1.001739502E-1,1.146804810E0,-1.138229370E0
9.694582487E0,-1.331939697E-1,1.180892944E0,-1.094558716E0
9.699587370E0,-1.619567871E-1,1.203262329E0,-1.051940918E0
9.704592253E0,-1.907196045E-1,1.200073242E0,-1.007202148E0
9.709597136E0,-2.130889893E-1,1.175567627E0,-9.603271484E-1
9.714602018E0,-2.354583740E-1,1.118041992E0,-9.155883789E-1
9.719606901E0,-2.621002197E-1,1.059448242E0,-8.665771484E-1
9.724581266E0,-2.972564697E-1,1.000854492E0,-8.143920898E-1
9.729586149E0,-3.387908936E-1,9.294891357E-1,-7.643127441E-1
9.734591032E0,-3.878021240E-1,8.570556641E-1,-7.163848877E-1
9.739595915E0,-4.517211914E-1,7.814178467E-1,-6.641845703E-1
9.744600798E0,-5.252227783E-1,7.047119141E-1,-6.151885986E-1
9.749605681E0,-6.083068848E-1,6.237640381E-1,-5.629882812E-1
9.754580046E0,-7.031097412E-1,5.374755859E-1,-5.075836182E-1
9.759584929E0,-8.032531738E-1,4.447937012E-1,-4.500732422E-1
9.764589811E0,-9.161682129E-1,3.382720947E-1,-3.893432617E-1
9.769594694E0,-1.036544800E0,2.082977295E-1,-3.254241943E-1
9.774599577E0,-1.156921387E0,6.661987305E-2,-2.476654053E-1
9.779604460E0,-1.269836426E0,-6.440734863E-2,-1.645812988E-1
9.784578825E0,-1.376358032E0,-1.847839355E-1,-7.722473145E-2
9.789583708E0,-1.472244263E0,-2.944946289E-1,1.013183594E-2
9.794588591E0,-1.562789917E0,-3.829193115E-1,1.028137207E-1
9.799593473E0,-1.642684937E0,-4.436340332E-1,1.997528076E-1
9.804598356E0,-1.707656860E0,-4.809265137E-1,2.977447510E-1
9.809572722E0,-1.771575928E0,-5.256652832E-1,3.946838379E-1
9.814577604E0,-1.832290649E0,-5.842590332E-1,4.916229248E-1
9.819582487E0,-1.890884399E0,-6.385803223E-1,5.843048096E-1
9.824587370E0,-1.943084717E0,-6.673431396E-1,6.631317139E-1
9.829592253E0,-1.982498169E0,-6.566925049E-1,7.281188965E-1
9.834597136E0,-2.001678467E0,-6.044921875E-1,7.717895508E-1
9.839571501E0,-1.992080688E0,-5.160827637E-1,7.856445312E-1
9.844576384E0,-1.933502197E0,-3.999633789E-1,7.728576660E-1
9.849581266E0,-1.802474976E0,-2.604064941E-1,7.323760986E-1
9.854586149E0,-1.579833984E0,-9.317016602E-2,6.610107422E-1
9.859591032E0,-1.268768311E0,9.645080566E-2,5.715179443E-1
9.864595915E0,-8.650360107E-1,2.935180664E-1,4.884338379E-1
9.869570280E0,-2.748870850E-1,5.502471924E-1,3.712463379E-1
9.874575163E0,6.636199951E-1,8.804931641E-1,6.233215332E-2
9.879580046E0,1.582946777E0,1.453598022E0,-4.937438965E-1
9.884584929E0,2.019699097E0,2.032043457E0,-1.065795898E0
9.889589811E0,1.976028442E0,2.184371948E0,-1.382171631E0
9.894594694E0,1.646850586E0,1.792358398E0,-1.450347900E0
9.899569059E0,1.270812988E0,1.058380127E0,-1.447158813E0
9.904573942E0,9.288635254E-1,4.117736816E-1,-1.481246948E0
9.909578825E0,5.847930908E-1,-3.677368164E-3,-1.492965698E0
9.914583708E0,2.034301758E-1,-3.509521484E-1,-1.429046631E0
9.919588591E0,-1.917877197E-1,-7.632141113E-1,-1.249008179E0
9.924593473E0,-5.156250000E-1,-1.211700439E0,-9.507446289E-1
9.929567839E0,-7.286834717E-1,-1.533401489E0,-5.885467529E-1
9.934572722E0,-8.298797607E-1,-1.587738037E0,-2.199707031E-1
9.939577604E0,-8.384094238E-1,-1.361892700E0,1.347656250E-1
9.944582487E0,-7.968597412E-1,-9.847869873E-1,4.862976074E-1
9.949587370E0,-7.627716064E-1,-6.034240723E-1,8.452911377E-1
9.954592253E0,-7.862091064E-1,-2.859802246E-1,1.204284668E0
9.959566618E0,-8.618469238E-1,-2.818298340E-2,1.543045044E0
9.964571501E0,-9.928741455E-1,3.020477295E-1,1.860488892E0
9.969576384E0,-1.156921387E0,7.111053467E-1,2.201370239E0
9.974581266E0,-1.371032715E0,1.111648560E0,2.574218750E0
9.979586149E0,-1.619247437E0,1.448272705E0,2.903381348E0
9.984591032E0,-1.752395630E0,1.581436157E0,3.025894165E0
9.989565397E0,-1.690612793E0,1.585693359E0,2.705245972E0
9.994570280E0,-1.426437378E0,1.611251831E0,1.904174805E0
9.999575163E0,-8.128356934E-1,1.620849609E0,8.165283203E-1
1.000458005E1,-2.027893066E-2,1.552673340E0,-2.796173096E-1
1.000958493E1,3.791961670E-1,1.209655762E0,-1.060455322E0
1.001458981E1,3.206024170E-1,5.875396729E-1,-1.353408813E0
1.001956418E1,-2.166748047E-3,-1.932983398E-1,-1.340621948E0
1.002456906E1,-3.409271240E-1,-1.061492920E0,-1.205337524E0
1.002957394E1,-5.241546631E-1,-1.819961548E0,-1.012527466E0
1.003457882E1,-5.198974609E-1,-2.327026367E0,-7.824249268E-1
1.003958371E1,-3.845977783E-1,-2.573104858E0,-4.777679443E-1
1.004458859E1,-2.450561523E-1,-2.452728271E0,-3.355407715E-2
1.004956296E1,-1.683502197E-1,-1.977615356E0,4.351654053E-1
1.005456784E1,-8.952331543E-2,-1.424743652E0,8.282470703E-1
1.005957272E1,-1.161499023E-1,-8.228759766E-1,1.094573975E0
