"Time (s)","Acceleration x (m/s^2)","Acceleration y (m/s^2)","Acceleration z (m/s^2)"
0.000000000E0,1.489532143E-1,3.812364578E0,8.606385231E0
1.004401100E-2,4.175475538E-1,3.845864296E0,8.366504669E0
1.255505200E-2,5.898307562E-1,3.740580082E0,8.496315002E0
1.506604200E-2,8.051848412E-1,3.649652719E0,8.458029747E0
1.761468800E-2,8.817551732E-1,3.778865099E0,8.266005516E0
2.012572900E-2,9.397810698E-1,3.783650875E0,8.194221497E0
2.263671900E-2,9.493523836E-1,3.826721668E0,8.031509399E0
2.514770900E-2,9.972088337E-1,3.812364578E0,7.916653633E0
2.765875000E-2,1.001994491E0,3.778865099E0,7.724629879E0
3.016974000E-2,9.200403094E-1,3.783650875E0,7.514061451E0
3.268078100E-2,9.200403094E-1,3.711866140E0,7.485347271E0
3.519177100E-2,9.248259664E-1,3.654438496E0,7.514061451E0
3.770276100E-2,9.445667267E-1,3.587439299E0,7.494918823E0
4.021375000E-2,9.589236975E-1,3.510869026E0,7.533204079E0
4.272479200E-2,9.637092948E-1,3.530011654E0,7.518846989E0
4.523578100E-2,9.876375198E-1,3.506083488E0,7.657630444E0
4.774682300E-2,9.637092948E-1,3.482155085E0,7.772486210E0
5.025781300E-2,8.434699774E-1,3.448057413E0,7.796414375E0
5.283734400E-2,7.764709592E-1,3.443271875E0,7.872984886E0
5.534833400E-2,5.994020700E-1,3.428914785E0,7.945367813E0
5.785937500E-2,3.930211067E-1,3.443271875E0,8.194221497E0
6.037036500E-2,2.973082066E-1,3.534797192E0,8.385646820E0
6.288135400E-2,1.920240223E-1,3.606581926E0,8.544171333E0
6.539234400E-2,1.250249892E-1,3.687937975E0,8.788239479E0
6.790338600E-2,1.106680483E-1,3.764508247E0,9.047262192E0
7.041437500E-2,8.673982322E-2,3.793222189E0,9.286544800E0
7.292541700E-2,9.152546525E-2,3.841078520E0,9.482755661E0
7.543640600E-2,-2.967100143E-1,3.692723513E0,9.559925079E0
7.794739600E-2,-2.009970993E-1,3.620938778E0,9.689137459E0
8.045843800E-2,4.366901144E-2,3.539582968E0,9.765707016E0
8.300625000E-2,-4.247260094E-2,3.266202927E0,9.890133858E0
8.551724000E-2,2.452643216E-2,3.184846878E0,9.966704369E0
8.802828100E-2,1.824527234E-1,3.113062143E0,1.010130119E1
9.053927100E-2,4.127618968E-1,2.998206854E0,1.039322472E1
9.305026100E-2,7.286145091E-1,2.921038151E0,1.061874866E1
9.556130200E-2,1.059422255E0,2.825325251E0,1.079581738E1
9.807229200E-2,1.375274777E0,2.739183664E0,1.094417286E1
1.005832810E-1,1.691725612E0,2.662613392E0,1.103031445E1
1.030943230E-1,1.950150490E0,2.528615236E0,1.109252739E1
1.056053130E-1,2.137388945E0,2.394019127E0,1.109252739E1
1.081163020E-1,2.237887383E0,2.322234392E0,1.094895840E1
1.106273440E-1,2.314457655E0,2.264806747E0,1.085324574E1
1.131707810E-1,2.424527645E0,2.221735716E0,1.071924686E1
1.156817710E-1,2.448455811E0,2.183450699E0,1.050808048E1
1.181928130E-1,2.400599241E0,2.260020971E0,1.038365364E1
1.207038020E-1,2.271386862E0,2.495115757E0,1.057986546E1
1.232147920E-1,2.304886341E0,2.571686029E0,1.032622623E1
1.257258340E-1,2.194816589E0,2.633899450E0,9.933204651E0
1.282368230E-1,2.022533417E0,2.724826813E0,9.631709099E0
1.307478130E-1,1.844866276E0,2.830111027E0,9.420542717E0
1.332588540E-1,1.792224169E0,3.127419233E0,9.209974289E0
1.357698440E-1,1.610369682E0,3.342773199E0,8.898308754E0
1.382808340E-1,1.461416483E0,3.544368505E0,8.630312920E0
1.407918750E-1,1.317847013E0,3.640081406E0,8.423932076E0
1.433353130E-1,1.155135155E0,3.659224033E0,8.289934158E0
1.458463020E-1,1.001994491E0,3.654438496E0,8.160721779E0
1.483573440E-1,8.338986635E-1,3.659224033E0,8.074580193E0
1.508683340E-1,8.434699774E-1,3.764508247E0,8.136793137E0
1.533793230E-1,8.099704385E-1,3.865006685E0,8.199007034E0
1.558903650E-1,7.573283911E-1,3.908077478E0,8.203792572E0
1.584013540E-1,7.190431952E-1,3.941577196E0,8.155936241E0
1.609123440E-1,6.903293133E-1,3.955934048E0,8.112865448E0
1.634233860E-1,7.668996453E-1,4.037888050E0,8.031509399E0
1.659343750E-1,7.956135273E-1,4.095315933E0,7.882555962E0
1.684453650E-1,7.812566161E-1,4.157529354E0,7.772486210E0
1.709564060E-1,7.477570772E-1,4.119244099E0,7.609774113E0
1.734998440E-1,7.525427341E-1,4.205385685E0,7.528418064E0
1.760108340E-1,6.616154313E-1,4.229313850E0,7.375277519E0
1.785218750E-1,5.898307562E-1,4.262813568E0,7.221538544E0
1.810328650E-1,5.563312769E-1,4.286741734E0,7.111468792E0
1.835438540E-1,4.366901219E-1,4.339384079E0,7.101897717E0
1.860548960E-1,3.355933726E-1,4.363312244E0,7.015756130E0
1.885658860E-1,3.260220885E-1,4.353740692E0,6.953542709E0
1.910768750E-1,3.643072546E-1,4.305884361E0,6.814160824E0
1.935879170E-1,4.175475538E-1,4.167100430E0,6.766304016E0
1.960989060E-1,5.898307562E-1,3.994219303E0,6.900900364E0
1.986098960E-1,7.908278704E-1,3.826721668E0,7.111468792E0
2.011209380E-1,1.030708313E0,3.563511133E0,7.101897717E0
2.036643230E-1,1.341775298E0,3.347558975E0,7.202396393E0
2.061753130E-1,1.696511269E0,3.093919754E0,7.590631485E0
2.086863540E-1,1.983649969E0,2.839682341E0,8.026723862E0
2.111973440E-1,2.199602127E0,2.619542599E0,8.385646820E0
2.137083340E-1,2.362314224E0,2.461616278E0,8.759525299E0
2.162193750E-1,2.290529490E0,2.216950178E0,8.999405861E0
2.187303650E-1,2.328814745E0,2.082952023E0,9.152546883E0
2.212413540E-1,2.309672117E0,2.216950178E0,9.372686386E0
2.237523960E-1,2.127817631E0,2.274377823E0,9.813564301E0
2.262633860E-1,1.854437590E0,2.288734913E0,1.019701385E1
2.287743750E-1,1.408774376E0,2.063809633E0,1.056072235E1
2.312854170E-1,1.246062398E0,2.159522533E0,1.055115128E1
2.338289060E-1,1.049850941E0,2.312663078E0,1.065224838E1
2.363398960E-1,9.445667267E-1,2.355733871E0,1.083410263E1
2.388509380E-1,8.386843204E-1,2.298306227E0,1.104945660E1
2.413619270E-1,7.238288522E-1,2.202593327E0,1.107817078E1
2.438729170E-1,6.855437160E-1,2.255235434E0,1.104467106E1
2.463839590E-1,6.520441771E-1,2.250449657E0,1.102552891E1
2.488949480E-1,6.711867452E-1,2.288734913E0,1.106859970E1
2.514059380E-1,6.855437160E-1,2.336591244E0,1.121276665E1
2.539169790E-1,7.094719410E-1,2.509472847E0,1.134676456E1
2.564279690E-1,7.190431952E-1,2.562114954E0,1.145683479E1
2.589389590E-1,7.621139884E-1,2.681756020E0,1.145683479E1
2.614500000E-1,7.381857634E-1,2.820539713E0,1.142812061E1
2.639934380E-1,7.764709592E-1,2.877967358E0,1.138504982E1
2.665044270E-1,8.243274093E-1,2.988635540E0,1.128455162E1
2.690154690E-1,8.865407705E-1,3.065205812E0,1.124148083E1
2.715264590E-1,9.104689956E-1,3.103491068E0,1.126540947E1
2.740374480E-1,8.769695163E-1,3.156133175E0,1.112662506E1
2.765484900E-1,8.865407705E-1,3.237488985E0,1.076231766E1
2.790594790E-1,9.397810698E-1,3.352344513E0,1.041236782E1
2.815704690E-1,8.721838593E-1,3.482155085E0,1.025922680E1
2.840815110E-1,7.764709592E-1,3.510869026E0,9.985847473E0
2.865925000E-1,6.855437160E-1,3.452843189E0,9.736993790E0
2.891034900E-1,5.180460811E-1,3.395415306E0,9.439684868E0
2.916145310E-1,3.116651475E-1,3.165704250E0,9.166903496E0
2.941579690E-1,1.441675574E-1,3.012563705E0,8.745168686E0
2.966689590E-1,8.195417374E-2,3.026920557E0,8.390432358E0
2.991800000E-1,1.537388563E-1,3.098705292E0,8.199007034E0
3.016909900E-1,2.159522474E-1,3.156133175E0,8.160721779E0
3.042019790E-1,1.824527234E-1,3.089133978E0,8.112865448E0
3.067130210E-1,8.673982322E-2,2.955136061E0,8.041080475E0
3.092240110E-1,6.759724021E-2,2.839682341E0,7.907082558E0
3.117350000E-1,8.195417374E-2,2.777468920E0,7.738986492E0
3.142460420E-1,2.255235314E-1,2.720041037E0,7.614559650E0
3.167570310E-1,3.308077157E-1,2.676970243E0,7.686344624E0
3.192680210E-1,3.116651475E-1,2.538186550E0,7.820342541E0
3.217790630E-1,3.786641955E-1,2.519043922E0,7.820342541E0
3.243225000E-1,5.706881881E-1,2.753540754E0,7.820342541E0
3.268334900E-1,6.759724021E-1,2.897109985E0,7.844270706E0
3.293445310E-1,6.089733839E-1,2.724826813E0,7.921439171E0
3.318555210E-1,6.520441771E-1,2.686541557E0,7.926225185E0
3.343665110E-1,8.626125455E-1,2.777468920E0,7.974081516E0
3.368775520E-1,1.083350420E0,2.901895761E0,7.978867054E0
3.393885420E-1,1.279561877E0,2.935395241E0,8.146365166E0
3.418995310E-1,1.164706469E0,2.782254457E0,8.615956306E0
3.444105730E-1,1.001994491E0,2.586043119E0,8.874381065E0
3.469215630E-1,8.721838593E-1,2.403590441E0,9.080761909E0
3.494325520E-1,7.764709592E-1,2.274377823E0,9.358329773E0
3.519435940E-1,6.376872063E-1,2.116451740E0,9.669994354E0
3.544870840E-1,5.515456200E-1,2.001596212E0,9.971489906E0
3.569980730E-1,5.036891699E-1,1.953739643E0,1.025444126E1
3.595091150E-1,4.127618968E-1,1.886740685E0,1.053200912E1
3.620201040E-1,3.451646566E-1,1.694716692E0,1.085324574E1
3.645310940E-1,4.175475538E-1,1.661217093E0,1.092502975E1
3.670421360E-1,5.994020700E-1,1.737787485E0,1.122233772E1
3.695531250E-1,8.243274093E-1,1.713859200E0,1.175414276E1
3.720641150E-1,1.150349498E0,1.555932879E0,1.209392357E1
3.745751560E-1,1.557727575E0,1.407577872E0,1.218485069E1
3.770861460E-1,1.921436548E0,1.282552958E0,1.198863983E1
3.795971360E-1,2.127817631E0,1.115055323E0,1.161954689E1
3.821081770E-1,2.357528448E0,8.709874153E-1,1.116012478E1
3.846516150E-1,2.544766903E0,7.459624410E-1,1.103509998E1
3.871626040E-1,2.817548752E0,5.641079545E-1,1.114576817E1
3.896736460E-1,3.177070379E0,2.817548811E-1,1.108295631E1
3.921846360E-1,2.994617462E0,2.141576260E-1,1.080060291E1
3.946956250E-1,2.347957134E0,1.567298770E-1,1.046500969E1
3.972066670E-1,1.572084427E0,-2.512463741E-2,1.027358437E1
3.997176560E-1,9.008977413E-1,-1.782652885E-1,1.017308521E1
4.022286460E-1,3.499503136E-1,-3.511467278E-1,1.020658493E1
4.047396880E-1,-1.286142170E-1,-4.325026870E-1,1.035015392E1
4.072506770E-1,-5.982056856E-1,-4.037888348E-1,1.046500969E1
4.097616670E-1,-1.005583763E0,-1.782652885E-1,1.052243805E1
4.122727090E-1,-1.187438250E0,1.663011760E-1,1.051286602E1
4.148161460E-1,-1.604387641E0,1.009771109E0,9.870991707E0
4.173271360E-1,-2.409572363E0,2.264806747E0,8.936594009E0
4.198381770E-1,-2.653640270E0,3.046063185E0,8.496315002E0
4.223491670E-1,-2.136192322E0,3.280559778E0,8.649456024E0
4.248601560E-1,-1.034297585E0,3.237488985E0,8.950951576E0
4.273711980E-1,3.308077157E-1,2.950350285E0,9.037691116E0
4.298821880E-1,1.447059512E0,2.600399971E0,8.821739197E0
4.323931770E-1,1.811366796E0,2.370090723E0,8.539385796E0
4.349042190E-1,1.131206870E0,2.360519648E0,8.289934158E0
4.374152090E-1,-6.640082598E-2,2.408375978E0,8.179863930E0
4.399261980E-1,-1.240678549E0,2.542972326E0,8.108079910E0
4.424372400E-1,-2.050050735E0,2.653042078E0,8.093722343E0
4.449807290E-1,-2.275574446E0,2.772683144E0,7.998009682E0
4.474917190E-1,-2.064407825E0,2.911466837E0,7.662416458E0
4.500027610E-1,-1.743769526E0,2.916252613E0,7.547560692E0
4.525137500E-1,-1.417747378E0,2.825325251E0,7.514061451E0
4.550247400E-1,-1.048654556E0,2.734398127E0,7.394420147E0
4.575357810E-1,-4.737788737E-1,2.739183664E0,7.192824841E0
4.600467710E-1,1.106680483E-1,2.734398127E0,7.116254330E0
4.625577610E-1,6.185446382E-1,2.743969440E0,7.259823799E0
4.650688020E-1,1.107278705E0,2.729612350E0,7.423133850E0
4.675797920E-1,1.485942841E0,2.657827854E0,7.643273830E0
4.700907810E-1,1.797009826E0,2.528615236E0,7.853842258E0
4.726018230E-1,2.170888424E0,2.298306227E0,7.931010723E0
4.751452610E-1,2.458027124E0,1.948953986E0,8.127222061E0
4.776562500E-1,2.860619545E0,1.253839016E0,7.978867054E0
4.801672920E-1,2.688336134E0,7.938188910E-1,8.266005516E0
4.826782810E-1,2.371885538E0,5.401797295E-1,9.224330902E0
4.851892710E-1,2.443670034E0,3.487538993E-1,1.024487019E1
4.877003130E-1,2.788834810E0,2.721835673E-1,1.113141060E1
4.902113020E-1,3.291925669E0,2.380858511E-1,1.194078350E1
4.927222920E-1,3.871587038E0,1.423729509E-1,1.239601803E1
4.952333340E-1,4.302893162E0,9.930214286E-2,1.256351566E1
4.977443230E-1,4.465605259E0,1.040877849E-1,1.249173069E1
5.002553130E-1,4.460819721E0,4.187439755E-2,1.225244808E1
5.027663540E-1,4.336392879E0,8.494520187E-2,1.179721355E1
5.053098440E-1,4.024727821E0,1.280160099E-1,1.132283688E1
5.078208340E-1,3.593421459E0,2.045863420E-1,1.103988552E1
5.103318750E-1,2.965903759E0,3.487538993E-1,1.077667522E1
5.128428650E-1,2.328814745E0,5.880361795E-1,1.061874866E1
5.153538540E-1,1.773081541E0,8.709874153E-1,1.045543861E1
5.178648960E-1,1.370489120E0,1.196411371E0,1.031186962E1
5.203758860E-1,1.092921734E0,1.512862086E0,1.019222832E1
5.228868750E-1,1.030708313E0,1.896311998E0,1.010608673E1
5.253979170E-1,1.054636598E0,2.164308071E0,9.976275444E0
5.279089060E-1,1.006780148E0,2.346162558E0,9.961918831E0
5.304198960E-1,1.021137118E0,2.471187592E0,9.971489906E0
5.329309380E-1,9.104689956E-1,2.605185747E0,1.007258701E1
5.354743230E-1,1.097707391E0,2.571686029E0,1.013001442E1
5.379858860E-1,1.088136077E0,2.370090723E0,9.952347755E0
5.404975000E-1,9.104689956E-1,2.068595171E0,9.837491989E0
5.430090630E-1,1.155135155E0,1.742573142E0,9.579067230E0
5.455206770E-1,9.876375198E-1,1.426720500E0,9.291330338E0
5.480322400E-1,1.021137118E0,1.215553880E0,9.276973724E0
5.505438540E-1,1.346560955E0,1.186840057E0,8.912666321E0
5.530554170E-1,1.269990563E0,1.296909928E0,8.726025581E0
5.555670310E-1,1.269990563E0,1.364507079E0,8.716454506E0
5.580785940E-1,1.432702541E0,1.479362607E0,8.663812637E0
5.605902090E-1,1.456630826E0,1.613360643E0,8.678169250E0
5.631017710E-1,1.466202021E0,1.661217093E0,8.544171333E0
5.656388540E-1,1.505085468E0,1.680359721E0,8.266005516E0
5.681504170E-1,1.308275819E0,1.704287887E0,8.194221497E0
5.706620310E-1,1.188634634E0,1.713859200E0,8.208578110E0
5.731735940E-1,1.102493048E0,1.756929994E0,8.299505234E0
5.756852090E-1,1.145563841E0,1.886740685E0,8.347361565E0
5.781967710E-1,1.054636598E0,2.015953064E0,8.443673134E0
5.807083860E-1,1.064207911E0,2.169093609E0,8.682954788E0
5.832199480E-1,1.035493970E0,2.394019127E0,8.735597610E0
5.857315630E-1,7.573283911E-1,2.389233351E0,8.788239479E0
5.882431250E-1,6.520441771E-1,2.355733871E0,8.960522652E0
5.907547400E-1,6.041877270E-1,2.303091764E0,9.032905579E0
5.932663020E-1,3.212364316E-1,2.283949137E0,9.334401131E0
5.958034380E-1,5.036891699E-1,2.293520451E0,9.598209381E0
5.983150000E-1,5.898307562E-1,2.260020971E0,9.564710617E0
6.008266150E-1,4.797609448E-1,2.221735716E0,9.555138588E0
6.033381770E-1,6.807580590E-1,2.207378864E0,9.363115311E0
6.058497920E-1,1.059422255E0,2.130808592E0,9.018548965E0
6.083613540E-1,1.481157184E0,1.968096614E0,8.874381065E0
6.108729690E-1,2.554338217E0,1.441077471E0,8.831310272E0
6.133845310E-1,5.467001438E0,3.343969584E-1,8.907880783E0
6.158961460E-1,1.318505096E1,4.827519655E-1,8.318648338E0
6.184077090E-1,2.158864403E1,7.411768436E-1,7.801199913E0
6.209193230E-1,1.319462204E1,1.613360643E0,7.389634609E0
6.234308860E-1,2.941975355E0,2.303091764E0,9.320044518E0
6.259680210E-1,-4.689932466E-1,2.595614433E0,1.151904774E1
6.284795840E-1,-2.452643156E0,3.050848961E0,1.211785221E1
6.309911980E-1,-4.330410957E0,3.347558975E0,1.198385429E1
6.335027610E-1,-5.533402443E0,3.400201082E0,1.104945660E1
6.360143750E-1,-5.207380295E0,3.122633457E0,1.020658493E1
6.385259380E-1,-3.836891174E0,2.566900492E0,1.018265629E1
6.410375520E-1,-1.556531072E0,1.877169371E0,1.005823040E1
6.435491150E-1,3.595215976E-1,1.345364571E0,9.918848038E0
6.460607290E-1,1.418345571E0,8.949156404E-1,9.708279610E0
6.485722920E-1,1.734796405E0,7.555337548E-1,9.272188187E0
6.510839060E-1,1.068993568E0,8.374879360E-1,8.773882866E0
6.535954690E-1,4.510470629E-1,9.236295223E-1,8.807381630E0
6.561326040E-1,-3.768695518E-2,1.024128079E0,9.449256897E0
6.586441670E-1,-3.493520916E-1,1.354935765E0,9.961918831E0
6.611557810E-1,-4.546363056E-1,1.618146300E0,1.062353420E1
6.636673440E-1,-3.876372576E-1,1.709073544E0,1.122712421E1
6.661789590E-1,-3.445664644E-1,1.661217093E0,1.164826107E1
6.686905210E-1,2.733799815E-1,1.656431437E0,1.169671535E1
6.712021360E-1,4.031906128E-1,1.680359721E0,1.133719349E1
6.737136980E-1,2.925225794E-1,1.584646821E0,1.108774185E1
6.762253130E-1,4.749752879E-1,1.345364571E0,1.084367371E1
6.787368750E-1,5.946164131E-1,1.369292736E0,1.059960651E1
6.812484900E-1,5.611169338E-1,1.407577872E0,1.030708313E1
6.837600520E-1,5.515456200E-1,1.426720500E0,1.017308521E1
6.862971880E-1,5.754738450E-1,1.522433400E0,1.012044334E1
6.888087500E-1,5.371887088E-1,1.632503271E0,9.981060982E0
6.913203650E-1,5.132604837E-1,1.709073544E0,9.952347755E0
6.938319270E-1,5.084748268E-1,1.800000787E0,9.914062500E0
6.963435420E-1,6.137589812E-1,1.866999865E0,9.818349838E0
6.988551040E-1,7.716853023E-1,1.871785522E0,9.555138588E0
7.013667190E-1,8.291130662E-1,1.929811478E0,9.296115875E0
7.038782810E-1,-2.333002165E-2,1.804786444E0,9.583852768E0
7.063898960E-1,1.011565804E0,1.689931035E0,9.588638306E0
7.089014590E-1,1.389631748E0,1.886740685E0,8.893523216E0
7.114130730E-1,1.514656782E0,2.111665964E0,8.280363083E0
7.139246360E-1,1.892722726E0,2.298306227E0,7.590631485E0
7.164617710E-1,2.118246317E0,2.528615236E0,7.015756130E0
7.189733340E-1,2.453241348E0,2.810968399E0,6.661019802E0
7.214849480E-1,2.467598438E0,3.079562664E0,6.603592396E0
7.239965110E-1,2.544766903E0,3.309273720E0,6.929614544E0
7.265081250E-1,2.707478762E0,3.491726398E0,7.278966427E0
7.290196880E-1,2.927618504E0,3.716651678E0,7.552346706E0
7.315313020E-1,3.157927752E0,4.008575916E0,7.566703320E0
7.340428650E-1,3.354139090E0,4.238885403E0,7.557132244E0
7.365544790E-1,4.772484779E0,4.804189682E0,7.537989616E0
7.390660420E-1,7.575078487E0,5.719444275E0,7.619345665E0
7.415776560E-1,7.642077446E0,5.992226124E0,7.753343582E0
7.440892190E-1,5.275575638E0,5.925227165E0,7.494918823E0
7.466263540E-1,4.288536549E0,5.541777134E0,7.106683254E0
7.491379170E-1,4.202394962E0,5.288137913E0,6.939185619E0
7.516495310E-1,4.216751575E0,5.369493961E0,6.963113785E0
7.541610940E-1,4.086941242E0,5.350351334E0,7.336394310E0
7.566727090E-1,4.067798615E0,5.460421085E0,7.801199913E0
7.591842710E-1,3.675375462E0,5.402993679E0,8.356932640E0
7.616958860E-1,3.301496983E0,5.139782906E0,8.754739761E0
7.642074480E-1,3.239283562E0,4.799404144E0,8.802596092E0
7.667190630E-1,3.382853031E0,4.487739086E0,8.366504669E0
7.692306250E-1,3.464209080E0,4.234099865E0,7.748558044E0
7.717422400E-1,3.334996462E0,3.975076675E0,7.144968510E0
7.742538020E-1,3.196212769E0,3.687937975E0,6.867401123E0
7.767908860E-1,3.143570662E0,3.467200041E0,6.857829571E0
7.793024480E-1,3.081357241E0,3.318845034E0,7.039684296E0
7.818140630E-1,3.004188776E0,3.194418192E0,7.399205685E0
7.843256250E-1,3.023331404E0,3.098705292E0,7.633702278E0
7.868372400E-1,3.143570662E0,2.974278450E0,7.738986492E0
7.893488020E-1,3.411566973E0,2.969492912E0,7.753343582E0
7.918604170E-1,3.775874138E0,2.988635540E0,7.762914658E0
7.943719790E-1,3.952943087E0,3.084348440E0,7.705487251E0
7.968835940E-1,4.063013077E0,3.146561861E0,7.638488293E0
7.993951560E-1,4.154538155E0,3.227917671E0,7.523632526E0
8.019067710E-1,4.211966038E0,3.299702406E0,7.475776196E0
8.044183340E-1,4.317250252E0,3.352344513E0,7.418348312E0
8.069554690E-1,4.427320004E0,3.376272678E0,7.380063057E0
8.094670310E-1,4.518247128E0,3.328416348E0,7.355536938E0
8.119786460E-1,4.551746845E0,3.294916868E0,7.235895634E0
8.144902090E-1,4.710271358E0,3.266202927E0,7.259823799E0
8.170018230E-1,4.782055855E0,3.213560820E0,7.461419106E0
8.195133860E-1,4.868197441E0,3.208775282E0,7.791628838E0
8.220250000E-1,4.939982414E0,3.103491068E0,8.060222626E0
8.245365630E-1,5.006981373E0,2.921038151E0,8.582456589E0
8.270481770E-1,5.347360611E0,2.854039192E0,8.472386360E0
8.295597400E-1,5.222933769E0,2.796611547E0,8.486743927E0
8.320713540E-1,5.212764263E0,2.772683144E0,8.568099976E0
8.345829170E-1,5.242076397E0,2.734398127E0,8.630312920E0
8.371200520E-1,5.193621635E0,2.600399971E0,8.649456024E0
8.396316150E-1,5.093122959E0,2.562114954E0,8.721240044E0
8.421432290E-1,5.093122959E0,2.485544443E0,8.778668404E0
8.446547920E-1,4.959125042E0,2.355733871E0,8.860024452E0
8.471664060E-1,5.011766911E0,2.173879385E0,8.989834785E0
8.496779690E-1,5.059623718E0,1.948953986E0,9.128618240E0
8.521895840E-1,5.030909538E0,1.814357758E0,9.272188187E0
8.547011460E-1,5.203192711E0,1.704287887E0,9.267401695E0
8.572127610E-1,5.347360611E0,1.642074585E0,9.286544800E0
8.597243230E-1,5.495715618E0,1.608574986E0,9.248259544E0
8.622359380E-1,5.658427238E0,1.622931957E0,9.128618240E0
8.647475000E-1,5.720640659E0,1.733001828E0,9.147761345E0
8.672846360E-1,5.701498032E0,1.785643935E0,9.095118523E0
8.697961980E-1,5.749354839E0,1.866999865E0,8.974879265E0
8.723078130E-1,5.788238049E0,1.992024899E0,8.855237961E0
8.748193750E-1,5.864808083E0,2.126022816E0,8.663812637E0
8.773309900E-1,6.056233883E0,2.240878344E0,8.486743927E0
8.798425520E-1,6.310471535E0,2.408375978E0,8.438288689E0
8.823541670E-1,6.564110756E0,2.461616278E0,8.251648903E0
8.848657290E-1,6.592824459E0,2.255235434E0,8.462815285E0
8.873773440E-1,7.105486870E0,2.374876499E0,8.074580193E0
8.898889060E-1,7.009773731E0,2.576471806E0,7.748558044E0
8.924005210E-1,6.947560310E0,2.892324448E0,7.628916740E0
8.949120840E-1,6.899703979E0,3.261417150E0,7.437490940E0
8.974492190E-1,6.765107632E0,3.496512175E0,7.345965385E0
8.999607810E-1,6.635895252E0,3.625724554E0,7.490133286E0
9.024723960E-1,6.564110756E0,3.630510092E0,7.719843864E0
9.049839590E-1,6.497111797E0,3.582653761E0,7.887341499E0
9.074955730E-1,6.458826542E0,3.577867985E0,7.964509964E0
9.100071360E-1,6.477969170E0,3.568296671E0,8.036294937E0
9.125187500E-1,6.540182590E0,3.635295868E0,7.998009682E0
9.150303130E-1,6.635895252E0,3.692723513E0,7.921439171E0
9.175419270E-1,6.765107632E0,3.788436413E0,7.748558044E0
9.200534900E-1,6.851847649E0,3.836292982E0,7.557132244E0
9.225651040E-1,6.914061069E0,3.898506403E0,7.235895634E0
9.250766670E-1,6.942774773E0,3.955934048E0,7.140182972E0
9.276138020E-1,6.947560310E0,4.052245140E0,7.197610378E0
9.301253650E-1,6.875775814E0,4.181457520E0,7.221538544E0
9.326369790E-1,6.899703979E0,4.348955154E0,7.183253765E0
9.351485420E-1,6.933203697E0,4.420739651E0,7.044469833E0
9.376601560E-1,7.009773731E0,4.521238327E0,7.202396393E0
9.401717190E-1,7.024130821E0,4.713262558E0,7.470990658E0
9.426833340E-1,7.105486870E0,4.852046013E0,7.547560692E0
9.451948960E-1,7.182057381E0,5.005186558E0,7.451848030E0
9.477065110E-1,7.277770042E0,5.144568920E0,7.269395351E0
9.502180730E-1,7.388438225E0,5.264209747E0,7.058826923E0
9.527296880E-1,7.565506935E0,5.340780258E0,6.905686378E0
9.552412500E-1,7.809575081E0,5.383851051E0,6.756732941E0
9.577783860E-1,7.934599876E0,5.412564754E0,6.603592396E0
9.602899480E-1,7.958528042E0,5.393422127E0,6.479165554E0
9.628015630E-1,8.039883614E0,5.355136871E0,6.302096844E0
9.653131250E-1,8.097311974E0,5.297709465E0,6.239284992E0
9.678247400E-1,8.135597229E0,5.240281582E0,6.105287075E0
9.703363020E-1,8.154739380E0,5.081757069E0,6.023931026E0
9.728479170E-1,8.126026154E0,4.966901779E0,6.057430744E0
9.753594790E-1,7.963313580E0,4.957330227E0,6.215356827E0
9.778710940E-1,7.800003529E0,4.962115765E0,6.335596085E0
9.803826560E-1,7.637291908E0,4.947759151E0,6.234499454E0
9.828942710E-1,7.594220638E0,4.842474937E0,6.047859192E0
9.854058340E-1,7.661220074E0,4.794618607E0,6.009573936E0
9.879429690E-1,7.028916359E0,4.368097782E0,6.345167637E0
9.904545310E-1,7.752147198E0,4.258028030E0,6.105287075E0
9.929661460E-1,7.819146156E0,4.425525665E0,5.707480431E0
9.954777090E-1,7.756932735E0,4.569693089E0,5.573482037E0
9.979893230E-1,7.890930653E0,4.785047054E0,5.281557560E0
1.000500886E0,7.948956966E0,5.019543648E0,5.060820103E0
1.003012500E0,8.087740898E0,5.273781300E0,4.807180882E0
1.005524063E0,8.049455643E0,5.551348686E0,4.524229527E0
1.008035677E0,8.044670105E0,5.781657696E0,4.351946354E0
1.010547240E0,7.944170952E0,5.834300041E0,4.155136585E0
1.013058854E0,7.948956966E0,5.748157978E0,3.958925009E0
1.015570417E0,7.972885132E0,5.700301647E0,3.944568157E0
1.018107552E0,7.977670670E0,5.633302689E0,3.944568157E0
1.020619115E0,7.987242222E0,5.618347645E0,3.987638950E0
1.023130729E0,8.087740898E0,5.671587944E0,3.949353695E0
1.025642292E0,8.135597229E0,5.719444275E0,3.973282099E0
1.028153906E0,8.111668587E0,5.915655613E0,3.982853174E0
1.030665469E0,8.006384850E0,6.044867992E0,3.820141315E0
1.033177084E0,7.833503246E0,6.121438503E0,3.724428415E0
1.035688646E0,7.608577728E0,6.227321148E0,3.613760471E0
1.038200261E0,7.402794838E0,6.361319065E0,3.575475216E0
1.040711823E0,7.316055298E0,6.552744865E0,3.503690481E0
1.043223438E0,7.253841877E0,6.658029079E0,3.465405464E0
1.045735000E0,7.339983463E0,6.706483841E0,3.355335474E0
1.048272031E0,7.479365349E0,6.759125710E0,3.312264681E0
1.050784063E0,7.618149281E0,6.897909641E0,3.465405464E0
1.053296042E0,7.704290867E0,6.984051228E0,3.575475216E0
1.055808073E0,7.694719315E0,7.022336483E0,3.604189157E0
1.058320104E0,7.689933777E0,7.065407276E0,3.594617844E0
1.060832084E0,7.599006653E0,7.094120979E0,3.618546009E0
1.063344115E0,7.460222721E0,7.122834682E0,3.638286829E0
1.065856146E0,7.388438225E0,7.094120979E0,3.580260992E0
1.068368125E0,7.258627415E0,6.998407841E0,3.451048374E0
1.070880156E0,7.296912670E0,6.840481758E0,3.345764160E0
1.073392188E0,7.335197926E0,6.605386734E0,3.254837036E0
1.075904167E0,7.349554539E0,6.390032768E0,3.250051260E0
1.078436615E0,7.450651646E0,6.135795593E0,3.163909674E0
1.080948646E0,7.460222721E0,5.939583778E0,3.086741209E0
1.083460625E0,7.503293514E0,5.738586903E0,3.019742250E0
1.085972656E0,7.589435101E0,5.608776093E0,3.053241730E0
1.088484688E0,7.613363266E0,5.570491314E0,3.038884640E0
1.090996667E0,7.646862984E0,5.474778175E0,3.111267567E0
1.093508698E0,7.689933777E0,5.474778175E0,3.226123095E0
1.096020729E0,7.795217991E0,5.489135265E0,3.350549936E0
1.098532709E0,7.881359577E0,5.618347645E0,3.384049416E0
1.101044740E0,7.972885132E0,5.685945034E0,3.355335474E0
1.103556771E0,8.063812256E0,5.690730572E0,3.302693367E0
1.106068750E0,8.169096947E0,5.666802406E0,3.235694408E0
1.108601250E0,8.255238533E0,5.776872158E0,3.159124136E0
1.111113281E0,8.269595146E0,5.819942951E0,3.072384357E0
1.113625261E0,8.303094864E0,5.944369793E0,2.986242771E0
1.116137292E0,8.355736732E0,6.087938786E0,2.895315409E0
1.118649323E0,8.350951195E0,6.222535133E0,2.837887764E0
1.121161302E0,8.303094864E0,6.385247231E0,2.761317253E0
1.123673334E0,8.245666504E0,6.547959328E0,2.641676188E0
1.126185365E0,8.178668022E0,6.711269379E0,2.593819857E0
1.128697344E0,8.173882484E0,6.864409924E0,2.454437733E0
1.131209375E0,8.159524918E0,7.017550468E0,2.373081923E0
1.133721406E0,8.106883049E0,7.137191772E0,2.368296146E0
1.136233386E0,8.025527000E0,7.257431030E0,2.334796667E0
1.138765834E0,7.963313580E0,7.381857872E0,2.272583246E0
1.141277865E0,7.871788502E0,7.472784996E0,2.210369825E0
1.143789844E0,7.785646915E0,7.530212879E0,2.114656925E0
1.146301875E0,7.646862984E0,7.601997375E0,2.047657967E0
1.148813906E0,7.613363266E0,7.625925541E0,1.951346874E0
1.151325886E0,7.637291908E0,7.601997375E0,1.860419631E0
1.153837917E0,7.675576687E0,7.582854748E0,1.788634896E0
1.156349948E0,7.622934818E0,7.606783390E0,1.707278967E0
1.158861927E0,7.618149281E0,7.611568928E0,1.740778446E0
1.161373959E0,7.613363266E0,7.573283672E0,1.716850281E0
1.163885990E0,7.589435101E0,7.506284714E0,1.750349760E0
1.166397969E0,7.565506935E0,7.496713161E0,1.745564103E0
1.168930417E0,7.608577728E0,7.439285755E0,1.793420553E0
1.171442448E0,7.637291908E0,7.377072334E0,1.855633974E0
1.173954427E0,7.646862984E0,7.324429989E0,1.917847395E0
1.176466459E0,7.689933777E0,7.295716286E0,2.003988981E0
1.178978490E0,7.656434059E0,7.180262566E0,2.038086653E0
1.181490469E0,7.694719315E0,7.127620220E0,2.066800594E0
1.184002500E0,7.709076405E0,7.103692055E0,2.085943222E0
1.186514531E0,7.756932735E0,7.098906517E0,2.052443504E0
1.189026511E0,7.694719315E0,7.065407276E0,1.980060697E0
1.191538542E0,7.642077446E0,7.094120979E0,1.908276081E0
1.194050573E0,7.599006653E0,7.074978352E0,1.831705689E0
1.196562552E0,7.527221680E0,7.074978352E0,1.793420553E0
1.199095000E0,7.484150887E0,7.161119938E0,1.755135417E0
1.201607031E0,7.455437183E0,7.233502865E0,1.750349760E0
1.204119011E0,7.445865631E0,7.334001541E0,1.740778446E0
1.206631042E0,7.450651646E0,7.310073376E0,1.697707653E0
1.209143073E0,7.488936901E0,7.429714203E0,1.530210137E0
1.211655052E0,7.445865631E0,7.501499176E0,1.362114310E0
1.214167084E0,7.465008259E0,7.544569969E0,1.161117196E0
1.216679115E0,7.455437183E0,7.635497093E0,1.051047325E0
1.219191094E0,7.417151928E0,7.731209755E0,9.888339639E-1
1.221703125E0,7.431509018E0,7.784450054E0,8.638089895E-1
1.224215156E0,7.383652687E0,7.851449490E0,7.776673436E-1
1.226727136E0,7.393223763E0,7.966304779E0,7.345965505E-1
1.229259584E0,7.498507977E0,7.999804497E0,6.723831892E-1
1.231771615E0,7.603792191E0,8.004590034E0,5.862415433E-1
1.234283594E0,7.709076405E0,8.042875290E0,5.670989752E-1
1.236795625E0,7.823931694E0,8.033304214E0,4.666004181E-1
1.239307656E0,7.920242786E0,7.966304779E0,4.331009090E-1
1.241819636E0,7.972885132E0,7.884948730E0,4.857429862E-1
1.244331667E0,7.987242222E0,7.813164234E0,5.048855543E-1
1.246843698E0,7.953742504E0,7.664210796E0,5.144568682E-1
1.249355677E0,7.896314621E0,7.563712597E0,5.383850932E-1
1.251867709E0,7.871788502E0,7.448856831E0,5.862415433E-1
1.254379740E0,7.881359577E0,7.314858913E0,5.431707501E-1
1.256891719E0,7.944170952E0,7.252645493E0,5.527420044E-1
1.259424167E0,8.011170387E0,7.170691490E0,5.288137794E-1
1.261936198E0,8.078168869E0,7.060621262E0,5.431707501E-1
1.264448177E0,8.149953842E0,6.988836765E0,5.144568682E-1
1.266960209E0,8.169096947E0,7.017550468E0,4.713860750E-1
1.269472240E0,8.197810173E0,7.017550468E0,4.474578202E-1
1.271984219E0,8.149953842E0,7.084549427E0,3.463610709E-1
1.274496250E0,8.063812256E0,7.141977310E0,2.650051117E-1
1.277008281E0,7.934599876E0,7.199405193E0,2.410768867E-1
1.279520261E0,7.857431412E0,7.334001541E0,1.932204217E-1
1.282032292E0,7.761718273E0,7.444071293E0,8.793623000E-2
1.284544323E0,7.694719315E0,7.587640762E0,-4.127619043E-2
1.287056302E0,7.670791149E0,7.716853142E0,-1.854437590E-1
1.289588750E0,7.589435101E0,7.865806103E0,-3.337987661E-1
1.292100781E0,7.469794273E0,8.014161110E0,-4.342973232E-1
1.294612761E0,7.388438225E0,8.076375008E0,-4.582255483E-1
1.297124792E0,7.330412388E0,8.095517159E0,-5.156532526E-1
1.299636823E0,7.263412952E0,8.138587952E0,-5.347958803E-1
1.302148802E0,7.191628456E0,8.090731621E0,-6.209374666E-1
1.304660834E0,7.119843960E0,7.990232944E0,-7.268198729E-1
1.307172865E0,7.048058987E0,7.937591076E0,-8.177471161E-1
1.309684844E0,7.009773731E0,7.875377655E0,-7.746763229E-1
1.312196875E0,6.918846607E0,7.789236069E0,-7.268198729E-1
1.314708906E0,6.837490559E0,7.750352383E0,-7.459624410E-1
1.317220886E0,6.812964439E0,7.688138962E0,-7.124629617E-1
1.319753334E0,6.755536556E0,7.649854183E0,-6.352944374E-1
1.322265365E0,6.688537598E0,7.625925541E0,-5.635097623E-1
1.324777344E0,6.578467846E0,7.563712597E0,-5.539384484E-1
1.327289375E0,6.468397617E0,7.487142086E0,-5.587241054E-1
1.329801406E0,6.439683914E0,7.372286797E0,-5.539384484E-1
1.332313386E0,6.367899418E0,7.310073376E0,-6.113662124E-1
1.334825417E0,6.339185238E0,7.243073940E0,-6.305087805E-1
1.337337448E0,6.363113403E0,7.218547821E0,-6.598208547E-1
1.339849427E0,6.396613121E0,7.218547821E0,-6.544370055E-1
1.342361459E0,6.497111797E0,7.267002583E0,-6.544370055E-1
1.344873490E0,6.645466805E0,7.319644451E0,-6.448656917E-1
1.347385469E0,6.722036839E0,7.391428947E0,-6.789634228E-1
1.349917917E0,6.779464722E0,7.401000500E0,-7.459624410E-1
1.352429948E0,6.750751019E0,7.434499741E0,-7.651050687E-1
1.354941927E0,6.765107632E0,7.520641804E0,-1.018744230E0
1.357453959E0,6.659823418E0,7.448856831E0,-1.133599758E0
1.359965990E0,6.477969170E0,7.386643410E0,-9.517452121E-1
1.362477969E0,6.281159401E0,7.329215527E0,-9.469595551E-1
1.364990000E0,6.190232277E0,7.257431030E0,-9.469595551E-1
1.367502031E0,6.108876228E0,7.161119938E0,-9.230313301E-1
1.370014011E0,6.032305717E0,7.103692055E0,-9.086744189E-1
1.372526042E0,5.974878311E0,6.931408882E0,-8.177471161E-1
1.375038073E0,5.193621635E0,6.217749596E0,-6.448656917E-1
1.377550052E0,6.008377552E0,5.848656654E0,-5.108676553E-1
1.380082500E0,6.022734642E0,6.092724800E0,-4.917250574E-1
1.382594531E0,5.505286694E0,6.174678802E0,-4.055834413E-1
1.385106511E0,5.797809124E0,6.346961975E0,-5.635097623E-1
1.387618542E0,5.922235966E0,6.442675114E0,-6.981059909E-1
1.390130573E0,5.883950710E0,6.567101955E0,-8.512466550E-1
1.392642552E0,5.720640659E0,6.816553593E0,-9.613165259E-1
1.395154584E0,5.304289818E0,6.792625427E0,-9.421738982E-1
1.397666615E0,5.102694511E0,6.485745907E0,-9.182456732E-1
1.400178594E0,5.078765869E0,6.270391941E0,-1.052243710E0
1.402690625E0,5.064409256E0,6.246463299E0,-9.613165259E-1
1.405202656E0,5.083551884E0,6.308676720E0,-8.129615188E-1
1.407714636E0,5.227719307E0,6.428318024E0,-7.124629617E-1
1.410247084E0,5.376074314E0,6.495316982E0,-6.352944374E-1
1.412759115E0,5.443073273E0,6.576673031E0,-5.060819983E-1
1.415271094E0,5.447858810E0,6.586244106E0,-4.438686073E-1
1.417783125E0,5.400002480E0,6.614958286E0,-3.194418252E-1
1.420295156E0,5.333003521E0,6.686742783E0,-1.519442350E-1
1.422807188E0,5.371288776E0,6.681957245E0,-7.477571070E-2
1.425319167E0,5.433502197E0,6.701697826E0,-1.178465188E-1
1.427831198E0,5.514857769E0,6.720840454E0,-1.710868180E-1
1.430343177E0,5.486144066E0,6.759125710E0,-2.093719840E-1
1.432855209E0,5.433502197E0,6.763911247E0,-2.045863420E-1
1.435367240E0,5.347360611E0,6.763911247E0,-1.902294010E-1
1.437879219E0,5.275575638E0,6.816553593E0,-1.998006850E-1
1.440411667E0,5.285147190E0,6.945765972E0,-1.854437590E-1
1.442923698E0,5.323431969E0,7.079763889E0,-1.663011760E-1
1.445435677E0,5.337789059E0,7.286144733E0,-2.524427772E-1
1.447947709E0,5.385645390E0,7.448856831E0,-4.582255483E-1
1.450459740E0,5.505286694E0,7.645068169E0,-6.789634228E-1
1.452971719E0,5.634499073E0,7.841877937E0,-1.152742267E0
1.455483750E0,5.667998791E0,7.961519241E0,-1.660618901E0
1.457995781E0,5.706283569E0,8.277371407E0,-2.249851465E0
1.460507761E0,5.663212776E0,8.579465866E0,-2.652443886E0
1.463019792E0,5.486144066E0,8.871988297E0,-2.757728100E0
1.465531823E0,5.299503803E0,9.240483284E0,-2.724228621E0
1.468043802E0,5.030909538E0,9.556933403E0,-2.508874655E0
1.470576250E0,4.786841869E0,9.801001549E0,-2.254637241E0
1.473088281E0,4.762913704E0,9.891928673E0,-2.077568293E0
1.475600261E0,4.805984497E0,9.916455269E0,-2.020140409E0
1.478112292E0,4.887340069E0,9.940383911E0,-1.948355794E0
1.480624323E0,5.011766911E0,1.015573788E1,-1.910070658E0
1.483136302E0,5.289932728E0,1.003131104E1,-2.044068813E0
1.485648334E0,5.548357487E0,9.714859962E0,-2.211566210E0
1.488160365E0,5.855237007E0,9.269196510E0,-2.249851465E0
1.490672344E0,6.094519138E0,8.785248756E0,-2.216351986E0
1.493184375E0,6.266802311E0,8.311469078E0,-2.154138565E0
1.495696406E0,6.444469452E0,7.918448448E0,-2.000998020E0
1.498208386E0,6.616752625E0,7.539783955E0,-1.948355794E0
1.500740834E0,6.765107632E0,7.175477028E0,-2.010569334E0
1.503252865E0,6.847062111E0,6.850052834E0,-2.063211441E0
1.505764844E0,6.885347366E0,6.648457527E0,-1.780858278E0
1.508276875E0,6.842276573E0,6.495316982E0,-1.469193101E0
1.510788906E0,6.774679184E0,6.351747513E0,-1.263410330E0
1.513300886E0,6.808178425E0,6.208178520E0,-1.076171994E0
1.515812917E0,6.827919483E0,6.030511379E0,-8.512466550E-1
1.518324948E0,6.918846607E0,5.633302689E0,-6.161518097E-1
1.520836927E0,7.081558704E0,5.379065514E0,-6.305087805E-1
1.523348959E0,7.225128174E0,5.422136307E0,-5.252245665E-1
1.525860990E0,7.244270325E0,5.465207100E0,-1.615155339E-1
1.528372969E0,7.344769001E0,5.681159019E0,3.080759048E-1
1.530905417E0,7.579864025E0,6.044867992E0,6.053841114E-1
1.533417448E0,7.699504852E0,6.519245148E0,7.345965505E-1
1.535929427E0,7.752147198E0,7.151548862E0,3.750749528E-1
1.538441459E0,7.814360619E0,7.668996811E0,-5.563312769E-2
1.540953490E0,7.925028801E0,8.325826645E0,-4.103690982E-1
1.543465469E0,7.987242222E0,8.938986778E0,-3.864408433E-1
1.545977500E0,8.111668587E0,9.403793335E0,-4.390829504E-1
1.548489531E0,8.250452042E0,9.824930191E0,-7.172485590E-1
1.551001511E0,8.398807526E0,1.008873844E1,-1.124028444E0
1.553513542E0,8.461619377E0,1.024187946E1,-1.440479279E0
1.556025573E0,8.452047348E0,1.023230743E1,-1.727617979E0
1.558537552E0,8.350951195E0,1.024666500E1,-1.881356835E0
1.561069948E0,8.245666504E0,1.025623608E1,-2.106282234E0
1.563582292E0,8.068597794E0,1.010309505E1,-2.259422779E0
1.566094688E0,7.871788502E0,9.848857880E0,-2.077568293E0
1.568607031E0,7.680362701E0,9.537791252E0,-1.862214208E0
1.571119375E0,7.618149281E0,9.264410973E0,-1.660618901E0
1.573631719E0,7.594220638E0,8.881559372E0,-1.517049551E0
1.576144063E0,7.627720356E0,8.483752251E0,-1.454836130E0
1.578656459E0,7.603792191E0,8.038089752E0,-1.397408366E0
1.581168802E0,7.579864025E0,7.678567886E0,-1.426122308E0
1.583681146E0,7.450651646E0,7.367500782E0,-1.359123230E0
1.586193490E0,7.129415035E0,7.132406235E0,-1.210768223E0
1.588705834E0,6.774679184E0,6.873981476E0,-1.157527924E0
1.591234531E0,6.285944939E0,6.696912289E0,-1.023529887E0
1.593746875E0,5.793023586E0,6.591030121E0,-9.948160052E-1
1.596259271E0,5.275575638E0,6.614958286E0,-1.133599758E0
1.598771615E0,4.853840828E0,6.610172749E0,-1.339980721E0
1.601283959E0,4.475176334E0,6.581458569E0,-1.545763373E0
1.603796302E0,4.091726780E0,6.686742783E0,-1.800000787E0
1.606308646E0,3.799802303E0,6.725626469E0,-1.910070658E0
1.608821042E0,3.559921980E0,6.706483841E0,-1.771286964E0
1.611333386E0,3.320639610E0,6.533602238E0,-1.579262972E0
1.613845729E0,3.086143017E0,6.413960934E0,-1.387837172E0
1.616358073E0,2.913261652E0,6.265605927E0,-1.071386337E0
1.618870417E0,2.740978241E0,6.145366669E0,-8.416753411E-1
1.621399167E0,2.616551638E0,6.054439545E0,-4.917250574E-1
1.623911511E0,2.597409010E0,6.121438503E0,-3.002992272E-1
1.626423906E0,2.544766903E0,6.332605362E0,-3.002992272E-1
1.628936250E0,2.597409010E0,6.653243542E0,-3.481557071E-1
1.631448594E0,2.673979282E0,7.007979393E0,-3.050848842E-1
1.633960938E0,2.807977438E0,7.448856831E0,-2.955136001E-1
1.636473281E0,3.100499868E0,7.908876896E0,-3.672982752E-1
1.638985677E0,3.483351469E0,8.286943436E0,-5.587241054E-1
1.641498021E0,3.823730469E0,8.646464348E0,-5.587241054E-1
1.644010365E0,4.149752617E0,8.862417221E0,-4.773681164E-1
1.646522709E0,4.436891556E0,8.943773270E0,-3.050848842E-1
1.649035052E0,4.613960266E0,9.082556725E0,-5.563312769E-2
1.651563698E0,4.839483738E0,9.077771187E0,1.597209126E-1
1.654076042E0,5.126622677E0,8.938986778E0,2.506481707E-1
1.656588438E0,5.366502762E0,8.895915985E0,3.463610709E-1
1.659100781E0,5.538786411E0,8.703892708E0,4.085744619E-1
1.661613125E0,5.677569866E0,8.478966713E0,4.426721931E-1
1.664125469E0,5.739783287E0,8.297112465E0,4.085744619E-1
1.666637813E0,5.634499073E0,8.062017441E0,3.798605800E-1
1.669150209E0,5.457430363E0,7.865806103E0,3.607180119E-1
1.671662552E0,5.131408215E0,7.659425259E0,4.618147612E-1
1.674174896E0,4.872983456E0,7.506284714E0,6.149554253E-1
1.676687240E0,4.868197441E0,7.334001541E0,8.015955687E-1
1.679199584E0,4.772484779E0,7.189833641E0,7.824530005E-1
1.681728334E0,4.590032101E0,7.132406235E0,6.053841114E-1
1.684240677E0,4.432105541E0,7.027122021E0,4.522434771E-1
1.686753073E0,4.274179459E0,6.768697262E0,3.320041299E-1
1.689265417E0,4.130012035E0,6.591030121E0,2.793620527E-1
1.691777761E0,3.804588079E0,6.260820389E0,3.415754437E-1
1.694290104E0,3.564707518E0,5.700301647E0,5.048855543E-1
1.696802448E0,3.056830883E0,4.708476543E0,6.723831892E-1
1.699314844E0,2.051247120E0,2.763111830E0,1.256830096E0
1.701827188E0,1.413560033E0,6.167500615E-1,3.168695450E0
1.704339531E0,2.233101845E0,1.258624673E0,3.312264681E0
1.706851875E0,3.574278831E0,4.387240410E0,1.175474167E0
1.709364219E0,3.756731510E0,6.543173313E0,8.793623000E-2
1.711892917E0,3.220141172E0,6.692126751E0,5.431707501E-1
1.714405261E0,2.578266382E0,6.366104603E0,1.012762189E0
1.716917656E0,2.626122952E0,6.260820389E0,1.213759303E0
1.719430000E0,3.129213810E0,6.423532486E0,9.068797827E-1
1.721942344E0,3.579064369E0,6.768697262E0,3.272185028E-1
1.724454688E0,4.000799656E0,7.146762848E0,3.050848842E-2
1.726967031E0,4.810770035E0,8.033304214E0,7.357929647E-2
1.729479427E0,5.960521221E0,9.101698875E0,-1.734796353E-2
1.731991771E0,5.433502197E0,9.264410973E0,2.075773627E-1
1.734504115E0,3.809373617E0,7.759923935E0,6.149554253E-1
1.737016459E0,4.868197441E0,8.388039589E0,3.224328458E-1
1.739528802E0,5.423930645E0,9.168698311E0,2.745763958E-1
1.742057552E0,5.294718266E0,9.399007797E0,2.841476798E-1
1.744569896E0,5.285147190E0,9.686145782E0,-1.256231871E-2
1.747082292E0,5.352146149E0,9.877572060E0,-4.007977843E-1
1.749594636E0,5.514857769E0,9.891928673E0,-7.794619799E-1
1.752106979E0,5.419145107E0,9.801001549E0,-1.402194023E0
1.754619323E0,4.829912663E0,9.719645500E0,-1.967498422E0
1.757131667E0,3.828516245E0,9.192625999E0,-2.403590441E0
1.759644063E0,4.331607342E0,9.375079155E0,-2.005783558E0
1.762156406E0,4.959125042E0,9.868000984E0,-1.670190215E0
1.764668750E0,5.261219025E0,1.009830952E1,-1.843071699E0
1.767181094E0,5.285147190E0,1.030887794E1,-2.029711723E0
1.769693438E0,5.021338463E0,1.048654556E1,-2.187638044E0
1.772222084E0,4.868197441E0,1.084068298E1,-2.427518606E0
1.774734427E0,5.280361176E0,1.147298622E1,-3.543770313E0
1.777246823E0,5.691926956E0,1.187079334E1,-3.467200041E0
1.779759167E0,5.701498032E0,1.238824081E1,-3.098107100E0
1.782271511E0,5.941378593E0,1.282433319E1,-3.141177893E0
1.784783854E0,6.089733601E0,1.316471195E1,-2.791227579E0
1.787296198E0,6.209374905E0,1.306840134E1,-2.877967358E0
1.789808594E0,6.080162525E0,1.291526031E1,-2.748156786E0
1.792320938E0,5.720640659E0,1.273340607E1,-2.168495417E0
1.794833281E0,5.179264545E0,1.275254822E1,-1.287338614E0
1.797345625E0,4.628317356E0,1.263290691E1,-1.034895778E-1
1.799857969E0,3.661018610E0,1.286261845E1,1.314257860E0
1.802386667E0,2.755335331E0,1.328913879E1,2.258226395E0
1.804899011E0,2.338385820E0,1.372523022E1,2.651247501E0
1.807411406E0,1.691725612E0,1.433360577E1,2.837887764E0
1.809923750E0,1.073779106E0,1.499940872E1,2.723032236E0
1.812436094E0,7.908278704E-1,1.546421432E1,2.689532757E0
1.814948438E0,1.317847013E0,1.562214088E1,2.636890650E0
1.817460781E0,1.892722726E0,1.578485298E1,2.756531715E0
1.819973177E0,2.237887383E0,1.589073563E1,2.847458839E0
1.822485521E0,2.578266382E0,1.577528191E1,2.842673302E0
1.824997865E0,2.860619545E0,1.551207066E1,2.766103029E0
1.827510209E0,2.846262455E0,1.535414505E1,2.794816732E0
1.830022552E0,2.779263496E0,1.526800346E1,2.876172781E0
1.832551250E0,2.937189817E0,1.502812290E1,2.761317253E0
1.835063594E0,3.172284603E0,1.476012611E1,2.947957516E0
1.837575990E0,3.181855917E0,1.461117363E1,3.130410194E0
1.840088334E0,3.008974552E0,1.438146210E1,3.446262836E0
1.842600677E0,2.965903759E0,1.391187096E1,3.781856298E0
1.845113021E0,2.908475876E0,1.338006592E1,3.858426571E0
1.847625365E0,3.680161238E0,1.152144146E1,3.700500250E0
1.850137761E0,3.728017569E0,1.028016472E1,3.360121250E0
1.852650104E0,3.742374659E0,9.355338097E0,3.585046530E0
1.855162448E0,3.301496983E0,8.857631683E0,4.140779495E0
1.857674792E0,2.472383976E0,8.665607452E0,4.213162422E0
1.860187136E0,1.744367719E0,8.536395073E0,4.126422882E0
1.862715834E0,1.179063320E0,8.402397156E0,4.088137627E0
1.865228177E0,6.664010882E-1,8.311469078E0,3.882354736E0
1.867740573E0,2.494517565E-1,8.306683540E0,3.604189157E0
1.870252917E0,1.106680483E-1,8.191229820E0,3.178266764E0
1.872765261E0,7.716853172E-2,8.124231339E0,2.813959360E0
1.875277604E0,1.680957973E-1,8.047660828E0,2.521436930E0
1.877789948E0,2.542374134E-1,8.052446365E0,2.325225353E0
1.880302344E0,4.271188378E-1,8.042875290E0,2.162513494E0
1.882814688E0,6.376872063E-1,7.995018482E0,2.008774519E0
1.885327031E0,8.243274093E-1,7.932805061E0,1.826920033E0
1.887839375E0,1.021137118E0,7.875377655E0,1.520638824E0
1.890351719E0,1.246062398E0,7.822735310E0,1.213759303E0
1.892880417E0,1.543370605E0,7.750352383E0,8.159525394E-1
1.895392761E0,1.820937991E0,7.745566845E0,4.570291340E-1
1.897905156E0,2.084746838E0,7.721638680E0,2.027917206E-1
1.900417500E0,2.237887383E0,7.678567886E0,-1.178465188E-1
1.902929844E0,2.429313183E0,7.630711555E0,-4.821537733E-1
1.905442188E0,2.645265341E0,7.668996811E0,-7.986045480E-1
1.907954531E0,2.764906645E0,7.664210796E0,-1.181456208E0
1.910466927E0,2.879761934E0,7.673782349E0,-1.478764415E0
1.912979271E0,3.086143017E0,7.759923935E0,-1.703689694E0
1.915491615E0,3.291925669E0,7.837092400E0,-1.871785522E0
1.918003959E0,3.358924866E0,7.961519241E0,-2.163709879E0
1.920516302E0,3.540779352E0,8.018946648E0,-2.408375978E0
1.923045000E0,3.684946775E0,8.119445801E0,-2.575873613E0
1.925557344E0,3.751945972E0,8.321041107E0,-2.743371248E0
1.928069740E0,3.828516245E0,8.445467949E0,-2.801397085E0
1.930582084E0,3.852444410E0,8.555537224E0,-2.863610506E0
1.933094427E0,3.809373617E0,8.737391472E0,-2.897109985E0
1.935606771E0,3.775874138E0,8.915059090E0,-2.897109985E0
1.938119115E0,3.670589924E0,9.092127800E0,-2.858824968E0
1.940631511E0,3.545564890E0,9.240483284E0,-2.729014158E0
1.943143854E0,3.555136204E0,9.340981483E0,-2.556730986E0
1.945656198E0,3.382853031E0,9.408578873E0,-2.303091764E0
1.948168542E0,3.124428272E0,9.480362892E0,-1.967498422E0
1.950680886E0,2.884547710E0,9.600004196E0,-1.694118381E0
1.953209584E0,2.654836655E0,9.676574707E0,-1.335195065E0
1.955721927E0,2.453241348E0,9.786644936E0,-8.895317912E-1
1.958234323E0,2.151745796E0,9.906884193E0,-3.864408433E-1
1.960746667E0,1.840080619E0,1.006480980E1,2.572284266E-2
1.963259011E0,1.485942841E0,1.021795082E1,4.331009090E-1
1.965771354E0,1.112064362E0,1.032323551E1,9.020941257E-1
1.968283698E0,6.855437160E-1,1.063490009E1,1.366899967E0
1.970796094E0,2.494517565E-1,1.090289593E1,1.807777524E0
1.973308438E0,-3.768695518E-2,1.108056355E1,2.330011129E0
1.975820781E0,-2.153540403E-1,1.116191959E1,2.833101988E0
1.978333125E0,-4.833501875E-1,1.130070305E1,3.259622574E0
1.980845469E0,-6.269195080E-1,1.134855938E1,3.690928936E0
1.983374167E0,-6.412764788E-1,1.138205910E1,4.011567116E0
1.985886511E0,-7.184450030E-1,1.136770248E1,4.375874519E0
1.988398906E0,-7.758727670E-1,1.138684464E1,4.514657974E0
1.990911250E0,-6.604190469E-1,1.139163017E1,4.548157692E0
1.993423594E0,-5.790630579E-1,1.135813046E1,4.399802685E0
1.995935938E0,-4.307080805E-1,1.137727356E1,4.078566074E0
1.998448281E0,-8.554340899E-2,1.139641571E1,3.551547050E0
2.000960677E0,3.355933726E-1,1.132463169E1,2.866601467E0
2.003473021E0,7.477570772E-1,1.119541931E1,2.229512453E0
2.005985365E0,1.126421213E0,1.105663490E1,1.554138303E0
2.008497709E0,1.524227977E0,1.092682457E1,9.601200819E-1
2.011010052E0,1.840080619E0,1.085025406E1,4.857429862E-1
2.013538750E0,2.113460541E0,1.081196880E1,4.965107143E-2
2.016051094E0,2.338385820E0,1.073061275E1,-2.763710022E-1
2.018563490E0,2.467598438E0,1.062054348E1,-6.305087805E-1
2.021075834E0,2.583052158E0,1.057747269E1,-9.182456732E-1
2.023588177E0,2.630908489E0,1.061097240E1,-1.196411371E0
2.026100521E0,2.702693224E0,1.060618591E1,-1.392622828E0
2.028612865E0,2.707478762E0,1.060140038E1,-1.512263894E0
2.031125261E0,2.630908489E0,1.048654556E1,-1.603191137E0
2.033637604E0,2.501097918E0,1.040459061E1,-1.569691658E0
2.036149948E0,2.371885538E0,1.034716320E1,-1.454836130E0
2.038662292E0,2.146960020E0,1.028016472E1,-1.268195987E0
2.041174636E0,1.897508383E0,1.029452133E1,-9.900303483E-1
2.043703334E0,1.648654819E0,1.036630630E1,-7.316055298E-1
2.046215677E0,1.418345571E0,1.039023399E1,-4.295116663E-1
2.048728073E0,1.145563841E0,1.042851925E1,-1.423729509E-1
2.051240417E0,8.865407705E-1,1.052483082E1,9.750752151E-2
2.053752761E0,8.243274093E-1,1.057268715E1,3.367897868E-1
2.056265104E0,6.903293133E-1,1.054397297E1,5.240281820E-1
2.058777448E0,6.568298340E-1,1.058225822E1,7.537391186E-1
2.061289844E0,5.706881881E-1,1.060618591E1,9.403793216E-1
2.063802188E0,5.180460811E-1,1.054397297E1,1.055832982E0
2.066314531E0,5.515456200E-1,1.047697353E1,1.074975610E0
2.068826875E0,7.142575383E-1,1.007438183E1,1.027119160E0
2.071339219E0,9.732806087E-1,9.710074425E0,9.020941257E-1
2.073867865E0,1.246062398E0,9.466006279E0,7.968099117E-1
2.076380521E0,1.567298889E0,9.144769669E0,5.288137794E-1
2.078893125E0,1.926222205E0,8.799605370E0,2.267199457E-1
2.081405781E0,2.333600283E0,8.411968231E0,-4.606183618E-2
2.083918386E0,2.855833769E0,7.798807144E0,-4.199403822E-1
2.086430990E0,3.516851187E0,7.074978352E0,-9.661021233E-1
2.088943646E0,4.566103935E0,5.915655613E0,-1.823929071E0
2.091456250E0,5.677569866E0,4.487739086E0,-3.538984776E0
2.093968906E0,4.264608383E0,3.874577999E0,-6.087938786E0
2.096481511E0,2.559123755E0,3.826721668E0,-7.376473904E0
2.098994167E0,2.156531334E0,3.597010612E0,-7.175477028E0
2.101506771E0,1.351346612E0,3.482155085E0,-6.121438503E0
2.104032448E0,-1.094716340E-1,3.927220106E0,-3.989433527E0
2.106545104E0,-2.270190477E0,4.799404144E0,-1.378265858E0
2.109057709E0,-4.392624378E0,5.690730572E0,1.012762189E0
2.111570365E0,-5.533402443E0,6.064010620E0,2.440080881E0
2.114082969E0,-5.212165833E0,5.666802406E0,2.670390129E0
2.116595573E0,-3.860819340E0,4.722833633E0,1.946561217E0
2.119108229E0,-2.423929453E0,3.845864296E0,1.051047325E0
2.121620834E0,-1.245464206E0,3.232703447E0,8.303094506E-1
2.124133490E0,-4.163511395E-1,2.974278450E0,1.185045362E0
2.126646094E0,1.585244983E-1,2.911466837E0,1.645065546E0
2.129158750E0,5.850451589E-1,2.921038151E0,2.033301115E0
2.131671354E0,1.298704505E0,2.897109985E0,2.013560295E0
2.134197031E0,2.280958176E0,2.901895761E0,1.645065546E0
2.136709688E0,3.617947817E0,3.194418192E0,1.022333503E0
2.139222292E0,4.777270317E0,3.539582968E0,-4.606183618E-2
2.141734948E0,5.414359570E0,3.927220106E0,-1.354337573E0
2.144247552E0,5.734997749E0,4.473381996E0,-1.761715651E0
2.146760156E0,5.864808083E0,5.005186558E0,-1.416550994E0
2.149272813E0,5.586642742E0,5.484349728E0,-1.225125194E0
2.151785417E0,5.419145107E0,5.963512421E0,-1.013958573E0
2.154298073E0,5.136193752E0,6.361319065E0,-7.316055298E-1
2.156810677E0,4.623531342E0,6.845267296E0,-5.563312769E-2
2.159323334E0,4.144368649E0,7.353144169E0,7.010970116E-1
2.161835938E0,3.780659676E0,7.759923935E0,1.511067510E0
2.164361615E0,3.804588079E0,8.014161110E0,1.908276081E0
2.166874271E0,4.125226021E0,8.081160545E0,1.635494232E0
2.169386875E0,4.575675011E0,8.023732185E0,5.958128572E-1
2.171899531E0,5.050052166E0,7.851449490E0,-1.191027522E0
2.174412136E0,4.949553490E0,8.378468513E0,-1.895713687E0
2.176924740E0,4.019941807E0,9.278767586E0,1.262213886E-1
2.179437396E0,2.965903759E0,9.724431038E0,2.310868502E0
2.181950000E0,2.568695068E0,9.537791252E0,3.877569199E0
2.184462656E0,2.166102648E0,9.163912773E0,4.313661098E0
2.186975261E0,2.094317913E0,8.522037506E0,4.232305050E0
2.189487917E0,2.194816589E0,7.832306862E0,4.524229527E0
2.192000521E0,2.194816589E0,7.367500782E0,4.773681164E0
2.194526198E0,2.185245275E0,7.228717327E0,4.855037212E0
2.197038854E0,2.271386862E0,7.022336483E0,4.663012981E0
2.199551459E0,2.084746838E0,7.012764931E0,4.054637909E0
2.202064115E0,1.706082582E0,7.185048103E0,3.705285788E0
2.204576719E0,1.600798368E0,7.444071293E0,3.978067636E0
2.207089323E0,1.447059512E0,7.506284714E0,3.772284985E0
2.209601979E0,1.351346612E0,7.716853142E0,3.240479946E0
2.212114584E0,1.313061476E0,7.846663475E0,2.651247501E0
2.214627240E0,1.701296926E0,7.928019524E0,2.392224550E0
2.217139844E0,2.702693224E0,9.360123634E0,1.812563181E0
2.219652500E0,4.240679741E0,1.286261845E1,9.505487680E-1
2.222165104E0,5.557928562E0,1.551207066E1,-3.170489892E-2
2.224690781E0,6.300900459E0,1.640818214E1,-1.540977836E0
2.227203438E0,6.793821812E0,1.534457302E1,-2.762513638E0
2.229716042E0,7.019345284E0,1.431924915E1,-3.538984776E0
2.232228698E0,6.885347366E0,1.371087360E1,-4.080360889E0
2.234741302E0,6.535397053E0,1.357627773E1,-3.854837179E0
2.237253906E0,5.769095421E0,1.315992641E1,-3.045464993E0
2.239766563E0,4.115654945E0,1.187557888E1,-1.411765337E0
2.242279167E0,1.830509305E0,1.127677536E1,6.053841114E-1
2.244791823E0,2.159522474E-1,1.306840134E1,1.999203324E0
2.247304427E0,-3.828516304E-1,1.602473259E1,2.847458839E0
2.249817084E0,-1.728814363E0,1.655175209E1,3.901497364E0
2.252329688E0,-5.092525005E0,1.289133167E1,5.764907837E0
2.254855365E0,-3.511467218E0,2.336471748E1,6.028716564E0
2.257368021E0,-1.992623091E0,2.632045174E1,6.287141323E0
2.259880625E0,6.855437160E-1,2.348914337E1,5.094319344E0
2.262393281E0,3.516851187E0,1.997229195E1,2.938386202E0
2.264905886E0,4.705485821E0,1.802752495E1,1.932204247E0
2.267418490E0,4.101297855E0,1.829073715E1,1.980060697E0
2.269931146E0,2.113460541E0,1.916292000E1,2.301297188E0
2.272443750E0,5.946164131E-1,1.931606102E1,2.459223509E0
2.274956406E0,2.452643216E-2,1.883211327E1,2.492722988E0
2.277469011E0,-2.536391914E-1,1.807059669E1,2.627319336E0
2.279981667E0,-4.067798555E-1,1.751007843E1,2.632104874E0
2.282494271E0,-7.710871100E-1,1.711705589E1,2.449652195E0
2.285019948E0,-1.245464206E0,1.694477272E1,2.152942181E0
2.287532604E0,-1.623530149E0,1.668575096E1,1.855633974E0
2.290045209E0,-1.949552298E0,1.616351700E1,1.366899967E0
2.292557865E0,-2.557927370E0,1.560299778E1,9.116654396E-1
2.295070469E0,-3.204587698E0,1.514297771E1,4.761717021E-1
2.297583073E0,-3.659822226E0,1.480319691E1,1.118644550E-1
2.300095729E0,-4.119842529E0,1.465424442E1,-2.715853751E-1
2.302608334E0,-4.546362877E0,1.462553024E1,-7.028916478E-1
2.305120990E0,-4.890929699E0,1.468295765E1,-1.143171072E0
2.307633594E0,-5.025525570E0,1.478405476E1,-1.473978758E0
2.310146250E0,-5.044668198E0,1.491805267E1,-1.881356835E0
2.312658854E0,-4.910071850E0,1.496590900E1,-2.139781713E0
2.315184531E0,-4.594219685E0,1.482234001E1,-2.322234392E0
2.317697188E0,-3.933202267E0,1.453460312E1,-2.614158630E0
2.320209792E0,-3.678964853E0,1.411765385E1,-2.327019930E0
2.322722448E0,-3.295515060E0,1.340878010E1,-2.149353027E0
2.325235052E0,-2.467000246E0,1.239781189E1,-1.761715651E0
2.327747656E0,-1.484746456E0,1.125284672E1,-1.162313581E0
2.330260313E0,-7.040880919E-1,1.007438183E1,-5.922235847E-1
2.332772917E0,-6.640082598E-2,9.005986214E0,5.922235921E-2
2.335285573E0,3.020938635E-1,8.124231339E0,3.894318938E-1
2.337798177E0,5.659025311E-1,7.362715244E0,5.240281820E-1
2.340310834E0,7.429714203E-1,6.739983082E0,5.383850932E-1
2.342823438E0,9.104689956E-1,6.140581131E0,3.750749528E-1
2.345349115E0,1.155135155E0,5.690730572E0,1.788634956E-1
2.347861771E0,1.538584948E0,5.446064472E0,-9.870393574E-2
2.350374375E0,1.672582984E0,5.292923450E0,-3.337987661E-1
2.352887031E0,1.859223247E0,5.268995285E0,-6.789634228E-1
2.355399636E0,2.194816589E0,5.422136307E0,-1.201196909E0
2.357912240E0,2.659622431E0,5.613562107E0,-1.531406522E0
2.360424896E0,3.129213810E0,6.078367710E0,-1.698904037E0
2.362937500E0,3.622733593E0,6.706483841E0,-1.785643935E0
2.365450156E0,3.929014683E0,7.348358154E0,-1.843071699E0
2.367962761E0,4.134797573E0,7.875377655E0,-1.766501307E0
2.370475417E0,4.202394962E0,8.301898003E0,-1.445264935E0
2.372988021E0,3.986442566E0,8.411968231E0,-1.162313581E0
2.375513698E0,2.898904562E0,7.290930748E0,-6.789634228E-1
2.378026354E0,7.812566161E-1,4.636692047E0,1.214357466E-1
2.380538959E0,2.542374134E-1,4.013361931E0,9.792626500E-1
2.383051615E0,3.547359705E-1,4.392025948E0,1.371685624E0
2.385564219E0,4.414757788E-1,5.000401020E0,1.640279889E0
2.388076823E0,4.319044948E-1,5.810371399E0,1.951346874E0
2.390589479E0,2.542374134E-1,6.413960934E0,1.913061738E0
2.393102084E0,1.968096644E-1,7.046264648E0,2.018944025E0
2.395614740E0,3.595215976E-1,7.832306862E0,2.258226395E0
2.398127344E0,5.180460811E-1,8.316255569E0,2.444866419E0
2.400640000E0,6.041877270E-1,8.785248756E0,2.694318295E0
2.403152604E0,6.664010882E-1,9.264410973E0,2.818745136E0
2.405678281E0,6.664010882E-1,9.576076508E0,2.809173822E0
2.408190938E0,6.711867452E-1,9.935597420E0,2.818745136E0
2.410703542E0,6.807580590E-1,1.026580715E1,2.675175667E0
2.413216198E0,6.376872063E-1,1.047218800E1,2.301297188E0
2.415728802E0,6.855437160E-1,1.046740246E1,1.731207132E0
2.418241406E0,5.946164131E-1,1.027059269E1,1.027119160E0
2.420754063E0,4.701896608E-1,1.017488003E1,4.486542568E-2
2.423266667E0,7.477570772E-1,1.116191959E1,-1.890928149E0
2.425779323E0,1.691725612E0,1.301097298E1,-5.330610752E0
2.428291927E0,1.470987678E0,1.447717476E1,-3.984647989E0
2.430804584E0,1.174277663E0,1.434317684E1,2.339582443E0
2.433317188E0,1.552941918E0,1.361456299E1,2.181656122E0
2.435842865E0,2.496312141E0,1.334656620E1,1.328614831E0
2.438355521E0,2.965903759E0,1.383051491E1,1.476969719E0
2.440868125E0,2.362314224E0,1.386880016E1,1.745564103E0
2.443380781E0,1.293918848E0,1.348056412E1,1.956132531E0
2.445893386E0,6.185446382E-1,1.332742405E1,1.592423439E0
2.448405990E0,1.968096644E-1,1.312164116E1,1.232901812E0
2.450918646E0,3.409772366E-2,1.256052399E1,1.299900889E0
2.453431250E0,1.393819153E-1,1.190429306E1,1.625923038E0
2.455943906E0,2.303091735E-1,1.142991543E1,1.879562140E0
2.458456511E0,2.733799815E-1,1.091246796E1,1.884347796E0
2.460969167E0,3.212364316E-1,1.041894817E1,1.855633974E0
2.463481771E0,3.882354796E-1,9.997811317E0,2.176870346E0
2.466007396E0,3.355933726E-1,9.700503349E0,2.440080881E0
2.468520052E0,2.255235314E-1,9.461220741E0,2.248655081E0
2.471032656E0,2.350948304E-1,9.350552559E0,1.941775560E0
2.473545313E0,2.877369225E-1,9.230911255E0,1.774278045E0
2.476057917E0,3.786641955E-1,9.149555206E0,1.654636860E0
2.478570521E0,4.366901219E-1,9.101698875E0,1.563709617E0
2.481083177E0,4.175475538E-1,9.101698875E0,1.390828133E0
2.483595781E0,4.079762697E-1,9.187840462E0,1.299900889E0
2.486108438E0,3.355933726E-1,9.235696793E0,1.137188911E0
2.488621042E0,2.925225794E-1,9.336195946E0,1.003190875E0
2.491133698E0,2.685943544E-1,9.403793335E0,8.542376757E-1
2.493646302E0,2.350948304E-1,9.489934921E0,7.154539824E-1
2.496171979E0,1.298106313E-1,9.595218658E0,5.479564071E-1
2.498684636E0,5.324030295E-2,9.714859962E0,4.139583111E-1
2.501197240E0,4.845465720E-2,9.714859962E0,4.037888348E-1
2.503709896E0,5.802594870E-2,9.786644936E0,3.990031779E-1
2.506222500E0,1.016949583E-2,9.805787086E0,3.607180119E-1
2.508735104E0,6.759724021E-2,9.781859398E0,2.937189937E-1
2.511247761E0,9.631111473E-2,9.815358162E0,1.980060786E-1
2.513760365E0,1.585244983E-1,9.796216011E0,1.645065546E-1
2.516273021E0,2.446661144E-1,9.781859398E0,1.118644550E-1
2.518785625E0,3.834498227E-1,9.657432556E0,9.272187948E-2
2.521298281E0,5.324030519E-1,9.600004196E0,1.118644550E-1
2.523810886E0,6.568298340E-1,9.513862610E0,6.879365444E-2
2.526336563E0,7.812566161E-1,9.466006279E0,5.922235921E-2
2.528849219E0,8.769695163E-1,9.394221306E0,6.400800496E-2
2.531361823E0,9.637092948E-1,9.364909172E0,6.580262445E-3
2.533874479E0,1.068993568E0,9.283554077E0,-7.776673418E-3
2.536387084E0,1.188634634E0,9.283554077E0,1.136590727E-2
2.538899688E0,1.298704505E0,9.278767586E0,6.879365444E-2
2.541412344E0,1.394417405E0,9.326624870E0,6.879365444E-2
2.543924948E0,1.476371527E0,9.350552559E0,5.922235921E-2
2.546437604E0,1.519442320E0,9.375079155E0,8.315058798E-2
2.548950209E0,1.624726534E0,9.418149948E0,1.405783296E-1
2.551462865E0,1.658226132E0,9.513862610E0,1.645065546E-1
2.553975469E0,1.682154298E0,9.537791252E0,1.836491376E-1
2.556501146E0,1.715653777E0,9.595218658E0,2.123630047E-1
2.559013802E0,1.715653777E0,9.604789734E0,1.836491376E-1
2.561526406E0,1.710868239E0,9.676574707E0,2.697907388E-1
2.564039063E0,1.677368641E0,9.686145782E0,2.937189937E-1
2.566551667E0,1.663011789E0,9.724431038E0,3.176472187E-1
2.569064271E0,1.682154298E0,9.724431038E0,3.750749528E-1
2.571576927E0,1.720439434E0,9.757930756E0,3.942175210E-1
2.574089531E0,1.686939955E0,9.753145218E0,4.713860750E-1
2.576602188E0,1.667797327E0,9.781859398E0,5.862415433E-1
2.579114792E0,1.672582984E0,9.781859398E0,6.771687865E-1
2.581627448E0,1.691725612E0,9.753145218E0,7.298108935E-1
2.584140052E0,1.730010748E0,9.738788605E0,7.920243144E-1
2.586665677E0,1.763510346E0,9.743574142E0,8.638089895E-1
2.589178542E0,1.773081541E0,9.757930756E0,8.829515576E-1
2.591691406E0,1.806581140E0,9.801001549E0,9.601200819E-1
2.594204219E0,1.825723648E0,9.810572624E0,9.840483069E-1
2.596717084E0,1.825723648E0,9.757930756E0,1.007976532E0
2.599229896E0,1.859223247E0,9.753145218E0,1.046261668E0
2.601742761E0,1.878365755E0,9.714859962E0,1.108475089E0
2.604255625E0,1.859223247E0,9.714859962E0,1.127617717E0
2.606768438E0,1.878365755E0,9.700503349E0,1.146760225E0
2.609281302E0,1.902294040E0,9.705288887E0,1.165902853E0
2.611794115E0,1.840080619E0,9.686145782E0,1.189831018E0
2.614306979E0,1.806581140E0,9.662218094E0,1.194616675E0
2.616830261E0,1.840080619E0,9.619147301E0,1.189831018E0
2.619343125E0,1.806581140E0,9.614361763E0,1.213759303E0
2.621855990E0,1.739582062E0,9.681360245E0,1.199402332E0
2.624368802E0,1.682154298E0,9.710074425E0,1.218544960E0
2.626881667E0,1.591227055E0,9.734002113E0,1.218544960E0
2.629394479E0,1.490728498E0,9.801001549E0,1.165902853E0
2.631907344E0,1.375274777E0,9.882357597E0,1.156331539E0
2.634420209E0,1.231705427E0,9.926026344E0,1.098903775E0
2.636933021E0,1.107278705E0,9.969097137E0,1.079761267E0
2.639445886E0,1.006780148E0,9.969097137E0,1.084546804E0
2.641958698E0,9.397810698E-1,1.002173901E1,1.027119160E0
2.644471563E0,8.673982024E-1,1.002652550E1,9.936196208E-1
2.646994844E0,7.812566161E-1,1.002652550E1,9.649057388E-1
2.649507709E0,7.142575383E-1,1.002652550E1,9.355936646E-1
2.652020573E0,6.616154313E-1,1.005045319E1,8.877372146E-1
2.654533386E0,6.376872063E-1,1.000738239E1,8.255237937E-1
2.657046250E0,5.706881881E-1,9.983454704E0,7.824530005E-1
2.659559063E0,5.084748268E-1,9.969097137E0,7.968099117E-1
2.662071927E0,4.606183469E-1,9.911669731E0,7.633104324E-1
2.664584792E0,4.223332107E-1,9.887143135E0,6.963114142E-1
2.667097604E0,3.834498227E-1,9.853643417E0,6.723831892E-1
2.669610469E0,3.595215976E-1,9.829715729E0,7.154539824E-1
2.672123281E0,3.547359705E-1,9.810572624E0,7.010970116E-1
2.674636146E0,3.690928817E-1,9.801001549E0,7.154539824E-1
2.677159427E0,3.308077157E-1,9.786644936E0,7.441678643E-1
2.679672292E0,3.355933726E-1,9.829715729E0,6.963114142E-1
2.682185156E0,3.403790295E-1,9.796216011E0,7.298108935E-1
2.684697969E0,3.068794906E-1,9.820143700E0,7.106683254E-1
2.687210834E0,2.877369225E-1,9.829715729E0,7.154539824E-1
2.689723646E0,3.212364316E-1,9.858428955E0,7.250252366E-1
2.692236511E0,2.973082066E-1,9.839286804E0,7.345965505E-1
2.694749375E0,2.685943544E-1,9.853643417E0,7.298108935E-1
2.697262188E0,2.685943544E-1,9.868000984E0,7.058826685E-1
2.699775052E0,3.068794906E-1,9.911669731E0,7.537391186E-1
2.702287865E0,2.542374134E-1,9.930811882E0,7.920243144E-1
2.704800729E0,2.542374134E-1,9.921240807E0,8.350951076E-1
2.707324011E0,2.398804724E-1,9.921240807E0,7.920243144E-1
2.709836875E0,2.590230405E-1,9.949954987E0,7.920243144E-1
2.712349740E0,2.542374134E-1,9.921240807E0,7.920243144E-1
2.714862552E0,2.494517565E-1,9.935597420E0,7.537391186E-1
2.717375417E0,3.212364316E-1,9.911669731E0,7.728816867E-1
2.719888229E0,3.116651475E-1,9.906884193E0,7.441678643E-1
2.722401094E0,3.403790295E-1,9.916455269E0,7.298108935E-1
2.724913959E0,3.930211067E-1,9.935597420E0,7.537391186E-1
2.727426771E0,4.701896608E-1,9.877572060E0,7.537391186E-1
2.729939636E0,4.749752879E-1,9.891928673E0,7.728816867E-1
2.732452448E0,5.228317380E-1,9.891928673E0,7.920243144E-1
2.734965313E0,5.994020700E-1,9.853643417E0,7.872386575E-1
2.737488594E0,6.664010882E-1,9.834501266E0,8.255237937E-1
2.740001459E0,6.951149702E-1,9.791430473E0,8.350951076E-1
2.742514323E0,7.429714203E-1,9.757930756E0,8.829515576E-1
2.745027136E0,7.860422134E-1,9.705288887E0,9.403793216E-1
2.747540000E0,9.056833982E-1,9.700503349E0,1.007976532E0
2.750052813E0,9.637092948E-1,9.671789169E0,1.027119160E0
2.752565677E0,1.035493970E0,9.662218094E0,1.065404296E0
2.755078542E0,1.054636598E0,9.609575272E0,1.079761267E0
2.757591354E0,8.243274093E-1,9.686145782E0,1.319043517E0
2.760104219E0,6.568298340E-1,9.815358162E0,1.299900889E0
2.762617031E0,8.434699774E-1,9.824930191E0,1.122832060E0
2.765129896E0,1.078564763E0,9.662218094E0,1.256830096E0
2.767653177E0,1.097707391E0,9.652647018E0,1.319043517E0
2.770166042E0,9.296116233E-1,9.729216576E0,1.223330617E0
2.772678906E0,1.116850019E0,9.686145782E0,1.199402332E0
2.775191719E0,1.360917926E0,9.690931320E0,1.271187067E0
2.777704584E0,1.524227977E0,9.757930756E0,1.204187989E0
2.780217396E0,1.619940877E0,9.772287369E0,1.165902853E0
2.782730261E0,1.672582984E0,9.810572624E0,1.031904817E0
2.785243125E0,1.854437590E0,9.738788605E0,9.744769931E-1
2.787755938E0,1.964507341E0,9.734002113E0,8.446664214E-1
2.790268802E0,2.103889227E0,9.690931320E0,7.824530005E-1
2.792781615E0,2.070389748E0,9.662218094E0,8.255237937E-1
2.795294479E0,2.041675806E0,9.667003632E0,8.638089895E-1
2.797817761E0,2.132603168E0,9.643074989E0,8.255237937E-1
2.800330625E0,2.276172638E0,9.676574707E0,7.489534616E-1
2.802843490E0,2.285743713E0,9.671789169E0,7.345965505E-1
2.805356302E0,2.367099762E0,9.604789734E0,6.484549642E-1
2.807869167E0,2.424527645E0,9.623932838E0,6.101697683E-1
2.810381979E0,2.209173441E0,9.686145782E0,8.015955687E-1
2.812894844E0,2.204387903E0,9.868000984E0,9.888339639E-1
2.815407709E0,2.027318954E0,9.810572624E0,1.137188911E0
2.817920521E0,1.844866276E0,9.801001549E0,1.098903775E0
2.820433386E0,1.868794441E0,9.993025780E0,1.012762189E0
2.822946198E0,1.825723648E0,1.002652550E1,1.012762189E0
2.825459063E0,1.873580098E0,1.003131104E1,1.036690354E0
2.827982344E0,1.964507341E0,1.005523872E1,9.451649189E-1
2.830495209E0,2.094317913E0,1.032323551E1,7.393822074E-1
2.833008073E0,2.113460541E0,1.061097240E1,5.623133183E-1
2.835520886E0,2.108675003E0,1.075454140E1,5.192425251E-1
2.838033750E0,2.075175524E0,1.053918743E1,5.000999570E-1
2.840546563E0,1.782652855E0,1.017966557E1,7.202396393E-1
2.843059427E0,1.073779106E0,1.001216793E1,1.046261668E0
2.845572292E0,4.223332107E-1,9.997811317E0,1.247258782E0
2.848085104E0,3.499503136E-1,9.940383911E0,1.122832060E0
2.850597969E0,4.749752879E-1,9.921240807E0,9.601200819E-1
2.853110781E0,8.051848412E-1,9.710074425E0,9.116654396E-1
2.855623646E0,7.429714203E-1,9.681360245E0,8.638089895E-1
2.858146927E0,4.127618968E-1,9.686145782E0,9.355936646E-1
2.860659792E0,3.595215976E-1,9.547362328E0,1.089332461E0
2.863172656E0,5.659025311E-1,9.336195946E0,1.189831018E0
2.865685469E0,6.472585201E-1,9.340981483E0,1.266401410E0
2.868198334E0,8.817551732E-1,9.370293617E0,1.175474167E0
2.870711146E0,1.164706469E0,9.379864693E0,1.041476011E0
2.873224011E0,1.135992527E0,9.528220177E0,1.098903775E0
2.875736875E0,9.152546525E-1,9.690931320E0,1.223330617E0
2.878249688E0,7.573283911E-1,9.954740524E0,1.395613790E0
2.880762552E0,5.754738450E-1,1.014616585E1,1.539781332E0
2.883275365E0,4.749752879E-1,1.037109184E1,1.539781332E0
2.885788229E0,4.319044948E-1,1.056311512E1,1.400399446E0
2.888311511E0,5.467599630E-1,1.067797089E1,1.208973646E0
2.890824375E0,8.386843204E-1,1.076411247E1,8.590233326E-1
2.893337240E0,1.054636598E0,1.073061275E1,6.245267391E-1
2.895850052E0,1.231705427E0,1.071625614E1,5.000999570E-1
2.898362917E0,1.375274777E0,1.061575794E1,3.798605800E-1
2.900875729E0,1.289133191E0,1.052483082E1,3.559323549E-1
2.903388594E0,1.336989641E0,1.039980507E1,2.697907388E-1
2.905901459E0,1.476371527E0,1.017966557E1,1.884347796E-1
2.908414271E0,1.485942841E0,1.004566765E1,8.793623000E-2
2.910927136E0,1.399203062E0,9.926026344E0,-3.170489892E-2
2.913439948E0,1.322632670E0,9.810572624E0,-1.034895778E-1
2.915952813E0,1.064207911E0,9.719645500E0,-1.130608693E-1
2.918476094E0,9.493523836E-1,9.719645500E0,-1.854437590E-1
2.920988959E0,9.541380405E-1,9.662218094E0,-2.476571500E-1
2.923501823E0,9.397810698E-1,9.547362328E0,-3.529413342E-1
2.926014636E0,1.121635556E0,9.403793335E0,-4.869394004E-1
2.928527500E0,1.226919770E0,9.326624870E0,-4.151547253E-1
2.931040313E0,1.064207911E0,9.389435768E0,-4.007977843E-1
2.933553177E0,5.611169338E-1,9.820143700E0,-5.826523304E-1
2.936066042E0,8.195417374E-2,1.013180923E1,-6.693921089E-1
2.938578854E0,4.845465720E-2,1.013659477E1,-5.874379873E-1
2.941091719E0,2.159522474E-1,1.017966557E1,-4.773681164E-1
2.943604531E0,4.271188378E-1,1.015095139E1,-4.007977843E-1
2.946117396E0,5.515456200E-1,1.004088211E1,-3.242274821E-1
2.948640677E0,7.334001660E-1,9.983454704E0,-2.907279432E-1
2.951153542E0,8.721838593E-1,9.906884193E0,-2.141576260E-1
2.953666406E0,9.732806087E-1,9.853643417E0,-1.471585929E-1
2.956179219E0,9.684949517E-1,9.824930191E0,-4.127619043E-2
2.958692084E0,9.637092948E-1,9.786644936E0,-3.649054468E-2
2.961204896E0,1.045065284E0,9.729216576E0,4.486542568E-2
2.963717761E0,1.126421213E0,9.690931320E0,1.740778536E-1
2.966230625E0,1.222134113E0,9.561718941E0,2.362912297E-1
2.968743438E0,1.279561877E0,9.475577354E0,3.080759048E-1
2.971256302E0,1.418345571E0,9.408578873E0,3.702892959E-1
2.973769115E0,1.476371527E0,9.269196510E0,4.761717021E-1
2.976281979E0,1.461416483E0,9.183054924E0,5.335994363E-1
2.978805261E0,1.543370605E0,9.144769669E0,5.192425251E-1
2.981318125E0,1.543370605E0,9.116056442E0,5.192425251E-1
2.983830990E0,1.576870084E0,9.101698875E0,5.335994363E-1
2.986343802E0,1.639083505E0,9.096913338E0,5.192425251E-1
2.988856667E0,1.658226132E0,9.120841980E0,5.192425251E-1
2.991369479E0,1.672582984E0,9.159127235E0,5.814558864E-1
2.993882344E0,1.725225091E0,9.144769669E0,6.101697683E-1
2.996395209E0,1.715653777E0,9.178269386E0,5.958128572E-1
2.998908021E0,1.797009826E0,9.230911255E0,5.718846321E-1
3.001420886E0,1.835294962E0,9.307481766E0,5.862415433E-1
3.003933698E0,1.897508383E0,9.331410408E0,6.149554253E-1
3.006446563E0,2.008176327E0,9.384650230E0,5.814558864E-1
3.008969792E0,2.103889227E0,9.466006279E0,6.149554253E-1
3.011482656E0,2.089532375E0,9.509077072E0,6.580262184E-1
3.013995521E0,2.075175524E0,9.595218658E0,7.058826685E-1
3.016508334E0,2.012962103E0,9.671789169E0,7.106683254E-1
3.019021198E0,2.022533417E0,9.753145218E0,7.441678643E-1
3.021534011E0,2.051247120E0,9.829715729E0,8.111668825E-1
3.024046875E0,2.036890268E0,9.911669731E0,8.829515576E-1
3.026559740E0,2.022533417E0,9.978668213E0,8.398807645E-1
3.029072552E0,2.041675806E0,1.003131104E1,8.494520187E-1
3.031585417E0,2.089532375E0,1.006480980E1,9.888339639E-1
3.034098229E0,2.079961061E0,1.017966557E1,1.046261668E0
3.036611094E0,2.022533417E0,1.016052341E1,1.127617717E0
3.039134427E0,1.911865234E0,1.021316528E1,1.141974568E0
3.041647292E0,1.734796405E0,1.026580715E1,1.165902853E0
3.044160156E0,1.639083505E0,1.025145054E1,1.108475089E0
3.046672969E0,1.481157184E0,1.033280659E1,1.036690354E0
3.049185834E0,1.370489120E0,1.040937710E1,1.017547846E0
3.051698646E0,1.394417405E0,1.039023399E1,9.984052777E-1
3.054211511E0,1.399203062E0,1.038066292E1,9.888339639E-1
3.056724375E0,1.250848055E0,1.044826031E1,9.451649189E-1
3.059237188E0,1.231705427E0,1.052004433E1,8.973084688E-1
3.061750052E0,1.226919770E0,1.052004433E1,9.451649189E-1
3.064262865E0,1.155135155E0,1.051047325E1,9.649057388E-1
3.066775729E0,1.179063320E0,1.053918743E1,9.744769931E-1
3.069298959E0,1.356132269E0,1.061575794E1,9.260223508E-1
3.071811823E0,9.056833982E-1,1.087896824E1,8.685946465E-1
3.074324688E0,2.446661144E-1,1.104227829E1,7.585247755E-1
3.076837500E0,1.250249892E-1,1.112841988E1,6.293123364E-1
3.079350365E0,3.499503136E-1,1.112363434E1,6.005984545E-1
3.081863177E0,5.850451589E-1,1.095553875E1,6.101697683E-1
3.084376042E0,5.611169338E-1,1.077368355E1,5.718846321E-1
3.086888906E0,7.334001660E-1,1.053440189E1,6.484549642E-1
3.089401719E0,1.500299811E0,9.940383911E0,8.015955687E-1
3.091914584E0,1.883151412E0,9.461220741E0,8.255237937E-1
3.094427396E0,1.505085468E0,9.245268822E0,8.877372146E-1
3.096940261E0,7.908278704E-1,9.269196510E0,8.781659007E-1
3.099463594E0,4.941178858E-1,9.230911255E0,9.601200819E-1
3.101976615E0,3.020938635E-1,9.111269951E0,9.553344250E-1
3.104489636E0,3.595215976E-1,8.934201241E0,9.451649189E-1
3.107002656E0,5.371887088E-1,8.684749603E0,9.505487680E-1
3.109515677E0,7.860422134E-1,8.493324280E0,8.542376757E-1
3.112028698E0,1.222134113E0,8.248658180E0,7.872386575E-1
3.114541719E0,1.643869162E0,8.018946648E0,7.250252366E-1
3.117054740E0,1.797009826E0,7.928019524E0,7.058826685E-1
3.119567761E0,1.715653777E0,7.985447407E0,7.250252366E-1
3.122080781E0,1.485942841E0,8.196015358E0,6.963114142E-1
3.124593802E0,8.721838593E-1,8.584251404E0,5.814558864E-1
3.127106823E0,2.063809484E-1,9.101698875E0,4.761717021E-1
3.129628177E0,-1.238285750E-1,9.523433685E0,5.479564071E-1
3.132141198E0,-4.725824669E-2,9.695717812E0,6.388836503E-1
3.134654219E0,1.393819153E-1,9.786644936E0,5.910272002E-1
3.137167240E0,1.489532143E-1,9.848857880E0,6.053841114E-1
3.139680261E0,2.398804724E-1,9.839286804E0,6.723831892E-1
3.142193281E0,5.228317380E-1,9.719645500E0,6.915257573E-1
3.144706302E0,6.999006271E-1,9.705288887E0,7.154539824E-1
3.147219323E0,4.989035130E-1,9.777072906E0,6.675975323E-1
3.149732344E0,-2.153540403E-1,1.019402313E1,5.335994363E-1
3.152245365E0,-9.912267923E-1,1.070189953E1,4.522434771E-1
3.154758386E0,-7.710871100E-1,1.084068298E1,6.388836503E-1
3.157271406E0,-5.204389244E-2,1.064447117E1,7.489534616E-1
3.159792761E0,4.797609448E-1,1.026580715E1,7.058826685E-1
3.162305781E0,4.749752879E-1,1.009830952E1,6.197410822E-1
3.164818802E0,1.345962733E-1,1.018445110E1,4.905286431E-1
3.167331823E0,9.631111473E-2,1.017009449E1,4.905286431E-1
3.169844844E0,2.159522474E-1,1.012223816E1,5.144568682E-1
3.172357865E0,2.063809484E-1,1.009830952E1,4.618147612E-1
3.174870886E0,2.111666054E-1,1.008873844E1,4.037888348E-1
3.177383906E0,3.403790295E-1,1.007438183E1,3.846462369E-1
3.179896927E0,4.845465720E-1,9.916455269E0,3.320041299E-1
3.182409948E0,4.893322289E-1,9.858428955E0,2.506481707E-1
3.184922969E0,-1.531406492E-1,1.020359421E1,7.836493850E-2
3.187435990E0,-7.328019142E-1,1.058225822E1,-2.691925503E-2
3.189957292E0,-6.460621357E-1,1.059182930E1,-9.870393574E-2
3.192470313E0,-3.302095234E-1,1.050090218E1,-1.902294010E-1
3.194983334E0,-2.679961324E-1,1.043330479E1,-3.146561682E-1
3.197496354E0,-2.105683982E-1,1.039980507E1,-3.577269912E-1
3.200009375E0,-1.046859920E-1,1.037587738E1,-3.912265003E-1
3.202522396E0,-8.973085321E-3,1.028495026E1,-3.290131092E-1
3.205035417E0,1.016949583E-2,1.020837975E1,-3.433700502E-1
3.207548438E0,6.281159073E-2,1.015573788E1,-2.811566591E-1
3.210061459E0,1.489532143E-1,1.002173901E1,-2.189432681E-1
3.212574479E0,2.350948304E-1,9.940383911E0,-2.237289101E-1
3.215087500E0,3.020938635E-1,9.882357597E0,-1.806581169E-1
3.217600521E0,5.611169338E-1,9.676574707E0,-9.391828626E-2
3.220121875E0,8.051848412E-1,9.475577354E0,-8.434699476E-2
3.222634896E0,8.099704385E-1,9.389435768E0,-8.434699476E-2
3.225147917E0,5.132604837E-1,9.571290970E0,-1.082752272E-1
3.227660938E0,1.058823988E-1,9.791430473E0,-1.423729509E-1
3.230173959E0,-1.854437590E-2,9.906884193E0,-1.663011760E-1
3.232686979E0,2.931207791E-2,9.896714211E0,-1.902294010E-1
3.235200000E0,1.393819153E-1,9.729216576E0,-1.806581169E-1
3.237713021E0,2.829512656E-1,9.652647018E0,-2.189432681E-1
3.240226042E0,3.355933726E-1,9.580862045E0,-2.859423161E-1
3.242739063E0,3.355933726E-1,9.456435204E0,-2.715853751E-1
3.245252084E0,3.786641955E-1,9.355338097E0,-2.667997181E-1
3.247765104E0,4.701896608E-1,9.264410973E0,-2.667997181E-1
3.250286459E0,5.898307562E-1,9.202198029E0,-2.667997181E-1
3.252799479E0,6.616154313E-1,9.173483849E0,-2.667997181E-1
3.255312500E0,6.759724021E-1,9.216554642E0,-1.950150430E-1
3.257825521E0,7.238288522E-1,9.211769104E0,-1.998006850E-1
3.260338542E0,7.142575383E-1,9.240483284E0,-1.758724600E-1
3.262851563E0,6.711867452E-1,9.340981483E0,-1.758724600E-1
3.265364584E0,6.329016089E-1,9.399007797E0,-1.615155339E-1
3.267877604E0,6.329016089E-1,9.504291534E0,-1.232303679E-1
3.270390625E0,6.089733839E-1,9.595218658E0,-2.045863420E-1
3.272903646E0,5.706881881E-1,9.657432556E0,-1.950150430E-1
3.275416667E0,5.994020700E-1,9.690931320E0,-1.663011760E-1
3.277929688E0,5.850451589E-1,9.729216576E0,-1.902294010E-1
3.280451042E0,5.467599630E-1,9.815358162E0,-1.663011760E-1
3.282964063E0,4.749752879E-1,9.820143700E0,-1.663011760E-1
3.285477084E0,4.749752879E-1,9.815358162E0,-1.423729509E-1
3.287990104E0,4.462614357E-1,9.872786522E0,-1.471585929E-1
3.290503125E0,3.595215976E-1,9.916455269E0,-1.663011760E-1
3.293016146E0,3.690928817E-1,9.959526062E0,-1.034895778E-1
3.295529167E0,3.260220885E-1,9.973882675E0,-9.391828626E-2
3.298042188E0,3.308077157E-1,1.002652550E1,-1.663011760E-1
3.300555209E0,2.685943544E-1,1.007916737E1,-8.913264424E-2
3.303068229E0,2.685943544E-1,1.015095139E1,-8.913264424E-2
3.305581250E0,2.494517565E-1,1.017966557E1,-6.041877344E-2
3.308094271E0,2.063809484E-1,1.024187946E1,-8.434699476E-2
3.310615625E0,2.494517565E-1,1.032802105E1,-1.471585929E-1
3.313128646E0,2.303091735E-1,1.032802105E1,-2.045863420E-1
3.315641667E0,2.733799815E-1,1.030887794E1,-2.333002090E-1
3.318154688E0,2.063809484E-1,1.034237766E1,-2.715853751E-1
3.320667709E0,1.728814393E-1,1.038066292E1,-2.907279432E-1
3.323180729E0,1.202393398E-1,1.035673428E1,-2.907279432E-1
3.325693750E0,1.393819153E-1,1.026580715E1,-2.572284341E-1
3.328206771E0,1.106680483E-1,1.027537823E1,-2.189432681E-1
3.330719792E0,7.238288224E-2,1.025145054E1,-1.998006850E-1
3.333232813E0,1.010967568E-1,1.022273636E1,-1.082752272E-1
3.335745834E0,8.195417374E-2,1.018445110E1,-1.256231871E-2
3.338258854E0,6.759724021E-2,1.015573788E1,4.486542568E-2
3.340780209E0,1.010967568E-1,1.007916737E1,1.884347796E-1
3.343293229E0,1.250249892E-1,1.005523872E1,2.554338276E-1
3.345806250E0,2.159522474E-1,9.988240242E0,3.367897868E-1
3.348319271E0,2.973082066E-1,9.926026344E0,3.750749528E-1
3.350832292E0,3.786641955E-1,9.868000984E0,4.283152521E-1
3.353345313E0,4.223332107E-1,9.791430473E0,5.000999570E-1
3.355858334E0,5.515456200E-1,9.762716293E0,6.197410822E-1
3.358371354E0,6.424728632E-1,9.647860527E0,6.484549642E-1
3.360884375E0,7.621139884E-1,9.585647583E0,7.393822074E-1
3.363397396E0,9.397810698E-1,9.494720459E0,7.298108935E-1
3.365910417E0,1.083350420E0,9.331410408E0,7.489534616E-1
3.368423438E0,1.202991605E0,9.259625435E0,7.441678643E-1
3.370944792E0,1.236491084E0,9.230911255E0,7.489534616E-1
3.373457813E0,1.193420291E0,9.235696793E0,8.063812256E-1
3.375970834E0,1.183848977E0,9.226125717E0,8.015955687E-1
3.378483854E0,1.260419369E0,9.221340179E0,7.824530005E-1
3.380996875E0,1.322632670E0,9.183054924E0,8.398807645E-1
3.383509896E0,1.274776220E0,9.240483284E0,8.877372146E-1
3.386022917E0,1.269990563E0,9.312267303E0,8.925228715E-1
3.388535938E0,1.140778184E0,9.442078590E0,8.015955687E-1
3.391048959E0,1.021137118E0,9.580862045E0,7.728816867E-1
3.393561979E0,9.828519225E-1,9.652647018E0,7.010970116E-1
3.396075000E0,9.248259664E-1,9.762716293E0,5.958128572E-1
3.398588021E0,8.721838593E-1,9.844072342E0,5.479564071E-1
3.401109375E0,7.286145091E-1,1.000738239E1,5.718846321E-1
3.403622396E0,6.233302951E-1,1.009352398E1,5.383850932E-1
3.406135417E0,6.281159520E-1,1.011266708E1,4.905286431E-1
3.408648438E0,5.802595019E-1,1.012702370E1,4.378865361E-1
3.411161459E0,5.994020700E-1,1.016052341E1,3.942175210E-1
3.413674479E0,4.701896608E-1,1.022273636E1,3.320041299E-1
3.416187500E0,3.978067636E-1,1.027059269E1,2.937189937E-1
3.418700521E0,3.403790295E-1,1.032323551E1,2.937189937E-1
3.421213542E0,2.685943544E-1,1.041416264E1,2.745763958E-1
3.423726563E0,1.776670814E-1,1.043868923E1,2.889333367E-1
3.426239584E0,1.441675574E-1,1.052483082E1,3.032902777E-1
3.428752604E0,8.673982322E-2,1.058704376E1,2.985046208E-1
3.431273959E0,3.888336942E-2,1.067318535E1,3.415754437E-1
3.433786979E0,-4.247260094E-2,1.076889801E1,3.655036688E-1
3.436300000E0,-1.046859920E-1,1.084546852E1,3.702892959E-1
3.438813021E0,-1.770688742E-1,1.090289593E1,4.283152521E-1
3.441326042E0,-2.727817893E-1,1.099442196E1,4.522434771E-1
3.443839063E0,-3.158525825E-1,1.109970570E1,4.857429862E-1
3.446352084E0,-3.206382394E-1,1.119063377E1,5.288137794E-1
3.448865104E0,-3.780659735E-1,1.121456146E1,5.958128572E-1
3.451378125E0,-3.780659735E-1,1.123849010E1,7.010970116E-1
3.453891146E0,-4.115654826E-1,1.126241779E1,7.633104324E-1
3.456404167E0,-3.541377485E-1,1.127198887E1,8.685946465E-1
3.458917188E0,-3.732803464E-1,1.126720333E1,9.553344250E-1
3.461438542E0,-3.684946895E-1,1.126241779E1,1.027119160E0
3.463951563E0,-3.637090325E-1,1.124327564E1,1.079761267E0
3.466464584E0,-4.067798555E-1,1.118106174E1,1.127617717E0
3.468977604E0,-3.445664644E-1,1.115234852E1,1.156331539E0
3.471490625E0,-3.062812984E-1,1.108534908E1,1.156331539E0
3.474003646E0,-2.632105052E-1,1.100877857E1,1.122832060E0
3.476516667E0,-2.057827413E-1,1.094118118E1,1.118046403E0
3.479029688E0,-1.339980662E-1,1.086461163E1,1.012762189E0
3.481542709E0,-1.142572835E-1,1.074975586E1,9.696913958E-1
3.484055729E0,-6.161518395E-2,1.067318535E1,9.116654396E-1
3.486568750E0,-1.375873014E-2,1.054875851E1,8.685946465E-1
3.489081771E0,4.845465720E-2,1.039023399E1,8.255237937E-1
3.491603125E0,2.931207791E-2,1.023709393E1,8.111668825E-1
3.494116146E0,9.631111473E-2,1.011745262E1,7.968099117E-1
3.496629167E0,1.106680483E-1,9.983454704E0,7.920243144E-1
3.499142188E0,1.106680483E-1,9.896714211E0,7.872386575E-1
3.501655209E0,1.058823988E-1,9.734002113E0,7.968099117E-1
3.504168229E0,1.489532143E-1,9.628718376E0,8.494520187E-1
3.506681250E0,1.345962733E-1,9.566504478E0,8.542376757E-1
3.509194271E0,1.202393398E-1,9.442078590E0,8.781659007E-1
3.511707292E0,1.537388563E-1,9.293125153E0,9.068797827E-1
3.514220313E0,1.680957973E-1,9.187840462E0,9.840483069E-1
3.516733334E0,2.207378894E-1,9.072985649E0,9.696913958E-1
3.519246354E0,2.590230405E-1,9.001200676E0,9.649057388E-1
3.521767761E0,3.690928817E-1,8.833703041E0,1.012762189E0
3.524280781E0,3.882354796E-1,8.646464348E0,1.041476011E0
3.526793802E0,4.271188378E-1,8.522037506E0,1.036690354E0
3.529306823E0,4.510470629E-1,8.383254051E0,1.051047325E0
3.531819844E0,4.893322289E-1,8.205587387E0,1.074975610E0
3.534332865E0,5.228317380E-1,8.014161110E0,1.036690354E0
3.536845886E0,5.706881881E-1,7.870592117E0,1.055832982E0
3.539358906E0,5.802595019E-1,7.731209755E0,1.084546804E0
3.541871927E0,6.472585201E-1,7.630711555E0,1.041476011E0
3.544384948E0,6.281159520E-1,7.549355507E0,1.051047325E0
3.546897969E0,6.759724021E-1,7.482356548E0,1.003190875E0
3.549410990E0,6.568298340E-1,7.434499741E0,9.888339639E-1
3.551932344E0,6.759724021E-1,7.405786037E0,9.744769931E-1
3.554445365E0,7.142575383E-1,7.367500782E0,9.260223508E-1
3.556958386E0,7.142575383E-1,7.329215527E0,8.973084688E-1
3.559471406E0,6.999006271E-1,7.324429989E0,8.590233326E-1
3.561984427E0,6.951149702E-1,7.310073376E0,7.872386575E-1
3.564497448E0,6.999006271E-1,7.257431030E0,7.824530005E-1
3.567010469E0,7.573283911E-1,7.276573658E0,7.968099117E-1
3.569523490E0,7.477570772E-1,7.276573658E0,7.872386575E-1
3.572036511E0,7.477570772E-1,7.286144733E0,8.063812256E-1
3.574549531E0,8.291130662E-1,7.305287361E0,8.350951076E-1
3.577062552E0,8.291130662E-1,7.319644451E0,7.537391186E-1
3.579575573E0,8.865407705E-1,7.381857872E0,7.680960894E-1
3.582096927E0,9.493523836E-1,7.396214962E0,7.728816867E-1
3.584609948E0,9.684949517E-1,7.429714203E0,8.015955687E-1
3.587122969E0,1.035493970E0,7.472784996E0,8.733802438E-1
3.589635990E0,1.174277663E0,7.515855789E0,8.925228715E-1
3.592149011E0,1.265205026E0,7.544569969E0,9.068797827E-1
3.594662031E0,1.423131227E0,7.601997375E0,9.601200819E-1
3.597175052E0,1.557727575E0,7.692924976E0,1.022333503E0
3.599688073E0,1.710868239E0,7.712067604E0,1.084546804E0
3.602201094E0,1.887937069E0,7.832306862E0,1.089332461E0
3.604714115E0,2.075175524E0,7.913662910E0,1.118046403E0
3.607227136E0,2.271386862E0,8.085946083E0,1.180259824E0
3.609740156E0,2.458027124E0,8.277371407E0,1.194616675E0
3.612261459E0,2.640479803E0,8.493324280E0,1.199402332E0
3.614774636E0,2.865405083E0,8.694320679E0,1.199402332E0
3.617287813E0,3.129213810E0,8.938986778E0,1.127617717E0
3.619800938E0,3.411566973E0,9.273982048E0,1.027119160E0
3.622314115E0,3.732803345E0,9.619147301E0,9.840483069E-1
3.624827292E0,3.991228104E0,9.969097137E0,8.398807645E-1
3.627340417E0,4.240679741E0,1.034716320E1,7.154539824E-1
3.629853594E0,4.460819721E0,1.074975586E1,5.670989752E-1
3.632366771E0,4.642673969E0,1.114756203E1,4.426721931E-1
3.634879896E0,4.777270317E0,1.157408333E1,3.367897868E-1
3.637393073E0,4.872983456E0,1.189472103E1,2.315055877E-1
3.639906198E0,4.887340069E0,1.223031521E1,1.788634956E-1
3.642426042E0,4.887340069E0,1.255095291E1,1.310070455E-1
3.644939219E0,4.844269276E0,1.289611721E1,1.022931710E-1
3.647452396E0,4.762913704E0,1.317428303E1,1.310070455E-1
3.649965521E0,4.676173687E0,1.343749332E1,1.118644550E-1
3.652478698E0,4.542175770E0,1.368215942E1,1.501496136E-1
3.654991875E0,4.317250252E0,1.380658627E1,1.405783296E-1
3.657505000E0,4.043870449E0,1.385922909E1,1.788634956E-1
3.660018177E0,3.704089403E0,1.376351547E1,1.549352705E-1
3.662531354E0,3.277568817E0,1.354756355E1,1.070788130E-1
3.665044479E0,2.793620348E0,1.326999664E1,7.357929647E-2
3.667557656E0,2.333600283E0,1.289611721E1,6.879365444E-2
3.670070781E0,1.835294962E0,1.255095291E1,5.922235921E-2
3.672590625E0,1.356132269E0,1.216331577E1,7.836493850E-2
3.675103802E0,8.769695163E-1,1.177508068E1,1.357926875E-1
3.677616979E0,4.175475538E-1,1.143470097E1,1.932204217E-1
3.680130104E0,1.495514158E-2,1.110927773E1,2.697907388E-1
3.682643281E0,-4.307080805E-1,1.070668507E1,3.942175210E-1
3.685156459E0,-9.194421172E-1,1.041416264E1,5.431707501E-1
3.687669584E0,-1.369890928E0,1.015095139E1,7.920243144E-1
3.690182761E0,-1.810768485E0,9.911669731E0,1.022333503E0
3.692695938E0,-2.131406784E0,9.681360245E0,1.299900889E0
3.695209063E0,-2.457428932E0,9.475577354E0,1.573280931E0
3.697722240E0,-2.730210543E0,9.355338097E0,1.874776483E0
3.700235365E0,-2.893520832E0,9.235696793E0,2.176870346E0
3.702755209E0,-2.946162939E0,9.111269951E0,2.459223509E0
3.705268386E0,-2.831307411E0,9.029914856E0,2.727817774E0
3.707781563E0,-2.596212626E0,8.996415138E0,2.895315409E0
3.710294688E0,-2.390429735E0,8.900702477E0,2.933600664E0
3.712807865E0,-2.179263115E0,8.900702477E0,2.890529871E0
3.715321042E0,-1.954337835E0,8.905488014E0,2.794816732E0
3.717834167E0,-1.748555183E0,8.972486496E0,2.708675146E0
3.720347344E0,-1.551745534E0,9.063413620E0,2.560320139E0
3.722860521E0,-1.307677627E0,9.154341698E0,2.440080881E0
3.725373646E0,-1.005583763E0,9.273982048E0,2.234298229E0
3.727886823E0,-7.328019142E-1,9.336195946E0,1.984846354E0
3.730399948E0,-4.211367965E-1,9.513862610E0,1.764706731E0
3.732919792E0,-1.094716340E-1,9.623932838E0,1.525424480E0
3.735432969E0,1.489532143E-1,9.719645500E0,1.237687469E0
3.737946146E0,4.366901219E-1,9.853643417E0,1.027119160E0
3.740459271E0,7.668996453E-1,9.993025780E0,7.298108935E-1
3.742972448E0,9.732806087E-1,1.008873844E1,4.187439680E-1
3.745485625E0,1.207777262E0,1.017009449E1,2.171486616E-1
3.747998750E0,1.485942841E0,1.024666500E1,6.580262445E-3
3.750511927E0,1.730010748E0,1.034716320E1,-2.667997181E-1
3.753025104E0,1.864008784E0,1.032323551E1,-5.108676553E-1
3.755538229E0,1.983649969E0,1.028495026E1,-6.065805554E-1
3.758051406E0,2.108675003E0,1.026102161E1,-6.885347366E-1
3.760564531E0,2.180459738E0,1.021795082E1,-7.890332937E-1
3.763084375E0,2.204387903E0,1.010309505E1,-8.129615188E-1
3.765597552E0,2.151745796E0,1.004088211E1,-7.555337548E-1
3.768110729E0,2.089532375E0,9.921240807E0,-6.400800347E-1
3.770623854E0,2.036890268E0,9.872786522E0,-4.773681164E-1
3.773137031E0,1.911865234E0,9.767501831E0,-3.577269912E-1
3.775650209E0,1.787438512E0,9.695717812E0,-1.375873089E-1
3.778163334E0,1.643869162E0,9.623932838E0,6.580262445E-3
3.780676511E0,1.548156261E0,9.600004196E0,1.118644550E-1
3.783189688E0,1.461416483E0,9.600004196E0,2.554338276E-1
3.785702813E0,1.365703583E0,9.595218658E0,3.559323549E-1
3.788215990E0,1.250848055E0,9.638289452E0,4.037888348E-1
3.790729115E0,1.169492126E0,9.681360245E0,4.474578202E-1
3.793248959E0,1.073779106E0,9.738788605E0,4.953143001E-1
3.795762136E0,9.589236975E-1,9.829715729E0,5.288137794E-1
3.798275313E0,8.626125455E-1,9.887143135E0,5.431707501E-1
3.800788438E0,7.429714203E-1,9.973882675E0,5.048855543E-1
3.803301615E0,6.520441771E-1,1.003131104E1,5.048855543E-1
3.805814792E0,4.558327198E-1,1.004088211E1,4.953143001E-1
3.808327917E0,3.643072546E-1,1.003131104E1,4.522434771E-1
3.810841094E0,3.020938635E-1,1.002173901E1,4.187439680E-1
3.813354271E0,2.590230405E-1,9.973882675E0,3.990031779E-1
3.815867396E0,2.159522474E-1,9.930811882E0,3.367897868E-1
3.818380573E0,2.159522474E-1,9.844072342E0,3.367897868E-1
3.820893698E0,2.542374134E-1,9.786644936E0,2.985046208E-1
3.823413542E0,2.494517565E-1,9.748359680E0,3.176472187E-1
3.825926719E0,2.877369225E-1,9.643074989E0,3.032902777E-1
3.828439896E0,3.308077157E-1,9.590433121E0,2.697907388E-1
3.830953021E0,3.355933726E-1,9.499505997E0,2.602194548E-1
3.833466198E0,3.643072546E-1,9.432506561E0,2.937189937E-1
3.835979375E0,4.558327198E-1,9.370293617E0,2.841476798E-1
3.838492500E0,5.132604837E-1,9.302696228E0,2.889333367E-1
3.841005677E0,5.132604837E-1,9.230911255E0,2.937189937E-1
3.843518854E0,5.467599630E-1,9.183054924E0,2.793620527E-1
3.846031979E0,5.802595019E-1,9.159127235E0,2.554338276E-1
3.848545156E0,5.754738450E-1,9.125627518E0,2.315055877E-1
3.851058281E0,5.754738450E-1,9.149555206E0,1.932204217E-1
3.853578125E0,6.185446382E-1,9.130413055E0,1.166501045E-1
3.856091302E0,6.759724021E-1,9.173483849E0,4.007977992E-2
3.858604479E0,7.238288522E-1,9.183054924E0,-2.213360928E-2
3.861117604E0,8.099704385E-1,9.211769104E0,-7.477571070E-2
3.863630781E0,8.673982024E-1,9.259625435E0,-1.758724600E-1
3.866143959E0,1.064207911E0,9.269196510E0,-2.620140910E-1
3.868657084E0,1.135992527E0,9.326624870E0,-4.486542344E-1
3.871170261E0,1.021137118E0,9.466006279E0,-6.448656917E-1
3.873683438E0,1.011565804E0,9.547362328E0,-8.464609981E-1
3.876196563E0,9.589236975E-1,9.638289452E0,-1.071386337E0
3.878709740E0,9.493523836E-1,9.667003632E0,-1.171884894E0
3.881222865E0,9.343972206E-1,9.729216576E0,-1.363908887E0
3.883742709E0,8.913264275E-1,9.772287369E0,-1.526620865E0
3.886255886E0,8.434699774E-1,9.810572624E0,-1.627119422E0
3.888769063E0,7.908278704E-1,9.777072906E0,-1.747358680E0
3.891282188E0,7.908278704E-1,9.757930756E0,-1.843071699E0
3.893795365E0,7.142575383E-1,9.805787086E0,-1.991426587E0
3.896308542E0,6.137589812E-1,9.853643417E0,-2.077568293E0
3.898821667E0,5.228317380E-1,9.848857880E0,-2.149353027E0
3.901334844E0,4.031906128E-1,9.820143700E0,-2.225923300E0
3.903848021E0,2.973082066E-1,9.853643417E0,-2.322234392E0
3.906361146E0,1.872383654E-1,9.891928673E0,-2.346162558E0
3.908874323E0,1.202393398E-1,9.887143135E0,-2.394019127E0
3.911387448E0,7.238288224E-2,9.911669731E0,-2.389233351E0
3.913907344E0,2.452643216E-2,9.945169449E0,-2.336591244E0
3.916420521E0,-3.768695518E-2,9.945169449E0,-2.374876499E0
3.918933698E0,-5.682953820E-2,9.959526062E0,-2.307877541E0
3.921446823E0,-9.990034252E-2,9.935597420E0,-2.225923300E0
3.923960000E0,-7.597211748E-2,9.945169449E0,-2.139781713E0
3.926473177E0,-5.204389244E-2,9.969097137E0,-2.096710920E0
3.928986302E0,5.982056609E-4,9.988240242E0,-2.053640127E0
3.931499479E0,3.409772366E-2,9.993025780E0,-2.053640127E0
3.934012656E0,4.366901144E-2,9.978668213E0,-1.977069736E0
3.936525781E0,1.680957973E-1,1.004566765E1,-1.924427629E0
3.939038959E0,2.350948304E-1,1.005045319E1,-1.943570137E0
3.941552084E0,3.547359705E-1,1.012223816E1,-1.881356835E0
3.944071875E0,4.654040039E-1,1.010309505E1,-1.862214208E0
3.946585052E0,5.994020700E-1,1.010309505E1,-1.790429592E0
3.949098229E0,7.190431952E-1,1.011745262E1,-1.752144337E0
3.951611354E0,8.099704385E-1,1.011745262E1,-1.790429592E0
3.954124531E0,9.397810698E-1,1.009352398E1,-1.780858278E0
3.956637709E0,1.040279627E0,1.007438183E1,-1.756929994E0
3.959150834E0,1.159920812E0,1.004566765E1,-1.776072621E0
3.961664011E0,1.241276741E0,9.973882675E0,-1.823929071E0
3.964177188E0,1.308275819E0,9.926026344E0,-1.819143414E0
3.966690313E0,1.408774376E0,9.863214493E0,-1.809572101E0
3.969203490E0,1.413560033E0,9.848857880E0,-1.809572101E0
3.971716615E0,1.399203062E0,9.805787086E0,-1.747358680E0
3.974236459E0,1.375274777E0,9.791430473E0,-1.733001828E0
3.976749636E0,1.346560955E0,9.786644936E0,-1.708475351E0
3.979262813E0,1.298704505E0,9.767501831E0,-1.737787485E0
3.981775938E0,1.241276741E0,9.757930756E0,-1.703689694E0
3.984289115E0,1.169492126E0,9.738788605E0,-1.670190215E0
3.986802292E0,1.064207911E0,9.772287369E0,-1.665404558E0
3.989315417E0,9.684949517E-1,9.719645500E0,-1.646261930E0
3.991828594E0,8.913264275E-1,9.753145218E0,-1.579262972E0
3.994341771E0,8.386843204E-1,9.757930756E0,-1.555334687E0
3.996854896E0,7.381857634E-1,9.767501831E0,-1.569691658E0
3.999368073E0,6.807580590E-1,9.772287369E0,-1.526620865E0
4.001881198E0,6.233302951E-1,9.767501831E0,-1.440479279E0
4.004401094E0,5.228317380E-1,9.767501831E0,-1.502692580E0
4.006914271E0,4.319044948E-1,9.743574142E0,-1.555334687E0
4.009427448E0,3.882354796E-1,9.781859398E0,-1.593619823E0
4.011940573E0,3.020938635E-1,9.815358162E0,-1.631905079E0
4.014453750E0,2.446661144E-1,9.791430473E0,-1.569691658E0
4.016966927E0,2.398804724E-1,9.772287369E0,-1.569691658E0
4.019480052E0,1.680957973E-1,9.781859398E0,-1.564906001E0
4.021993229E0,1.680957973E-1,9.748359680E0,-1.584048629E0
4.024506406E0,1.585244983E-1,9.753145218E0,-1.584048629E0
4.027019531E0,1.250249892E-1,9.729216576E0,-1.555334687E0
4.029532709E0,1.441675574E-1,9.738788605E0,-1.545763373E0
4.032045834E0,1.872383654E-1,9.714859962E0,-1.550549030E0
4.034565677E0,2.255235314E-1,9.753145218E0,-1.622333765E0
4.037078854E0,2.973082066E-1,9.705288887E0,-1.603191137E0
4.039592031E0,3.499503136E-1,9.710074425E0,-1.612762451E0
4.042105156E0,4.558327198E-1,9.757930756E0,-1.641476393E0
4.044618334E0,5.180460811E-1,9.762716293E0,-1.603191137E0
4.047131511E0,6.185446382E-1,9.772287369E0,-1.684547186E0
4.049644636E0,6.472585201E-1,9.805787086E0,-1.733001828E0
4.052157813E0,6.807580590E-1,9.834501266E0,-1.800000787E0
4.054670990E0,7.621139884E-1,9.834501266E0,-1.771286964E0
4.057184115E0,8.003991842E-1,9.906884193E0,-1.708475351E0
4.059697292E0,8.386843204E-1,9.940383911E0,-1.703689694E0
4.062210417E0,8.626125455E-1,1.001216793E1,-1.689332843E0
4.064730261E0,9.152546525E-1,1.001695347E1,-1.607976794E0
4.067243438E0,9.541380405E-1,1.001695347E1,-1.536192179E0
4.069756615E0,9.589236975E-1,1.006002426E1,-1.488335729E0
4.072269740E0,9.541380405E-1,1.006959629E1,-1.378265858E0
4.074782917E0,9.924231768E-1,1.008873844E1,-1.239482164E0
4.077296094E0,9.924231768E-1,1.003609657E1,-1.210768223E0
4.079809219E0,9.876375198E-1,1.007438183E1,-1.152742267E0
4.082322396E0,9.828519225E-1,1.008395290E1,-1.080957651E0
4.084835573E0,9.541380405E-1,1.014616585E1,-1.028315544E0
4.087348698E0,9.248259664E-1,1.013180923E1,-9.852447510E-1
4.089861875E0,9.008977413E-1,1.013659477E1,-8.512466550E-1
4.092375000E0,8.865407705E-1,1.016530895E1,-7.411768436E-1
4.094894844E0,8.386843204E-1,1.020359421E1,-6.496513486E-1
4.097408021E0,7.764709592E-1,1.015573788E1,-6.113662124E-1
4.099921198E0,7.908278704E-1,1.015573788E1,-6.257231236E-1
4.102434323E0,8.386843204E-1,1.019402313E1,-5.491527915E-1
4.104947500E0,7.860422134E-1,1.016530895E1,-5.300102234E-1
4.107460677E0,8.147560954E-1,1.014616585E1,-3.864408433E-1
4.109973802E0,8.099704385E-1,1.009352398E1,-2.763710022E-1
4.112486979E0,8.386843204E-1,1.007438183E1,-2.093719840E-1
4.115000156E0,8.769695163E-1,1.003131104E1,-1.710868180E-1
4.117513281E0,8.865407705E-1,9.983454704E0,-1.375873089E-1
4.120026459E0,9.876375198E-1,9.964311600E0,-9.391828626E-2
4.122539584E0,1.040279627E0,9.983454704E0,-1.471585929E-1
4.125059427E0,1.121635556E0,9.901499748E0,-1.082752272E-1
4.127572709E0,1.164706469E0,9.853643417E0,-1.902294010E-1
4.130085990E0,1.236491084E0,9.858428955E0,-2.620140910E-1
4.132599271E0,1.313061476E0,9.839286804E0,-2.524427772E-1
4.135112552E0,1.384846091E0,9.791430473E0,-3.050848842E-1
4.137625781E0,1.418345571E0,9.714859962E0,-2.955136001E-1
4.140139063E0,1.481157184E0,9.714859962E0,-2.955136001E-1
4.142652344E0,1.543370605E0,9.662218094E0,-3.481557071E-1
4.145165625E0,1.552941918E0,9.667003632E0,-3.720839322E-1
4.147678854E0,1.591227055E0,9.652647018E0,-3.912265003E-1
4.150192136E0,1.581655741E0,9.671789169E0,-3.960121572E-1
4.152705417E0,1.648654819E0,9.667003632E0,-4.103690982E-1
4.155224011E0,1.667797327E0,9.681360245E0,-3.960121572E-1
4.157737292E0,1.682154298E0,9.724431038E0,-3.960121572E-1
4.160250573E0,1.686939955E0,9.695717812E0,-4.582255483E-1
4.162763854E0,1.734796405E0,9.710074425E0,-4.965106845E-1
4.165277136E0,1.710868239E0,9.734002113E0,-4.917250574E-1
4.167790365E0,1.677368641E0,9.805787086E0,-4.965106845E-1
4.170303646E0,1.706082582E0,9.853643417E0,-5.012963414E-1
4.172816927E0,1.701296926E0,9.844072342E0,-5.491527915E-1
4.175330209E0,1.730010748E0,9.868000984E0,-5.347958803E-1
4.177843438E0,1.725225091E0,9.877572060E0,-4.486542344E-1
4.180356719E0,1.706082582E0,9.945169449E0,-3.816552162E-1
4.182870000E0,1.725225091E0,9.949954987E0,-3.768695593E-1
4.185388594E0,1.677368641E0,9.954740524E0,-2.572284341E-1
4.187901875E0,1.667797327E0,9.964311600E0,-1.567298770E-1
4.190415156E0,1.658226132E0,1.001216793E1,-1.082752272E-1
4.192928438E0,1.619940877E0,9.997811317E0,-2.213360928E-2
4.195441719E0,1.581655741E0,1.003131104E1,4.486542568E-2
4.197954948E0,1.586441398E0,9.978668213E0,9.272187948E-2
4.200468229E0,1.600798368E0,9.988240242E0,1.597209126E-1
4.202981511E0,1.538584948E0,9.969097137E0,1.932204217E-1
4.205494792E0,1.548156261E0,9.949954987E0,2.315055877E-1
4.208008021E0,1.509871125E0,9.882357597E0,2.075773627E-1
4.210521302E0,1.519442320E0,9.872786522E0,1.932204217E-1
4.213034584E0,1.552941918E0,9.824930191E0,1.836491376E-1
4.215553177E0,1.572084427E0,9.791430473E0,1.549352705E-1
4.218066459E0,1.643869162E0,9.772287369E0,1.501496136E-1
4.220579740E0,1.643869162E0,9.753145218E0,1.501496136E-1
4.223093021E0,1.667797327E0,9.734002113E0,1.980060786E-1
4.225606302E0,1.710868239E0,9.724431038E0,2.267199457E-1
4.228119531E0,1.749153376E0,9.714859962E0,2.554338276E-1
4.230632813E0,1.725225091E0,9.762716293E0,3.032902777E-1
4.233146094E0,1.768295884E0,9.805787086E0,3.463610709E-1
4.235659375E0,1.753939033E0,9.853643417E0,3.894318938E-1
4.238172604E0,1.777867198E0,9.844072342E0,4.085744619E-1
4.240685886E0,1.801795483E0,9.829715729E0,4.378865361E-1
4.243199167E0,1.811366796E0,9.858428955E0,3.942175210E-1
4.245717813E0,1.825723648E0,9.872786522E0,4.037888348E-1
4.248231094E0,1.768295884E0,9.882357597E0,3.798605800E-1
4.250744375E0,1.773081541E0,9.891928673E0,3.750749528E-1
4.253257656E0,1.773081541E0,9.926026344E0,3.080759048E-1
4.255770938E0,1.797009826E0,9.964311600E0,2.793620527E-1
4.258284167E0,1.744367719E0,9.988240242E0,2.745763958E-1
4.260797448E0,1.763510346E0,9.978668213E0,2.841476798E-1
4.263310729E0,1.734796405E0,9.949954987E0,3.080759048E-1
4.265824011E0,1.710868239E0,9.916455269E0,3.224328458E-1
4.268337240E0,1.715653777E0,9.887143135E0,3.415754437E-1
4.270850521E0,1.730010748E0,9.868000984E0,3.559323549E-1
4.273363802E0,1.710868239E0,9.815358162E0,3.894318938E-1
4.275882396E0,1.639083505E0,9.767501831E0,4.618147612E-1
4.278395677E0,1.581655741E0,9.734002113E0,4.666004181E-1
4.280908959E0,1.605584025E0,9.652647018E0,4.761717021E-1
4.283422240E0,1.500299811E0,9.576076508E0,5.623133183E-1
4.285935521E0,1.485942841E0,9.513862610E0,6.532405615E-1
4.288448750E0,1.476371527E0,9.437292099E0,6.484549642E-1
4.290962031E0,1.456630826E0,9.418149948E0,7.058826685E-1
4.293475313E0,1.437488198E0,9.331410408E0,7.776673436E-1
4.295988594E0,1.437488198E0,9.321838379E0,7.633104324E-1
4.298501823E0,1.408774376E0,9.326624870E0,8.398807645E-1
4.301015104E0,1.413560033E0,9.321838379E0,8.398807645E-1
4.303528386E0,1.375274777E0,9.312267303E0,8.015955687E-1
4.306046979E0,1.413560033E0,9.307481766E0,7.298108935E-1
4.308560261E0,1.418345571E0,9.340981483E0,7.680960894E-1
4.311073542E0,1.408774376E0,9.399007797E0,7.920243144E-1
4.313586823E0,1.456630826E0,9.413364410E0,7.872386575E-1
4.316100104E0,1.509871125E0,9.389435768E0,7.489534616E-1
4.318613334E0,1.543370605E0,9.427721024E0,7.489534616E-1
4.321126615E0,1.667797327E0,9.466006279E0,8.063812256E-1
4.323639896E0,1.749153376E0,9.427721024E0,8.159525394E-1
4.326153177E0,1.868794441E0,9.451649666E0,8.350951076E-1
4.328666406E0,2.036890268E0,9.403793335E0,8.015955687E-1
4.331179688E0,2.137388945E0,9.413364410E0,7.537391186E-1
4.333692969E0,2.228316069E0,9.403793335E0,7.250252366E-1
4.336211563E0,2.367099762E0,9.384650230E0,6.580262184E-1
4.338724844E0,2.491526604E0,9.364909172E0,6.197410822E-1
4.341238125E0,2.592623234E0,9.360123634E0,6.053841114E-1
4.343751406E0,2.611765862E0,9.389435768E0,5.144568682E-1
4.346264688E0,2.606980324E0,9.364909172E0,4.331009090E-1
4.348777917E0,2.621337175E0,9.432506561E0,3.559323549E-1
4.351291198E0,2.630908489E0,9.451649666E0,3.272185028E-1
4.353804479E0,2.630908489E0,9.489934921E0,2.889333367E-1
4.356317761E0,2.573480844E0,9.504291534E0,2.410768867E-1
4.358830990E0,2.486740828E0,9.513862610E0,2.171486616E-1
4.361344271E0,2.410170555E0,9.542576790E0,2.171486616E-1
4.363857552E0,2.309672117E0,9.542576790E0,2.506481707E-1
4.366376146E0,2.132603168E0,9.647860527E0,2.267199457E-1
4.368889427E0,1.988435626E0,9.681360245E0,2.793620527E-1
4.371402709E0,1.844866276E0,9.724431038E0,3.224328458E-1
4.373915990E0,1.701296926E0,9.738788605E0,3.894318938E-1
4.376429271E0,1.591227055E0,9.719645500E0,4.085744619E-1
4.378942500E0,1.476371527E0,9.757930756E0,4.953143001E-1
4.381455781E0,1.346560955E0,9.781859398E0,5.383850932E-1
4.383969063E0,1.226919770E0,9.777072906E0,6.197410822E-1
4.386482344E0,1.183848977E0,9.719645500E0,7.106683254E-1
4.388995573E0,1.126421213E0,9.743574142E0,7.920243144E-1
4.391508854E0,1.126421213E0,9.695717812E0,9.020941257E-1
4.394022136E0,1.126421213E0,9.705288887E0,9.936196208E-1
4.396540781E0,1.140778184E0,9.714859962E0,1.089332461E0
4.399054063E0,1.140778184E0,9.734002113E0,1.180259824E0
4.401567344E0,1.226919770E0,9.824930191E0,1.208973646E0
4.404080625E0,1.303490162E0,9.891928673E0,1.223330617E0
4.406593906E0,1.399203062E0,9.916455269E0,1.185045362E0
4.409107136E0,1.596012712E0,1.005045319E1,1.103689432E0
4.411620417E0,1.739582062E0,1.017009449E1,9.505487680E-1
4.414133698E0,1.907079697E0,1.024187946E1,7.106683254E-1
4.416646979E0,2.113460541E0,1.038066292E1,4.235295951E-1
4.419160209E0,2.328814745E0,1.043868923E1,1.453639716E-1
4.421673490E0,2.462812662E0,1.050090218E1,-8.434699476E-2
4.424186771E0,2.669193745E0,1.062054348E1,-4.342973232E-1
4.426705365E0,2.779263496E0,1.066361427E1,-8.225327730E-1
4.429218646E0,2.841476917E0,1.074018478E1,-1.176670551E0
4.431731927E0,2.855833769E0,1.082154083E1,-1.392622828E0
4.434245209E0,2.774477959E0,1.090289593E1,-1.569691658E0
4.436758490E0,2.688336134E0,1.092203903E1,-1.588834286E0
4.439271719E0,2.534597397E0,1.100399303E1,-1.564906001E0
4.441785000E0,2.367099762E0,1.117627621E1,-1.497906923E0
4.444298281E0,2.118246317E0,1.126720333E1,-1.349551916E0
4.446811563E0,1.844866276E0,1.134377384E1,-1.191027522E0
4.449324792E0,1.500299811E0,1.154536915E1,-1.023529887E0
4.451838073E0,1.188634634E0,1.174636650E1,-8.033902049E-1
4.454351354E0,8.673982024E-1,1.191386414E1,-6.837490797E-1
4.456869948E0,5.946164131E-1,1.211545944E1,-5.204389095E-1
4.459383229E0,3.308077157E-1,1.231645679E1,-3.720839322E-1
4.461896511E0,2.931207791E-2,1.247916794E1,-2.763710022E-1
4.464409792E0,-2.440679073E-1,1.268554878E1,-2.189432681E-1
4.466923073E0,-4.450650215E-1,1.283390427E1,-2.955136001E-1
4.469436302E0,-6.269195080E-1,1.294876003E1,-3.529413342E-1
4.471949584E0,-8.285148144E-1,1.306840134E1,-4.103690982E-1
4.474462865E0,-9.720842242E-1,1.326999664E1,-4.438686073E-1
4.476976146E0,-1.120439172E0,1.340878010E1,-5.682953596E-1
4.479489375E0,-1.350748420E0,1.349492168E1,-8.943174481E-1
4.482002656E0,-1.484746456E0,1.357627773E1,-1.210768223E0
4.484515938E0,-1.527817249E0,1.362413406E1,-1.550549030E0
4.487034531E0,-1.604387641E0,1.367258835E1,-1.871785522E0
4.489547813E0,-1.556531072E0,1.364806175E1,-2.192423820E0
4.492061094E0,-1.503889084E0,1.357149220E1,-2.532802820E0
4.494574375E0,-1.460818172E0,1.347577858E1,-2.854039192E0
4.497087656E0,-1.345962763E0,1.336092377E1,-3.098107100E0
4.499600886E0,-1.250249863E0,1.318864059E1,-3.381058455E0
4.502114167E0,-1.144367456E0,1.302054405E1,-3.562912941E0
4.504627448E0,-9.625129104E-1,1.275733376E1,-3.668197155E0
4.507140729E0,-7.471588850E-1,1.247438240E1,-3.692125320E0
4.509653959E0,-6.364908218E-1,1.246002579E1,-3.515056372E0
4.512167240E0,-6.705885530E-1,1.259940720E1,-3.284747362E0
4.514680521E0,-6.077769399E-1,1.254138184E1,-3.069393158E0
4.517199115E0,-4.115654826E-1,1.233559895E1,-2.743371248E0
4.519712396E0,-2.488535494E-1,1.213938713E1,-2.408375978E0
4.522225677E0,-7.597211748E-2,1.191386414E1,-1.991426587E0
4.524738959E0,7.238288224E-2,1.167458153E1,-1.473978758E0
4.527252240E0,1.824527234E-1,1.139163017E1,-9.326026440E-1
4.529765469E0,2.733799815E-1,1.105663490E1,-3.577269912E-1
4.532278750E0,3.308077157E-1,1.073539925E1,4.965107143E-2
4.534792031E0,3.499503136E-1,1.039023399E1,3.272185028E-1
4.537305313E0,4.414757788E-1,1.008873844E1,4.761717021E-1
4.539818542E0,4.462614357E-1,9.772287369E0,5.766702294E-1
4.542331823E0,5.036891699E-1,9.480362892E0,6.723831892E-1
4.544845104E0,5.228317380E-1,9.230911255E0,6.245267391E-1
4.547363750E0,5.132604837E-1,9.005986214E0,5.623133183E-1
4.549877031E0,5.467599630E-1,8.833703041E0,4.713860750E-1
4.552390313E0,5.611169338E-1,8.703892708E0,4.187439680E-1
4.554903594E0,5.228317380E-1,8.641678810E0,3.750749528E-1
4.557416823E0,4.893322289E-1,8.603393555E0,3.798605800E-1
4.559930104E0,4.941178858E-1,8.483752251E0,3.511467278E-1
4.562443386E0,4.654040039E-1,8.483752251E0,3.942175210E-1
4.564956667E0,3.738785386E-1,8.531609535E0,4.378865361E-1
4.567469948E0,2.925225794E-1,8.627322197E0,5.383850932E-1
4.569983177E0,2.446661144E-1,8.679964066E0,6.197410822E-1
4.572496459E0,1.585244983E-1,8.766105652E0,6.628118753E-1
4.575009740E0,7.716853172E-2,8.891130447E0,7.058826685E-1
4.577528334E0,5.982056609E-4,9.010771751E0,7.585247755E-1
4.580041615E0,-1.579262912E-1,9.106484413E0,7.298108935E-1
4.582554896E0,-3.014956415E-1,9.240483284E0,7.298108935E-1
4.585068177E0,-4.642075896E-1,9.375079155E0,6.580262184E-1
4.587581459E0,-6.460621357E-1,9.489934921E0,5.958128572E-1
4.590094688E0,-8.572286963E-1,9.619147301E0,5.240281820E-1
4.592607969E0,-1.063011408E0,9.781859398E0,3.702892959E-1
4.595121250E0,-1.201795220E0,9.940383911E0,2.410768867E-1
4.597634531E0,-1.384247899E0,9.978668213E0,9.272187948E-2
4.600147761E0,-1.499103427E0,1.004566765E1,-4.606183618E-2
4.602661042E0,-1.628315806E0,1.019880867E1,-1.567298770E-1
4.605174323E0,-1.666600943E0,1.021795082E1,-3.194418252E-1
4.607692917E0,-1.633101463E0,1.028973579E1,-4.390829504E-1
4.610206198E0,-1.685743570E0,1.037587738E1,-5.778666735E-1
4.612719479E0,-1.704886079E0,1.033280659E1,-6.598208547E-1
4.615232761E0,-1.680957913E0,1.038066292E1,-7.698906660E-1
4.617746042E0,-1.733600020E0,1.037109184E1,-8.560323119E-1
4.620259271E0,-1.704886079E0,1.036151981E1,-1.037886858E0
4.622772552E0,-1.666600943E0,1.029930687E1,-1.114457130E0
4.625285834E0,-1.561316729E0,1.028016472E1,-1.186241865E0
4.627799115E0,-1.432104349E0,1.017966557E1,-1.205982566E0
4.630312344E0,-1.336391449E0,1.010309505E1,-1.181456208E0
4.632825625E0,-1.207179070E0,1.002173901E1,-1.176670551E0
4.635338906E0,-1.034297585E0,9.935597420E0,-1.124028444E0
4.637857500E0,-8.668000102E-1,9.844072342E0,-1.090528965E0
4.640370834E0,-6.604190469E-1,9.729216576E0,-1.066600680E0
4.642884167E0,-4.498506486E-1,9.695717812E0,-9.948160052E-1
4.645397552E0,-2.967100143E-1,9.619147301E0,-8.895317912E-1
4.647910886E0,-1.046859920E-1,9.542576790E0,-8.129615188E-1
4.650424271E0,8.673982322E-2,9.489934921E0,-7.507480979E-1
4.652937604E0,2.829512656E-1,9.422935486E0,-6.496513486E-1
4.655450990E0,4.462614357E-1,9.408578873E0,-5.587241054E-1
4.657964323E0,6.329016089E-1,9.403793335E0,-5.300102234E-1
4.660477709E0,7.716853023E-1,9.370293617E0,-4.103690982E-1
4.662991042E0,9.637092948E-1,9.345767021E0,-3.864408433E-1
4.665504427E0,1.121635556E0,9.307481766E0,-3.337987661E-1
4.668022084E0,1.231705427E0,9.283554077E0,-2.811566591E-1
4.670535417E0,1.341775298E0,9.288339615E0,-2.428714931E-1
4.673048750E0,1.461416483E0,9.259625435E0,-1.950150430E-1
4.675562136E0,1.476371527E0,9.273982048E0,-1.998006850E-1
4.678075469E0,1.524227977E0,9.264410973E0,-1.423729509E-1
4.680588854E0,1.581655741E0,9.254839897E0,-1.328016520E-1
4.683102188E0,1.600798368E0,9.202198029E0,-1.328016520E-1
4.685615573E0,1.586441398E0,9.221340179E0,-6.041877344E-2
4.688128906E0,1.538584948E0,9.211769104E0,-6.520441920E-2
4.690642292E0,1.481157184E0,9.173483849E0,-3.649054468E-2
4.693155625E0,1.408774376E0,9.197412491E0,3.529413417E-2
4.695669011E0,1.336989641E0,9.178269386E0,1.022931710E-1
4.698186667E0,1.269990563E0,9.173483849E0,1.549352705E-1
4.700700000E0,1.183848977E0,9.183054924E0,2.171486616E-1
4.703213334E0,1.116850019E0,9.197412491E0,2.745763958E-1
4.705726719E0,1.064207911E0,9.178269386E0,3.128615618E-1
4.708240052E0,1.011565804E0,9.159127235E0,3.511467278E-1
4.710753438E0,9.876375198E-1,9.120841980E0,3.750749528E-1
4.713266771E0,9.397810698E-1,9.044271469E0,3.655036688E-1
4.715780156E0,9.248259664E-1,9.049057007E0,4.235295951E-1
4.718293490E0,8.865407705E-1,9.025128365E0,4.522434771E-1
4.720806875E0,8.721838593E-1,8.991629601E0,4.713860750E-1
4.723320209E0,8.769695163E-1,8.915059090E0,4.809573591E-1
4.725833594E0,8.530412912E-1,8.852845192E0,4.857429862E-1
4.728351250E0,8.482556343E-1,8.790034294E0,4.618147612E-1
4.730864584E0,8.673982024E-1,8.775676727E0,4.474578202E-1
4.733377917E0,8.626125455E-1,8.742177963E0,4.953143001E-1
4.735891302E0,8.578268886E-1,8.679964066E0,5.000999570E-1
4.738404636E0,8.434699774E-1,8.665607452E0,5.144568682E-1
4.740918021E0,8.626125455E-1,8.656036377E0,5.527420044E-1
4.743431354E0,8.386843204E-1,8.598608017E0,5.766702294E-1
4.745944740E0,8.769695163E-1,8.536395073E0,6.053841114E-1
4.748458073E0,8.626125455E-1,8.526823044E0,6.053841114E-1
4.750971459E0,8.913264275E-1,8.517251968E0,6.915257573E-1
4.753484792E0,8.626125455E-1,8.541180611E0,7.345965505E-1
4.755998177E0,8.721838593E-1,8.545966148E0,8.063812256E-1
4.758515886E0,9.248259664E-1,8.478966713E0,8.111668825E-1
4.761029219E0,9.296116233E-1,8.507680893E0,8.398807645E-1
4.763542552E0,9.541380405E-1,8.517251968E0,8.542376757E-1
4.766055938E0,1.016351461E0,8.455039024E0,9.020941257E-1
4.768569271E0,1.064207911E0,8.445467949E0,9.260223508E-1
4.771082656E0,1.131206870E0,8.459824562E0,9.020941257E-1
4.773595990E0,1.274776220E0,8.459824562E0,9.505487680E-1
4.776109375E0,1.332203984E0,8.392825127E0,9.888339639E-1
4.778622709E0,1.394417405E0,8.407182693E0,9.505487680E-1
4.781136094E0,1.509871125E0,8.340183258E0,9.308080077E-1
4.783649427E0,1.567298889E0,8.354539871E0,9.451649189E-1
4.786162813E0,1.677368641E0,8.325826645E0,9.212366939E-1
4.788680469E0,1.820937991E0,8.282156944E0,9.696913958E-1
4.791193802E0,1.864008784E0,8.186444283E0,9.553344250E-1
4.793707136E0,2.008176327E0,8.162516594E0,9.260223508E-1
4.796220521E0,2.079961061E0,8.114660263E0,9.308080077E-1
4.798733854E0,2.118246317E0,8.100302696E0,9.553344250E-1
4.801247240E0,2.228316069E0,8.095517159E0,9.601200819E-1
4.803760573E0,2.347957134E0,8.071588516E0,9.649057388E-1
4.806273959E0,2.400599241E0,8.023732185E0,9.601200819E-1
4.808787292E0,2.448455811E0,8.042875290E0,9.649057388E-1
4.811300677E0,2.534597397E0,8.057231903E0,9.936196208E-1
4.813814011E0,2.549552441E0,8.105088234E0,1.036690354E0
4.816327396E0,2.515454769E0,8.143373489E0,1.113260746E0
4.818845052E0,2.505883455E0,8.224729538E0,1.094118118E0
4.821358386E0,2.539382935E0,8.311469078E0,1.223330617E0
4.823871719E0,2.534597397E0,8.397610664E0,1.323829174E0
4.826385104E0,2.486740828E0,8.550751686E0,1.366899967E0
4.828898438E0,2.458027124E0,8.641678810E0,1.501496196E0
4.831411823E0,2.400599241E0,8.708678246E0,1.640279889E0
4.833925156E0,2.338385820E0,8.828319550E0,1.798206210E0
4.836438542E0,2.295315027E0,8.919844627E0,1.927418590E0
4.838951875E0,2.237887383E0,9.029914856E0,2.133799553E0
4.841465261E0,2.180459738E0,9.082556725E0,2.310868502E0
4.843978594E0,2.123031855E0,9.101698875E0,2.449652195E0
4.846491979E0,2.089532375E0,9.111269951E0,2.679961443E0
4.849009636E0,2.056032896E0,9.154341698E0,2.895315409E0
4.851522969E0,2.008176327E0,9.168698311E0,3.067598581E0
4.854036302E0,2.017747641E0,9.135198593E0,3.254837036E0
4.856549688E0,2.017747641E0,9.130413055E0,3.431905985E0
4.859063021E0,1.931007862E0,9.096913338E0,3.618546009E0
4.861576406E0,1.892722726E0,9.149555206E0,3.757927895E0
4.864089740E0,1.868794441E0,9.178269386E0,3.963710785E0
4.866603125E0,1.806581140E0,9.235696793E0,4.135993958E0
4.869116459E0,1.744367719E0,9.297910690E0,4.222733974E0
4.871629844E0,1.686939955E0,9.350552559E0,4.351946354E0
4.874143177E0,1.596012712E0,9.375079155E0,4.466801643E0
4.876656563E0,1.524227977E0,9.470791817E0,4.505086899E0
4.879174271E0,1.476371527E0,9.556933403E0,4.495515347E0
4.881687604E0,1.447059512E0,9.657432556E0,4.490729809E0
4.884200938E0,1.408774376E0,9.757930756E0,4.466801643E0
4.886714323E0,1.403988719E0,9.786644936E0,4.428516388E0
4.889227656E0,1.399203062E0,9.815358162E0,4.299304008E0
4.891741042E0,1.394417405E0,9.834501266E0,4.203591347E0
4.894254375E0,1.389631748E0,9.868000984E0,4.092923164E0
4.896767761E0,1.399203062E0,9.891928673E0,3.958925009E0
4.899281094E0,1.403988719E0,9.896714211E0,3.853640795E0
4.901794479E0,1.346560955E0,9.872786522E0,3.676572084E0
4.904307813E0,1.289133191E0,9.844072342E0,3.503690481E0
4.906821198E0,1.207777262E0,9.796216011E0,3.364906788E0
4.909338854E0,1.169492126E0,9.762716293E0,3.168695450E0
4.911852188E0,1.088136077E0,9.734002113E0,2.904886723E0
4.914365521E0,1.059422255E0,9.686145782E0,2.713460922E0
4.916878906E0,1.001994491E0,9.619147301E0,2.454437733E0
4.919392240E0,9.296116233E-1,9.600004196E0,2.148156643E0
4.921905625E0,8.769695163E-1,9.523433685E0,1.889133453E0
4.924418959E0,8.386843204E-1,9.489934921E0,1.582852125E0
4.926932344E0,8.434699774E-1,9.399007797E0,1.342971683E0
4.929445677E0,8.051848412E-1,9.321838379E0,1.132403374E0
4.931959063E0,8.099704385E-1,9.211769104E0,9.020941257E-1
4.934472396E0,8.099704385E-1,9.159127235E0,6.915257573E-1
4.936985781E0,7.525427341E-1,9.049057007E0,5.670989752E-1
4.939503490E0,7.668996453E-1,8.948558807E0,4.474578202E-1
4.942016823E0,7.381857634E-1,8.900702477E0,3.224328458E-1
4.944530156E0,7.621139884E-1,8.804390907E0,1.645065546E-1
4.947043542E0,7.381857634E-1,8.742177963E0,6.400800496E-2
4.949556875E0,7.142575383E-1,8.751749039E0,-3.170489892E-2
4.952070261E0,7.334001660E-1,8.684749603E0,-2.189432681E-1
4.954583594E0,7.334001660E-1,8.656036377E0,-4.438686073E-1
4.957096979E0,7.238288522E-1,8.627322197E0,-5.730810165E-1
4.959610313E0,6.855437160E-1,8.646464348E0,-6.646065116E-1
4.962123698E0,6.329016089E-1,8.660821915E0,-6.885347366E-1
4.964637031E0,5.946164131E-1,8.723034859E0,-7.794619799E-1
4.967150417E0,5.228317380E-1,8.862417221E0,-8.656035662E-1
4.969668073E0,3.882354796E-1,9.029914856E0,-7.842476368E-1
4.972181406E0,3.930211067E-1,9.278767586E0,-7.220342159E-1
4.974694740E0,3.355933726E-1,9.757930756E0,-6.448656917E-1
4.977208125E0,2.542374134E-1,1.030409241E1,-5.491527915E-1
4.979721459E0,2.207378894E-1,1.099920750E1,-4.773681164E-1
4.982234844E0,1.680957973E-1,1.169372463E1,-5.060819983E-1
4.984748177E0,1.058823988E-1,1.247916794E1,-5.778666735E-1
4.987261563E0,1.010967568E-1,1.326042461E1,-7.124629617E-1
4.989774896E0,-8.973085321E-3,1.409372520E1,-9.230313301E-1
4.992288281E0,-9.032905847E-2,1.477448368E1,-1.244267821E0
4.994801615E0,-1.483550072E-1,1.525843143E1,-1.622333765E0
4.997315000E0,-3.541377485E-1,1.572742462E1,-1.972284079E0
4.999832656E0,-7.136593461E-1,1.622094536E1,-2.197209358E0
5.002345990E0,-1.177866936E0,1.646561050E1,-2.461018085E0
5.004859323E0,-1.758126378E0,1.658046722E1,-2.614158630E0
5.007372709E0,-2.376072884E0,1.658046722E1,-2.666800737E0
5.009886042E0,-3.123231649E0,1.643211174E1,-2.647658348E0
5.012399427E0,-3.836891174E0,1.607737541E1,-2.504088879E0
5.014912761E0,-4.225126743E0,1.527278900E1,-2.259422779E0
5.017426146E0,-4.076771736E0,1.407458305E1,-1.933998942E0
5.019939479E0,-3.621536970E0,1.283390427E1,-1.411765337E0
5.022452865E0,-3.008376360E0,1.169372463E1,-7.411768436E-1
5.024966198E0,-2.457428932E0,1.075454140E1,1.794616925E-3
5.027479584E0,-1.963909149E0,9.921240807E0,7.106683254E-1
5.029997292E0,-1.561316729E0,9.211769104E0,1.395613790E0
5.032510625E0,-1.298106313E0,8.675178528E0,1.994417667E0
5.035023959E0,-1.106082320E0,8.181658745E0,2.449652195E0
5.037537344E0,-9.672985673E-1,7.740781307E0,2.627319336E0
5.040050677E0,-9.720842242E-1,7.391428947E0,2.579462767E0
5.042564063E0,-1.077368379E0,7.051050186E0,2.315654039E0
5.045077396E0,-1.182652593E0,6.759125710E0,1.893919110E0
5.047590781E0,-1.360319614E0,6.514459610E0,1.290329576E0
5.050104115E0,-1.499103427E0,6.361319065E0,5.670989752E-1
5.052617500E0,-1.613958836E0,6.251249313E0,-2.333002090E-1
5.055130834E0,-1.671386600E0,6.222535133E0,-1.225125194E0
5.057644219E0,-1.728814363E0,6.203392506E0,-2.201995134E0
5.060161875E0,-1.700100541E0,6.308676720E0,-3.131606579E0
5.062675209E0,-1.604387641E0,6.447460651E0,-4.070789337E0
5.065188542E0,-1.523031592E0,6.629314899E0,-4.875376225E0
5.067701927E0,-1.365105271E0,6.830910206E0,-5.656632900E0
5.070215261E0,-1.192223907E0,7.151548862E0,-6.241079807E0
5.072728646E0,-1.039083242E0,7.429714203E0,-6.763313293E0
5.075241979E0,-8.620143533E-1,7.712067604E0,-7.146762848E0
5.077755365E0,-6.604190469E-1,8.071588516E0,-7.314260483E0
5.080268698E0,-4.881358147E-1,8.340183258E0,-7.328617573E0
5.082782084E0,-2.632105052E-1,8.617751122E0,-7.031309128E0
5.085295417E0,-4.247260094E-2,8.895915985E0,-6.653243542E0
5.087808802E0,1.393819153E-1,9.159127235E0,-6.164509296E0
5.090326459E0,3.499503136E-1,9.384650230E0,-5.560919762E0
5.092839792E0,6.664010882E-1,9.552147865E0,-4.942973614E0
5.095353125E0,8.626125455E-1,9.705288887E0,-4.271786690E0
5.097866511E0,1.083350420E0,9.882357597E0,-3.682554007E0
5.100379844E0,1.360917926E0,9.969097137E0,-3.107678413E0
5.102893229E0,1.605584025E0,1.004088211E1,-2.628515720E0
5.105406563E0,1.840080619E0,1.007916737E1,-2.274377823E0
5.107919948E0,2.022533417E0,1.014138031E1,-1.857428551E0
5.110433281E0,2.199602127E0,1.015095139E1,-1.517049551E0
5.112946667E0,2.338385820E0,1.017488003E1,-1.258624673E0
5.115460000E0,2.429313183E0,1.022273636E1,-1.104885817E0
5.117973386E0,2.515454769E0,1.025623608E1,-9.517452121E-1
5.120491094E0,2.592623234E0,1.033280659E1,-7.890332937E-1
5.123004427E0,2.640479803E0,1.039980507E1,-7.124629617E-1
5.125517761E0,2.549552441E0,1.046261692E1,-7.363911867E-1
5.128031146E0,2.462812662E0,1.058225822E1,-8.560323119E-1
5.130544479E0,2.391027927E0,1.063490009E1,-9.661021233E-1
5.133057865E0,2.271386862E0,1.071147060E1,-1.114457130E0
5.135571198E0,2.137388945E0,1.079761219E1,-1.301695466E0
5.138084584E0,1.978864312E0,1.088853931E1,-1.483550072E0
5.140597917E0,1.763510346E0,1.087418270E1,-1.627119422E0
5.143111302E0,1.605584025E0,1.087418270E1,-1.737787485E0
5.145624636E0,1.509871125E0,1.081675434E1,-1.876571178E0
5.148138021E0,1.351346612E0,1.072582722E1,-1.953141451E0
5.150655677E0,1.317847013E0,1.061097240E1,-1.977069736E0
5.153169063E0,1.284347534E0,1.045304585E1,-1.943570137E0
5.155682500E0,1.269990563E0,1.022273636E1,-1.895713687E0
5.158195938E0,1.231705427E0,1.004088211E1,-1.843071699E0
5.160709375E0,1.193420291E0,9.896714211E0,-1.737787485E0
5.163222813E0,1.236491084E0,9.734002113E0,-1.646261930E0
5.165736250E0,1.202991605E0,9.633503914E0,-1.560120344E0
5.168249688E0,1.188634634E0,9.556933403E0,-1.512263894E0
5.170763073E0,1.164706469E0,9.456435204E0,-1.478764415E0
5.173276511E0,1.155135155E0,9.432506561E0,-1.430907965E0
5.175789948E0,1.126421213E0,9.432506561E0,-1.359123230E0
5.178303386E0,1.159920812E0,9.413364410E0,-1.296909928E0
5.180820261E0,1.179063320E0,9.379864693E0,-1.282552958E0
5.183333646E0,1.202991605E0,9.375079155E0,-1.229910851E0
5.185847084E0,1.231705427E0,9.389435768E0,-1.133599758E0
5.188360521E0,1.308275819E0,9.340981483E0,-1.071386337E0
5.190873959E0,1.418345571E0,9.350552559E0,-9.996016622E-1
5.193387396E0,1.485942841E0,9.326624870E0,-9.230313301E-1
5.195900834E0,1.567298889E0,9.336195946E0,-8.177471161E-1
5.198414271E0,1.639083505E0,9.331410408E0,-7.028916478E-1
5.200927656E0,1.744367719E0,9.317052841E0,-6.885347366E-1
5.203441094E0,1.816152334E0,9.345767021E0,-6.065805554E-1
5.205954531E0,1.840080619E0,9.384650230E0,-6.113662124E-1
5.208467969E0,1.854437590E0,9.403793335E0,-6.305087805E-1
5.210984896E0,1.902294040E0,9.446864128E0,-6.598208547E-1
5.213498281E0,1.921436548E0,9.413364410E0,-7.268198729E-1
5.216011719E0,1.878365755E0,9.442078590E0,-8.608179688E-1
5.218525156E0,1.820937991E0,9.542576790E0,-9.756734371E-1
5.221038594E0,1.787438512E0,9.566504478E0,-1.052243710E0
5.223552031E0,1.744367719E0,9.662218094E0,-1.124028444E0
5.226065469E0,1.648654819E0,9.724431038E0,-1.196411371E0
5.228578906E0,1.548156261E0,9.796216011E0,-1.205982566E0
5.231092292E0,1.485942841E0,9.887143135E0,-1.147956610E0
5.233605729E0,1.341775298E0,9.959526062E0,-1.061815023E0
5.236119167E0,1.255633712E0,1.007916737E1,-9.948160052E-1
5.238632604E0,1.150349498E0,1.018923664E1,-9.948160052E-1
5.241149479E0,1.040279627E0,1.030409241E1,-9.278169870E-1
5.243662865E0,9.296116233E-1,1.038544846E1,-8.416753411E-1
5.246176302E0,8.482556343E-1,1.044347477E1,-7.411768436E-1
5.248689740E0,8.195417523E-1,1.046740246E1,-6.646065116E-1
