"Time (s)","Gyroscope x (rad/s)","Gyroscope y (rad/s)","Gyroscope z (rad/s)"
2.599920000E-1,-1.642219573E-1,2.594888210E-1,5.951018929E-1
2.619660000E-1,-1.232939810E-1,3.059145808E-1,6.079300642E-1
2.639660000E-1,-7.870081812E-2,3.431773782E-1,6.177038550E-1
2.659660000E-1,-5.365534872E-2,3.584490120E-1,6.201473475E-1
2.679655000E-1,-7.840455510E-3,3.822727799E-1,6.201473475E-1
2.699651000E-1,1.537242439E-2,3.914357424E-1,6.170930266E-1
2.719647660E-1,6.485250592E-2,3.993769884E-1,6.122061014E-1
2.739644800E-1,1.088348106E-1,3.926574588E-1,5.963236094E-1
2.759642300E-1,1.320476830E-1,3.853271008E-1,5.889932513E-1
2.779640070E-1,1.784734428E-1,3.651685119E-1,5.731106997E-1
2.799638070E-1,1.974102557E-1,3.578381240E-1,5.657803416E-1
2.819610790E-1,2.334513068E-1,3.352361023E-1,5.517303944E-1
2.839607450E-1,2.646054327E-1,3.217971027E-1,5.370696187E-1
2.859604370E-1,2.804879546E-1,3.156884313E-1,5.309609771E-1
2.879601510E-1,2.982030213E-1,3.053037524E-1,5.272958279E-1
2.899598840E-1,3.055334091E-1,3.034711182E-1,5.291284323E-1
2.919596340E-1,3.159181178E-1,3.101906478E-1,5.303501487E-1
2.939593980E-1,3.232485056E-1,3.291274607E-1,5.450109243E-1
2.959591750E-1,3.244702518E-1,3.437882364E-1,5.541738868E-1
2.979589640E-1,3.275245726E-1,3.865487874E-1,5.847171545E-1
2.999586640E-1,3.299680054E-1,4.152594507E-1,6.042648554E-1
3.019571400E-1,3.360766768E-1,4.855089784E-1,6.543557644E-1
3.039568670E-1,3.476831019E-1,5.618671179E-1,7.136097550E-1
3.059566060E-1,3.586786687E-1,6.040168405E-1,7.459855676E-1
3.079563560E-1,3.855567575E-1,6.877053976E-1,8.131808043E-1
3.099561160E-1,4.197652340E-1,7.799460292E-1,8.852629066E-1
3.119558850E-1,4.435889721E-1,8.306478262E-1,9.194713235E-1
3.139556620E-1,4.936799109E-1,9.338840842E-1,9.884991050E-1
3.159553760E-1,5.248340368E-1,9.870293736E-1,1.025151014E0
3.179551000E-1,5.883640051E-1,1.100039482E0,1.098454833E0
3.199548330E-1,6.549483538E-1,1.214882135E0,1.170536995E0
3.219545330E-1,7.251977921E-1,1.332168221E0,1.248116851E0
3.239542660E-1,7.587953806E-1,1.393254757E0,1.283547044E0
3.259539990E-1,7.948364615E-1,1.453730345E0,1.322031498E0
3.279537990E-1,8.663077354E-1,1.576514244E0,1.402665734E0
3.299535320E-1,9.390006661E-1,1.700519919E0,1.480245590E0
3.319532650E-1,9.744308591E-1,1.760995626E0,1.516897559E0
3.339529980E-1,1.047734737E0,1.880114436E0,1.588979602E0
3.359527310E-1,1.083775759E0,1.938146472E0,1.619522810E0
3.379524640E-1,1.149749160E0,2.054821730E0,1.675722480E0
3.399521970E-1,1.204727054E0,2.151338339E0,1.715428710E0
3.419519970E-1,1.231605053E0,2.192877531E0,1.734365582E0
3.439517970E-1,1.282917857E0,2.237470388E0,1.765519619E0
3.459515300E-1,1.305519819E0,2.252131462E0,1.781402230E0
3.479512630E-1,1.347669601E0,2.260683298E0,1.824773550E0
3.499509960E-1,1.383710623E0,2.278398514E0,1.873031974E0
3.519507290E-1,1.396538734E0,2.291837454E0,1.899299145E0
3.539504620E-1,1.420362473E0,2.320548058E0,1.940227151E0
3.559501950E-1,1.427692890E0,2.330932856E0,1.961607456E0
3.579499280E-1,1.422195077E0,2.330932856E0,1.959163904E0
3.599497280E-1,1.382488847E0,2.316272259E0,1.934118509E0
3.619494610E-1,1.354999900E0,2.289394140E0,1.908462167E0
3.639491940E-1,1.273143888E0,2.191044569E0,1.840045333E0
3.659489270E-1,1.163799047E0,2.034663200E0,1.764297962E0
3.679486600E-1,1.105766892E0,1.939368248E0,1.728256941E0
3.699483930E-1,9.768743515E-1,1.718235016E0,1.670224786E0
3.719481260E-1,9.060139656E-1,1.610111952E0,1.643346667E0
3.739478590E-1,7.581845522E-1,1.403028607E0,1.596310019E0
3.759476590E-1,6.170747280E-1,1.222212434E0,1.570653677E0
3.779473920E-1,5.517120957E-1,1.147686839E0,1.563323259E0
3.799471250E-1,4.350368381E-1,1.029179096E0,1.566988468E0
3.819468250E-1,3.391309977E-1,9.497665167E-1,1.589590430E0
3.839465250E-1,2.963704169E-1,9.259428382E-1,1.609749079E0
3.859462580E-1,2.316187173E-1,8.905126452E-1,1.655563951E0
3.879459910E-1,2.090167105E-1,8.660780191E-1,1.686107159E0
3.899457910E-1,1.827494949E-1,7.848329544E-1,1.744750261E0
3.919455910E-1,1.766408533E-1,7.255790234E-1,1.772239089E0
3.939453240E-1,1.723647863E-1,5.838582516E-1,1.810112834E0
3.959450570E-1,1.772517115E-1,4.494679272E-1,1.829660535E0
3.979447900E-1,1.790843010E-1,3.896031082E-1,1.832714796E0
3.999445230E-1,1.778625846E-1,3.352361023E-1,1.825384498E0
4.019442560E-1,1.625909358E-1,3.486751616E-1,1.819275856E0
4.039435560E-1,1.479301751E-1,3.798292875E-1,1.814999700E0
4.059433560E-1,1.155543178E-1,4.952827990E-1,1.804615140E0
4.079431560E-1,9.783923626E-2,5.734735727E-1,1.800949812E0
4.099419560E-1,7.645894587E-2,7.542896867E-1,1.789343357E0
4.119416890E-1,6.607424468E-2,9.522100091E-1,1.776515245E0
4.139414220E-1,6.668510288E-2,1.046894193E0,1.769184828E0
4.159411550E-1,8.867625147E-2,1.215492964E0,1.745361090E0
4.179408880E-1,1.082239375E-1,1.283298969E0,1.732532978E0
4.199406210E-1,1.674778759E-1,1.396309137E0,1.713596225E0
4.219404210E-1,2.456686199E-1,1.476943254E0,1.701989770E0
4.239401540E-1,2.908726633E-1,1.501988769E0,1.700767994E0
4.259398870E-1,3.941088915E-1,1.539862394E0,1.709320068E0
4.279396200E-1,4.496976137E-1,1.550247073E0,1.720926523E0
4.299390530E-1,5.682054162E-1,1.561853528E0,1.756356716E0
4.319387860E-1,6.848807335E-1,1.556355715E0,1.804004192E0
4.339385190E-1,7.416912317E-1,1.549636245E0,1.832714796E0
4.359382520E-1,8.608099222E-1,1.531921148E0,1.899910092E0
4.379380520E-1,9.176203609E-1,1.524590731E0,1.934118509E0
4.399377850E-1,1.035517335E0,1.504432201E0,1.992761612E0
4.419375850E-1,1.157690406E0,1.510540843E0,2.033078671E0
4.439370850E-1,1.219387770E0,1.527034163E0,2.043463469E0
4.459368180E-1,1.343393445E0,1.557577491E0,2.037354708E0
4.479365510E-1,1.449073076E0,1.527645111E0,1.995204926E0
4.499362840E-1,1.486946821E0,1.483662844E0,1.964050889E0
4.519360170E-1,1.521766067E0,1.352326751E0,1.882805824E0
4.539358170E-1,1.518100977E0,1.288185954E0,1.833936691E0
4.559355500E-1,1.475951195E0,1.202053905E0,1.731922150E0
4.579352830E-1,1.394095302E0,1.180062771E0,1.635405421E0
4.599350160E-1,1.352556348E0,1.190447569E0,1.592644811E0
4.619347490E-1,1.252374530E0,1.231375456E0,1.513232350E0
4.639349150E-1,1.199229240E0,1.250923038E0,1.474136949E0
4.659346480E-1,1.090495229E0,1.271081686E0,1.402665734E0
4.679343810E-1,9.787068963E-1,1.239927649E0,1.334859610E0
4.699351140E-1,9.206747413E-1,1.208773494E0,1.301262140E0
4.719348470E-1,7.991125584E-1,1.100650311E0,1.240786433E0
4.739345800E-1,7.337499261E-1,1.029789925E0,1.213908315E0
4.759343130E-1,5.792010427E-1,8.355348110E-1,1.154043555E0
4.779340460E-1,3.641764820E-1,5.740844011E-1,1.076463580E0
4.799337790E-1,2.438360304E-1,4.384723604E-1,1.039811730E0
4.819335120E-1,5.598579999E-3,1.947371215E-1,9.707840085E-1
4.839333120E-1,-1.110766828E-1,7.684012502E-2,9.445167780E-1
4.859331120E-1,-3.468706608E-1,-1.479582787E-1,8.950366974E-1
4.879328450E-1,-5.796103477E-1,-3.477112055E-1,8.498327136E-1
4.899328780E-1,-6.907877922E-1,-4.332323670E-1,8.278415799E-1
4.919326110E-1,-8.984819651E-1,-5.847269297E-1,7.918004990E-1
4.939323440E-1,-1.086017609E0,-7.020130754E-1,7.594246268E-1
4.959320770E-1,-1.169095278E0,-7.551583052E-1,7.429312468E-1
4.979318100E-1,-1.319368124E0,-8.339599371E-1,7.160531878E-1
4.999316100E-1,-1.388395905E0,-8.645032644E-1,7.081119418E-1
5.019313100E-1,-1.497740865E0,-8.974899054E-1,6.879533529E-1
5.039313100E-1,-1.586927176E0,-9.017660022E-1,6.690165401E-1
5.059310430E-1,-1.616859555E0,-8.981008530E-1,6.610752940E-1
5.079304090E-1,-1.671226621E0,-8.675575852E-1,6.372516155E-1
5.099301420E-1,-1.686498165E0,-8.437338471E-1,6.213690639E-1
5.119298750E-1,-1.706045747E0,-8.040274978E-1,5.865497589E-1
5.139296080E-1,-1.704824090E0,-7.557692528E-1,5.444000363E-1
5.159294080E-1,-1.700548053E0,-7.313345671E-1,5.230197906E-1
5.179291410E-1,-1.676113367E0,-6.904066205E-1,4.759831429E-1
5.199288740E-1,-1.659620166E0,-6.696372032E-1,4.509376884E-1
5.219286070E-1,-1.616859555E0,-6.299309731E-1,4.014575779E-1
5.239283400E-1,-1.564325094E0,-5.920572877E-1,3.489231765E-1
5.259280730E-1,-1.534392715E0,-5.749530792E-1,3.232668340E-1
5.279278060E-1,-1.473917007E0,-5.437989235E-1,2.652346492E-1
5.299275390E-1,-1.436654329E0,-5.291382074E-1,2.255283892E-1
5.319273390E-1,-1.361517787E0,-5.040926933E-1,1.284008175E-1
5.339270720E-1,-1.280883670E0,-4.784363806E-1,-1.026559062E-2
5.359268050E-1,-1.228960037E0,-4.662190974E-1,-9.945192188E-2
5.379265380E-1,-1.100067496E0,-4.576669633E-1,-3.340241611E-1
5.399262710E-1,-9.577358961E-1,-5.028709769E-1,-6.296828985E-1
5.419259710E-1,-8.819886446E-1,-5.633466244E-1,-7.903405428E-1
5.439257040E-1,-7.280505896E-1,-7.172846794E-1,-1.093940496E0
5.459254370E-1,-6.516924500E-1,-7.985298038E-1,-1.224054813E0
5.479252370E-1,-6.077101231E-1,-8.119688034E-1,-1.431748986E0
5.499249700E-1,-8.123499751E-1,-5.584596992E-1,-1.550867796E0
5.519247030E-1,-9.333013296E-1,-4.711059928E-1,-1.552089453E0
5.539244360E-1,-9.791162014E-1,-5.700661540E-1,-1.397540569E0
5.559241690E-1,-9.271926284E-1,-6.427591443E-1,-1.271091461E0
5.579239020E-1,-7.640916109E-1,-6.604742408E-1,-1.023691058E0
5.599236350E-1,-5.484561920E-1,-4.992057979E-1,-8.367663026E-1
5.619234680E-1,-3.297664523E-1,-2.499727756E-1,-6.999324560E-1
5.639242340E-1,-2.210324258E-1,-1.149715558E-1,-6.388459206E-1
5.659240000E-1,-1.257374436E-1,1.636447012E-2,-5.747050643E-1
5.679241330E-1,1.842674986E-2,2.515476048E-1,-4.635275900E-1
5.699238990E-1,9.783923626E-2,4.073182344E-1,-3.609022498E-1
5.719236650E-1,1.112782657E-1,4.537439942E-1,-3.150873482E-1
5.739234310E-1,9.478490800E-2,5.013914704E-1,-2.466704398E-1
5.759231970E-1,6.729596853E-2,5.068892241E-1,-2.197923809E-1
5.779230300E-1,-1.211651228E-2,5.075001121E-1,-1.910817027E-1
5.799228630E-1,-1.116875485E-1,5.038349032E-1,-1.806969941E-1
5.819225630E-1,-1.630002260E-1,5.075001121E-1,-1.819187254E-1
5.839223290E-1,-2.674582005E-1,5.239934921E-1,-2.032990158E-1
5.859220950E-1,-3.627531826E-1,5.453737974E-1,-2.259010226E-1
5.879218610E-1,-4.110115170E-1,5.588127971E-1,-2.368965894E-1
5.899216270E-1,-4.947000444E-1,5.740844011E-1,-2.552225590E-1
5.919213930E-1,-5.380714536E-1,5.771387815E-1,-2.613312006E-1
5.939212260E-1,-6.138187647E-1,5.710300803E-1,-2.662181258E-1
5.959209920E-1,-6.920095086E-1,5.502606630E-1,-2.423943728E-1
5.979207580E-1,-7.317157388E-1,5.282695293E-1,-2.356748730E-1
5.999205240E-1,-8.263999224E-1,5.020023584E-1,-2.301770747E-1
6.019203240E-1,-9.106993079E-1,4.830655158E-1,-2.332313955E-1
6.039200900E-1,-9.546815753E-1,4.732916951E-1,-2.368965894E-1
6.059198560E-1,-1.071967602E0,4.134268761E-1,-2.332313955E-1
6.079196220E-1,-1.140995502E0,3.608924448E-1,-2.228467017E-1
6.099194550E-1,-1.261946797E0,2.869777977E-1,-2.008555382E-1
6.119188550E-1,-1.320589900E0,2.582671344E-1,-1.898599714E-1
6.139186210E-1,-1.428712964E0,2.130630761E-1,-1.727557480E-1
6.159183870E-1,-1.519121051E0,1.751894355E-1,-1.562623829E-1
6.179181530E-1,-1.564935923E0,1.531982869E-1,-1.525972039E-1
6.199179190E-1,-1.648624539E0,1.232658848E-1,-1.489320099E-1
6.219176520E-1,-1.720706582E0,1.000530124E-1,-1.464885473E-1
6.239164520E-1,-1.761023641E0,7.745099813E-2,-1.477102637E-1
6.259162520E-1,-1.825164557E0,3.957734630E-2,-1.452668160E-1
6.279159850E-1,-1.854486108E0,1.453187410E-2,-1.434342265E-1
6.299157180E-1,-1.905798793E0,-2.883956023E-2,-1.361038387E-1
6.319154510E-1,-1.948559284E0,-1.064194515E-1,-1.299951822E-1
6.339151840E-1,-1.963220119E0,-1.479582787E-1,-1.165561453E-1
6.359149170E-1,-1.993152499E0,-2.640226781E-1,-9.151066840E-2
6.379146500E-1,-1.999261141E0,-3.306069970E-1,-8.173682541E-2
6.399143830E-1,-2.000482798E0,-4.656082094E-1,-4.752837121E-2
6.419142160E-1,-1.988265634E0,-5.932790637E-1,-1.637424342E-2
6.439139490E-1,-1.972993851E0,-6.629176736E-1,3.784310073E-3
6.459136820E-1,-1.937563777E0,-7.857015729E-1,3.799276426E-2
6.479134150E-1,-1.914961815E0,-8.412903547E-1,5.937304720E-2
6.499131480E-1,-1.866092563E0,-9.426939487E-1,9.235977381E-2
6.519128810E-1,-1.805006027E0,-1.036156416E0,1.296225488E-1
6.539126140E-1,-1.776906252E0,-1.081971169E0,1.455050558E-1
6.559124140E-1,-1.721928358E0,-1.149777293E0,1.723831147E-1
6.579122140E-1,-1.692606807E0,-1.170546770E0,1.864330173E-1
6.599119470E-1,-1.632742047E0,-1.196202993E0,2.059807181E-1
6.619116800E-1,-1.572266340E0,-1.217583418E0,2.133110911E-1
6.639114130E-1,-1.539890528E0,-1.227967978E0,2.175871432E-1
6.659111460E-1,-1.473917007E0,-1.238963604E0,2.255283892E-1
6.679108790E-1,-1.437265158E0,-1.241407156E0,2.285827249E-1
6.699106120E-1,-1.365793943E0,-1.246293902E0,2.334696352E-1
6.719107780E-1,-1.294322610E0,-1.248126626E0,2.383565605E-1
6.739105110E-1,-1.258892417E0,-1.246293902E0,2.426326126E-1
6.759102440E-1,-1.180701733E0,-1.230411530E0,2.475195527E-1
6.779099770E-1,-1.142828107E0,-1.206587791E0,2.493521422E-1
6.799097100E-1,-1.064026475E0,-1.189483523E0,2.572934031E-1
6.819094430E-1,-9.827813506E-1,-1.141225219E0,2.682889700E-1
6.839091760E-1,-9.430751204E-1,-1.108849406E0,2.768410742E-1
6.859089090E-1,-8.532779813E-1,-1.011721730E0,3.018865287E-1
6.879087090E-1,-7.555394769E-1,-8.785530925E-1,3.477014601E-1
6.899084420E-1,-7.042267919E-1,-8.034166694E-1,3.758012354E-1
6.919081750E-1,-5.973254442E-1,-6.372613311E-1,4.387203753E-1
6.939079080E-1,-5.441800952E-1,-5.566271544E-1,4.735396802E-1
6.959076410E-1,-4.378895760E-1,-4.063542783E-1,5.462326407E-1
6.979073740E-1,-3.328207731E-1,-2.884572744E-1,6.189255714E-1
6.999071070E-1,-2.821189463E-1,-2.401989251E-1,6.519123316E-1
7.019068730E-1,-1.801044643E-1,-1.650625169E-1,7.142205834E-1
7.039066730E-1,-1.330678314E-1,-1.277997345E-1,7.404878139E-1
7.059064060E-1,-3.166420013E-2,-6.915666163E-2,7.856918573E-1
7.079061390E-1,6.179818511E-2,-2.273090743E-2,8.229545951E-1
7.099058720E-1,1.106674075E-1,-3.183218651E-3,8.370045424E-1
7.119056050E-1,2.035189271E-1,3.224696591E-2,8.626608253E-1
7.139053380E-1,2.511664033E-1,4.812946171E-2,8.724346757E-1
7.159050710E-1,3.440179229E-1,8.111618459E-2,8.852629066E-1
7.179048040E-1,4.344260097E-1,1.110485867E-1,8.968693018E-1
7.199046040E-1,4.771865606E-1,1.257093549E-1,8.987019062E-1
7.219043040E-1,5.614859462E-1,1.574743390E-1,9.048105478E-1
7.239040370E-1,6.030247808E-1,1.709133685E-1,9.096974730E-1
7.259037700E-1,6.867133379E-1,1.965697110E-1,9.133626819E-1
7.279035030E-1,7.685692906E-1,2.210043371E-1,9.115300775E-1
7.299032360E-1,8.107190132E-1,2.344433665E-1,9.090865850E-1
7.319029690E-1,8.901314735E-1,2.643757761E-1,8.932040930E-1
7.339027690E-1,9.622135758E-1,2.900321186E-1,8.675478101E-1
7.359025690E-1,9.964219928E-1,3.040820062E-1,8.504435420E-1
7.379023020E-1,1.055675864E0,3.346252739E-1,8.015743494E-1
7.399020350E-1,1.080721378E0,3.486751616E-1,7.740854025E-1
7.419018010E-1,1.138753653E0,4.079290628E-1,6.659622192E-1
7.439015340E-1,1.152803421E0,4.293093979E-1,6.280885339E-1
7.459012670E-1,1.162577391E0,4.513005316E-1,5.902149677E-1
7.479010000E-1,1.175405502E0,4.922284782E-1,5.071372390E-1
7.499008000E-1,1.173572898E0,5.148305297E-1,4.692636430E-1
7.519005330E-1,1.167464256E0,5.569802523E-1,3.996250033E-1
7.539002660E-1,1.143029690E0,6.082929373E-1,3.354841173E-1
7.558999990E-1,1.124703765E0,6.339492202E-1,3.092169166E-1
7.578997320E-1,1.081332326E0,6.962575316E-1,2.621802986E-1
7.598994650E-1,1.056897759E0,7.304659486E-1,2.408000231E-1
7.618991980E-1,9.994763136E-1,8.025480509E-1,2.127002329E-1
7.638989310E-1,9.383898377E-1,8.953995109E-1,1.955959946E-1
7.658987310E-1,9.090682864E-1,9.473231435E-1,1.888764799E-1
7.678984640E-1,8.534795642E-1,1.051170111E0,1.894873530E-1
7.698981970E-1,8.290449381E-1,1.106758952E0,1.931525469E-1
7.718979300E-1,7.862843871E-1,1.206329942E0,2.059807181E-1
7.738976630E-1,7.594063282E-1,1.300403237E0,2.365239710E-1
7.758973960E-1,7.471889853E-1,1.344385505E0,2.548499405E-1
7.778971290E-1,7.264195681E-1,1.432350039E0,3.000539541E-1
7.798968620E-1,7.056501508E-1,1.513595223E0,3.562535644E-1
7.818966620E-1,6.958763003E-1,1.544138432E0,3.874076903E-1
7.838963950E-1,6.641113162E-1,1.604003310E0,4.503268003E-1
7.858961280E-1,6.470071077E-1,1.626605272E0,4.802592099E-1
7.878958610E-1,6.042464972E-1,1.662646413E0,5.450109243E-1
7.898955940E-1,5.492686629E-1,1.684026599E0,6.024322510E-1
7.918953270E-1,5.199471712E-1,1.690135241E0,6.305320263E-1
7.938950600E-1,4.503084719E-1,1.694411278E0,6.806229949E-1
7.958947930E-1,4.136565626E-1,1.695633054E0,7.001706958E-1
7.978945930E-1,3.330223262E-1,1.685859084E0,7.380443215E-1
7.998943260E-1,2.694923580E-1,1.629659534E0,7.716419101E-1
8.018940590E-1,2.572750449E-1,1.461671591E0,7.899678946E-1
8.038937920E-1,2.701032460E-1,1.329724789E0,7.801940441E-1
8.058935250E-1,2.933160961E-1,1.176397562E0,7.606463432E-1
8.078932580E-1,3.519591689E-1,8.526389599E-1,7.068902254E-1
8.098929910E-1,3.983849287E-1,5.472063422E-1,6.458036900E-1
8.118927910E-1,4.173217416E-1,3.987661004E-1,6.103734970E-1
8.138925910E-1,4.539736509E-1,1.446461678E-1,5.407348871E-1
8.158923240E-1,4.686344266E-1,4.446427152E-2,5.022503138E-1
8.178920570E-1,5.028429031E-1,-1.235236749E-1,4.173400998E-1
8.198916570E-1,5.419383049E-1,-2.860138118E-1,3.257102966E-1
8.218913900E-1,5.767575502E-1,-4.601104259E-1,2.249175310E-1
8.238909230E-1,5.932509303E-1,-5.505185127E-1,1.729939878E-1
8.258906560E-1,6.225724220E-1,-7.459953427E-1,6.670343131E-2
8.278904560E-1,6.311245561E-1,-8.461772203E-1,9.282098152E-3
8.298902560E-1,6.463962197E-1,-1.049595356E0,-1.006736457E-1
8.318899890E-1,6.518939734E-1,-1.145501256E0,-1.525972039E-1
8.338897220E-1,6.567809582E-1,-1.286611080E0,-2.613312006E-1
8.358894550E-1,6.580026746E-1,-1.357471466E0,-3.529610038E-1
8.378891880E-1,6.580026746E-1,-1.358693242E0,-3.944998085E-1
8.398889210E-1,6.518939734E-1,-1.291498065E0,-4.482559860E-1
8.418886540E-1,6.421201825E-1,-1.136338234E0,-4.745231569E-1
8.438884540E-1,6.299028397E-1,-1.029436946E0,-4.781883657E-1
8.458881870E-1,6.048573852E-1,-7.838690281E-1,-4.635275900E-1
8.478879200E-1,5.865314603E-1,-6.476460695E-1,-4.452016652E-1
8.498876530E-1,5.394948125E-1,-3.489329517E-1,-3.975541592E-1
8.518873860E-1,5.083406568E-1,-1.901079863E-1,-3.700652122E-1
8.538871190E-1,4.344260097E-1,1.617503911E-1,-3.065352440E-1
8.558868520E-1,3.501265943E-1,5.221608877E-1,-2.381183356E-1
8.578865850E-1,3.043116629E-1,6.895379424E-1,-2.039098591E-1
8.598863850E-1,2.035189271E-1,9.919162393E-1,-1.495428681E-1
8.618861180E-1,1.033370197E-1,1.223434210E0,-1.031171083E-1
8.638858510E-1,5.141347647E-2,1.307733655E0,-8.234768361E-2
8.658855840E-1,-4.143804684E-2,1.421965480E0,-5.852394551E-2
8.678853170E-1,-7.992255688E-2,1.458617330E0,-5.546962097E-2
8.698850500E-1,-1.336786896E-1,1.487328053E0,-6.035654247E-2
8.718847830E-1,-1.495611817E-1,1.492214799E0,-7.135210931E-2
8.738845160E-1,-1.483394653E-1,1.487938881E0,-8.173682541E-2
8.758843160E-1,-1.379547566E-1,1.487328053E0,-1.012845188E-1
8.778840490E-1,-1.300135106E-1,1.484273672E0,-1.128909513E-1
8.798839150E-1,-1.141310036E-1,1.471445441E0,-1.281625777E-1
8.818836150E-1,-1.000811085E-1,1.461060762E0,-1.312168986E-1
8.838835480E-1,-9.336158633E-2,1.450065136E0,-1.238865256E-1
8.858832810E-1,-7.931169122E-2,1.396309137E0,-9.395413101E-2
8.878830140E-1,-8.175514638E-2,1.332779050E0,-7.929336280E-2
8.898827470E-1,-1.110766828E-1,1.155017376E0,-4.325231537E-2
8.918825470E-1,-1.642219573E-1,9.222776294E-1,-2.553722262E-2
8.938822800E-1,-1.978195459E-1,7.927741408E-1,-3.103500977E-2
8.958820130E-1,-2.802863419E-1,5.527041554E-1,-7.684990019E-2
8.978817460E-1,-3.193817437E-1,4.470244646E-1,-1.098366231E-1
8.998814790E-1,-4.000159204E-1,2.759822011E-1,-1.776426733E-1
9.018812120E-1,-4.733197689E-1,1.489222199E-1,-2.057424635E-1
9.038809450E-1,-5.081390738E-1,9.883127362E-2,-2.008555382E-1
9.058807450E-1,-5.857189894E-1,1.514273789E-2,-1.642036289E-1
9.078805450E-1,-6.223708987E-1,-1.784398407E-2,-1.312168986E-1
9.098802780E-1,-7.085028887E-1,-5.144157261E-2,-4.630663991E-2
9.118800110E-1,-7.793632746E-1,-8.992608637E-2,7.342295349E-2
9.138797440E-1,-8.099064827E-1,-1.192476153E-1,1.473376453E-1
9.158794770E-1,-8.428932428E-1,-2.029361576E-1,3.189907968E-1
9.178792100E-1,-8.648843765E-1,-3.141136169E-1,4.949199557E-1
9.198789430E-1,-8.789342642E-1,-3.593176603E-1,5.786085129E-1
9.218787430E-1,-9.278035164E-1,-4.362866879E-1,7.288813591E-1
9.238790760E-1,-9.607902169E-1,-4.759929180E-1,7.954657078E-1
9.258788090E-1,-1.043867946E0,-5.523510575E-1,8.858737350E-1
9.278788420E-1,-1.145882487E0,-6.513112187E-1,9.396299124E-1
9.298785750E-1,-1.208190680E0,-7.007912993E-1,9.506254196E-1
9.318783080E-1,-1.326698542E0,-8.205209374E-1,9.463493824E-1
9.338780410E-1,-1.384730697E0,-8.858835101E-1,9.396299124E-1
9.358777740E-1,-1.501405954E0,-1.019662976E0,9.133626819E-1
9.378775740E-1,-1.618081331E0,-1.165659785E0,8.736564517E-1
9.398773070E-1,-1.673669934E0,-1.246904850E0,8.553304672E-1
9.418770400E-1,-1.784236550E0,-1.413060188E0,8.137916327E-1
9.438767730E-1,-1.846544743E0,-1.493694425E0,7.856918573E-1
9.458765060E-1,-1.972383022E0,-1.607926250E0,7.221618891E-1
9.478762390E-1,-2.123266935E0,-1.659849763E0,6.506906152E-1
9.498759720E-1,-2.200235844E0,-1.691003919E0,6.134278178E-1
9.518757050E-1,-2.355395555E0,-1.751479506E0,5.260741115E-1
9.538755050E-1,-2.432364464E0,-1.780801058E0,4.747614264E-1
9.558752380E-1,-2.578361273E0,-1.839444041E0,3.794664443E-1
9.578749710E-1,-2.716417074E0,-1.885869861E0,2.878366411E-1
9.598747040E-1,-2.781168699E0,-1.903584957E0,2.401891649E-1
9.618744700E-1,-2.905785084E0,-1.950621605E0,1.461158991E-1
9.638742030E-1,-3.009632349E0,-2.011708021E0,3.249497712E-2
9.658739360E-1,-3.057279825E0,-2.042862415E0,-3.531106561E-2
9.678736690E-1,-3.137303114E0,-2.083179474E0,-1.965794861E-1
9.698734690E-1,-3.169678926E0,-2.100283623E0,-2.882092893E-1
9.718732350E-1,-3.206330776E0,-2.124718189E0,-5.026229620E-1
9.738730010E-1,-3.190448523E0,-2.102116108E0,-7.402495742E-1
9.758727670E-1,-3.150742292E0,-2.072794676E0,-8.685312271E-1
9.778725330E-1,-3.037732124E0,-2.006821156E0,-1.098216534E0
9.798722990E-1,-2.973591328E0,-1.979943156E0,-1.192900777E0
9.818719990E-1,-2.834924698E0,-1.928630471E0,-1.312019467E0
9.838712320E-1,-2.713973284E0,-1.934128284E0,-1.349282265E0
9.858710650E-1,-2.669380426E0,-1.954286814E0,-1.332788825E0
9.878705310E-1,-2.602795839E0,-2.011708021E0,-1.255819798E0
9.898702970E-1,-2.578972101E0,-2.042251348E0,-1.194122434E0
9.918700630E-1,-2.560646296E0,-2.091731548E0,-1.024301887E0
9.938698290E-1,-2.561868191E0,-2.098450899E0,-8.001143932E-1
9.958695950E-1,-2.569809437E0,-2.075237989E0,-6.663348675E-1
9.978693610E-1,-2.605239391E0,-1.996436477E0,-3.566261828E-1
9.998691940E-1,-2.629673958E0,-1.935960770E0,-1.819187254E-1
1.001868994E0,-2.693814993E0,-1.778357625E0,1.803243756E-1
1.003868760E0,-2.788499117E0,-1.559667826E0,5.498978496E-1
1.005868526E0,-2.837368250E0,-1.431386113E0,7.307139039E-1
1.007868292E0,-2.945491552E0,-1.154053330E0,1.074020267E0
1.009868058E0,-3.062777519E0,-8.645032644E-1,1.375176787E0
1.011867824E0,-3.117755413E0,-7.197281718E-1,1.501625896E0
1.013868457E0,-3.206330776E0,-3.910826445E-1,1.701378822E0
1.015868290E0,-3.236263275E0,-2.053796053E-1,1.769184828E0
1.017868056E0,-3.266806602E0,1.727459729E-1,1.868755817E0
1.019867822E0,-3.249091625E0,5.539259315E-1,1.918846846E0
1.021867555E0,-3.225267887E0,7.384071946E-1,1.924955606E0
1.023867321E0,-3.159294128E0,1.088433027E0,1.910905600E0
1.025867087E0,-3.108592510E0,1.246647120E0,1.889525294E0
1.027866853E0,-3.001080036E0,1.527645111E0,1.821108341E0
1.029866619E0,-2.871576548E0,1.763439059E0,1.722759128E0
1.031866819E0,-2.800105572E0,1.869729638E0,1.666559458E0
1.033866552E0,-2.642502308E0,2.060930490E0,1.549273491E0
1.035866285E0,-2.559424639E0,2.148284197E0,1.490019441E0
1.037866018E0,-2.387771368E0,2.304054976E0,1.376398563E0
1.039865751E0,-2.224670410E0,2.418897390E0,1.269497037E0
1.041865551E0,-2.095166922E0,2.483649254E0,1.154654384E0
1.043865284E0,-2.041410923E0,2.538016081E0,1.092346191E0
1.045865017E0,-1.990708947E0,2.625980616E0,1.028816104E0
1.047864817E0,-1.908853173E0,2.894150734E0,9.011453986E-1
1.049864550E0,-1.833716631E0,3.278384686E0,7.740854025E-1
1.051864283E0,-1.800119162E0,3.497685432E0,7.154422998E-1
1.053864016E0,-1.721928358E0,3.979658127E0,5.926584005E-1
1.055863749E0,-1.629687667E0,4.480567932E0,4.765940309E-1
1.057863482E0,-1.574709892E0,4.720637798E0,4.222269952E-1
1.059863215E0,-1.460478067E0,5.144577980E0,3.299863636E-1
1.061863015E0,-1.336472392E0,5.466504574E0,2.536281943E-1
1.063862815E0,-1.273553252E0,5.590509892E0,2.188088894E-1
1.065862548E0,-1.147104144E0,5.771326065E0,1.613875479E-1
1.067862281E0,-1.078687310E0,5.835466862E0,1.387855262E-1
1.069862014E0,-9.357447624E-1,5.929540157E0,1.021336168E-1
1.071861747E0,-8.654952645E-1,5.968635082E0,8.258593082E-2
1.073860613E0,-7.231636643E-1,6.039495468E0,6.120564416E-2
1.075860346E0,-5.881624222E-1,6.113410473E0,4.287968576E-2
1.077860146E0,-5.234106779E-1,6.158614635E0,3.249497712E-2
1.079859946E0,-3.987942338E-1,6.255742073E0,1.905594021E-2
1.081859712E0,-2.766211629E-1,6.376693249E0,2.562579699E-3
1.083859445E0,-2.185889632E-1,6.443888664E0,-6.600399036E-3
1.085859178E0,-1.019137055E-1,6.594161510E0,-2.614808641E-2
1.087858911E0,-4.204890877E-2,6.676017761E0,-3.714366257E-2
1.089858644E0,7.340462506E-2,6.841561794E0,-6.096740812E-2
1.091857977E0,1.271607727E-1,6.928915501E0,-7.623903453E-2
1.093857777E0,2.413925678E-1,7.104233742E0,-1.031171083E-1
1.095857510E0,3.482939899E-1,7.269778252E0,-1.189996004E-1
1.097857243E0,3.989957869E-1,7.347358227E0,-1.257191300E-1
1.099856976E0,5.016211271E-1,7.486024857E0,-1.244973913E-1
1.101856676E0,6.024139524E-1,7.599034786E0,-1.208321974E-1
1.103856409E0,6.561700702E-1,7.646682262E0,-1.147235483E-1
1.105856142E0,7.624606490E-1,7.724873066E0,-1.012845188E-1
1.107855875E0,8.131623864E-1,7.749307632E0,-9.334326535E-2
1.109855675E0,9.298377037E-1,7.767633915E0,-7.013038546E-2
1.111855408E0,1.048956394E0,7.745642662E0,-4.447404295E-2
1.113855141E0,1.108821154E0,7.705325127E0,-2.859154716E-2
1.115854874E0,1.229161620E0,7.536115646E0,-1.087645534E-2
1.117854607E0,1.285361290E0,7.382177830E0,-1.209818665E-2
1.119854340E0,1.380045414E0,6.945409298E0,-4.630663991E-2
1.121854073E0,1.458847046E0,6.566061497E0,-1.012845188E-1
1.123853806E0,1.499164104E0,6.457327843E0,-1.354929656E-1
1.125853606E0,1.590793967E0,6.354091167E0,-2.100185305E-1
1.127853339E0,1.643328190E0,6.319272041E0,-2.460595667E-1
1.129853072E0,1.747175455E0,6.222755432E0,-3.181416690E-1
1.131852805E0,1.838805199E0,6.082256317E0,-3.847259879E-1
1.133852871E0,1.880344033E0,5.983907223E0,-4.164909720E-1
1.135852604E0,1.943874002E0,5.735896111E0,-4.861296117E-1
1.137852337E0,1.984802008E0,5.446956635E0,-5.771485567E-1
1.139852070E0,2.000073671E0,5.300959587E0,-6.309046745E-1
1.141851836E0,2.025729895E0,5.018128872E0,-7.726254463E-1
1.143851569E0,2.036114693E0,4.882516861E0,-8.557030559E-1
1.145851302E0,2.029395103E0,4.547762871E0,-1.056066871E0
1.147851035E0,1.841859460E0,3.746918440E0,-1.344395280E0
1.149850768E0,1.706858277E0,3.360851765E0,-1.497111559E0
1.151850501E0,1.575522184E0,3.254560947E0,-1.741457701E0
1.153850234E0,1.535205245E0,3.238067865E0,-1.850802660E0
1.155850034E0,1.439910173E0,3.001051903E0,-2.063994646E0
1.157849834E0,1.295745969E0,2.633311272E0,-2.272299528E0
1.159849567E0,1.201061845E0,2.443331957E0,-2.377979279E0
1.161849333E0,9.725982547E-1,2.102469206E0,-2.591171026E0
1.163849066E0,8.534795642E-1,1.975409269E0,-2.694407463E0
1.165848799E0,6.091334224E-1,1.778710723E0,-2.887440920E0
1.167848532E0,3.531809151E-1,1.564907789E0,-3.065202713E0
1.169848265E0,2.181796879E-1,1.446400046E0,-3.144004345E0
1.171848065E0,-5.976400152E-2,1.217936397E0,-3.290611982E0
1.173847798E0,-2.008738667E-1,1.111645818E0,-3.355974674E0
1.175847531E0,-4.824827611E-1,9.192233086E-1,-3.464097738E0
1.177847264E0,-7.634807825E-1,7.432941198E-1,-3.550229788E0
1.179846997E0,-9.021471739E-1,6.626598835E-1,-3.585049152E0
1.181846730E0,-1.171538711E0,5.129979253E-1,-3.643081188E0
1.183846463E0,-1.297376990E0,4.433592856E-1,-3.666904926E0
1.185846196E0,-1.546609998E0,3.205753565E-1,-3.700502396E0
1.187845996E0,-1.773851871E0,2.124522030E-1,-3.718217611E0
1.189845729E0,-1.878309846E0,1.623612642E-1,-3.718217611E0
1.191845462E0,-2.072564840E0,7.134234160E-2,-3.713330746E0
1.193844862E0,-2.236887693E0,-5.626679864E-3,-3.695004702E0
1.195844595E0,-2.310802460E0,-3.861340508E-2,-3.684620142E0
1.197844328E0,-2.439084291E0,-9.786733240E-2,-3.651633263E0
1.199844061E0,-2.495894432E0,-1.223019436E-1,-3.633918285E0
1.201843794E0,-2.580804825E0,-1.644516438E-1,-3.589936018E0
1.203843594E0,-2.642502308E0,-1.974383742E-1,-3.537401676E0
1.205843327E0,-2.659606457E0,-2.090447992E-1,-3.505636454E0
1.207843060E0,-2.679154158E0,-2.298142314E-1,-3.437219620E0
1.209842793E0,-2.682819366E0,-2.328685522E-1,-3.404232979E0
1.211842526E0,-2.664493322E0,-2.353120148E-1,-3.322987795E0
1.213842259E0,-2.621732950E0,-2.255381644E-1,-3.236244917E0
1.215841992E0,-2.591800451E0,-2.145425826E-1,-3.192262650E0
1.217841725E0,-2.515442371E0,-1.815558821E-1,-3.103687286E0
1.219841525E0,-2.469016552E0,-1.577321291E-1,-3.062148333E0
1.221841291E0,-2.302250147E0,-7.343272120E-2,-2.928368807E0
1.223841057E0,-2.235666037E0,-3.739167377E-2,-2.883164883E0
1.225841290E0,-2.165416479E0,-7.397578447E-4,-2.843458414E0
1.227841056E0,-2.019419670E0,7.928359509E-2,-2.782982826E0
1.229840822E0,-1.941228986E0,1.208224222E-1,-2.751218081E0
1.231840588E0,-1.776906252E0,2.161173970E-1,-2.689520597E0
1.233840421E0,-1.605863929E0,3.028602600E-1,-2.625379562E0
1.235840254E0,-1.516677618E0,3.395121694E-1,-2.588116884E0
1.237840120E0,-1.343191862E0,3.999878466E-1,-2.510537148E0
1.239839986E0,-1.172760487E0,4.409157932E-1,-2.432346106E0
1.241839819E0,-1.085406780E0,4.574091733E-1,-2.386531591E0
1.243839685E0,-9.137536287E-1,4.812329113E-1,-2.302842855E0
1.245839551E0,-8.276216388E-1,4.903959036E-1,-2.263136625E0
1.247839417E0,-6.724618673E-1,5.172739625E-1,-2.174561024E0
1.249839350E0,-5.289084911E-1,5.441520214E-1,-2.098814011E0
1.251839283E0,-4.617133141E-1,5.490389466E-1,-2.062161922E0
1.253839216E0,-3.285447061E-1,5.410977006E-1,-1.997410297E0
1.255839149E0,-2.631821334E-1,5.349890590E-1,-1.968088746E0
1.257839082E0,-1.526155174E-1,5.136087537E-1,-1.918608665E0
1.259839015E0,-5.609880760E-2,4.916176200E-1,-1.886232734E0
1.261838981E0,-1.517083868E-2,4.775677323E-1,-1.873404503E0
1.263838914E0,5.202433839E-2,4.439701438E-1,-1.853246093E0
1.265838914E0,7.768067718E-2,4.268659055E-1,-1.850191593E0
1.267838880E0,1.124999970E-1,3.865487874E-1,-1.837974310E0
1.269838846E0,1.296042204E-1,3.450099826E-1,-1.829422235E0
1.271838812E0,1.283824891E-1,3.236297071E-1,-1.827589750E0
1.273838778E0,1.179977879E-1,2.827017307E-1,-1.817815781E0
1.275838744E0,1.008935571E-1,2.674300969E-1,-1.817204952E0
1.277838710E0,5.385693535E-2,2.741495967E-1,-1.832476616E0
1.279838676E0,-1.028391626E-2,2.784256637E-1,-1.840417862E0
1.281838609E0,-9.091813117E-2,2.729278803E-1,-1.848359108E0
1.283838175E0,-1.349004209E-1,2.668192089E-1,-1.850802660E0
1.285837675E0,-2.295845300E-1,2.521584332E-1,-1.855078578E0
1.287837641E0,-2.821189463E-1,2.411628664E-1,-1.853856921E0
1.289837607E0,-3.847443163E-1,2.191717327E-1,-1.853246093E0
1.291837573E0,-4.372787178E-1,2.075652927E-1,-1.852635145E0
1.293837539E0,-5.411257744E-1,1.910719275E-1,-1.852024317E0
1.295837505E0,-6.449729204E-1,1.758002937E-1,-1.853246093E0
1.297837438E0,-6.956747174E-1,1.666373163E-1,-1.850802660E0
1.299837371E0,-7.854719162E-1,1.422027200E-1,-1.855078578E0
1.301837337E0,-8.618300557E-1,1.134920418E-1,-1.859354734E0
1.303837270E0,-8.935950398E-1,9.699867666E-2,-1.863019943E0
1.305837203E0,-9.479621053E-1,5.545984581E-2,-1.870961189E0
1.307837136E0,-9.668988585E-1,3.407955915E-2,-1.875848055E0
1.309837069E0,-9.943878055E-1,-1.295706257E-2,-1.884400129E0
1.311837002E0,-9.968312979E-1,-3.616994247E-2,-1.891119599E0
1.313836935E0,-9.840031266E-1,-8.626089245E-2,-1.899671793E0
1.315836801E0,-9.491837621E-1,-1.308540553E-1,-1.916165113E0
1.317836667E0,-9.210839868E-1,-1.522343457E-1,-1.921052098E0
1.319836533E0,-8.532779813E-1,-1.858319193E-1,-1.947930217E0
1.321836366E0,-7.695894241E-1,-2.114882618E-1,-1.978473425E0
1.323836232E0,-7.219419479E-1,-2.188186496E-1,-1.996188521E0
1.325836098E0,-6.205382943E-1,-2.292033583E-1,-2.032229424E0
1.327835998E0,-5.680038929E-1,-2.279816270E-1,-2.050555468E0
1.329835898E0,-4.568264186E-1,-2.237055600E-1,-2.089040041E0
1.331835731E0,-3.456489146E-1,-1.949948967E-1,-2.126302719E0
1.333835564E0,-2.937254012E-1,-1.711711586E-1,-2.143406868E0
1.335835397E0,-1.837696582E-1,-1.137498245E-1,-2.175782919E0
1.337835230E0,-1.318461001E-1,-7.465445250E-2,-2.193498135E0
1.339835063E0,-2.799900807E-2,2.552744932E-2,-2.222208738E0
1.341834963E0,6.912856549E-2,1.403701156E-1,-2.244199753E0
1.343835229E0,1.137217283E-1,2.093978822E-1,-2.255195379E0
1.345835029E0,2.035189271E-1,3.584490120E-1,-2.268634558E0
1.347834829E0,2.456686199E-1,4.360288978E-1,-2.271077871E0
1.349834629E0,3.263028264E-1,5.936321616E-1,-2.263136625E0
1.351834429E0,3.916653991E-1,7.603983283E-1,-2.247254133E0
1.353834229E0,4.203760624E-1,8.416434526E-1,-2.235036850E0
1.355834029E0,4.722996354E-1,1.001079202E0,-2.205104589E0
1.357833829E0,4.936799109E-1,1.079270005E0,-2.186778545E0
1.359833629E0,5.248340368E-1,1.233818889E0,-2.142185211E0
1.361833362E0,5.511012673E-1,1.376761317E0,-2.095759630E0
1.363833095E0,5.578207374E-1,1.449454308E0,-2.068270445E0
1.365832828E0,5.657620430E-1,1.589342475E0,-2.012071133E0
1.367832561E0,5.682054162E-1,1.657759428E0,-1.986414671E0
1.369832294E0,5.639294386E-1,1.785430193E0,-1.930825949E0
1.371832027E0,5.572099090E-1,1.912490249E0,-1.880735040E0
1.373831760E0,5.535447001E-1,1.971133351E0,-1.856911302E0
1.375831560E0,5.431599617E-1,2.084143400E0,-1.825146198E0
1.377831293E0,5.401056409E-1,2.194099188E0,-1.797657371E0
1.379831026E0,5.401056409E-1,2.249076843E0,-1.786661744E0
1.381830792E0,5.486577749E-1,2.338874102E0,-1.767114043E0
1.383830525E0,5.590424538E-1,2.376747847E0,-1.763448834E0
1.385830258E0,5.920292139E-1,2.446386576E0,-1.757951021E0
1.387829991E0,6.378441453E-1,2.506251335E0,-1.764670491E0
1.389829724E0,6.653330922E-1,2.534961939E0,-1.772001028E0
1.391829524E0,7.349717021E-1,2.586885452E0,-1.796435595E0
1.393829257E0,7.740671039E-1,2.610098362E0,-1.811096311E0
1.395828990E0,8.614207506E-1,2.655302286E0,-1.848969936E0
1.397828723E0,9.640461206E-1,2.686456442E0,-1.893563151E0
1.399828456E0,1.013526201E0,2.707225800E0,-1.922273755E0
1.401828156E0,1.121038556E0,2.748764753E0,-1.994966745E0
1.403827889E0,1.183346748E0,2.757927656E0,-2.026731730E0
1.405827689E0,1.305519819E0,2.774421215E0,-2.090261698E0
1.407827489E0,1.432579875E0,2.782362223E0,-2.156846046E0
1.409827222E0,1.497942328E0,2.782362223E0,-2.188611031E0
1.411826955E0,1.625002265E0,2.786027670E0,-2.256417036E0
1.413826688E0,1.687921524E0,2.787860155E0,-2.287571192E0
1.415826421E0,1.803375006E0,2.777475357E0,-2.346214294E0
1.417826154E0,1.902335167E0,2.746321201E0,-2.399970531E0
1.419825887E0,1.946317554E0,2.723719120E0,-2.418907166E0
1.421825653E0,2.015956163E0,2.658356667E0,-2.456780910E0
1.423825386E0,2.048942804E0,2.575278997E0,-2.491600037E0
1.425825119E0,2.058716536E0,2.528242350E0,-2.503206491E0
1.427824852E0,2.051386118E0,2.399960756E0,-2.500763178E0
1.429824585E0,2.035503864E0,2.336430550E0,-2.501374006E0
1.431824318E0,1.967697740E0,2.206316471E0,-2.508093596E0
1.433824051E0,1.780772924E0,2.115908146E0,-2.545967340E0
1.435823784E0,1.706247449E0,2.026111126E0,-2.550854206E0
1.437823584E0,1.518100977E0,1.855068803E0,-2.561238766E0
1.439823317E0,1.411810398E0,1.758552074E0,-2.571012735E0
1.441823050E0,1.200451016E0,1.550247073E0,-2.587506056E0
1.443822783E0,1.025743484E0,1.301014066E0,-2.563682318E0
1.445822516E0,9.475528002E-1,1.172121406E0,-2.546578169E0
1.447821882E0,8.070537448E-1,9.088385701E-1,-2.494654655E0
1.449821615E0,7.471889853E-1,7.707830071E-1,-2.459835291E0
1.451821348E0,6.482288241E-1,4.940610826E-1,-2.374925137E0
1.453821148E0,5.712598562E-1,2.100087553E-1,-2.268023491E0
1.455820881E0,5.407165289E-1,7.378580421E-2,-2.211823940E0
1.457820614E0,4.967342317E-1,-1.907188445E-1,-2.081709623E0
1.459820347E0,4.777974188E-1,-3.092267215E-1,-2.011460066E0
1.461820113E0,4.478650093E-1,-6.293200850E-1,-1.797657371E0
1.463819679E0,4.484758973E-1,-7.264477015E-1,-1.723131657E0
1.465819412E0,4.484758973E-1,-8.150231242E-1,-1.651049733E0
1.467819145E0,4.625257850E-1,-9.903414249E-1,-1.510550618E0
1.469818945E0,4.826843143E-1,-1.135727406E0,-1.368219018E0
1.471818678E0,4.930690229E-1,-1.199257374E0,-1.304689050E0
1.473818411E0,5.193362236E-1,-1.320208788E0,-1.180072546E0
1.475818144E0,5.339969993E-1,-1.374575734E0,-1.122651219E0
1.477817877E0,5.633185506E-1,-1.471092463E0,-1.018193245E0
1.479817610E0,5.950835347E-1,-1.555391788E0,-9.271743298E-1
1.481817376E0,6.103551388E-1,-1.592043757E0,-8.893006444E-1
1.483817309E0,6.421201825E-1,-1.658017159E0,-8.190511465E-1
1.485817109E0,6.543374658E-1,-1.689171314E0,-7.885079384E-1
1.487816842E0,6.787720919E-1,-1.745370865E0,-7.426930070E-1
1.489816575E0,6.940436959E-1,-1.809511662E0,-7.127606273E-1
1.491816308E0,6.952654123E-1,-1.838833213E0,-7.035976648E-1
1.493816041E0,6.879350543E-1,-1.906028390E0,-6.926020384E-1
1.495815774E0,6.793829203E-1,-1.942069411E0,-6.901586056E-1
1.497815507E0,6.445636153E-1,-2.003766775E0,-6.907694936E-1
1.499815307E0,5.901966095E-1,-2.053857803E0,-6.944347024E-1
1.501815073E0,5.590424538E-1,-2.076459885E0,-6.968781352E-1
1.503814373E0,4.875712693E-1,-2.116166115E0,-7.029867768E-1
1.505814106E0,4.484758973E-1,-2.133270264E0,-7.054302096E-1
1.507814206E0,3.757829368E-1,-2.159537554E0,-6.999324560E-1
1.509813939E0,2.969813049E-1,-2.165035486E0,-6.840499043E-1
1.511813672E0,2.591076791E-1,-2.162591696E0,-6.742761135E-1
1.513813405E0,1.858038306E-1,-2.147320271E0,-6.480088830E-1
1.515813205E0,1.210521087E-1,-2.126550674E0,-6.156330705E-1
1.517812938E0,9.234144539E-2,-2.114333391E0,-5.948636532E-1
1.519812671E0,4.286135733E-2,-2.086844444E0,-5.496596098E-1
1.521812404E0,1.933388528E-3,-2.058744907E0,-4.965143204E-1
1.523813104E0,-2.005776018E-2,-2.037975311E0,-4.684145153E-1
1.525812837E0,-4.754669592E-2,-2.004377842E0,-4.103823304E-1
1.527812570E0,-5.609880760E-2,-1.992771387E0,-3.773956001E-1
1.529812303E0,-7.442476600E-2,-1.956730247E0,-3.144764602E-1
1.531812103E0,-8.114428818E-2,-1.940847754E0,-2.802680433E-1
1.533811836E0,-9.458331764E-2,-1.891978502E0,-2.118511200E-1
1.535811569E0,-1.086332276E-1,-1.831502914E0,-1.416016221E-1
1.537811302E0,-1.080223545E-1,-1.801570535E0,-1.061714292E-1
1.539811035E0,-1.055788919E-1,-1.739262223E0,-3.531106561E-2
1.541810735E0,-9.763764590E-2,-1.678786635E0,3.127324581E-2
1.543809468E0,-9.213986248E-2,-1.646410823E0,6.303823739E-2
1.545809201E0,-7.075957209E-2,-1.593876362E0,1.284008175E-1
1.547809001E0,-5.487708002E-2,-1.568830848E0,1.577223539E-1
1.549808734E0,-2.066862397E-2,-1.535233259E0,2.163654119E-1
1.551808034E0,1.598328911E-2,-1.513853073E0,2.701215446E-1
1.553807767E0,3.369837999E-2,-1.508966088E0,2.945561409E-1
1.555807500E0,6.546337157E-2,-1.509576917E0,3.318189383E-1
1.557807233E0,7.951327413E-2,-1.516907334E0,3.477014601E-1
1.559806966E0,1.021152884E-1,-1.531568170E0,3.721360564E-1
1.561806732E0,1.186086535E-1,-1.555391788E0,3.898511231E-1
1.563806965E0,1.234955713E-1,-1.567609072E0,3.959597945E-1
1.565806698E0,1.302150935E-1,-1.599374175E0,4.063445032E-1
1.567806431E0,1.320476830E-1,-1.614034891E0,4.136748910E-1
1.569806164E0,1.308259517E-1,-1.650686741E0,4.234487414E-1
1.571805897E0,1.253281683E-1,-1.685506105E0,4.246704578E-1
1.573805630E0,1.192195117E-1,-1.702610373E0,4.246704578E-1
1.575805363E0,1.033370197E-1,-1.737429738E0,4.240595996E-1
1.577805163E0,9.845009446E-2,-1.758199096E0,4.234487414E-1
1.579804963E0,8.317846805E-2,-1.796683550E0,4.167292118E-1
1.581804629E0,6.607424468E-2,-1.833335400E0,4.081771076E-1
1.583803562E0,6.057645008E-2,-1.851050496E0,4.014575779E-1
1.585803295E0,4.286135733E-2,-1.878539562E0,3.867968023E-1
1.587803028E0,3.675270826E-2,-1.891367674E0,3.788555562E-1
1.589802761E0,2.331367321E-2,-1.914580584E0,3.593078852E-1
1.591802494E0,8.042041212E-3,-1.929852128E0,3.379276097E-1
1.593802294E0,3.765984206E-3,-1.935349941E0,3.287646174E-1
1.595802027E0,-6.007859483E-3,-1.929852128E0,3.165473044E-1
1.597801760E0,-7.840455510E-3,-1.922521830E0,3.098277748E-1
1.599801493E0,-9.062185884E-3,-1.895643830E0,3.006648123E-1
1.601801259E0,-1.731802942E-3,-1.859602690E0,3.031082749E-1
1.603801859E0,7.116579800E-4,-1.834557295E0,3.037191331E-1
1.605801592E0,1.659415476E-2,-1.778968453E0,3.104386628E-1
1.607801325E0,4.225049540E-2,-1.716660261E0,3.196016550E-1
1.609801125E0,5.568952858E-2,-1.683673501E0,3.214342296E-1
1.611801291E0,8.562192321E-2,-1.615256548E0,3.318189383E-1
1.613801024E0,1.051696166E-1,-1.577382922E0,3.354841173E-1
1.615800757E0,1.363237500E-1,-1.494916081E0,3.440362513E-1
1.617800490E0,1.705321968E-1,-1.401453733E0,3.489231765E-1
1.619800590E0,1.876364350E-1,-1.355638862E0,3.507557809E-1
1.621800990E0,2.218448818E-1,-1.258511305E0,3.452579975E-1
1.623800723E0,2.383382469E-1,-1.202922583E0,3.422036469E-1
1.625800523E0,2.756009996E-1,-1.092966795E0,3.281537592E-1
1.627800256E0,3.177507222E-1,-9.805676341E-1,3.104386628E-1
1.629799989E0,3.409636021E-1,-9.219245315E-1,2.969996333E-1
1.631799722E0,3.910545409E-1,-8.131905794E-1,2.707324326E-1
1.633799455E0,4.167108834E-1,-7.600452304E-1,2.572934031E-1
1.635799188E0,4.735213518E-1,-6.598633528E-1,2.267501205E-1
1.637798921E0,5.376622081E-1,-5.560162067E-1,1.943742633E-1
1.639798654E0,5.737032294E-1,-5.108122230E-1,1.778808981E-1
1.641798520E0,6.909893751E-1,-3.648154438E-1,1.302334070E-1
1.643798253E0,6.909893751E-1,-3.648154438E-1,1.302334070E-1
1.645797986E0,7.783431411E-1,-2.786834538E-1,9.846842289E-2
1.647797719E0,8.687511683E-1,-2.017144114E-1,6.731428951E-2
1.649797452E0,9.170095325E-1,-1.626190543E-1,5.021006614E-2
1.651797185E0,1.011693716E0,-9.481300414E-2,2.577545866E-2
1.653796918E0,1.113097310E0,-3.678080812E-2,1.191187184E-4
1.655796851E0,1.161966443E0,-1.478965860E-2,-1.331991702E-2
1.657796651E0,1.261537433E0,4.147164524E-3,-3.347846866E-2
1.659796384E0,1.309795856E0,3.536299104E-3,-4.447404295E-2
1.661796117E0,1.400814772E0,-1.601138897E-2,-6.096740812E-2
1.663795850E0,1.475951195E0,-5.388503149E-2,-7.379557937E-2
1.665795583E0,1.504661918E0,-8.076310903E-2,-8.051509410E-2
1.667795316E0,1.552309275E0,-1.406279057E-1,-9.334326535E-2
1.669795049E0,1.565748453E0,-1.748363525E-1,-9.700845182E-2
1.671794849E0,1.577354908E0,-2.469184548E-1,-1.061714292E-1
1.673794582E0,1.565137625E0,-3.251091838E-1,-1.208321974E-1
1.675794315E0,1.555363655E0,-3.648154438E-1,-1.287734509E-1
1.677794048E0,1.515046597E0,-4.497257173E-1,-1.440450698E-1
1.679793414E0,1.493666291E0,-4.918754399E-1,-1.525972039E-1
1.681792447E0,1.436855793E0,-5.670118332E-1,-1.776426733E-1
1.683792180E0,1.373325825E0,-6.507003903E-1,-2.087967992E-1
1.685791913E0,1.338506579E0,-6.922392249E-1,-2.216249704E-1
1.687791713E0,1.264591813E0,-7.630996108E-1,-2.582768798E-1
1.689791479E0,1.226107359E0,-8.015841246E-1,-2.784354389E-1
1.691791245E0,1.149138331E0,-8.583945632E-1,-3.218068480E-1
1.693791011E0,1.074001908E0,-8.907704353E-1,-3.664000332E-1
1.695790777E0,1.034906507E0,-8.968790770E-1,-3.877803087E-1
1.697790543E0,9.658787251E-1,-8.700009584E-1,-4.342060983E-1
1.699790309E0,9.084573984E-1,-8.021949530E-1,-4.830752909E-1
1.701790075E0,8.644750714E-1,-6.788001657E-1,-5.331662893E-1
1.703789908E0,8.516469598E-1,-6.030529141E-1,-5.588225722E-1
1.705789674E0,8.461491466E-1,-5.169209242E-1,-5.850898027E-1
1.707789440E0,8.528686762E-1,-3.251091838E-1,-6.473980546E-1
1.709789206E0,8.815793395E-1,-1.143606976E-1,-7.176474929E-1
1.711788972E0,9.054030776E-1,-2.572353696E-3,-7.530777454E-1
1.713788738E0,9.768743515E-1,2.271129787E-1,-8.349336386E-1
1.715788371E0,1.019024014E0,3.468425572E-1,-8.807485104E-1
1.717788137E0,1.121038556E0,5.832474232E-1,-9.687131643E-1
1.719787970E0,1.238324642E0,8.220956922E-1,-1.064008236E0
1.721787703E0,1.301243782E0,9.430470467E-1,-1.114099145E0
1.723787469E0,1.430747151E0,1.167845488E0,-1.211837530E0
1.725787235E0,1.496720672E0,1.278412104E0,-1.263150215E0
1.727787001E0,1.628667474E0,1.493436694E0,-1.356612563E0
1.729786767E0,1.758781910E0,1.703574181E0,-1.449464083E0
1.731786533E0,1.827809572E0,1.809864879E0,-1.496500731E0
1.733786366E0,1.962199926E0,2.014504671E0,-1.586908817E0
1.735786199E0,2.029395103E0,2.117130041E0,-1.633945465E0
1.737785965E0,2.165007353E0,2.315050364E0,-1.730462193E0
1.739785731E0,2.301230192E0,2.505640268E0,-1.830033183E0
1.741785531E0,2.371479750E0,2.599102736E0,-1.882567644E0
1.743785297E0,2.508313417E0,2.776864529E0,-1.990690708E0
1.745785063E0,2.647590876E0,2.953404427E0,-2.092705250E0
1.747784829E0,2.716007471E0,3.037092924E0,-2.140963554E0
1.749784629E0,2.847343683E0,3.205691814E0,-2.242367268E0
1.751784429E0,2.917593241E0,3.286326170E0,-2.291236401E0
1.753784162E0,3.042820454E0,3.439653397E0,-2.381033659E0
1.755783895E0,3.162549973E0,3.580152273E0,-2.467165470E0
1.757783628E0,3.218138933E0,3.645514965E0,-2.509926319E0
1.759783361E0,3.318931580E0,3.765855312E0,-2.591782331E0
1.761784027E0,3.410561562E0,3.870313168E0,-2.671805382E0
1.763783760E0,3.450878620E0,3.920404196E0,-2.710900784E0
1.765783560E0,3.524182320E0,4.008979797E0,-2.787259102E0
1.767783293E0,3.558390856E0,4.051129341E0,-2.822078466E0
1.769783026E0,3.611536026E0,4.129930973E0,-2.895382166E0
1.771782759E0,3.637192488E0,4.162918091E0,-2.934477568E0
1.773782125E0,3.678731203E0,4.236221790E0,-3.007781267E0
1.775781858E0,3.708052635E0,4.307082176E0,-3.076198339E0
1.777781591E0,3.716604948E0,4.342512131E0,-3.107352257E0
1.779781324E0,3.731265545E0,4.415205002E0,-3.170882225E0
1.781781157E0,3.733098507E0,4.489730358E0,-3.238688469E0
1.783780890E0,3.728822231E0,4.527604580E0,-3.272285938E0
1.785780623E0,3.716604948E0,4.599686623E0,-3.333372593E0
1.787780356E0,3.707441807E0,4.635116577E0,-3.360861540E0
1.789780089E0,3.677509546E0,4.712085247E0,-3.420115471E0
1.791779822E0,3.643911839E0,4.794552326E0,-3.473260641E0
1.793779555E0,3.625586033E0,4.836091518E0,-3.495862722E0
1.795779288E0,3.591377735E0,4.914282322E0,-3.539844990E0
1.797779088E0,3.576716900E0,4.951544762E0,-3.558170795E0
1.799778821E0,3.541897535E0,5.020572662E0,-3.594211817E0
1.801778521E0,3.508910656E0,5.087156773E0,-3.627198696E0
1.803778254E0,3.494250059E0,5.117700100E0,-3.642470360E0
1.805777987E0,3.459430695E0,5.179397583E0,-3.670570135E0
1.807777720E0,3.445380926E0,5.219714642E0,-3.685841799E0
1.809777453E0,3.408728838E0,5.308290005E0,-3.719439507E0
1.811777186E0,3.376353025E0,5.415802479E0,-3.744484901E0
1.813776986E0,3.360470533E0,5.472612858E0,-3.751815081E0
1.815776719E0,3.329927206E0,5.572184086E0,-3.737154484E0
1.817776452E0,3.315877438E0,5.607003212E0,-3.706611156E0
1.819776185E0,3.290831804E0,5.649763584E0,-3.601542473E0
1.821774985E0,3.267008066E0,5.675419807E0,-3.442717314E0
1.823774718E0,3.249292850E0,5.693135262E0,-3.346811533E0
1.825774451E0,3.208975792E0,5.731009007E0,-3.127511024E0
1.827774251E0,3.182708740E0,5.741393566E0,-3.012057304E0
1.829774051E0,3.120400429E0,5.720013142E0,-2.775041819E0
1.831773784E0,3.035490274E0,5.636324883E0,-2.547799826E0
1.833773884E0,2.983566761E0,5.571573257E0,-2.440287590E0
1.835773617E0,2.861393452E0,5.402974129E0,-2.247254133E0
1.837773350E0,2.715396643E0,5.194057941E0,-2.094537735E0
1.839773083E0,2.635984421E0,5.079826832E0,-2.031618595E0
1.841772783E0,2.464942217E0,4.842199802E0,-1.929604292E0
1.843772583E0,2.373312235E0,4.717583656E0,-1.891119599E0
1.845772316E0,2.183943987E0,4.466517448E0,-1.837363482E0
1.847772049E0,1.982969403E0,4.202013016E0,-1.805598497E0
1.849771782E0,1.883398294E0,4.065179348E0,-1.796435595E0
1.851771515E0,1.676925898E0,3.779294491E0,-1.787272573E0
1.853771248E0,1.572467923E0,3.636351824E0,-1.787272573E0
1.855770981E0,1.362330317E0,3.347412586E0,-1.793381214E0
1.857770714E0,1.162577391E0,3.062749624E0,-1.804987669E0
1.859770514E0,1.065449834E0,2.925304651E0,-1.814150691E0
1.861770280E0,8.797467947E-1,2.663243771E0,-1.834920049E0
1.863770013E0,7.948364615E-1,2.553898573E0,-1.848969936E0
1.865769746E0,6.390658617E-1,2.349258900E0,-1.876458883E0
1.867769479E0,5.101732612E-1,2.166610003E0,-1.891730547E0
1.869769212E0,4.576388597E-1,2.089641094E0,-1.900282741E0
1.871768945E0,3.672308028E-1,1.971744180E0,-1.926549792E0
1.873768678E0,3.330223262E-1,1.930205345E0,-1.941210628E0
1.875768478E0,2.890400290E-1,1.881336093E0,-1.972975612E0
1.877768211E0,2.701032460E-1,1.875227451E0,-2.009016752E0
1.879767944E0,2.731575668E-1,1.878281713E0,-2.029175282E0
1.881767610E0,2.908726633E-1,1.906381607E0,-2.079266071E0
1.883767343E0,3.220267594E-1,1.943033457E0,-2.123248577E0
1.885767076E0,3.409636021E-1,1.965635538E0,-2.145850658E0
1.887766809E0,3.934980035E-1,2.012061357E0,-2.181280851E0
1.889766542E0,4.228195548E-1,2.037717581E0,-2.200217485E0
1.891766342E0,4.784083068E-1,2.104301691E0,-2.237480164E0
1.893766075E0,5.260558128E-1,2.191044569E0,-2.276575565E0
1.895765808E0,5.486577749E-1,2.236248732E0,-2.299788475E0
1.897765541E0,5.956944227E-1,2.345593691E0,-2.348657608E0
1.899765274E0,6.146312356E-1,2.399349928E0,-2.372481346E0
1.901765040E0,6.488396525E-1,2.503807783E0,-2.417074680E0
1.903764773E0,6.781612039E-1,2.624758959E0,-2.464111328E0
1.905764573E0,6.922110915E-1,2.685234547E0,-2.489767551E0
1.907764373E0,7.160348296E-1,2.816570759E0,-2.530695438E0
1.909764106E0,7.319173813E-1,2.880100727E0,-2.542912960E0
1.911763839E0,7.581845522E-1,3.005939007E0,-2.575899601E0
1.913763572E0,7.911712527E-1,3.126890421E0,-2.593614817E0
1.915763305E0,8.125515580E-1,3.178813934E0,-2.600944996E0
1.917763038E0,8.608099222E-1,3.272887230E0,-2.616827726E0
1.919762771E0,8.828011155E-1,3.313814878E0,-2.625379562E0
1.921762571E0,9.414441586E-1,3.378566980E0,-2.643705606E0
1.923762304E0,9.945893884E-1,3.418883801E0,-2.662642479E0
1.925762037E0,1.020856619E0,3.425603628E0,-2.671805382E0
1.927761770E0,1.063006401E0,3.412775040E0,-2.678524971E0
1.929761503E0,1.105156064E0,3.348634243E0,-2.667529345E0
1.931761236E0,1.121649384E0,3.305263042E0,-2.653479576E0
1.933760069E0,1.155246973E0,3.184311628E0,-2.618660212E0
1.935759802E0,1.168075204E0,3.123225212E0,-2.600944996E0
1.937759602E0,1.185179353E0,2.990056515E0,-2.571012735E0
1.939759335E0,1.188233614E0,2.872159481E0,-2.560017109E0
1.941759101E0,1.174794674E0,2.767701387E0,-2.574677944E0
1.943758834E0,1.160133958E0,2.715778112E0,-2.589949369E0
1.945758567E0,1.144251347E0,2.668741465E0,-2.608886242E0
1.947758300E0,1.110653758E0,2.564283371E0,-2.651036024E0
1.949758033E0,1.072169304E0,2.463490725E0,-2.687077045E0
1.951757766E0,1.053232431E0,2.412788868E0,-2.704181433E0
1.953757566E0,1.012304544E0,2.326656818E0,-2.729226828E0
1.955757299E0,9.860373139E-1,2.285117865E0,-2.738389969E0
1.957757032E0,9.371680617E-1,2.209981441E0,-2.753661394E0
1.959756765E0,8.791358471E-1,2.152560234E0,-2.768322229E0
1.961756498E0,8.461491466E-1,2.126903772E0,-2.771987200E0
1.963756231E0,7.862843871E-1,2.067649841E0,-2.771376371E0
1.965755964E0,7.600171566E-1,2.040160894E0,-2.766489506E0
1.967755697E0,7.062609792E-1,1.995567918E0,-2.755493879E0
1.969755497E0,6.463962197E-1,1.966857195E0,-2.751828909E0
1.971754797E0,6.195181012E-1,1.954029083E0,-2.751218081E0
1.973754530E0,5.639294386E-1,1.943033457E0,-2.746330976E0
1.975754263E0,5.126167536E-1,1.940590024E0,-2.741444111E0
1.977753996E0,4.857386351E-1,1.943644285E0,-2.739611626E0
1.979753729E0,4.228195548E-1,1.949142098E0,-2.742665768E0
1.981753395E0,3.880002201E-1,1.955250740E0,-2.749996185E0
1.983753195E0,3.171398640E-1,1.967468023E0,-2.767100334E0
1.985752995E0,2.444468886E-1,1.957083344E0,-2.772598028E0
1.987752495E0,2.151253670E-1,1.941811800E0,-2.772598028E0
1.989752228E0,1.558714360E-1,1.895996809E0,-2.759159088E0
1.991751961E0,1.118891314E-1,1.870340466E0,-2.767100334E0
1.993752594E0,3.736357018E-2,1.800090909E0,-2.771987200E0
1.995752327E0,-3.716198727E-2,1.723122001E0,-2.812915325E0
1.997752060E0,-7.137043774E-2,1.698687434E0,-2.826354504E0
1.999751860E0,-1.300135106E-1,1.671198368E0,-2.830019474E0
2.001751693E0,-1.862131059E-1,1.661424518E0,-2.809861183E0
2.003751426E0,-2.204215527E-1,1.667533159E0,-2.808028221E0
2.005751159E0,-4.195636213E-1,1.525812507E0,-2.740222454E0
2.007750892E0,-8.972602487E-1,9.864184856E-1,-2.489767551E0
2.009750625E0,-2.011478424E0,1.330397278E-1,-1.957703948E0
2.011750358E0,-2.261933088E0,2.026783824E-1,-1.874015450E0
2.013750091E0,-2.305304766E0,7.591766119E-1,-2.113474607E0
2.015749891E0,-2.233222723E0,1.046283364E0,-2.337051153E0
2.017749624E0,-2.246661663E0,1.031011581E0,-2.371870518E0
2.019749357E0,-2.331571817E0,8.801279068E-1,-2.369427204E0
2.021749057E0,-2.329739332E0,7.872764468E-1,-2.364540339E0
2.023748790E0,-2.278426409E0,7.946068048E-1,-2.379811764E0
2.025748523E0,-2.117769003E0,8.428651690E-1,-2.425015926E0
2.027748256E0,-2.037134647E0,8.715758324E-1,-2.444563389E0
2.029747989E0,-1.878920674E0,8.966212869E-1,-2.481826305E0
2.031748222E0,-1.723150015E0,9.247210622E-1,-2.511758804E0
2.033747955E0,-1.644348383E0,9.485448599E-1,-2.530084610E0
2.035747688E0,-1.476971269E0,1.030400753E0,-2.545967340E0
2.037747421E0,-1.390839338E0,1.069496036E0,-2.539247751E0
2.039747154E0,-1.224073172E0,1.120198011E0,-2.492211103E0
2.041746954E0,-1.071967602E0,1.114700198E0,-2.396305084E0
2.043746687E0,-1.003550768E0,1.084767818E0,-2.334607840E0
2.045746420E0,-8.954276443E-1,9.943597317E-1,-2.214267254E0
2.047746453E0,-8.526670933E-1,9.412145019E-1,-2.166619778E0
2.049746186E0,-7.934131622E-1,8.489738107E-1,-2.103700638E0
2.051745919E0,-7.604264617E-1,7.787243128E-1,-2.070103168E0
2.053745652E0,-7.512634993E-1,7.487918735E-1,-2.056053162E0
2.055745385E0,-7.530960441E-1,7.066422105E-1,-2.054220676E0
2.057745118E0,-7.592046857E-1,6.889271140E-1,-2.060940266E0
2.059744851E0,-7.836393714E-1,6.589946747E-1,-2.081709623E0
2.061744584E0,-8.037978411E-1,6.241754293E-1,-2.111642122E0
2.063744384E0,-8.092956543E-1,6.070711613E-1,-2.131800652E0
2.065744117E0,-8.123499751E-1,5.582019687E-1,-2.166619778E0
2.067743850E0,-8.031870127E-1,4.922284782E-1,-2.188000202E0
2.069743583E0,-7.909697294E-1,4.635178149E-1,-2.189221859E0
2.071743316E0,-7.622590065E-1,3.944900632E-1,-2.183724165E0
2.073743049E0,-7.494308352E-1,3.633359373E-1,-2.177615404E0
2.075745782E0,-7.249962687E-1,3.138558269E-1,-2.151959181E0
2.077745582E0,-7.072811723E-1,2.894212306E-1,-2.125081062E0
2.079745382E0,-7.042267919E-1,2.790365219E-1,-2.109809399E0
2.081745148E0,-6.944530010E-1,2.729278803E-1,-2.081709623E0
2.083744881E0,-6.944530010E-1,2.753713429E-1,-2.067659616E0
2.085744614E0,-6.956747174E-1,2.918646932E-1,-2.035284042E0
2.087744347E0,-7.085028887E-1,3.077471852E-1,-1.999242783E0
2.089744080E0,-7.170549631E-1,3.150775731E-1,-1.980916858E0
2.091743813E0,-7.396570444E-1,3.242405355E-1,-1.929604292E0
2.093743613E0,-7.475982904E-1,3.217971027E-1,-1.896617413E0
2.095743379E0,-7.671459317E-1,3.053037524E-1,-1.825757027E0
2.097743145E0,-7.970783710E-1,2.710952759E-1,-1.746955395E0
2.099742911E0,-8.062413335E-1,2.521584332E-1,-1.707249284E0
2.101742644E0,-8.380063772E-1,2.185608745E-1,-1.624171495E0
2.103742410E0,-8.544996977E-1,1.971805841E-1,-1.582021832E0
2.105742176E0,-8.917624354E-1,1.660264581E-1,-1.508107185E0
2.107741942E0,-9.235274792E-1,1.293745488E-1,-1.442133665E0
2.109741775E0,-9.375773072E-1,1.104377136E-1,-1.410979629E0
2.111741541E0,-9.656772017E-1,5.729244277E-2,-1.349893093E0
2.113741307E0,-9.840031266E-1,-2.572353696E-3,-1.319960713E0
2.115741073E0,-9.949986935E-1,-3.433734551E-2,-1.255208969E0
2.117740839E0,-1.002329111E0,-9.603473544E-2,-1.184348583E0
2.119740605E0,-1.005994320E0,-1.198584810E-1,-1.143420696E0
2.121740371E0,-1.002329111E0,-1.711711586E-1,-1.064619064E0
2.123740137E0,-9.895009398E-1,-2.188186496E-1,-9.790978432E-1
2.125739970E0,-9.785053134E-1,-2.432532609E-1,-9.320611954E-1
2.127739736E0,-9.589576125E-1,-2.976202667E-1,-8.404314518E-1
2.129739502E0,-9.485729337E-1,-3.183896840E-1,-7.970600128E-1
2.131739268E0,-9.216948748E-1,-3.556524515E-1,-7.066519856E-1
2.133739034E0,-9.021471739E-1,-3.776436150E-1,-6.138004661E-1
2.135735800E0,-8.948167562E-1,-3.831413984E-1,-5.655421019E-1
2.137735566E0,-8.771016598E-1,-4.008564949E-1,-4.684145153E-1
2.139735332E0,-8.667169809E-1,-4.051325321E-1,-4.225996435E-1
2.141735132E0,-8.496127725E-1,-4.161280990E-1,-3.456306159E-1
2.143734898E0,-8.233456016E-1,-4.277345538E-1,-2.821006179E-1
2.145734664E0,-8.056305051E-1,-4.356757998E-1,-2.601094544E-1
2.147734430E0,-7.769197822E-1,-4.558343589E-1,-2.582768798E-1
2.149734196E0,-7.555394769E-1,-4.326214790E-1,-2.485030293E-1
2.151733962E0,-7.256070971E-1,-4.008564949E-1,-2.020772696E-1
2.153733728E0,-7.036159635E-1,-4.216259122E-1,-1.348820925E-1
2.155733528E0,-6.901769638E-1,-4.387301207E-1,-1.025062427E-1
2.157733328E0,-6.590228081E-1,-4.662190974E-1,-4.386317730E-2
2.159733061E0,-6.461946368E-1,-4.930971265E-1,-1.820683852E-2
2.161733861E0,-6.223708987E-1,-4.979840815E-1,3.616016731E-2
2.163733594E0,-5.997688770E-1,-5.120339990E-1,9.297063202E-2
2.165733327E0,-5.924384594E-1,-5.181426406E-1,1.210704371E-1
2.167733060E0,-5.747233629E-1,-5.315816402E-1,1.766591817E-1
2.169732793E0,-5.576192141E-1,-5.401337743E-1,2.243066728E-1
2.171732593E0,-5.490670800E-1,-5.389120579E-1,2.432434857E-1
2.173732326E0,-5.282976627E-1,-5.334142447E-1,2.609585822E-1
2.175732059E0,-5.160803199E-1,-5.279164314E-1,2.688998282E-1
2.177731792E0,-4.433873892E-1,-5.554053783E-1,2.774519324E-1
2.179731758E0,-2.808972299E-1,-6.439808607E-1,2.890583873E-1
2.181731491E0,-1.025245637E-1,-7.588235736E-1,2.988322079E-1
2.183731224E0,-2.677727863E-2,-8.174666166E-1,3.006648123E-1
2.185730957E0,4.958087951E-2,-8.626706004E-1,2.957778871E-1
2.187730757E0,2.774336338E-1,-9.732372165E-1,2.627911568E-1
2.189730490E0,4.527519643E-1,-9.463591576E-1,1.791026294E-1
2.191730223E0,5.168927908E-1,-8.742770553E-1,1.345094740E-1
2.193729956E0,6.335680485E-1,-6.702480316E-1,6.487083435E-2
2.195729689E0,6.818264127E-1,-5.835052133E-1,4.226882011E-2
2.197729422E0,7.813974619E-1,-4.313997626E-1,3.432757035E-2
2.199729155E0,8.852444887E-1,-3.196114302E-1,5.754045025E-2
2.201728888E0,9.487745166E-1,-2.609683573E-1,7.464467734E-2
2.203728688E0,1.081332326E0,-1.216910779E-1,1.247356236E-1
2.205728421E0,1.141196966E0,-1.350622973E-3,1.546680331E-1
2.207728154E0,1.258483171E0,4.629686847E-2,2.249175310E-1
2.209727887E0,1.328732610E0,1.250984818E-1,2.896692455E-1
2.211727620E0,1.357443333E0,1.696916521E-1,3.171581626E-1
2.213727353E0,1.376991034E0,2.240586579E-1,3.703034520E-1
2.215727086E0,1.373325825E0,2.747604549E-1,4.185617864E-1
2.217726819E0,1.360497713E0,2.802582383E-1,4.393312335E-1
2.219726619E0,1.309795856E0,2.393302768E-1,4.796483517E-1
2.221725319E0,1.226718307E0,1.745785624E-1,5.144676566E-1
2.223725052E0,1.192509770E0,1.538091451E-1,5.327936411E-1
2.225724785E0,1.073390961E0,5.607070774E-2,5.627260208E-1
2.227724518E0,1.022689223E0,2.858177386E-2,5.792193413E-1
2.229724251E0,9.047922492E-1,-3.678080812E-2,6.042648554E-1
2.231723984E0,8.363752961E-1,-8.137396723E-2,6.170930266E-1
2.233723784E0,7.025958300E-1,-1.620081812E-1,6.378624439E-1
2.235723584E0,5.773684978E-1,-2.285925001E-1,6.482471228E-1
2.237723317E0,5.175036788E-1,-2.664661109E-1,6.494688988E-1
2.239722817E0,4.002175331E-1,-3.367156386E-1,6.531341076E-1
2.241722517E0,2.963704169E-1,-3.923043907E-1,6.464145780E-1
2.243722250E0,2.487229407E-1,-4.142955244E-1,6.384733319E-1
2.245721983E0,1.583148986E-1,-4.546126425E-1,6.286994815E-1
2.247721716E0,1.204412431E-1,-4.735494554E-1,6.238125563E-1
2.249721516E0,4.530481994E-2,-5.077579021E-1,6.244233847E-1
2.251721316E0,1.720501855E-2,-5.297490954E-1,6.250342131E-1
2.253721049E0,-4.510323703E-2,-5.651792884E-1,6.256451607E-1
2.255720782E0,-9.152898937E-2,-5.890029669E-1,6.213690639E-1
2.257720515E0,-1.122984141E-1,-5.981659293E-1,6.146495342E-1
2.259720248E0,-1.477285922E-1,-6.073288918E-1,5.804411173E-1
2.261720014E0,-1.764392704E-1,-6.158810258E-1,5.230197906E-1
2.263719747E0,-1.904891729E-1,-6.152701974E-1,4.863678515E-1
2.265719547E0,-2.173672318E-1,-6.207680106E-1,4.020684361E-1
2.267719280E0,-2.295845300E-1,-6.219896674E-1,3.611404598E-1
2.269719013E0,-2.576843202E-1,-6.213788390E-1,2.866149247E-1
2.271718746E0,-2.808972299E-1,-6.238223314E-1,2.328587770E-1
2.273718479E0,-2.918927968E-1,-6.268766522E-1,2.175871432E-1
2.275718212E0,-3.053318262E-1,-6.335961223E-1,2.035372406E-1
2.277717945E0,-3.102187514E-1,-6.384831071E-1,2.047589719E-1
2.279717678E0,-3.151056767E-1,-6.519221067E-1,2.169762850E-1
2.281717411E0,-3.132730722E-1,-6.769675612E-1,2.401891649E-1
2.283717144E0,-3.096078932E-1,-6.934609413E-1,2.542390525E-1
2.285716877E0,-3.053318262E-1,-7.313345671E-1,2.823388577E-1
2.287718543E0,-2.973905802E-1,-7.655430436E-1,3.086060882E-1
2.289718276E0,-2.925036550E-1,-7.850907445E-1,3.202124834E-1
2.291718009E0,-2.857841551E-1,-8.119688034E-1,3.415928185E-1
2.293717742E0,-2.900602221E-1,-8.260186911E-1,3.513666391E-1
2.295717475E0,-2.937254012E-1,-8.547293544E-1,3.617513478E-1
2.297717275E0,-3.016666174E-1,-8.700009584E-1,3.648056686E-1
2.299717275E0,-3.236577809E-1,-9.035985470E-1,3.721360564E-1
2.301717041E0,-3.566445112E-1,-9.384179115E-1,3.825207651E-1
2.303716774E0,-3.841334581E-1,-9.573547244E-1,3.892402649E-1
2.305716507E0,-4.519394934E-1,-9.854544997E-1,4.118422866E-1
2.307716240E0,-5.356280804E-1,-1.006834865E0,4.429964423E-1
2.309715973E0,-5.814429522E-1,-1.016608596E0,4.558245838E-1
2.311715706E0,-6.730726957E-1,-1.028825879E0,4.900330603E-1
2.313715506E0,-7.207202315E-1,-1.034323692E0,5.040829182E-1
2.315715272E0,-8.080739379E-1,-1.028215051E0,5.315719247E-1
2.317715038E0,-8.856537938E-1,-1.008667469E0,5.492869616E-1
2.319714804E0,-9.161970615E-1,-9.891197681E-1,5.553956032E-1
2.321714537E0,-9.614011049E-1,-9.329200983E-1,5.572282076E-1
2.323714303E0,-9.736183882E-1,-8.932138681E-1,5.523412824E-1
2.325714069E0,-9.766727090E-1,-7.887558937E-1,5.254632831E-1
2.327713902E0,-9.650663137E-1,-6.671937108E-1,4.814809263E-1
2.329713735E0,-9.516272545E-1,-5.999985337E-1,4.558245838E-1
2.331713535E0,-9.229165912E-1,-4.631647468E-1,3.892402649E-1
2.333713335E0,-9.052014947E-1,-3.929152489E-1,3.556427062E-1
2.335713135E0,-8.606083393E-1,-2.554705739E-1,2.933344543E-1
2.337712935E0,-8.001326919E-1,-1.168041527E-1,2.328587770E-1
2.339712735E0,-7.616481781E-1,-4.899811000E-2,2.035372406E-1
2.341712601E0,-6.663532257E-1,8.233791590E-2,1.357312053E-1
2.343712467E0,-6.077101231E-1,1.483113617E-1,9.724669904E-2
2.345712333E0,-4.757632315E-1,2.686518133E-1,1.355815399E-2
2.347710266E0,-3.273229599E-1,3.810510337E-1,-7.990422845E-2
2.349710132E0,-2.527974248E-1,4.299202263E-1,-1.342712343E-1
2.351709998E0,-1.043571606E-1,5.093327165E-1,-2.387291938E-1
2.353709864E0,2.881145850E-2,5.679757595E-1,-3.407436907E-1
2.355709730E0,9.050884843E-2,5.881343484E-1,-3.871694207E-1
2.357709596E0,1.919124722E-1,6.137906313E-1,-4.763557613E-1
2.359709262E0,2.358947694E-1,6.205102205E-1,-5.160620213E-1
2.361709128E0,3.299680054E-1,6.425013542E-1,-6.327372789E-1
2.363708994E0,3.489048481E-1,6.443338990E-1,-6.700000763E-1
2.365708860E0,3.611221611E-1,6.412795782E-1,-7.048193812E-1
2.367708726E0,3.843350112E-1,6.192884445E-1,-7.793449163E-1
2.369708592E0,3.855567575E-1,6.027951241E-1,-8.141642213E-1
2.371708458E0,3.592895567E-1,5.618671179E-1,-8.972419500E-1
2.373708324E0,3.000356257E-1,5.099435449E-1,-9.827630520E-1
2.375708224E0,2.560533583E-1,4.800111949E-1,-1.023691058E0
2.377708057E0,1.430432647E-1,4.433592856E-1,-1.109822989E0
2.379707890E0,8.073500544E-2,4.195355177E-1,-1.151361823E0
2.381707756E0,-5.548794568E-2,3.688337207E-1,-1.227109075E0
2.383707589E0,-2.240867466E-1,3.645576537E-1,-1.302856445E0
2.385707422E0,-3.132730722E-1,3.670011163E-1,-1.334621429E0
2.387707255E0,-4.861479402E-1,3.932683170E-1,-1.390210152E0
2.389707088E0,-5.710582137E-1,4.244224429E-1,-1.413423061E0
2.391706954E0,-7.256070971E-1,5.062783957E-1,-1.447020650E0
2.393706754E0,-8.447258472E-1,6.186776161E-1,-1.469011784E0
2.395706554E0,-8.844320774E-1,6.809858680E-1,-1.476953030E0
2.397706354E0,-9.351339340E-1,8.501955271E-1,-1.488559484E0
2.399706154E0,-9.571250677E-1,1.090265632E0,-1.502609372E0
2.401705920E0,-9.626228809E-1,1.220379829E0,-1.511772394E0
2.403705720E0,-9.296361208E-1,1.454341292E0,-1.514826655E0
2.405705520E0,-9.033688903E-1,1.580179453E0,-1.511772394E0
2.407705320E0,-8.196803331E-1,1.810475707E0,-1.481840014E0
2.409705053E0,-6.797922254E-1,1.994346142E0,-1.428694725E0
2.411704786E0,-5.997688770E-1,2.137288570E0,-1.411590457E0
2.413704519E0,-4.330026507E-1,2.445775747E0,-1.401205778E0
2.415704252E0,-3.480924070E-1,2.577722311E0,-1.407314420E0
2.417703985E0,-1.697197407E-1,2.788470984E0,-1.449464083E0
2.419703718E0,2.514626645E-2,2.929580927E0,-1.523378730E0
2.421703484E0,2.206231505E-1,3.044423580E0,-1.616230369E0
2.423702350E0,3.091986179E-1,3.094514370E0,-1.662656069E0
2.425702083E0,3.837241530E-1,3.135442495E0,-1.720688224E0
2.427701816E0,5.077297688E-1,3.226461411E0,-1.847748280E0
2.429701549E0,5.944726467E-1,3.318701982E0,-1.994355917E0
2.431701282E0,6.268485188E-1,3.369403839E0,-2.071935892E0
2.433701015E0,6.537266374E-1,3.465920448E0,-2.234426022E0
2.435700748E0,6.610569954E-1,3.497685432E0,-2.316892862E0
2.437700548E0,6.476179957E-1,3.534337521E0,-2.473274231E0
2.439700281E0,5.712598562E-1,3.580152273E0,-2.615606070E0
2.441700014E0,4.338151217E-1,3.599089146E0,-2.720063686E0
2.443699747E0,3.434070647E-1,3.585039377E0,-2.743276596E0
2.445699480E0,1.430432647E-1,3.565491438E0,-2.715177059E0
2.447699213E0,3.125492111E-2,3.576487064E0,-2.671805382E0
2.449698946E0,-1.880456954E-1,3.635130167E0,-2.528862953E0
2.451698679E0,-3.212143183E-1,3.707212210E0,-2.445174456E0
2.453698479E0,-5.735016465E-1,3.812280893E0,-2.228928328E0
2.455698212E0,-8.373954296E-1,3.915517330E0,-1.947319388E0
2.457697945E0,-9.583467841E-1,3.950947523E0,-1.792159557E0
2.459697678E0,-1.181923509E0,3.971106052E0,-1.472066164E0
2.461697444E0,-1.369459152E0,3.925291300E0,-1.169076920E0
2.463697177E0,-1.466586709E0,3.917960644E0,-1.041406155E0
2.465696910E0,-1.650457144E0,3.847711086E0,-8.447075486E-1
2.467696643E0,-1.740254283E0,3.790290117E0,-7.720144987E-1
2.469696443E0,-1.897857547E0,3.569767475E0,-6.614479423E-1
2.471696176E0,-1.972383022E0,3.434155464E0,-6.229634285E-1
2.473695909E0,-2.119601488E0,3.174537897E0,-6.125787497E-1
2.475695642E0,-2.219172716E0,2.867883444E0,-6.541175246E-1
2.477695375E0,-2.228946447E0,2.691343307E0,-6.846608520E-1
2.479695108E0,-2.222227097E0,2.362087011E0,-7.536885738E-1
2.481694874E0,-2.150144815E0,2.038328409E0,-8.104990721E-1
2.483695540E0,-2.121433973E0,1.911268473E0,-8.508161902E-1
2.485695340E0,-2.059736729E0,1.692578793E0,-9.381698966E-1
2.487695073E0,-2.010867596E0,1.567351341E0,-9.736000896E-1
2.489694806E0,-1.891748905E0,1.352326751E0,-1.043849587E0
2.491694539E0,-1.765910625E0,1.181895375E0,-1.106157780E0
2.493694272E0,-1.703602433E0,1.115921855E0,-1.141587973E0
2.495693572E0,-1.566157699E0,9.876402020E-1,-1.204507232E0
2.497693305E0,-1.492853880E0,9.088385701E-1,-1.226498246E0
2.499693105E0,-1.343191862E0,7.414615154E-1,-1.258874178E0
2.501692905E0,-1.219797134E0,6.070711613E-1,-1.291860819E0
2.503692638E0,-1.151991129E0,5.301021338E-1,-1.313241243E0
2.505692371E0,-1.035315752E0,3.779967129E-1,-1.370662451E0
2.507692104E0,-9.778944850E-1,2.894212306E-1,-1.403649211E0
2.509691837E0,-8.795451522E-1,1.238767579E-1,-1.475731373E0
2.511691570E0,-8.099064827E-1,-4.166772962E-2,-1.594239116E0
2.513691303E0,-7.928023338E-1,-1.113063693E-1,-1.663267016E0
2.515691103E0,-7.604264617E-1,-2.707421780E-1,-1.793992043E0
2.517690836E0,-7.427113652E-1,-3.648154438E-1,-1.847748280E0
2.519690569E0,-7.078920007E-1,-5.896138549E-1,-1.924717307E0
2.521690269E0,-6.718509793E-1,-8.351817131E-1,-1.957093120E0
2.523690002E0,-6.523032784E-1,-9.488025904E-1,-1.962590933E0
2.525689735E0,-6.077101231E-1,-1.168714166E0,-1.936323762E0
2.527689468E0,-5.771668553E-1,-1.276837230E0,-1.909445643E0
2.529689201E0,-5.234106779E-1,-1.468648911E0,-1.824535370E0
2.531689001E0,-4.757632315E-1,-1.609147906E0,-1.727407813E0
2.533688734E0,-4.488851726E-1,-1.667791009E0,-1.683425546E0
2.535688467E0,-4.091789126E-1,-1.751479506E0,-1.604623914E0
2.537688200E0,-3.969615996E-1,-1.764918566E0,-1.586297989E0
2.539687933E0,-3.920747042E-1,-1.779579401E0,-1.593628287E0
2.541687633E0,-3.749704659E-1,-1.843720198E0,-1.690755844E0
2.543687366E0,-3.462598026E-1,-1.867543936E0,-1.870350242E0
2.545687099E0,-2.955579758E-1,-1.863878727E0,-2.240534782E0
2.547686899E0,-2.674582005E-1,-2.047138214E0,-2.533139229E0
2.549686632E0,-2.644038796E-1,-2.154039860E0,-2.664475203E0
2.551686365E0,-2.723450959E-1,-2.221234798E0,-2.872169256E0
2.553686098E0,-2.961688638E-1,-2.176031113E0,-2.945473194E0
2.555686264E0,-3.761922121E-1,-1.956730247E0,-3.002894640E0
2.557685997E0,-4.788175523E-1,-1.565776467E0,-2.943029642E0
2.559685730E0,-5.508996844E-1,-1.347697616E0,-2.858730316E0
2.561685463E0,-6.639097333E-1,-9.848436713E-1,-2.591171026E0
2.563685263E0,-7.109463215E-1,-8.638923168E-1,-2.408522367E0
2.565684996E0,-7.940240502E-1,-7.411084771E-1,-1.979084253E0
2.567684729E0,-8.490018845E-1,-7.319454551E-1,-1.530098319E0
2.569684462E0,-8.599975109E-1,-7.307237387E-1,-1.343173623E0
2.571684195E0,-8.728256226E-1,-7.295020223E-1,-1.060953856E0
2.573683928E0,-8.752691150E-1,-7.191172838E-1,-9.681022763E-1
2.575683661E0,-8.477801681E-1,-6.818544865E-1,-8.880789280E-1
2.577683461E0,-7.964674830E-1,-6.714698076E-1,-8.880789280E-1
2.579683261E0,-7.653133273E-1,-6.873522997E-1,-9.094592333E-1
2.581682961E0,-6.871226430E-1,-7.692082524E-1,-9.546632767E-1
2.583682694E0,-5.997688770E-1,-8.675575852E-1,-1.009641171E0
2.585682427E0,-5.576192141E-1,-9.042094946E-1,-1.042016983E0
2.587682160E0,-4.830936193E-1,-9.286440611E-1,-1.116542578E0
2.589681893E0,-4.543829262E-1,-9.194810987E-1,-1.150750995E0
2.591681626E0,-4.213962257E-1,-8.541185260E-1,-1.201452732E0
2.593681426E0,-4.000159204E-1,-7.563800812E-1,-1.238715529E0
2.595681159E0,-3.920747042E-1,-7.123977542E-1,-1.256430626E0
2.597680892E0,-3.719161451E-1,-6.635285616E-1,-1.266204596E0
2.599680392E0,-3.352642357E-1,-6.238223314E-1,-1.275367498E0
2.601680158E0,-2.857841551E-1,-5.938898921E-1,-1.290028334E0
2.603679891E0,-2.589060664E-1,-5.792291164E-1,-1.295526147E0
2.605679624E0,-2.393583804E-1,-5.560162067E-1,-1.308354259E0
2.607679357E0,-2.069825232E-1,-4.894319475E-1,-1.324236751E0
2.609679157E0,-2.039281875E-1,-4.485039711E-1,-1.332788825E0
2.611678890E0,-2.039281875E-1,-3.385482430E-1,-1.354780078E0
2.613678623E0,-2.271410823E-1,-2.371446043E-1,-1.363942981E0
2.615678356E0,-2.363040596E-1,-2.017144114E-1,-1.359666824E0
2.617678089E0,-2.699016333E-1,-1.290214509E-1,-1.337675810E0
2.619677822E0,-2.949471176E-1,-9.236954153E-2,-1.321793199E0
2.621677522E0,-3.389294147E-1,-8.070141077E-3,-1.262539268E0
2.623677255E0,-3.719161451E-1,6.584455073E-2,-1.211837530E0
2.625677055E0,-3.804682493E-1,9.577695280E-2,-1.182515979E0
2.627676788E0,-3.969615996E-1,1.544200182E-1,-1.159303069E0
2.629676521E0,-4.061245918E-1,1.794654876E-1,-1.151361823E0
2.631676254E0,-4.061245918E-1,1.696916521E-1,-1.152583599E0
2.633675987E0,-4.195636213E-1,1.318179965E-1,-1.160524845E0
2.635675720E0,-4.275048971E-1,1.067725196E-1,-1.173963904E0
2.637675453E0,-4.391113222E-1,4.446427152E-2,-1.210615873E0
2.639675186E0,-4.702654481E-1,-1.601138897E-2,-1.248489499E0
2.641675052E0,-4.818718731E-1,-3.616994247E-2,-1.260706782E0
2.643674785E0,-5.215781331E-1,-7.404358685E-2,-1.301634789E0
2.645674518E0,-5.313519835E-1,-8.320656419E-2,-1.326680183E0
2.647674251E0,-5.618951917E-1,-1.143606976E-1,-1.353558183E0
2.649673984E0,-5.765559673E-1,-1.387953013E-1,-1.370662451E0
2.651673717E0,-5.753343105E-1,-1.473474056E-1,-1.372495174E0
2.653673450E0,-5.808320045E-1,-1.613973230E-1,-1.384101510E0
2.655673250E0,-5.777776837E-1,-1.607864499E-1,-1.382268906E0
2.657673050E0,-5.673930049E-1,-1.461256891E-1,-1.392042756E0
2.659673016E0,-5.301302671E-1,-1.253562719E-1,-1.397540569E0
2.661672749E0,-5.063064694E-1,-1.009216607E-1,-1.411590457E0
2.663672482E0,-4.898131490E-1,-8.931521326E-2,-1.423196912E0
2.665672215E0,-4.806501567E-1,-8.442829549E-2,-1.419531703E0
2.667671948E0,-4.751523733E-1,-5.693935975E-2,-1.440301180E0
2.669671681E0,-4.702654481E-1,-3.555907682E-2,-1.465346575E0
2.671671481E0,-4.696545601E-1,-2.517436817E-2,-1.482450843E0
2.673671281E0,-4.757632315E-1,-1.961488277E-3,-1.508107185E0
2.675671014E0,-4.611024857E-1,1.575360447E-2,-1.522157073E0
2.677670747E0,-4.586589932E-1,1.758619957E-2,-1.532541752E0
2.679670480E0,-4.372787178E-1,4.568599910E-2,-1.527043939E0
2.681670213E0,-4.342243969E-1,7.622926682E-2,-1.522767901E0
2.683669946E0,-3.896312118E-1,1.470896304E-1,-1.518491864E0
2.685669679E0,-3.425945938E-1,2.429954708E-1,-1.516048431E0
2.687669479E0,-3.187708855E-1,3.022494018E-1,-1.513604999E0
2.689669212E0,-2.857841551E-1,4.097616971E-1,-1.503220201E0
2.691668945E0,-2.784537673E-1,4.543548524E-1,-1.489170313E0
2.693668678E0,-2.717342675E-1,5.496498346E-1,-1.445798993E0
2.695668411E0,-2.753994465E-1,6.174558997E-1,-1.390821099E0
2.697668144E0,-2.717342675E-1,6.327275038E-1,-1.348060369E0
2.699667877E0,-2.857841551E-1,6.754881144E-1,-1.269869804E0
2.701667610E0,-3.028883636E-1,7.176377773E-1,-1.196565866E0
2.703667410E0,-3.163273931E-1,7.371854782E-1,-1.180683374E0
2.705667143E0,-3.383185565E-1,7.622309327E-1,-1.148918509E0
2.707667243E0,-3.505358696E-1,7.811678052E-1,-1.134868503E0
2.709666976E0,-3.603096902E-1,7.842221260E-1,-1.111655593E0
2.711666709E0,-3.676400781E-1,7.854437828E-1,-1.096994877E0
2.713666442E0,-3.706943989E-1,7.921633124E-1,-1.070727706E0
2.715666175E0,-3.719161451E-1,7.500135899E-1,-1.051179886E0
2.717665908E0,-3.713052571E-1,7.103073597E-1,-1.042627811E0
2.719665708E0,-3.743595779E-1,6.534969211E-1,-1.018804193E0
2.721665441E0,-3.816899657E-1,6.040168405E-1,-1.001699924E0
2.723665207E0,-3.902420998E-1,5.832474232E-1,-9.876499772E-1
2.725664973E0,-4.146766961E-1,5.301021338E-1,-9.687131643E-1
2.727664739E0,-4.220070839E-1,5.032240748E-1,-9.619936347E-1
2.729664505E0,-4.604915977E-1,4.622960985E-1,-9.595501423E-1
2.731664271E0,-5.081390738E-1,4.244224429E-1,-9.833738804E-1
2.733664037E0,-5.313519835E-1,4.054856300E-1,-9.998673201E-1
2.735663870E0,-5.930494070E-1,3.670011163E-1,-1.032243133E0
2.737663703E0,-6.248143315E-1,3.456208408E-1,-1.046903968E0
2.739663469E0,-6.736835837E-1,3.022494018E-1,-1.071949363E0
2.741663269E0,-7.133898139E-1,2.582671344E-1,-1.092107892E0
2.743663035E0,-7.390461564E-1,2.539910376E-1,-1.092107892E0
2.745662801E0,-7.793632746E-1,2.533801794E-1,-1.081723213E0
2.747662567E0,-8.025761247E-1,2.570453882E-1,-1.073171139E0
2.749662400E0,-8.331193924E-1,3.034711182E-1,-1.038351774E0
2.751662233E0,-8.508344889E-1,4.060964882E-1,-9.925369024E-1
2.753661999E0,-8.544996977E-1,4.830655158E-1,-9.668805599E-1
2.755661765E0,-8.441150188E-1,6.528860331E-1,-9.082375169E-1
2.757661531E0,-8.270107508E-1,7.487918735E-1,-8.783051372E-1
2.759661297E0,-7.824175954E-1,9.534317851E-1,-8.123316765E-1
2.761661030E0,-7.194984555E-1,1.169067144E0,-7.475799322E-1
2.763660796E0,-6.822356582E-1,1.275357842E0,-7.170366645E-1
2.765660629E0,-6.052666903E-1,1.494047523E0,-6.724435687E-1
2.767660029E0,-5.325737596E-1,1.732284904E0,-6.596153378E-1
2.769659795E0,-4.892022610E-1,1.837353706E0,-6.657239795E-1
2.771659561E0,-4.195636213E-1,2.002287388E0,-6.858825684E-1
2.773659327E0,-3.902420998E-1,2.056654215E0,-6.901586056E-1
2.775659093E0,-3.315990269E-1,2.124460459E0,-6.889368892E-1
2.777658859E0,-3.010557890E-1,2.209370613E0,-6.816065311E-1
2.779658625E0,-2.876167297E-1,2.245411873E0,-6.767195463E-1
2.781658458E0,-2.613495290E-1,2.307719946E0,-7.133714557E-1
2.783658191E0,-2.479104847E-1,2.322991610E0,-7.420821786E-1
2.785657924E0,-2.204215527E-1,2.318715572E0,-7.769014835E-1
2.787657657E0,-2.106477171E-1,2.293670177E0,-7.946165800E-1
2.789657390E0,-2.082042545E-1,2.265570402E0,-7.940056920E-1
2.791657123E0,-2.149237692E-1,2.211814165E0,-7.952274084E-1
2.793656856E0,-2.259193361E-1,2.187990427E0,-7.946165800E-1
2.795656589E0,-2.552408874E-1,2.136677742E0,-7.860644460E-1
2.797656322E0,-2.973905802E-1,2.056043386E0,-7.830101252E-1
2.799656055E0,-3.187708855E-1,2.002898216E0,-7.817884088E-1
2.801655755E0,-3.694726825E-1,1.922263980E0,-7.775123119E-1
2.803655488E0,-3.957399130E-1,1.883779526E0,-7.720144987E-1
2.805655221E0,-4.531612098E-1,1.825136423E0,-7.677384615E-1
2.807654954E0,-5.093607903E-1,1.768936872E0,-7.597972155E-1
2.809654687E0,-5.368497372E-1,1.739615321E0,-7.573537827E-1
2.811654253E0,-5.893841386E-1,1.666311502E0,-7.475799322E-1
2.813654053E0,-6.272578239E-1,1.599727154E0,-7.371952534E-1
2.815653786E0,-6.443620324E-1,1.566740513E0,-7.261996269E-1
2.817653519E0,-6.785705090E-1,1.519093037E0,-6.956563592E-1
2.819653252E0,-6.938421130E-1,1.498934507E0,-6.785522103E-1
2.821653018E0,-7.085028887E-1,1.474499702E0,-6.498414874E-1
2.823652751E0,-7.127789259E-1,1.436626196E0,-6.162438989E-1
2.825652484E0,-7.127789259E-1,1.423797965E0,-5.979179740E-1
2.827652284E0,-7.072811723E-1,1.423797965E0,-5.441617966E-1
2.829652084E0,-7.054485679E-1,1.430517435E0,-5.117859244E-1
2.831651817E0,-6.938421130E-1,1.451287031E0,-4.561972022E-1
2.833651550E0,-6.559684873E-1,1.474499702E0,-3.853368461E-1
2.835651283E0,-6.461946368E-1,1.481830239E0,-3.505175114E-1
2.837651016E0,-6.235926747E-1,1.501377940E0,-2.833223641E-1
2.839650749E0,-6.077101231E-1,1.503821254E0,-2.540008128E-1
2.841650449E0,-5.667821765E-1,1.491603971E0,-1.990229487E-1
2.843650249E0,-5.215781331E-1,1.485495329E0,-1.354929656E-1
2.845649982E0,-4.971435368E-1,1.475110769E0,-1.006736457E-1
2.847649715E0,-4.439982176E-1,1.476943254E0,-3.103500977E-2
2.849649448E0,-4.189527631E-1,1.485495329E0,4.395175260E-3
2.851649181E0,-3.584771156E-1,1.486106157E0,7.525554299E-2
2.853648914E0,-2.918927968E-1,1.479997516E0,1.503919661E-1
2.855648647E0,-2.595169246E-1,1.467169404E0,1.900982112E-1
2.857648380E0,-1.825479120E-1,1.442123890E0,2.597368360E-1
2.859648180E0,-9.519418329E-2,1.414635062E0,3.128821254E-1
2.861647946E0,-5.365534872E-2,1.396919966E0,3.244885504E-1
2.863647679E0,3.064405359E-2,1.340109468E0,3.354841173E-1
2.865647412E0,7.279375196E-2,1.301014066E0,3.336515427E-1
2.867647145E0,1.418215334E-1,1.197167039E0,3.434253931E-1
2.869646878E0,1.986320019E-1,1.083546042E0,3.544209599E-1
2.871646778E0,2.224557549E-1,1.012074828E0,3.464797139E-1
2.873646511E0,2.554424703E-1,8.599693775E-1,3.128821254E-1
2.875646311E0,2.639945745E-1,7.799460292E-1,2.823388577E-1
2.877646044E0,2.621619999E-1,6.113472581E-1,1.968177408E-1
2.879645777E0,2.365056425E-1,4.616852403E-1,9.235977381E-2
2.881645443E0,2.206231505E-1,4.018204212E-1,3.677103296E-2
2.883645176E0,1.827494949E-1,3.108015060E-1,-6.646519154E-2
2.885644909E0,1.662561297E-1,2.668192089E-1,-1.122800857E-1
2.887644642E0,1.283824891E-1,1.745785624E-1,-1.788643897E-1
2.889644375E0,9.478490800E-2,8.417051286E-2,-2.136837095E-1
2.891644175E0,8.012413979E-2,4.140994325E-2,-2.167380303E-1
2.893643908E0,5.446780100E-2,-2.945042402E-2,-1.990229487E-1
2.895643641E0,4.897001386E-2,-5.571762845E-2,-1.776426733E-1
2.897643374E0,3.980703279E-2,-7.954137772E-2,-1.202213392E-1
2.899643107E0,2.697886340E-2,-7.587618381E-2,-5.424788594E-2
2.901642873E0,1.964848116E-2,-4.288946092E-2,5.616906099E-3
2.903642606E0,1.415069308E-2,-3.794084070E-3,2.882978506E-2
2.905642406E0,7.116579800E-4,7.317493111E-2,7.586640865E-2
2.907642206E0,-5.396994762E-3,1.110485867E-1,1.015227512E-1
2.909641939E0,-1.211651228E-2,1.880176067E-1,1.558897495E-1
2.911641672E0,-1.394910831E-2,2.234477848E-1,1.839895695E-1
2.913641405E0,-1.578170434E-2,2.765930891E-1,2.438543588E-1
2.915640771E0,-1.089478191E-2,3.334035277E-1,3.134929836E-1
2.917640504E0,-1.089478191E-2,3.578381240E-1,3.464797139E-1
2.919640237E0,-8.451320231E-3,3.993769884E-1,4.093988240E-1
2.921640003E0,-7.840455510E-3,4.378614724E-1,4.643767178E-1
2.923639803E0,-3.564398736E-3,4.567983150E-1,4.869787395E-1
2.925639536E0,-1.731802942E-3,5.001697540E-1,5.297392607E-1
2.927639269E0,-3.564398736E-3,5.288804173E-1,5.450109243E-1
2.929639002E0,-3.564398736E-3,5.887451768E-1,5.670020580E-1
2.931638735E0,-5.396994762E-3,6.211210489E-1,5.798302889E-1
2.933638468E0,-1.150564663E-2,6.809858680E-1,5.963236094E-1
2.935638201E0,-2.189035527E-2,7.432941198E-1,6.085408926E-1
2.937638001E0,-2.860987373E-2,7.750591040E-1,6.115952134E-1
2.939637734E0,-3.655112162E-2,8.337021470E-1,6.128169298E-1
2.941637500E0,-4.388150573E-2,8.947886825E-1,6.097626090E-1
2.943637233E0,-4.815756157E-2,9.253319502E-1,6.042648554E-1
2.945636966E0,-5.487708002E-2,9.766446352E-1,5.883823037E-1
2.947636699E0,-5.793140456E-2,9.949705601E-1,5.743324757E-1
2.949636432E0,-6.037486717E-2,1.016350865E0,5.395131111E-1
2.951636165E0,-5.976400152E-2,1.015740037E0,5.028612018E-1
2.953635965E0,-5.854227021E-2,1.003522754E0,4.863678515E-1
2.955635698E0,-5.060102046E-2,9.632056355E-1,4.533811212E-1
2.957635431E0,-4.571409896E-2,9.357166886E-1,4.399421215E-1
2.959635164E0,-3.227506578E-2,8.764626980E-1,4.136748910E-1
2.961634897E0,-2.127949148E-2,8.056023717E-1,3.837424815E-1
2.963634630E0,-1.394910831E-2,7.738373876E-1,3.660274148E-1
2.965634363E0,1.933388528E-3,7.121399641E-1,3.238776922E-1
2.967634096E0,8.652906865E-3,6.822075844E-1,2.933344543E-1
2.969633896E0,2.942232601E-2,6.302840710E-1,2.340805084E-1
2.971633629E0,4.897001386E-2,5.930212140E-1,1.619984061E-1
2.973633362E0,6.363078207E-2,5.777496099E-1,1.229030341E-1
2.975633428E0,8.806539327E-2,5.490389466E-1,4.165795445E-2
2.977633161E0,9.845009446E-2,5.386542082E-1,-2.324342262E-3
2.979632894E0,1.259390265E-1,5.203282833E-1,-8.418028057E-2
2.981632627E0,1.497627646E-1,5.191065669E-1,-1.715340167E-1
2.983632360E0,1.625909358E-1,5.172739625E-1,-2.136837095E-1
2.985632160E0,1.882472783E-1,5.056675673E-1,-2.857657969E-1
2.987631893E0,2.004646063E-1,4.977262914E-1,-3.224177361E-1
2.989631626E0,2.291752696E-1,4.787894487E-1,-3.822825253E-1
2.991631359E0,2.542207241E-1,4.555765688E-1,-4.342060983E-1
2.993631092E0,2.664380372E-1,4.329745770E-1,-4.458124936E-1
2.995630825E0,2.737684250E-1,3.633359373E-1,-4.268757105E-1
2.997630558E0,2.817096412E-1,2.839234173E-1,-4.128257632E-1
2.999630358E0,2.878183424E-1,2.484932542E-1,-4.061062634E-1
3.001630191E0,2.945378423E-1,1.922936589E-1,-3.944998085E-1
3.003629924E0,2.982030213E-1,1.764111668E-1,-3.914454877E-1
3.005629657E0,3.043116629E-1,1.696916521E-1,-3.890020549E-1
3.007629390E0,3.128637969E-1,1.825198233E-1,-3.822825253E-1
3.009629123E0,3.183615804E-1,1.916828007E-1,-3.792282045E-1
3.011628856E0,3.263028264E-1,2.045109719E-1,-3.706761003E-1
3.013628589E0,3.287463188E-1,2.087870240E-1,-3.645674586E-1
3.015628389E0,3.318006396E-1,2.258912474E-1,-3.560153246E-1
3.017628122E0,3.299680054E-1,2.631540298E-1,-3.529610038E-1
3.019627488E0,3.293571472E-1,2.857560515E-1,-3.547935784E-1
3.021627221E0,3.275245726E-1,3.395121694E-1,-3.535718620E-1
3.023626954E0,3.287463188E-1,3.724988997E-1,-3.541827202E-1
3.025626687E0,3.311897516E-1,4.439701438E-1,-3.517392576E-1
3.027626420E0,3.379092813E-1,5.062783957E-1,-3.431871235E-1
3.029626153E0,3.372983932E-1,5.398759842E-1,-3.395219743E-1
3.031625953E0,3.519591689E-1,5.948538780E-1,-3.211960196E-1
3.033625686E0,3.544026613E-1,6.241754293E-1,-3.138656318E-1
3.035625452E0,3.586786687E-1,6.699903011E-1,-2.924853265E-1
3.037625185E0,3.458505273E-1,6.870945096E-1,-2.692724466E-1
3.039624918E0,3.342440724E-1,6.864836216E-1,-2.564442754E-1
3.041624684E0,3.043116629E-1,6.736554503E-1,-2.307879478E-1
3.043624417E0,2.682706416E-1,6.479991674E-1,-2.032990158E-1
3.045624150E0,2.481120825E-1,6.370035410E-1,-1.892490983E-1
3.047623950E0,2.084058374E-1,6.174558997E-1,-1.593167186E-1
3.049623683E0,1.888581514E-1,6.119580865E-1,-1.440450698E-1
3.051623416E0,1.509845108E-1,6.076819897E-1,-1.177778691E-1
3.053623149E0,1.088348106E-1,6.174558997E-1,-9.028893709E-2
3.055622882E0,9.173057973E-2,6.327275038E-1,-7.623903453E-2
3.057622615E0,4.774828255E-2,6.883162260E-1,-5.424788594E-2
3.059622348E0,2.331367321E-2,7.341310978E-1,-4.691750184E-2
3.061622081E0,-1.578170434E-2,8.642454147E-1,-3.042414226E-2
3.063621881E0,-5.487708002E-2,1.009631395E0,-1.393078268E-2
3.065621614E0,-7.320303470E-2,1.075604916E0,-5.989533849E-3
3.067621347E0,-1.037463024E-1,1.184949756E0,-4.917465267E-4
3.069621080E0,-1.165744737E-1,1.230764508E0,-3.546072636E-3
3.071620813E0,-1.397873461E-1,1.307122707E0,-1.698510721E-2
3.073620546E0,-1.575024426E-1,1.382259130E0,-4.080885276E-2
3.075620279E0,-1.623893529E-1,1.426852345E0,-6.035654247E-2
3.077620079E0,-1.746066809E-1,1.538640618E0,-1.037279740E-1
3.079620245E0,-1.856022477E-1,1.602170706E0,-1.263299882E-1
3.081619978E0,-2.161455005E-1,1.791538835E0,-2.051316053E-1
3.083619711E0,-2.271410823E-1,1.847738504E0,-2.313988060E-1
3.085619444E0,-2.375257909E-1,1.891109824E0,-2.576660216E-1
3.087619177E0,-2.644038796E-1,1.950363874E0,-3.144764602E-1
3.089618910E0,-2.888384759E-1,1.950974703E0,-3.602913916E-1
3.091618643E0,-2.949471176E-1,1.926540017E0,-3.798390627E-1
3.093618443E0,-3.034992516E-1,1.844073296E0,-4.067171216E-1
3.095618176E0,-3.071644306E-1,1.790928006E0,-4.097714424E-1
3.097617909E0,-3.041101098E-1,1.669365883E0,-4.164909720E-1
3.099617642E0,-2.986122966E-1,1.527034163E0,-4.128257632E-1
3.101617342E0,-2.961688638E-1,1.453119516E0,-4.073280096E-1
3.103617075E0,-2.815080881E-1,1.311398745E0,-4.061062634E-1
3.105616808E0,-2.808972299E-1,1.236873150E0,-4.109931886E-1
3.107616541E0,-2.827298343E-1,1.102482915E0,-4.219887555E-1
3.109616341E0,-2.821189463E-1,9.839750528E-1,-4.287082851E-1
3.111616074E0,-2.833406627E-1,9.253319502E-1,-4.256539643E-1
3.113615807E0,-2.815080881E-1,8.117110133E-1,-4.177127182E-1
3.115615540E0,-2.778429091E-1,7.597874999E-1,-4.140475094E-1
3.117615273E0,-2.741777003E-1,6.626598835E-1,-4.183235765E-1
3.119615006E0,-2.851732671E-1,5.881343484E-1,-4.293191433E-1
3.121614739E0,-2.937254012E-1,5.606454015E-1,-4.305408895E-1
3.123614472E0,-3.267121315E-1,5.453737974E-1,-4.311517477E-1
3.125614272E0,-3.450380862E-1,5.551476479E-1,-4.311517477E-1
3.127613605E0,-3.945181668E-1,6.027951241E-1,-4.152692556E-1
3.129613371E0,-4.446091056E-1,6.559403539E-1,-3.981650174E-1
3.131613137E0,-4.745415151E-1,6.669359803E-1,-3.914454877E-1
3.133612903E0,-5.337954164E-1,6.541078091E-1,-3.731195331E-1
3.135612669E0,-5.967145562E-1,6.015733480E-1,-3.517392576E-1
3.137612435E0,-6.272578239E-1,5.582019687E-1,-3.383002281E-1
3.139612201E0,-6.712400913E-1,4.879524112E-1,-3.156982064E-1
3.141612001E0,-6.962856054E-1,4.097616971E-1,-2.882092893E-1
3.143611767E0,-7.005616426E-1,3.682228327E-1,-2.790462971E-1
3.145611533E0,-6.975073218E-1,2.814799845E-1,-2.533899546E-1
3.147611299E0,-6.871226430E-1,2.454389334E-1,-2.393400520E-1
3.149611065E0,-6.724618673E-1,1.941262484E-1,-2.087967992E-1
3.151610831E0,-6.571902037E-1,1.764111668E-1,-1.916925609E-1
3.153610597E0,-6.223708987E-1,1.556417346E-1,-1.629818976E-1
3.155610430E0,-5.820537806E-1,1.483113617E-1,-1.361038387E-1
3.157610263E0,-5.582300425E-1,1.495330930E-1,-1.196104661E-1
3.159610029E0,-5.099716783E-1,1.513656974E-1,-8.967807144E-2
3.161609829E0,-4.604915977E-1,1.678590477E-1,-6.218913570E-2
3.163609595E0,-4.427765310E-1,1.849632710E-1,-4.569577426E-2
3.165609361E0,-4.006268084E-1,2.173391432E-1,-1.820683852E-2
3.167609127E0,-3.835225701E-1,2.283346951E-1,-5.378668196E-3
3.169608893E0,-3.505358696E-1,2.472715229E-1,1.905594021E-2
3.171608726E0,-3.340425193E-1,2.539910376E-1,3.066238016E-2
3.173608559E0,-3.059426844E-1,2.503258586E-1,4.043622687E-2
3.175608325E0,-2.815080881E-1,2.338324934E-1,4.349055141E-2
3.177608091E0,-2.760102749E-1,2.258912474E-1,3.799276426E-2
3.179607857E0,-2.564626038E-1,2.106196135E-1,3.982535750E-2
3.181607557E0,-2.393583804E-1,2.069544196E-1,4.226882011E-2
3.183607323E0,-2.332497239E-1,2.100087553E-1,4.226882011E-2
3.185607089E0,-2.198106945E-1,2.173391432E-1,4.715574160E-2
3.187607322E0,-2.124803215E-1,2.185608745E-1,5.387526006E-2
3.189607055E0,-1.978195459E-1,2.130630761E-1,6.853602827E-2
3.191606788E0,-1.849913746E-1,1.996240318E-1,8.258593082E-2
3.193606521E0,-1.788827181E-1,1.867958605E-1,8.808371425E-2
3.195606254E0,-1.691088825E-1,1.782437563E-1,1.027444750E-1
3.197605987E0,-1.642219573E-1,1.770220399E-1,1.057988033E-1
3.199605720E0,-1.501720548E-1,1.788546294E-1,1.112965941E-1
3.201605453E0,-1.373438835E-1,1.800763607E-1,1.155726463E-1
3.203605253E0,-1.336786896E-1,1.849632710E-1,1.155726463E-1
3.205604986E0,-1.232939810E-1,1.953479946E-1,1.137400493E-1
3.207604719E0,-1.177961975E-1,2.051218301E-1,1.119074523E-1
3.209604452E0,-1.116875485E-1,2.319998890E-1,1.039662063E-1
3.211604185E0,-1.080223545E-1,2.594888210E-1,9.846842289E-2
3.213603918E0,-1.043571606E-1,2.723170221E-1,9.297063202E-2
3.215603651E0,-9.947024286E-2,2.936972976E-1,8.991631120E-2
3.217603384E0,-9.397245944E-2,3.004167974E-1,8.991631120E-2
3.219603184E0,-8.847466856E-2,3.150775731E-1,9.297063202E-2
3.221602917E0,-8.419860899E-2,3.309600949E-1,1.021336168E-1
3.223602650E0,-8.114428818E-2,3.401230574E-1,1.082422659E-1
3.225602383E0,-7.381390035E-2,3.401230574E-1,1.186269745E-1
3.227602116E0,-7.259216905E-2,3.181318939E-1,1.290116906E-1
3.229601849E0,-7.564649731E-2,3.089689314E-1,1.363420784E-1
3.231602082E0,-7.503563166E-2,2.869777977E-1,1.497810930E-1
3.233601815E0,-7.808995992E-2,2.808690965E-1,1.577223539E-1
3.235601615E0,-8.603120595E-2,2.710952759E-1,1.766591817E-1
3.237601348E0,-8.297688514E-2,2.564345002E-1,1.974285841E-1
3.239601081E0,-8.664207160E-2,2.478823960E-1,2.041481137E-1
3.241600847E0,-9.152898937E-2,2.387194186E-1,2.206414789E-1
3.243600580E0,-8.908553421E-2,2.387194186E-1,2.273609936E-1
3.245600313E0,-8.786380291E-2,2.362759560E-1,2.346913815E-1
3.247600046E0,-7.870081812E-2,2.289455682E-1,2.377457023E-1
3.249599846E0,-7.320303470E-2,2.289455682E-1,2.377457023E-1
3.251599646E0,-6.281832606E-2,2.460498065E-1,2.395782918E-1
3.253599379E0,-5.915313587E-2,2.594888210E-1,2.426326126E-1
3.255599112E0,-5.182275549E-2,3.046928644E-1,2.456869483E-1
3.257598845E0,-5.182275549E-2,3.389013112E-1,2.499630004E-1
3.259598578E0,-5.121188611E-2,3.572272658E-1,2.572934031E-1
3.261598344E0,-5.854227021E-2,3.828836083E-1,2.786736786E-1
3.263598077E0,-5.854227021E-2,3.828836083E-1,2.786736786E-1
3.265597877E0,-6.648351997E-2,4.024313092E-1,2.921127081E-1
3.267597610E0,-7.870081812E-2,4.219790101E-1,3.006648123E-1
3.269597343E0,-8.480948210E-2,4.286985099E-1,3.043300211E-1
3.271597076E0,-9.458331764E-2,4.451918602E-1,3.116604090E-1
3.273596809E0,-9.947024286E-2,4.537439942E-1,3.208233714E-1
3.275596542E0,-1.049680337E-1,4.598526359E-1,3.171581626E-1
3.277596275E0,-1.031354368E-1,4.574091733E-1,3.250994384E-1
3.279596008E0,-1.031354368E-1,4.610743821E-1,3.238776922E-1
3.281595774E0,-9.947024286E-2,4.696264863E-1,3.263211548E-1
3.283596674E0,-9.458331764E-2,4.794003367E-1,3.189907968E-1
3.285596407E0,-9.275072813E-2,4.842872620E-1,3.165473044E-1
3.287596140E0,-8.419860899E-2,5.013914704E-1,3.159364760E-1
3.289595873E0,-7.747909427E-2,5.105544329E-1,3.171581626E-1
3.291595106E0,-6.587264687E-2,5.343781710E-1,3.153255880E-1
3.293594839E0,-5.854227021E-2,5.551476479E-1,3.110495210E-1
3.295594572E0,-5.793140456E-2,5.679757595E-1,3.037191331E-1
3.297594372E0,-5.487708002E-2,5.942429900E-1,2.951670289E-1
3.299594105E0,-5.243361741E-2,6.076819897E-1,2.878366411E-1
3.301593871E0,-4.693583399E-2,6.321166158E-1,2.798953950E-1
3.303593604E0,-3.655112162E-2,6.541078091E-1,2.750084698E-1
3.305593337E0,-2.860987373E-2,6.712120175E-1,2.737867534E-1
3.307593070E0,-1.455997303E-2,7.035878897E-1,2.731758654E-1
3.309592803E0,-9.062185884E-3,7.182486653E-1,2.737867534E-1
3.311592536E0,6.820310373E-3,7.457375526E-1,2.762302160E-1
3.313592336E0,2.392453700E-2,7.689504623E-1,2.841714621E-1
3.315592069E0,3.186578676E-2,7.793351412E-1,2.866149247E-1
3.317591802E0,4.530481994E-2,7.976611257E-1,2.957778871E-1
3.319591535E0,4.652655125E-2,8.184305429E-1,3.049408793E-1
3.321591235E0,3.919616714E-2,8.337021470E-1,3.134929836E-1
3.323590535E0,3.430924565E-2,8.373673558E-1,3.208233714E-1
3.325590268E0,2.331367321E-2,8.398107886E-1,3.263211548E-1
3.327590068E0,4.987714812E-3,8.379781842E-1,3.373167515E-1
3.329589868E0,-1.883602887E-2,8.288152218E-1,3.501448929E-1
3.331589601E0,-2.616641298E-2,8.275935054E-1,3.580861390E-1
3.333589334E0,-3.838371485E-2,8.282043934E-1,3.678599894E-1
3.335588634E0,-4.388150573E-2,8.263717890E-1,3.709143400E-1
3.337588367E0,-5.243361741E-2,8.178196549E-1,3.776338398E-1
3.339588100E0,-5.426621065E-2,8.043805957E-1,3.922946155E-1
3.341587866E0,-5.243361741E-2,7.964394093E-1,3.941271901E-1
3.343586499E0,-4.388150573E-2,7.805568576E-1,4.008467197E-1
3.345586232E0,-4.571409896E-2,7.732264996E-1,4.032901824E-1
3.347585965E0,-3.594025970E-2,7.573440075E-1,4.075662196E-1
3.349585698E0,-2.250122093E-2,7.420724034E-1,4.112314284E-1
3.351585431E0,-1.517083868E-2,7.304659486E-1,4.112314284E-1
3.353585164E0,-1.731802942E-3,7.158051729E-1,4.100097120E-1
3.355584897E0,5.598579999E-3,7.041987181E-1,4.124531448E-1
3.357584630E0,1.903761551E-2,6.828184724E-1,4.185617864E-1
3.359584430E0,3.125492111E-2,6.687685251E-1,4.210052788E-1
3.361584163E0,3.553097695E-2,6.675468087E-1,4.265030622E-1
3.363583929E0,4.652655125E-2,6.626598835E-1,4.332225621E-1
3.365583695E0,5.202433839E-2,6.651033163E-1,4.362769127E-1
3.367583461E0,5.507866666E-2,6.663250923E-1,4.387203753E-1
3.369583227E0,6.057645008E-2,6.791532636E-1,4.381094873E-1
3.371582993E0,6.240904704E-2,6.822075844E-1,4.393312335E-1
3.373582759E0,6.851769984E-2,6.901488900E-1,4.411638081E-1
3.375582592E0,6.973943114E-2,6.883162260E-1,4.350551665E-1
3.377582458E0,6.851769984E-2,6.895379424E-1,4.320008457E-1
3.379582324E0,6.363078207E-2,6.870945096E-1,4.289465249E-1
3.381582224E0,6.485250592E-2,6.852619052E-1,4.228378534E-1
3.383581590E0,6.363078207E-2,6.858727932E-1,4.167292118E-1
3.385581456E0,5.813299119E-2,6.858727932E-1,4.191726744E-1
3.387581322E0,5.263520405E-2,6.907597184E-1,4.167292118E-1
3.389581188E0,4.102876410E-2,6.956465840E-1,4.216161370E-1
3.391581121E0,3.675270826E-2,6.950357556E-1,4.222269952E-1
3.393581054E0,2.514626645E-2,7.005335689E-1,4.234487414E-1
3.395581420E0,1.048550196E-2,6.987009048E-1,4.240595996E-1
3.397581353E0,8.042041212E-3,6.913705468E-1,4.265030622E-1
3.399581286E0,8.652906865E-3,6.724337339E-1,4.381094873E-1
3.401581186E0,2.148107812E-2,6.357818246E-1,4.478833377E-1
3.403581119E0,3.247664869E-2,6.192884445E-1,4.527702630E-1
3.405581119E0,4.774828255E-2,5.716409683E-1,4.472724795E-1
3.407581119E0,5.446780100E-2,5.557584763E-1,4.429964423E-1
3.409581085E0,6.607424468E-2,5.227717161E-1,4.313899875E-1
3.411581051E0,7.768067718E-2,4.910067618E-1,4.118422866E-1
3.413581017E0,8.317846805E-2,4.769568741E-1,3.953489363E-1
3.415580983E0,8.989799023E-2,4.482461810E-1,3.654165268E-1
3.417580949E0,9.111971408E-2,4.366397560E-1,3.483123183E-1
3.419580915E0,8.989799023E-2,4.250333309E-1,3.141038418E-1
3.421580948E0,8.440019935E-2,4.262550473E-1,2.670672238E-1
3.423580948E0,7.584808022E-2,4.238115847E-1,2.438543588E-1
3.425580914E0,6.668510288E-2,3.999878466E-1,1.943742633E-1
3.427580880E0,5.996558815E-2,3.847162127E-1,1.742157191E-1
3.429580846E0,4.530481994E-2,3.578381240E-1,1.345094740E-1
3.431580812E0,3.308751807E-2,3.334035277E-1,9.235977381E-2
3.433580778E0,2.392453700E-2,3.217971027E-1,7.220121473E-2
3.435580744E0,6.820310373E-3,2.998059392E-1,4.226882011E-2
3.437580677E0,3.765984206E-3,2.973624766E-1,3.066238016E-2
3.439580610E0,-9.062185884E-3,3.010276854E-1,7.449501660E-3
3.441580510E0,-1.211651228E-2,3.150775731E-1,-1.331991702E-2
3.443580943E0,-1.578170434E-2,3.260731399E-1,-2.431549132E-2
3.445959966E0,-2.189035527E-2,3.376795948E-1,-4.080885276E-2
3.447959899E0,-2.311208658E-2,3.462316990E-1,-4.630663991E-2
3.449959832E0,-2.189035527E-2,3.615033329E-1,-6.402172893E-2
3.451959765E0,-1.639256813E-2,3.700554371E-1,-8.356942236E-2
3.453959698E0,-1.578170434E-2,3.731097579E-1,-8.967807144E-2
3.455959564E0,-1.455997303E-2,3.737206459E-1,-9.823018312E-2
3.457959430E0,-1.394910831E-2,3.724988997E-1,-9.823018312E-2
3.459959296E0,-1.578170434E-2,3.670011163E-1,-9.823018312E-2
3.461959196E0,-1.333824266E-2,3.547838032E-1,-1.025062427E-1
3.463959062E0,-1.700343378E-2,3.407339156E-1,-1.006736457E-1
3.465958928E0,-6.618724670E-3,3.266840279E-1,-1.067823023E-1
3.467958794E0,-5.100724520E-4,3.040820062E-1,-1.049497053E-1
3.469958694E0,4.376849625E-3,2.912538052E-1,-1.043388397E-1
3.471958527E0,1.048550196E-2,2.753713429E-1,-1.018953770E-1
3.473958360E0,1.231809799E-2,2.613214552E-1,-1.049497053E-1
3.475958193E0,2.087021060E-2,2.491041273E-1,-1.061714292E-1
3.477958026E0,2.697886340E-2,2.350542247E-1,-1.104474887E-1
3.479957859E0,2.942232601E-2,2.271129787E-1,-1.141126752E-1
3.481957692E0,3.247664869E-2,2.246695310E-1,-1.183887422E-1
3.483957525E0,3.186578676E-2,2.179500014E-1,-1.202213392E-1
3.485957391E0,3.675270826E-2,2.106196135E-1,-1.275517195E-1
3.487957191E0,3.736357018E-2,2.069544196E-1,-1.385472864E-1
3.489956991E0,3.675270826E-2,2.093978822E-1,-1.440450698E-1
3.491956791E0,3.308751807E-2,2.100087553E-1,-1.556515247E-1
3.493956591E0,3.614184260E-2,2.087870240E-1,-1.562623829E-1
3.495956391E0,3.736357018E-2,2.045109719E-1,-1.568732411E-1
3.497956191E0,3.736357018E-2,2.008457780E-1,-1.593167186E-1
3.499955991E0,3.430924565E-2,1.965697110E-1,-1.617601812E-1
3.501955791E0,3.675270826E-2,1.825198233E-1,-1.623710394E-1
3.503955957E0,3.492011130E-2,1.605286747E-1,-1.532080472E-1
3.505955690E0,3.858530521E-2,1.531982869E-1,-1.507645994E-1
3.507955423E0,5.080260709E-2,1.281528026E-1,-1.373255551E-1
3.509955156E0,5.752212554E-2,1.141029075E-1,-1.281625777E-1
3.511954889E0,6.546337157E-2,9.150089324E-2,-1.183887422E-1
3.513954622E0,7.584808022E-2,7.317493111E-2,-1.092257649E-1
3.515954422E0,7.890241593E-2,6.095762923E-2,-1.031171083E-1
3.517954155E0,8.440019935E-2,3.224696591E-2,-9.700845182E-2
3.519953888E0,8.745452017E-2,2.125138976E-2,-9.639759362E-2
3.521953621E0,9.234144539E-2,-1.350622973E-3,-9.089980274E-2
3.523953354E0,9.417404234E-2,-3.128302097E-2,-9.151066840E-2
3.525953087E0,8.928711712E-2,-4.533291981E-2,-8.967807144E-2
3.527952820E0,8.562192321E-2,-7.954137772E-2,-8.723460883E-2
3.529952553E0,8.440019935E-2,-9.420213848E-2,-8.723460883E-2
3.531952353E0,7.829154283E-2,-1.192476153E-1,-7.868249714E-2
3.533952086E0,7.462634891E-2,-1.449039578E-1,-6.707605720E-2
3.535951819E0,7.462634891E-2,-1.540669352E-1,-6.096740812E-2
3.537951552E0,6.973943114E-2,-1.809450090E-1,-5.363702402E-2
3.539951285E0,6.912856549E-2,-1.943840384E-1,-5.119356140E-2
3.541951018E0,6.973943114E-2,-2.139317393E-1,-3.958712518E-2
3.543950751E0,6.851769984E-2,-2.316468209E-1,-3.408933803E-2
3.545950484E0,7.096116245E-2,-2.432532609E-1,-3.042414226E-2
3.547950284E0,7.523722202E-2,-2.615792155E-1,-2.126116492E-2
3.549950017E0,8.012413979E-2,-2.689096034E-1,-1.698510721E-2
3.551949750E0,8.073500544E-2,-2.707421780E-1,-1.393078268E-2
3.553949483E0,8.378932625E-2,-2.756291330E-1,-9.654724970E-3
3.555949216E0,8.134587109E-2,-2.725748122E-1,-7.211264223E-3
3.557948949E0,8.806539327E-2,-2.854029536E-1,-5.989533849E-3
3.559948682E0,8.989799023E-2,-2.866246998E-1,-4.156938288E-3
3.561948448E0,9.478490800E-2,-2.927333415E-1,-1.713476959E-3
3.563948248E0,9.478490800E-2,-2.970094085E-1,-3.546072636E-3
3.565947981E0,9.845009446E-2,-2.994528413E-1,-2.324342262E-3
3.567947714E0,9.600663930E-2,-3.006745875E-1,-3.546072636E-3
3.569947447E0,9.600663930E-2,-3.012854755E-1,1.191187184E-4
3.571947180E0,9.417404234E-2,-3.031180501E-1,1.340849209E-3
3.573946913E0,9.234144539E-2,-3.153353631E-1,8.060366847E-3
3.575946646E0,9.783923626E-2,-3.251091838E-1,1.111469232E-2
3.577946446E0,9.539576620E-2,-3.416025639E-1,1.539075002E-2
3.579946246E0,9.356317669E-2,-3.538198471E-1,2.272113226E-2
3.581945946E0,9.111971408E-2,-3.562633395E-1,2.272113226E-2
3.583945679E0,9.234144539E-2,-3.623719811E-1,2.882978506E-2
3.585945412E0,9.234144539E-2,-3.617611229E-1,3.127324581E-2
3.587945145E0,9.722836316E-2,-3.678697944E-1,3.616016731E-2
3.589944878E0,1.051696166E-1,-3.813087940E-1,4.349055141E-2
3.591944611E0,1.094456688E-1,-3.868065774E-1,4.898833856E-2
3.593944411E0,1.247173026E-1,-3.929152489E-1,5.937304720E-2
3.595944144E0,1.405997872E-1,-4.130737782E-1,7.647727430E-2
3.597943877E0,1.491519213E-1,-4.161280990E-1,8.319678903E-2
3.599943610E0,1.674778759E-1,-4.222368002E-1,1.033553481E-1
3.601943343E0,1.796951741E-1,-4.265128374E-1,1.235138997E-1
3.603943076E0,1.931342185E-1,-4.326214790E-1,1.369529217E-1
3.605942809E0,2.096275836E-1,-4.515583217E-1,1.687179208E-1
3.607942542E0,2.187905610E-1,-4.649973512E-1,1.870438904E-1
3.609942342E0,2.426142842E-1,-4.992057979E-1,2.212523371E-1
3.611942075E0,2.542207241E-1,-5.071470141E-1,2.353022248E-1
3.613941808E0,2.798770666E-1,-5.150883198E-1,2.548499405E-1
3.615941541E0,3.079768717E-1,-5.071470141E-1,2.627911568E-1
3.617941274E0,3.220267594E-1,-4.955406189E-1,2.609585822E-1
3.619941007E0,3.550134897E-1,-4.692734182E-1,2.078133076E-1
3.621940707E0,3.733394444E-1,-3.434351385E-1,7.953160256E-2
3.623940440E0,3.800590038E-1,-2.750182450E-1,2.211026847E-2
3.625940240E0,3.916653991E-1,-1.620081812E-1,-8.295855671E-2
3.627939973E0,3.983849287E-1,-1.241345331E-1,-1.361038387E-1
3.629939706E0,3.996066451E-1,-8.687175810E-2,-2.356748730E-1
3.631939439E0,3.977740705E-1,-8.381742984E-2,-2.796571553E-1
3.633939172E0,3.965523243E-1,-9.786733240E-2,-3.456306159E-1
3.635938905E0,3.941088915E-1,-1.174150184E-1,-3.871694207E-1
3.637938638E0,3.989957869E-1,-1.314649135E-1,-3.993867636E-1
3.639938371E0,4.069370329E-1,-1.552886665E-1,-4.146583974E-1
3.641938204E0,4.130456746E-1,-1.821667254E-1,-4.213778973E-1
3.643937937E0,4.185434878E-1,-1.925514340E-1,-4.232105017E-1
3.645937670E0,4.332042634E-1,-2.108773887E-1,-4.171018302E-1
3.647937403E0,4.387020171E-1,-2.145425826E-1,-4.189344347E-1
3.649937136E0,4.533627927E-1,-2.249273062E-1,-4.103823304E-1
3.651936869E0,4.759648144E-1,-2.334794104E-1,-3.975541592E-1
3.653936602E0,4.851278067E-1,-2.316468209E-1,-3.914454877E-1
3.655936402E0,5.065081120E-1,-2.438641191E-1,-3.670108914E-1
3.657936202E0,5.162819028E-1,-2.432532609E-1,-3.529610038E-1
3.659935935E0,5.260558128E-1,-2.365337312E-1,-3.266937733E-1
3.661935668E0,5.278883576E-1,-2.200403810E-1,-2.992048562E-1
3.663935401E0,5.223905444E-1,-2.114882618E-1,-2.882092893E-1
3.665935134E0,5.150601864E-1,-1.931623071E-1,-2.656072676E-1
3.667934867E0,5.095624328E-1,-1.888862401E-1,-2.503356338E-1
3.669934600E0,4.881821275E-1,-1.785015464E-1,-2.234575599E-1
3.671934400E0,4.558062851E-1,-1.797232777E-1,-1.978012174E-1
3.673934200E0,4.338151217E-1,-1.803341359E-1,-1.831404567E-1
3.675933933E0,3.880002201E-1,-1.809450090E-1,-1.599275768E-1
3.677933666E0,3.672308028E-1,-1.852210760E-1,-1.464885473E-1
3.679933399E0,3.238593638E-1,-1.968275011E-1,-1.275517195E-1
3.681933165E0,2.823205292E-1,-2.011035681E-1,-1.153344139E-1
3.683932898E0,2.627728581E-1,-2.011035681E-1,-1.073931679E-1
3.685932631E0,2.303969860E-1,-1.943840384E-1,-9.578672796E-2
3.687932431E0,2.114601731E-1,-1.894971132E-1,-9.151066840E-2
3.689932164E0,2.022971958E-1,-1.852210760E-1,-7.929336280E-2
3.691931897E0,1.833603680E-1,-1.839993298E-1,-7.135210931E-2
3.693931630E0,1.754191071E-1,-1.833884716E-1,-6.707605720E-2
3.695931363E0,1.595366150E-1,-1.846102029E-1,-5.424788594E-2
3.697931096E0,1.467084438E-1,-1.876645237E-1,-4.264144972E-2
3.699930829E0,1.436541229E-1,-1.907188445E-1,-3.470019996E-2
3.701930529E0,1.387671977E-1,-1.827775985E-1,-1.942856982E-2
3.703930329E0,1.357128769E-1,-1.803341359E-1,-1.209818665E-2
3.705930062E0,1.338802725E-1,-1.717820317E-1,-4.917465267E-4
3.707929795E0,1.375454664E-1,-1.491800100E-1,1.111469232E-2
3.709929528E0,1.393780708E-1,-1.424604952E-1,1.783421077E-2
3.711929261E0,1.412106603E-1,-1.161932871E-1,2.882978506E-2
3.713928994E0,1.448758543E-1,-1.033651233E-1,3.677103296E-2
3.715928727E0,1.546497047E-1,-6.976753473E-2,5.143180117E-2
3.717928460E0,1.686996073E-1,-4.960897937E-2,6.853602827E-2
3.719928260E0,1.741973907E-1,-3.983513266E-2,7.830987126E-2
3.721927960E0,1.864146888E-1,-1.478965860E-2,9.785755724E-2
3.723927693E0,1.937450767E-1,-1.288925705E-4,1.094639972E-1
3.725927426E0,1.992428601E-1,3.407955915E-2,1.326768845E-1
3.727927159E0,2.132927775E-1,6.645542383E-2,1.534462869E-1
3.729926892E0,2.206231505E-1,8.233791590E-2,1.613875479E-1
3.731926625E0,2.163470984E-1,1.189898327E-1,1.699396521E-1
3.733926358E0,2.145144939E-1,1.379266530E-1,1.705505252E-1
3.735926158E0,2.175688148E-1,1.379266530E-1,1.681070626E-1
3.737925891E0,2.139036208E-1,1.275419444E-1,1.589440703E-1
3.739925624E0,2.126819044E-1,1.147137731E-1,1.534462869E-1
3.741925357E0,2.010754496E-1,8.478137851E-2,1.461158991E-1
3.743925090E0,1.790843010E-1,5.057292059E-2,1.461158991E-1
3.745924823E0,1.674778759E-1,3.530129418E-2,1.491702497E-1
3.747924556E0,1.375454664E-1,6.590625271E-3,1.601658165E-1
3.749924356E0,1.186086535E-1,4.819726746E-4,1.662744582E-1
3.751924156E0,7.706981897E-2,-9.291871451E-3,1.815460920E-1
3.753923889E0,4.286135733E-2,-2.334177122E-2,1.992611885E-1
3.755923622E0,2.636799775E-2,-2.273090743E-2,2.023155242E-1
3.757923355E0,-6.007859483E-3,-1.723312028E-2,2.181980163E-1
3.759923088E0,-1.639256813E-2,-1.723312028E-2,2.249175310E-1
3.761922854E0,-3.594025970E-2,-1.478965860E-2,2.414108813E-1
3.763922587E0,-5.243361741E-2,-2.572353696E-3,2.554607987E-1
3.765922387E0,-6.037486717E-2,-7.397578447E-4,2.646237910E-1
3.767922120E0,-6.098573282E-2,-7.397578447E-4,2.750084698E-1
3.769921853E0,-6.037486717E-2,1.092837891E-3,2.780627906E-1
3.771921586E0,-5.609880760E-2,-7.397578447E-4,2.786736786E-1
3.773921319E0,-4.571409896E-2,-8.681006730E-3,2.768410742E-1
3.775921052E0,-4.204890877E-2,-1.662225276E-2,2.762302160E-1
3.777920785E0,-2.738814428E-2,-3.739167377E-2,2.701215446E-1
3.779920518E0,-1.883602887E-2,-5.205243826E-2,2.652346492E-1
3.781920351E0,-9.673050605E-3,-5.449590087E-2,2.627911568E-1
3.783921117E0,-5.100724520E-4,-5.388503149E-2,2.591259778E-1
3.785920850E0,8.652906865E-3,-5.693935975E-2,2.548499405E-1
3.787920583E0,1.964848116E-2,-5.693935975E-2,2.420217544E-1
3.789920316E0,3.064405359E-2,-6.610234082E-2,2.298044413E-1
3.791920049E0,3.308751807E-2,-7.770878077E-2,2.212523371E-1
3.793919782E0,4.225049540E-2,-7.954137772E-2,2.029263824E-1
3.795919248E0,4.469395429E-2,-7.465445250E-2,1.913199425E-1
3.797919048E0,5.263520405E-2,-5.144157261E-2,1.784917712E-1
3.799918781E0,5.630039424E-2,-1.051360089E-2,1.693287939E-1
3.801918514E0,6.057645008E-2,5.240551755E-2,1.650527418E-1
3.803918247E0,6.179818511E-2,8.050531894E-2,1.632201374E-1
3.805917980E0,6.057645008E-2,1.018856019E-1,1.632201374E-1
3.807917713E0,6.057645008E-2,1.452570409E-1,1.626092643E-1
3.809917446E0,5.385693535E-2,1.874067336E-1,1.650527418E-1
3.811917179E0,5.202433839E-2,2.075652927E-1,1.613875479E-1
3.813916979E0,3.858530521E-2,2.374976873E-1,1.644418687E-1
3.815916712E0,3.308751807E-2,2.466606647E-1,1.656636000E-1
3.817916445E0,1.720501855E-2,2.576562464E-1,1.711613983E-1
3.819916178E0,-1.731802942E-3,2.619323134E-1,1.742157191E-1
3.821915911E0,-1.272737700E-2,2.607105672E-1,1.699396521E-1
3.823915644E0,-4.021631181E-2,2.649866343E-1,1.632201374E-1
3.825915377E0,-5.670967326E-2,2.619323134E-1,1.607766747E-1
3.827915177E0,-8.908553421E-2,2.448280603E-1,1.528354287E-1
3.829914977E0,-1.263483167E-1,2.148956805E-1,1.491702497E-1
3.831914710E0,-1.465068609E-1,1.959588528E-1,1.467267722E-1
3.833914443E0,-1.880456954E-1,1.617503911E-1,1.473376453E-1
3.835914176E0,-2.369149178E-1,1.318179965E-1,1.497810930E-1
3.837913909E0,-2.576843202E-1,1.183789670E-1,1.485593766E-1
3.839913642E0,-3.028883636E-1,9.638781846E-2,1.479485035E-1
3.841913342E0,-3.193817437E-1,8.478137851E-2,1.522245705E-1
3.843912108E0,-3.474815488E-1,6.156849489E-2,1.497810930E-1
3.845911908E0,-3.645857573E-1,4.874032736E-2,1.510028392E-1
3.847911674E0,-3.743595779E-1,4.507513344E-2,1.491702497E-1
3.849911440E0,-3.816899657E-1,4.935119301E-2,1.479485035E-1
3.851911206E0,-3.859660327E-1,5.423811451E-2,1.479485035E-1
3.853910972E0,-3.951290250E-1,6.401195377E-2,1.455050558E-1
3.855911005E0,-4.061245918E-1,6.889887899E-2,1.473376453E-1
3.857910771E0,-4.140658677E-1,7.317493111E-2,1.485593766E-1
3.859910604E0,-4.299483299E-1,8.355964720E-2,1.497810930E-1
3.861910370E0,-4.415547848E-1,8.966829628E-2,1.528354287E-1
3.863910136E0,-4.482742846E-1,9.333349019E-2,1.534462869E-1
3.865909902E0,-4.537720978E-1,9.027916938E-2,1.516136974E-1
3.867909668E0,-4.562155604E-1,8.966829628E-2,1.516136974E-1
3.869909434E0,-4.556046724E-1,7.684012502E-2,1.479485035E-1
3.871909200E0,-4.556046724E-1,6.828802079E-2,1.436724514E-1
3.873908966E0,-4.568264186E-1,4.996205866E-2,1.473376453E-1
3.875908799E0,-4.592698812E-1,3.896648437E-2,1.540571600E-1
3.877908565E0,-4.598807395E-1,3.102523461E-2,1.589440703E-1
3.879908331E0,-4.586589932E-1,1.514273789E-2,1.668853313E-1
3.881908031E0,-4.574372768E-1,-1.961488277E-3,1.742157191E-1
3.883907797E0,-4.501068890E-1,-9.902737103E-3,1.815460920E-1
3.885907563E0,-4.403330386E-1,-2.395263687E-2,1.894873530E-1
3.887907329E0,-4.336135387E-1,-2.945042402E-2,1.907090694E-1
3.889907095E0,-4.165093005E-1,-3.861340508E-2,1.974285841E-1
3.891906928E0,-3.994050920E-1,-5.510676652E-2,1.992611885E-1
3.893906694E0,-3.890203536E-1,-6.304801255E-2,1.992611885E-1
3.895906460E0,-3.786356449E-1,-7.831963897E-2,2.023155242E-1
3.897906226E0,-3.688618243E-1,-8.870435506E-2,2.041481137E-1
3.899905992E0,-3.627531826E-1,-9.481300414E-2,2.096458972E-1
3.901905792E0,-3.627531826E-1,-9.053695202E-2,2.139219493E-1
3.903905125E0,-3.676400781E-1,-8.503916115E-2,2.133110911E-1
3.905905291E0,-3.823008537E-1,-7.587618381E-2,2.163654119E-1
3.907905091E0,-3.896312118E-1,-7.160013169E-2,2.175871432E-1
3.909904824E0,-4.122332335E-1,-6.854579598E-2,2.224740684E-1
3.911904557E0,-4.311700761E-1,-7.160013169E-2,2.267501205E-1
3.913904290E0,-4.415547848E-1,-6.854579598E-2,2.243066728E-1
3.915904023E0,-4.617133141E-1,-6.732406467E-2,2.200306058E-1
3.917903756E0,-4.696545601E-1,-6.488060951E-2,2.181980163E-1
3.919903489E0,-4.812610149E-1,-6.304801255E-2,2.181980163E-1
3.921903255E0,-4.837044775E-1,-5.755022541E-2,2.212523371E-1
3.923903321E0,-4.775958359E-1,-5.327416956E-2,2.224740684E-1
3.925903054E0,-4.635459185E-1,-3.616994247E-2,2.175871432E-1
3.927902787E0,-4.336135387E-1,-2.150917612E-2,2.084241658E-1
3.929902520E0,-4.213962257E-1,-1.540052425E-2,2.017046511E-1
3.931902253E0,-3.945181668E-1,-8.681006730E-3,1.870438904E-1
3.933901986E0,-3.792465329E-1,-9.902737103E-3,1.791026294E-1
3.935901719E0,-3.560336232E-1,-2.089831233E-2,1.681070626E-1
3.937901519E0,-3.334316313E-1,-2.639609762E-2,1.583332270E-1
3.939901252E0,-3.236577809E-1,-2.822869271E-2,1.552788913E-1
3.941901052E0,-2.986122966E-1,-4.533291981E-2,1.546680331E-1
3.943900785E0,-2.863950133E-1,-5.083070695E-2,1.546680331E-1
3.945900518E0,-2.570734918E-1,-6.915666163E-2,1.473376453E-1
3.947900251E0,-2.259193361E-1,-7.648704201E-2,1.387855262E-1
3.949899984E0,-2.094259858E-1,-8.076310903E-2,1.357312053E-1
3.951899717E0,-1.856022477E-1,-8.870435506E-2,1.338986009E-1
3.953899517E0,-1.648328304E-1,-9.481300414E-2,1.247356236E-1
3.955899250E0,-1.312352270E-1,-9.908906370E-2,1.180161163E-1
3.957898983E0,-1.061897576E-1,-9.420213848E-2,1.149617881E-1
3.959898716E0,-9.519418329E-2,-9.603473544E-2,1.137400493E-1
3.961898449E0,-8.297688514E-2,-9.298040718E-2,1.100748628E-1
3.963898615E0,-7.747909427E-2,-8.687175810E-2,1.137400493E-1
3.965897948E0,-7.931169122E-2,-7.893051207E-2,1.174052432E-1
3.967897681E0,-8.603120595E-2,-6.488060951E-2,1.161835194E-1
3.969897481E0,-8.725293726E-2,-5.693935975E-2,1.192378402E-1
3.971897214E0,-9.580505639E-2,-3.861340508E-2,1.229030341E-1
3.973896947E0,-1.049680337E-1,-1.417879295E-2,1.351203322E-1
3.975896680E0,-1.092440858E-1,-1.350622973E-3,1.442833096E-1
3.977896413E0,-1.104658172E-1,1.758619957E-2,1.510028392E-1
3.979896146E0,-1.061897576E-1,1.880793087E-2,1.565006226E-1
3.981895846E0,-9.641591460E-2,3.536299104E-3,1.711613983E-1
3.983895312E0,-9.397245944E-2,3.536299104E-3,1.815460920E-1
3.985895112E0,-9.397245944E-2,5.979759619E-3,1.833786964E-1
3.987894845E0,-8.725293726E-2,1.636447012E-2,1.919308007E-1
3.989894578E0,-8.358774334E-2,1.880793087E-2,1.955959946E-1
3.991894311E0,-7.564649731E-2,3.285783157E-2,1.919308007E-1
3.993894044E0,-6.098573282E-2,4.140994325E-2,1.858221591E-1
3.995893777E0,-5.609880760E-2,4.263167456E-2,1.821569651E-1
3.997893510E0,-4.204890877E-2,4.568599910E-2,1.736048460E-1
3.999893310E0,-3.410766274E-2,4.629686847E-2,1.699396521E-1
4.001893110E0,-2.005776018E-2,4.690773040E-2,1.656636000E-1
4.003892843E0,-7.840455510E-3,4.385340586E-2,1.613875479E-1
4.005892576E0,7.116579800E-4,4.690773040E-2,1.607766747E-1
4.007892309E0,1.659415476E-2,4.018821195E-2,1.491702497E-1
4.009892042E0,2.270280570E-2,3.652302176E-2,1.436724514E-1
4.011891775E0,3.797443956E-2,2.247312106E-2,1.284008175E-1
4.013891508E0,5.324606970E-2,1.392100845E-2,1.198487058E-1
4.015891308E0,6.118731573E-2,1.086668205E-2,1.216813028E-1
4.017891041E0,7.890241593E-2,-1.662225276E-2,1.717722416E-1
4.019890774E0,8.073500544E-2,-7.831963897E-2,1.619984061E-1
4.021890474E0,7.584808022E-2,-7.404358685E-2,1.375637949E-1
4.023890207E0,7.157202810E-2,-5.144157261E-2,9.113803506E-2
4.025889940E0,7.035029680E-2,-4.288946092E-2,7.769900560E-2
4.027889673E0,7.096116245E-2,-3.678080812E-2,6.975775957E-2
4.029889406E0,6.546337157E-2,-2.212004177E-2,7.342295349E-2
4.031889206E0,6.546337157E-2,-1.845484972E-2,7.342295349E-2
4.033888939E0,5.935472250E-2,-3.183218651E-3,7.281208038E-2
4.035888672E0,5.446780100E-2,1.092837891E-3,6.853602827E-2
4.037888405E0,4.713741690E-2,1.514273789E-2,6.548170000E-2
4.039888138E0,3.553097695E-2,3.285783157E-2,6.425996870E-2
4.041887938E0,2.087021060E-2,4.996205866E-2,6.242737174E-2
4.043888104E0,1.659415476E-2,5.851417035E-2,6.120564416E-2
4.045887837E0,1.598328911E-2,6.401195377E-2,6.059477478E-2
4.047887637E0,8.042041212E-3,8.355964720E-2,6.242737174E-2
4.049887370E0,3.765984206E-3,1.110485867E-1,6.242737174E-2
4.051887103E0,3.765984206E-3,1.244876161E-1,6.181650981E-2
4.053886836E0,-1.731802942E-3,1.422027200E-1,6.364910305E-2
4.055886569E0,-2.953533316E-3,1.501439512E-1,6.242737174E-2
4.057886302E0,-7.840455510E-3,1.666373163E-1,6.242737174E-2
4.059886035E0,-6.007859483E-3,1.666373163E-1,6.181650981E-2
4.061885735E0,-4.786129110E-3,1.690807790E-1,6.181650981E-2
4.063885535E0,-1.731802942E-3,1.758002937E-1,5.937304720E-2
4.065885268E0,-1.120937755E-3,1.794654876E-1,5.754045025E-2
4.067885001E0,1.933388528E-3,1.825198233E-1,5.570785701E-2
4.069884734E0,3.765984206E-3,1.996240318E-1,5.570785701E-2
4.071884467E0,4.376849625E-3,2.148956805E-1,5.754045025E-2
4.073884200E0,1.598328911E-2,2.307781726E-1,6.425996870E-2
4.075883933E0,2.270280570E-2,2.381085455E-1,5.754045025E-2
4.077883733E0,2.636799775E-2,2.387194186E-1,5.204266310E-2
4.079883533E0,3.125492111E-2,2.472715229E-1,4.715574160E-2
4.081883299E0,3.675270826E-2,2.704844177E-1,4.593401402E-2
4.083883032E0,3.980703279E-2,2.912538052E-1,4.715574160E-2
4.085882765E0,5.630039424E-2,3.327926695E-1,4.287968576E-2
4.087882498E0,6.485250592E-2,3.523403704E-1,3.677103296E-2
4.089882231E0,8.562192321E-2,3.877705336E-1,2.455372736E-2
4.091881964E0,9.722836316E-2,3.957117796E-1,1.722334512E-2
4.093881764E0,1.118891314E-1,4.054856300E-1,3.173444886E-3
4.095881564E0,1.259390265E-1,4.274767637E-1,-9.043859318E-3
4.097881297E0,1.344911456E-1,4.384723604E-1,-1.698510721E-2
4.099881030E0,1.558714360E-1,4.696264863E-1,-3.103500977E-2
4.101880730E0,1.680887341E-1,4.946719706E-1,-5.302615836E-2
4.103880030E0,1.766408533E-1,5.026131868E-1,-6.341086328E-2
4.105879763E0,1.919124722E-1,5.032240748E-1,-7.807163149E-2
4.107879496E0,1.986320019E-1,5.013914704E-1,-8.418028057E-2
4.109879296E0,2.077949792E-1,4.952827990E-1,-9.823018312E-2
4.111879029E0,2.175688148E-1,4.702373445E-1,-1.098366231E-1
4.113878762E0,2.187905610E-1,4.549657404E-1,-1.110583544E-1
4.115878495E0,2.248992026E-1,4.201464057E-1,-1.196104661E-1
4.117878228E0,2.261209190E-1,3.993769884E-1,-1.251082569E-1
4.119877961E0,2.242883444E-1,3.456208408E-1,-1.354929656E-1
4.121877727E0,2.230665982E-1,2.869777977E-1,-1.440450698E-1
4.123877460E0,2.194014192E-1,2.570453882E-1,-1.489320099E-1
4.125877260E0,2.145144939E-1,1.892393380E-1,-1.593167186E-1
4.127876993E0,2.120710313E-1,1.525874138E-1,-1.617601812E-1
4.129876726E0,2.120710313E-1,7.012061030E-2,-1.648145020E-1
4.131876459E0,2.084058374E-1,-6.237545051E-3,-1.611493081E-1
4.133876192E0,2.096275836E-1,-3.922427073E-2,-1.629818976E-1
4.135875925E0,2.120710313E-1,-1.027542576E-1,-1.599275768E-1
4.137875658E0,2.132927775E-1,-1.296323240E-1,-1.574841142E-1
4.139875391E0,2.108493000E-1,-1.748363525E-1,-1.544297934E-1
4.141875157E0,2.090167105E-1,-2.114882618E-1,-1.550406516E-1
4.143874890E0,2.108493000E-1,-2.279816270E-1,-1.556515247E-1
4.145874623E0,2.071841061E-1,-2.530271113E-1,-1.574841142E-1
4.147874356E0,2.077949792E-1,-2.701313198E-1,-1.568732411E-1
4.149874089E0,2.096275836E-1,-3.135027885E-1,-1.489320099E-1
4.151873822E0,2.194014192E-1,-3.617611229E-1,-1.348820925E-1
4.153873555E0,2.279535234E-1,-3.874174356E-1,-1.244973913E-1
4.155873288E0,2.444468886E-1,-4.417844415E-1,-9.884104878E-2
4.157873088E0,2.639945745E-1,-4.857667685E-1,-7.013038546E-2
4.159872821E0,2.749901414E-1,-5.077579021E-1,-5.302615836E-2
4.161872587E0,3.049225509E-1,-5.492967367E-1,-2.935207682E-3
4.163873620E0,3.049225509E-1,-5.492967367E-1,-2.935207682E-3
4.165873353E0,3.201941848E-1,-5.664010048E-1,2.333199792E-2
4.167873086E0,3.324114978E-1,-5.682336092E-1,3.188411146E-2
4.169872819E0,3.385201395E-1,-5.657901168E-1,2.638632432E-2
4.171872619E0,3.342440724E-1,-4.888210893E-1,-7.440643758E-2
4.173872419E0,3.171398640E-1,-4.271236956E-1,-1.092257649E-1
4.175872152E0,2.945378423E-1,-3.312178552E-1,-1.721448749E-1
4.177871885E0,2.737684250E-1,-2.304250896E-1,-2.466704398E-1
4.179871618E0,2.682706416E-1,-1.931623071E-1,-2.766028345E-1
4.181871284E0,2.615511119E-1,-1.198584810E-1,-3.126438856E-1
4.183871017E0,2.621619999E-1,-8.137396723E-2,-3.297480941E-1
4.185870750E0,2.609402537E-1,-5.571762845E-2,-3.700652122E-1
4.187870550E0,2.591076791E-1,-6.793493778E-2,-3.987758756E-1
4.189870283E0,2.597185373E-1,-7.648704201E-2,-4.061062634E-1
4.191870016E0,2.701032460E-1,-9.664560109E-2,-4.146583974E-1
4.193869749E0,2.743793130E-1,-1.082520410E-1,-4.146583974E-1
4.195869482E0,2.859857082E-1,-1.149715558E-1,-4.164909720E-1
4.197869215E0,2.939269841E-1,-1.235236749E-1,-4.177127182E-1
4.199868948E0,2.957595885E-1,-1.223019436E-1,-4.189344347E-1
4.201868681E0,3.000356257E-1,-1.247453988E-1,-4.262648225E-1
4.203868481E0,3.159181178E-1,-1.021433845E-1,-4.299300313E-1
4.205868214E0,3.256919682E-1,-8.748262376E-2,-4.342060983E-1
4.207867947E0,3.427962065E-1,-7.160013169E-2,-4.409255981E-1
4.209867680E0,3.501265943E-1,-6.304801255E-2,-4.378712773E-1
4.211867413E0,3.544026613E-1,-7.709791511E-2,-4.299300313E-1
4.213867146E0,3.562352359E-1,-1.119172275E-1,-4.177127182E-1
4.215866879E0,3.568460941E-1,-1.259671301E-1,-4.109931886E-1
4.217866612E0,3.617330194E-1,-1.442930847E-1,-3.938889802E-1
4.219866412E0,3.629547358E-1,-1.461256891E-1,-3.877803087E-1
4.221866145E0,3.739503026E-1,-1.595647335E-1,-3.798390627E-1
4.223864578E0,3.922762871E-1,-1.589538604E-1,-3.706761003E-1
4.225864311E0,3.965523243E-1,-1.546777934E-1,-3.664000332E-1
4.227864044E0,4.154891670E-1,-1.552886665E-1,-3.645674586E-1
4.229863777E0,4.209869504E-1,-1.595647335E-1,-3.651782870E-1
4.231863510E0,4.362585843E-1,-1.687277108E-1,-3.615130782E-1
4.233863243E0,4.435889721E-1,-1.925514340E-1,-3.633457124E-1
4.235863043E0,4.454215765E-1,-2.096556723E-1,-3.602913916E-1
4.237862776E0,4.417563677E-1,-2.438641191E-1,-3.462414742E-1
4.239862509E0,4.338151217E-1,-2.640226781E-1,-3.383002281E-1
4.241862275E0,4.215978086E-1,-3.073941171E-1,-3.187525272E-1
4.243861575E0,4.051044583E-1,-3.532090187E-1,-3.004265726E-1
4.245861308E0,3.941088915E-1,-3.733675480E-1,-2.924853265E-1
4.247861041E0,3.782263696E-1,-3.996347785E-1,-2.753811181E-1
4.249860841E0,3.684525490E-1,-4.344540834E-1,-2.594985962E-1
4.251860641E0,3.666199446E-1,-4.533908963E-1,-2.533899546E-1
4.253860407E0,3.684525490E-1,-4.790472388E-1,-2.338422686E-1
4.255860173E0,3.666199446E-1,-4.937080145E-1,-2.252901644E-1
4.257859939E0,3.696742654E-1,-5.169209242E-1,-2.002446800E-1
4.259859705E0,3.739503026E-1,-5.181426406E-1,-1.660362184E-1
4.261859505E0,3.696742654E-1,-5.053144693E-1,-1.440450698E-1
4.263858571E0,3.525700271E-1,-4.436170757E-1,-1.043388397E-1
4.265858404E0,3.391309977E-1,-4.032999575E-1,-8.540201932E-2
4.267858170E0,3.043116629E-1,-3.031180501E-1,-5.730221421E-2
4.269857870E0,2.597185373E-1,-2.041578889E-1,-3.653279319E-2
4.271857636E0,2.395599633E-1,-1.638407707E-1,-3.164587542E-2
