"Time (s)","Gyroscope x (rad/s)","Gyroscope y (rad/s)","Gyroscope z (rad/s)"
1.845718700E-2,3.290984333E-1,1.585319042E0,-5.598905962E-3
2.095906200E-2,-1.641165614E-1,1.357352972E0,-2.442169040E-1
2.346099000E-2,-4.464095533E-1,1.530991077E0,-2.197159082E-1
2.596291700E-2,-4.847595394E-1,1.647104025E0,-2.197159082E-1
2.846484400E-2,-5.380225778E-1,1.718477011E0,-2.282378972E-1
3.096677100E-2,-5.699805617E-1,1.784523010E0,-2.346298993E-1
3.346869800E-2,-5.689145923E-1,1.835654974E0,-2.356949002E-1
3.597062500E-2,-5.444135666E-1,1.874005079E0,-2.293028980E-1
3.847255200E-2,-5.028685927E-1,1.899571061E0,-2.154549062E-1
4.097447900E-2,-4.432145655E-1,1.918745995E0,-1.984108984E-1
4.347640600E-2,-3.782335520E-1,1.923007011E0,-1.749749035E-1
4.597833300E-2,-3.057955503E-1,1.913419008E0,-1.547349095E-1
4.847697900E-2,-2.322925627E-1,1.884657025E0,-1.387559026E-1
5.097890600E-2,-1.481375694E-1,1.847373009E0,-1.163859069E-1
5.348083300E-2,-6.930755824E-2,1.810088992E0,-8.655890077E-2
5.598276000E-2,1.165043749E-2,1.762152076E0,-4.927390814E-2
5.848468700E-2,9.154544026E-2,1.704627991E0,-1.092490647E-2
6.098661500E-2,1.671784371E-1,1.643908024E0,3.168409318E-2
6.348854200E-2,2.449424267E-1,1.583189011E0,7.109909505E-2
6.599046900E-2,3.152494431E-1,1.525665045E0,1.083830968E-1
6.849239600E-2,3.887524605E-1,1.473466992E0,1.467320919E-1
7.099432300E-2,4.697124362E-1,1.436182976E0,1.754940897E-1
7.349625000E-2,5.549334288E-1,1.401028991E0,2.010610998E-1
7.599817700E-2,6.454803944E-1,1.370136976E0,2.234310955E-1
7.846583300E-2,7.466804385E-1,1.338178992E0,2.458020896E-1
8.096781200E-2,8.500103951E-1,1.312613010E0,2.585850954E-1
8.346968700E-2,9.533404112E-1,1.283851027E0,2.649760842E-1
8.597166700E-2,1.060931444E0,1.252958059E0,2.649760842E-1
8.847354200E-2,1.167457461E0,1.218870044E0,2.575190961E-1
9.097546900E-2,1.269722462E0,1.174129009E0,2.458020896E-1
9.347739600E-2,1.364531398E0,1.116605043E0,2.351491004E-1
9.597932300E-2,1.455078363E0,1.058014989E0,2.287570983E-1
9.848125000E-2,1.532842398E0,9.909040332E-1,2.287570983E-1
1.009831770E-1,1.597823381E0,9.237930179E-1,2.308880985E-1
1.034851040E-1,1.648955464E0,8.620080352E-1,2.287570983E-1
1.059870310E-1,1.685174465E0,7.991570234E-1,2.266270965E-1
1.085109900E-1,1.706479430E0,7.501550317E-1,2.170400918E-1
1.110129170E-1,1.711805463E0,7.171320319E-1,1.978650987E-1
1.135148440E-1,1.709675431E0,7.022190094E-1,1.712331027E-1
1.160167710E-1,1.692631364E0,6.990230083E-1,1.414060891E-1
1.185186980E-1,1.672391415E0,6.947620511E-1,1.147750989E-1
1.210206250E-1,1.641498446E0,6.936970353E-1,8.388209343E-2
1.235225520E-1,1.602084398E0,7.011530399E-1,5.938109383E-2
1.260244790E-1,1.559473395E0,7.224590182E-1,4.020609334E-2
1.285264060E-1,1.516863465E0,7.416329980E-1,1.996609382E-2
1.310283330E-1,1.463600397E0,7.565470338E-1,-1.337906346E-3
1.335302600E-1,1.405010462E0,7.714599967E-1,-2.477290481E-2
1.360321870E-1,1.351747394E0,7.810479999E-1,-4.714390635E-2
1.385210420E-1,1.296354413E0,7.821130157E-1,-6.951390207E-2
1.410229170E-1,1.247352362E0,7.767870426E-1,-8.442790061E-2
1.435248440E-1,1.194089413E0,7.831780314E-1,-9.081990272E-2
1.460268230E-1,1.151479363E0,7.885050178E-1,-8.655890077E-2
1.485286980E-1,1.126978397E0,7.799830437E-1,-7.803590596E-2
1.510306250E-1,1.106738448E0,7.693300247E-1,-5.886190757E-2
1.535325520E-1,1.089693427E0,7.608080506E-1,-2.796890587E-2
1.560344790E-1,1.081171393E0,7.480250001E-1,1.037909370E-2
1.585364060E-1,1.077976465E0,7.299150229E-1,5.299009383E-2
1.610383330E-1,1.079041362E0,7.139360309E-1,1.009260938E-1
1.635402600E-1,1.077976465E0,6.958270073E-1,1.499280930E-1
1.660421870E-1,1.075845361E0,6.734570265E-1,1.989300996E-1
1.685852080E-1,1.079041362E0,6.457599998E-1,2.383451015E-1
1.710871350E-1,1.079041362E0,6.191280484E-1,2.798900902E-1
1.735890620E-1,1.069454432E0,5.903660059E-1,3.288920820E-1
1.760909900E-1,1.053475380E0,5.520170331E-1,3.800240755E-1
1.785929170E-1,1.041757464E0,5.126020312E-1,4.300920665E-1
1.810948440E-1,1.036430359E0,4.731879830E-1,4.748320878E-1
1.835967710E-1,1.030039430E0,4.390989840E-1,5.003991127E-1
1.860986980E-1,1.023647428E0,4.177939892E-1,5.259650946E-1
1.886006250E-1,1.020452380E0,4.039459825E-1,5.451400876E-1
1.911025520E-1,1.021517396E0,3.986189961E-1,5.579231381E-1
1.936044790E-1,1.020452380E0,3.986189961E-1,5.643141270E-1
1.961064060E-1,1.023647428E0,3.964889944E-1,5.675101280E-1
1.986092710E-1,1.027908444E0,3.826409876E-1,5.632491112E-1
2.011111980E-1,1.033235431E0,3.666619956E-1,5.536621213E-1
2.036131250E-1,1.039626360E0,3.624010086E-1,5.462051034E-1
2.061150520E-1,1.052409410E0,3.538790047E-1,5.291610956E-1
2.086169790E-1,1.074780464E0,3.474870026E-1,5.057250857E-1
2.111189060E-1,1.089693427E0,3.655959964E-1,4.833550751E-1
2.136208330E-1,1.095020413E0,4.060759842E-1,4.652450681E-1
2.161227600E-1,1.098216414E0,4.422949851E-1,4.471360743E-1
2.186246870E-1,1.104607463E0,4.753179848E-1,4.268960953E-1
2.211266150E-1,1.105672359E0,5.115370154E-1,4.077210724E-1
2.236285420E-1,1.103542447E0,5.456250310E-1,3.842850924E-1
2.261304690E-1,1.106738448E0,5.807790160E-1,3.683060706E-1
2.286273960E-1,1.101411462E0,6.084760427E-1,3.491320908E-1
2.311293230E-1,1.099281430E0,6.372380257E-1,3.331530690E-1
2.336312500E-1,1.096085429E0,6.585430503E-1,3.161090910E-1
2.361331770E-1,1.091824412E0,6.851740479E-1,3.011950850E-1
2.386351040E-1,1.088628411E0,7.181970477E-1,2.894770801E-1
2.411370310E-1,1.080106378E0,7.544160485E-1,2.809550762E-1
2.436389580E-1,1.070519447E0,7.970270514E-1,2.713680863E-1
2.461408850E-1,1.059866428E0,8.449630141E-1,2.628460824E-1
2.486428120E-1,1.046018362E0,8.886390328E-1,2.564540803E-1
2.511447400E-1,1.035365462E0,9.280540347E-1,2.511280775E-1
2.536466670E-1,1.025778413E0,9.642730355E-1,2.468670905E-1
2.561485420E-1,1.015125394E0,9.898390174E-1,2.436710894E-1
2.586547920E-1,1.004473448E0,1.009013057E0,2.458020896E-1
2.611567190E-1,9.895594120E-1,1.024991989E0,2.468670905E-1
2.636586460E-1,9.789063931E-1,1.034579992E0,2.500630915E-1
2.661605730E-1,9.703844190E-1,1.028187990E0,2.500630915E-1
2.686625000E-1,9.629284143E-1,1.024991989E0,2.521930933E-1
2.711644270E-1,9.554713964E-1,1.039906025E0,2.564540803E-1
2.736663540E-1,9.384273887E-1,1.055885077E0,2.671070695E-1
2.761682810E-1,9.235134125E-1,1.055885077E0,2.820200920E-1
2.786702080E-1,9.054043889E-1,1.046298027E0,2.990650833E-1
2.811721350E-1,8.883594275E-1,1.022862077E0,3.139780760E-1
2.836740620E-1,8.723804355E-1,9.898390174E-1,3.246310949E-1
2.861759900E-1,8.638584018E-1,9.536200166E-1,3.299570680E-1
2.886922400E-1,8.489454389E-1,9.120750427E-1,3.352830708E-1
2.911941670E-1,8.350964189E-1,8.577470183E-1,3.438050747E-1
2.936960940E-1,8.180524111E-1,7.948960066E-1,3.555230796E-1
2.961980210E-1,7.956824303E-1,7.373720407E-1,3.757630885E-1
2.986999480E-1,7.583984137E-1,6.798480153E-1,3.981340826E-1
3.012018750E-1,7.264404297E-1,6.148670316E-1,4.130470753E-1
3.037038020E-1,6.955474019E-1,5.445600152E-1,4.205040932E-1
3.062057290E-1,6.678513885E-1,4.806450009E-1,4.332870841E-1
3.087076560E-1,6.486763954E-1,4.231199920E-1,4.513970912E-1
3.112095830E-1,6.305664182E-1,3.783800006E-1,4.673760831E-1
3.137114580E-1,6.199144125E-1,3.378999829E-1,4.833550751E-1
3.162134370E-1,6.060653925E-1,2.931590080E-1,5.025290847E-1
3.187092190E-1,5.943484306E-1,2.473530024E-1,5.142471194E-1
3.212111460E-1,5.794343948E-1,2.090030015E-1,5.238341093E-1
3.237130730E-1,5.655863881E-1,1.738499999E-1,5.323570967E-1
3.262150000E-1,5.538684130E-1,1.440219879E-1,5.398131013E-1
3.287169270E-1,5.442804098E-1,1.205869988E-1,5.430091023E-1
3.312188540E-1,5.368244052E-1,1.109990031E-1,5.408791304E-1
3.337207290E-1,5.346934199E-1,1.046079993E-1,5.387480855E-1
3.362227080E-1,5.378894210E-1,1.024769992E-1,5.355520844E-1
3.387246350E-1,5.517374277E-1,1.056730002E-1,5.291610956E-1
3.412265620E-1,5.804994106E-1,1.078040004E-1,5.174431205E-1
3.437284900E-1,6.231104136E-1,1.109990031E-1,5.003991127E-1
3.462304170E-1,6.689164042E-1,1.205869988E-1,4.854850769E-1
3.487085940E-1,7.147223949E-1,1.333699971E-1,4.684410691E-1
3.512104690E-1,7.498764396E-1,1.472179890E-1,4.450050890E-1
3.537123960E-1,7.669203877E-1,1.706539989E-1,4.247650802E-1
3.562143750E-1,7.615934014E-1,2.036769986E-1,4.013300836E-1
3.587162500E-1,7.424194217E-1,2.420260012E-1,3.778940737E-1
3.612181770E-1,7.072654366E-1,2.793099880E-1,3.608500957E-1
3.637201040E-1,6.625244021E-1,3.155289888E-1,3.427400887E-1
3.662220310E-1,6.145884395E-1,3.453559875E-1,3.267610669E-1
3.687239580E-1,5.709124207E-1,3.698569834E-1,3.139780760E-1
3.712258850E-1,5.336284041E-1,3.869020045E-1,3.001300693E-1
3.737278120E-1,5.038003922E-1,3.996849954E-1,2.916080952E-1
3.762297400E-1,4.867564440E-1,4.071419835E-1,2.841510773E-1
3.787620310E-1,4.782344401E-1,4.092719853E-1,2.777590752E-1
3.812639580E-1,4.846264422E-1,4.082069993E-1,2.777590752E-1
3.837658850E-1,4.984744489E-1,4.018149972E-1,2.766940892E-1
3.862678120E-1,5.112574100E-1,3.943580091E-1,2.766940892E-1
3.887697400E-1,5.240404010E-1,3.869020045E-1,2.809550762E-1
3.912716670E-1,5.325633883E-1,3.773140013E-1,2.852160931E-1
3.937735420E-1,5.410854220E-1,3.613350093E-1,2.948040664E-1
3.962755210E-1,5.421504378E-1,3.453559875E-1,3.022600710E-1
3.987774480E-1,5.389544368E-1,3.315079808E-1,3.139780760E-1
4.012793750E-1,5.336284041E-1,3.133989871E-1,3.235660791E-1
4.037813020E-1,5.272364020E-1,2.899630070E-1,3.427400887E-1
4.062832290E-1,5.176494122E-1,2.601360083E-1,3.597840667E-1
4.087607290E-1,5.165843964E-1,2.271129936E-1,3.778940737E-1
4.112626040E-1,5.176494122E-1,1.919589937E-1,4.023950696E-1
4.137645310E-1,5.208454132E-1,1.546749920E-1,4.247650802E-1
4.162665100E-1,5.283014178E-1,1.195209995E-1,4.439400733E-1
4.187683850E-1,5.368244052E-1,8.330300450E-2,4.673760831E-1
4.212703120E-1,5.506724119E-1,5.134499818E-2,4.886810780E-1
4.237722400E-1,5.623904467E-1,2.364800125E-2,5.067901015E-1
4.262741670E-1,5.773034096E-1,2.342999913E-3,5.217041373E-1
4.287760940E-1,5.868914127E-1,-1.257000025E-2,5.355520844E-1
4.312780210E-1,6.007394195E-1,-1.683099940E-2,5.462051034E-1
4.337799480E-1,6.103264093E-1,-2.322199941E-2,5.547271371E-1
4.362818750E-1,6.199144125E-1,-1.896099932E-2,5.568571091E-1
4.388259370E-1,6.305664182E-1,-8.309000172E-3,5.536621213E-1
4.413278650E-1,6.316323876E-1,1.406099927E-2,5.504661202E-1
4.438297920E-1,6.316323876E-1,4.388799891E-2,5.398131013E-1
4.463317190E-1,6.348274350E-1,8.117200434E-2,5.312911272E-1
4.488336460E-1,6.337624192E-1,1.141950041E-1,5.206391215E-1
4.513355730E-1,6.273714304E-1,1.504139900E-1,5.099861026E-1
4.538374480E-1,6.220444441E-1,1.919589937E-1,4.972030818E-1
4.563394270E-1,6.188493967E-1,2.292429954E-1,4.865500927E-1
4.588413540E-1,6.156533957E-1,2.675929964E-1,4.780280888E-1
4.613432810E-1,6.145884395E-1,2.995499969E-1,4.737670720E-1
4.638452080E-1,6.113924384E-1,3.208560050E-1,4.695060849E-1
4.663471350E-1,6.103264093E-1,3.357689977E-1,4.673760831E-1
4.688222920E-1,6.135224104E-1,3.442910016E-1,4.684410691E-1
4.713242710E-1,6.145884395E-1,3.474870026E-1,4.758980870E-1
4.738261460E-1,6.199144125E-1,3.453559875E-1,4.833550751E-1
4.763281250E-1,6.231104136E-1,3.400299847E-1,4.929420948E-1
4.788300000E-1,6.241754293E-1,3.336389959E-1,5.067901015E-1
4.813319270E-1,6.263054013E-1,3.293780088E-1,5.217041373E-1
4.838338540E-1,6.295014024E-1,3.219209909E-1,5.344871283E-1
4.863357810E-1,6.305664182E-1,3.112680018E-1,5.494011045E-1
4.888377080E-1,6.348274350E-1,3.038109839E-1,5.664451122E-1
4.913396350E-1,6.337624192E-1,2.963550091E-1,5.813581347E-1
4.938415620E-1,6.316323876E-1,2.888979912E-1,5.930761099E-1
4.963434900E-1,6.316323876E-1,2.899630070E-1,6.058591008E-1
4.988412500E-1,6.252404451E-1,2.931590080E-1,6.175771356E-1
5.013431770E-1,6.188493967E-1,2.952890098E-1,6.282300949E-1
5.038451040E-1,6.028704047E-1,3.016809821E-1,6.367521286E-1
5.063470310E-1,5.879564285E-1,3.123329878E-1,6.431441307E-1
5.088489060E-1,5.698474050E-1,3.219209909E-1,6.495351195E-1
5.113508330E-1,5.485414267E-1,3.315079808E-1,6.569921374E-1
5.138527600E-1,5.314974189E-1,3.410950005E-1,6.612530947E-1
5.163546870E-1,5.176494122E-1,3.485519886E-1,6.676450968E-1
5.188566150E-1,5.048664212E-1,3.517479897E-1,6.697751284E-1
5.213585420E-1,4.963444471E-1,3.538790047E-1,6.697751284E-1
5.238604690E-1,4.878224432E-1,3.549439907E-1,6.644490957E-1
5.263623960E-1,4.814304411E-1,3.549439907E-1,6.623181105E-1
5.288689060E-1,4.793004394E-1,3.570739925E-1,6.559271216E-1
5.313708850E-1,4.771694541E-1,3.506830037E-1,6.452741027E-1
5.338728120E-1,4.761044383E-1,3.453559875E-1,6.378170848E-1
5.363747400E-1,4.739734530E-1,3.432259858E-1,6.292951107E-1
5.388766670E-1,4.729084373E-1,3.421609998E-1,6.165121198E-1
5.413785940E-1,4.750384390E-1,3.400299847E-1,6.058591008E-1
5.438805730E-1,4.739734530E-1,3.368339837E-1,5.941421390E-1
5.463825000E-1,4.782344401E-1,3.357689977E-1,5.834891200E-1
5.488844270E-1,4.729084373E-1,3.378999829E-1,5.696411133E-1
5.513864060E-1,4.633214474E-1,3.432259858E-1,5.568571091E-1
5.538883330E-1,4.516034424E-1,3.421609998E-1,5.451400876E-1
5.563903120E-1,4.366894364E-1,3.378999829E-1,5.344871283E-1
5.589313020E-1,4.164494574E-1,3.357689977E-1,5.227690935E-1
5.614332810E-1,3.940794468E-1,3.304429948E-1,5.099861026E-1
5.639352080E-1,3.685124516E-1,3.219209909E-1,5.003991127E-1
5.664371350E-1,3.440114558E-1,3.155289888E-1,4.886810780E-1
5.689391150E-1,3.184454441E-1,3.070069849E-1,4.780280888E-1
5.714410420E-1,2.918144464E-1,2.942239940E-1,4.705710709E-1
5.739429690E-1,2.673134506E-1,2.825059891E-1,4.609840810E-1
5.764449480E-1,2.428124249E-1,2.750490010E-1,4.524620771E-1
5.789468750E-1,2.193764299E-1,2.729189992E-1,4.482010901E-1
5.814488020E-1,1.970064342E-1,2.675929964E-1,4.407440722E-1
5.839507810E-1,1.757004261E-1,2.643969953E-1,4.354180694E-1
5.864527080E-1,1.565264314E-1,2.665269971E-1,4.322220683E-1
5.889217710E-1,1.426774263E-1,2.665269971E-1,4.322220683E-1
5.914237500E-1,1.266984344E-1,2.675929964E-1,4.332870841E-1
5.939256770E-1,1.117854416E-1,2.675929964E-1,4.268960953E-1
5.964276040E-1,9.900243580E-2,2.707879841E-1,4.258310795E-1
5.989295310E-1,8.941444010E-2,2.697229981E-1,4.226350784E-1
6.014314580E-1,8.515343815E-2,2.686579823E-1,4.173080921E-1
6.039334370E-1,7.663144171E-2,2.718539834E-1,4.141130745E-1
6.064353650E-1,7.130543888E-2,2.707879841E-1,4.055910707E-1
6.089372920E-1,6.278344244E-2,2.654619813E-1,3.960030675E-1
6.114392710E-1,5.745743588E-2,2.697229981E-1,3.842850924E-1
6.139412500E-1,5.426143482E-2,2.686579823E-1,3.746980727E-1
6.164431250E-1,4.786943644E-2,2.675929964E-1,3.651110828E-1
6.189870830E-1,3.828243539E-2,2.633309960E-1,3.544580936E-1
6.214890620E-1,3.082543798E-2,2.569400072E-1,3.374140859E-1
6.239909900E-1,1.804243773E-2,2.548089921E-1,3.225000799E-1
6.264929170E-1,9.984376375E-4,2.505480051E-1,3.086520731E-1
6.289948960E-1,-1.924056187E-2,2.473530024E-1,2.958690822E-1
6.314968230E-1,-4.800256342E-2,2.366999984E-1,2.777590752E-1
6.339987500E-1,-8.741755784E-2,2.271129936E-1,2.649760842E-1
6.365007290E-1,-1.364195645E-1,2.132639885E-1,2.532580793E-1
6.390026560E-1,-1.886175722E-1,1.962199956E-1,2.415411025E-1
6.415046350E-1,-2.461415678E-1,1.813059896E-1,2.276920974E-1
6.440065620E-1,-3.068605661E-1,1.642619967E-1,2.117130905E-1
6.465084900E-1,-3.675805628E-1,1.461529881E-1,1.904080957E-1
6.490121870E-1,-4.229745567E-1,1.344349980E-1,1.605810970E-1
6.515141670E-1,-4.741065502E-1,1.269779950E-1,1.286230981E-1
6.540160940E-1,-5.252395868E-1,1.237820014E-1,9.027409554E-2
6.565180210E-1,-5.742415786E-1,1.237820014E-1,5.192409083E-2
6.590200000E-1,-6.253736019E-1,1.205869988E-1,8.249093778E-3
6.615219270E-1,-6.797015667E-1,1.152600050E-1,-3.649090603E-2
6.640238540E-1,-7.297695875E-1,1.088690013E-1,-8.336290717E-2
6.665258330E-1,-7.830325961E-1,9.502000362E-2,-1.291688979E-1
6.690277600E-1,-8.437516093E-1,7.904100418E-2,-1.739099026E-1
6.715296870E-1,-9.002105594E-1,6.519300491E-2,-2.239769101E-1
6.740316670E-1,-9.577345848E-1,5.134499818E-2,-2.729789317E-1
6.765335940E-1,-1.014193535E0,3.110500053E-2,-3.219809234E-1
6.790410940E-1,-1.070652604E0,9.800000116E-3,-3.731139302E-1
6.815430730E-1,-1.135633588E0,-1.257000025E-2,-4.221149087E-1
6.840450000E-1,-1.199548602E0,-3.813600168E-2,-4.700519145E-1
6.865469270E-1,-1.265594602E0,-7.115899771E-2,-5.190538764E-1
6.890489060E-1,-1.330575585E0,-1.052479967E-1,-5.605989099E-1
6.915508330E-1,-1.397687554E0,-1.382710040E-1,-6.042748690E-1
6.940527600E-1,-1.466929555E0,-1.808810085E-1,-6.426239014E-1
6.965547400E-1,-1.535105586E0,-2.320130020E-1,-6.820389032E-1
6.990566670E-1,-1.605412602E0,-2.927330136E-1,-7.235838771E-1
7.015585940E-1,-1.675719619E0,-3.609099984E-1,-7.651289105E-1
7.040605730E-1,-1.744961619E0,-4.386740029E-1,-8.024128675E-1
7.065625000E-1,-1.816334605E0,-5.153729916E-1,-8.386318684E-1
7.090290620E-1,-1.889837623E0,-5.952669978E-1,-8.737859130E-1
7.115309900E-1,-1.962274551E0,-6.740959883E-1,-9.014818668E-1
7.140329170E-1,-2.034712553E0,-7.507949471E-1,-9.334399104E-1
7.165348960E-1,-2.109280348E0,-8.264289498E-1,-9.547448754E-1
7.190368230E-1,-2.181718349E0,-9.041929841E-1,-9.717898965E-1
7.215388020E-1,-2.257351398E0,-9.745000005E-1,-9.877688885E-1
7.240407290E-1,-2.329789400E0,-1.041610956E0,-1.001616955E0
7.265426560E-1,-2.395835400E0,-1.100199938E0,-1.008008003E0
7.290446350E-1,-2.446968555E0,-1.149201989E0,-1.008008003E0
7.315465620E-1,-2.492774487E0,-1.186486006E0,-1.014400005E0
7.340484900E-1,-2.527927399E0,-1.217378974E0,-1.014400005E0
7.365504170E-1,-2.563081503E0,-1.238683939E0,-1.016530991E0
7.390932810E-1,-2.599300385E0,-1.248270988E0,-1.017596006E0
7.415952600E-1,-2.640845537E0,-1.245075941E0,-1.012269974E0
7.440971870E-1,-2.691978455E0,-1.225901008E0,-1.011204004E0
7.465991150E-1,-2.743110418E0,-1.208856940E0,-1.011204004E0
7.491010940E-1,-2.802765369E0,-1.198203921E0,-1.011204004E0
7.516030210E-1,-2.864550352E0,-1.176898956E0,-1.010138988E0
7.541050000E-1,-2.921008348E0,-1.143875957E0,-1.009073973E0
7.566069270E-1,-2.976402521E0,-1.097005010E0,-1.011204004E0
7.591088540E-1,-3.030730486E0,-1.038414955E0,-1.015464902E0
7.616107810E-1,-3.081863403E0,-9.713039994E-1,-1.021856904E0
7.641127600E-1,-3.121277571E0,-8.999309540E-1,-1.041031957E0
7.666146870E-1,-3.141517401E0,-8.456029892E-1,-1.069793940E0
7.691190100E-1,-3.144713402E0,-7.838179469E-1,-1.107077956E0
7.716209900E-1,-3.141517401E0,-6.879449487E-1,-1.127317905E0
7.741229170E-1,-3.140452385E0,-5.760920048E-1,-1.112403989E0
7.766248440E-1,-3.134060383E0,-4.738270044E-1,-1.081510901E0
7.791268230E-1,-3.112755537E0,-4.088470042E-1,-1.057009935E0
7.816287500E-1,-3.066949368E0,-3.534530103E-1,-1.044227004E0
7.841307290E-1,-3.004099369E0,-3.023210168E-1,-1.036769986E0
7.866326560E-1,-2.928465366E0,-2.533189952E-1,-1.016530991E0
7.891345830E-1,-2.847505569E0,-2.075120062E-1,-9.824419022E-1
7.916365100E-1,-2.759089470E0,-1.659670025E-1,-9.323748946E-1
7.941384900E-1,-2.672803402E0,-1.382710040E-1,-8.801769018E-1
7.966404170E-1,-2.589713573E0,-1.116390005E-1,-8.269138932E-1
7.991475000E-1,-2.502361536E0,-8.181199431E-2,-7.800428867E-1
8.016494790E-1,-2.424597502E0,-5.091900006E-2,-7.416929007E-1
8.041514060E-1,-2.348964453E0,-1.576599851E-2,-7.139968872E-1
8.066533330E-1,-2.277591467E0,2.790900134E-2,-6.980178952E-1
8.091553120E-1,-2.209415436E0,8.117200434E-2,-6.894958615E-1
8.116572400E-1,-2.151891470E0,1.354999989E-1,-6.958869100E-1
8.141591670E-1,-2.103954554E0,1.898289919E-1,-7.129309177E-1
8.166611460E-1,-2.054952383E0,2.345689982E-1,-7.480849028E-1
8.191630730E-1,-2.008081436E0,2.686579823E-1,-7.843039036E-1
8.216650000E-1,-1.965470552E0,3.006159961E-1,-8.258488774E-1
8.241669790E-1,-1.930317640E0,3.304429948E-1,-8.748508692E-1
8.266689060E-1,-1.902620554E0,3.602699935E-1,-9.206568599E-1
8.291341150E-1,-1.885576606E0,3.911629915E-1,-9.685938954E-1
8.316360420E-1,-1.877054572E0,4.273819923E-1,-1.008008003E0
8.341380210E-1,-1.877054572E0,4.678609967E-1,-1.036769986E0
8.366399480E-1,-1.881315589E0,5.008839965E-1,-1.054879904E0
8.391418750E-1,-1.891967535E0,5.232550502E-1,-1.063401937E0
8.416438540E-1,-1.900489569E0,5.349730253E-1,-1.070858955E0
8.441457810E-1,-1.907946587E0,5.328420401E-1,-1.080446005E0
8.466477080E-1,-1.910077572E0,5.221900344E-1,-1.088967919E0
8.491496870E-1,-1.914338589E0,4.998189807E-1,-1.103881955E0
8.516516150E-1,-1.911142588E0,4.625349939E-1,-1.124121904E0
8.541535420E-1,-1.904750586E0,4.060759842E-1,-1.147557974E0
8.566555210E-1,-1.890902638E0,3.283120096E-1,-1.168862939E0
8.591977080E-1,-1.875988603E0,2.345689982E-1,-1.184841990E0
8.616996870E-1,-1.856814623E0,1.333699971E-1,-1.191232920E0
8.642016150E-1,-1.834443569E0,2.258300036E-2,-1.192297935E0
8.667035420E-1,-1.814203620E0,-8.181199431E-2,-1.180580974E0
8.692055210E-1,-1.798224568E0,-1.734240055E-1,-1.163535953E0
8.717074480E-1,-1.784376621E0,-2.661020160E-1,-1.141165972E0
8.742093750E-1,-1.770528555E0,-3.587790132E-1,-1.115599990E0
8.767113540E-1,-1.751353621E0,-4.525220096E-1,-1.084706903E0
8.792132810E-1,-1.733244538E0,-5.388079882E-1,-1.052748919E0
8.817152080E-1,-1.714069605E0,-6.261599660E-1,-1.010138988E0
8.842171870E-1,-1.693829536E0,-7.007279992E-1,-9.696589112E-1
8.867191670E-1,-1.672524571E0,-7.635779977E-1,-9.238528609E-1
8.892260940E-1,-1.651219606E0,-8.125799894E-1,-8.716548681E-1
8.917280730E-1,-1.629913568E0,-8.498639464E-1,-8.173269033E-1
8.942300000E-1,-1.607543588E0,-8.818219900E-1,-7.661938667E-1
8.967319270E-1,-1.584107637E0,-9.159099460E-1,-7.214539051E-1
8.992339060E-1,-1.555345535E0,-9.478679895E-1,-6.777778864E-1
9.017358330E-1,-1.525518537E0,-9.776949883E-1,-6.245148778E-1
9.042377600E-1,-1.487168550E0,-1.020305991E0,-5.552728772E-1
9.067397400E-1,-1.442428589E0,-1.072503924E0,-4.902919233E-1
9.092416670E-1,-1.403013587E0,-1.115113974E0,-4.306379259E-1
9.117436460E-1,-1.368925571E0,-1.147071958E0,-3.731139302E-1
9.142455730E-1,-1.340163589E0,-1.166245937E0,-3.145239055E-1
9.167475520E-1,-1.314596534E0,-1.181159973E0,-2.548699081E-1
9.192566670E-1,-1.289030552E0,-1.192878008E0,-2.154549062E-1
9.217585940E-1,-1.262399554E0,-1.199270010E0,-1.984108984E-1
9.242605210E-1,-1.236832619E0,-1.188616991E0,-1.973458976E-1
9.267624480E-1,-1.204875588E0,-1.171572924E0,-2.037369013E-1
9.292644270E-1,-1.167590618E0,-1.143875957E0,-2.101289034E-1
9.317663540E-1,-1.129241586E0,-1.109787941E0,-2.133249044E-1
9.342682810E-1,-1.090892553E0,-1.067176938E0,-2.165199071E-1
9.367702600E-1,-1.048281550E0,-1.020305991E0,-2.250419110E-1
9.392721870E-1,-1.008867621E0,-9.883479476E-1,-2.367599010E-1
9.417741150E-1,-9.694525599E-1,-9.649119973E-1,-2.506089211E-1
9.442760940E-1,-9.289726019E-1,-9.489329457E-1,-2.761749327E-1
9.467780210E-1,-8.938195705E-1,-9.350849986E-1,-2.985449135E-1
9.492784900E-1,-8.586655855E-1,-9.212369919E-1,-3.209159076E-1
9.517804690E-1,-8.245775700E-1,-9.052579999E-1,-3.486129045E-1
9.542823960E-1,-7.926195860E-1,-8.892789483E-1,-3.763089180E-1
9.567843750E-1,-7.681185603E-1,-8.690389991E-1,-4.029409289E-1
9.592863020E-1,-7.414866090E-1,-8.466679454E-1,-4.295719266E-1
9.617882290E-1,-7.212475538E-1,-8.285589814E-1,-4.530079067E-1
9.642902080E-1,-6.956805587E-1,-8.115149736E-1,-4.721829295E-1
9.667921350E-1,-6.775715947E-1,-8.029929996E-1,-4.913569093E-1
9.692940620E-1,-6.583966017E-1,-7.955359817E-1,-5.073359013E-1
9.717960420E-1,-6.392225623E-1,-7.859489918E-1,-5.190538764E-1
9.742979690E-1,-6.232435703E-1,-7.870139480E-1,-5.350328684E-1
9.767998960E-1,-6.051335931E-1,-7.912749648E-1,-5.456858873E-1
9.792693750E-1,-5.880895853E-1,-7.955359817E-1,-5.574029088E-1
9.817713540E-1,-5.678495765E-1,-7.912749648E-1,-5.669909120E-1
9.842732810E-1,-5.422835946E-1,-7.859489918E-1,-5.680558681E-1
9.867752080E-1,-5.177825689E-1,-7.827529907E-1,-5.723168850E-1
9.892771350E-1,-4.858245552E-1,-7.795569897E-1,-5.733819008E-1
9.917790620E-1,-4.549325407E-1,-7.816879749E-1,-5.712518692E-1
9.942810420E-1,-4.208435416E-1,-7.838179469E-1,-5.723168850E-1
9.967829690E-1,-3.856905401E-1,-7.731660008E-1,-5.669909120E-1
9.992848960E-1,-3.462755382E-1,-7.625129819E-1,-5.574029088E-1
1.001786875E0,-3.047305644E-1,-7.550559640E-1,-5.424898863E-1
1.004288802E0,-2.663815618E-1,-7.518599629E-1,-5.222498775E-1
1.006790729E0,-2.184445709E-1,-7.571869493E-1,-4.924229085E-1
1.009295729E0,-1.737035662E-1,-7.710349560E-1,-4.636609256E-1
1.011797656E0,-1.278975606E-1,-7.891439795E-1,-4.285069108E-1
1.014299583E0,-8.528655767E-2,-8.072539568E-1,-3.954839110E-1
1.016801562E0,-4.054556414E-2,-8.200369477E-1,-3.603299260E-1
1.019303490E0,7.389437407E-3,-8.370809555E-1,-3.219809234E-1
1.021805469E0,5.213043466E-2,-8.487989902E-1,-2.815009058E-1
1.024307396E0,9.793643653E-2,-8.647779822E-1,-2.410209030E-1
1.026809375E0,1.394824386E-1,-8.754299879E-1,-2.016068995E-1
1.029311250E0,1.820924282E-1,-8.818219900E-1,-1.600619107E-1
1.031813229E0,2.236374319E-1,-8.860829473E-1,-1.195819005E-1
1.034315208E0,2.651824355E-1,-8.786259890E-1,-8.336290717E-2
1.036817083E0,3.077934384E-1,-8.637129664E-1,-4.927390814E-2
1.039322240E0,3.482734561E-1,-8.381459713E-1,-1.944690570E-2
1.041824271E0,3.898184597E-1,-8.051229715E-1,8.249093778E-3
1.044326250E0,4.324284494E-1,-7.646429539E-1,3.701109067E-2
1.046828229E0,4.739734530E-1,-7.209679484E-1,6.044609100E-2
1.049330208E0,5.155184269E-1,-6.740959883E-1,7.855609804E-2
1.051832240E0,5.613254309E-1,-6.165719628E-1,9.560009837E-2
1.054334271E0,6.060653925E-1,-5.579829812E-1,1.137090996E-1
1.056836250E0,6.465454102E-1,-5.036549568E-1,1.264920980E-1
1.059338229E0,6.870254278E-1,-4.493260086E-1,1.360801011E-1
1.061840208E0,7.275054455E-1,-3.971289992E-1,1.456670910E-1
1.064342240E0,7.658544183E-1,-3.523879945E-1,1.531240940E-1
1.066844219E0,8.031393886E-1,-3.055160046E-1,1.584500968E-1
1.069348490E0,8.382924199E-1,-2.661020160E-1,1.616460979E-1
1.071850469E0,8.766413927E-1,-2.256219983E-1,1.680381000E-1
1.074352500E0,9.117954373E-1,-1.883380115E-1,1.669721007E-1
1.076854479E0,9.458833933E-1,-1.542489976E-1,1.680381000E-1
1.079356458E0,9.810374379E-1,-1.265529990E-1,1.680381000E-1
1.081858490E0,1.008734465E0,-9.992099553E-2,1.669721007E-1
1.084360469E0,1.039626360E0,-7.968099415E-2,1.733641028E-1
1.086862500E0,1.066258430E0,-5.944100022E-2,1.754940897E-1
1.089364479E0,1.088628411E0,-4.026700184E-2,1.808210909E-1
1.091866458E0,1.115260363E0,-2.428799868E-2,1.904080957E-1
1.094368490E0,1.136565447E0,-8.309000172E-3,1.946690977E-1
1.096870521E0,1.150413394E0,1.277999952E-3,1.989300996E-1
1.099375990E0,1.170653462E0,1.406099927E-2,2.053221017E-1
1.101878021E0,1.186632395E0,2.151700109E-2,2.117130905E-1
1.104380000E0,1.197285414E0,3.004000150E-2,2.202350944E-1
1.106881979E0,1.210068464E0,4.175699875E-2,2.330181003E-1
1.109383958E0,1.218590379E0,5.454099923E-2,2.458020896E-1
1.111885990E0,1.228177428E0,6.625800580E-2,2.607150674E-1
1.114388021E0,1.243091464E0,7.478000224E-2,2.777590752E-1
1.116890000E0,1.251613379E0,8.117200434E-2,2.990650833E-1
1.119391979E0,1.260135412E0,8.543299884E-2,3.182390928E-1
1.121893958E0,1.268657446E0,8.862899989E-2,3.363490701E-1
1.124395990E0,1.280375361E0,8.969400078E-2,3.555230796E-1
1.126897969E0,1.293158412E0,9.502000362E-2,3.757630885E-1
1.129427031E0,1.305941463E0,9.608600289E-2,3.938730955E-1
1.131929010E0,1.315529466E0,9.289000183E-2,4.162430763E-1
1.134431042E0,1.326181412E0,8.543299884E-2,4.386140704E-1
1.136933073E0,1.342160463E0,7.478000224E-2,4.588540792E-1
1.139435052E0,1.357074380E0,5.880199745E-2,4.769630730E-1
1.141937031E0,1.370922446E0,4.495299980E-2,4.972030818E-1
1.144439010E0,1.391162395E0,3.004000150E-2,5.163781047E-1
1.146941042E0,1.411402464E0,1.725600101E-2,5.312911272E-1
1.149443021E0,1.433772445E0,1.277999952E-3,5.419440866E-1
1.151945052E0,1.457208395E0,-1.363500021E-2,5.504661202E-1
1.154447031E0,1.478513360E0,-2.748399973E-2,5.568571091E-1
1.156949010E0,1.499819398E0,-4.133200273E-2,5.579231381E-1
1.159469167E0,1.522189379E0,-5.198500305E-2,5.579231381E-1
1.161971198E0,1.542429447E0,-6.476799399E-2,5.579231381E-1
1.164473177E0,1.557343364E0,-7.755099982E-2,5.547271371E-1
1.166975156E0,1.574387431E0,-8.926899731E-2,5.536621213E-1
1.169477187E0,1.583974361E0,-1.031169966E-1,5.515311360E-1
1.171979167E0,1.586105466E0,-1.169649959E-1,5.408791304E-1
1.174481198E0,1.585039377E0,-1.308140010E-1,5.206391215E-1
1.176983229E0,1.576517463E0,-1.382710040E-1,5.014641285E-1
1.179485208E0,1.564799428E0,-1.585109979E-1,4.854850769E-1
1.181987187E0,1.539233446E0,-1.947290003E-1,4.780280888E-1
1.184489219E0,1.504080415E0,-2.394700050E-1,4.695060849E-1
1.186991198E0,1.460404396E0,-2.852759957E-1,4.577880800E-1
1.189457760E0,1.405010462E0,-3.268220127E-1,4.450050890E-1
1.191959740E0,1.341095448E0,-3.609099984E-1,4.311570823E-1
1.194461771E0,1.263331413E0,-3.875409961E-1,4.151780903E-1
1.196963750E0,1.179175377E0,-4.163030088E-1,3.981340826E-1
1.199465729E0,1.087563396E0,-4.440000057E-1,3.778940737E-1
1.201967760E0,9.842334390E-1,-4.621100128E-1,3.533930779E-1
1.204469740E0,8.766413927E-1,-4.663709998E-1,3.225000799E-1
1.206971771E0,7.679854035E-1,-4.621100128E-1,2.830860913E-1
1.209473750E0,6.625244021E-1,-4.418700039E-1,2.415411025E-1
1.211975729E0,5.570634007E-1,-4.035200179E-1,1.925390959E-1
1.214477760E0,4.526684582E-1,-3.481270075E-1,1.350151002E-1
1.216979792E0,3.567954600E-1,-2.863419950E-1,7.429509610E-2
1.219485000E0,2.619864345E-1,-2.234909981E-1,8.249093778E-3
1.221986979E0,1.629174352E-1,-1.574449986E-1,-5.140490830E-2
1.224489010E0,7.024043798E-2,-9.459500015E-2,-1.131899059E-1
1.226990990E0,-2.030556276E-2,-3.920100257E-2,-1.728449017E-1
1.229492969E0,-1.033965573E-1,2.342999913E-3,-2.324988991E-1
1.231995000E0,-1.843555719E-1,2.258300036E-2,-2.900229096E-1
1.234496979E0,-2.642505467E-1,3.004000150E-2,-3.400899172E-1
1.236999010E0,-3.452105522E-1,1.938700117E-2,-3.827009201E-1
1.239500990E0,-4.272355437E-1,-8.309000172E-3,-4.231809080E-1
1.242002969E0,-5.113905668E-1,-4.452800006E-2,-4.530079067E-1
1.244505000E0,-5.934155583E-1,-8.394199610E-2,-4.764439166E-1
1.247006979E0,-6.807675958E-1,-1.276179999E-1,-4.881619215E-1
1.249546927E0,-7.659875751E-1,-1.691630036E-1,-4.934879243E-1
1.252048958E0,-8.501436114E-1,-2.149690092E-1,-4.934879243E-1
1.254550937E0,-9.289726019E-1,-2.661020160E-1,-4.881619215E-1
1.257052969E0,-1.003540635E0,-3.108429909E-1,-4.775089324E-1
1.259554948E0,-1.075978637E0,-3.481270075E-1,-4.636609256E-1
1.262056927E0,-1.140959620E0,-3.790189922E-1,-4.455509186E-1
1.264558958E0,-1.193157554E0,-4.109770060E-1,-4.231809080E-1
1.267060937E0,-1.236832619E0,-4.450649917E-1,-4.029409289E-1
1.269562917E0,-1.273051620E0,-4.748930037E-1,-3.795049191E-1
1.272064948E0,-1.297552586E0,-5.047199726E-1,-3.454169333E-1
1.274566979E0,-1.308205605E0,-5.366779566E-1,-3.081329167E-1
1.277068958E0,-1.315662622E0,-5.792879462E-1,-2.676529288E-1
1.279523750E0,-1.307140589E0,-6.250939965E-1,-2.261079103E-1
1.282025781E0,-1.285834551E0,-6.804879904E-1,-1.792359054E-1
1.284527760E0,-1.253877640E0,-7.422729731E-1,-1.312988997E-1
1.287029740E0,-1.213397622E0,-8.040579557E-1,-8.442790061E-2
1.289531771E0,-1.156938553E0,-8.605169654E-1,-4.181790724E-2
1.292033750E0,-1.080239534E0,-9.052579999E-1,-9.859906510E-3
1.294535781E0,-9.854316115E-1,-9.372159839E-1,2.422709391E-2
1.297037760E0,-8.746445775E-1,-9.531939626E-1,6.577309966E-2
1.299539792E0,-7.532045841E-1,-9.627819657E-1,1.062530950E-1
1.302041771E0,-6.136555672E-1,-9.659779668E-1,1.446020901E-1
1.304543750E0,-4.634545445E-1,-9.649119973E-1,1.840160936E-1
1.307045781E0,-3.036655486E-1,-9.617169499E-1,2.340840995E-1
1.309602396E0,-1.321585625E-1,-9.755649567E-1,3.065210879E-1
1.312104427E0,4.147843644E-2,-1.003261924E0,3.949380815E-1
1.314606458E0,2.076584250E-1,-1.022436023E0,4.929420948E-1
1.317108437E0,3.557294607E-1,-1.013913989E0,6.047940850E-1
1.319610469E0,4.835614562E-1,-9.851519465E-1,7.134510875E-1
1.322112396E0,5.911524296E-1,-9.031269550E-1,7.933450937E-1
1.324614427E0,6.753073931E-1,-7.614479661E-1,8.327600956E-1
1.327116406E0,7.349624038E-1,-5.686360002E-1,8.338251114E-1
1.329618437E0,7.658544183E-1,-3.641059995E-1,8.050631285E-1
1.332120417E0,7.541373968E-1,-1.680980027E-1,7.581921220E-1
1.334622396E0,7.051354051E-1,1.406099927E-2,7.134510875E-1
1.337124427E0,6.273714304E-1,1.781110018E-1,6.719061136E-1
1.339593021E0,5.314974189E-1,3.336389959E-1,6.367521286E-1
1.342095000E0,4.313634336E-1,4.795790017E-1,6.111860871E-1
1.344597031E0,3.280334473E-1,6.095409989E-1,5.866851211E-1
1.347099010E0,2.438774258E-1,7.032840252E-1,5.504661202E-1
1.349601042E0,1.746354252E-1,7.735910416E-1,5.089210868E-1
1.352103021E0,1.181764379E-1,8.343110085E-1,4.609840810E-1
1.354605000E0,7.024043798E-2,9.003570080E-1,4.023950696E-1
1.357107031E0,2.123843692E-2,9.791859984E-1,3.406100869E-1
1.359609010E0,-4.054556414E-2,1.070798993E0,2.766940892E-1
1.362110990E0,-1.129835621E-1,1.166671991E0,2.053221017E-1
1.364613021E0,-2.003345639E-1,1.256154060E0,1.243620962E-1
1.367115000E0,-2.844905555E-1,1.352027059E0,3.168409318E-2
1.369655573E0,-3.537325561E-1,1.472401977E0,-6.205790862E-2
1.372157604E0,-4.069955647E-1,1.616212010E0,-1.440829039E-1
1.374659583E0,-4.442795515E-1,1.766412973E0,-2.111939043E-1
1.377161615E0,-4.559975564E-1,1.921941042E0,-2.676529288E-1
1.379663594E0,-4.442795515E-1,2.068946838E0,-3.006759286E-1
1.382165625E0,-4.101915658E-1,2.190387011E0,-3.166549206E-1
1.384667604E0,-3.579935431E-1,2.289455891E0,-3.187849224E-1
1.387169583E0,-2.834255397E-1,2.361893892E0,-3.134589195E-1
1.389671615E0,-1.992695630E-1,2.405568838E0,-3.081329167E-1
1.392173594E0,-1.044615582E-1,2.423678875E0,-3.017409146E-1
1.394675573E0,-1.131562516E-3,2.414090872E0,-2.942839265E-1
1.397177604E0,1.000674367E-1,2.378937960E0,-2.772399187E-1
1.399644271E0,1.959404349E-1,2.311825991E0,-2.591309249E-1
1.402146250E0,2.811614573E-1,2.214887857E0,-2.335639000E-1
1.404648281E0,3.557294607E-1,2.094512939E0,-1.973458976E-1
1.407150260E0,4.228414595E-1,1.954964042E0,-1.526049078E-1
1.409652240E0,4.782344401E-1,1.799435973E0,-1.025369018E-1
1.412154271E0,5.283014178E-1,1.640712976E0,-4.501290619E-2
1.414656250E0,5.794343948E-1,1.480924010E0,2.103209496E-2
1.417158281E0,6.316323876E-1,1.332853079E0,8.814309537E-2
1.419660312E0,6.785033941E-1,1.200760007E0,1.520590931E-1
1.422162240E0,7.328314185E-1,1.084647059E0,2.127790898E-1
1.424664271E0,7.924864292E-1,9.951650500E-1,2.671070695E-1
1.427166250E0,8.585324287E-1,9.291190505E-1,3.033260703E-1
1.429708073E0,9.373614192E-1,8.875740170E-1,3.246310949E-1
1.432210104E0,1.027908444E0,8.715950251E-1,3.363490701E-1
1.434712083E0,1.125912428E0,8.715950251E-1,3.352830708E-1
1.437214115E0,1.228177428E0,8.865090013E-1,3.246310949E-1
1.439716146E0,1.335769415E0,9.142050147E-1,3.043910861E-1
1.442218125E0,1.443360448E0,9.610770345E-1,2.820200920E-1
1.444720104E0,1.545625448E0,1.017536044E0,2.532580793E-1
1.447222083E0,1.638302445E0,1.066537976E0,2.223660946E-1
1.449724115E0,1.722458363E0,1.109148026E0,1.904080957E-1
1.452226094E0,1.794896364E0,1.140040040E0,1.722991019E-1
1.454728073E0,1.850289464E0,1.163475990E0,1.520590931E-1
1.457230104E0,1.889704466E0,1.174129009E0,1.339491010E-1
1.459701094E0,1.903552413E0,1.176259041E0,1.201010942E-1
1.462203073E0,1.902487397E0,1.160279989E0,1.105140969E-1
1.464705104E0,1.882247448E0,1.128323078E0,9.133909643E-2
1.467207083E0,1.850289464E0,1.089972973E0,7.322909683E-2
1.469709062E0,1.808744431E0,1.048428059E0,5.192409083E-2
1.472211094E0,1.756546378E0,1.009013057E0,2.103209496E-2
1.474713073E0,1.704349399E0,9.845120311E-1,-1.412090659E-2
1.477215104E0,1.657477379E0,9.578810334E-1,-5.353590846E-2
1.479717083E0,1.612736464E0,9.355110526E-1,-9.508090466E-2
1.482219062E0,1.569060445E0,9.195320010E-1,-1.344949007E-1
1.484721094E0,1.532842398E0,9.024870396E-1,-1.707139015E-1
1.487223073E0,1.501949430E0,8.811820149E-1,-1.952148974E-1
1.489712708E0,1.466796398E0,8.556160331E-1,-2.058679014E-1
1.492214740E0,1.432707429E0,8.321800232E-1,-2.069329023E-1
1.494716719E0,1.397554398E0,8.055490255E-1,-1.973458976E-1
1.497218750E0,1.357074380E0,7.671990395E-1,-1.781709045E-1
1.499720729E0,1.319790363E0,7.192630172E-1,-1.494089067E-1
1.502222708E0,1.285701394E0,6.691960096E-1,-1.046679020E-1
1.504724740E0,1.253744364E0,6.020840406E-1,-6.205790862E-2
1.507226719E0,1.226047397E0,5.264510512E-1,-1.092490647E-2
1.509728750E0,1.202611446E0,4.497520030E-1,4.233709350E-2
1.512230729E0,1.186632395E0,3.847709894E-1,9.773009270E-2
1.514732708E0,1.174914360E0,3.368339837E-1,1.541890949E-1
1.517234740E0,1.145087361E0,3.123329878E-1,2.170400918E-1
1.519757083E0,1.110999465E0,2.782450020E-1,2.841510773E-1
1.522259062E0,1.075845361E0,2.345689982E-1,3.416750729E-1
1.524761094E0,1.039626360E0,2.100680023E-1,3.864160776E-1
1.527263073E0,1.000212431E0,1.919589937E-1,4.237000942E-1
1.529765052E0,9.576014280E-1,1.845019907E-1,4.545930922E-1
1.532267083E0,9.203174114E-1,1.791759878E-1,4.822890759E-1
1.534769062E0,8.840984106E-1,1.749150008E-1,5.025290847E-1
1.537271094E0,8.532063961E-1,1.717189997E-1,5.259650946E-1
1.539773073E0,8.233784437E-1,1.685229987E-1,5.504661202E-1
1.542275052E0,7.978124022E-1,1.674579978E-1,5.621840954E-1
1.544777083E0,7.807683945E-1,1.642619967E-1,5.696411133E-1
1.547279062E0,7.754424214E-1,1.578709930E-1,5.707061291E-1
1.549769635E0,7.690504193E-1,1.770449877E-1,5.653800964E-1
1.552271667E0,7.594634295E-1,2.303079963E-1,5.557920933E-1
1.554773698E0,7.434844375E-1,2.761150002E-1,5.494011045E-1
1.557275781E0,7.307014465E-1,3.176600039E-1,5.334221125E-1
1.559777812E0,7.189834118E-1,3.602699935E-1,5.067901015E-1
1.562279844E0,7.083303928E-1,4.124679863E-1,4.812240899E-1
1.564781875E0,7.008743882E-1,4.593389928E-1,4.492660761E-1
1.567283906E0,6.987434030E-1,4.976890087E-1,4.151780903E-1
1.569785937E0,6.966134310E-1,5.243200064E-1,3.768290877E-1
1.572288021E0,6.955474019E-1,5.413640141E-1,3.352830708E-1
1.574790052E0,6.998084188E-1,5.488210320E-1,2.958690822E-1
1.577292083E0,7.040694356E-1,5.541470051E-1,2.521930933E-1
1.579835521E0,7.051354051E-1,5.626700521E-1,2.149090916E-1
1.582337604E0,7.104614377E-1,5.807790160E-1,1.829510927E-1
1.584839635E0,7.157874107E-1,6.010190248E-1,1.573850960E-1
1.587341667E0,7.200484276E-1,6.212590337E-1,1.339491010E-1
1.589843698E0,7.285704017E-1,6.351070404E-1,1.094480976E-1
1.592345729E0,7.370924354E-1,6.489560008E-1,9.027409554E-2
1.594847760E0,7.434844375E-1,6.596080065E-1,7.962109894E-2
1.597349792E0,7.541373968E-1,6.734570265E-1,6.470709294E-2
1.599851875E0,7.679854035E-1,6.862400174E-1,5.831609294E-2
1.602353906E0,7.775723934E-1,6.968920231E-1,5.618509278E-2
1.604855990E0,7.871603966E-1,7.075450420E-1,5.405509099E-2
1.607357969E0,7.978124022E-1,7.160670161E-1,5.299009383E-2
1.609818333E0,8.042044044E-1,7.181970477E-1,5.512009189E-2
1.612320365E0,8.042044044E-1,7.331110239E-1,6.470709294E-2
1.614822396E0,7.956824303E-1,7.597430348E-1,7.962109894E-2
1.617324479E0,7.828994393E-1,7.831780314E-1,9.666509926E-2
1.619826562E0,7.669203877E-1,7.970270514E-1,1.158400998E-1
1.622328542E0,7.477453947E-1,8.098100424E-1,1.350151002E-1
1.624830573E0,7.296364307E-1,8.172670007E-1,1.509930938E-1
1.627332604E0,7.093964219E-1,8.215280175E-1,1.616460979E-1
1.629834687E0,6.912864447E-1,8.140709996E-1,1.744290888E-1
1.632336719E0,6.710464358E-1,7.980920076E-1,1.861470938E-1
1.634838750E0,6.593284011E-1,7.671990395E-1,1.999951005E-1
1.637340781E0,6.433504224E-1,7.256540060E-1,2.149090916E-1
1.639894740E0,6.273714304E-1,6.787829995E-1,2.319530994E-1
1.642396771E0,6.135224104E-1,6.223240495E-1,2.511280775E-1
1.644898802E0,6.039354205E-1,5.445600152E-1,2.639110684E-1
1.647400885E0,5.975434184E-1,4.657309949E-1,2.756290734E-1
1.649902917E0,5.986093879E-1,3.900969923E-1,2.894770801E-1
1.652404948E0,6.028704047E-1,3.123329878E-1,3.001300693E-1
1.654906979E0,6.092613935E-1,2.366999984E-1,3.139780760E-1
1.657409010E0,6.135224104E-1,1.631969959E-1,3.278270960E-1
1.659911094E0,6.177834272E-1,9.502000362E-2,3.406100869E-1
1.662413125E0,6.220444441E-1,3.536599874E-2,3.533930779E-1
1.664915208E0,6.295014024E-1,-1.257000025E-2,3.587190807E-1
1.667417187E0,6.326974034E-1,-4.878900200E-2,3.640450835E-1
1.669922448E0,6.369584203E-1,-7.009399682E-2,3.651110828E-1
1.672424531E0,6.412194371E-1,-7.861600071E-2,3.629800677E-1
1.674926562E0,6.465454102E-1,-8.287699521E-2,3.587190807E-1
1.677428594E0,6.529374123E-1,-8.181199431E-2,3.533930779E-1
1.679930677E0,6.593284011E-1,-7.115899771E-2,3.427400887E-1
1.682432656E0,6.678513885E-1,-5.091900006E-2,3.384790719E-1
1.684934687E0,6.816993952E-1,-2.641799860E-2,3.320880830E-1
1.687436719E0,6.998084188E-1,1.277999952E-3,3.235660791E-1
1.689938750E0,7.189834118E-1,3.217000142E-2,3.182390928E-1
1.692440833E0,7.381584048E-1,6.412800401E-2,3.129130900E-1
1.694942865E0,7.605284452E-1,8.969400078E-2,3.086520731E-1
1.697444896E0,7.818334103E-1,1.078040004E-1,3.033260703E-1
1.699943854E0,8.052694201E-1,1.216519997E-1,3.022600710E-1
1.702445937E0,8.223134279E-1,1.312389970E-1,3.043910861E-1
1.704947969E0,8.372274041E-1,1.429570019E-1,3.065210879E-1
1.707450000E0,8.404234052E-1,1.493489891E-1,3.139780760E-1
1.709952031E0,8.382924199E-1,1.589359939E-1,3.203700781E-1
1.712454115E0,8.372274041E-1,1.738499999E-1,3.352830708E-1
1.714956094E0,8.276404142E-1,1.866329908E-1,3.533930779E-1
1.717458125E0,8.042044044E-1,1.930239946E-1,3.693720698E-1
1.719960208E0,7.797034383E-1,1.994159967E-1,3.832200766E-1
1.722462240E0,7.466804385E-1,2.047419995E-1,3.970680833E-1
1.724964271E0,7.136574388E-1,2.036769986E-1,4.141130745E-1
1.727466302E0,6.806344390E-1,2.026119977E-1,4.237000942E-1
1.729962500E0,6.508064270E-1,1.983509958E-1,4.279610813E-1
1.732464531E0,6.284364462E-1,1.983509958E-1,4.311570823E-1
1.734966562E0,6.103264093E-1,1.930239946E-1,4.354180694E-1
1.737468594E0,5.986093879E-1,1.823719889E-1,4.354180694E-1
1.739970677E0,5.922174454E-1,1.727840006E-1,4.439400733E-1
1.742472708E0,5.911524296E-1,1.621319950E-1,4.503310919E-1
1.744974740E0,5.922174454E-1,1.642619967E-1,4.577880800E-1
1.747476771E0,5.975434184E-1,1.685229987E-1,4.663100839E-1
1.749978802E0,5.996744037E-1,1.845019907E-1,4.684410691E-1
1.752480833E0,6.050004363E-1,2.058070004E-1,4.737670720E-1
1.754982917E0,6.092613935E-1,2.324389964E-1,4.801590741E-1
1.757484948E0,6.081964374E-1,2.590700090E-1,4.780280888E-1
1.760003125E0,6.124573946E-1,2.878319919E-1,4.716370702E-1
1.762505208E0,6.124573946E-1,3.112680018E-1,4.684410691E-1
1.765007240E0,6.145884395E-1,3.336389959E-1,4.599190950E-1
1.767509271E0,6.241754293E-1,3.560090065E-1,4.492660761E-1
1.770011302E0,6.273714304E-1,3.815749884E-1,4.439400733E-1
1.772513385E0,6.273714304E-1,3.996849954E-1,4.375480711E-1
1.775015365E0,6.337624192E-1,4.145979881E-1,4.300920665E-1
1.777517448E0,6.326974034E-1,4.284470081E-1,4.290260673E-1
1.780019479E0,6.316323876E-1,4.337729812E-1,4.300920665E-1
1.782521510E0,6.273714304E-1,4.305770099E-1,4.364830852E-1
1.785023594E0,6.199144125E-1,4.241859913E-1,4.450050890E-1
1.787525573E0,6.156533957E-1,4.028809965E-1,4.535270929E-1
1.789995469E0,6.113924384E-1,3.794449866E-1,4.641800821E-1
1.792497500E0,6.039354205E-1,3.517479897E-1,4.748320878E-1
1.794999531E0,5.911524296E-1,3.219209909E-1,4.918770790E-1
1.797501562E0,5.783694386E-1,2.931590080E-1,5.089210868E-1
1.800003594E0,5.645204186E-1,2.654619813E-1,5.291610956E-1
1.802505677E0,5.496073961E-1,2.420260012E-1,5.515311360E-1
1.805007708E0,5.346934199E-1,2.217859924E-1,5.739021301E-1
1.807509740E0,5.208454132E-1,2.068729997E-1,5.952070951E-1
1.810011771E0,5.091274381E-1,1.951549947E-1,6.207731366E-1
1.812513802E0,4.974094331E-1,1.845019907E-1,6.378170848E-1
1.815015833E0,4.931484461E-1,1.749150008E-1,6.537961364E-1
1.817517865E0,4.888874590E-1,1.653279960E-1,6.676450968E-1
1.820007187E0,4.846264422E-1,1.578709930E-1,6.782971025E-1
1.822509219E0,4.856914580E-1,1.525439918E-1,6.889501214E-1
1.825011250E0,4.867564440E-1,1.493489891E-1,6.964071393E-1
1.827513333E0,4.888874590E-1,1.429570019E-1,6.942760944E-1
1.830015365E0,4.984744489E-1,1.418920010E-1,6.953411102E-1
1.832517396E0,5.112574100E-1,1.376309991E-1,6.921461225E-1
1.835019427E0,5.208454132E-1,1.333699971E-1,6.846891046E-1
1.837521458E0,5.336284041E-1,1.312389970E-1,6.782971025E-1
1.840023490E0,5.464113951E-1,1.269779950E-1,6.687101126E-1
1.842525573E0,5.549334288E-1,1.291089952E-1,6.591221094E-1
1.845027604E0,5.613254309E-1,1.354999989E-1,6.474050879E-1
1.847529635E0,5.687814355E-1,1.440219879E-1,6.388831139E-1
1.850036406E0,5.709124207E-1,1.600009948E-1,6.292951107E-1
1.852538437E0,5.687814355E-1,1.759800017E-1,6.197081208E-1
1.855040469E0,5.655863881E-1,1.983509958E-1,6.090551019E-1
1.857542552E0,5.591944456E-1,2.249819934E-1,5.962721109E-1
1.860044583E0,5.528024435E-1,2.473530024E-1,5.802931190E-1
1.862546667E0,5.410854220E-1,2.793099880E-1,5.664451122E-1
1.865048646E0,5.261714458E-1,3.123329878E-1,5.515311360E-1
1.867550729E0,5.112574100E-1,3.517479897E-1,5.334221125E-1
1.870052760E0,4.899524450E-1,3.900969923E-1,5.249001384E-1
1.872554792E0,4.665164351E-1,4.209899902E-1,5.099861026E-1
1.875056823E0,4.356244504E-1,4.540129900E-1,4.982680678E-1
1.877558906E0,4.015364349E-1,4.838399887E-1,4.908110797E-1
1.880072708E0,3.631864488E-1,5.083410144E-1,4.886810780E-1
1.882574740E0,3.227064610E-1,5.285810232E-1,4.844200909E-1
1.885076771E0,2.822264433E-1,5.466910005E-1,4.822890759E-1
1.887578802E0,2.417474389E-1,5.573430061E-1,4.812240899E-1
1.890080833E0,1.970064342E-1,5.637350082E-1,4.812240899E-1
1.892582917E0,1.533304304E-1,5.637350082E-1,4.812240899E-1
1.895084948E0,1.117854416E-1,5.584080219E-1,4.801590741E-1
1.897586979E0,6.704443693E-2,5.466910005E-1,4.790940881E-1
1.900089010E0,2.230343781E-2,5.243200064E-1,4.769630730E-1
1.902591042E0,-2.669756301E-2,4.966230094E-1,4.748320878E-1
1.905093073E0,-6.717756391E-2,4.667959809E-1,4.727020860E-1
1.907595104E0,-1.129835621E-1,4.327079952E-1,4.705710709E-1
1.910135104E0,-1.534635723E-1,3.911629915E-1,4.652450681E-1
1.912637187E0,-1.907475740E-1,3.453559875E-1,4.599190950E-1
1.915139219E0,-2.248355746E-1,2.952890098E-1,4.535270929E-1
1.917641250E0,-2.567935586E-1,2.398959994E-1,4.418090880E-1
1.920143333E0,-2.919475436E-1,1.855669916E-1,4.279610813E-1
1.922645365E0,-3.239055574E-1,1.323039979E-1,4.162430763E-1
1.925147396E0,-3.601235449E-1,7.478000224E-2,4.013300836E-1
1.927649375E0,-4.006035626E-1,1.086500008E-2,3.778940737E-1
1.930151458E0,-4.442795515E-1,-5.518000200E-2,3.597840667E-1
1.932653490E0,-4.900855422E-1,-1.212259978E-1,3.374140859E-1
1.935155521E0,-5.444135666E-1,-1.915339977E-1,3.086520731E-1
1.937657604E0,-5.998075604E-1,-2.575800121E-1,2.756290734E-1
1.940162656E0,-6.583966017E-1,-3.214949965E-1,2.426061034E-1
1.942664740E0,-7.180516124E-1,-3.779540062E-1,1.999951005E-1
1.945166771E0,-7.723795772E-1,-4.312170148E-1,1.499280930E-1
1.947668802E0,-8.288385868E-1,-4.802190065E-1,9.346909821E-2
1.950170833E0,-8.831666112E-1,-5.217639804E-1,3.168409318E-2
1.952672865E0,-9.428215623E-1,-5.590479970E-1,-3.116490506E-2
1.955174896E0,-1.002475619E0,-5.995279551E-1,-9.401490539E-2
1.957676979E0,-1.061064601E0,-6.378780007E-1,-1.664528996E-1
1.960179010E0,-1.128176570E0,-6.719659567E-1,-2.420869023E-1
1.962681042E0,-1.196352601E0,-7.071189880E-1,-3.091979325E-1
1.965183073E0,-1.265594602E0,-7.507949471E-1,-3.795049191E-1
1.967685104E0,-1.329510570E0,-7.934049964E-1,-4.455509186E-1
1.970156615E0,-1.399817586E0,-8.338849545E-1,-5.052058697E-1
1.972658698E0,-1.467994571E0,-8.754299879E-1,-5.648598671E-1
1.975160677E0,-1.530844569E0,-9.052579999E-1,-6.223838925E-1
1.977662760E0,-1.595825553E0,-9.254979491E-1,-6.767128706E-1
1.980164792E0,-1.656545639E0,-9.361499548E-1,-7.321059108E-1
1.982666823E0,-1.709808588E0,-9.446719885E-1,-7.832388878E-1
1.985168854E0,-1.759875536E0,-9.446719885E-1,-8.301098943E-1
1.987670885E0,-1.814203620E0,-9.436069727E-1,-8.780468702E-1
1.990172917E0,-1.863205552E0,-9.446719885E-1,-9.174609184E-1
1.992674948E0,-1.906881571E0,-9.468029737E-1,-9.558109045E-1
1.995176979E0,-1.958013535E0,-9.585209489E-1,-9.888339043E-1
1.997679062E0,-2.007015467E0,-9.745000005E-1,-1.013334990E0
2.000205260E0,-2.052822351E0,-9.936739802E-1,-1.030378938E0
2.002707344E0,-2.098628521E0,-1.020305991E0,-1.042096972E0
2.005209375E0,-2.147630453E0,-1.058655024E0,-1.045292974E0
2.007711406E0,-2.187044382E0,-1.094874024E0,-1.036769986E0
2.010213437E0,-2.222198486E0,-1.139614940E0,-1.028247952E0
2.012715469E0,-2.245634556E0,-1.189682007E0,-1.013334990E0
2.015217500E0,-2.265874386E0,-1.238683939E0,-9.994859099E-1
2.017719531E0,-2.281852484E0,-1.281294942E0,-9.835069180E-1
2.020221615E0,-2.292505503E0,-1.311121941E0,-9.675288796E-1
2.022723646E0,-2.302092552E0,-1.327100992E0,-9.568758607E-1
2.025225677E0,-2.317006350E0,-1.339883924E0,-9.472888708E-1
2.027727708E0,-2.328724384E0,-1.345209956E0,-9.430279136E-1
2.030195677E0,-2.337246418E0,-1.338819027E0,-9.366359115E-1
2.032697760E0,-2.347899437E0,-1.321774006E0,-9.302439094E-1
2.035199740E0,-2.361747503E0,-1.298339009E0,-9.217218757E-1
2.037701823E0,-2.383052349E0,-1.267445922E0,-9.131999016E-1
2.040203854E0,-2.407553434E0,-1.229097009E0,-9.100049138E-1
2.042705885E0,-2.434185505E0,-1.186486006E0,-9.078738689E-1
2.045207917E0,-2.465077400E0,-1.132157922E0,-9.068089128E-1
2.047709948E0,-2.497035503E0,-1.062915921E0,-9.110698700E-1
2.050212031E0,-2.528993368E0,-9.840869904E-1,-9.089388847E-1
2.052714062E0,-2.549233437E0,-8.988659978E-1,-9.004169106E-1
2.055216146E0,-2.564146519E0,-8.083189726E-1,-8.918948770E-1
2.057718125E0,-2.572668552E0,-7.007279992E-1,-8.780468702E-1
2.060270833E0,-2.572668552E0,-5.899409652E-1,-8.535459042E-1
2.062772917E0,-2.554559469E0,-4.908719957E-1,-8.258488774E-1
2.065275052E0,-2.525797367E0,-4.003250003E-1,-8.066738844E-1
2.067777187E0,-2.488513470E0,-3.278869987E-1,-7.928258777E-1
2.070279323E0,-2.433119535E0,-2.618409991E-1,-7.811079025E-1
2.072781406E0,-2.367073536E0,-2.032510042E-1,-7.693898678E-1
2.075283542E0,-2.292505503E0,-1.691630036E-1,-7.534108758E-1
2.077785677E0,-2.207284451E0,-1.393360049E-1,-7.353019118E-1
2.080287812E0,-2.120998383E0,-1.137700006E-1,-7.054749131E-1
2.082789896E0,-2.034712553E0,-9.885599464E-2,-6.788429022E-1
2.085292031E0,-1.950557590E0,-1.063129976E-1,-6.586028934E-1
2.087794167E0,-1.862140536E0,-1.382710040E-1,-6.490159035E-1
2.090295937E0,-1.776919603E0,-1.531840116E-1,-6.458199024E-1
2.092798021E0,-1.704482555E0,-1.638370007E-1,-6.468849182E-1
2.095300156E0,-1.639501572E0,-1.734240055E-1,-6.500808597E-1
2.097802292E0,-1.577716589E0,-1.776850075E-1,-6.575378776E-1
2.100304427E0,-1.530844569E0,-1.691630036E-1,-6.649948955E-1
2.102806510E0,-1.490364552E0,-1.574449986E-1,-6.703208685E-1
2.105308646E0,-1.454145551E0,-1.446620077E-1,-6.724519134E-1
2.107810781E0,-1.421122551E0,-1.318790019E-1,-6.767128706E-1
2.110312917E0,-1.398752570E0,-1.169649959E-1,-6.841688752E-1
2.112815000E0,-1.380642533E0,-8.394199610E-2,-6.926918626E-1
2.115317135E0,-1.376381636E0,-4.133200273E-2,-7.118659019E-1
2.117819271E0,-1.374251604E0,3.407999873E-3,-7.321059108E-1
2.120312396E0,-1.375316620E0,4.601799697E-2,-7.587378621E-1
2.122814479E0,-1.388099551E0,8.756399900E-2,-7.853688598E-1
2.125316615E0,-1.403013587E0,1.205869988E-1,-8.141309023E-1
2.127818750E0,-1.421122551E0,1.429570019E-1,-8.450238705E-1
2.130320833E0,-1.433905602E0,1.536099911E-1,-8.759158850E-1
2.132822969E0,-1.444558620E0,1.589359939E-1,-9.014818668E-1
2.135325104E0,-1.455211639E0,1.600009948E-1,-9.281138778E-1
2.137827240E0,-1.462667584E0,1.514789909E-1,-9.472888708E-1
2.140329323E0,-1.465863585E0,1.259129941E-1,-9.643328786E-1
2.142831458E0,-1.465863585E0,6.412800401E-2,-9.792459011E-1
2.145333594E0,-1.460537553E0,-3.281000257E-2,-9.888339043E-1
2.147835729E0,-1.445623636E0,-1.702280045E-1,-9.941598773E-1
2.150299531E0,-1.425383568E0,-3.225609958E-1,-9.920299053E-1
2.152801667E0,-1.404078603E0,-4.844799936E-1,-9.867028594E-1
2.155303802E0,-1.390230536E0,-6.432039738E-1,-9.781808853E-1
2.157805937E0,-1.383838534E0,-7.859489918E-1,-9.600718617E-1
2.160308021E0,-1.383838534E0,-9.031269550E-1,-9.334399104E-1
2.162810156E0,-1.391295552E0,-9.990010262E-1,-9.046778679E-1
2.165312292E0,-1.403013587E0,-1.077829957E0,-8.695248961E-1
2.167814427E0,-1.417927623E0,-1.135353923E0,-8.290448785E-1
2.170316510E0,-1.426449537E0,-1.179029942E0,-7.853688598E-1
2.172818646E0,-1.436036587E0,-1.201399922E0,-7.416929007E-1
2.175320781E0,-1.441362619E0,-1.205660939E0,-6.937568784E-1
2.177822917E0,-1.438167572E0,-1.205660939E0,-6.447548866E-1
2.180329687E0,-1.430710554E0,-1.209921956E0,-6.000139117E-1
2.182831823E0,-1.420057535E0,-1.213117957E0,-5.574029088E-1
2.185333958E0,-1.403013587E0,-1.217378974E0,-5.201188922E-1
2.187836094E0,-1.374251604E0,-1.224835992E0,-4.860309064E-1
2.190338177E0,-1.344424605E0,-1.241879940E0,-4.604649246E-1
2.192840312E0,-1.308205605E0,-1.258924007E0,-4.370289147E-1
2.195342448E0,-1.268790603E0,-1.279163957E0,-4.167889059E-1
2.197844583E0,-1.230441570E0,-1.303664923E0,-3.976139128E-1
2.200346667E0,-1.184635639E0,-1.326035023E0,-3.827009201E-1
2.202848802E0,-1.137763619E0,-1.335623026E0,-3.709829152E-1
2.205350937E0,-1.089826584E0,-1.340948939E0,-3.603299260E-1
2.207853073E0,-1.041890621E0,-1.338819027E0,-3.571349084E-1
2.210353021E0,-9.896925688E-1,-1.334558010E0,-3.592649102E-1
2.212855156E0,-9.438865781E-1,-1.332427025E0,-3.667219281E-1
2.215357292E0,-8.959496021E-1,-1.318578959E0,-3.784399331E-1
2.217859427E0,-8.490785956E-1,-1.303664923E0,-3.922879100E-1
2.220361510E0,-8.043375611E-1,-1.300468922E0,-4.125279188E-1
2.222863646E0,-7.574656010E-1,-1.301533937E0,-4.380939305E-1
2.225365781E0,-7.127245665E-1,-1.295143008E0,-4.647259116E-1
2.227867865E0,-6.722455621E-1,-1.281294942E0,-4.934879243E-1
2.230370000E0,-6.317656040E-1,-1.263185024E0,-5.222498775E-1
2.232872135E0,-5.923506021E-1,-1.245075941E0,-5.574029088E-1
2.235374271E0,-5.518705845E-1,-1.224835992E0,-6.000139117E-1
2.237876406E0,-5.124565959E-1,-1.209921956E0,-6.404938698E-1
2.240380781E0,-4.730415642E-1,-1.192878008E0,-6.831038594E-1
2.242882917E0,-4.336265624E-1,-1.172637939E0,-7.299758792E-1
2.245385052E0,-3.920815587E-1,-1.149201989E0,-7.800428867E-1
2.247887187E0,-3.569285572E-1,-1.121505976E0,-8.247838616E-1
2.250389271E0,-3.185785413E-1,-1.094874024E0,-8.705899119E-1
2.252891406E0,-2.812945545E-1,-1.069307923E0,-9.142658710E-1
2.255393542E0,-2.429455668E-1,-1.042675972E0,-9.590069056E-1
2.257895677E0,-2.109875679E-1,-1.023501992E0,-1.001616955E0
2.260397760E0,-1.747685671E-1,-1.002195954E0,-1.038900971E0
2.262899896E0,-1.438765675E-1,-9.851519465E-1,-1.069793940E0
2.265402031E0,-1.193755642E-1,-9.734339714E-1,-1.095359921E0
2.267904167E0,-9.167855978E-2,-9.606509805E-1,-1.118795991E0
2.270406354E0,-6.930755824E-2,-9.468029737E-1,-1.133708954E0
2.272908490E0,-5.119856447E-2,-9.361499548E-1,-1.144361973E0
2.275410625E0,-3.202356398E-2,-9.297589660E-1,-1.152884007E0
2.277912760E0,-1.604456268E-2,-9.254979491E-1,-1.151818991E0
2.280414844E0,-2.196562476E-3,-9.233669639E-1,-1.140100956E0
2.282916979E0,1.484643761E-2,-9.254979491E-1,-1.127317905E0
2.285419115E0,2.869543806E-2,-9.297589660E-1,-1.109207988E0
2.287921250E0,4.041243717E-2,-9.297589660E-1,-1.093228936E0
2.290423333E0,5.319643393E-2,-9.350849986E-1,-1.068727970E0
2.292925469E0,6.597943604E-2,-9.414770007E-1,-1.046357989E0
2.295427604E0,7.343544066E-2,-9.393459558E-1,-1.017596006E0
2.297929740E0,8.195844293E-2,-9.297589660E-1,-9.877688885E-1
2.300433542E0,8.621943742E-2,-9.148449898E-1,-9.600718617E-1
2.302935677E0,9.367544204E-2,-8.956699967E-1,-9.281138778E-1
2.305437812E0,9.793643653E-2,-8.892789483E-1,-9.036129117E-1
2.307939948E0,1.011324376E-1,-8.764959574E-1,-8.780468702E-1
2.310442031E0,1.085894406E-1,-8.573209643E-1,-8.578068614E-1
2.312944167E0,1.224374399E-1,-8.328199983E-1,-8.322408795E-1
2.315446302E0,1.352214366E-1,-8.029929996E-1,-8.056088686E-1
2.317948437E0,1.490694284E-1,-7.742309570E-1,-7.864338756E-1
2.320450521E0,1.629174352E-1,-7.422729731E-1,-7.672598958E-1
2.322952656E0,1.757004261E-1,-7.017929554E-1,-7.480849028E-1
2.325454792E0,1.906144321E-1,-6.581169963E-1,-7.299758792E-1
2.327956927E0,2.055284381E-1,-6.112459898E-1,-7.150619030E-1
2.330461875E0,2.193764299E-1,-5.643749833E-1,-7.022789121E-1
2.332964010E0,2.342904359E-1,-5.196339488E-1,-6.905608773E-1
2.335466146E0,2.470734268E-1,-4.770230055E-1,-6.820389032E-1
2.337968281E0,2.555954456E-1,-4.397390187E-1,-6.703208685E-1
2.340470365E0,2.705094516E-1,-4.109770060E-1,-6.639288664E-1
2.342972500E0,2.854224443E-1,-3.832800090E-1,-6.564728618E-1
2.345474635E0,2.971404493E-1,-3.598450124E-1,-6.522119045E-1
2.347976771E0,3.056624532E-1,-3.427999914E-1,-6.404938698E-1
2.350478854E0,3.141844571E-1,-3.385390043E-1,-6.277108788E-1
2.352980990E0,3.237724602E-1,-3.396050036E-1,-6.117318869E-1
2.355483125E0,3.290984333E-1,-3.427999914E-1,-5.957528949E-1
2.357985260E0,3.365554512E-1,-3.491919935E-1,-5.765779018E-1
2.360492448E0,3.376204371E-1,-3.641059995E-1,-5.584688783E-1
2.362994583E0,3.408164382E-1,-3.811500072E-1,-5.339679122E-1
2.365496719E0,3.418814540E-1,-3.981940150E-1,-5.041399002E-1
2.367998854E0,3.408164382E-1,-4.120419919E-1,-4.775089324E-1
2.370500937E0,3.376204371E-1,-4.290870130E-1,-4.476819038E-1
2.373003073E0,3.365554512E-1,-4.546529949E-1,-4.157239199E-1
2.375505208E0,3.354894519E-1,-4.802190065E-1,-3.827009201E-1
2.378007344E0,3.301634490E-1,-5.079159737E-1,-3.486129045E-1
2.380509427E0,3.269674480E-1,-5.473299623E-1,-3.145239055E-1
2.383011562E0,3.216414452E-1,-5.792879462E-1,-2.772399187E-1
2.385513698E0,3.205764592E-1,-6.123109460E-1,-2.431519032E-1
2.388015833E0,3.184454441E-1,-6.474649906E-1,-2.101289034E-1
2.390551510E0,3.184454441E-1,-6.762269735E-1,-1.792359054E-1
2.393053646E0,3.184454441E-1,-7.028579712E-1,-1.451479048E-1
2.395555729E0,3.216414452E-1,-7.262939811E-1,-1.153209060E-1
2.398057865E0,3.216414452E-1,-7.486649752E-1,-9.294990450E-2
2.400560000E0,3.259024322E-1,-7.731660008E-1,-6.844890118E-2
2.403062135E0,3.290984333E-1,-7.966009974E-1,-4.288290814E-2
2.405564219E0,3.354894519E-1,-8.157759905E-1,-1.838190481E-2
2.408066354E0,3.429464400E-1,-8.338849545E-1,-2.402906306E-3
2.410568490E0,3.482734561E-1,-8.487989902E-1,1.357509382E-2
2.413070625E0,3.578604460E-1,-8.637129664E-1,3.061909415E-2
2.415572760E0,3.695784509E-1,-8.818219900E-1,4.446709156E-2
2.418074844E0,3.834264576E-1,-8.988659978E-1,5.725109205E-2
2.420543281E0,3.994054496E-1,-9.105839729E-1,6.683809310E-2
2.423045417E0,4.153844416E-1,-9.265629649E-1,7.536009699E-2
2.425547552E0,4.324284494E-1,-9.404109716E-1,8.068609983E-2
2.428049687E0,4.526684582E-1,-9.553249478E-1,8.388209343E-2
2.430551771E0,4.750384390E-1,-9.691729546E-1,8.814309537E-2
2.433053906E0,4.984744489E-1,-9.808909893E-1,8.920809627E-2
2.435556042E0,5.229754448E-1,-9.862179756E-1,8.814309537E-2
2.438058177E0,5.506724119E-1,-9.872829914E-1,8.601309359E-2
2.440560260E0,5.794343948E-1,-9.862179756E-1,8.175209910E-2
2.443062396E0,6.092613935E-1,-9.798259735E-1,7.962109894E-2
2.445564531E0,6.401544213E-1,-9.702389836E-1,7.216409594E-2
2.448066667E0,6.699814200E-1,-9.563899636E-1,6.470709294E-2
2.450567187E0,7.030044198E-1,-9.340199828E-1,5.299009383E-2
2.453069323E0,7.338973880E-1,-9.095189571E-1,3.061909415E-2
2.455571458E0,7.615934014E-1,-8.754299879E-1,1.570509374E-2
2.458073594E0,7.914214134E-1,-8.413419724E-1,1.857093535E-3
2.460575677E0,8.212484121E-1,-8.104499578E-1,-2.583890595E-2
2.463077812E0,8.489454389E-1,-7.689039707E-1,-4.927390814E-2
2.465579948E0,8.777074218E-1,-7.209679484E-1,-7.270990312E-2
2.468082083E0,9.064694047E-1,-6.751619577E-1,-1.025369018E-1
2.470584219E0,9.299044013E-1,-6.346819997E-1,-1.366259009E-1
2.473086302E0,9.565364122E-1,-5.920709968E-1,-1.675179005E-1
2.475588437E0,9.810374379E-1,-5.483959913E-1,-1.952148974E-1
2.478090573E0,1.002342463E0,-5.025889874E-1,-2.229119092E-1
2.480644427E0,1.026843429E0,-4.610440135E-1,-2.516739070E-1
2.483146510E0,1.043887377E0,-4.194990098E-1,-2.815009058E-1
2.485648646E0,1.053475380E0,-3.704970181E-1,-3.123939335E-1
2.488150781E0,1.072649360E0,-3.225609958E-1,-3.422209322E-1
2.490652917E0,1.090759397E0,-2.724930048E-1,-3.688519299E-1
2.493155000E0,1.097150445E0,-2.213610113E-1,-3.944189250E-1
2.495657135E0,1.098216414E0,-1.723590046E-1,-4.146589041E-1
2.498159271E0,1.097150445E0,-1.286830008E-1,-4.274419248E-1
2.500661406E0,1.090759397E0,-8.607299626E-2,-4.466159046E-1
2.503163490E0,1.076910377E0,-4.772300273E-2,-4.615299106E-1
2.505665625E0,1.063062429E0,-1.257000025E-2,-4.700519145E-1
2.508167760E0,1.047083378E0,1.406099927E-2,-4.849659204E-1
2.510671823E0,1.027908444E0,4.069199786E-2,-4.924229085E-1
2.513173906E0,1.004473448E0,6.199700013E-2,-4.988139272E-1
2.515676042E0,9.778414369E-1,8.117200434E-2,-5.041399002E-1
2.518178177E0,9.469494224E-1,9.289000183E-2,-5.073359013E-1
2.520680312E0,9.107304215E-1,9.395500273E-2,-5.073359013E-1
2.523182396E0,8.659894466E-1,9.182500094E-2,-5.073359013E-1
2.525684531E0,8.148564100E-1,8.223700523E-2,-5.009449124E-1
2.528186667E0,7.605284452E-1,6.519300491E-2,-4.881619215E-1
2.530688802E0,7.019394040E-1,3.004000150E-2,-4.689869285E-1
2.533190885E0,6.358934045E-1,-1.789600030E-2,-4.487469196E-1
2.535693021E0,5.677164197E-1,-7.861600071E-2,-4.253109097E-1
2.538195156E0,4.931484461E-1,-1.499880105E-1,-3.922879100E-1
2.540660052E0,4.207104445E-1,-2.320130020E-1,-3.560689092E-1
2.543162187E0,3.514684439E-1,-3.193649948E-1,-3.209159076E-1
2.545664271E0,2.843574584E-1,-4.120419919E-1,-2.793709040E-1
2.548166406E0,2.183114290E-1,-5.100459456E-1,-2.378249019E-1
2.550668542E0,1.618524343E-1,-6.016589999E-1,-1.909539104E-1
2.553170677E0,1.117854416E-1,-6.975319982E-1,-1.504739076E-1
2.555672760E0,6.384843588E-2,-7.997969985E-1,-1.174509004E-1
2.558174896E0,2.336843684E-2,-9.031269550E-1,-8.123190701E-2
2.560677031E0,-1.391456276E-2,-1.011783957E0,-4.927390814E-2
2.563179167E0,-5.226356536E-2,-1.116178989E0,-1.518590655E-2
2.565681302E0,-8.422156423E-2,-1.217378974E0,1.570509374E-2
2.568183385E0,-1.065925583E-1,-1.311121941E0,4.020609334E-2
2.570687240E0,-1.257665753E-1,-1.391016006E0,6.364209950E-2
2.573189323E0,-1.406805664E-1,-1.461323023E0,8.175209910E-2
2.575691406E0,-1.481375694E-1,-1.518847942E0,1.019910946E-1
2.578193542E0,-1.502675712E-1,-1.563588023E0,1.169050932E-1
2.580695677E0,-1.555935740E-1,-1.592350006E0,1.382101029E-1
2.583197760E0,-1.555935740E-1,-1.616850972E0,1.584500968E-1
2.585699844E0,-1.438765675E-1,-1.624307990E0,1.754940897E-1
2.588201979E0,-1.353545636E-1,-1.614720941E0,1.925390959E-1
2.590704115E0,-1.268315613E-1,-1.593415976E0,2.138440907E-1
2.593206198E0,-1.108535603E-1,-1.557196975E0,2.351491004E-1
2.595708281E0,-9.380856156E-2,-1.510324955E0,2.532580793E-1
2.598210417E0,-7.676456124E-2,-1.446409941E0,2.692370713E-1
2.600750729E0,-5.652456358E-2,-1.371842027E0,2.830860913E-1
2.603252812E0,-3.628456593E-2,-1.285555959E0,2.937380672E-1
2.605754896E0,-1.284956280E-2,-1.191812992E0,2.969340682E-1
2.608257031E0,1.910743676E-2,-1.086351991E0,2.926730812E-1
2.610759115E0,5.532643571E-2,-9.819559455E-1,2.916080952E-1
2.613261250E0,9.687144309E-2,-8.679739833E-1,2.873470783E-1
2.615763333E0,1.448084265E-1,-7.475989461E-1,2.788250744E-1
2.618265469E0,2.023324370E-1,-6.218989491E-1,2.724330723E-1
2.620767552E0,2.609214485E-1,-4.961979985E-1,2.692370713E-1
2.623269687E0,3.227064610E-1,-3.704970181E-1,2.724330723E-1
2.625771771E0,3.887524605E-1,-2.437310070E-1,2.788250744E-1
2.628273854E0,4.601254463E-1,-1.148349941E-1,2.948040664E-1
2.630778229E0,5.368244052E-1,1.299500000E-2,3.246310949E-1
2.633280312E0,6.177834272E-1,1.312389970E-1,3.640450835E-1
2.635782396E0,7.019394040E-1,2.473530024E-1,4.194390774E-1
2.638284531E0,7.892904282E-1,3.592050076E-1,4.918770790E-1
2.640786615E0,8.734464049E-1,4.657309949E-1,5.749670863E-1
2.643288698E0,9.512104392E-1,5.711920261E-1,6.623181105E-1
2.645790833E0,1.017256379E0,6.809130311E-1,7.432780862E-1
2.648292969E0,1.072649360E0,8.055490255E-1,8.189111352E-1
2.650795052E0,1.109933376E0,9.323150516E-1,8.764351010E-1
2.653297187E0,1.134434462E0,1.069733024E0,9.020020962E-1
2.655799271E0,1.142956376E0,1.221000075E0,8.998711109E-1
2.658301354E0,1.142956376E0,1.365876079E0,8.732401133E-1
2.660806823E0,1.128043413E0,1.491576076E0,8.103891015E-1
2.663308906E0,1.097150445E0,1.586384058E0,7.230381370E-1
2.665810990E0,1.053475380E0,1.644973993E0,6.324911118E-1
2.668313125E0,9.916903973E-1,1.675866008E0,5.472701192E-1
2.670815208E0,9.149914384E-1,1.683323026E0,4.758980870E-1
2.673317344E0,8.287054300E-1,1.666279078E0,4.205040932E-1
2.675819427E0,7.360274196E-1,1.630060077E0,3.832200766E-1
2.678321562E0,6.390894055E-1,1.577862024E0,3.523280919E-1
2.680823646E0,5.325633883E-1,1.529926062E0,3.246310949E-1
2.683325729E0,4.249714613E-1,1.492642045E0,3.097170889E-1
2.685827865E0,3.109884560E-1,1.472401977E0,3.033260703E-1
2.688329948E0,1.874184310E-1,1.470270991E0,3.075870872E-1
2.690831667E0,6.704443693E-2,1.488380075E0,3.171740770E-1
2.693333750E0,-4.800256342E-2,1.525665045E0,3.310220838E-1
2.695835833E0,-1.598555744E-1,1.586384058E0,3.555230796E-1
2.698337969E0,-2.514675558E-1,1.673735976E0,3.821550906E-1
2.700840052E0,-3.292315602E-1,1.777065992E0,4.077210724E-1
2.703342187E0,-3.952775598E-1,1.889983058E0,4.322220683E-1
2.705844271E0,-4.400185645E-1,2.002900839E0,4.482010901E-1
2.708346406E0,-4.687805474E-1,2.112622976E0,4.609840810E-1
2.710848490E0,-4.773025513E-1,2.211691856E0,4.631150961E-1
2.713350625E0,-4.655845463E-1,2.301173925E0,4.588540792E-1
2.715852708E0,-4.304315448E-1,2.373611927E0,4.535270929E-1
2.718354792E0,-3.792985678E-1,2.432200909E0,4.460700750E-1
2.720858125E0,-3.047305644E-1,2.479071856E0,4.300920665E-1
2.723360208E0,-2.109875679E-1,2.509964943E0,4.098520875E-1
2.725862292E0,-1.097875610E-1,2.536595821E0,3.906770945E-1
2.728364427E0,2.063437598E-3,2.548313856E0,3.725680709E-1
2.730866510E0,1.245684400E-1,2.550444841E0,3.501970768E-1
2.733368646E0,2.417474389E-1,2.533401012E0,3.246310949E-1
2.735870729E0,3.653174341E-1,2.506768942E0,2.958690822E-1
2.738372812E0,4.920834601E-1,2.475875854E0,2.585850954E-1
2.740874948E0,6.135224104E-1,2.441787958E0,2.149090916E-1
2.743377083E0,7.349624038E-1,2.400242805E0,1.722991019E-1
2.745879167E0,8.553364277E-1,2.354436874E0,1.371451020E-1
2.748381250E0,9.682543874E-1,2.297977924E0,9.986109287E-2
2.750883281E0,1.071584463E0,2.236192942E0,6.257709861E-2
2.753385365E0,1.167457461E0,2.166950941E0,1.890109479E-2
2.755887448E0,1.253744364E0,2.093447924E0,-2.264290489E-2
2.758389583E0,1.336834431E0,2.021009922E0,-5.886190757E-2
2.760891667E0,1.411402464E0,1.945376992E0,-9.188490361E-2
2.763393802E0,1.474252462E0,1.874005079E0,-1.185159013E-1
2.765895885E0,1.529646397E0,1.801567078E0,-1.430169046E-1
2.768398021E0,1.572256446E0,1.724868059E0,-1.611268967E-1
2.770900104E0,1.604214430E0,1.651365042E0,-1.749749035E-1
2.773402240E0,1.625519395E0,1.575731993E0,-1.824319065E-1
2.775904323E0,1.631911397E0,1.504359007E0,-1.749749035E-1
2.778406406E0,1.616997361E0,1.428726077E0,-1.600619107E-1
2.780911979E0,1.588235378E0,1.353092074E0,-1.398219019E-1
2.783414062E0,1.546690464E0,1.274263024E0,-1.142549068E-1
2.785916146E0,1.492362380E0,1.199694991E0,-9.294990450E-2
2.788418281E0,1.434838414E0,1.122995973E0,-6.951390207E-2
2.790920365E0,1.366661429E0,1.045232058E0,-4.927390814E-2
2.793422500E0,1.299550414E0,9.621420503E-1,-3.009990603E-2
2.795924583E0,1.238830447E0,8.790520430E-1,-1.625090651E-2
2.798426667E0,1.178110361E0,8.012880087E-1,-2.402906306E-3
2.800928802E0,1.124847412E0,7.373720407E-1,9.314093739E-3
2.803430885E0,1.080106378E0,6.830440164E-1,2.103209496E-2
2.805933021E0,1.038561463E0,6.404340267E-1,3.061909415E-2
2.808435104E0,1.000212431E0,6.148670316E-1,4.020609334E-2
2.810925000E0,9.735804200E-1,5.999540091E-1,5.299009383E-2
2.813427083E0,9.512104392E-1,5.903660059E-1,6.364209950E-2
2.815929219E0,9.331004024E-1,5.818440318E-1,7.109909505E-2
2.818431302E0,9.299044013E-1,5.797140002E-1,7.749009877E-2
2.820933437E0,9.267094135E-1,5.882360339E-1,8.388209343E-2
2.823435521E0,9.299044013E-1,6.052800417E-1,9.346909821E-2
2.825937656E0,9.362964034E-1,6.180630326E-1,1.030570939E-1
2.828439740E0,9.469494224E-1,6.372380257E-1,1.147750989E-1
2.830941875E0,9.607974291E-1,6.574780345E-1,1.286230981E-1
2.833443958E0,9.671894312E-1,6.723909974E-1,1.403411031E-1
2.835946094E0,9.671894312E-1,6.894350052E-1,1.552540958E-1
2.838448177E0,9.661234021E-1,7.064800262E-1,1.680381000E-1
2.840963750E0,9.661234021E-1,7.235240340E-1,1.850820929E-1
2.843465833E0,9.661234021E-1,7.363070250E-1,2.031911016E-1
2.845967917E0,9.639934301E-1,7.416329980E-1,2.191700935E-1
2.848470052E0,9.544054270E-1,7.416329980E-1,2.362141013E-1
2.850972135E0,9.448184371E-1,7.192630172E-1,2.553890944E-1
2.853474271E0,9.299044013E-1,6.958270073E-1,2.756290734E-1
2.855976354E0,9.011424184E-1,6.936970353E-1,2.894770801E-1
2.858478490E0,8.681194186E-1,7.000880241E-1,2.969340682E-1
2.860980573E0,8.308354020E-1,7.022190094E-1,3.033260703E-1
2.863482656E0,7.935514450E-1,6.936970353E-1,3.097170889E-1
2.865984792E0,7.562674284E-1,6.883700490E-1,3.118480742E-1
2.868486875E0,7.115263939E-1,6.862400174E-1,3.129130900E-1
2.870991146E0,6.742424369E-1,6.905010343E-1,3.022600710E-1
2.873493229E0,6.369584203E-1,7.032840252E-1,2.937380672E-1
2.875995312E0,6.028704047E-1,7.213930488E-1,2.766940892E-1
2.878497448E0,5.741084218E-1,7.341760397E-1,2.511280775E-1
2.880999531E0,5.432153940E-1,7.469600439E-1,2.223660946E-1
2.883501667E0,5.101923943E-1,7.554820180E-1,1.893430948E-1
2.886003750E0,4.910174608E-1,7.650690079E-1,1.605810970E-1
2.888505885E0,4.771694541E-1,7.757220268E-1,1.339491010E-1
2.891007969E0,4.665164351E-1,7.980920076E-1,1.073180959E-1
2.893510104E0,4.601254463E-1,8.311150074E-1,7.962109894E-2
2.896012187E0,4.569294453E-1,8.620080352E-1,5.618509278E-2
2.898514271E0,4.601254463E-1,8.833130002E-1,2.209709398E-2
2.901016667E0,4.739734530E-1,8.982260227E-1,-2.051190659E-2
2.903518750E0,4.814304411E-1,9.259230494E-1,-3.968690708E-2
2.906020833E0,4.995394349E-1,9.280540347E-1,-4.075190797E-2
2.908522969E0,5.208454132E-1,9.163360000E-1,-3.436090797E-2
2.911025052E0,5.378894210E-1,9.142050147E-1,-3.329590708E-2
2.913527187E0,5.538684130E-1,9.152710438E-1,-3.329590708E-2
2.916029271E0,5.677164197E-1,9.078140259E-1,-3.755690902E-2
2.918531354E0,5.836954117E-1,8.929000497E-1,-4.288290814E-2
2.921033490E0,6.007394195E-1,8.726600409E-1,-4.501290619E-2
2.923535625E0,6.135224104E-1,8.524200320E-1,-4.075190797E-2
2.926037708E0,6.241754293E-1,8.279190063E-1,-3.542590886E-2
2.928539792E0,6.369584203E-1,8.023530245E-1,-3.116490506E-2
2.931033594E0,6.444154382E-1,7.767870426E-1,-2.264290489E-2
2.933535677E0,6.540024281E-1,7.469600439E-1,-1.092490647E-2
2.936037760E0,6.625244021E-1,7.203280330E-1,-2.729063272E-4
2.938539896E0,6.657204032E-1,7.054139972E-1,1.357509382E-2
2.941041979E0,6.603944302E-1,6.905010343E-1,2.848909423E-2
2.943544062E0,6.508064270E-1,6.745220423E-1,5.085909367E-2
2.946046198E0,6.380234361E-1,6.500210166E-1,7.536009699E-2
2.948548333E0,6.273714304E-1,6.212590337E-1,1.019910946E-1
2.951050417E0,6.071314216E-1,5.978230238E-1,1.275580972E-1
2.953552552E0,5.932824016E-1,5.701259971E-1,1.573850960E-1
2.956054635E0,5.783694386E-1,5.530820489E-1,1.850820929E-1
2.958556719E0,5.645204186E-1,5.381690264E-1,2.159740925E-1
2.961035937E0,5.506724119E-1,5.296460390E-1,2.426061034E-1
2.963538021E0,5.378894210E-1,5.179290175E-1,2.671070695E-1
2.966040156E0,5.272364020E-1,5.104719996E-1,2.916080952E-1
2.968542240E0,5.197794437E-1,5.072759986E-1,3.086520731E-1
2.971044323E0,5.101923943E-1,5.019500256E-1,3.256960809E-1
2.973546458E0,5.038003922E-1,5.030150414E-1,3.406100869E-1
2.976048594E0,4.995394349E-1,4.976890087E-1,3.480670750E-1
2.978550677E0,4.942134321E-1,4.976890087E-1,3.565890789E-1
2.981052812E0,4.888874590E-1,4.987539947E-1,3.640450835E-1
2.983554896E0,4.856914580E-1,5.019500256E-1,3.640450835E-1
2.986056979E0,4.814304411E-1,4.998189807E-1,3.608500957E-1
2.988559062E0,4.814304411E-1,5.062110424E-1,3.587190807E-1
2.991097031E0,4.824954569E-1,5.243200064E-1,3.587190807E-1
2.993599115E0,4.835614562E-1,5.466910005E-1,3.597840667E-1
2.996101198E0,4.814304411E-1,5.626700521E-1,3.587190807E-1
2.998603333E0,4.846264422E-1,5.679960251E-1,3.523280919E-1
3.001105417E0,4.888874590E-1,5.711920261E-1,3.480670750E-1
3.003607552E0,4.942134321E-1,5.722570419E-1,3.395440876E-1
3.006109635E0,5.016704202E-1,5.743870139E-1,3.310220838E-1
3.008611719E0,5.048664212E-1,5.765179992E-1,3.256960809E-1
3.011113854E0,5.006054044E-1,5.775830150E-1,3.214350939E-1
3.013615937E0,4.984744489E-1,5.711920261E-1,3.182390928E-1
3.016118073E0,4.995394349E-1,5.637350082E-1,3.139780760E-1
3.018620156E0,4.963444471E-1,5.562780499E-1,3.086520731E-1
3.021091927E0,4.974094331E-1,5.434949994E-1,2.979990840E-1
3.023594010E0,4.942134321E-1,5.307120085E-1,2.979990840E-1
3.026096146E0,4.963444471E-1,5.168630481E-1,2.969340682E-1
3.028598229E0,4.974094331E-1,5.083410144E-1,2.958690822E-1
3.031100312E0,4.984744489E-1,4.998189807E-1,2.990650833E-1
3.033602448E0,5.016704202E-1,4.891670048E-1,3.001300693E-1
3.036104531E0,5.059314370E-1,4.827750027E-1,3.043910861E-1
3.038606667E0,5.080624223E-1,4.753179848E-1,3.107820749E-1
3.041108802E0,5.123234391E-1,4.614700079E-1,3.171740770E-1
3.043610885E0,5.165843964E-1,4.518820047E-1,3.235660791E-1
3.046112969E0,5.165843964E-1,4.390989840E-1,3.288920820E-1
3.048615104E0,5.197794437E-1,4.252510071E-1,3.395440876E-1
3.051153594E0,5.187144279E-1,4.007499814E-1,3.470010757E-1
3.053655729E0,5.197794437E-1,3.826409876E-1,3.576540947E-1
3.056157812E0,5.187144279E-1,3.613350093E-1,3.693720698E-1
3.058659948E0,5.165843964E-1,3.389649987E-1,3.778940737E-1
3.061162031E0,5.155184269E-1,3.187249899E-1,3.885460794E-1
3.063664167E0,5.187144279E-1,2.974199951E-1,4.002640843E-1
3.066166250E0,5.165843964E-1,2.739839852E-1,4.109170735E-1
3.068668385E0,5.187144279E-1,2.526789904E-1,4.173080921E-1
3.071170469E0,5.208454132E-1,2.313739955E-1,4.237000942E-1
3.073672552E0,5.229754448E-1,2.143299878E-1,4.375480711E-1
3.076174687E0,5.187144279E-1,1.972849965E-1,4.428750873E-1
3.078676771E0,5.155184269E-1,1.855669916E-1,4.513970912E-1
3.081141562E0,5.101923943E-1,1.749150008E-1,4.567230940E-1
3.083643698E0,5.038003922E-1,1.653279960E-1,4.620490670E-1
3.086145833E0,4.963444471E-1,1.536099911E-1,4.663100839E-1
3.088647969E0,4.856914580E-1,1.429570019E-1,4.695060849E-1
3.091150052E0,4.750384390E-1,1.386960000E-1,4.716370702E-1
3.093652187E0,4.654514492E-1,1.333699971E-1,4.716370702E-1
3.096154323E0,4.579944611E-1,1.301739961E-1,4.727020860E-1
3.098656458E0,4.505374432E-1,1.237820014E-1,4.716370702E-1
3.101158594E0,4.452114403E-1,1.248480007E-1,4.684410691E-1
3.103660729E0,4.430814385E-1,1.184560061E-1,4.695060849E-1
3.106162865E0,4.420154393E-1,1.141950041E-1,4.695060849E-1
3.108665000E0,4.420154393E-1,1.109990031E-1,4.695060849E-1
3.111205312E0,4.441464543E-1,1.056730002E-1,4.673760831E-1
3.113707448E0,4.473424554E-1,9.821600467E-2,4.673760831E-1
3.116209583E0,4.516034424E-1,9.395500273E-2,4.705710709E-1
3.118711719E0,4.590604603E-1,8.862899989E-2,4.737670720E-1
3.121213854E0,4.590604603E-1,8.223700523E-2,4.769630730E-1
3.123715990E0,4.665164351E-1,7.691100240E-2,4.822890759E-1
3.126218125E0,4.707774520E-1,6.732400507E-2,4.897460938E-1
3.128720260E0,4.707774520E-1,5.880199745E-2,4.982680678E-1
3.131222396E0,4.750384390E-1,5.560600013E-2,5.067901015E-1
3.133724531E0,4.750384390E-1,4.814899713E-2,5.163781047E-1
3.136226615E0,4.761044383E-1,4.175699875E-2,5.280951262E-1
3.138728750E0,4.750384390E-1,3.643099964E-2,5.366181135E-1
3.141182917E0,4.750384390E-1,3.217000142E-2,5.451400876E-1
3.143685052E0,4.771694541E-1,3.430099785E-2,5.600531101E-1
3.146187187E0,4.782344401E-1,3.643099964E-2,5.675101280E-1
3.148689323E0,4.782344401E-1,3.749600053E-2,5.760321021E-1
3.151191458E0,4.846264422E-1,4.282299802E-2,5.813581347E-1
3.153693594E0,4.846264422E-1,5.454099923E-2,5.856201053E-1
3.156195729E0,4.878224432E-1,6.838900596E-2,5.952070951E-1
3.158697865E0,4.867564440E-1,8.436800539E-2,6.005331278E-1
3.161200000E0,4.867564440E-1,1.003470048E-1,6.069251299E-1
3.163702135E0,4.920834601E-1,1.163260043E-1,6.111860871E-1
3.166204219E0,4.952784479E-1,1.344349980E-1,6.133161187E-1
3.168706354E0,4.974094331E-1,1.546749920E-1,6.186431050E-1
3.171247187E0,5.038003922E-1,1.695889980E-1,6.260991096E-1
3.173749323E0,5.155184269E-1,1.866329908E-1,6.282300949E-1
3.176251458E0,5.272364020E-1,2.047419995E-1,6.314260960E-1
3.178753594E0,5.389544368E-1,2.185909897E-1,6.346210837E-1
3.181255729E0,5.506724119E-1,2.335039973E-1,6.335561275E-1
3.183757865E0,5.634554029E-1,2.452220023E-1,6.356871128E-1
3.186259948E0,5.687814355E-1,2.612009943E-1,6.367521286E-1
3.188762083E0,5.751734376E-1,2.729189992E-1,6.399481297E-1
3.191264219E0,5.773034096E-1,2.793099880E-1,6.452741027E-1
3.193766354E0,5.783694386E-1,2.931590080E-1,6.516661048E-1
3.196268490E0,5.762383938E-1,3.027459979E-1,6.559271216E-1
3.198770625E0,5.677164197E-1,3.112680018E-1,6.623181105E-1
3.201239375E0,5.581294298E-1,3.240509927E-1,6.676450968E-1
3.203741510E0,5.410854220E-1,3.325729966E-1,6.708400846E-1
3.206243646E0,5.272364020E-1,3.410950005E-1,6.719061136E-1
3.208745781E0,5.059314370E-1,3.464219868E-1,6.740360856E-1
3.211247917E0,4.846264422E-1,3.528130054E-1,6.793621182E-1
3.213750052E0,4.611904323E-1,3.549439907E-1,6.793621182E-1
3.216252187E0,4.366894364E-1,3.560090065E-1,6.793621182E-1
3.218754323E0,4.068624377E-1,3.549439907E-1,6.804280877E-1
3.221256458E0,3.802304566E-1,3.506830037E-1,6.793621182E-1
3.223758594E0,3.525344431E-1,3.485519886E-1,6.782971025E-1
3.226260677E0,3.312284350E-1,3.474870026E-1,6.772320867E-1
3.228762812E0,3.056624532E-1,3.464219868E-1,6.719061136E-1
3.231294271E0,2.832924426E-1,3.432259858E-1,6.697751284E-1
3.233796406E0,2.705094516E-1,3.485519886E-1,6.623181105E-1
3.236298542E0,2.566604614E-1,3.474870026E-1,6.548610926E-1
3.238800677E0,2.417474389E-1,3.410950005E-1,6.442090869E-1
3.241302812E0,2.321594357E-1,3.357689977E-1,6.271651387E-1
3.243804948E0,2.257684320E-1,3.304429948E-1,6.122511029E-1
3.246307083E0,2.183114290E-1,3.229860067E-1,5.952070951E-1
3.248809219E0,2.129854262E-1,3.102029860E-1,5.781630874E-1
3.251311354E0,2.097894251E-1,2.974199951E-1,5.579231381E-1
3.253813490E0,2.076584250E-1,2.814410031E-1,5.355520844E-1
3.256315625E0,2.044624388E-1,2.643969953E-1,5.163781047E-1
3.258817760E0,2.002014369E-1,2.462869883E-1,4.972030818E-1
3.261337969E0,1.938104331E-1,2.324389964E-1,4.780280888E-1
3.263840104E0,1.906144321E-1,2.153949887E-1,4.588540792E-1
3.266342187E0,1.842224300E-1,2.026119977E-1,4.439400733E-1
3.268844323E0,1.735704392E-1,1.940899938E-1,4.300920665E-1
3.271346458E0,1.618524343E-1,1.876979917E-1,4.173080921E-1
3.273848594E0,1.437434256E-1,1.866329908E-1,4.077210724E-1
3.276350729E0,1.235034391E-1,1.930239946E-1,3.949380815E-1
3.278852865E0,9.900243580E-2,1.972849965E-1,3.821550906E-1
3.281355000E0,7.450143993E-2,2.058070004E-1,3.746980727E-1
3.283857135E0,5.000043660E-2,2.185909897E-1,3.640450835E-1
3.286359219E0,2.869543806E-2,2.345689982E-1,3.523280919E-1
3.288861406E0,7.389437407E-3,2.505480051E-1,3.427400887E-1
3.291311615E0,-1.284956280E-2,2.697229981E-1,3.320880830E-1
3.293813750E0,-2.669756301E-2,2.899630070E-1,3.256960809E-1
3.296315833E0,-4.161156341E-2,3.123329878E-1,3.171740770E-1
3.298818021E0,-5.545956269E-2,3.315079808E-1,3.065210879E-1
3.301320156E0,-6.824255735E-2,3.560090065E-1,3.001300693E-1
3.303822240E0,-8.422156423E-2,3.815749884E-1,2.958690822E-1
3.306324375E0,-9.700456262E-2,4.018149972E-1,2.905420959E-1
3.308826510E0,-1.087225601E-1,4.252510071E-1,2.862810791E-1
3.311328646E0,-1.247015595E-1,4.465560019E-1,2.820200920E-1
3.313830781E0,-1.438765675E-1,4.657309949E-1,2.809550762E-1
3.316332917E0,-1.651815623E-1,4.817099869E-1,2.798900902E-1
3.318835052E0,-1.886175722E-1,4.934279919E-1,2.777590752E-1
3.321391927E0,-2.195095718E-1,4.976890087E-1,2.820200920E-1
3.323894062E0,-2.525325418E-1,5.019500256E-1,2.809550762E-1
3.326396146E0,-2.844905555E-1,5.051450133E-1,2.777590752E-1
3.328898281E0,-3.207095563E-1,5.030150414E-1,2.703030705E-1
3.331400417E0,-3.547975421E-1,4.976890087E-1,2.553890944E-1
3.333902552E0,-3.888855577E-1,4.881010056E-1,2.362141013E-1
3.336404687E0,-4.229745567E-1,4.742529988E-1,2.138440907E-1
3.338906823E0,-4.528015554E-1,4.508169889E-1,1.872120947E-1
3.341408958E0,-4.943465590E-1,4.220550060E-1,1.584500968E-1
3.343911094E0,-5.358915925E-1,3.911629915E-1,1.296880990E-1
3.346413229E0,-5.763716102E-1,3.485519886E-1,9.986109287E-2
3.348915365E0,-6.253736019E-1,3.048769832E-1,7.109909505E-2
3.351370573E0,-6.786366105E-1,2.601360083E-1,4.020609334E-2
3.353872708E0,-7.350955606E-1,2.132639885E-1,1.037909370E-2
3.356374844E0,-7.947495580E-1,1.663929969E-1,-2.051190659E-2
3.358876979E0,-8.533396125E-1,1.259129941E-1,-5.353590846E-2
3.361379115E0,-9.161896110E-1,8.862899989E-2,-9.508090466E-2
3.363881250E0,-9.769095778E-1,4.921399802E-2,-1.387559026E-1
3.366383333E0,-1.038694620E0,1.193000004E-2,-1.824319065E-1
3.368885469E0,-1.104740620E0,-3.067900054E-2,-2.271729112E-1
3.371387604E0,-1.165460587E0,-7.648500055E-2,-2.761749327E-1
3.373889740E0,-1.228310585E0,-1.190959960E-1,-3.241119087E-1
3.376391875E0,-1.290095568E0,-1.670330018E-1,-3.731139302E-1
3.378894010E0,-1.354011536E0,-2.192300111E-1,-4.274419248E-1
3.381411823E0,-1.415796638E0,-2.756890059E-1,-4.796399176E-1
3.383913958E0,-1.474385619E0,-3.321480155E-1,-5.318368673E-1
3.386416042E0,-1.531909585E0,-3.928680122E-1,-5.819038749E-1
3.388918229E0,-1.590499640E0,-4.599789977E-1,-6.319718957E-1
3.391420312E0,-1.645892620E0,-5.270899534E-1,-6.809738874E-1
3.393922500E0,-1.702351570E0,-5.963319540E-1,-7.289099097E-1
3.396424583E0,-1.760940552E0,-6.719659567E-1,-7.768468857E-1
3.398926719E0,-1.821660638E0,-7.497299910E-1,-8.194568753E-1
3.401428854E0,-1.884510636E0,-8.285589814E-1,-8.620678782E-1
3.403930990E0,-1.944165587E0,-9.041929841E-1,-9.046778679E-1
3.406433125E0,-2.005950451E0,-9.798259735E-1,-9.430279136E-1
3.408935260E0,-2.064539433E0,-1.043741941E0,-9.792459011E-1
3.411436198E0,-2.120998383E0,-1.101266026E0,-1.012269974E0
3.413938333E0,-2.171065569E0,-1.150267959E0,-1.043161988E0
3.416440469E0,-2.220067501E0,-1.191812992E0,-1.065532923E0
3.418942604E0,-2.263743401E0,-1.224835992E0,-1.080446005E0
3.421444740E0,-2.301027536E0,-1.250401974E0,-1.092163920E0
3.423946823E0,-2.331920385E0,-1.265316010E0,-1.099620938E0
3.426448958E0,-2.368138552E0,-1.264249921E0,-1.100685954E0
3.428951094E0,-2.404357433E0,-1.256793976E0,-1.100685954E0
3.431453229E0,-2.443772554E0,-1.239748955E0,-1.099620938E0
3.433955365E0,-2.483187437E0,-1.206725955E0,-1.097489953E0
3.436457500E0,-2.523666382E0,-1.166245937E0,-1.090032935E0
3.438959635E0,-2.559885502E0,-1.118309975E0,-1.081510901E0
3.441499271E0,-2.598235369E0,-1.055459023E0,-1.076184988E0
3.444001406E0,-2.634453535E0,-9.776949883E-1,-1.072988987E0
3.446503490E0,-2.669607401E0,-8.914089799E-1,-1.068727970E0
3.449005625E0,-2.699434519E0,-7.976669669E-1,-1.062336922E0
3.451507760E0,-2.719674349E0,-7.060539722E-1,-1.057009935E0
3.454009896E0,-2.737784386E0,-6.133769751E-1,-1.054879904E0
3.456512031E0,-2.749502420E0,-5.228289962E-1,-1.046357989E0
3.459014167E0,-2.759089470E0,-4.131079912E-1,-1.032508969E0
3.461516302E0,-2.760154486E0,-2.959290147E-1,-1.011204004E0
3.464018437E0,-2.747371435E0,-2.064470053E-1,-9.930948615E-1
3.466520521E0,-2.722870350E0,-1.467930079E-1,-9.728549123E-1
3.469022656E0,-2.680260420E0,-9.566000104E-2,-9.451578856E-1
3.471472708E0,-2.631258488E0,-4.985400289E-2,-9.195919037E-1
3.473974844E0,-2.567342520E0,-2.428799868E-2,-8.929598927E-1
3.476476979E0,-2.495970488E0,-1.150500029E-2,-8.620678782E-1
3.478979115E0,-2.421401501E0,-7.244000211E-3,-8.333058953E-1
3.481481250E0,-2.344703436E0,-1.150500029E-2,-8.034788966E-1
3.483983333E0,-2.274396420E0,-2.002699859E-2,-7.693898678E-1
3.486485469E0,-2.198762417E0,-2.428799868E-2,-7.374318838E-1
3.488987656E0,-2.129520416E0,-1.683099940E-2,-7.022789121E-1
3.491489792E0,-2.065605402E0,-9.374000132E-3,-6.756469011E-1
3.493991927E0,-1.993167639E0,-6.178000011E-3,-6.575378776E-1
3.496494010E0,-1.926056623E0,-2.982999897E-3,-6.522119045E-1
3.498996146E0,-1.866401553E0,6.603999995E-3,-6.543418765E-1
3.501515990E0,-1.816334605E0,2.790900134E-2,-6.628639102E-1
3.504018125E0,-1.770528555E0,6.093199924E-2,-6.745818853E-1
3.506520208E0,-1.735374570E0,1.152600050E-1,-6.820389032E-1
3.509022396E0,-1.704482555E0,1.802409887E-1,-6.958869100E-1
3.511524531E0,-1.685307622E0,2.505480051E-1,-7.054749131E-1
3.514026615E0,-1.673589587E0,3.251169920E-1,-7.161268592E-1
3.516528750E0,-1.662936568E0,4.028809965E-1,-7.353019118E-1
3.519030885E0,-1.653349638E0,4.785139859E-1,-7.587378621E-1
3.521533021E0,-1.649088621E0,5.520170331E-1,-7.853688598E-1
3.524035156E0,-1.646957636E0,6.201940179E-1,-8.130658865E-1
3.526537292E0,-1.646957636E0,6.905010343E-1,-8.396968842E-1
3.529039427E0,-1.657610536E0,7.522860169E-1,-8.673939109E-1
3.531544687E0,-1.666132569E0,8.055490255E-1,-8.886988759E-1
3.534046823E0,-1.672524571E0,8.417680264E-1,-9.068089128E-1
3.536548906E0,-1.683176637E0,8.641380072E-1,-9.227879047E-1
3.539051042E0,-1.688503623E0,8.652030230E-1,-9.366359115E-1
3.541553177E0,-1.688503623E0,8.470939994E-1,-9.494189024E-1
3.544055312E0,-1.681046605E0,8.066140413E-1,-9.590069056E-1
3.546557448E0,-1.669328570E0,7.405680418E-1,-9.685938954E-1
3.549059583E0,-1.651219606E0,6.532170177E-1,-9.792459011E-1
3.551561719E0,-1.627783537E0,5.424300432E-1,-9.845728874E-1
3.554063802E0,-1.595825553E0,4.145979881E-1,-9.909638762E-1
3.556565990E0,-1.558541536E0,2.814410031E-1,-9.888339043E-1
3.559068125E0,-1.518061638E0,1.450880021E-1,-9.824419022E-1
3.561604635E0,-1.483973622E0,2.045200020E-2,-9.739198685E-1
3.564106719E0,-1.449884534E0,-8.713799715E-2,-9.622018933E-1
3.566608854E0,-1.423253536E0,-1.798160076E-1,-9.419618845E-1
3.569110990E0,-1.396621585E0,-2.586449981E-1,-9.163959026E-1
3.571613125E0,-1.374251604E0,-3.214949965E-1,-8.886988759E-1
3.574115260E0,-1.355076551E0,-3.736930192E-1,-8.599368930E-1
3.576617396E0,-1.333771586E0,-4.205639958E-1,-8.301098943E-1
3.579119531E0,-1.310335636E0,-4.685010016E-1,-7.992178798E-1
3.581621667E0,-1.285834551E0,-5.206989646E-1,-7.619329095E-1
3.584123802E0,-1.258138537E0,-5.750269890E-1,-7.235838771E-1
3.586625885E0,-1.227245569E0,-6.187029481E-1,-6.799079180E-1
3.589128073E0,-1.201679587E0,-6.581169963E-1,-6.383628845E-1
3.591603021E0,-1.170786619E0,-6.975319982E-1,-6.042748690E-1
3.594105156E0,-1.139894605E0,-7.284249663E-1,-5.669909120E-1
3.596607344E0,-1.111132622E0,-7.582519650E-1,-5.350328684E-1
3.599109479E0,-1.081304550E0,-7.870139480E-1,-5.052058697E-1
3.601611615E0,-1.053608537E0,-8.147109747E-1,-4.785739183E-1
3.604113802E0,-1.024846554E0,-8.424069881E-1,-4.530079067E-1
3.606615937E0,-9.960845709E-1,-8.690389991E-1,-4.391599298E-1
3.609118125E0,-9.683876038E-1,-8.967359662E-1,-4.242459238E-1
3.611620260E0,-9.385606050E-1,-9.180409908E-1,-4.135929048E-1
3.614122396E0,-9.055376053E-1,-9.340199828E-1,-4.061369300E-1
3.616624531E0,-8.735795617E-1,-9.446719885E-1,-4.008099139E-1
3.619126719E0,-8.384255767E-1,-9.468029737E-1,-3.965489268E-1
3.621661667E0,-8.011415601E-1,-9.372159839E-1,-3.976139128E-1
3.624163802E0,-7.627925873E-1,-9.361499548E-1,-4.018759131E-1
3.626665990E0,-7.255085707E-1,-9.340199828E-1,-4.082669318E-1
3.629168125E0,-6.850286126E-1,-9.340199828E-1,-4.146589041E-1
3.631670260E0,-6.434835792E-1,-9.340199828E-1,-4.231809080E-1
3.634172448E0,-6.083295941E-1,-9.297589660E-1,-4.306379259E-1
3.636674583E0,-5.753065944E-1,-9.265629649E-1,-4.402249157E-1
3.639176771E0,-5.433486104E-1,-9.180409908E-1,-4.498119056E-1
3.641678906E0,-5.124565959E-1,-9.063229561E-1,-4.615299106E-1
3.644181042E0,-4.858245552E-1,-8.935399652E-1,-4.764439166E-1
3.646683229E0,-4.613235593E-1,-8.743649721E-1,-4.913569093E-1
3.649185365E0,-4.378875494E-1,-8.498639464E-1,-5.052058697E-1
3.651651719E0,-4.155175388E-1,-8.274939656E-1,-5.190538764E-1
3.654153854E0,-4.006035626E-1,-8.019279838E-1,-5.350328684E-1
3.656655990E0,-3.814295530E-1,-7.774269581E-1,-5.488808751E-1
3.659158177E0,-3.675805628E-1,-7.486649752E-1,-5.605989099E-1
3.661660312E0,-3.558625579E-1,-7.241639495E-1,-5.744478703E-1
3.664162500E0,-3.420145512E-1,-6.975319982E-1,-5.882958770E-1
3.666664635E0,-3.345575631E-1,-6.719659567E-1,-5.968179107E-1
3.669166823E0,-3.260355592E-1,-6.517259479E-1,-6.032099128E-1
3.671668958E0,-3.196445405E-1,-6.346819997E-1,-6.064049006E-1
3.674171094E0,-3.153825402E-1,-6.218989491E-1,-6.085358858E-1
3.676673229E0,-3.057955503E-1,-6.144419909E-1,-6.064049006E-1
3.679175417E0,-3.025995493E-1,-6.101809740E-1,-5.978828669E-1
3.681680729E0,-2.962085605E-1,-6.037889719E-1,-5.819038749E-1
3.684182865E0,-2.919475436E-1,-6.005929708E-1,-5.669909120E-1
3.686685052E0,-2.812945545E-1,-5.995279551E-1,-5.488808751E-1
3.689187187E0,-2.727725506E-1,-5.963319540E-1,-5.297068954E-1
3.691689323E0,-2.599895597E-1,-5.984629989E-1,-5.052058697E-1
3.694191510E0,-2.440105677E-1,-5.963319540E-1,-4.807049334E-1
3.696693646E0,-2.301625609E-1,-5.920709968E-1,-4.562039077E-1
3.699195833E0,-2.152485698E-1,-5.846149921E-1,-4.306379259E-1
3.701697969E0,-1.982045621E-1,-5.803529620E-1,-4.050709307E-1
3.704200156E0,-1.779645681E-1,-5.728969574E-1,-3.773749173E-1
3.706702292E0,-1.555935740E-1,-5.643749833E-1,-3.486129045E-1
3.709204479E0,-1.342885643E-1,-5.558519959E-1,-3.209159076E-1
3.711703021E0,-1.076575592E-1,-5.494609475E-1,-2.889579237E-1
3.714205208E0,-7.996056229E-2,-5.345469713E-1,-2.612609267E-1
3.716707344E0,-5.119856447E-2,-5.196339488E-1,-2.324988991E-1
3.719209531E0,-1.924056187E-2,-5.025889874E-1,-2.037369013E-1
3.721711667E0,1.165043749E-2,-4.812839925E-1,-1.845619082E-1
3.724213854E0,4.893443733E-2,-4.546529949E-1,-1.643228978E-1
3.726715937E0,9.261044115E-2,-4.248259962E-1,-1.440829039E-1
3.729218125E0,1.309594363E-1,-3.928680122E-1,-1.259728968E-1
3.731720312E0,1.714394391E-1,-3.683670163E-1,-1.046679020E-1
3.734222448E0,2.161804289E-1,-3.406700194E-1,-8.762390167E-2
3.736724583E0,2.587914467E-1,-3.119080067E-1,-6.951390207E-2
3.739226771E0,2.982054353E-1,-2.863419950E-1,-5.460090935E-2
3.741767656E0,3.397504389E-1,-2.575800121E-1,-3.329590708E-2
3.744269792E0,3.791654408E-1,-2.309480011E-1,-1.092490647E-2
3.746771927E0,4.185804427E-1,-2.043170035E-1,5.053093657E-3
3.749274115E0,4.526684582E-1,-1.819460094E-1,1.996609382E-2
3.751776250E0,4.846264422E-1,-1.606409997E-1,3.701109067E-2
3.754278437E0,5.123234391E-1,-1.393360049E-1,5.299009383E-2
3.756780573E0,5.389544368E-1,-1.265529990E-1,6.683809310E-2
3.759282760E0,5.613254309E-1,-1.127039939E-1,8.388209343E-2
3.761784896E0,5.794343948E-1,-9.672499448E-2,9.773009270E-2
3.764287031E0,5.943484306E-1,-8.713799715E-2,1.073180959E-1
3.766789219E0,6.081964374E-1,-7.968099415E-2,1.169050932E-1
3.769291354E0,6.156533957E-1,-7.435499877E-2,1.254270971E-1
3.771752708E0,6.199144125E-1,-6.583299488E-2,1.286230981E-1
3.774254844E0,6.263054013E-1,-5.944100022E-2,1.360801011E-1
3.776757031E0,6.263054013E-1,-5.305000022E-2,1.328841001E-1
3.779259219E0,6.273714304E-1,-4.559300095E-2,1.328841001E-1
3.781761354E0,6.273714304E-1,-3.600599989E-2,1.307530999E-1
3.784263542E0,6.273714304E-1,-2.854899876E-2,1.339491010E-1
3.786765677E0,6.241754293E-1,-2.002699859E-2,1.318190992E-1
3.789267865E0,6.209794283E-1,-1.150500029E-2,1.328841001E-1
3.791769948E0,6.188493967E-1,-7.244000211E-3,1.328841001E-1
3.794272135E0,6.167184114E-1,1.277999952E-3,1.328841001E-1
3.796774323E0,6.113924384E-1,6.603999995E-3,1.350151002E-1
3.799276458E0,6.081964374E-1,1.299500000E-2,1.360801011E-1
3.801779844E0,6.092613935E-1,2.258300036E-2,1.403411031E-1
3.804282031E0,6.103264093E-1,3.004000150E-2,1.509930938E-1
3.806784219E0,6.092613935E-1,3.430099785E-2,1.595160961E-1
3.809286354E0,6.103264093E-1,3.749600053E-2,1.669721007E-1
3.811788490E0,6.156533957E-1,4.069199786E-2,1.765600890E-1
3.814290677E0,6.177834272E-1,3.856199980E-2,1.914730966E-1
3.816792812E0,6.252404451E-1,3.643099964E-2,2.031911016E-1
3.819294948E0,6.316323876E-1,2.897400036E-2,2.170400918E-1
3.821797135E0,6.412194371E-1,1.938700117E-2,2.266270965E-1
3.824299271E0,6.518723965E-1,4.472999834E-3,2.372791022E-1
3.826801458E0,6.657204032E-1,-1.470000017E-2,2.479320914E-1
3.829303594E0,6.859604120E-1,-3.174500167E-2,2.585850954E-1
3.831825469E0,7.051354051E-1,-4.878900200E-2,2.671070695E-1
3.834327604E0,7.296364307E-1,-7.009399682E-2,2.734980881E-1
3.836829792E0,7.573324442E-1,-9.139899909E-2,2.788250744E-1
3.839331927E0,7.860944271E-1,-1.148349941E-1,2.841510773E-1
3.841834062E0,8.159224391E-1,-1.404010057E-1,2.894770801E-1
3.844336250E0,8.532063961E-1,-1.670330018E-1,2.916080952E-1
3.846838385E0,8.872944117E-1,-1.947290003E-1,2.948040664E-1
3.849340573E0,9.224483967E-1,-2.213610113E-1,2.990650833E-1
3.851842708E0,9.554713964E-1,-2.490580082E-1,3.054560721E-1
3.854344844E0,9.906244278E-1,-2.778199911E-1,3.118480742E-1
3.856846979E0,1.024713397E0,-3.033860028E-1,3.139780760E-1
3.859349167E0,1.054540396E0,-3.332130015E-1,3.161090910E-1
3.861872187E0,1.084367394E0,-3.609099984E-1,3.161090910E-1
3.864374323E0,1.106738448E0,-3.864760101E-1,3.150430918E-1
3.866876510E0,1.125912428E0,-4.141730070E-1,3.086520731E-1
3.869378646E0,1.140826464E0,-4.440000057E-1,3.033260703E-1
3.871880781E0,1.157870412E0,-4.663709998E-1,2.958690822E-1
3.874382917E0,1.165327430E0,-4.951330125E-1,2.862810791E-1
3.876885104E0,1.172784448E0,-5.228289962E-1,2.724330723E-1
3.879387292E0,1.177045465E0,-5.515909791E-1,2.628460824E-1
3.881889427E0,1.181306362E0,-5.792879462E-1,2.479320914E-1
3.884391562E0,1.181306362E0,-6.123109460E-1,2.287570983E-1
3.886893698E0,1.175980449E0,-6.453339458E-1,2.127790898E-1
3.889395885E0,1.170653462E0,-6.772919893E-1,1.904080957E-1
3.891874948E0,1.163196445E0,-7.060539722E-1,1.659070998E-1
3.894377083E0,1.152544379E0,-7.337509990E-1,1.424710900E-1
3.896879219E0,1.140826464E0,-7.518599629E-1,1.179700941E-1
3.899381406E0,1.129108429E0,-7.625129819E-1,9.773009270E-2
3.901883542E0,1.113129377E0,-7.774269581E-1,7.429509610E-2
3.904385729E0,1.091824412E0,-7.870139480E-1,4.872809350E-2
3.906887865E0,1.066258430E0,-7.870139480E-1,2.422709391E-2
3.909390052E0,1.038561463E0,-7.784919739E-1,-4.533906002E-3
3.911892187E0,1.000212431E0,-7.625129819E-1,-3.116490506E-2
3.914394323E0,9.533404112E-1,-7.444039583E-1,-5.779690668E-2
3.916896510E0,9.043384194E-1,-7.199029922E-1,-8.655890077E-2
3.919398646E0,8.510754108E-1,-6.922059655E-1,-1.185159013E-1
3.921927135E0,7.946164012E-1,-6.549219489E-1,-1.494089067E-1
3.924429271E0,7.275054455E-1,-6.165719628E-1,-1.803009063E-1
3.926931458E0,6.582634449E-1,-5.814189911E-1,-2.090629041E-1
3.929433594E0,5.858263969E-1,-5.473299623E-1,-2.378249019E-1
3.931935729E0,5.080624223E-1,-5.175029635E-1,-2.676529288E-1
3.934437865E0,4.271024466E-1,-4.961979985E-1,-2.932189107E-1
3.936940052E0,3.472074568E-1,-4.812839925E-1,-3.198509216E-1
3.939442240E0,2.619864345E-1,-4.759580195E-1,-3.390249312E-1
3.941944375E0,1.810274273E-1,-4.802190065E-1,-3.592649102E-1
3.944446510E0,9.474144131E-2,-4.908719957E-1,-3.795049191E-1
3.946948698E0,1.378143765E-2,-5.036549568E-1,-3.954839110E-1
3.949450833E0,-6.291656196E-2,-5.228289962E-1,-4.061369300E-1
3.951928333E0,-1.385495663E-1,-5.462649465E-1,-4.189199209E-1
3.954430469E0,-2.067265660E-1,-5.686360002E-1,-4.274419248E-1
3.956932604E0,-2.727725506E-1,-5.856799483E-1,-4.317029119E-1
3.959434792E0,-3.377535641E-1,-6.005929708E-1,-4.306379259E-1
3.961936927E0,-3.974075615E-1,-6.133769751E-1,-4.306379259E-1
3.964439062E0,-4.506705403E-1,-6.314859986E-1,-4.253109097E-1
3.966941250E0,-5.028685927E-1,-6.527909636E-1,-4.210499227E-1
3.969443437E0,-5.550665855E-1,-6.687699556E-1,-4.157239199E-1
3.971945573E0,-5.998075604E-1,-6.847489476E-1,-4.072019160E-1
3.974447708E0,-6.434835792E-1,-7.071189880E-1,-3.890919089E-1
3.976949844E0,-6.882236004E-1,-7.358809710E-1,-3.773749173E-1
3.979452031E0,-7.233775854E-1,-7.774269581E-1,-3.571349084E-1
3.981981094E0,-7.510746121E-1,-8.189719915E-1,-3.315679133E-1
3.984483229E0,-7.702485919E-1,-8.743649721E-1,-3.081329167E-1
3.986985365E0,-7.840976119E-1,-9.425419569E-1,-2.825659215E-1
3.989487552E0,-7.840976119E-1,-1.010718942E0,-2.569999099E-1
3.991989687E0,-7.691835761E-1,-1.082090974E0,-2.261079103E-1
3.994491875E0,-7.414866090E-1,-1.154528975E0,-1.941498965E-1
3.996994010E0,-6.946156025E-1,-1.226966023E0,-1.653878987E-1
3.999496198E0,-6.306995749E-1,-1.295143008E0,-1.270378977E-1
4.001998333E0,-5.486745834E-1,-1.357993007E0,-8.442790061E-2
4.004500469E0,-4.496055543E-1,-1.412321925E0,-3.649090603E-2
4.007002656E0,-3.441445529E-1,-1.457062006E0,2.103209496E-2
4.009504792E0,-2.354885638E-1,-1.492215991E0,8.388209343E-2
4.011995365E0,-1.215055585E-1,-1.508194923E0,1.595160961E-1
4.014497500E0,-1.924056187E-2,-1.508194923E0,2.362141013E-1
4.016999687E0,6.810943782E-2,-1.475171924E0,3.139780760E-1
4.019501823E0,1.373514384E-1,-1.408059955E0,3.874810934E-1
4.022003958E0,1.927454323E-1,-1.303664923E0,4.513970912E-1
4.024506146E0,2.225724310E-1,-1.158789992E0,5.014641285E-1
4.027008281E0,2.257684320E-1,-9.840869904E-1,5.323570967E-1
4.029510469E0,2.044624388E-1,-7.827529907E-1,5.408791304E-1
4.032012604E0,1.650484353E-1,-5.750269890E-1,5.366181135E-1
4.034514740E0,1.139154360E-1,-3.641059995E-1,5.270301104E-1
4.037016927E0,5.745743588E-2,-1.606409997E-1,5.121170878E-1
4.039519062E0,9.984376375E-4,2.790900134E-2,4.993330836E-1
4.041997292E0,-4.693756253E-2,2.079380006E-1,4.844200909E-1
4.044499427E0,-8.209156245E-2,3.762489855E-1,4.748320878E-1
4.047001615E0,-9.593956172E-2,5.307120085E-1,4.609840810E-1
4.049503750E0,-9.061355889E-2,6.702610254E-1,4.439400733E-1
4.052005937E0,-6.504656374E-2,7.970270514E-1,4.205040932E-1
4.054508073E0,-1.711056195E-2,9.067490101E-1,3.981340826E-1
4.057010260E0,3.934743628E-2,1.013275027E0,3.832200766E-1
4.059512396E0,1.000674367E-1,1.118735075E0,3.736330867E-1
4.062014531E0,1.501344293E-1,1.225260973E0,3.672410846E-1
4.064516667E0,1.735704392E-1,1.333917975E0,3.640450835E-1
4.067018854E0,1.735704392E-1,1.424465060E0,3.565890789E-1
4.069521042E0,1.458734274E-1,1.478793025E0,3.470010757E-1
4.072056615E0,1.021974385E-1,1.491576076E0,3.363490701E-1
4.074558750E0,4.041243717E-2,1.471336007E0,3.203700781E-1
4.077060937E0,-3.628456593E-2,1.430855989E0,2.969340682E-1
4.079563073E0,-1.140485629E-1,1.391442060E0,2.639110684E-1
4.082065208E0,-1.971395612E-1,1.371201992E0,2.181050926E-1
4.084567396E0,-2.717075646E-1,1.377593040E0,1.595160961E-1
4.087069531E0,-3.313615620E-1,1.420204043E0,9.560009837E-2
4.089571719E0,-3.761025667E-1,1.489446044E0,3.807609156E-2
4.092073854E0,-3.995385468E-1,1.568274975E0,-1.305590663E-2
4.094575990E0,-4.027345479E-1,1.649235010E0,-5.779690668E-2
4.097078177E0,-3.771685660E-1,1.733389974E0,-9.294990450E-2
4.099580312E0,-3.260355592E-1,1.814350009E0,-1.174509004E-1
4.102056302E0,-2.493365705E-1,1.892114043E0,-1.312988997E-1
4.104558490E0,-1.502675712E-1,1.956030011E0,-1.419519037E-1
4.107060677E0,-3.521956503E-2,1.999705076E0,-1.387559026E-1
4.109562865E0,8.834943920E-2,2.025271893E0,-1.323648989E-1
4.112065000E0,2.055284381E-1,2.030597925E0,-1.259728968E-1
4.114567187E0,3.152494431E-1,2.018879890E0,-1.195819005E-1
4.117069375E0,4.121884406E-1,1.989053011E0,-1.131899059E-1
4.119571510E0,4.974094331E-1,1.940051079E0,-1.131899059E-1
4.122073698E0,5.730423927E-1,1.878265977E0,-1.142549068E-1
4.124575833E0,6.337624192E-1,1.795175076E0,-1.078639030E-1
4.127078021E0,6.880904436E-1,1.703562975E0,-9.401490539E-2
4.129580208E0,7.338973880E-1,1.605558991E0,-7.697090507E-2
4.132102656E0,7.786384225E-1,1.515012026E0,-5.673090741E-2
4.134604792E0,8.255094290E-1,1.435117006E0,-2.796890587E-2
4.137106979E0,8.745114207E-1,1.366940975E0,-1.337906346E-3
4.139609167E0,9.320354462E-1,1.315808058E0,2.316209488E-2
4.142111302E0,9.959514141E-1,1.276394010E0,5.192409083E-2
4.144613490E0,1.065193415E0,1.246566057E0,7.749009877E-2
4.147115677E0,1.137630463E0,1.219935060E0,1.041220948E-1
4.149617812E0,1.211133361E0,1.202890992E0,1.307530999E-1
4.152120000E0,1.287832379E0,1.187977076E0,1.563200951E-1
4.154622187E0,1.361335397E0,1.173063993E0,1.744290888E-1
4.157124323E0,1.439099431E0,1.152824044E0,1.978650987E-1
4.159626510E0,1.517928362E0,1.127256989E0,2.287570983E-1
4.162141094E0,1.586105466E0,1.097429991E0,2.660420835E-1
4.164643229E0,1.642563462E0,1.063341975E0,3.075870872E-1
4.167145417E0,1.690500379E0,1.015405059E0,3.480670750E-1
4.169647604E0,1.722458363E0,9.557500482E-1,3.810900748E-1
4.172149740E0,1.741633415E0,8.950310349E-1,4.077210724E-1
4.174651927E0,1.749089360E0,8.353760242E-1,4.237000942E-1
4.177154115E0,1.743763447E0,7.831780314E-1,4.215690792E-1
4.179656250E0,1.726719379E0,7.299150229E-1,4.077210724E-1
4.182158437E0,1.700087428E0,6.819790006E-1,3.896120787E-1
4.184660573E0,1.662803411E0,6.361719966E-1,3.651110828E-1
4.187162760E0,1.619128466E0,5.903660059E-1,3.331530690E-1
4.189664948E0,1.572256446E0,5.488210320E-1,3.022600710E-1
4.192147760E0,1.520059466E0,5.168630481E-1,2.713680863E-1
4.194649948E0,1.460404396E0,4.955579937E-1,2.404751033E-1
4.197152135E0,1.400749445E0,4.838399887E-1,2.159740925E-1
4.199654271E0,1.335769415E0,4.838399887E-1,1.861470938E-1
4.202156458E0,1.271853447E0,4.870359898E-1,1.563200951E-1
4.204658646E0,1.209003448E0,4.966230094E-1,1.307530999E-1
4.207160781E0,1.147218466E0,5.115370154E-1,1.094480976E-1
4.209662969E0,1.090759397E0,5.328420401E-1,8.814309537E-2
4.212165156E0,1.036430359E0,5.456250310E-1,6.683809310E-2
4.214667292E0,9.938204288E-1,5.541470051E-1,5.938109383E-2
4.217169479E0,9.607974291E-1,5.594740510E-1,5.725109205E-2
4.219671615E0,9.405574203E-1,5.584080219E-1,6.470709294E-2
4.222195521E0,9.224483967E-1,5.456250310E-1,7.962109894E-2
4.224697656E0,9.149914384E-1,5.072759986E-1,1.030570939E-1
4.227199792E0,9.160563946E-1,4.529480040E-1,1.296880990E-1
4.229701979E0,9.128603935E-1,3.986189961E-1,1.637770981E-1
4.232204167E0,9.075344205E-1,3.560090065E-1,2.031911016E-1
4.234706354E0,9.022083879E-1,3.165940046E-1,2.372791022E-1
4.237208542E0,8.958164454E-1,2.835710049E-1,2.649760842E-1
4.239710677E0,8.830333948E-1,2.548089921E-1,2.905420959E-1
4.242212865E0,8.691853881E-1,2.175249904E-1,3.118480742E-1
4.244715052E0,8.606634140E-1,1.823719889E-1,3.288920820E-1
4.247217187E0,8.500103951E-1,1.589359939E-1,3.416750729E-1
4.249719375E0,8.393574357E-1,1.354999989E-1,3.491320908E-1
4.252211094E0,8.340314031E-1,1.152600050E-1,3.523280919E-1
4.254713229E0,8.329664469E-1,9.502000362E-2,3.523280919E-1
4.257215417E0,8.265744448E-1,8.756399900E-2,3.501970768E-1
4.259717604E0,8.105953932E-1,1.035420001E-1,3.587190807E-1
4.262219740E0,7.903554440E-1,1.333699971E-1,3.651110828E-1
4.264721927E0,7.647894025E-1,1.823719889E-1,3.640450835E-1
4.267224115E0,7.349624038E-1,2.430920005E-1,3.512620926E-1
4.269726250E0,7.104614377E-1,3.080720007E-1,3.331530690E-1
4.272228437E0,6.934174299E-1,3.666619956E-1,3.118480742E-1
4.274730625E0,6.848953962E-1,4.145979881E-1,2.884120941E-1
4.277232760E0,6.859604120E-1,4.550780058E-1,2.617800832E-1
4.279734948E0,6.934174299E-1,5.040799975E-1,2.362141013E-1
4.282211250E0,6.976784468E-1,5.765179992E-1,2.117130905E-1
4.284713437E0,6.934174299E-1,6.521510482E-1,1.904080957E-1
4.287215573E0,6.923524141E-1,7.235240340E-1,1.691031009E-1
4.289717760E0,6.944824457E-1,7.842440009E-1,1.509930938E-1
4.292219948E0,6.923524141E-1,8.332460523E-1,1.318190992E-1
4.294722083E0,6.902214289E-1,8.673340082E-1,1.115790978E-1
4.297224271E0,6.966134310E-1,8.897040486E-1,9.453509748E-2
4.299726406E0,7.072654366E-1,9.024870396E-1,7.962109894E-2
4.302228594E0,7.157874107E-1,9.024870396E-1,6.577309966E-2
4.304730781E0,7.285704017E-1,8.982260227E-1,5.512009189E-2
4.307232969E0,7.445493937E-1,8.918350339E-1,4.766309261E-2
4.309735104E0,7.615934014E-1,8.843780160E-1,4.340209067E-2
4.312267604E0,7.786384225E-1,8.801169991E-1,4.979409277E-2
4.314769740E0,7.956824303E-1,8.843780160E-1,5.085909367E-2
4.317271927E0,8.116614223E-1,8.833130002E-1,5.618509278E-2
4.319774062E0,8.255094290E-1,8.726600409E-1,6.364209950E-2
4.322276250E0,8.425534368E-1,8.641380072E-1,7.216409594E-2
4.324778437E0,8.627934456E-1,8.470939994E-1,8.068609983E-2
4.327280625E0,8.819684386E-1,8.140709996E-1,8.814309537E-2
4.329782760E0,9.011424184E-1,7.767870426E-1,9.666509926E-2
4.332284948E0,9.128603935E-1,7.373720407E-1,1.115790978E-1
4.334787135E0,9.192523956E-1,6.905010343E-1,1.264920980E-1
4.337289271E0,9.299044013E-1,6.340420246E-1,1.392761022E-1
4.339791458E0,9.490793943E-1,5.594740510E-1,1.446020901E-1
4.342263646E0,9.629284143E-1,4.976890087E-1,1.509930938E-1
4.344765833E0,9.650584459E-1,4.859710038E-1,1.722991019E-1
4.347267969E0,9.607974291E-1,4.763830006E-1,1.968000978E-1
4.349770156E0,9.490793943E-1,4.561440051E-1,2.223660946E-1
4.352272344E0,9.309704304E-1,4.369689822E-1,2.489970922E-1
4.354774479E0,9.022083879E-1,4.177939892E-1,2.713680863E-1
4.357276667E0,8.670544028E-1,3.986189961E-1,3.011950850E-1
4.359778854E0,8.308354020E-1,3.655959964E-1,3.256960809E-1
4.362280990E0,7.892904282E-1,3.187249899E-1,3.480670750E-1
4.364783177E0,7.488104105E-1,2.612009943E-1,3.651110828E-1
4.367285365E0,7.093964219E-1,2.058070004E-1,3.800240755E-1
4.369787500E0,6.742424369E-1,1.706539989E-1,3.949380815E-1
4.372293750E0,6.433504224E-1,1.525439918E-1,4.055910707E-1
4.374795937E0,6.124573946E-1,1.440219879E-1,4.141130745E-1
4.377298125E0,5.900874138E-1,1.312389970E-1,4.194390774E-1
4.379800260E0,5.730423927E-1,1.205869988E-1,4.205040932E-1
4.382302448E0,5.538684130E-1,1.259129941E-1,4.173080921E-1
4.384804635E0,5.368244052E-1,1.323039979E-1,4.109170735E-1
4.387306771E0,5.208454132E-1,1.376309991E-1,4.013300836E-1
4.389808958E0,5.080624223E-1,1.557399929E-1,3.938730955E-1
4.392311146E0,4.963444471E-1,1.855669916E-1,3.832200766E-1
4.394813281E0,4.867564440E-1,2.153949887E-1,3.736330867E-1
4.397315469E0,4.835614562E-1,2.409610003E-1,3.608500957E-1
4.399817656E0,4.888874590E-1,2.622659802E-1,3.480670750E-1
4.402323594E0,4.920834601E-1,2.846370041E-1,3.374140859E-1
4.404825781E0,5.038003922E-1,3.027459979E-1,3.246310949E-1
4.407327917E0,5.144534111E-1,3.208560050E-1,3.118480742E-1
4.409830104E0,5.187144279E-1,3.315079808E-1,2.990650833E-1
4.412332292E0,5.219104290E-1,3.357689977E-1,2.894770801E-1
4.414834427E0,5.219104290E-1,3.336389959E-1,2.788250744E-1
4.417336615E0,5.144534111E-1,3.261820078E-1,2.724330723E-1
4.419838802E0,5.101923943E-1,3.144640028E-1,2.692370713E-1
4.422340937E0,5.027354360E-1,3.006159961E-1,2.660420835E-1
4.424843125E0,4.899524450E-1,2.878319919E-1,2.607150674E-1
4.427345260E0,4.846264422E-1,2.739839852E-1,2.607150674E-1
4.429847448E0,4.750384390E-1,2.643969953E-1,2.575190961E-1
4.432361771E0,4.665164351E-1,2.558749914E-1,2.553890944E-1
4.434863958E0,4.654514492E-1,2.441570014E-1,2.564540803E-1
4.437366146E0,4.675824344E-1,2.324389964E-1,2.585850954E-1
4.439868333E0,4.707774520E-1,2.217859924E-1,2.617800832E-1
4.442370469E0,4.718434513E-1,2.121989876E-1,2.681720853E-1
4.444872656E0,4.761044383E-1,2.026119977E-1,2.734980881E-1
4.447374844E0,4.835614562E-1,1.940899938E-1,2.830860913E-1
4.449876979E0,4.835614562E-1,1.855669916E-1,2.926730812E-1
4.452379167E0,4.910174608E-1,1.749150008E-1,3.022600710E-1
4.454881354E0,4.931484461E-1,1.621319950E-1,3.129130900E-1
4.457383490E0,4.995394349E-1,1.536099911E-1,3.267610669E-1
4.459885677E0,5.038003922E-1,1.450880021E-1,3.374140859E-1
4.462370990E0,5.091274381E-1,1.354999989E-1,3.533930779E-1
4.464873125E0,5.112574100E-1,1.301739961E-1,3.672410846E-1
4.467375312E0,5.112574100E-1,1.248480007E-1,3.821550906E-1
4.469877500E0,5.144534111E-1,1.237820014E-1,3.970680833E-1
4.472379635E0,5.165843964E-1,1.259129941E-1,4.119820893E-1
4.474881823E0,5.176494122E-1,1.227170005E-1,4.268960953E-1
4.477384010E0,5.165843964E-1,1.248480007E-1,4.407440722E-1
4.479886198E0,5.155184269E-1,1.259129941E-1,4.535270929E-1
4.482388333E0,5.165843964E-1,1.269779950E-1,4.695060849E-1
4.484890521E0,5.176494122E-1,1.269779950E-1,4.854850769E-1
4.487392656E0,5.144534111E-1,1.227170005E-1,5.003991127E-1
4.489894844E0,5.176494122E-1,1.248480007E-1,5.142471194E-1
4.492435833E0,5.229754448E-1,1.227170005E-1,5.270301104E-1
4.494937969E0,5.304324031E-1,1.205869988E-1,5.419440866E-1
4.497440156E0,5.368244052E-1,1.216519997E-1,5.557920933E-1
4.499942344E0,5.474764109E-1,1.237820014E-1,5.675101280E-1
4.502444479E0,5.581294298E-1,1.269779950E-1,5.813581347E-1
4.504946667E0,5.666514039E-1,1.323039979E-1,5.888150930E-1
4.507448854E0,5.815644264E-1,1.386960000E-1,6.005331278E-1
4.509950990E0,5.954134464E-1,1.493489891E-1,6.101201177E-1
4.512453177E0,6.071314216E-1,1.621319950E-1,6.165121198E-1
4.514955312E0,6.220444441E-1,1.802409887E-1,6.292951107E-1
4.517457500E0,6.380234361E-1,1.962199956E-1,6.367521286E-1
4.519959687E0,6.550674438E-1,2.100680023E-1,6.431441307E-1
4.522430104E0,6.806344390E-1,2.239169925E-1,6.537961364E-1
4.524932292E0,7.083303928E-1,2.388300002E-1,6.623181105E-1
4.527434427E0,7.360274196E-1,2.494829893E-1,6.719061136E-1
4.529936615E0,7.658544183E-1,2.526789904E-1,6.782971025E-1
4.532438802E0,7.967474461E-1,2.516140044E-1,6.868191361E-1
4.534940937E0,8.297704458E-1,2.548089921E-1,6.942760944E-1
4.537443125E0,8.574674129E-1,2.526789904E-1,7.070590854E-1
4.539945312E0,8.840984106E-1,2.473530024E-1,7.198421359E-1
4.542447448E0,9.054043889E-1,2.409610003E-1,7.304950953E-1
4.544949635E0,9.224483967E-1,2.313739955E-1,7.400820851E-1
4.547451771E0,9.362964034E-1,2.175249904E-1,7.528651357E-1
4.549953958E0,9.490793943E-1,2.026119977E-1,7.688441277E-1
4.552437135E0,9.586673975E-1,1.855669916E-1,7.826930881E-1
4.554939323E0,9.703844190E-1,1.717189997E-1,7.976061106E-1
4.557441510E0,9.746454358E-1,1.578709930E-1,8.093240857E-1
4.559943646E0,9.778414369E-1,1.450880021E-1,8.242381215E-1
4.562445833E0,9.746454358E-1,1.365659982E-1,8.370211124E-1
4.564948021E0,9.650584459E-1,1.259129941E-1,8.476731181E-1
4.567450156E0,9.544054270E-1,1.237820014E-1,8.508691192E-1
4.569952344E0,9.437534213E-1,1.259129941E-1,8.519350886E-1
4.572454531E0,9.309704304E-1,1.333699971E-1,8.530001044E-1
4.574956667E0,9.117954373E-1,1.418920010E-1,8.530001044E-1
4.577458854E0,8.990124464E-1,1.557399929E-1,8.466081023E-1
4.579961042E0,8.872944117E-1,1.759800017E-1,8.412821293E-1
4.582486354E0,8.702504039E-1,1.951549947E-1,8.284991384E-1
4.584988542E0,8.446844220E-1,2.164599895E-1,8.189111352E-1
4.587490677E0,8.244444132E-1,2.356349975E-1,8.071941137E-1
4.589992865E0,7.999433875E-1,2.558749914E-1,7.901490927E-1
4.592495052E0,7.701154351E-1,2.771799862E-1,7.773661017E-1
4.594997187E0,7.360274196E-1,2.974199951E-1,7.613871098E-1
4.597499375E0,6.998084188E-1,3.080720007E-1,7.432780862E-1
4.600001562E0,6.518723965E-1,3.240509927E-1,7.241030931E-1
4.602503698E0,6.092613935E-1,3.410950005E-1,7.059941292E-1
4.605005885E0,5.645204186E-1,3.506830037E-1,6.900151372E-1
4.607508021E0,5.155184269E-1,3.570739925E-1,6.740360856E-1
4.610010208E0,4.643864334E-1,3.677269816E-1,6.559271216E-1
4.612540365E0,4.175144434E-1,3.751839995E-1,6.388831139E-1
4.615042552E0,3.727744520E-1,3.837060034E-1,6.197081208E-1
4.617544792E0,3.344244361E-1,3.975539804E-1,6.026641130E-1
4.620046979E0,3.014014363E-1,4.188590050E-1,5.813581347E-1
4.622549219E0,2.758354545E-1,4.401649833E-1,5.557920933E-1
4.625051406E0,2.513344586E-1,4.593389928E-1,5.334221125E-1
4.627553594E0,2.321594357E-1,4.806450009E-1,5.121170878E-1
4.630055833E0,2.161804289E-1,5.051450133E-1,4.897460938E-1
4.632558021E0,2.012674361E-1,5.243200064E-1,4.673760831E-1
4.635060260E0,1.884844303E-1,5.445600152E-1,4.503310919E-1
4.637562448E0,1.735704392E-1,5.584080219E-1,4.332870841E-1
4.640064635E0,1.607874334E-1,5.733219981E-1,4.173080921E-1
4.642530833E0,1.458734274E-1,5.797140002E-1,4.034600854E-1
4.645033073E0,1.266984344E-1,5.871710181E-1,3.970680833E-1
4.647535260E0,1.096544415E-1,5.978230238E-1,3.853510916E-1
4.650037448E0,8.941444010E-2,6.074100137E-1,3.800240755E-1
4.652539687E0,6.171843410E-2,6.138020158E-1,3.768290877E-1
4.655041875E0,3.295643628E-2,6.244550347E-1,3.693720698E-1
4.657544115E0,6.324437447E-3,6.372380257E-1,3.661760688E-1
4.660046302E0,-2.563256212E-2,6.489560008E-1,3.597840667E-1
4.662548542E0,-6.078556553E-2,6.638690233E-1,3.565890789E-1
4.665050729E0,-9.274356067E-2,6.841090322E-1,3.480670750E-1
4.667552969E0,-1.236365587E-1,7.075450420E-1,3.395440876E-1
4.670055156E0,-1.555935740E-1,7.299150229E-1,3.310220838E-1
4.672583177E0,-1.875515729E-1,7.544160485E-1,3.214350939E-1
4.675085417E0,-2.141835690E-1,7.821130157E-1,3.075870872E-1
4.677587604E0,-2.397495657E-1,8.055490255E-1,2.916080952E-1
4.680089844E0,-2.610545456E-1,8.257890344E-1,2.756290734E-1
4.682592031E0,-2.866205573E-1,8.417680264E-1,2.585850954E-1
4.685094219E0,-3.143175542E-1,8.524200320E-1,2.404751033E-1
4.687596458E0,-3.409495652E-1,8.598770499E-1,2.266270965E-1
4.690098698E0,-3.697115481E-1,8.630730510E-1,2.074521035E-1
4.692600885E0,-3.984735608E-1,8.630730510E-1,1.914730966E-1
4.695103073E0,-4.314965606E-1,8.545510173E-1,1.733641028E-1
4.697605312E0,-4.634545445E-1,8.417680264E-1,1.488630921E-1
4.700107500E0,-4.932815433E-1,8.236580491E-1,1.232970953E-1
4.702621719E0,-5.188475847E-1,8.066140413E-1,9.240409732E-2
4.705123906E0,-5.454795957E-1,7.885050178E-1,5.831609294E-2
4.707626146E0,-5.731756091E-1,7.629380226E-1,2.635809407E-2
4.710128333E0,-6.040685773E-1,7.341760397E-1,-7.728906348E-3
4.712630573E0,-6.413525939E-1,7.032840252E-1,-3.755690902E-2
4.715132760E0,-6.839625835E-1,6.596080065E-1,-6.631890684E-2
4.717634948E0,-7.372255921E-1,6.095409989E-1,-8.975390345E-2
4.720137187E0,-7.990115881E-1,5.616040230E-1,-1.131899059E-1
4.722639375E0,-8.597306013E-1,5.104719996E-1,-1.344949007E-1
4.725141615E0,-9.215155840E-1,4.518820047E-1,-1.611268967E-1
4.727643802E0,-9.864965677E-1,3.975539804E-1,-1.898889095E-1
4.730145990E0,-1.041890621E0,3.389649987E-1,-2.207809091E-1
4.732648073E0,-1.095153570E0,2.814410031E-1,-2.538039088E-1
4.735150260E0,-1.147351623E0,2.249819934E-1,-2.964149117E-1
4.737652448E0,-1.195287585E0,1.727840006E-1,-3.347639143E-1
4.740154687E0,-1.238963604E0,1.184560061E-1,-3.784399331E-1
4.742656927E0,-1.282639623E0,6.412800401E-2,-4.189199209E-1
4.745159115E0,-1.323118567E0,1.277999952E-3,-4.615299106E-1
4.747661302E0,-1.366794586E0,-6.796299666E-2,-5.041399002E-1
4.750163542E0,-1.414731622E0,-1.425320059E-1,-5.446199179E-1
4.752665729E0,-1.464798570E0,-2.266869992E-1,-5.861659050E-1
4.755167969E0,-1.512735605E0,-3.108429909E-1,-6.287758946E-1
4.757670156E0,-1.564932585E0,-3.971289992E-1,-6.671248674E-1
4.760172344E0,-1.617130637E0,-4.876759946E-1,-7.065398693E-1
4.762638073E0,-1.672524571E0,-5.824839473E-1,-7.470198870E-1
4.765140312E0,-1.720460534E0,-6.826179624E-1,-7.928258777E-1
4.767642500E0,-1.776919603E0,-7.923399806E-1,-8.396968842E-1
4.770144687E0,-1.831247568E0,-9.020619988E-1,-8.855038881E-1
4.772646927E0,-1.885576606E0,-1.016044974E0,-9.259828925E-1
4.775149115E0,-1.942034602E0,-1.124701023E0,-9.685938954E-1
4.777651354E0,-2.004885435E0,-1.232293010E0,-1.006942987E0
4.780153542E0,-2.066670418E0,-1.333491921E0,-1.039965987E0
4.782655781E0,-2.127390385E0,-1.417647958E0,-1.068727970E0
4.785157969E0,-2.183849573E0,-1.487954974E0,-1.093228936E0
4.787660156E0,-2.230720520E0,-1.544413924E0,-1.116665006E0
4.790162396E0,-2.265874386E0,-1.579566956E0,-1.134773970E0
4.792698333E0,-2.291440487E0,-1.604067922E0,-1.148622990E0
4.795200521E0,-2.308484554E0,-1.622177958E0,-1.167796969E0
4.797702708E0,-2.321267366E0,-1.622177958E0,-1.177384973E0
4.800204948E0,-2.335115433E0,-1.603003025E0,-1.180580974E0
4.802707135E0,-2.348964453E0,-1.566784024E0,-1.181645989E0
4.805209375E0,-2.366008520E0,-1.513520956E0,-1.176319957E0
4.807711562E0,-2.383052349E0,-1.453866959E0,-1.165666938E0
4.810213802E0,-2.400096416E0,-1.391016006E0,-1.144361973E0
4.812715990E0,-2.421401501E0,-1.323904991E0,-1.124121904E0
4.815218229E0,-2.442707539E0,-1.245075941E0,-1.104946971E0
4.817720417E0,-2.468273401E0,-1.155593991E0,-1.081510901E0
4.820222656E0,-2.495970488E0,-1.061851025E0,-1.063401937E0
4.822729948E0,-2.525797367E0,-9.595859647E-1,-1.045292974E0
4.825232135E0,-2.556690454E0,-8.562559485E-1,-1.018660903E0
4.827734375E0,-2.574799538E0,-7.550559640E-1,-9.952248931E-1
4.830236562E0,-2.586517572E0,-6.655739546E-1,-9.739198685E-1
4.832738802E0,-2.591843367E0,-5.771579742E-1,-9.515498877E-1
4.835240990E0,-2.586517572E0,-4.823499918E-1,-9.217218757E-1
4.837743177E0,-2.571603537E0,-3.949980140E-1,-8.918948770E-1
4.840245417E0,-2.549233437E0,-3.204300106E-1,-8.599368930E-1
4.842747604E0,-2.511949539E0,-2.543840110E-1,-8.247838616E-1
4.845249792E0,-2.457620382E0,-2.139040083E-1,-8.024128675E-1
4.847752031E0,-2.399031401E0,-1.776850075E-1,-7.864338756E-1
4.850254219E0,-2.339376450E0,-1.233569980E-1,-7.736508846E-1
4.852704375E0,-2.275461435E0,-6.583299488E-2,-7.608678937E-1
4.855206615E0,-2.209415436E0,-2.109199949E-2,-7.502158880E-1
4.857708802E0,-2.139108419E0,1.299500000E-2,-7.470198870E-1
4.860211042E0,-2.077323437E0,3.962699696E-2,-7.448889017E-1
4.862713229E0,-2.015537500E0,5.454099923E-2,-7.480849028E-1
4.865215469E0,-1.961209536E0,6.519300491E-2,-7.523458600E-1
4.867717656E0,-1.912207603E0,7.691100240E-2,-7.502158880E-1
4.870219896E0,-1.863205552E0,9.395500273E-2,-7.523458600E-1
4.872722083E0,-1.824856639E0,1.109990031E-1,-7.576718926E-1
4.875224271E0,-1.795029640E0,1.237820014E-1,-7.651289105E-1
4.877726510E0,-1.764136553E0,1.365659982E-1,-7.800428867E-1
4.880228698E0,-1.739635587E0,1.514789909E-1,-7.992178798E-1
4.882730729E0,-1.719395638E0,1.642619967E-1,-8.194568753E-1
4.885232969E0,-1.705547571E0,1.791759878E-1,-8.407629132E-1
4.887735208E0,-1.694894552E0,1.919589937E-1,-8.588718772E-1
4.890237396E0,-1.690633535E0,2.058070004E-1,-8.769809008E-1
4.892739583E0,-1.693829536E0,2.143299878E-1,-8.886988759E-1
4.895241823E0,-1.703416586E0,2.217859924E-1,-9.014818668E-1
4.897744010E0,-1.717265606E0,2.324389964E-1,-9.217218757E-1
4.900246250E0,-1.722591639E0,2.366999984E-1,-9.504839182E-1
4.902748437E0,-1.724721551E0,2.366999984E-1,-9.867028594E-1
4.905276875E0,-1.725787640E0,2.292429954E-1,-1.030378938E0
4.907779062E0,-1.723656535E0,2.100680023E-1,-1.070858955E0
4.910281250E0,-1.711938620E0,1.823719889E-1,-1.109207988E0
4.912783437E0,-1.694894552E0,1.557399929E-1,-1.132643938E0
4.915285677E0,-1.673589587E0,1.237820014E-1,-1.148622990E0
4.917787865E0,-1.646957636E0,6.945399940E-2,-1.159274936E0
4.920290104E0,-1.611804605E0,-1.043900009E-2,-1.169927955E0
4.922792292E0,-1.584107637E0,-9.779100120E-2,-1.180580974E0
4.925294531E0,-1.557476640E0,-1.627719998E-1,-1.186971903E0
4.927796719E0,-1.536170602E0,-1.947290003E-1,-1.184841990E0
4.930298906E0,-1.519126534E0,-2.043170035E-1,-1.172058940E0
4.932801146E0,-1.505278587E0,-2.032510042E-1,-1.147557974E0
4.935303333E0,-1.485038638E0,-2.426660061E-1,-1.119861007E0
4.937782135E0,-1.455211639E0,-3.300170004E-1,-1.091098905E0
4.940284375E0,-1.418992639E0,-4.333480000E-1,-1.053815007E0
4.942786562E0,-1.381708622E0,-5.356130004E-1,-1.021856904E0
4.945288802E0,-1.347619534E0,-6.282899976E-1,-9.941598773E-1
4.947790990E0,-1.320988536E0,-7.071189880E-1,-9.653978944E-1
4.950293229E0,-1.298617601E0,-7.806219459E-1,-9.313098788E-1
4.952795417E0,-1.281573534E0,-8.509299755E-1,-8.950908780E-1
4.955297656E0,-1.266660571E0,-9.148449898E-1,-8.641979098E-1
4.957799844E0,-1.256007552E0,-9.819559455E-1,-8.269138932E-1
4.960302031E0,-1.246420622E0,-1.049067974E0,-7.874999046E-1
4.962804271E0,-1.235767603E0,-1.106591940E0,-7.470198870E-1
4.965306458E0,-1.225115538E0,-1.159855008E0,-7.065398693E-1
4.967810052E0,-1.214462638E0,-1.201399922E0,-6.649948955E-1
4.970312292E0,-1.201679587E0,-1.232293010E0,-6.319718957E-1
4.972814479E0,-1.179308534E0,-1.251466990E0,-6.021438837E-1
4.975316719E0,-1.150546551E0,-1.253597975E0,-5.765779018E-1
4.977818906E0,-1.121784568E0,-1.255728006E0,-5.542078614E-1
4.980321146E0,-1.088761568E0,-1.255728006E0,-5.446199179E-1
4.982823333E0,-1.053608537E0,-1.249336958E0,-5.382288694E-1
4.985325573E0,-1.012063622E0,-1.241879940E0,-5.360978842E-1
4.987827760E0,-9.694525599E-1,-1.236554027E0,-5.360978842E-1
4.990329948E0,-9.247115850E-1,-1.231226921E0,-5.392938852E-1
4.992832187E0,-8.810365796E-1,-1.216313958E0,-5.424898863E-1
4.995334375E0,-8.341645598E-1,-1.200335026E0,-5.424898863E-1
4.997839219E0,-7.926195860E-1,-1.177963972E0,-5.488808751E-1
5.000341458E0,-7.510746121E-1,-1.152397990E0,-5.542078614E-1
5.002843646E0,-7.116596103E-1,-1.130028009E0,-5.648598671E-1
5.005345885E0,-6.743755937E-1,-1.105526924E0,-5.787088871E-1
5.007848073E0,-6.456136107E-1,-1.077829957E0,-5.968179107E-1
5.010350312E0,-6.157866120E-1,-1.056524992E0,-6.159929037E-1
5.012852500E0,-5.859595537E-1,-1.044806957E0,-6.404938698E-1
5.015354740E0,-5.571965575E-1,-1.039480925E0,-6.660599113E-1
5.017856927E0,-5.273695588E-1,-1.021371007E0,-6.862998605E-1
5.020359115E0,-5.049995780E-1,-1.005391955E0,-7.054749131E-1
5.022861354E0,-4.847595394E-1,-9.915439487E-1,-7.267798781E-1
5.025363542E0,-4.645195603E-1,-9.787609577E-1,-7.448889017E-1
5.027860312E0,-4.432145655E-1,-9.734339714E-1,-7.608678937E-1
5.030362552E0,-4.208435416E-1,-9.659779668E-1,-7.789778709E-1
