"Time (s)","Gyroscope x (rad/s)","Gyroscope y (rad/s)","Gyroscope z (rad/s)"
1.217777610E-1,-1.748638451E-1,2.189644724E-1,2.510234118E-1
1.242122920E-1,-1.809724867E-1,1.988059282E-1,2.693493366E-1
1.266460420E-1,-1.828050911E-1,1.768147945E-1,2.852318287E-1
1.290789590E-1,-1.846376806E-1,1.511584818E-1,3.029469252E-1
1.315127090E-1,-1.809724867E-1,1.255021691E-1,3.237163126E-1
1.339472400E-1,-1.773073077E-1,9.434805065E-2,3.414313793E-1
1.363809380E-1,-1.657008678E-1,6.258308887E-2,3.481509089E-1
1.388139060E-1,-1.577596366E-1,3.265071660E-2,3.585355878E-1
1.412476040E-1,-1.479858011E-1,8.857538342E-4,3.628116548E-1
1.436821880E-1,-1.339359134E-1,-2.782488801E-2,3.695311546E-1
1.461158860E-1,-1.174425632E-1,-5.592466891E-2,3.689202964E-1
1.485488020E-1,-1.070578545E-1,-8.219184726E-2,3.658659756E-1
1.509825520E-1,-9.056451917E-2,-1.029612496E-1,3.664768338E-1
1.534171360E-1,-7.407116890E-2,-1.206763312E-1,3.609790504E-1
1.558508340E-1,-5.513435975E-2,-1.353370696E-1,3.567030132E-1
1.582837500E-1,-4.047360644E-2,-1.445000470E-1,3.499834836E-1
1.607175000E-1,-1.603901759E-2,-1.530521512E-1,3.463183045E-1
1.631520840E-1,4.543289542E-4,-1.597716659E-1,3.359335959E-1
1.655857290E-1,2.427805215E-2,-1.646585763E-1,3.286032379E-1
1.680186980E-1,4.504745454E-2,-1.695455015E-1,3.194402456E-1
1.704523960E-1,6.948204339E-2,-1.701563597E-1,3.108881414E-1
1.728869790E-1,9.636008739E-2,-1.713780910E-1,2.962273955E-1
1.753206770E-1,1.189620793E-1,-1.689346284E-1,2.833992243E-1
1.777536460E-1,1.488944590E-1,-1.683237702E-1,2.632406950E-1
1.801873440E-1,1.678312719E-1,-1.628259867E-1,2.461364865E-1
1.826219270E-1,1.898223907E-1,-1.561064720E-1,2.235344946E-1
1.850556250E-1,2.099809349E-1,-1.487760991E-1,2.082628757E-1
1.874885420E-1,2.252525538E-1,-1.383913904E-1,1.856608838E-1
1.899222920E-1,2.411350310E-1,-1.286175549E-1,1.685566753E-1
1.923568750E-1,2.478545457E-1,-1.194545999E-1,1.496198624E-1
1.947905210E-1,2.539631724E-1,-1.151785478E-1,1.349591166E-1
1.972234900E-1,2.533523142E-1,-1.115133539E-1,1.227418184E-1
1.996572400E-1,2.496871352E-1,-1.139568165E-1,1.080810577E-1
2.020917710E-1,2.423567623E-1,-1.115133539E-1,1.056376100E-1
2.045254690E-1,2.313611954E-1,-1.115133539E-1,9.891809523E-2
2.069584380E-1,2.234199494E-1,-1.109024957E-1,9.952895343E-2
2.093921360E-1,2.032614201E-1,-1.084590331E-1,1.025832742E-1
2.118267190E-1,1.855463386E-1,-1.023503840E-1,1.093027890E-1
2.142604170E-1,1.672203988E-1,-1.054047123E-1,1.135788411E-1
2.166933340E-1,1.482835859E-1,-1.054047123E-1,1.282396019E-1
2.191270840E-1,1.324011087E-1,-1.072373018E-1,1.386242956E-1
2.215616670E-1,1.104099751E-1,-1.102916300E-1,1.496198624E-1
2.239953130E-1,8.964057267E-2,-1.090698987E-1,1.697784066E-1
2.264282810E-1,6.520599127E-2,-1.164002717E-1,1.893260777E-1
2.288620310E-1,3.771707416E-2,-1.341153383E-1,2.088737488E-1
2.312965630E-1,1.389335096E-2,-1.579390615E-1,2.302540094E-1
2.337302610E-1,-1.542815566E-2,-1.762650162E-1,2.504125535E-1
2.361632290E-1,-4.291706905E-2,-1.982561350E-1,2.711819410E-1
2.385969270E-1,-7.590375841E-2,-2.184146792E-1,2.895078957E-1
2.410315110E-1,-1.040035337E-1,-2.336862981E-1,3.133316040E-1
2.434652090E-1,-1.339359134E-1,-2.471253127E-1,3.279923499E-1
2.458981250E-1,-1.583704948E-1,-2.575100362E-1,3.414313793E-1
2.483318750E-1,-1.846376806E-1,-2.660621405E-1,3.548704088E-1
2.507664590E-1,-2.023527622E-1,-2.746142447E-1,3.609790504E-1
2.532001560E-1,-2.176243663E-1,-2.776685655E-1,3.628116548E-1
2.556330730E-1,-2.267873585E-1,-2.795011699E-1,3.634225130E-1
2.580668230E-1,-2.420589626E-1,-2.813337445E-1,3.585355878E-1
2.605014060E-1,-2.475567460E-1,-2.813337445E-1,3.554812670E-1
2.629350520E-1,-2.524436712E-1,-2.776685655E-1,3.475400209E-1
2.653680210E-1,-2.530545294E-1,-2.758359611E-1,3.359335959E-1
2.678017190E-1,-2.487784624E-1,-2.715599239E-1,3.218837082E-1
2.702363020E-1,-2.457241416E-1,-2.648403943E-1,3.060012460E-1
2.726700000E-1,-2.383937836E-1,-2.520122528E-1,2.919513583E-1
2.751029170E-1,-2.292307913E-1,-2.404058129E-1,2.724036872E-1
2.775366670E-1,-2.206786871E-1,-2.263559103E-1,2.546885908E-1
2.799712500E-1,-2.109048665E-1,-2.092517018E-1,2.363626659E-1
2.824049480E-1,-1.992984265E-1,-1.921474934E-1,2.192584425E-1
2.848378650E-1,-1.889137328E-1,-1.780976057E-1,2.015433609E-1
2.872716150E-1,-1.791398972E-1,-1.664911807E-1,1.844391525E-1
2.897061980E-1,-1.669225991E-1,-1.573282033E-1,1.691675335E-1
2.921398440E-1,-1.595922261E-1,-1.518304199E-1,1.551176459E-1
2.945728130E-1,-1.571487635E-1,-1.561064720E-1,1.465655416E-1
2.970065110E-1,-1.547053009E-1,-1.738215536E-1,1.386242956E-1
2.994410940E-1,-1.608139575E-1,-1.915366203E-1,1.343482435E-1
3.018747920E-1,-1.657008678E-1,-2.226907313E-1,1.306830645E-1
3.043077090E-1,-1.773073077E-1,-2.568991780E-1,1.264070123E-1
3.067414590E-1,-1.907463223E-1,-2.953836322E-1,1.257961392E-1
3.091760420E-1,-2.102939934E-1,-3.369224370E-1,1.300721914E-1
3.116097400E-1,-2.292307913E-1,-3.790720999E-1,1.398460269E-1
3.140426560E-1,-2.469458878E-1,-4.230543673E-1,1.471763998E-1
3.164764060E-1,-2.646609545E-1,-4.707018137E-1,1.477872729E-1
3.189109900E-1,-2.829869092E-1,-5.079645514E-1,1.593936980E-1
3.213446360E-1,-2.988693714E-1,-5.446164012E-1,1.703892648E-1
3.237776040E-1,-3.123084009E-1,-5.788248181E-1,1.795522422E-1
3.262113540E-1,-3.220822513E-1,-6.044811606E-1,1.893260777E-1
3.286458860E-1,-3.336886764E-1,-6.264722943E-1,1.948238611E-1
3.310795840E-1,-3.373538554E-1,-6.399112940E-1,2.015433609E-1
3.335125520E-1,-3.397973180E-1,-6.441873908E-1,2.021542341E-1
3.359462500E-1,-3.416299224E-1,-6.435765028E-1,1.997107714E-1
3.383808340E-1,-3.416299224E-1,-6.350244284E-1,1.990999132E-1
3.408145310E-1,-3.349103928E-1,-6.209745407E-1,1.881043464E-1
3.432474480E-1,-3.300234973E-1,-5.983725190E-1,1.746653169E-1
3.456811980E-1,-3.159735799E-1,-5.666075349E-1,1.655023545E-1
3.481157810E-1,-3.049780428E-1,-5.323991179E-1,1.520633250E-1
3.505494790E-1,-2.848194838E-1,-4.969690144E-1,1.337373853E-1
3.529823960E-1,-2.750456631E-1,-4.590953887E-1,1.196874976E-1
3.554161460E-1,-2.603849173E-1,-4.145022631E-1,1.056376100E-1
3.578507290E-1,-2.396155000E-1,-3.723526001E-1,9.158770740E-2
3.602843750E-1,-2.249547541E-1,-3.302029371E-1,7.570523024E-2
3.627173440E-1,-2.054070830E-1,-2.874424160E-1,6.654225290E-2
3.651510420E-1,-1.846376806E-1,-2.465144545E-1,5.737928674E-2
3.675856250E-1,-1.681443304E-1,-2.074191123E-1,5.249236897E-2
3.700193230E-1,-1.473749280E-1,-1.671020389E-1,4.394026473E-2
3.724522400E-1,-1.253837943E-1,-1.335044801E-1,4.210767150E-2
3.748859900E-1,-1.064469963E-1,-1.035721153E-1,4.088594019E-2
3.773205730E-1,-8.506673574E-2,-7.730492949E-2,3.966421261E-2
3.797542710E-1,-6.612992287E-2,-5.653553084E-2,4.516199604E-2
3.821871880E-1,-4.597138986E-2,-4.065304995E-2,4.516199604E-2
3.846209380E-1,-2.886717767E-2,-2.904661745E-2,4.943804815E-2
3.870555210E-1,-1.848248020E-2,-2.477056347E-2,4.821631685E-2
3.894891670E-1,-9.930372238E-3,-2.415969968E-2,5.310323462E-2
3.919221360E-1,-4.432588816E-3,-3.271180764E-2,5.004891381E-2
3.943558860E-1,-1.378264278E-3,-4.981601983E-2,5.065977946E-2
3.967904170E-1,-5.043454468E-3,-7.119628787E-2,5.004891381E-2
3.992241150E-1,-9.930372238E-3,-9.868519753E-2,4.760545120E-2
4.016570840E-1,-1.909334213E-2,-1.273958385E-1,4.821631685E-2
4.040907810E-1,-2.642371878E-2,-1.603825241E-1,4.210767150E-2
4.065253650E-1,-3.803015128E-2,-1.933692247E-1,3.905334696E-2
4.089590630E-1,-5.146917328E-2,-2.324645668E-1,3.294469789E-2
4.113919790E-1,-6.551906466E-2,-2.660621405E-1,2.439259365E-2
4.138257290E-1,-8.384500444E-2,-3.021031618E-1,1.095356978E-2
4.162603130E-1,-9.789489210E-2,-3.357007205E-1,5.688704550E-4
4.186940110E-1,-1.113339067E-1,-3.686874211E-1,-1.775707304E-2
4.211269270E-1,-1.253837943E-1,-3.931219876E-1,-2.814177237E-2
4.235606770E-1,-1.363793612E-1,-4.187783301E-1,-5.196549743E-2
4.259952610E-1,-1.437097490E-1,-4.395477176E-1,-7.090230286E-2
4.284289060E-1,-1.437097490E-1,-4.572627842E-1,-9.411516786E-2
4.308618750E-1,-1.461531967E-1,-4.700909555E-1,-1.161062866E-1
4.332955730E-1,-1.412662864E-1,-4.743670225E-1,-1.435952038E-1
4.357301560E-1,-1.333250403E-1,-4.731452763E-1,-1.710841060E-1
4.381638540E-1,-1.156099588E-1,-4.633714557E-1,-2.010164857E-1
4.405968230E-1,-1.021709442E-1,-4.493215680E-1,-2.291162610E-1
4.430305210E-1,-8.628846705E-2,-4.316064715E-1,-2.651572824E-1
4.454651040E-1,-6.063214317E-2,-4.096153378E-1,-2.999765575E-1
4.478988020E-1,-4.108447209E-2,-3.882350922E-1,-3.280763328E-1
4.503317190E-1,-2.092593536E-2,-3.674656749E-1,-3.604521751E-1
4.527654690E-1,3.508651629E-3,-3.491397500E-1,-3.934388757E-1
4.552000520E-1,2.549978159E-2,-3.314246535E-1,-4.221495092E-1
4.576337500E-1,6.031906977E-2,-3.124878705E-1,-4.484167099E-1
4.600666670E-1,9.208403528E-2,-2.862206697E-1,-4.759055972E-1
4.625004170E-1,1.256815940E-1,-2.575100362E-1,-5.033945441E-1
4.649350000E-1,1.672203988E-1,-2.287993729E-1,-5.241639018E-1
4.673686460E-1,2.124243975E-1,-1.958126873E-1,-5.443224311E-1
4.698016150E-1,2.600718439E-1,-1.603825241E-1,-5.614266992E-1
4.722353650E-1,3.107736111E-1,-1.292284280E-1,-5.821960568E-1
4.746698960E-1,3.565884531E-1,-1.023503840E-1,-5.883046985E-1
4.771035940E-1,4.109554291E-1,-7.730492949E-2,-6.078523993E-1
4.795365630E-1,4.653223753E-1,-5.897898972E-2,-6.157936454E-1
4.819702610E-1,5.166350007E-1,-5.164861307E-2,-6.267892122E-1
4.844048440E-1,5.710019469E-1,-5.287034437E-2,-6.377847791E-1
4.868385420E-1,6.168168187E-1,-6.142244861E-2,-6.420608163E-1
4.892714590E-1,6.644642353E-1,-7.730492949E-2,-6.554998159E-1
4.917052090E-1,7.066138983E-1,-9.685260057E-2,-6.603867412E-1
4.941397920E-1,7.475418448E-1,-1.212871894E-1,-6.664953828E-1
4.965734900E-1,7.872480750E-1,-1.445000470E-1,-6.713823080E-1
4.990064060E-1,8.159586787E-1,-1.677128971E-1,-6.799344420E-1
5.014401560E-1,8.037413955E-1,-1.225089207E-1,-6.774909496E-1
5.038747400E-1,7.011161447E-1,6.197222322E-2,-6.084632277E-1
5.063083860E-1,5.172458887E-1,3.484677672E-1,-4.832359850E-1
5.087413540E-1,3.144387901E-1,6.239677668E-1,-3.842759132E-1
5.111751040E-1,1.159077585E-1,8.396030068E-1,-3.525109291E-1
5.136096360E-1,-8.079068363E-2,1.001482129E0,-3.934388757E-1
5.160433340E-1,-2.622174919E-1,1.097998738E0,-4.893446267E-1
5.184763020E-1,-4.289835691E-1,1.136483192E0,-6.145719290E-1
5.209100000E-1,-5.890301466E-1,1.159696102E0,-7.300253510E-1
5.233445840E-1,-7.429680824E-1,1.189017653E0,-8.436461687E-1
5.257782810E-1,-8.852995634E-1,1.250714898E0,-9.493257403E-1
5.282111980E-1,-1.016635418E0,1.336846828E0,-1.045842409E0
5.306449480E-1,-1.128423691E0,1.429698348E0,-1.140526414E0
5.330795310E-1,-1.210279465E0,1.493228197E0,-1.238264799E0
5.355132290E-1,-1.263424754E0,1.520106316E0,-1.328672767E0
5.379461460E-1,-1.284194112E0,1.509721518E0,-1.427632809E0
5.403798960E-1,-1.276863813E0,1.458408952E0,-1.528425574E0
5.428144790E-1,-1.246320486E0,1.375331283E0,-1.632883430E0
5.452481250E-1,-1.199894786E0,1.268429995E0,-1.737341285E0
5.476810940E-1,-1.140640974E0,1.157252669E0,-1.836301327E0
5.501148440E-1,-1.084441423E0,1.060736060E0,-1.930374503E0
5.525493750E-1,-1.025798321E0,9.880431890E-1,-2.014063120E0
5.549830730E-1,-9.653227925E-1,9.428391457E-1,-2.088588476E0
5.574160420E-1,-9.042363763E-1,9.312327504E-1,-2.147231579E0
5.598497400E-1,-8.510911465E-1,9.495586753E-1,-2.199765921E0
5.622843230E-1,-7.973350286E-1,9.831562638E-1,-2.232752562E0
5.647180210E-1,-7.460224032E-1,1.020418882E0,-2.257797956E0
5.671509380E-1,-6.977640986E-1,1.055849075E0,-2.270015240E0
5.695846880E-1,-6.531709433E-1,1.071731567E0,-2.268182755E0
5.720192710E-1,-6.091886759E-1,1.069288135E0,-2.259019613E0
5.744529690E-1,-5.645955801E-1,1.044242620E0,-2.241915464E0
5.768858860E-1,-5.309979916E-1,9.984278679E-1,-2.222978830E0
5.793196360E-1,-4.967895448E-1,9.440609217E-1,-2.197933197E0
5.817542190E-1,-4.674680531E-1,8.750331998E-1,-2.171055317E0
5.841878650E-1,-4.430334568E-1,8.108924031E-1,-2.142955542E0
5.866208340E-1,-4.204314649E-1,7.449190021E-1,-2.125240326E0
5.890545840E-1,-3.990511894E-1,6.771129966E-1,-2.106914520E0
5.914891670E-1,-3.782818019E-1,6.154156923E-1,-2.091642857E0
5.939228130E-1,-3.495711386E-1,5.524966121E-1,-2.086755991E0
5.963557810E-1,-3.330778182E-1,5.024057031E-1,-2.083701611E0
5.987894790E-1,-3.055889010E-1,4.596451521E-1,-2.096529722E0
6.012240630E-1,-2.701587379E-1,4.132194221E-1,-2.109968662E0
6.036577610E-1,-2.322851121E-1,3.741240799E-1,-2.129516363E0
6.060907290E-1,-1.852485389E-1,3.399156630E-1,-2.158226967E0
6.085244270E-1,-1.345467716E-1,3.154810667E-1,-2.188770294E0
6.109590110E-1,-7.529290020E-2,2.959333956E-1,-2.216870070E0
6.133927090E-1,-5.654320121E-3,2.794400454E-1,-2.253521919E0
6.158256250E-1,6.826031208E-2,2.629466951E-1,-2.285286903E0
6.182593750E-1,1.482835859E-1,2.513402700E-1,-2.309721470E0
6.206939590E-1,2.319720685E-1,2.501185536E-1,-2.331101656E0
6.231276560E-1,3.205474317E-1,2.513402700E-1,-2.347595215E0
6.255605730E-1,4.085119665E-1,2.488968372E-1,-2.358590603E0
6.279943230E-1,4.891461134E-1,2.507294118E-1,-2.361644983E0
6.304289060E-1,5.716128349E-1,2.476751059E-1,-2.355536461E0
6.328625520E-1,6.479709148E-1,2.446207851E-1,-2.340875626E0
6.352955210E-1,7.176094651E-1,2.354578078E-1,-2.318273544E0
6.377292710E-1,7.817502618E-1,2.293491662E-1,-2.280400038E0
6.401638540E-1,8.385607004E-1,2.214079201E-1,-2.236417770E0
6.425975000E-1,8.874298930E-1,2.140775472E-1,-2.177774668E0
6.450304690E-1,9.308012724E-1,2.018602490E-1,-2.105692625E0
6.474641670E-1,9.723400474E-1,1.835343093E-1,-2.026891232E0
6.498987500E-1,1.016322374E0,1.639866382E-1,-1.934039712E0
6.523324480E-1,1.060304642E0,1.432172358E-1,-1.838133931E0
6.547654170E-1,1.103065133E0,1.255021691E-1,-1.734897852E0
6.571991150E-1,1.151323438E0,1.108414009E-1,-1.631050825E0
6.596336980E-1,1.198360085E0,9.923497587E-2,-1.522927761E0
6.620673960E-1,1.247229218E0,8.762854338E-2,-1.418469906E0
6.645003130E-1,1.301596165E0,8.335249126E-2,-1.309125066E0
6.669340630E-1,1.354130626E0,7.418952137E-2,-1.215662837E0
6.693686460E-1,1.414606214E0,6.197222322E-2,-1.115481019E0
6.718023440E-1,1.470805764E0,4.975492880E-2,-1.022629499E0
6.742352610E-1,1.527005315E0,3.509417549E-2,-9.297780991E-1
6.766690110E-1,1.583204865E0,1.676823758E-2,-8.436461687E-1
6.791035940E-1,1.635739207E0,4.550942220E-3,-7.556816339E-1
6.815372400E-1,1.683997512E0,-2.779434435E-3,-6.732149124E-1
6.839702090E-1,1.731034160E0,-4.001163878E-3,-5.980785489E-1
6.864039590E-1,1.773794651E0,2.748891129E-4,-5.296617150E-1
6.888385420E-1,1.812279105E0,4.550942220E-3,-4.667426348E-1
6.912721880E-1,1.849541903E0,1.921169646E-2,-4.148191512E-1
6.937051560E-1,1.881917715E0,3.631590679E-2,-3.732803464E-1
6.961388540E-1,1.903908849E0,6.136135757E-2,-3.384610415E-1
6.985734380E-1,1.923456550E0,8.885027468E-2,-3.158590496E-1
7.010071360E-1,1.937506437E0,1.145065874E-1,-3.042526245E-1
7.034401040E-1,1.942393303E0,1.309999377E-1,-3.103612661E-1
7.058738020E-1,1.933230281E0,1.536019444E-1,-3.329632580E-1
7.083083860E-1,1.913071752E0,1.719278842E-1,-3.763346672E-1
7.107420840E-1,1.890469790E0,1.933081448E-1,-4.429189265E-1
7.131750000E-1,1.858704805E0,2.061363012E-1,-5.382137895E-1
7.156087500E-1,1.828772426E0,2.128558159E-1,-6.530563831E-1
7.180433340E-1,1.789066315E0,2.091906220E-1,-7.892792225E-1
7.204770310E-1,1.756079555E0,1.975841969E-1,-9.364976287E-1
7.229099480E-1,1.709653854E0,1.817017198E-1,-1.093489885E0
7.253436980E-1,1.666893363E0,1.700952798E-1,-1.235210419E0
7.277782810E-1,1.613748074E0,1.621540487E-1,-1.361659408E0
7.302119270E-1,1.550218105E0,1.560453922E-1,-1.460008621E0
7.326448960E-1,1.479357839E0,1.572671235E-1,-1.521095157E0
7.350786460E-1,1.402388930E0,1.554345340E-1,-1.549194932E0
7.375132290E-1,1.318700433E0,1.597105861E-1,-1.546140552E0
7.399468750E-1,1.218518615E0,1.609323174E-1,-1.510710478E0
7.423798440E-1,1.118947625E0,1.542128026E-1,-1.452678323E0
7.448135940E-1,1.015100598E0,1.438281089E-1,-1.365935564E0
7.472481250E-1,9.161404967E-1,1.273347586E-1,-1.263310194E0
7.496818230E-1,8.257325292E-1,1.053436175E-1,-1.146635056E0
7.521147920E-1,7.383788824E-1,7.357865572E-2,-1.027516484E0
7.545484900E-1,6.620208025E-1,3.570504114E-2,-9.108412862E-1
7.569830730E-1,5.966582894E-1,-4.612028599E-3,-8.002747893E-1
7.594167710E-1,5.429021716E-1,-4.187477753E-2,-6.994820833E-1
7.618496880E-1,4.958656132E-1,-6.875282526E-2,-6.084632277E-1
7.642834380E-1,4.586028755E-1,-8.524617553E-2,-5.339377522E-1
7.667180210E-1,4.243944585E-1,-9.318741411E-2,-4.728512764E-1
7.691517190E-1,3.926294744E-1,-8.707876503E-2,-4.288690388E-1
7.715846360E-1,3.779687285E-1,-7.547233999E-2,-3.922171295E-1
7.740183860E-1,3.681949079E-1,-6.386590749E-2,-3.616738915E-1
7.764529690E-1,3.700274825E-1,-5.287034437E-2,-3.329632580E-1
7.788866670E-1,3.840773702E-1,-4.309650883E-2,-3.103612661E-1
7.813195840E-1,4.103445709E-1,-3.454440087E-2,-2.883701324E-1
7.837533340E-1,4.427203834E-1,-2.232710458E-2,-2.785963118E-1
7.861879170E-1,4.824265838E-1,1.496618614E-3,-2.779854536E-1
7.886216150E-1,5.276305676E-1,1.798996516E-2,-2.975331247E-1
7.910545310E-1,5.740562677E-1,3.998109326E-2,-3.305197954E-1
7.934882810E-1,6.247580647E-1,5.342011899E-2,-3.787781298E-1
7.959228650E-1,6.785141230E-1,5.464184657E-2,-4.410863221E-1
7.983565110E-1,7.383788824E-1,3.814850003E-2,-5.113357902E-1
8.007894790E-1,8.000762463E-1,1.921169646E-2,-5.938025117E-1
8.032232290E-1,8.623844385E-1,-1.133154053E-2,-6.744366288E-1
8.056577610E-1,9.222491384E-1,-3.882045299E-2,-7.526273131E-1
8.080914590E-1,9.760052562E-1,-6.569850445E-2,-8.332614899E-1
8.105244270E-1,1.024874449E0,-9.135482460E-2,-9.077869654E-1
8.129581250E-1,1.062137246E0,-1.115133539E-1,-9.743711948E-1
8.153927090E-1,1.100010872E0,-1.304501593E-1,-1.037901163E0
8.178264060E-1,1.128110647E0,-1.530521512E-1,-1.094100714E0
8.202593750E-1,1.151323438E0,-1.835953891E-1,-1.146635056E0
8.226930730E-1,1.177590728E0,-2.294102460E-1,-1.196725965E0
8.251276560E-1,1.200803518E0,-2.874424160E-1,-1.243762612E0
8.275613540E-1,1.224627256E0,-3.601353168E-1,-1.288966537E0
8.299942710E-1,1.249672771E0,-4.309956133E-1,-1.326229334E0
8.324280210E-1,1.269220352E0,-5.061319470E-1,-1.357994318E0
8.348626040E-1,1.285713792E0,-5.721053481E-1,-1.381817937E0
8.372963020E-1,1.300374508E0,-6.307483315E-1,-1.397089601E0
8.397292190E-1,1.313202620E0,-6.814501286E-1,-1.401976585E0
8.421629690E-1,1.321143866E0,-7.229889035E-1,-1.401976585E0
8.445975520E-1,1.329695940E0,-7.571973205E-1,-1.390980959E0
8.470312500E-1,1.330306888E0,-7.828536630E-1,-1.376320243E0
8.494641670E-1,1.334582925E0,-8.054556847E-1,-1.360437751E0
8.518979170E-1,1.335804701E0,-8.262250423E-1,-1.338446617E0
8.543325000E-1,1.341913342E0,-8.421075344E-1,-1.311568499E0
8.567661460E-1,1.347411036E0,-8.555465937E-1,-1.282247066E0
8.591991150E-1,1.357795715E0,-8.653203845E-1,-1.240097404E0
8.616328650E-1,1.371845603E0,-8.842571974E-1,-1.202223778E0
8.640674480E-1,1.395669341E0,-8.909767270E-1,-1.148467660E0
8.665010940E-1,1.423769116E0,-8.897550106E-1,-1.092878938E0
8.689340630E-1,1.452479839E0,-8.714290261E-1,-1.030570745E0
8.713678130E-1,1.490353465E0,-8.329445720E-1,-9.633756280E-1
8.738023440E-1,1.528837919E0,-7.785776258E-1,-8.961805105E-1
8.762360420E-1,1.573431015E0,-7.132151127E-1,-8.277636766E-1
8.786690110E-1,1.616802454E0,-6.350244284E-1,-7.605685592E-1
8.811027090E-1,1.658341169E0,-5.427838564E-1,-6.976494789E-1
8.835372920E-1,1.696214795E0,-4.468781054E-1,-6.328978539E-1
8.859709900E-1,1.734699249E0,-3.509723246E-1,-5.663135648E-1
8.884039590E-1,1.773794651E0,-2.587317526E-1,-5.021728277E-1
8.908376560E-1,1.808003068E0,-1.701563597E-1,-4.337559342E-1
8.932722400E-1,1.840378881E0,-9.074395895E-2,-3.647282422E-1
8.957059380E-1,1.870922089E0,-2.049451135E-2,-2.908135951E-1
8.981388540E-1,1.895967603E0,3.753763437E-2,-2.144555151E-1
9.005726040E-1,1.919791341E0,8.396335691E-2,-1.435952038E-1
9.030071880E-1,1.936895490E0,1.206152365E-1,-7.090230286E-2
9.054408860E-1,1.956443191E0,1.499367505E-1,5.455788225E-3
9.078738020E-1,1.963773608E0,1.694844216E-1,8.547906578E-2
9.103075520E-1,1.969271302E0,1.798691303E-1,1.697784066E-1
9.127421360E-1,1.969271302E0,1.835343093E-1,2.675167620E-1
9.151758340E-1,1.965606213E0,1.688735634E-1,3.646442592E-1
9.176087500E-1,1.963162661E0,1.377194524E-1,4.629934728E-1
9.200425000E-1,1.955221415E0,9.007199854E-2,5.570666194E-1
9.224770840E-1,1.949723721E0,3.631590679E-2,6.444202662E-1
9.249107290E-1,1.936895490E0,-1.988364570E-2,7.171131968E-1
9.273436980E-1,1.917347908E0,-7.180715352E-2,7.867517471E-1
9.297774480E-1,1.897800207E0,-1.188437343E-1,8.447839022E-1
9.322120310E-1,1.877030730E0,-1.597716659E-1,8.918204904E-1
9.346456770E-1,1.855039597E0,-1.970344037E-1,9.351918697E-1
9.370786460E-1,1.834270239E0,-2.342971563E-1,9.755089879E-1
9.395123960E-1,1.811668277E0,-2.733925283E-1,1.007884741E0
9.419469790E-1,1.782957673E0,-3.088226616E-1,1.033541083E0
9.443806250E-1,1.757912159E0,-3.363115788E-1,1.049423575E0
9.468135940E-1,1.726147175E0,-3.625787795E-1,1.061640859E0
9.492473440E-1,1.691938758E0,-3.857916296E-1,1.057364821E0
9.516819270E-1,1.652843475E0,-4.053393006E-1,1.049423575E0
9.541155730E-1,1.610082865E0,-4.230543673E-1,1.024378181E0
9.565485420E-1,1.562435508E0,-4.413803220E-1,9.913914204E-1
9.589822400E-1,1.517231464E0,-4.627605677E-1,9.510743618E-1
9.614168230E-1,1.467140555E0,-4.829191267E-1,8.997617364E-1
9.638505210E-1,1.423769116E0,-4.969690144E-1,8.411187530E-1
9.662834900E-1,1.378565192E0,-5.085753798E-1,7.806431055E-1
9.687171880E-1,1.330306888E0,-5.128514767E-1,7.171131968E-1
9.711517710E-1,1.281437635E0,-5.097971559E-1,6.499180794E-1
9.735854690E-1,1.235011935E0,-4.981907308E-1,5.857772827E-1
9.760184380E-1,1.188586235E0,-4.823082387E-1,5.179712772E-1
9.784521360E-1,1.141549706E0,-4.652040303E-1,4.489435852E-1
9.808867190E-1,1.100010872E0,-4.413803220E-1,3.799158633E-1
9.833204170E-1,1.062137246E0,-4.236652255E-1,3.078338206E-1
9.857533340E-1,1.027928829E0,-4.059501588E-1,2.363626659E-1
9.881870840E-1,1.002883315E0,-3.900676668E-1,1.624480188E-1
9.906216670E-1,9.735618234E-1,-3.735743165E-1,8.303560317E-2
9.930553650E-1,9.509598017E-1,-3.521940708E-1,6.677515805E-3
9.954882810E-1,9.210274220E-1,-3.320355415E-1,-6.357192993E-2
9.979220310E-1,8.837646842E-1,-3.051574826E-1,-1.313779056E-1
1.000356615E0,8.324520588E-1,-2.715599239E-1,-1.863557249E-1
1.002790313E0,7.719764709E-1,-2.379623502E-1,-2.272836715E-1
1.005223229E0,6.992835402E-1,-1.982561350E-1,-2.590486407E-1
1.007656979E0,6.217037439E-1,-1.548847407E-1,-2.755419910E-1
1.010091563E0,5.312957764E-1,-1.164002717E-1,-2.785963118E-1
1.012525261E0,4.396660626E-1,-6.997455657E-2,-2.761528492E-1
1.014958177E0,3.443711698E-1,-2.538142912E-2,-2.712659240E-1
1.017391927E0,2.466328144E-1,2.715293691E-2,-2.633247077E-1
1.019826511E0,1.476727277E-1,9.618064761E-2,-2.566051781E-1
1.022260209E0,4.749090970E-2,1.737604737E-1,-2.541617155E-1
1.024693125E0,-6.002127752E-2,2.721096873E-1,-2.468313426E-1
1.027126875E0,-1.718095243E-1,3.826761842E-1,-2.413335592E-1
1.029561459E0,-2.890955508E-1,5.103469491E-1,-2.352249026E-1
1.031995104E0,-4.155445397E-1,6.422937512E-1,-2.315597236E-1
1.034428073E0,-5.468804836E-1,7.821817398E-1,-2.223967463E-1
1.036861823E0,-6.776055098E-1,9.190154672E-1,-2.199532986E-1
1.039296406E0,-8.089414239E-1,1.057681680E0,-2.083468586E-1
1.041730052E0,-9.408882260E-1,1.185352445E0,-2.034599483E-1
1.044163021E0,-1.064282894E0,1.302027583E0,-1.949078441E-1
1.046596771E0,-1.173627615E0,1.394268155E0,-1.869665980E-1
1.049031354E0,-1.262813926E0,1.475513101E0,-1.753601730E-1
1.051465000E0,-1.329398155E0,1.548816919E0,-1.729167104E-1
1.053897969E0,-1.367882609E0,1.617233753E0,-1.619211435E-1
1.056331719E0,-1.382543325E0,1.685039759E0,-1.509255767E-1
1.058766250E0,-1.372158647E0,1.752234817E0,-1.374865621E-1
1.061199948E0,-1.305574417E0,1.818208218E0,-1.154954284E-1
1.063632917E0,-1.240211844E0,1.897620678E0,-8.006527275E-2
1.066066615E0,-1.166908145E0,1.956874609E0,-4.280252755E-2
1.068501198E0,-1.078332782E0,1.977643967E0,5.455788225E-3
1.070934896E0,-9.732640386E-1,1.959318042E0,6.470966339E-2
1.073367865E0,-8.626975417E-1,1.920833588E0,1.282396019E-1
1.075801563E0,-7.411354780E-1,1.857303619E0,1.936021298E-1
1.078236146E0,-5.975822806E-1,1.777280331E0,2.626298368E-1
1.080669844E0,-4.063815773E-1,1.672211647E0,3.371553421E-1
1.083102813E0,-2.066288143E-1,1.564699411E0,4.098482430E-1
1.085536511E0,-7.674023509E-4,1.447413325E0,4.727672935E-1
1.087971094E0,2.008179575E-1,1.322186112E0,5.350754857E-1
1.090404792E0,3.749144077E-1,1.157252669E0,6.456420422E-1
1.092837761E0,5.086937547E-1,9.159611464E-1,7.617062926E-1
1.095271459E0,6.186494231E-1,6.477915049E-1,8.655533195E-1
1.097706042E0,7.206637859E-1,3.808436096E-1,9.419113994E-1
1.100139740E0,8.232890964E-1,1.487150192E-1,9.895588160E-1
1.102572656E0,9.253035188E-1,-5.225947872E-2,1.013993502E0
1.105006406E0,1.029150486E0,-2.226907313E-1,1.025599837E0
1.107440990E0,1.118336797E0,-3.631896377E-1,1.033541083E0
1.109874688E0,1.211188197E0,-4.719235599E-1,1.046369314E0
1.112307656E0,1.301596165E0,-5.391186476E-1,1.064084411E0
1.114741354E0,1.372456551E0,-5.611097813E-1,1.088518977E0
1.117175938E0,1.429266930E0,-5.378969312E-1,1.122727394E0
1.119609636E0,1.464697123E0,-4.725344181E-1,1.158157468E0
1.122042552E0,1.479357839E0,-3.735743165E-1,1.195420265E0
1.124476302E0,1.470805764E0,-2.483470440E-1,1.224130869E0
1.126910886E0,1.446982026E0,-1.078481674E-1,1.247343779E0
1.129344584E0,1.418882251E0,4.731146991E-2,1.262004495E0
1.131777500E0,1.388339043E0,1.908646822E-1,1.258950233E0
1.134211250E0,1.370623946E0,3.148702085E-1,1.252230644E0
1.136645834E0,1.360239267E0,4.254367352E-1,1.231461287E0
1.139079531E0,1.371845603E0,5.140121579E-1,1.203972340E0
1.141512448E0,1.393836737E0,6.007549167E-1,1.170985699E0
1.143946198E0,1.390782475E0,6.459589005E-1,1.158768415E0
1.146380781E0,1.355352283E0,6.325199008E-1,1.178926945E0
1.148814479E0,1.321143866E0,6.319090128E-1,1.175872564E0
1.151247396E0,1.309537411E0,6.642848849E-1,1.140442491E0
1.153681146E0,1.294876695E0,6.844434142E-1,1.095238447E0
1.156115729E0,1.258835673E0,6.783347726E-1,1.048812747E0
1.158549427E0,1.218518615E0,6.471806765E-1,9.852827787E-1
1.160982344E0,1.176979780E0,5.995332003E-1,9.052595496E-1
1.163416094E0,1.140327930E0,5.561618209E-1,8.099646568E-1
1.165850677E0,1.111006379E0,4.950753152E-1,7.146697044E-1
1.168284375E0,1.030372262E0,3.564090133E-1,6.639679670E-1
1.170717292E0,9.509598017E-1,2.079689056E-1,6.273160577E-1
1.173151042E0,9.112536311E-1,1.352760047E-1,5.491253734E-1
1.175585625E0,8.752126098E-1,8.274162561E-2,4.794868231E-1
1.178019271E0,8.269542456E-1,2.593120746E-2,4.465001225E-1
1.180452240E0,7.695329785E-1,-4.737256095E-2,4.361154139E-1
1.182885990E0,7.261615992E-1,-8.585704118E-2,4.074047804E-1
1.185320573E0,7.359354496E-1,-5.653553084E-2,3.499834836E-1
1.187754271E0,7.402114868E-1,-2.721402235E-2,3.139424622E-1
1.190187188E0,7.450984120E-1,2.043342404E-2,2.742362618E-1
1.192620938E0,7.640352249E-1,9.007199854E-2,2.223127633E-1
1.195055521E0,7.756416202E-1,1.597105861E-1,1.716109961E-1
1.197489219E0,7.664786577E-1,2.018602490E-1,1.483981311E-1
1.199922136E0,7.512070537E-1,2.397338599E-1,1.453438103E-1
1.202355886E0,7.518178821E-1,3.112050295E-1,1.257961392E-1
1.204790469E0,7.786959410E-1,4.229932725E-1,7.998128235E-2
1.207224167E0,7.994653583E-1,5.311163664E-1,3.844248131E-2
1.209657084E0,7.939675450E-1,6.086961627E-1,2.561432496E-2
1.212090834E0,7.683112621E-1,6.551218629E-1,1.828394458E-2
1.214525417E0,7.396005988E-1,6.832216382E-1,1.706221700E-2
1.216959063E0,7.072247863E-1,7.021584511E-1,2.744691819E-2
1.219392031E0,6.870662570E-1,7.320908308E-1,3.172297031E-2
1.221825781E0,6.901205778E-1,7.675210238E-1,2.317086235E-2
1.224260365E0,7.035595775E-1,7.882903814E-1,2.011654153E-2
1.226694063E0,6.913422942E-1,7.577471733E-1,3.111210465E-2
1.229126979E0,6.693511605E-1,6.905520558E-1,6.226620451E-2
1.231560729E0,6.473600268E-1,6.221352220E-1,9.647463262E-2
1.233995313E0,6.241471767E-1,5.573835373E-1,1.282396019E-1
1.236428959E0,6.241471767E-1,5.237859488E-1,1.477872729E-1
1.238861927E0,6.498035192E-1,5.353924036E-1,1.282396019E-1
1.241295677E0,6.864553690E-1,5.659356713E-1,1.038050056E-1
1.243730261E0,6.815684438E-1,5.476096869E-1,1.190766245E-1
1.246163906E0,6.595773101E-1,5.079035163E-1,1.429003477E-1
1.248596875E0,6.235362887E-1,4.492604434E-1,1.752761900E-1
1.251030625E0,5.942147970E-1,3.716806173E-1,2.119280696E-1
1.253465209E0,5.642824173E-1,2.824943960E-1,2.559103370E-1
1.255898854E0,5.386261344E-1,1.786473989E-1,2.980599999E-1
1.258331823E0,5.251871347E-1,7.907643914E-2,3.383770585E-1
1.260765573E0,5.306848884E-1,-1.499672886E-2,3.658659756E-1
1.263200156E0,5.404587388E-1,-9.502001107E-2,3.909114301E-1
1.265633802E0,5.502325296E-1,-1.658803076E-1,4.208438098E-1
1.268066771E0,5.636715889E-1,-2.324645668E-1,4.562739432E-1
1.270500521E0,5.832192302E-1,-3.045466244E-1,4.825411439E-1
1.272935104E0,6.021560431E-1,-3.821264207E-1,5.014779568E-1
1.275368750E0,6.186494231E-1,-4.535976052E-1,5.008670688E-1
1.277801719E0,6.302558184E-1,-5.146840215E-1,4.910932183E-1
1.280235469E0,6.357536316E-1,-5.800465941E-1,4.739890397E-1
1.282670052E0,6.320884228E-1,-6.606807113E-1,4.519979060E-1
1.285103698E0,6.247580647E-1,-7.663603425E-1,4.275633097E-1
1.287536667E0,6.247580647E-1,-8.946419358E-1,4.037396014E-1
1.289970417E0,6.131516099E-1,-1.029032230E0,3.780832589E-1
1.292405000E0,6.107081771E-1,-1.154259443E0,3.554812670E-1
1.294838646E0,5.997126102E-1,-1.280708432E0,3.261597753E-1
1.297271615E0,5.917713642E-1,-1.377225041E0,3.047794998E-1
1.299705365E0,5.783323050E-1,-1.460302711E0,2.833992243E-1
1.302139948E0,5.716128349E-1,-1.518334866E0,2.638515830E-1
1.304573594E0,5.502325296E-1,-1.509782791E0,2.504125535E-1
1.307006563E0,5.001416802E-1,-1.357677460E0,2.388061285E-1
1.309440313E0,4.469964504E-1,-1.042471170E0,2.168149799E-1
1.311874896E0,4.219509959E-1,-6.441873908E-1,1.862717420E-1
1.314308542E0,4.549376965E-1,-3.344789743E-1,1.447329521E-1
1.316741511E0,5.306848884E-1,-1.762650162E-1,1.135788411E-1
1.319175261E0,6.155951023E-1,-1.402239949E-1,1.166331768E-1
1.321609844E0,6.766815782E-1,-1.512195617E-1,1.367917061E-1
1.324043490E0,7.194420695E-1,-1.713780910E-1,1.691675335E-1
1.326476459E0,7.371571660E-1,-1.890931726E-1,2.027650923E-1
1.328910209E0,7.487635612E-1,-2.110842913E-1,2.339192033E-1
1.331344792E0,7.677003741E-1,-2.306319624E-1,2.669059038E-1
1.333778438E0,7.841937542E-1,-2.550665736E-1,2.895078957E-1
1.336211406E0,8.074066043E-1,-2.801120281E-1,3.102772832E-1
1.338645156E0,8.342846632E-1,-3.063791990E-1,3.347118795E-1
1.341079740E0,8.587192297E-1,-3.173747659E-1,3.567030132E-1
1.343513386E0,8.807103634E-1,-3.192073703E-1,3.768615425E-1
1.345946354E0,8.996471763E-1,-3.185965121E-1,3.951874971E-1
1.348380104E0,9.265252352E-1,-3.124878705E-1,4.122917056E-1
1.350814688E0,9.491271973E-1,-2.935510576E-1,4.251198471E-1
1.353248334E0,9.674531817E-1,-2.587317526E-1,4.434458017E-1
1.355681302E0,9.808921814E-1,-2.410166711E-1,4.544413686E-1
1.358115052E0,9.973855019E-1,-2.226907313E-1,4.666586518E-1
1.360549636E0,1.004715919E0,-1.921474934E-1,4.733781815E-1
1.362983281E0,1.004715919E0,-1.646585763E-1,4.794868231E-1
1.365416250E0,1.007159352E0,-1.628259867E-1,4.819302559E-1
1.367850000E0,1.015100598E0,-1.573282033E-1,4.874280691E-1
1.370284584E0,1.019987583E0,-1.603825241E-1,4.953693151E-1
1.372718281E0,1.027928829E0,-1.707672328E-1,4.935367107E-1
1.375151198E0,1.043811321E0,-1.958126873E-1,4.819302559E-1
1.377584948E0,1.068245888E0,-2.178038061E-1,4.611608684E-1
1.380019531E0,1.089626193E0,-2.171929479E-1,4.348936975E-1
1.382453177E0,1.101843476E0,-1.915366203E-1,4.135134220E-1
1.384886146E0,1.101232648E0,-1.402239949E-1,3.909114301E-1
1.387319896E0,1.104286909E0,-8.463530988E-2,3.640333712E-1
1.389754479E0,1.101843476E0,-3.759872541E-2,3.322684169E-1
1.392188125E0,1.088404417E0,-7.055487484E-3,2.913404703E-1
1.394621094E0,1.063359022E0,1.249218360E-2,2.430821657E-1
1.397054844E0,1.034648299E0,2.348774858E-2,1.917695254E-1
1.399489427E0,1.002883315E0,3.203985095E-2,1.325156540E-1
1.401923125E0,9.729509354E-1,3.998109326E-2,6.959658861E-2
1.404356042E0,9.369099140E-1,3.203985095E-2,5.688704550E-4
1.406789792E0,9.045341015E-1,1.860083081E-2,-7.701094449E-2
1.409224375E0,8.758234382E-1,1.004872471E-2,-1.594776809E-1
1.411658073E0,8.495562673E-1,-5.833758041E-3,-2.327814549E-1
1.414090990E0,8.220673800E-1,-2.293797024E-2,-3.024200201E-1
1.416524740E0,7.939675450E-1,-4.615083337E-2,-3.653391004E-1
1.418959323E0,7.554830909E-1,-6.814195961E-2,-4.154300094E-1
1.421393021E0,7.188312411E-1,-8.830049634E-2,-4.673534930E-1
1.423825938E0,6.901205778E-1,-9.685260057E-2,-5.186661482E-1
1.426259688E0,6.504143476E-1,-1.090698987E-1,-5.528745651E-1
1.428694271E0,6.192602515E-1,-1.267849654E-1,-5.846395493E-1
1.431127969E0,5.893278718E-1,-1.426674575E-1,-6.139610410E-1
1.433560886E0,5.551194549E-1,-1.585499346E-1,-6.377847791E-1
1.435994636E0,5.209110379E-1,-1.750432849E-1,-6.506128907E-1
1.438429219E0,4.891461134E-1,-1.897040308E-1,-6.622193456E-1
1.440862917E0,4.653223753E-1,-2.086408436E-1,-6.652736664E-1
1.443295834E0,4.396660626E-1,-2.196364105E-1,-6.664953828E-1
1.445729584E0,4.250053167E-1,-2.239124626E-1,-6.695497036E-1
1.448164167E0,4.103445709E-1,-2.184146792E-1,-6.738258004E-1
1.450597865E0,4.024033248E-1,-2.080299705E-1,-6.793235540E-1
1.453030781E0,3.865208328E-1,-1.958126873E-1,-6.793235540E-1
1.455464531E0,3.712492287E-1,-1.787084639E-1,-6.811561584E-1
1.457899115E0,3.578101993E-1,-1.628259867E-1,-6.774909496E-1
1.460332813E0,3.486472368E-1,-1.567173451E-1,-6.658845544E-1
1.462765729E0,3.339864612E-1,-1.646585763E-1,-6.567215919E-1
1.465199479E0,3.254343569E-1,-1.762650162E-1,-6.451151371E-1
1.467634063E0,3.138279319E-1,-1.994778663E-1,-6.274000406E-1
1.470067761E0,3.064975441E-1,-2.251341939E-1,-6.011328697E-1
1.472500677E0,2.997780442E-1,-2.581208944E-1,-5.687570572E-1
1.474934427E0,3.052758276E-1,-2.959945202E-1,-5.302725434E-1
1.477369011E0,3.333756030E-1,-3.442528248E-1,-4.966750145E-1
1.479802709E0,3.877425790E-1,-4.065610170E-1,-4.728512764E-1
1.482235625E0,4.586028755E-1,-4.725344181E-1,-4.649100304E-1
1.484669375E0,5.435130596E-1,-5.281230807E-1,-4.563579261E-1
1.487103959E0,6.253688931E-1,-5.592771769E-1,-4.423080385E-1
1.489537656E0,6.882879734E-1,-5.562228560E-1,-4.258146882E-1
1.491970573E0,7.396005988E-1,-5.299556851E-1,-3.983258009E-1
1.494404323E0,7.762525082E-1,-4.816973805E-1,-3.641173542E-1
1.496838906E0,7.890806794E-1,-4.285521507E-1,-3.213568330E-1
1.499272604E0,7.964110374E-1,-4.047284424E-1,-2.700442076E-1
1.501705573E0,8.037413955E-1,-3.943437338E-1,-2.248402089E-1
1.504139271E0,8.061848879E-1,-3.967871964E-1,-1.753601730E-1
1.506573854E0,8.049631119E-1,-4.004523754E-1,-1.362648308E-1
1.509007552E0,8.086283207E-1,-4.077827632E-1,-9.594775736E-2
1.511440521E0,8.214564919E-1,-4.236652255E-1,-6.968057156E-2
1.513874219E0,8.477236629E-1,-4.590953887E-1,-5.318722501E-2
1.516308802E0,8.752126098E-1,-5.354534388E-1,-5.501982197E-2
1.518742500E0,8.917059302E-1,-6.533503532E-1,-5.440895632E-2
1.521175469E0,9.081992507E-1,-7.003869414E-1,-7.090230286E-2
1.523609167E0,9.173622727E-1,-6.674002409E-1,-7.517835498E-2
1.526043750E0,9.081992507E-1,-5.971508026E-1,-6.479366124E-2
1.528477448E0,8.898733258E-1,-5.299556851E-1,-4.219166189E-2
1.530910417E0,8.629952669E-1,-4.798648059E-1,-2.569831349E-2
1.533344115E0,8.403933048E-1,-4.389368594E-1,-1.225928962E-2
1.535778698E0,8.135152459E-1,-4.169457257E-1,-5.539777689E-3
1.538212396E0,7.866371870E-1,-4.126696587E-1,1.790598035E-3
1.540645365E0,7.689221501E-1,-4.309956133E-1,1.790598035E-3
1.543079063E0,7.713655829E-1,-4.529867470E-1,1.790598035E-3
1.545513646E0,7.945784330E-1,-4.578736722E-1,2.622518688E-2
1.547947344E0,8.153478503E-1,-4.426020384E-1,6.470966339E-2
1.550380313E0,8.226782084E-1,-4.248869717E-1,1.074701995E-1
1.552814063E0,8.177912831E-1,-4.126696587E-1,1.502307355E-1
1.555248594E0,8.116826415E-1,-4.016741216E-1,1.917695254E-1
1.557682292E0,7.988544703E-1,-4.096153378E-1,2.247562259E-1
1.560115261E0,7.567048073E-1,-5.342317224E-1,2.467473447E-1
1.562549011E0,6.956183314E-1,-8.414966464E-1,2.400278449E-1
1.564983542E0,6.137624979E-1,-1.234893560E0,1.997107714E-1
1.567417240E0,5.600063801E-1,-1.522610903E0,1.361808479E-1
1.569850209E0,6.284232140E-1,-1.391274929E0,1.306830645E-1
1.572283959E0,7.646460533E-1,-1.118829370E0,2.168149799E-1
1.574718490E0,9.027014971E-1,-9.282394648E-1,3.536486924E-1
1.577152188E0,1.009602904E0,-8.427184224E-1,4.758216143E-1
1.579585156E0,1.044422150E0,-8.952527642E-1,5.552340150E-1
1.582018906E0,1.107341290E0,-9.471762776E-1,5.705056787E-1
1.584453490E0,1.219740391E0,-8.928093314E-1,5.912750363E-1
1.586887136E0,1.351687074E0,-8.292793632E-1,6.346464753E-1
1.589320104E0,1.458588481E0,-7.938492298E-1,6.914568543E-1
1.591753854E0,1.525783539E0,-7.926275134E-1,7.647606134E-1
1.594188438E0,1.569765806E0,-8.256142139E-1,8.466165066E-1
1.596622084E0,1.583815694E0,-8.928093314E-1,9.321375489E-1
1.599055052E0,1.581372261E0,-9.832172990E-1,1.010328293E0
1.601488802E0,1.554494262E0,-1.101725101E0,1.078745127E0
1.603923386E0,1.506235957E0,-1.226952434E0,1.137998939E0
1.606357084E0,1.443316817E0,-1.360120893E0,1.179537773E0
1.608790000E0,1.371234775E0,-1.504284978E0,1.204583287E0
1.611223750E0,1.293654919E0,-1.663720608E0,1.220465779E0
1.613658334E0,1.205079556E0,-1.842704058E0,1.212524533E0
1.616092031E0,1.107341290E0,-2.031461000E0,1.186868191E0
1.618524948E0,1.031594038E0,-2.222661734E0,1.164266109E0
1.620958698E0,9.906660318E-1,-2.379653931E0,1.145329356E0
1.623393281E0,1.007770300E0,-2.444405556E0,1.118451357E0
1.625826979E0,1.085960984E0,-2.395536423E0,1.072636485E0
1.628259896E0,1.214242578E0,-2.217164040E0,1.009106517E0
1.630693646E0,1.360239267E0,-1.941664100E0,9.339701533E-1
1.633128229E0,1.491575122E0,-1.611797094E0,8.649424314E-1
1.635561927E0,1.606417656E0,-1.264215112E0,8.166841269E-1
1.637994844E0,1.695603967E0,-9.245742559E-1,7.781996727E-1
1.640428594E0,1.764631629E0,-6.136441231E-1,7.604845762E-1
1.642863177E0,1.821442127E0,-3.265377581E-1,7.610954642E-1
1.645296875E0,1.864202619E0,-7.119628787E-2,7.708693147E-1
1.647729792E0,1.899021864E0,1.603214592E-1,7.855300307E-1
1.650163542E0,1.924067378E0,3.759566844E-1,8.069102764E-1
1.652598125E0,1.953999758E0,5.689899921E-1,8.026342392E-1
1.655031823E0,2.006534100E0,8.273857236E-1,7.836974263E-1
1.657464740E0,2.030357838E0,1.017975450E0,7.781996727E-1
1.659898490E0,2.027303457E0,1.172524214E0,7.965255976E-1
1.662333073E0,2.000425339E0,1.332570791E0,8.166841269E-1
1.664766771E0,1.955832362E0,1.547595143E0,8.417295814E-1
1.667199688E0,1.911850095E0,1.779112935E0,8.679967523E-1
1.669633438E0,1.880085111E0,1.967259288E0,8.716619611E-1
1.672068021E0,1.825107336E0,2.159070969E0,8.722728491E-1
1.674501719E0,1.740808010E0,2.382647276E0,8.881553411E-1
1.676934636E0,1.629019737E0,2.587898016E0,9.113681912E-1
1.679368386E0,1.538000822E0,2.700297117E0,9.260289073E-1
1.681802969E0,1.498294711E0,2.666088581E0,8.979291320E-1
1.684236667E0,1.482412219E0,2.542083025E0,8.301231861E-1
1.686669636E0,1.455534101E0,2.367986679E0,7.403260469E-1
1.689103334E0,1.417049646E0,2.173731565E0,6.254835129E-1
1.691537917E0,1.346800208E0,1.966648340E0,5.136952400E-1
1.693971615E0,1.242953181E0,1.756510973E0,4.202329516E-1
1.696404584E0,1.123834610E0,1.543930054E0,3.286032379E-1
1.698838281E0,9.973855019E-1,1.309358001E0,2.351409197E-1
1.701272865E0,8.538323045E-1,1.071120739E0,1.563393772E-1
1.703706563E0,7.078356743E-1,8.365486860E-1,8.181387186E-2
1.706139531E0,5.508434176E-1,6.196917295E-1,7.288381457E-3
1.708573281E0,3.956837952E-1,4.266584516E-1,-6.051760167E-2
1.711007865E0,2.399132997E-1,2.684444785E-1,-1.417626143E-1
1.713441511E0,8.658625185E-2,1.309999377E-1,-2.352249026E-1
1.715874479E0,-6.735165417E-2,1.737910137E-2,-3.207459748E-1
1.718308229E0,-2.102939934E-1,-6.875282526E-2,-3.867193460E-1
1.720742813E0,-3.367429972E-1,-1.432783157E-1,-4.569688141E-1
1.723176459E0,-4.509747028E-1,-1.945909560E-1,-5.076705813E-1
1.725609427E0,-5.493239760E-1,-2.336862981E-1,-5.479876399E-1
1.728043177E0,-6.378993392E-1,-2.599534988E-1,-5.705896616E-1
1.730477761E0,-7.050944567E-1,-2.733925283E-1,-5.809743404E-1
1.732911406E0,-7.594614029E-1,-2.849989533E-1,-5.815852284E-1
1.735344375E0,-7.900046706E-1,-2.831663489E-1,-5.681461692E-1
1.737778125E0,-8.174935579E-1,-2.575100362E-1,-5.437116027E-1
1.740212709E0,-8.266565204E-1,-2.220798582E-1,-5.046162605E-1
1.742646406E0,-8.217695951E-1,-1.756541431E-1,-4.759055972E-1
1.745079323E0,-8.040545583E-1,-1.292284280E-1,-4.435297847E-1
1.747513073E0,-7.808416486E-1,-8.158098906E-2,-4.105430841E-1
1.749947656E0,-7.405245900E-1,-4.737256095E-2,-3.861084878E-1
1.752381354E0,-6.922662854E-1,-1.133154053E-2,-3.573978543E-1
1.754814271E0,-6.372884512E-1,1.310304832E-2,-3.402936459E-1
1.757248021E0,-5.786454678E-1,3.448331356E-2,-3.317415416E-1
1.759682604E0,-5.316088796E-1,6.502654403E-2,-3.189133704E-1
1.762116302E0,-4.809070528E-1,8.823940903E-2,-3.121938705E-1
1.764549219E0,-4.375356734E-1,1.157283187E-1,-3.018091619E-1
1.766982969E0,-3.966077268E-1,1.419955045E-1,-2.914244533E-1
1.769417552E0,-3.721731603E-1,1.755930632E-1,-2.767637074E-1
1.771851250E0,-3.532363474E-1,2.036928535E-1,-2.559943199E-1
1.774284167E0,-3.391864598E-1,2.195753306E-1,-2.364466339E-1
1.776717917E0,-3.245257139E-1,2.244622409E-1,-2.199532986E-1
1.779152500E0,-3.165844679E-1,2.281274348E-1,-2.010164857E-1
1.781586198E0,-3.159735799E-1,2.262948453E-1,-1.765818894E-1
1.784019167E0,-3.110866845E-1,2.073580325E-1,-1.521473080E-1
1.786452865E0,-2.927607298E-1,1.817017198E-1,-1.258801222E-1
1.788887448E0,-2.677152753E-1,1.590997279E-1,-1.118302345E-1
1.791321146E0,-2.335068583E-1,1.413846463E-1,-1.063324511E-1
1.793754115E0,-1.999092996E-1,1.377194524E-1,-1.014455408E-1
1.796187813E0,-1.718095243E-1,1.358868629E-1,-1.032781303E-1
1.798622396E0,-1.443206072E-1,1.413846463E-1,-1.057215929E-1
1.801056094E0,-1.143882424E-1,1.426063776E-1,-1.246583909E-1
1.803489063E0,-8.017981052E-2,1.444389671E-1,-1.460386664E-1
1.805922761E0,-4.291706905E-2,1.432172358E-1,-1.784144938E-1
1.808357344E0,-8.708644658E-3,1.474932879E-1,-2.156772316E-1
1.810791042E0,2.916496992E-2,1.444389671E-1,-2.657681406E-1
1.813224011E0,5.909734219E-2,1.340542734E-1,-3.140264452E-1
1.815657709E0,6.826031208E-2,1.248912886E-1,-3.445696831E-1
1.818092292E0,4.565831646E-2,1.200043708E-1,-3.470131457E-1
1.820525990E0,1.022816449E-2,1.120631322E-1,-3.415153623E-1
1.822958959E0,-3.864101693E-2,1.059544832E-1,-3.506783545E-1
1.825392656E0,-9.117537737E-2,9.740237892E-2,-3.702260256E-1
1.827827292E0,-1.412662864E-1,8.823940903E-2,-3.989366591E-1
1.830260938E0,-1.925789267E-1,8.090902865E-2,-4.368102551E-1
1.832693906E0,-2.402263582E-1,6.502654403E-2,-4.777382016E-1
1.835127656E0,-2.744348049E-1,3.142898902E-2,-5.137792230E-1
1.837562240E0,-3.037562966E-1,-1.133154053E-2,-5.498202443E-1
1.839995886E0,-3.178061843E-1,-6.630937010E-2,-5.815852284E-1
1.842428854E0,-3.153627217E-1,-1.322827488E-1,-6.151827574E-1
1.844862604E0,-3.165844679E-1,-1.903149039E-1,-6.506128907E-1
1.847297188E0,-3.171953261E-1,-2.428492606E-1,-6.909300089E-1
1.849730834E0,-3.159735799E-1,-2.849989533E-1,-7.294144630E-1
1.852163802E0,-3.190279305E-1,-3.161530495E-1,-7.691206932E-1
1.854597552E0,-3.165844679E-1,-3.473071456E-1,-8.124920726E-1
1.857032136E0,-3.098649383E-1,-3.747960627E-1,-8.436461687E-1
1.859465781E0,-3.013128340E-1,-3.766286671E-1,-8.766328692E-1
1.861898750E0,-2.713804543E-1,-3.772395253E-1,-8.961805105E-1
1.864332500E0,-2.145700455E-1,-3.747960627E-1,-9.340541363E-1
1.866767084E0,-2.249547541E-1,-4.059501588E-1,-9.542126656E-1
1.869200781E0,-1.913571954E-1,-4.236652255E-1,-9.432170987E-1
1.871633698E0,-1.369902343E-1,-4.462672174E-1,-9.200042486E-1
1.874067448E0,-8.934278786E-2,-4.645931721E-1,-9.090086818E-1
1.876502031E0,-4.780398682E-2,-4.707018137E-1,-9.053435326E-1
1.878935729E0,4.119515419E-3,-4.786430597E-1,-9.077869654E-1
1.881368646E0,6.703858078E-2,-4.939146936E-1,-9.083978534E-1
1.883802396E0,1.452292651E-1,-5.104079843E-1,-8.949587941E-1
1.886236979E0,2.118135244E-1,-5.256795883E-1,-8.778545856E-1
1.888670677E0,2.722891271E-1,-5.220144391E-1,-8.515874147E-1
1.891103594E0,3.565884531E-1,-5.024667382E-1,-7.911118269E-1
1.893537344E0,4.445529878E-1,-4.859734476E-1,-7.226949334E-1
1.895971927E0,5.386261344E-1,-4.621497095E-1,-6.500020623E-1
1.898405625E0,6.333101392E-1,-4.334390759E-1,-5.742548108E-1
1.900838542E0,7.438766956E-1,-4.132805467E-1,-4.838468432E-1
1.903272292E0,8.428367376E-1,-4.102262259E-1,-3.940497339E-1
1.905706875E0,9.680640101E-1,-3.888459504E-1,-3.042526245E-1
1.908140573E0,1.109784722E0,-3.497506082E-1,-2.230076194E-1
1.910573490E0,1.214853406E0,-3.185965121E-1,-1.833014041E-1
1.913007240E0,1.277772546E0,-2.220798582E-1,-1.753601730E-1
1.915441823E0,1.438429952E0,-4.859428853E-2,-1.747492999E-1
1.917875521E0,1.650399923E0,1.810908467E-1,-1.863557249E-1
1.920308490E0,1.820220351E0,3.838979304E-1,-2.223967463E-1
1.922742188E0,2.052348852E0,6.196917295E-1,-2.199532986E-1
1.925176771E0,2.263097286E0,8.371595740E-1,-1.967404336E-1
1.927610469E0,2.457962990E0,1.019808054E0,-1.790253520E-1
1.930043438E0,2.603348732E0,1.162139535E0,-1.570342183E-1
1.932477136E0,2.767671347E0,1.297751546E0,-9.350429475E-2
1.934911719E0,3.037062883E0,1.416259289E0,2.439259365E-2
1.937345417E0,3.253919840E0,1.482232690E0,1.532850564E-1
1.939778386E0,3.422518492E0,1.530490994E0,3.249380291E-1
1.942212084E0,3.603945255E0,1.559812427E0,4.636043310E-1
1.944646667E0,3.811639309E0,1.586079717E0,5.307994485E-1
1.947080365E0,4.015057087E0,1.573251486E0,5.662295818E-1
1.949513334E0,4.153112888E0,1.495671630E0,6.181530952E-1
1.951947031E0,4.261235714E0,1.320964336E0,6.645787954E-1
1.954381615E0,4.306439877E0,1.035690546E0,7.067285180E-1
1.956815313E0,4.350422382E0,6.905520558E-1,7.494890094E-1
1.959248281E0,4.417006493E0,3.344178796E-1,8.142406940E-1
1.961682031E0,4.431056499E0,-1.121242195E-1,9.125899076E-1
1.964116563E0,4.409065247E0,-6.661785245E-1,1.026821613E0
1.966550261E0,4.328431129E0,-1.234893560E0,1.137998939E0
1.968983229E0,4.115239143E0,-1.698539972E0,1.230239511E0
1.971416979E0,3.610664845E0,-1.889129758E0,1.293158650E0
1.973851511E0,2.796382189E0,-1.807273865E0,1.312095404E0
1.976285209E0,1.767075181E0,-1.653946757E0,1.277886987E0
1.978718177E0,6.650751233E-1,-1.589195132E0,1.175261736E0
1.981151875E0,-3.037562966E-1,-1.674105406E0,1.049423575E0
1.983586511E0,-1.105821609E0,-1.888518810E0,8.893770576E-1
1.986020156E0,-1.698971272E0,-2.113927841E0,7.012307048E-1
1.988453125E0,-2.154676437E0,-2.302074194E0,5.081974268E-1
1.990886875E0,-2.484543562E0,-2.399201632E0,3.408205211E-1
1.993321459E0,-2.717283010E0,-2.413251638E0,2.271996886E-1
1.995755104E0,-2.859003544E0,-2.333228350E0,1.600045711E-1
1.998188073E0,-2.919479132E0,-2.176235914E0,1.367917061E-1
2.000621823E0,-2.920700788E0,-1.963044405E0,1.801631004E-1
2.003056406E0,-2.855338335E0,-1.705259442E0,2.760688663E-1
2.005490052E0,-2.752102137E0,-1.416931272E0,3.988526762E-1
2.007923021E0,-2.593277454E0,-1.150594234E0,5.314103365E-1
2.010356771E0,-2.386805058E0,-8.903658390E-1,6.609136462E-1
2.012791354E0,-2.113748550E0,-5.684401393E-1,7.653715014E-1
2.015225052E0,-1.819922566E0,-2.013104707E-1,8.460056186E-1
2.017657969E0,-1.519377112E0,1.755930632E-1,9.260289073E-1
2.020091719E0,-1.207225204E0,5.286728740E-1,1.004219651E0
2.022526302E0,-9.176753759E-1,8.683136702E-1,1.095849276E0
2.024959948E0,-6.739403605E-1,1.181076407E0,1.196031094E0
2.027392917E0,-4.619702697E-1,1.449856877E0,1.295602083E0
2.029826667E0,-2.744348049E-1,1.667324662E0,1.386620879E0
2.032261250E0,-1.168316901E-1,1.848140597E0,1.478250623E0
2.034694896E0,-8.097779006E-3,1.979476571E0,1.546056628E0
2.037127865E0,6.031906977E-2,2.082712889E0,1.574156404E0
2.039561615E0,8.964057267E-2,2.153573036E0,1.548500061E0
2.041996198E0,7.742328197E-2,2.178007603E0,1.461757302E0
2.044429896E0,2.672151104E-2,2.158460140E0,1.321258426E0
2.046862813E0,-4.230620340E-2,2.087599754E0,1.143496752E0
2.049296563E0,-1.198860109E-1,1.972756982E0,9.498526454E-1
2.051731146E0,-1.944115162E-1,1.774225950E0,7.678149343E-1
2.054164844E0,-2.744348049E-1,1.513386726E0,5.924968123E-1
2.056597761E0,-3.617884517E-1,1.232388973E0,4.336719513E-1
2.059031511E0,-4.534181654E-1,9.177936912E-1,3.011143208E-1
2.061466094E0,-5.322197080E-1,5.305054784E-1,2.174258530E-1
2.063899792E0,-6.091886759E-1,9.007199854E-2,1.905477941E-1
2.066332709E0,-7.112030983E-1,-2.929401994E-1,1.819956899E-1
2.068766459E0,-8.859103918E-1,-5.275121927E-1,1.526741832E-1
2.071201042E0,-1.081387043E0,-6.826718450E-1,1.215200871E-1
2.073634740E0,-1.238379240E0,-9.526740313E-1,1.710001230E-1
2.076067656E0,-1.328176379E0,-1.233671904E0,2.736254036E-1
2.078501406E0,-1.359330535E0,-1.442587614E0,3.945766091E-1
2.080935990E0,-1.304352641E0,-1.605688453E0,4.953693151E-1
2.083369688E0,-1.222496867E0,-1.777952313E0,5.833337903E-1
2.085802604E0,-1.118038893E0,-1.974039912E0,6.963437796E-1
2.088236354E0,-1.031296134E0,-2.202503204E0,8.649424314E-1
2.090670938E0,-9.799836278E-1,-2.465175152E0,1.067749500E0
2.093104636E0,-9.549381137E-1,-2.762666225E0,1.307208538E0
2.095537552E0,-9.366121888E-1,-3.035111904E0,1.543002248E0
2.097971302E0,-9.011820555E-1,-3.234864712E0,1.764135361E0
2.100405886E0,-8.559780121E-1,-3.344820261E0,1.962666392E0
2.102839584E0,-8.242130876E-1,-3.379028559E0,2.134319305E0
2.105272500E0,-8.022219539E-1,-3.321607351E0,2.280316114E0
2.107706250E0,-7.918372154E-1,-3.195158482E0,2.409208536E0
2.110140834E0,-7.955024242E-1,-2.999070883E0,2.519164085E0
2.112574531E0,-8.119958043E-1,-2.754724979E0,2.613848209E0
2.115007448E0,-8.517019749E-1,-2.470062017E0,2.676767111E0
2.117441198E0,-8.920190334E-1,-2.140805960E0,2.726247311E0
2.119875781E0,-9.372230172E-1,-1.763902426E0,2.764120817E0
2.122309479E0,-9.714314342E-1,-1.377225041E0,2.772062063E0
2.124742396E0,-9.983095527E-1,-9.832172990E-1,2.754957914E0
2.127176146E0,-1.044124365E0,-5.281230807E-1,2.781224966E0
2.129610729E0,-1.074667573E0,2.287688293E-2,2.927832603E0
2.132044427E0,-1.073445797E0,6.758912802E-1,3.253423452E0
2.134477344E0,-9.879248738E-1,1.362503171E0,3.749445677E0
2.136911094E0,-7.918372154E-1,1.959928870E0,4.348093033E0
2.139345677E0,-4.741875827E-1,2.389977694E0,4.937577248E0
2.141779375E0,2.122372761E-2,2.476109743E0,5.294322491E0
2.144212344E0,6.809576154E-1,2.201220512E0,5.216742516E0
2.146646042E0,1.387728095E0,1.741239309E0,4.714611530E0
2.149080625E0,1.992484212E0,1.336846828E0,3.910713911E0
2.151514323E0,2.365722418E0,1.208565235E0,3.013964653E0
2.153947292E0,2.468347788E0,1.405874610E0,2.230225086E0
2.156380990E0,2.343731403E0,1.801104069E0,1.649903655E0
2.158815573E0,2.081059456E0,2.221379042E0,1.255285025E0
2.161249271E0,1.767075181E0,2.545748234E0,1.017658591E0
2.163682240E0,1.471416593E0,2.727174997E0,9.217528701E-1
2.166115938E0,1.209355593E0,2.816972256E0,9.028160572E-1
2.168550521E0,9.705075026E-1,2.833465576E0,9.278615117E-1
2.170984219E0,7.817502618E-1,2.779709339E0,9.553504586E-1
2.173417188E0,6.296449900E-1,2.675251484E0,9.358027577E-1
2.175850886E0,5.099154711E-1,2.551245928E0,8.582229614E-1
2.178285469E0,4.066793621E-1,2.396086454E0,7.372717261E-1
2.180719167E0,3.156605363E-1,2.240315914E0,5.900533199E-1
2.183152136E0,2.215873599E-1,2.078436852E0,4.379480183E-1
2.185585834E0,1.214055419E-1,1.945268154E0,2.779014707E-1
2.188020417E0,1.694767550E-2,1.837755919E0,1.435112208E-1
2.190454115E0,-8.995364606E-2,1.738795877E0,4.577286169E-2
2.192887084E0,-1.962441057E-1,1.632505417E0,-2.447658405E-2
2.195320781E0,-2.890955508E-1,1.528658390E0,-6.296105683E-2
2.197755365E0,-3.825578392E-1,1.413815856E0,-8.800651133E-2
2.200189063E0,-4.754092991E-1,1.330738187E0,-1.240475327E-1
2.202622031E0,-5.682607293E-1,1.281869054E0,-1.814688146E-1
2.205055729E0,-6.708860397E-1,1.276982069E0,-2.517182529E-1
2.207490313E0,-7.790091038E-1,1.322186112E0,-3.347958624E-1
2.209924011E0,-8.871321082E-1,1.408928871E0,-4.093213677E-1
2.212356979E0,-9.891465306E-1,1.513386726E0,-4.429189265E-1
2.214790677E0,-1.071002364E0,1.631894469E0,-4.337559342E-1
2.217225261E0,-1.136975765E0,1.755289197E0,-3.873302341E-1
2.219658959E0,-1.182790637E0,1.881738186E0,-3.164699078E-1
2.222091927E0,-1.210890412E0,2.012463331E0,-2.352249026E-1
2.224525625E0,-1.218831658E0,2.138912439E0,-1.460386664E-1
2.226960209E0,-1.212723017E0,2.261696100E0,-5.501982197E-2
2.229393906E0,-1.188899279E0,2.381425619E0,2.194913477E-2
2.231826875E0,-1.157745123E0,2.498100758E0,9.952895343E-2
2.234260573E0,-1.119871497E0,2.615386724E0,1.722218543E-1
2.236695156E0,-1.077111006E0,2.722898960E0,2.381952405E-1
2.239128854E0,-1.030074477E0,2.825524330E0,3.145533502E-1
2.241561823E0,-9.848704934E-1,2.904325962E0,3.793050051E-1
2.243995521E0,-9.329469800E-1,2.967855692E0,4.403914809E-1
2.246430104E0,-8.901864886E-1,3.019168377E0,5.069757104E-1
2.248863802E0,-8.449824452E-1,3.055820227E0,5.643970370E-1
2.251296771E0,-8.132175207E-1,3.088807106E0,6.352573037E-1
2.253730469E0,-7.753438950E-1,3.105300426E0,6.932894588E-1
2.256165052E0,-7.374702692E-1,3.104078531E0,7.458238602E-1
2.258598750E0,-7.063161731E-1,3.089417934E0,7.940821648E-1
2.261031719E0,-6.605013013E-1,3.041159630E0,8.276796937E-1
2.263465417E0,-5.963605046E-1,2.950140715E0,8.447839022E-1
2.265900052E0,-5.132829547E-1,2.810252666E0,8.472273946E-1
2.268333698E0,-4.320378900E-1,2.648373604E0,8.368426561E-1
2.270766667E0,-3.685079515E-1,2.493824720E0,8.392861485E-1
2.273200365E0,-3.178061843E-1,2.352104187E0,8.398969769E-1
2.275634948E0,-2.848194838E-1,2.225655079E0,8.343992233E-1
2.278068646E0,-2.603849173E-1,2.113255978E0,8.234036565E-1
2.280501615E0,-2.390046418E-1,2.009408951E0,7.971364856E-1
2.282935313E0,-2.267873585E-1,1.914724946E0,7.678149343E-1
2.285369948E0,-2.237330079E-1,1.825538635E0,7.256652713E-1
2.287803594E0,-2.249547541E-1,1.749791384E0,6.816830635E-1
2.290236563E0,-2.310633957E-1,1.680763721E0,6.315921545E-1
2.292670313E0,-2.457241416E-1,1.614179492E0,5.753926039E-1
2.295104844E0,-2.597740293E-1,1.554314733E0,5.179712772E-1
2.297538542E0,-2.677152753E-1,1.481621742E0,4.519979060E-1
2.299971511E0,-2.768782377E-1,1.411983252E0,3.835810423E-1
2.302405261E0,-3.013128340E-1,1.366168380E0,3.237163126E-1
2.304839792E0,-3.410190344E-1,1.347231507E0,2.681276202E-1
2.307273490E0,-3.929425478E-1,1.358227134E0,2.070411444E-1
2.309706459E0,-4.552507401E-1,1.382661700E0,1.459546834E-1
2.312140209E0,-5.065634251E-1,1.397322416E0,7.142917812E-2
2.314574792E0,-5.419935584E-1,1.393046379E0,-7.372371852E-3
2.317008438E0,-5.737585425E-1,1.359448910E0,-8.006527275E-2
2.319441406E0,-5.890301466E-1,1.292253733E0,-1.429843456E-1
2.321875156E0,-5.926953554E-1,1.200013161E0,-1.918535084E-1
2.324309740E0,-5.914736390E-1,1.096166134E0,-2.199532986E-1
2.326743386E0,-5.835323930E-1,9.782693386E-1,-2.315597236E-1
2.329176354E0,-5.456587672E-1,8.499877453E-1,-2.535508573E-1
2.331610104E0,-4.888482988E-1,7.058236599E-1,-2.566051781E-1
2.334044636E0,-4.332596064E-1,5.671573877E-1,-2.523291409E-1
2.336478334E0,-3.795035183E-1,4.529256523E-1,-2.449987382E-1
2.338911302E0,-3.226931095E-1,3.606850803E-1,-2.437770218E-1
2.341345052E0,-2.524436712E-1,2.476751059E-1,-2.230076194E-1
2.343779584E0,-1.711986512E-1,1.291673481E-1,-1.600885540E-1
2.346213281E0,-9.056451917E-2,5.161806941E-3,-9.106083214E-2
2.348646250E0,-5.654320121E-3,-1.066264361E-1,-3.058523126E-2
2.351079948E0,6.948204339E-2,-1.866497099E-1,1.400789246E-2
2.353514584E0,1.311793774E-1,-2.373514771E-1,4.332939908E-2
2.355948229E0,1.879898012E-1,-2.666729987E-1,6.715312600E-2
2.358381198E0,2.185330391E-1,-2.764468491E-1,7.692696154E-2
2.360814948E0,2.502979934E-1,-2.837772071E-1,8.547906578E-2
2.363249479E0,2.765651643E-1,-3.008814156E-1,1.025832742E-1
2.365683177E0,3.022215068E-1,-3.295920789E-1,1.172440350E-1
2.368116146E0,3.321538866E-1,-3.772395253E-1,1.282396019E-1
2.370549896E0,3.614753783E-1,-4.377151132E-1,1.453438103E-1
2.372984479E0,3.975163996E-1,-5.097971559E-1,1.606154293E-1
2.375418125E0,4.311139584E-1,-5.867660642E-1,1.789413691E-1
2.377851094E0,4.653223753E-1,-6.637350321E-1,1.929912567E-1
2.380284844E0,4.983090758E-1,-7.468126416E-1,2.015433609E-1
2.382719427E0,5.306848884E-1,-8.231707215E-1,2.149823904E-1
2.385153073E0,5.575629473E-1,-9.013614058E-1,2.271996886E-1
2.387586042E0,5.899387598E-1,-9.801629782E-1,2.265888155E-1
2.390019792E0,6.259797812E-1,-1.065073252E0,2.339192033E-1
2.392454375E0,6.595773101E-1,-1.149983406E0,2.235344946E-1
2.394888021E0,6.968401074E-1,-1.239169717E0,2.186475843E-1
2.397320990E0,7.328811288E-1,-1.333853722E0,2.100954652E-1
2.399754740E0,7.707546949E-1,-1.435868144E0,2.021542341E-1
2.402189323E0,8.110718131E-1,-1.547045469E0,1.856608838E-1
2.404622969E0,8.544431925E-1,-1.662498951E0,1.697784066E-1
2.407055938E0,9.002580643E-1,-1.789558768E0,1.477872729E-1
2.409489688E0,9.448511600E-1,-1.923949003E0,1.264070123E-1
2.411924271E0,9.955529571E-1,-2.060782671E0,1.099136621E-1
2.414357917E0,1.045032978E0,-2.212888002E0,9.036599100E-2
2.416790886E0,1.096956491E0,-2.363771439E0,6.959658861E-2
2.419224636E0,1.147658348E0,-2.518931150E0,5.493583158E-2
2.421659219E0,1.197138309E0,-2.675312519E0,3.355556354E-2
2.424092865E0,1.239287972E0,-2.826807022E0,1.095356978E-2
2.426525834E0,1.259446502E0,-2.956310272E0,-6.761507131E-3
2.428959584E0,1.247229218E0,-3.054659605E0,-1.348101906E-2
2.431394167E0,1.212409973E0,-3.120632887E0,-1.409188379E-2
2.433827813E0,1.162929893E0,-3.159117460E0,-1.348101906E-2
2.436260781E0,1.098178267E0,-3.198212624E0,3.012329340E-3
2.438694531E0,1.026096225E0,-3.262353420E0,2.989037707E-2
2.441129115E0,9.552358389E-1,-3.370476484E0,6.532053649E-2
2.443562761E0,8.917059302E-1,-3.480432272E0,9.891809523E-2
2.445995729E0,8.067957163E-1,-3.514029741E0,1.105245203E-1
2.448429479E0,6.876770854E-1,-3.376585245E0,1.031941473E-1
2.450864063E0,5.551194549E-1,-3.123687267E0,7.570523024E-2
2.453297709E0,4.140097499E-1,-2.810924530E0,5.676842108E-2
2.455730677E0,2.393024415E-1,-2.426690578E0,4.088594019E-2
2.458164427E0,4.443658888E-2,-1.951437950E0,3.416642919E-2
2.460598959E0,-1.345467716E-1,-1.503063202E0,3.477729484E-2
2.463032656E0,-2.616066337E-1,-1.107222915E0,2.989037707E-2
2.465465625E0,-3.575123847E-1,-7.492560744E-1,2.378172800E-2
2.467899375E0,-4.185988605E-1,-4.181674421E-1,1.767308265E-2
2.470333906E0,-4.399791360E-1,-1.249523833E-1,-6.528608501E-4
2.472767604E0,-4.412008524E-1,1.358868629E-1,-9.204966016E-3
2.475200573E0,-4.259292483E-1,3.686262965E-1,-6.761507131E-3
2.477634323E0,-4.057707191E-1,5.891485214E-1,7.288381457E-3
2.480068906E0,-3.856121600E-1,8.066163659E-1,2.927951142E-2
2.482502552E0,-3.727840185E-1,1.012477636E0,6.348793209E-2
2.484935521E0,-3.703405559E-1,1.201234937E0,9.647463262E-2
2.487369219E0,-3.764491975E-1,1.360059738E0,1.294613332E-1
2.489803854E0,-3.862230480E-1,1.490784764E0,1.526741832E-1
2.492237500E0,-3.990511894E-1,1.586079717E0,1.728327274E-1
2.494670469E0,-4.131010771E-1,1.649609566E0,1.899369359E-1
2.497104219E0,-4.247075021E-1,1.681374550E0,2.021542341E-1
2.499538802E0,-4.405899942E-1,1.680763721E0,2.088737488E-1
2.501972448E0,-4.479203820E-1,1.653274775E0,2.119280696E-1
2.504405417E0,-4.552507401E-1,1.596464396E0,2.113171965E-1
2.506839167E0,-4.515855610E-1,1.515219331E0,2.045976967E-1
2.509273698E0,-4.405899942E-1,1.411983252E0,2.021542341E-1
2.511707396E0,-4.216531813E-1,1.287977695E0,1.954347193E-1
2.514140365E0,-3.959968686E-1,1.146867990E0,1.862717420E-1
2.516574115E0,-3.623993099E-1,9.935409427E-1,1.801631004E-1
2.519008646E0,-3.233039677E-1,8.334943652E-1,1.758870482E-1
2.521442344E0,-2.774891257E-1,6.673392057E-1,1.691675335E-1
2.523875313E0,-2.243438959E-1,5.024057031E-1,1.642806232E-1
2.526309011E0,-1.724203825E-1,3.423591256E-1,1.636697501E-1
2.528743594E0,-1.192751527E-1,1.884212345E-1,1.600045711E-1
2.531177292E0,-6.246474013E-2,3.326158226E-2,1.551176459E-1
2.533610261E0,-1.481729001E-2,-1.084590331E-1,1.526741832E-1
2.536044011E0,3.649534658E-2,-2.404058129E-1,1.502307355E-1
2.538478542E0,7.864501327E-2,-3.540266454E-1,1.490090042E-1
2.540912240E0,1.159077585E-1,-4.474889636E-1,1.465655416E-1
2.543345209E0,1.397314817E-1,-5.262904763E-1,1.410677582E-1
2.545778906E0,1.574465632E-1,-5.818791986E-1,1.306830645E-1
2.548213490E0,1.666095406E-1,-6.081463695E-1,1.288504601E-1
2.550647188E0,1.617226154E-1,-6.124224067E-1,1.245744079E-1
2.553080156E0,1.482835859E-1,-5.989834070E-1,1.251852810E-1
2.555513854E0,1.275141835E-1,-5.659967065E-1,1.257961392E-1
2.557948438E0,9.880355000E-2,-5.134623051E-1,1.276287287E-1
2.560382136E0,7.192550600E-2,-4.462672174E-1,1.178548932E-1
2.562815104E0,3.771707416E-2,-3.723526001E-1,1.111353934E-1
2.565248802E0,4.119515419E-3,-2.911075950E-1,9.708549082E-2
2.567683386E0,-2.825631574E-2,-2.037539184E-1,8.731165528E-2
2.570117084E0,-5.574522540E-2,-1.218980551E-1,7.081831992E-2
2.572550052E0,-8.812105656E-2,-3.820959106E-2,6.593139470E-2
2.574983750E0,-1.113339067E-1,3.631590679E-2,5.799015239E-2
2.577418334E0,-1.302707195E-1,1.016784310E-1,5.310323462E-2
2.579852031E0,-1.473749280E-1,1.536019444E-1,4.577286169E-2
2.582285000E0,-1.608139575E-1,1.859777719E-1,4.149680585E-2
2.584718698E0,-1.681443304E-1,2.067471743E-1,3.660988808E-2
2.587153281E0,-1.736421138E-1,2.171318680E-1,3.355556354E-2
2.589586979E0,-1.718095243E-1,2.128558159E-1,2.561432496E-2
2.592019948E0,-1.681443304E-1,2.030819803E-1,2.561432496E-2
2.594453646E0,-1.626465470E-1,1.847560406E-1,2.256000042E-2
2.596888229E0,-1.595922261E-1,1.664301008E-1,1.950567588E-2
2.599321927E0,-1.510401219E-1,1.450498402E-1,1.278616488E-2
2.601754844E0,-1.418771446E-1,1.267238855E-1,4.234056920E-3
2.604188594E0,-1.314924508E-1,1.096196696E-1,2.401463687E-3
2.606623177E0,-1.235512048E-1,9.312632680E-2,-6.528608501E-4
2.609056875E0,-1.125556380E-1,7.907643914E-2,-1.874588430E-3
2.611489844E0,-9.972748160E-2,6.685914099E-2,-7.372371852E-3
2.613923542E0,-8.567759395E-2,5.647443980E-2,-1.470274851E-2
2.616358125E0,-7.468202710E-2,3.203985095E-2,-1.653534174E-2
2.618791823E0,-6.307560205E-2,-7.666352205E-3,-1.164842490E-2
2.621224740E0,-5.696695670E-2,-5.531380326E-2,-1.263724640E-3
2.623658490E0,-5.146917328E-2,-1.035721153E-1,9.731840342E-3
2.626093073E0,-5.024744198E-2,-1.377805322E-1,2.805778012E-2
2.628526771E0,-4.780398682E-2,-1.628259867E-1,4.210767150E-2
2.630959688E0,-4.108447209E-2,-1.768758744E-1,5.737928674E-2
2.633393438E0,-3.864101693E-2,-1.884822994E-1,6.654225290E-2
2.635828021E0,-3.925188258E-2,-1.939800829E-1,8.547906578E-2
2.638261719E0,-3.864101693E-2,-1.939800829E-1,9.525290132E-2
2.640694636E0,-3.864101693E-2,-2.006995976E-1,1.202983558E-1
2.643128386E0,-3.864101693E-2,-2.110842913E-1,1.477872729E-1
2.645562969E0,-4.169533774E-2,-2.220798582E-1,1.697784066E-1
2.647996667E0,-4.780398682E-2,-2.312428355E-1,1.813848317E-1
2.650429584E0,-5.757782236E-2,-2.446818650E-1,1.819956899E-1
2.652863334E0,-6.857338548E-2,-2.568991780E-1,1.844391525E-1
2.655297917E0,-7.712548971E-2,-2.630078197E-1,1.893260777E-1
2.657731615E0,-8.323413134E-2,-2.556774318E-1,1.874934733E-1
2.660164531E0,-8.873191476E-2,-2.336862981E-1,1.850500256E-1
2.662598281E0,-9.056451917E-2,-1.689346284E-1,1.618371606E-1
2.665032865E0,-8.934278786E-2,-6.203331426E-2,1.105245203E-1
2.667466563E0,-8.017981052E-2,5.647443980E-2,5.188150331E-2
2.669899479E0,-7.162770629E-2,1.676518321E-1,-1.263724640E-3
2.672333229E0,-6.124300882E-2,2.647792995E-1,-7.029143721E-2
2.674767813E0,-4.108447209E-2,2.922682166E-1,-1.240475327E-1
2.677201511E0,-1.359556243E-2,2.550054789E-1,-1.411517411E-1
2.679634427E0,4.119515419E-3,2.006385177E-1,-1.295453161E-1
2.682068177E0,1.450421661E-2,1.548236758E-1,-1.014455408E-1
2.684502761E0,1.389335096E-2,1.242804304E-1,-7.090230286E-2
2.686936459E0,7.173839957E-3,1.035110280E-1,-5.196549743E-2
2.689369375E0,-1.989129931E-3,8.579594642E-2,-5.013290048E-2
2.691803125E0,-8.097779006E-3,5.952876434E-2,-6.235019490E-2
2.694237709E0,-1.054123789E-2,2.043342404E-2,-6.968057156E-2
2.696671406E0,-8.097779006E-3,-1.866191812E-2,-6.845884025E-2
2.699104323E0,-1.115209982E-2,-4.553996772E-2,-5.318722501E-2
2.701538073E0,-1.481729001E-2,-6.569850445E-2,-3.180696070E-2
2.703972656E0,-2.459112555E-2,-6.753109396E-2,-4.199519753E-5
2.706406354E0,-4.780398682E-2,-6.569850445E-2,3.050124273E-2
2.708839271E0,-6.124300882E-2,-7.425060868E-2,4.760545120E-2
2.711273021E0,-7.040597498E-2,-6.081158668E-2,5.188150331E-2
2.713707604E0,-7.101684809E-2,-4.798342660E-2,5.065977946E-2
2.716141302E0,-6.551906466E-2,-3.271180764E-2,1.950567588E-2
2.718574219E0,-6.551906466E-2,-2.779434435E-3,2.401463687E-3
2.721007969E0,-6.918424368E-2,2.107483335E-3,4.844922572E-3
2.723442552E0,-6.918424368E-2,3.940077499E-3,2.401463687E-3
2.725876250E0,-7.101684809E-2,2.107483335E-3,6.066652015E-3
2.728309167E0,-6.674079597E-2,2.107483335E-3,1.034270599E-2
2.730742917E0,-6.246474013E-2,1.496618614E-3,1.584048942E-2
2.733177500E0,-6.124300882E-2,-4.612028599E-3,2.378172800E-2
2.735611146E0,-5.513435975E-2,-6.444622763E-3,1.950567588E-2
2.738044115E0,-5.146917328E-2,-7.055487484E-3,1.767308265E-2
2.740477865E0,-4.291706905E-2,-1.194240525E-2,1.706221700E-2
2.742912448E0,-4.536052421E-2,-1.744018681E-2,1.278616488E-2
2.745346094E0,-4.474965855E-2,-2.232710458E-2,1.706221700E-2
2.747779063E0,-4.719312117E-2,-2.538142912E-2,2.805778012E-2
2.750212813E0,-5.085830763E-2,-3.149007633E-2,4.271853343E-2
2.752647396E0,-4.230620340E-2,-3.393353522E-2,4.394026473E-2
2.755081042E0,-3.497582301E-2,-2.965748124E-2,5.004891381E-2
2.757514011E0,-1.970420778E-2,-2.538142912E-2,3.477729484E-2
2.759947761E0,-6.876047701E-3,-1.927278191E-2,1.461875811E-2
2.762382344E0,4.543289542E-4,-9.498946369E-3,-1.263724640E-3
2.764815990E0,1.065192744E-3,-8.277216926E-3,-1.531361323E-2
2.767248959E0,5.341246724E-3,-7.666352205E-3,-2.020053193E-2
2.769682709E0,5.341246724E-3,-5.222893320E-3,-1.409188379E-2
2.772117292E0,4.730381072E-3,-1.072067581E-2,-5.539777689E-3
2.774550938E0,-3.210861236E-3,-1.560759358E-2,6.066652015E-3
2.776983906E0,-5.654320121E-3,-2.171624079E-2,1.278616488E-2
2.779417656E0,-1.603901759E-2,-2.904661745E-2,1.339702681E-2
2.781852240E0,-2.703458443E-2,-3.149007633E-2,7.899247110E-3
2.784285886E0,-3.619755432E-2,-3.576613218E-2,4.844922572E-3
2.786718854E0,-4.230620340E-2,-4.370737076E-2,-3.096319735E-3
2.789152604E0,-5.085830763E-2,-4.859428853E-2,-4.928912967E-3
2.791587188E0,-5.635609105E-2,-5.836812407E-2,-6.528608501E-4
2.794020834E0,-6.185387447E-2,-6.569850445E-2,4.844922572E-3
2.796453802E0,-6.002127752E-2,-7.180715352E-2,9.120974690E-3
2.798887552E0,-5.635609105E-2,-7.486147434E-2,1.278616488E-2
2.801322084E0,-4.413879290E-2,-7.791579515E-2,1.461875811E-2
2.803755781E0,-3.375409916E-2,-8.097012341E-2,1.217529923E-2
2.806188750E0,-2.581285313E-2,-8.097012341E-2,8.510110900E-3
2.808622500E0,-1.481729001E-2,-7.669406384E-2,9.731840342E-3
2.811057031E0,-4.432588816E-3,-7.486147434E-2,9.120974690E-3
2.813490729E0,3.508651629E-3,-7.547233999E-2,9.120974690E-3
2.815923698E0,1.450421661E-2,-7.547233999E-2,7.288381457E-3
2.818357396E0,2.488891780E-2,-7.486147434E-2,2.401463687E-3
2.820791979E0,2.794324048E-2,-7.241801172E-2,4.844922572E-3
2.823225677E0,2.916496992E-2,-7.363974303E-2,2.401463687E-3
2.825658646E0,3.038669936E-2,-7.425060868E-2,6.677515805E-3
2.828092396E0,3.221929446E-2,-6.936369091E-2,2.401463687E-3
2.830526927E0,2.855410427E-2,-6.508763880E-2,-2.485454082E-3
2.832960625E0,2.549978159E-2,-5.958985537E-2,-8.594101295E-3
2.835393594E0,2.122372761E-2,-5.714639649E-2,-1.225928962E-2
2.837827292E0,1.755854115E-2,-5.775726214E-2,-9.815830737E-3
2.840261875E0,1.206075773E-2,-6.264417619E-2,-5.539777689E-3
2.842695573E0,1.206075773E-2,-6.264417619E-2,-6.528608501E-4
2.845128542E0,1.328248717E-2,-5.775726214E-2,-6.528608501E-4
2.847562240E0,1.389335096E-2,-5.348120630E-2,-3.707183525E-3
2.849996823E0,1.755854115E-2,-4.859428853E-2,-9.815830737E-3
2.852430521E0,1.816940494E-2,-4.553996772E-2,-1.042669546E-2
2.854863490E0,1.511508226E-2,-4.248564318E-2,-1.409188379E-2
2.857297188E0,1.450421661E-2,-3.698785976E-2,-1.225928962E-2
2.859731771E0,1.144989207E-2,-3.515526652E-2,-9.815830737E-3
2.862165469E0,1.083902828E-2,-3.515526652E-2,-1.103756018E-2
2.864598438E0,1.022816449E-2,-3.210094199E-2,-4.928912967E-3
2.867032136E0,4.730381072E-3,-3.393353522E-2,-7.372371852E-3
2.869466719E0,1.065192744E-3,-3.271180764E-2,-4.318048246E-3
2.871900417E0,-3.210861236E-3,-3.087921254E-2,-3.096319735E-3
2.874333386E0,-7.486913353E-3,-3.210094199E-2,-1.263724640E-3
2.876767084E0,-6.876047701E-3,-3.454440087E-2,-1.874588430E-3
2.879201667E0,-1.115209982E-2,-3.393353522E-2,-6.528608501E-4
2.881635365E0,-1.420642436E-2,-3.698785976E-2,-1.263724640E-3
2.884068281E0,-1.359556243E-2,-3.882045299E-2,-6.528608501E-4
2.886502031E0,-1.603901759E-2,-4.492910206E-2,-3.096319735E-3
2.888936615E0,-1.664988324E-2,-4.309650883E-2,-2.485454082E-3
2.891370313E0,-1.481729001E-2,-4.615083337E-2,-2.485454082E-3
2.893803281E0,-1.664988324E-2,-4.553996772E-2,-3.707183525E-3
2.896236979E0,-1.542815566E-2,-4.920515418E-2,-1.263724640E-3
2.898671563E0,-1.298469678E-2,-4.737256095E-2,-3.707183525E-3
2.901105261E0,-9.930372238E-3,-4.676169530E-2,-4.199519753E-5
2.903538177E0,-8.097779006E-3,-4.920515418E-2,-4.199519753E-5
2.905971927E0,-7.486913353E-3,-4.492910206E-2,5.455788225E-3
2.908406511E0,-4.432588816E-3,-4.187477753E-2,7.288381457E-3
2.910840209E0,-2.599995583E-3,-3.882045299E-2,9.120974690E-3
2.913273177E0,-3.210861236E-3,-3.759872541E-2,5.455788225E-3
2.915706875E0,4.543289542E-4,-3.454440087E-2,8.510110900E-3
2.918141459E0,-7.674023509E-4,-2.782488801E-2,1.095356978E-2
2.920575156E0,-7.674023509E-4,-1.988364570E-2,1.278616488E-2
2.923008073E0,-1.565366983E-4,-1.621845923E-2,1.584048942E-2
2.925441823E0,2.286922187E-3,-1.133154053E-2,1.339702681E-2
2.927876406E0,-7.674023509E-4,-5.222893320E-3,1.400789246E-2
2.930310104E0,1.065192744E-3,1.496618614E-3,1.584048942E-2
2.932743021E0,4.543289542E-4,6.383536384E-3,1.400789246E-2
2.935176771E0,-7.674023509E-4,1.249218360E-2,1.339702681E-2
2.937611354E0,4.119515419E-3,1.432477776E-2,1.156443357E-2
2.940045052E0,1.065192744E-3,1.798996516E-2,1.339702681E-2
2.942477969E0,2.897787839E-3,1.798996516E-2,1.278616488E-2
2.944911719E0,7.173839957E-3,1.860083081E-2,1.034270599E-2
2.947346302E0,2.897787839E-3,1.860083081E-2,9.120974690E-3
2.949780000E0,3.508651629E-3,1.676823758E-2,9.731840342E-3
2.952212917E0,5.952110514E-3,1.493564248E-2,6.677515805E-3
2.954646667E0,5.952110514E-3,1.432477776E-2,6.677515805E-3
2.957081250E0,7.784705609E-3,1.188131887E-2,7.288381457E-3
2.959514948E0,9.617298841E-3,1.065958943E-2,4.234056920E-3
2.961947865E0,7.173839957E-3,1.249218360E-2,2.401463687E-3
2.964381615E0,8.395569399E-3,1.065958943E-2,3.012329340E-3
2.966816198E0,5.341246724E-3,1.127045415E-2,-4.199519753E-5
2.969249896E0,5.952110514E-3,1.004872471E-2,-1.263724640E-3
2.971682813E0,9.006433189E-3,9.437859990E-3,-3.096319735E-3
2.974116563E0,3.508651629E-3,1.249218360E-2,5.688704550E-4
2.976551146E0,5.952110514E-3,1.371391304E-2,-1.874588430E-3
2.978984844E0,6.562974304E-3,1.554650627E-2,-2.485454082E-3
2.981417761E0,6.562974304E-3,1.982256025E-2,-3.096319735E-3
2.983851511E0,7.173839957E-3,1.982256025E-2,-4.318048246E-3
2.986286094E0,1.083902828E-2,2.287688293E-2,-3.707183525E-3
2.988719792E0,9.006433189E-3,2.470947802E-2,-3.096319735E-3
2.991152709E0,1.022816449E-2,2.287688293E-2,-1.874588430E-3
2.993586459E0,1.328248717E-2,2.287688293E-2,-5.539777689E-3
2.996021042E0,1.816940494E-2,2.287688293E-2,-1.263724640E-3
2.998454740E0,1.572594605E-2,2.409861423E-2,-3.096319735E-3
3.000887656E0,1.816940494E-2,2.226601914E-2,-4.928912967E-3
3.003321406E0,2.244545892E-2,2.165515535E-2,1.790598035E-3
3.005755990E0,2.183459327E-2,1.982256025E-2,-1.263724640E-3
3.008189688E0,2.488891780E-2,1.798996516E-2,-1.263724640E-3
3.010622604E0,2.305632271E-2,1.860083081E-2,-4.199519753E-5
3.013056354E0,2.611064538E-2,1.615737192E-2,-3.707183525E-3
3.015490938E0,2.916496992E-2,1.737910137E-2,-6.528608501E-4
3.017924636E0,2.794324048E-2,1.798996516E-2,6.066652015E-3
3.020357552E0,2.733237669E-2,1.554650627E-2,-6.528608501E-4
3.022791302E0,2.977583557E-2,1.676823758E-2,1.179734245E-3
3.025225886E0,2.794324048E-2,1.554650627E-2,3.012329340E-3
3.027659584E0,2.672151104E-2,1.615737192E-2,5.688704550E-4
3.030092500E0,2.366718650E-2,1.493564248E-2,4.234056920E-3
3.032526250E0,2.488891780E-2,1.310304832E-2,4.234056920E-3
3.034960834E0,1.939113438E-2,1.127045415E-2,5.455788225E-3
3.037394531E0,1.267162338E-2,1.310304832E-2,6.677515805E-3
3.039827448E0,1.450421661E-2,1.065958943E-2,8.510110900E-3
3.042261198E0,1.083902828E-2,8.826995268E-3,7.288381457E-3
3.044695781E0,5.952110514E-3,9.437859990E-3,7.899247110E-3
3.047129479E0,2.897787839E-3,7.605265826E-3,9.120974690E-3
3.049562396E0,-7.674023509E-4,6.383536384E-3,7.899247110E-3
3.051996146E0,-1.989129931E-3,6.383536384E-3,1.034270599E-2
3.054430729E0,-5.654320121E-3,3.940077499E-3,1.156443357E-2
3.056864427E0,-1.176296547E-2,3.940077499E-3,1.339702681E-2
3.059297344E0,-1.359556243E-2,8.857538342E-4,9.731840342E-3
3.061731094E0,-1.359556243E-2,-3.359756083E-4,9.120974690E-3
3.064165677E0,-1.664988324E-2,2.107483335E-3,1.217529923E-2
3.066599323E0,-1.664988324E-2,-2.168569714E-3,1.095356978E-2
3.069032292E0,-1.726074889E-2,-3.390299156E-3,9.120974690E-3
3.071466042E0,-1.787161455E-2,-5.833758041E-3,1.400789246E-2
3.073900625E0,-1.664988324E-2,-8.277216926E-3,1.584048942E-2
3.076334271E0,-1.909334213E-2,-1.010981109E-2,1.400789246E-2
3.078767240E0,-1.664988324E-2,-8.888081647E-3,1.828394458E-2
3.081200990E0,-1.115209982E-2,-1.316413470E-2,1.767308265E-2
3.083635573E0,-1.237383112E-2,-1.560759358E-2,2.317086235E-2
3.086069271E0,-1.237383112E-2,-1.560759358E-2,2.072740719E-2
3.088502188E0,-6.265182048E-3,-1.438586414E-2,2.500345930E-2
3.090935938E0,-5.043454468E-3,-1.133154053E-2,2.378172800E-2
3.093370521E0,-4.432588816E-3,-1.377499942E-2,2.561432496E-2
3.095804219E0,-3.821726888E-3,-1.560759358E-2,2.500345930E-2
3.098237136E0,-6.265182048E-3,-1.866191812E-2,2.561432496E-2
3.100670886E0,-8.097779006E-3,-2.415969968E-2,2.683605254E-2
3.103105469E0,-9.319506586E-3,-3.149007633E-2,2.500345930E-2
3.105539167E0,-1.237383112E-2,-3.820959106E-2,2.500345930E-2
3.107972084E0,-1.481729001E-2,-4.370737076E-2,2.317086235E-2
3.110405834E0,-1.542815566E-2,-4.920515418E-2,2.500345930E-2
3.112840417E0,-1.176296547E-2,-5.714639649E-2,2.133826911E-2
3.115274063E0,-1.176296547E-2,-6.447677314E-2,1.645135134E-2
3.117707031E0,-9.930372238E-3,-6.814195961E-2,1.828394458E-2
3.120140781E0,-8.097779006E-3,-8.097012341E-2,1.828394458E-2
3.122575365E0,-1.378264278E-3,-9.502001107E-2,1.706221700E-2
3.125009063E0,4.543289542E-4,-1.145676821E-1,1.522962376E-2
3.127441979E0,7.173839957E-3,-1.365588009E-1,1.522962376E-2
3.129875729E0,1.083902828E-2,-1.603825241E-1,1.400789246E-2
3.132310313E0,1.633680984E-2,-1.835953891E-1,8.510110900E-3
3.134744011E0,2.305632271E-2,-2.135277539E-1,7.899247110E-3
3.137176927E0,3.099756315E-2,-2.550665736E-1,4.234056920E-3
3.139610677E0,3.893880546E-2,-3.106552660E-1,-1.263724640E-3
3.142045261E0,5.421042442E-2,-3.778503835E-1,-1.874588430E-3
3.144478959E0,7.375809550E-2,-4.682583511E-1,-3.096319735E-3
3.146911875E0,1.055230647E-1,-5.922638774E-1,-1.263724640E-3
3.149345625E0,1.342336982E-1,-7.327627540E-1,1.790598035E-3
3.151780209E0,1.653878093E-1,-8.732616305E-1,1.179734245E-3
3.154213906E0,1.916549951E-1,-9.972671866E-1,-3.096319735E-3
3.156646823E0,2.124243975E-1,-1.106611967E0,-4.318048246E-3
3.159080573E0,2.301394641E-1,-1.196409106E0,-4.318048246E-3
3.161515156E0,2.386915684E-1,-1.270934582E0,3.623193130E-3
3.163948854E0,2.393024415E-1,-1.315527797E0,1.645135134E-2
3.166381771E0,2.301394641E-1,-1.339351535E0,3.172297031E-2
3.168815521E0,2.093700618E-1,-1.330188513E0,5.065977946E-2
3.171250104E0,1.782159656E-1,-1.291093230E0,6.165533885E-2
3.173683802E0,1.397314817E-1,-1.223898053E0,7.998128235E-2
3.176116719E0,9.636008739E-2,-1.131046653E0,8.975511789E-2
3.178550469E0,5.359955877E-2,-1.023534417E0,9.647463262E-2
3.180985052E0,1.633680984E-2,-9.105243683E-1,9.525290132E-2
3.183418750E0,-3.253236786E-2,-7.797993422E-1,8.975511789E-2
3.185851667E0,-8.873191476E-2,-6.344135404E-1,8.670079708E-2
3.188285417E0,-1.363793612E-1,-4.878060222E-1,7.631608844E-2
3.190720000E0,-1.815833598E-1,-3.442528248E-1,6.532053649E-2
3.193153698E0,-2.206786871E-1,-2.013104707E-1,5.127064511E-2
3.195586615E0,-2.524436712E-1,-6.936369091E-2,4.332939908E-2
3.198020365E0,-2.780999839E-1,5.464184657E-2,3.294469789E-2
3.200454948E0,-2.970367968E-1,1.664301008E-1,2.866864577E-2
3.202888646E0,-3.013128340E-1,2.592815161E-1,2.194913477E-2
3.205321563E0,-3.061997592E-1,3.399156630E-1,1.461875811E-2
3.207755313E0,-3.013128340E-1,4.095542431E-1,1.095356978E-2
3.210189896E0,-2.866520882E-1,4.608668685E-1,1.767308265E-2
3.212623594E0,-2.701587379E-1,4.853014648E-1,1.645135134E-2
3.215056511E0,-2.518328130E-1,4.969078898E-1,1.645135134E-2
3.217490261E0,-2.335068583E-1,4.993513525E-1,1.400789246E-2
3.219924844E0,-2.182352394E-1,4.944644272E-1,1.706221700E-2
3.222358542E0,-1.986875683E-1,4.614777565E-1,7.899247110E-3
3.224791511E0,-1.968549788E-1,4.358214140E-1,-1.042669546E-2
3.227225209E0,-2.011310309E-1,4.291019142E-1,-2.997436747E-2
3.229659792E0,-2.188461125E-1,4.370431602E-1,-4.219166189E-2
3.232093490E0,-2.359503210E-1,4.388757646E-1,-5.440895632E-2
3.234526406E0,-2.475567460E-1,4.449844062E-1,-5.440895632E-2
3.236960156E0,-2.481676042E-1,4.431518018E-1,-4.035906494E-2
3.239394740E0,-2.469458878E-1,4.339888394E-1,-2.081139572E-2
3.241828438E0,-2.353394628E-1,4.101651013E-1,-6.528608501E-4
3.244261406E0,-2.139591873E-1,3.692371845E-1,2.378172800E-2
3.246695104E0,-1.895245910E-1,3.142593503E-1,4.821631685E-2
3.249129688E0,-1.547053009E-1,2.482859641E-1,6.593139470E-2
3.251563386E0,-1.204968840E-1,1.731496155E-1,7.326176763E-2
3.253996354E0,-8.262327313E-2,9.373719245E-2,6.654225290E-2
3.256430104E0,-5.574522540E-2,2.348774858E-2,6.226620451E-2
3.258864636E0,-3.619755432E-2,-3.943131864E-2,6.287707388E-2
3.261298334E0,-1.603901759E-2,-9.868519753E-2,6.593139470E-2
3.263731302E0,-3.821726888E-3,-1.554956138E-1,6.715312600E-2
3.266165052E0,-1.989129931E-3,-1.964235455E-1,7.631608844E-2
3.268599636E0,-8.708644658E-3,-2.208581418E-1,8.425733447E-2
3.271033281E0,-9.930372238E-3,-2.324645668E-1,7.998128235E-2
3.273466250E0,-1.420642436E-2,-2.281885147E-1,7.204003632E-2
3.275900000E0,-2.214766666E-2,-2.171929479E-1,5.921188369E-2
3.278334584E0,-3.375409916E-2,-1.945909560E-1,5.615755543E-2
3.280768229E0,-4.291706905E-2,-1.658803076E-1,5.554669723E-2
3.283201198E0,-5.330177024E-2,-1.359479427E-1,5.432496592E-2
3.285634948E0,-6.368646026E-2,-1.072373018E-1,5.676842108E-2
3.288069531E0,-7.407116890E-2,-8.402444422E-2,6.104448065E-2
3.290503177E0,-8.201241493E-2,-6.936369091E-2,6.043361500E-2
3.292936146E0,-9.178625047E-2,-6.081158668E-2,5.615755543E-2
3.295369896E0,-1.003383398E-1,-6.264417619E-2,5.676842108E-2
3.297804479E0,-1.125556380E-1,-7.058542222E-2,5.432496592E-2
3.300238177E0,-1.198860109E-1,-8.402444422E-2,5.554669723E-2
3.302671094E0,-1.266055256E-1,-9.990692884E-2,5.249236897E-2
3.305104844E0,-1.351576298E-1,-1.182328686E-1,5.004891381E-2
3.307539427E0,-1.424880177E-1,-1.335044801E-1,4.394026473E-2
3.309973125E0,-1.400445551E-1,-1.493869573E-1,3.660988808E-2
3.312406042E0,-1.376010925E-1,-1.640477180E-1,3.172297031E-2
3.314839792E0,-1.339359134E-1,-1.768758744E-1,2.500345930E-2
3.317274375E0,-1.302707195E-1,-1.878714412E-1,2.133826911E-2
3.319708073E0,-1.241620779E-1,-1.982561350E-1,1.156443357E-2
3.322140990E0,-1.174425632E-1,-2.068082392E-1,7.899247110E-3
3.324574740E0,-1.125556380E-1,-2.123060226E-1,7.899247110E-3
3.327009323E0,-1.058361232E-1,-2.220798582E-1,8.510110900E-3
3.329443021E0,-9.911662340E-2,-2.281885147E-1,6.066652015E-3
3.331875938E0,-9.422969818E-2,-2.257450521E-1,1.179734245E-3
3.334309688E0,-8.506673574E-2,-2.245233208E-1,-4.318048246E-3
3.336744271E0,-9.056451917E-2,-2.196364105E-1,-6.150642410E-3
3.339177969E0,-8.689932525E-2,-2.129168957E-1,-6.761507131E-3
3.341610938E0,-8.017981052E-2,-2.037539184E-1,-1.164842490E-2
3.344044636E0,-7.468202710E-2,-1.878714412E-1,-6.761507131E-3
3.346479219E0,-7.407116890E-2,-1.835953891E-1,-7.372371852E-3
3.348912917E0,-7.712548971E-2,-1.854279786E-1,-3.707183525E-3
3.351345886E0,-7.590375841E-2,-1.823736578E-1,-4.928912967E-3
3.353779636E0,-7.346029580E-2,-1.744324118E-1,-7.372371852E-3
3.356214167E0,-7.162770629E-2,-1.701563597E-1,-6.150642410E-3
3.358647865E0,-7.101684809E-2,-1.677128971E-1,-9.204966016E-3
3.361080834E0,-6.551906466E-2,-1.695455015E-1,-1.409188379E-2
3.363514584E0,-6.796252728E-2,-1.671020389E-1,-1.103756018E-2
3.365949167E0,-6.246474013E-2,-1.658803076E-1,-9.204966016E-3
3.368382813E0,-6.368646026E-2,-1.677128971E-1,-6.761507131E-3
3.370815781E0,-5.696695670E-2,-1.640477180E-1,-4.318048246E-3
3.373249531E0,-5.513435975E-2,-1.573282033E-1,-4.928912967E-3
3.375684115E0,-5.513435975E-2,-1.518304199E-1,-1.263724640E-3
3.378117813E0,-5.024744198E-2,-1.451109052E-1,-3.096319735E-3
3.380550729E0,-4.474965855E-2,-1.365588009E-1,-1.874588430E-3
3.382984479E0,-4.413879290E-2,-1.273958385E-1,1.179734245E-3
3.385419063E0,-3.986274078E-2,-1.194545999E-1,3.012329340E-3
3.387852761E0,-3.864101693E-2,-1.145676821E-1,1.179734245E-3
3.390285677E0,-3.986274078E-2,-1.066264361E-1,1.790598035E-3
3.392719427E0,-3.925188258E-2,-1.029612496E-1,3.623193130E-3
3.395154011E0,-3.986274078E-2,-9.318741411E-2,5.688704550E-4
3.397587709E0,-3.986274078E-2,-8.341357857E-2,3.012329340E-3
3.400020625E0,-3.864101693E-2,-7.974839211E-2,3.623193130E-3
3.402454375E0,-3.803015128E-2,-7.058542222E-2,1.790598035E-3
3.404888959E0,-3.314323351E-2,-6.508763880E-2,3.623193130E-3
3.407322656E0,-3.375409916E-2,-5.897898972E-2,1.790598035E-3
3.409755573E0,-3.069977090E-2,-5.103775114E-2,4.844922572E-3
3.412189323E0,-3.131063655E-2,-4.492910206E-2,1.179734245E-3
3.414623906E0,-3.008890897E-2,-3.759872541E-2,1.790598035E-3
3.417057604E0,-2.642371878E-2,-3.393353522E-2,1.179734245E-3
3.419490573E0,-2.703458443E-2,-2.782488801E-2,-6.528608501E-4
3.421924323E0,-2.520199120E-2,-2.599229477E-2,1.179734245E-3
3.424358854E0,-2.459112555E-2,-2.171624079E-2,-3.096319735E-3
3.426792552E0,-2.398025990E-2,-1.682932302E-2,-1.874588430E-3
3.429225521E0,-2.398025990E-2,-1.316413470E-2,-3.707183525E-3
3.431659271E0,-1.970420778E-2,-9.498946369E-3,-5.539777689E-3
3.434093854E0,-2.031507343E-2,-5.222893320E-3,-4.318048246E-3
3.436527552E0,-2.092593536E-2,-3.390299156E-3,-4.318048246E-3
3.438960469E0,-1.664988324E-2,-9.468403296E-4,-6.150642410E-3
3.441394219E0,-1.176296547E-2,8.857538342E-4,-7.983236574E-3
3.443828802E0,-1.359556243E-2,-9.468403296E-4,-9.815830737E-3
3.446262500E0,-1.054123789E-2,2.107483335E-3,-7.372371852E-3
3.448695417E0,-5.654320121E-3,2.748891129E-4,-8.594101295E-3
3.451129167E0,-3.210861236E-3,8.857538342E-4,-1.409188379E-2
3.453563750E0,-4.432588816E-3,3.329212777E-3,-1.225928962E-2
3.455997448E0,-1.565366983E-4,5.161806941E-3,-9.204966016E-3
3.458430365E0,1.676056534E-3,4.550942220E-3,-1.348101906E-2
3.460864115E0,2.286922187E-3,6.383536384E-3,-1.287015434E-2
3.463298698E0,4.730381072E-3,8.826995268E-3,-1.470274851E-2
3.465732396E0,5.341246724E-3,9.437859990E-3,-9.815830737E-3
3.468165365E0,7.784705609E-3,1.432477776E-2,-1.164842490E-2
3.470599063E0,9.006433189E-3,1.554650627E-2,-1.042669546E-2
3.473033646E0,9.617298841E-3,1.860083081E-2,-1.164842490E-2
3.475467344E0,1.267162338E-2,2.226601914E-2,-7.372371852E-3
3.477900313E0,1.206075773E-2,2.654207312E-2,-5.539777689E-3
3.480334063E0,1.572594605E-2,3.081812523E-2,-7.983236574E-3
3.482768646E0,1.511508226E-2,3.387244791E-2,-5.539777689E-3
3.485202292E0,1.694767550E-2,3.509417549E-2,-2.485454082E-3
3.487635261E0,1.939113438E-2,3.875936568E-2,-3.707183525E-3
3.490069011E0,1.694767550E-2,4.181368649E-2,-4.318048246E-3
3.492503594E0,1.755854115E-2,5.158752203E-2,-4.199519753E-5
3.494937292E0,1.755854115E-2,5.525271222E-2,-3.707183525E-3
3.497370209E0,1.939113438E-2,5.952876434E-2,-6.528608501E-4
3.499803959E0,2.183459327E-2,6.075049564E-2,-4.199519753E-5
3.502238542E0,2.000200003E-2,6.685914099E-2,-1.263724640E-3
3.504672240E0,2.183459327E-2,7.357865572E-2,-1.263724640E-3
3.507105156E0,2.305632271E-2,7.602211088E-2,2.401463687E-3
3.509538906E0,2.366718650E-2,8.090902865E-2,2.401463687E-3
3.511973490E0,2.794324048E-2,8.335249126E-2,3.623193130E-3
3.514407188E0,2.794324048E-2,8.457421511E-2,3.623193130E-3
3.516840156E0,2.672151104E-2,9.190459549E-2,6.066652015E-3
3.519273854E0,2.855410427E-2,9.312632680E-2,1.179734245E-3
3.521708438E0,3.160842881E-2,9.495891631E-2,3.623193130E-3
3.524142136E0,3.283015639E-2,9.679151326E-2,6.066652015E-3
3.526575104E0,3.221929446E-2,9.801324457E-2,3.623193130E-3
3.529008802E0,3.649534658E-2,1.022892967E-1,4.234056920E-3
3.531443438E0,3.588448092E-2,1.035110280E-1,4.844922572E-3
3.533877084E0,3.893880546E-2,1.059544832E-1,3.623193130E-3
3.536310052E0,3.771707416E-2,1.077870801E-1,6.066652015E-3
3.538743802E0,3.466275334E-2,1.102305353E-1,9.120974690E-3
3.541178386E0,3.771707416E-2,1.120631322E-1,6.066652015E-3
3.543612084E0,3.771707416E-2,1.096196696E-1,6.677515805E-3
3.546045000E0,3.344102204E-2,1.163391843E-1,7.899247110E-3
3.548478750E0,3.344102204E-2,1.120631322E-1,3.012329340E-3
3.550913334E0,3.221929446E-2,1.132848635E-1,6.677515805E-3
3.553347031E0,3.466275334E-2,1.126739979E-1,6.677515805E-3
3.555779948E0,3.160842881E-2,1.145065874E-1,5.455788225E-3
3.558213698E0,2.916496992E-2,1.145065874E-1,6.677515805E-3
3.560648281E0,3.038669936E-2,1.157283187E-1,7.899247110E-3
3.563081979E0,2.977583557E-2,1.138957217E-1,3.012329340E-3
3.565514948E0,2.916496992E-2,1.151174530E-1,1.790598035E-3
3.567948646E0,2.916496992E-2,1.151174530E-1,2.401463687E-3
3.570383229E0,3.099756315E-2,1.157283187E-1,3.012329340E-3
3.572816927E0,2.733237669E-2,1.175609156E-1,-1.263724640E-3
3.575249896E0,2.977583557E-2,1.169500500E-1,5.688704550E-4
3.577683646E0,2.855410427E-2,1.175609156E-1,5.688704550E-4
3.580118229E0,3.221929446E-2,1.200043708E-1,2.401463687E-3
3.582551875E0,3.527361900E-2,1.218369678E-1,-1.263724640E-3
3.584984844E0,3.405188769E-2,1.236695573E-1,5.688704550E-4
3.587418594E0,3.405188769E-2,1.236695573E-1,-1.874588430E-3
3.589853177E0,3.588448092E-2,1.267238855E-1,3.623193130E-3
3.592286875E0,3.527361900E-2,1.273347586E-1,-1.263724640E-3
3.594719792E0,3.344102204E-2,1.285564899E-1,1.790598035E-3
3.597153542E0,3.283015639E-2,1.261130273E-1,3.623193130E-3
3.599588125E0,2.916496992E-2,1.267238855E-1,3.012329340E-3
3.602021823E0,2.733237669E-2,1.255021691E-1,1.179734245E-3
3.604454740E0,2.611064538E-2,1.248912886E-1,1.179734245E-3
3.606888490E0,2.122372761E-2,1.224478334E-1,5.688704550E-4
3.609323073E0,1.939113438E-2,1.212261021E-1,1.790598035E-3
3.611756771E0,1.694767550E-2,1.230586991E-1,2.401463687E-3
3.614189740E0,1.083902828E-2,1.255021691E-1,6.066652015E-3
3.616623490E0,9.617298841E-3,1.261130273E-1,4.234056920E-3
3.619058073E0,2.897787839E-3,1.255021691E-1,1.095356978E-2
3.621491771E0,2.897787839E-3,1.236695573E-1,9.120974690E-3
3.623924688E0,3.508651629E-3,1.224478334E-1,1.156443357E-2
3.626358438E0,-1.565366983E-4,1.218369678E-1,1.278616488E-2
3.628793021E0,-3.210861236E-3,1.206152365E-1,1.706221700E-2
3.631226719E0,-4.432588816E-3,1.169500500E-1,1.645135134E-2
3.633659636E0,-1.989129931E-3,1.157283187E-1,1.828394458E-2
3.636093386E0,-6.876047701E-3,1.114522666E-1,2.194913477E-2
3.638527969E0,-6.876047701E-3,1.071762145E-1,2.011654153E-2
3.640961667E0,-3.210861236E-3,1.035110280E-1,2.439259365E-2
3.643394636E0,-3.821726888E-3,9.801324457E-2,2.194913477E-2
3.645828334E0,-5.043454468E-3,9.129372984E-2,2.256000042E-2
3.648262969E0,-3.821726888E-3,8.396335691E-2,2.500345930E-2
3.650696615E0,-1.989129931E-3,7.968730479E-2,2.317086235E-2
3.653129584E0,-2.599995583E-3,7.296779007E-2,2.194913477E-2
3.655563334E0,-1.378264278E-3,6.380482018E-2,2.256000042E-2
3.657997917E0,-3.210861236E-3,5.891790241E-2,2.317086235E-2
3.660431615E0,-2.599995583E-3,5.158752203E-2,2.072740719E-2
3.662864531E0,-3.821726888E-3,4.670060426E-2,1.828394458E-2
3.665298281E0,-6.876047701E-3,3.937023133E-2,2.133826911E-2
3.667732865E0,-9.319506586E-3,3.692676872E-2,2.011654153E-2
3.670166563E0,-8.708644658E-3,3.448331356E-2,1.828394458E-2
3.672599479E0,-1.542815566E-2,3.265071660E-2,2.133826911E-2
3.675033229E0,-1.420642436E-2,2.837466635E-2,1.828394458E-2
3.677467813E0,-1.909334213E-2,2.959639579E-2,2.011654153E-2
3.679901511E0,-2.031507343E-2,3.020725958E-2,1.889481023E-2
3.682334479E0,-2.031507343E-2,2.898553200E-2,1.767308265E-2
3.684768229E0,-2.031507343E-2,2.959639579E-2,2.072740719E-2
3.687202813E0,-2.336939797E-2,3.081812523E-2,1.950567588E-2
3.689636459E0,-2.153680101E-2,3.081812523E-2,2.194913477E-2
3.692069427E0,-2.398025990E-2,3.387244791E-2,2.072740719E-2
3.694503177E0,-2.336939797E-2,3.448331356E-2,2.133826911E-2
3.696937761E0,-2.459112555E-2,3.081812523E-2,2.317086235E-2
3.699371459E0,-2.398025990E-2,3.387244791E-2,2.133826911E-2
3.701804375E0,-2.398025990E-2,3.448331356E-2,2.133826911E-2
3.704238125E0,-2.092593536E-2,3.142898902E-2,1.950567588E-2
3.706672709E0,-2.153680101E-2,3.203985095E-2,2.317086235E-2
3.709106406E0,-2.153680101E-2,2.959639579E-2,2.133826911E-2
3.711539375E0,-1.726074889E-2,2.715293691E-2,2.256000042E-2
3.713973073E0,-1.603901759E-2,2.470947802E-2,2.256000042E-2
3.716407656E0,-1.237383112E-2,2.104428969E-2,2.378172800E-2
3.718841354E0,-1.420642436E-2,2.104428969E-2,2.439259365E-2
3.721274323E0,-1.237383112E-2,2.348774858E-2,2.133826911E-2
3.723708073E0,-7.486913353E-3,1.921169646E-2,1.889481023E-2
3.726142656E0,-8.708644658E-3,2.104428969E-2,2.072740719E-2
3.728576354E0,-6.265182048E-3,2.226601914E-2,1.767308265E-2
3.731009271E0,-6.265182048E-3,2.348774858E-2,1.889481023E-2
3.733443021E0,-6.876047701E-3,2.470947802E-2,1.828394458E-2
3.735877604E0,-9.930372238E-3,2.532034181E-2,1.950567588E-2
3.738311302E0,-7.486913353E-3,2.409861423E-2,1.522962376E-2
3.740744219E0,-5.654320121E-3,2.226601914E-2,1.767308265E-2
3.743177969E0,-6.265182048E-3,2.348774858E-2,1.461875811E-2
3.745612552E0,-9.319506586E-3,2.532034181E-2,1.278616488E-2
3.748046250E0,-8.097779006E-3,2.226601914E-2,1.278616488E-2
3.750479219E0,-9.319506586E-3,2.409861423E-2,1.095356978E-2
3.752912969E0,-8.708644658E-3,2.409861423E-2,8.510110900E-3
3.755347552E0,-1.237383112E-2,2.226601914E-2,1.156443357E-2
3.757781198E0,-1.298469678E-2,2.043342404E-2,7.288381457E-3
3.760214167E0,-1.298469678E-2,1.798996516E-2,3.623193130E-3
3.762647917E0,-9.319506586E-3,1.493564248E-2,3.012329340E-3
3.765082500E0,-8.708644658E-3,1.310304832E-2,3.623193130E-3
3.767516198E0,-9.930372238E-3,8.826995268E-3,-4.199519753E-5
3.769949115E0,-8.708644658E-3,8.216130547E-3,3.623193130E-3
3.772382865E0,-5.654320121E-3,3.940077499E-3,1.790598035E-3
3.774817448E0,-2.599995583E-3,3.329212777E-3,-4.199519753E-5
3.777251146E0,1.065192744E-3,8.857538342E-4,3.623193130E-3
3.779684115E0,-3.210861236E-3,-4.612028599E-3,-4.199519753E-5
3.782117865E0,-4.432588816E-3,-6.444622763E-3,-3.707183525E-3
3.784552448E0,-1.378264278E-3,-5.833758041E-3,-1.263724640E-3
3.786986094E0,-2.599995583E-3,-1.194240525E-2,-4.199519753E-5
3.789419063E0,-3.210861236E-3,-9.498946369E-3,-3.096319735E-3
3.791852813E0,4.543289542E-4,-9.498946369E-3,-6.528608501E-4
3.794287396E0,-7.674023509E-4,-9.498946369E-3,-4.928912967E-3
3.796721094E0,-1.378264278E-3,-8.888081647E-3,5.688704550E-4
3.799154011E0,-3.210861236E-3,-7.055487484E-3,-1.263724640E-3
3.801587761E0,-3.210861236E-3,-8.277216926E-3,-2.485454082E-3
3.804022344E0,-5.043454468E-3,-4.612028599E-3,-4.199519753E-5
3.806456042E0,-5.654320121E-3,-6.444622763E-3,-4.199519753E-5
3.808889011E0,-5.043454468E-3,-5.222893320E-3,2.401463687E-3
3.811322709E0,-8.097779006E-3,-5.222893320E-3,-6.528608501E-4
3.813757292E0,-8.708644658E-3,-3.390299156E-3,3.012329340E-3
3.816190990E0,-7.486913353E-3,-5.222893320E-3,3.012329340E-3
3.818623959E0,-9.930372238E-3,-5.833758041E-3,1.179734245E-3
3.821057709E0,-6.876047701E-3,-6.444622763E-3,3.012329340E-3
3.823492292E0,-8.097779006E-3,-8.277216926E-3,3.623193130E-3
3.825925990E0,-9.930372238E-3,-7.055487484E-3,-4.199519753E-5
3.828358906E0,-1.176296547E-2,-8.277216926E-3,3.012329340E-3
3.830792656E0,-1.115209982E-2,-9.498946369E-3,3.623193130E-3
3.833227240E0,-1.054123789E-2,-1.133154053E-2,6.066652015E-3
3.835660938E0,-9.930372238E-3,-1.194240525E-2,4.234056920E-3
3.838093906E0,-1.115209982E-2,-1.316413470E-2,1.790598035E-3
3.840527656E0,-1.054123789E-2,-1.560759358E-2,4.234056920E-3
3.842962188E0,-7.486913353E-3,-1.499672886E-2,-4.199519753E-5
3.845395886E0,-7.486913353E-3,-1.927278191E-2,-6.528608501E-4
3.847828854E0,-5.654320121E-3,-2.110537700E-2,4.234056920E-3
3.850262604E0,-5.043454468E-3,-2.477056347E-2,1.179734245E-3
3.852697188E0,-5.654320121E-3,-2.171624079E-2,3.012329340E-3
3.855130886E0,4.543289542E-4,-2.599229477E-2,2.401463687E-3
3.857563802E0,-3.210861236E-3,-2.782488801E-2,-6.528608501E-4
3.859997552E0,1.065192744E-3,-2.782488801E-2,3.012329340E-3
3.862432136E0,2.286922187E-3,-2.843575366E-2,5.688704550E-4
3.864865834E0,-1.989129931E-3,-2.599229477E-2,4.844922572E-3
3.867298802E0,-1.565366983E-4,-2.538142912E-2,1.790598035E-3
3.869732500E0,-1.565366983E-4,-2.538142912E-2,4.844922572E-3
3.872167084E0,1.065192744E-3,-2.477056347E-2,3.623193130E-3
3.874600781E0,4.543289542E-4,-2.415969968E-2,-6.528608501E-4
3.877033750E0,-3.821726888E-3,-2.232710458E-2,6.066652015E-3
3.879467500E0,-1.989129931E-3,-2.171624079E-2,5.455788225E-3
3.881902084E0,-9.319506586E-3,-2.354883589E-2,5.455788225E-3
3.884335781E0,-6.265182048E-3,-2.049451135E-2,3.012329340E-3
3.886768698E0,-9.930372238E-3,-2.110537700E-2,4.234056920E-3
3.889202448E0,-1.298469678E-2,-1.988364570E-2,4.844922572E-3
3.891637031E0,-1.237383112E-2,-1.988364570E-2,8.510110900E-3
3.894070729E0,-1.664988324E-2,-2.171624079E-2,1.790598035E-3
3.896503698E0,-1.603901759E-2,-2.110537700E-2,6.677515805E-3
3.898937396E0,-1.603901759E-2,-2.232710458E-2,6.677515805E-3
3.901371979E0,-1.726074889E-2,-2.293797024E-2,6.677515805E-3
3.903805677E0,-1.542815566E-2,-2.538142912E-2,2.401463687E-3
3.906238646E0,-2.092593536E-2,-2.599229477E-2,6.677515805E-3
3.908672396E0,-2.031507343E-2,-2.660315856E-2,5.455788225E-3
3.911106979E0,-2.031507343E-2,-2.965748124E-2,5.455788225E-3
3.913540677E0,-1.726074889E-2,-2.965748124E-2,4.234056920E-3
3.915973594E0,-2.031507343E-2,-3.026834689E-2,6.066652015E-3
3.918407344E0,-2.031507343E-2,-3.026834689E-2,4.844922572E-3
3.920841927E0,-2.398025990E-2,-3.332267329E-2,7.899247110E-3
3.923275625E0,-2.275853232E-2,-3.332267329E-2,8.510110900E-3
3.925708594E0,-2.153680101E-2,-3.271180764E-2,7.899247110E-3
3.928142292E0,-1.909334213E-2,-3.454440087E-2,1.095356978E-2
3.930576875E0,-2.092593536E-2,-3.576613218E-2,8.510110900E-3
3.933010573E0,-1.848248020E-2,-3.576613218E-2,1.034270599E-2
3.935443542E0,-2.153680101E-2,-3.759872541E-2,1.034270599E-2
3.937877292E0,-1.970420778E-2,-3.759872541E-2,9.120974690E-3
3.940311875E0,-1.970420778E-2,-3.698785976E-2,1.156443357E-2
3.942745573E0,-1.603901759E-2,-3.882045299E-2,9.731840342E-3
3.945178490E0,-1.787161455E-2,-3.698785976E-2,1.156443357E-2
3.947612240E0,-1.970420778E-2,-3.576613218E-2,1.339702681E-2
3.950046823E0,-1.726074889E-2,-3.454440087E-2,1.156443357E-2
3.952480521E0,-1.909334213E-2,-3.515526652E-2,1.095356978E-2
3.954913490E0,-1.909334213E-2,-3.515526652E-2,1.217529923E-2
3.957347188E0,-1.970420778E-2,-3.515526652E-2,1.095356978E-2
3.959781771E0,-2.031507343E-2,-3.515526652E-2,1.461875811E-2
3.962215469E0,-2.092593536E-2,-3.393353522E-2,1.339702681E-2
3.964648438E0,-2.520199120E-2,-3.087921254E-2,1.461875811E-2
3.967082188E0,-2.153680101E-2,-3.393353522E-2,1.339702681E-2
3.969516771E0,-2.214766666E-2,-3.332267329E-2,1.156443357E-2
3.971950469E0,-2.459112555E-2,-3.576613218E-2,1.339702681E-2
3.974383386E0,-2.459112555E-2,-3.637699783E-2,1.400789246E-2
3.976817136E0,-2.459112555E-2,-3.454440087E-2,9.120974690E-3
3.979251719E0,-2.459112555E-2,-3.698785976E-2,9.120974690E-3
3.981685417E0,-2.703458443E-2,-3.637699783E-2,1.095356978E-2
3.984118386E0,-2.520199120E-2,-3.882045299E-2,1.034270599E-2
3.986552084E0,-2.825631574E-2,-3.576613218E-2,9.120974690E-3
3.988986667E0,-2.398025990E-2,-3.698785976E-2,1.095356978E-2
3.991420365E0,-2.153680101E-2,-3.576613218E-2,1.217529923E-2
3.993853334E0,-2.275853232E-2,-3.637699783E-2,1.095356978E-2
3.996287084E0,-2.092593536E-2,-3.393353522E-2,6.066652015E-3
3.998721667E0,-2.459112555E-2,-3.026834689E-2,1.095356978E-2
4.001155365E0,-2.031507343E-2,-2.782488801E-2,1.156443357E-2
4.003588281E0,-2.275853232E-2,-2.660315856E-2,1.400789246E-2
4.006022031E0,-1.909334213E-2,-2.477056347E-2,6.677515805E-3
4.008456615E0,-2.214766666E-2,-2.049451135E-2,1.095356978E-2
4.010890313E0,-2.092593536E-2,-1.805105247E-2,9.120974690E-3
4.013323281E0,-2.214766666E-2,-1.682932302E-2,1.095356978E-2
4.015756979E0,-2.275853232E-2,-1.560759358E-2,9.120974690E-3
4.018191563E0,-2.153680101E-2,-1.377499942E-2,1.339702681E-2
4.020625261E0,-2.398025990E-2,-1.621845923E-2,1.278616488E-2
4.023058229E0,-2.153680101E-2,-1.744018681E-2,6.677515805E-3
4.025491979E0,-2.642371878E-2,-1.744018681E-2,6.677515805E-3
4.027926563E0,-2.336939797E-2,-1.805105247E-2,9.120974690E-3
4.030360261E0,-2.275853232E-2,-1.499672886E-2,1.034270599E-2
4.032793177E0,-2.459112555E-2,-1.744018681E-2,1.400789246E-2
4.035226927E0,-1.970420778E-2,-2.049451135E-2,9.731840342E-3
4.037661511E0,-2.581285313E-2,-1.621845923E-2,1.278616488E-2
4.040095209E0,-2.459112555E-2,-1.438586414E-2,1.034270599E-2
4.042528177E0,-2.642371878E-2,-1.560759358E-2,1.156443357E-2
4.044961875E0,-2.520199120E-2,-1.377499942E-2,1.034270599E-2
4.047396511E0,-2.703458443E-2,-1.377499942E-2,1.339702681E-2
4.049830156E0,-2.642371878E-2,-1.744018681E-2,1.034270599E-2
4.052263125E0,-2.642371878E-2,-1.255326997E-2,1.095356978E-2
4.054696875E0,-2.642371878E-2,-1.255326997E-2,1.095356978E-2
4.057131459E0,-2.886717767E-2,-1.255326997E-2,1.034270599E-2
4.059565156E0,-2.398025990E-2,-1.377499942E-2,1.278616488E-2
4.061998073E0,-2.398025990E-2,-1.316413470E-2,1.278616488E-2
4.064431823E0,-1.909334213E-2,-1.499672886E-2,7.899247110E-3
4.066866406E0,-1.787161455E-2,-1.621845923E-2,1.095356978E-2
4.069300104E0,-1.848248020E-2,-1.744018681E-2,1.095356978E-2
4.071733073E0,-1.664988324E-2,-1.744018681E-2,9.731840342E-3
4.074166771E0,-1.359556243E-2,-1.682932302E-2,1.095356978E-2
4.076601354E0,-1.481729001E-2,-1.682932302E-2,1.095356978E-2
4.079035052E0,-1.787161455E-2,-1.499672886E-2,5.455788225E-3
4.081468021E0,-1.298469678E-2,-1.621845923E-2,5.455788225E-3
4.083901771E0,-1.664988324E-2,-1.438586414E-2,3.012329340E-3
4.086336354E0,-1.542815566E-2,-1.377499942E-2,6.066652015E-3
4.088770052E0,-1.420642436E-2,-1.255326997E-2,3.012329340E-3
4.091202969E0,-1.481729001E-2,-9.498946369E-3,4.234056920E-3
4.093636719E0,-1.603901759E-2,-7.666352205E-3,3.623193130E-3
4.096071302E0,-1.848248020E-2,-5.833758041E-3,2.401463687E-3
4.098505000E0,-1.726074889E-2,-2.168569714E-3,6.066652015E-3
4.100937969E0,-1.481729001E-2,2.748891129E-4,3.012329340E-3
4.103371667E0,-1.909334213E-2,8.857538342E-4,3.623193130E-3
4.105806302E0,-1.970420778E-2,3.940077499E-3,2.401463687E-3
4.108239948E0,-2.092593536E-2,5.772671662E-3,6.066652015E-3
4.110672917E0,-2.092593536E-2,1.065958943E-2,7.288381457E-3
4.113106667E0,-1.909334213E-2,1.127045415E-2,4.234056920E-3
4.115541250E0,-2.153680101E-2,1.432477776E-2,8.510110900E-3
4.117974948E0,-2.275853232E-2,2.104428969E-2,1.156443357E-2
4.120407865E0,-2.153680101E-2,2.104428969E-2,1.156443357E-2
4.122841615E0,-2.092593536E-2,2.409861423E-2,1.156443357E-2
4.125276198E0,-2.153680101E-2,2.715293691E-2,1.339702681E-2
4.127709896E0,-1.603901759E-2,2.654207312E-2,1.400789246E-2
4.130142865E0,-1.603901759E-2,2.776380070E-2,1.400789246E-2
4.132576615E0,-1.481729001E-2,2.654207312E-2,1.156443357E-2
4.135011198E0,-1.603901759E-2,2.593120746E-2,1.339702681E-2
4.137444844E0,-1.298469678E-2,2.654207312E-2,1.156443357E-2
4.139877813E0,-1.237383112E-2,2.226601914E-2,1.217529923E-2
4.142311563E0,-9.930372238E-3,2.532034181E-2,1.156443357E-2
4.144746146E0,-1.298469678E-2,2.532034181E-2,6.677515805E-3
4.147179844E0,-1.420642436E-2,2.715293691E-2,1.095356978E-2
4.149612761E0,-1.726074889E-2,2.654207312E-2,1.034270599E-2
4.152046511E0,-1.664988324E-2,2.348774858E-2,1.034270599E-2
4.154481094E0,-1.542815566E-2,2.532034181E-2,8.510110900E-3
4.156914792E0,-2.031507343E-2,2.776380070E-2,1.034270599E-2
4.159347761E0,-1.970420778E-2,2.715293691E-2,8.510110900E-3
4.161781459E0,-2.031507343E-2,2.532034181E-2,9.731840342E-3
4.164216094E0,-2.336939797E-2,2.715293691E-2,1.095356978E-2
4.166649740E0,-2.398025990E-2,2.654207312E-2,7.899247110E-3
4.169082709E0,-2.581285313E-2,2.837466635E-2,8.510110900E-3
4.171516459E0,-2.886717767E-2,3.020725958E-2,7.288381457E-3
4.173951042E0,-3.131063655E-2,3.203985095E-2,7.899247110E-3
4.176384740E0,-3.375409916E-2,3.448331356E-2,9.731840342E-3
4.178817656E0,-3.131063655E-2,3.448331356E-2,7.899247110E-3
4.181251406E0,-3.558668867E-2,3.753763437E-2,9.731840342E-3
4.183685990E0,-3.680841997E-2,3.937023133E-2,7.288381457E-3
4.186119688E0,-3.436495736E-2,4.120282456E-2,1.034270599E-2
4.188552656E0,-3.741928563E-2,4.303541780E-2,9.731840342E-3
4.190986406E0,-3.436495736E-2,4.120282456E-2,7.899247110E-3
4.193420990E0,-3.192150220E-2,4.364628345E-2,6.677515805E-3
4.195854636E0,-3.069977090E-2,4.120282456E-2,7.288381457E-3
4.198287604E0,-3.375409916E-2,4.303541780E-2,7.288381457E-3
4.200721354E0,-3.069977090E-2,4.120282456E-2,5.455788225E-3
4.203155938E0,-3.131063655E-2,4.120282456E-2,3.012329340E-3
4.205589636E0,-2.886717767E-2,3.692676872E-2,5.688704550E-4
4.208022552E0,-2.886717767E-2,3.814850003E-2,1.179734245E-3
4.210456302E0,-2.764545009E-2,3.814850003E-2,-4.318048246E-3
4.212890886E0,-2.459112555E-2,3.753763437E-2,-3.707183525E-3
4.215324584E0,-2.703458443E-2,3.692676872E-2,-1.874588430E-3
4.217757552E0,-2.947804332E-2,3.570504114E-2,-3.707183525E-3
4.220191250E0,-2.581285313E-2,3.692676872E-2,-4.928912967E-3
4.222625886E0,-2.703458443E-2,3.875936568E-2,-6.150642410E-3
4.225059531E0,-2.947804332E-2,4.486801103E-2,-5.539777689E-3
4.227492500E0,-2.703458443E-2,4.608974233E-2,-2.485454082E-3
4.229926250E0,-2.886717767E-2,4.792233557E-2,-7.983236574E-3
4.232360834E0,-3.008890897E-2,5.219838768E-2,-4.318048246E-3
4.234794531E0,-2.581285313E-2,5.342011899E-2,-2.485454082E-3
4.237227448E0,-2.642371878E-2,5.647443980E-2,2.401463687E-3
4.239661198E0,-2.520199120E-2,5.830703676E-2,-6.528608501E-4
4.242095781E0,-2.398025990E-2,5.708530545E-2,1.790598035E-3
4.244529479E0,-2.275853232E-2,5.769617110E-2,5.455788225E-3
4.246962448E0,-2.031507343E-2,5.464184657E-2,6.677515805E-3
4.249396198E0,-1.909334213E-2,5.525271222E-2,6.066652015E-3
4.251830729E0,-1.481729001E-2,5.403098464E-2,1.095356978E-2
4.254264427E0,-1.176296547E-2,4.853320122E-2,1.156443357E-2
4.256697396E0,-8.708644658E-3,4.547887668E-2,1.217529923E-2
4.259131146E0,-7.486913353E-3,4.425714910E-2,1.522962376E-2
4.261565729E0,-5.043454468E-3,4.120282456E-2,1.278616488E-2
4.263999427E0,-6.876047701E-3,4.059195891E-2,1.767308265E-2
4.266432344E0,-4.432588816E-3,4.059195891E-2,1.950567588E-2
4.268866094E0,-3.210861236E-3,3.631590679E-2,2.011654153E-2
4.271300677E0,-2.599995583E-3,3.265071660E-2,2.011654153E-2
4.273734375E0,-3.210861236E-3,3.142898902E-2,1.889481023E-2
4.276167344E0,-3.821726888E-3,2.898553200E-2,2.194913477E-2
4.278601042E0,-1.378264278E-3,2.898553200E-2,2.194913477E-2
4.281035625E0,-4.432588816E-3,2.959639579E-2,2.011654153E-2
4.283469323E0,-6.876047701E-3,2.898553200E-2,1.950567588E-2
4.285902292E0,-8.708644658E-3,2.654207312E-2,2.194913477E-2
4.288336042E0,-7.486913353E-3,2.593120746E-2,1.706221700E-2
4.290770625E0,-6.876047701E-3,2.715293691E-2,1.950567588E-2
4.293204323E0,-9.930372238E-3,2.593120746E-2,1.645135134E-2
4.295637240E0,-9.319506586E-3,2.654207312E-2,1.828394458E-2
4.298070990E0,-9.319506586E-3,2.776380070E-2,1.156443357E-2
4.300505573E0,-9.930372238E-3,2.837466635E-2,1.461875811E-2
4.302939271E0,-5.654320121E-3,2.898553200E-2,9.731840342E-3
4.305372240E0,-1.054123789E-2,3.142898902E-2,1.034270599E-2
4.307805938E0,-8.708644658E-3,3.326158226E-2,6.066652015E-3
4.310240521E0,-8.097779006E-3,3.631590679E-2,7.288381457E-3
4.312674219E0,-9.319506586E-3,3.753763437E-2,3.012329340E-3
4.315107188E0,-9.930372238E-3,4.120282456E-2,2.401463687E-3
4.317540938E0,-6.876047701E-3,4.303541780E-2,5.455788225E-3
4.319975521E0,-4.432588816E-3,4.547887668E-2,-3.096319735E-3
4.322409167E0,-1.989129931E-3,4.792233557E-2,-4.318048246E-3
4.324842136E0,-7.674023509E-4,4.853320122E-2,-1.263724640E-3
4.327275886E0,-7.674023509E-4,5.097666010E-2,-6.150642410E-3
4.329710469E0,-1.565366983E-4,5.464184657E-2,-4.928912967E-3
4.332144167E0,2.286922187E-3,5.769617110E-2,-7.983236574E-3
4.334577136E0,1.065192744E-3,6.075049564E-2,-7.372371852E-3
4.337010834E0,4.730381072E-3,6.502654403E-2,-1.103756018E-2
4.339445417E0,2.897787839E-3,6.685914099E-2,-1.103756018E-2
4.341879115E0,2.286922187E-3,7.174605876E-2,-1.103756018E-2
4.344312084E0,4.730381072E-3,7.602211088E-2,-9.815830737E-3
4.346745834E0,2.897787839E-3,8.090902865E-2,-1.225928962E-2
4.349180417E0,-1.378264278E-3,8.518508077E-2,-9.204966016E-3
4.351614063E0,-1.989129931E-3,9.007199854E-2,-9.815830737E-3
4.354047031E0,-1.565366983E-4,9.251546115E-2,-1.042669546E-2
4.356480781E0,-5.654320121E-3,9.862411022E-2,-8.594101295E-3
4.358915365E0,-3.821726888E-3,1.022892967E-1,-7.983236574E-3
4.361349063E0,-6.876047701E-3,1.022892967E-1,-7.983236574E-3
4.363782031E0,-8.097779006E-3,1.053436175E-1,-6.150642410E-3
4.366215729E0,-7.486913353E-3,1.090088114E-1,-1.263724640E-3
4.368650313E0,-9.319506586E-3,1.083979458E-1,-1.263724640E-3
4.371084011E0,-1.176296547E-2,1.114522666E-1,-4.199519753E-5
4.373516979E0,-1.359556243E-2,1.102305353E-1,1.179734245E-3
4.375950729E0,-1.054123789E-2,1.120631322E-1,2.401463687E-3
4.378385313E0,-1.176296547E-2,1.102305353E-1,6.677515805E-3
4.380818959E0,-1.237383112E-2,1.132848635E-1,6.066652015E-3
4.383251927E0,-1.298469678E-2,1.096196696E-1,3.623193130E-3
4.385685677E0,-1.176296547E-2,1.102305353E-1,6.677515805E-3
4.388120261E0,-1.787161455E-2,1.120631322E-1,6.066652015E-3
4.390553959E0,-1.603901759E-2,1.059544832E-1,9.731840342E-3
4.392986875E0,-1.664988324E-2,1.065653488E-1,7.288381457E-3
4.395420625E0,-1.359556243E-2,1.029001623E-1,1.034270599E-2
4.397855209E0,-1.420642436E-2,9.862411022E-2,7.288381457E-3
4.400288906E0,-1.237383112E-2,9.373719245E-2,9.120974690E-3
4.402721875E0,-1.054123789E-2,9.007199854E-2,9.731840342E-3
4.405155625E0,-1.420642436E-2,8.640681207E-2,6.066652015E-3
4.407590209E0,-1.420642436E-2,8.396335691E-2,7.288381457E-3
4.410023906E0,-1.298469678E-2,7.785470784E-2,7.899247110E-3
4.412456823E0,-1.359556243E-2,7.052432746E-2,6.066652015E-3
4.414890573E0,-1.726074889E-2,6.747000664E-2,6.677515805E-3
4.417325156E0,-1.420642436E-2,6.930260360E-2,3.012329340E-3
4.419758854E0,-1.726074889E-2,6.441568583E-2,5.455788225E-3
4.422191771E0,-1.726074889E-2,6.258308887E-2,-4.199519753E-5
4.424625521E0,-2.275853232E-2,6.136135757E-2,-4.318048246E-3
4.427060104E0,-2.459112555E-2,6.075049564E-2,-6.528608501E-4
4.429493802E0,-2.642371878E-2,6.136135757E-2,-7.372371852E-3
4.431926771E0,-2.825631574E-2,6.258308887E-2,-2.485454082E-3
4.434360521E0,-3.131063655E-2,6.258308887E-2,-6.761507131E-3
4.436795104E0,-3.192150220E-2,6.380482018E-2,-6.150642410E-3
4.439228750E0,-3.925188258E-2,6.869173795E-2,-6.150642410E-3
4.441661719E0,-3.864101693E-2,6.869173795E-2,-6.150642410E-3
4.444095469E0,-4.413879290E-2,7.357865572E-2,-8.594101295E-3
4.446530052E0,-5.024744198E-2,7.541124523E-2,-8.594101295E-3
4.448963750E0,-4.719312117E-2,7.846557349E-2,-7.983236574E-3
4.451396667E0,-5.513435975E-2,7.968730479E-2,-1.103756018E-2
4.453830417E0,-5.818868801E-2,8.029816300E-2,-1.287015434E-2
4.456265000E0,-5.513435975E-2,7.846557349E-2,-1.409188379E-2
4.458698698E0,-5.941041186E-2,7.541124523E-2,-1.409188379E-2
4.461131667E0,-5.879955366E-2,7.480037957E-2,-1.348101906E-2
4.463565365E0,-5.635609105E-2,7.174605876E-2,-1.592447795E-2
4.465999948E0,-6.002127752E-2,7.052432746E-2,-1.470274851E-2
4.468433646E0,-6.063214317E-2,6.869173795E-2,-1.531361323E-2
4.470866615E0,-5.941041186E-2,6.502654403E-2,-1.225928962E-2
4.473300365E0,-5.757782236E-2,6.197222322E-2,-1.531361323E-2
4.475734948E0,-5.696695670E-2,6.197222322E-2,-1.225928962E-2
4.478168646E0,-6.002127752E-2,6.136135757E-2,-1.164842490E-2
4.480601563E0,-5.574522540E-2,5.830703676E-2,-1.103756018E-2
4.483035313E0,-5.452349409E-2,5.769617110E-2,-1.348101906E-2
4.485469896E0,-5.208003893E-2,5.769617110E-2,-9.815830737E-3
4.487903594E0,-5.085830763E-2,5.647443980E-2,-8.594101295E-3
4.490336563E0,-5.085830763E-2,5.342011899E-2,-9.815830737E-3
4.492770261E0,-4.719312117E-2,5.342011899E-2,-7.983236574E-3
4.495204844E0,-4.719312117E-2,5.280925333E-2,-1.103756018E-2
4.497638542E0,-4.413879290E-2,5.036579445E-2,-7.983236574E-3
4.500071511E0,-4.230620340E-2,5.158752203E-2,-6.150642410E-3
4.502505261E0,-3.986274078E-2,4.731146991E-2,-6.150642410E-3
4.504939844E0,-3.741928563E-2,4.975492880E-2,-6.150642410E-3
4.507373490E0,-3.680841997E-2,5.036579445E-2,-1.874588430E-3
4.509806459E0,-3.375409916E-2,4.975492880E-2,-1.263724640E-3
4.512240209E0,-3.008890897E-2,5.036579445E-2,-3.707183525E-3
4.514674792E0,-2.886717767E-2,5.097666010E-2,-2.485454082E-3
4.517108490E0,-2.825631574E-2,4.853320122E-2,-2.485454082E-3
4.519541406E0,-2.642371878E-2,4.608974233E-2,-2.485454082E-3
4.521975156E0,-2.153680101E-2,4.181368649E-2,-6.150642410E-3
4.524409740E0,-1.848248020E-2,4.120282456E-2,-6.150642410E-3
4.526843438E0,-1.664988324E-2,3.631590679E-2,-4.318048246E-3
4.529276406E0,-1.542815566E-2,3.387244791E-2,-3.707183525E-3
4.531710156E0,-1.359556243E-2,3.081812523E-2,-5.539777689E-3
4.534144740E0,-1.420642436E-2,2.776380070E-2,-9.815830737E-3
4.536578386E0,-1.115209982E-2,2.532034181E-2,-1.225928962E-2
4.539011354E0,-1.176296547E-2,1.982256025E-2,-1.164842490E-2
4.541445104E0,-1.054123789E-2,1.860083081E-2,-1.470274851E-2
4.543879688E0,-1.176296547E-2,2.043342404E-2,-1.653534174E-2
4.546313386E0,-1.176296547E-2,1.737910137E-2,-1.836793683E-2
4.548746302E0,-1.787161455E-2,1.493564248E-2,-1.714620739E-2
4.551180052E0,-1.420642436E-2,1.371391304E-2,-2.508744970E-2
4.553614636E0,-1.848248020E-2,1.493564248E-2,-2.814177237E-2
4.556048334E0,-1.848248020E-2,1.432477776E-2,-2.753090858E-2
4.558481302E0,-1.909334213E-2,1.188131887E-2,-3.241782635E-2
4.560915052E0,-2.031507343E-2,1.127045415E-2,-3.608301282E-2
4.563349584E0,-1.970420778E-2,1.188131887E-2,-3.730474412E-2
4.565783281E0,-2.214766666E-2,6.994401105E-3,-4.158079624E-2
4.568216250E0,-2.092593536E-2,3.940077499E-3,-4.341338947E-2
4.570650000E0,-2.153680101E-2,-3.359756083E-4,-4.707857966E-2
4.573084584E0,-2.153680101E-2,-4.001163878E-3,-5.074376613E-2
4.575518281E0,-1.848248020E-2,-1.010981109E-2,-5.135463178E-2
4.577951198E0,-1.726074889E-2,-1.621845923E-2,-5.624154955E-2
4.580384948E0,-1.420642436E-2,-2.232710458E-2,-6.051760167E-2
4.582819531E0,-1.176296547E-2,-2.965748124E-2,-6.235019490E-2
4.585253229E0,-1.115209982E-2,-3.576613218E-2,-6.540451944E-2
4.587686146E0,-5.654320121E-3,-4.248564318E-2,-6.540451944E-2
4.590119896E0,-8.708644658E-3,-4.553996772E-2,-6.723710895E-2
4.592554479E0,-1.054123789E-2,-4.798342660E-2,-7.090230286E-2
4.594988177E0,-7.486913353E-3,-4.676169530E-2,-6.968057156E-2
4.597421146E0,-9.930372238E-3,-4.431823641E-2,-6.662625074E-2
4.599854896E0,-1.054123789E-2,-3.820959106E-2,-7.395662367E-2
4.602289479E0,-1.115209982E-2,-3.149007633E-2,-7.090230286E-2
4.604723125E0,-1.359556243E-2,-2.232710458E-2,-7.517835498E-2
4.607156094E0,-1.054123789E-2,-1.255326997E-2,-6.845884025E-2
4.609589844E0,-1.054123789E-2,-9.468403296E-4,-6.784798205E-2
4.612024427E0,-1.237383112E-2,1.249218360E-2,-6.662625074E-2
4.614458125E0,-1.787161455E-2,2.776380070E-2,-6.173933297E-2
4.616891042E0,-1.359556243E-2,4.547887668E-2,-5.929587409E-2
4.619324792E0,-1.420642436E-2,6.380482018E-2,-6.051760167E-2
4.621759375E0,-1.481729001E-2,8.029816300E-2,-5.563068390E-2
4.624193073E0,-1.909334213E-2,1.010675654E-1,-5.257635936E-2
4.626626042E0,-1.848248020E-2,1.193935052E-1,-4.952203855E-2
4.629059792E0,-1.787161455E-2,1.383303255E-1,-4.585684836E-2
4.631494375E0,-1.848248020E-2,1.572671235E-1,-4.402425513E-2
4.633928021E0,-1.481729001E-2,1.755930632E-1,-3.669387847E-2
4.636360990E0,-1.359556243E-2,1.920864135E-1,-3.852647170E-2
4.638794740E0,-1.298469678E-2,2.073580325E-1,-3.486128524E-2
4.641229323E0,-1.115209982E-2,2.238513827E-1,-3.180696070E-2
4.643663021E0,-1.054123789E-2,2.360686809E-1,-3.302869201E-2
4.646095938E0,-1.237383112E-2,2.488968372E-1,-3.058523126E-2
4.648529688E0,-1.115209982E-2,2.586706579E-1,-2.814177237E-2
4.650964271E0,-1.237383112E-2,2.702770829E-1,-3.180696070E-2
4.653397969E0,-1.603901759E-2,2.806617916E-1,-3.119609505E-2
4.655830938E0,-1.787161455E-2,2.849378288E-1,-3.363955393E-2
4.658264636E0,-2.092593536E-2,2.947116792E-1,-3.363955393E-2
4.660699219E0,-2.642371878E-2,3.002094626E-1,-3.852647170E-2
4.663132917E0,-2.459112555E-2,3.057072461E-1,-3.913733736E-2
4.665565886E0,-3.314323351E-2,3.093724251E-1,-4.035906494E-2
4.667999636E0,-4.230620340E-2,3.154810667E-1,-4.646771401E-2
4.670434219E0,-4.719312117E-2,3.167028129E-1,-4.891117290E-2
4.672867917E0,-5.208003893E-2,3.185353875E-1,-5.135463178E-2
4.675300834E0,-6.124300882E-2,3.222005963E-1,-5.379809067E-2
4.677734584E0,-7.284943759E-2,3.264766335E-1,-5.868500844E-2
4.680169167E0,-8.079068363E-2,3.264766335E-1,-5.990673974E-2
4.682602865E0,-8.689932525E-2,3.252549171E-1,-6.479366124E-2
4.685035834E0,-9.422969818E-2,3.276983798E-1,-7.090230286E-2
4.687469531E0,-1.021709442E-1,3.313635588E-1,-7.090230286E-2
4.689904115E0,-1.082795858E-1,3.313635588E-1,-7.640008628E-2
4.692337813E0,-1.156099588E-1,3.319744170E-1,-7.884354889E-2
4.694770781E0,-1.186642945E-1,3.338070214E-1,-8.189786971E-2
4.697204531E0,-1.235512048E-1,3.331961632E-1,-8.495219052E-2
4.699639115E0,-1.296598613E-1,3.338070214E-1,-8.617392182E-2
4.702072761E0,-1.296598613E-1,3.270874918E-1,-9.228256345E-2
4.704505729E0,-1.302707195E-1,3.270874918E-1,-9.167170525E-2
4.706939479E0,-1.369902343E-1,3.252549171E-1,-9.167170525E-2
4.709374063E0,-1.382119656E-1,3.167028129E-1,-9.900207818E-2
4.711807761E0,-1.363793612E-1,3.142593503E-1,-9.594775736E-2
4.714240677E0,-1.388228238E-1,3.142593503E-1,-1.026672721E-1
4.716674427E0,-1.394336820E-1,3.142593503E-1,-9.778034687E-2
4.719109011E0,-1.394336820E-1,3.124267459E-1,-1.020563990E-1
4.721542709E0,-1.388228238E-1,3.130376041E-1,-1.032781303E-1
4.723975677E0,-1.357685030E-1,3.118158877E-1,-1.038890034E-1
4.726409427E0,-1.382119656E-1,3.136484921E-1,-1.026672721E-1
4.728844011E0,-1.382119656E-1,3.173136711E-1,-1.026672721E-1
4.731277656E0,-1.369902343E-1,3.160919547E-1,-1.032781303E-1
4.733710625E0,-1.369902343E-1,3.173136711E-1,-1.020563990E-1
4.736144375E0,-1.376010925E-1,3.197571337E-1,-1.038890034E-1
4.738578959E0,-1.388228238E-1,3.203679919E-1,-1.020563990E-1
4.741012656E0,-1.351576298E-1,3.228114545E-1,-9.961295128E-2
4.743445573E0,-1.363793612E-1,3.215897381E-1,-1.002238095E-1
4.745879323E0,-1.394336820E-1,3.209788501E-1,-1.020563990E-1
4.748313906E0,-1.382119656E-1,3.234223127E-1,-9.839121997E-2
4.750747604E0,-1.382119656E-1,3.228114545E-1,-9.472602606E-2
4.753180573E0,-1.394336820E-1,3.228114545E-1,-9.472602606E-2
4.755614271E0,-1.430988759E-1,3.222005963E-1,-9.044997394E-2
4.758048906E0,-1.473749280E-1,3.246440589E-1,-8.922824264E-2
4.760482552E0,-1.485966593E-1,3.228114545E-1,-8.556304872E-2
4.762915521E0,-1.498183906E-1,3.228114545E-1,-8.556304872E-2
4.765349271E0,-1.504292488E-1,3.228114545E-1,-8.434133232E-2
4.767783854E0,-1.589813530E-1,3.246440589E-1,-8.189786971E-2
4.770217552E0,-1.608139575E-1,3.276983798E-1,-7.701094449E-2
4.772650469E0,-1.669225991E-1,3.264766335E-1,-8.128700405E-2
4.775084219E0,-1.705877930E-1,3.276983798E-1,-8.311960101E-2
4.777518802E0,-1.754747033E-1,3.307527006E-1,-8.128700405E-2
4.779952500E0,-1.785290241E-1,3.283092380E-1,-8.311960101E-2
4.782385469E0,-1.828050911E-1,3.289200962E-1,-8.556304872E-2
4.784819167E0,-1.901354641E-1,3.283092380E-1,-8.434133232E-2
4.787253750E0,-1.956332475E-1,3.264766335E-1,-8.495219052E-2
4.789687448E0,-2.005201578E-1,3.258657753E-1,-8.373045921E-2
4.792120417E0,-2.054070830E-1,3.222005963E-1,-9.044997394E-2
4.794554167E0,-2.066288143E-1,3.191462755E-1,-8.800651133E-2
4.796988750E0,-2.127374560E-1,3.203679919E-1,-8.556304872E-2
4.799422396E0,-2.127374560E-1,3.136484921E-1,-9.411516786E-2
4.801855365E0,-2.176243663E-1,3.087615669E-1,-9.533688426E-2
4.804289115E0,-2.206786871E-1,3.044854999E-1,-9.716948867E-2
4.806723698E0,-2.188461125E-1,2.977660000E-1,-9.778034687E-2
4.809157396E0,-2.194569707E-1,2.928790748E-1,-1.014455408E-1
4.811590313E0,-2.188461125E-1,2.849378288E-1,-1.026672721E-1
4.814024063E0,-2.176243663E-1,2.727205455E-1,-1.118302345E-1
4.816458646E0,-2.170135081E-1,2.647792995E-1,-1.136628389E-1
4.818892344E0,-2.145700455E-1,2.556163371E-1,-1.179388911E-1
4.821325313E0,-2.121265978E-1,2.433990538E-1,-1.228258014E-1
4.823759063E0,-2.109048665E-1,2.287382931E-1,-1.258801222E-1
4.826193646E0,-2.127374560E-1,2.177427411E-1,-1.258801222E-1
4.828627292E0,-2.096831352E-1,1.981950700E-1,-1.301561743E-1
4.831060261E0,-2.096831352E-1,1.804799885E-1,-1.338213682E-1
4.833494011E0,-2.102939934E-1,1.645975113E-1,-1.374865621E-1
4.835928594E0,-2.060179412E-1,1.432172358E-1,-1.387082934E-1
4.838362292E0,-2.047962099E-1,1.242804304E-1,-1.405408829E-1
4.840795209E0,-2.047962099E-1,1.041218862E-1,-1.460386664E-1
4.843228959E0,-2.054070830E-1,8.029816300E-2,-1.478712559E-1
4.845663542E0,-2.029636204E-1,5.830703676E-2,-1.490929872E-1
4.848097240E0,-2.035744786E-1,3.692676872E-2,-1.509255767E-1
4.850530209E0,-1.992984265E-1,1.249218360E-2,-1.490929872E-1
4.852963959E0,-2.005201578E-1,-1.194240525E-2,-1.503147185E-1
4.855398542E0,-1.956332475E-1,-3.271180764E-2,-1.497038454E-1
4.857832188E0,-1.944115162E-1,-5.592466891E-2,-1.503147185E-1
4.860265156E0,-1.913571954E-1,-7.425060868E-2,-1.490929872E-1
4.862698906E0,-1.858594120E-1,-9.440914541E-2,-1.484821141E-1
4.865133490E0,-1.846376806E-1,-1.115133539E-1,-1.460386664E-1
4.867567188E0,-1.791398972E-1,-1.298392862E-1,-1.435952038E-1
4.870000104E0,-1.779181659E-1,-1.457217783E-1,-1.405408829E-1
4.872433854E0,-1.742529720E-1,-1.573282033E-1,-1.374865621E-1
4.874868438E0,-1.724203825E-1,-1.677128971E-1,-1.325996369E-1
4.877302136E0,-1.687552035E-1,-1.793193370E-1,-1.252692640E-1
4.879735104E0,-1.663117409E-1,-1.854279786E-1,-1.228258014E-1
4.882168854E0,-1.693660617E-1,-1.890931726E-1,-1.173280180E-1
4.884603386E0,-1.675334722E-1,-1.897040308E-1,-1.112193763E-1
4.887037084E0,-1.669225991E-1,-1.854279786E-1,-9.961295128E-2
4.889470052E0,-1.687552035E-1,-1.817627996E-1,-9.289343655E-2
4.891903802E0,-1.644791365E-1,-1.707672328E-1,-8.556304872E-2
4.894338386E0,-1.687552035E-1,-1.591607928E-1,-7.334576547E-2
4.896772084E0,-1.657008678E-1,-1.457217783E-1,-6.479366124E-2
4.899205000E0,-1.620356888E-1,-1.298392862E-1,-5.685241520E-2
4.901638750E0,-1.644791365E-1,-1.151785478E-1,-4.952203855E-2
4.904073334E0,-1.608139575E-1,-1.023503840E-1,-3.852647170E-2
4.906507031E0,-1.614248157E-1,-8.524617553E-2,-2.875263616E-2
4.908940000E0,-1.571487635E-1,-6.875282526E-2,-2.386571839E-2
4.911373698E0,-1.553161740E-1,-5.287034437E-2,-1.409188379E-2
4.913808281E0,-1.547053009E-1,-3.576613218E-2,-3.707183525E-3
4.916241979E0,-1.565379053E-1,-2.110537700E-2,3.623193130E-3
4.918674948E0,-1.608139575E-1,-7.055487484E-3,8.510110900E-3
4.921108698E0,-1.614248157E-1,7.605265826E-3,1.767308265E-2
4.923543281E0,-1.669225991E-1,2.348774858E-2,2.622518688E-2
4.925976979E0,-1.699769199E-1,3.631590679E-2,3.050124273E-2
4.928409896E0,-1.809724867E-1,4.975492880E-2,3.294469789E-2
4.930843646E0,-1.858594120E-1,6.197222322E-2,3.966421261E-2
4.933278229E0,-1.944115162E-1,7.357865572E-2,4.332939908E-2
4.935711927E0,-2.023527622E-1,8.213075995E-2,4.516199604E-2
4.938144896E0,-2.109048665E-1,8.701767772E-2,4.027507827E-2
4.940578594E0,-2.182352394E-1,9.434805065E-2,3.966421261E-2
4.943013177E0,-2.261764705E-1,9.740237892E-2,3.477729484E-2
4.945446875E0,-2.359503210E-1,9.984583408E-2,3.050124273E-2
4.947879844E0,-2.420589626E-1,1.041218862E-1,2.378172800E-2
4.950313594E0,-2.512219250E-1,1.010675654E-1,1.522962376E-2
4.952748177E0,-2.573305666E-1,9.251546115E-2,9.731840342E-3
4.955181875E0,-2.616066337E-1,8.213075995E-2,-3.096319735E-3
4.957614792E0,-2.719913423E-1,6.869173795E-2,-8.594101295E-3
