"Time (s)","Acceleration x (m/s^2)","Acceleration y (m/s^2)","Acceleration z (m/s^2)"
0.000000000E0,-9.947958946E0,-1.204727364E1,2.394844294E-1
2.369844000E-3,-1.022327995E1,-1.178152847E1,8.865621686E-2
4.735781000E-3,-9.816284180E0,-1.075924778E1,6.249343157E-1
7.091719000E-3,-9.880924225E0,-1.133622551E1,1.453292489E0
9.444635000E-3,-1.000302315E1,-1.127158546E1,9.002557993E-1
1.179770800E-2,-9.794736862E0,-1.123088551E1,9.344440699E-2
1.415135400E-2,-1.004132843E1,-1.121412659E1,2.227257490E-1
1.650447900E-2,-1.247133923E1,-1.057011414E1,1.541874170E0
1.885687500E-2,-7.819604874E0,-1.019424057E1,1.513144970E0
2.121000000E-2,-7.010399818E0,-1.019424057E1,1.719037533E0
2.356307300E-2,-5.822926998E0,-1.101780987E1,1.166000605E0
2.591593700E-2,-5.827714920E0,-1.096514034E1,2.267286062E0
2.826901000E-2,-5.640975475E0,-9.564592361E0,5.408343315E0
3.062161400E-2,-5.913902283E0,-8.578223228E0,4.134683132E0
3.297489600E-2,-5.978542805E0,-7.994063377E0,1.019960642E0
3.532828100E-2,-5.205249310E0,-7.309350967E0,1.204505563E-2
3.768135400E-2,-4.204515934E0,-7.778594017E0,1.735796094E0
4.005458300E-2,-4.712064743E0,-8.841574669E0,4.316634655E0
4.244765600E-2,-4.712064743E0,-8.841574669E0,4.316634655E0
4.484755200E-2,-4.769523144E0,-6.433111191E0,1.881836176E0
4.725416600E-2,-3.402493000E0,-4.338274956E0,-1.448355079E0
4.966322900E-2,-4.417590618E0,-3.131649017E0,-2.058850527E0
5.207515600E-2,-5.609851837E0,-2.588188648E0,-1.304709196E0
5.448755200E-2,-6.100642204E0,-2.317655325E0,-9.096829891E-1
5.690026000E-2,-5.923478603E0,-2.346384525E0,-6.104206443E-1
5.931328100E-2,-5.286648273E0,-2.777322292E0,-5.026862025E-1
6.172671900E-2,-4.944292068E0,-3.411758423E0,-4.883216023E-1
6.414046900E-2,-4.707276821E0,-4.197022438E0,-5.697209835E-1
6.655447900E-2,-4.786281586E0,-5.118750572E0,-4.907156825E-1
6.896880200E-2,-4.992174149E0,-5.987808228E0,-3.398874700E-1
7.138338500E-2,-5.375230312E0,-6.732373238E0,-1.794828475E-1
7.379833300E-2,-5.686462879E0,-7.419480324E0,-3.159464896E-1
7.621348900E-2,-5.763074398E0,-7.850417137E0,-7.085787058E-1
7.862885400E-2,-5.731950760E0,-7.905482292E0,-4.380455017E-1
8.104442700E-2,-5.820532322E0,-7.713953972E0,-2.201825231E-1
8.346026000E-2,-6.007272243E0,-7.467361450E0,-5.738380551E-2
8.587630200E-2,-6.354416370E0,-7.306957245E0,-6.217201054E-2
8.829244800E-2,-6.816477776E0,-7.292592049E0,-1.220244765E-1
9.070880200E-2,-7.010399818E0,-7.139369965E0,-2.130002379E-1
9.312536400E-2,-7.075040340E0,-7.060364723E0,-3.583693504E-2
9.554203100E-2,-7.000823498E0,-6.940659523E0,2.394844294E-1
9.795880200E-2,-6.782960415E0,-6.811378479E0,4.238300622E-1
1.003757810E-1,-6.615373135E0,-6.607880592E0,5.674760342E-1
1.027929160E-1,-6.682408333E0,-6.428322792E0,6.608457565E-1
1.052102080E-1,-6.823659897E0,-6.485780716E0,8.260385990E-1
1.076276040E-1,-6.890694618E0,-6.617456436E0,9.984138012E-1
1.100451040E-1,-6.852389336E0,-6.746738434E0,1.173182964E0
1.124627600E-1,-6.689590454E0,-6.667732239E0,1.139665604E0
1.148805210E-1,-6.826053619E0,-6.670126915E0,1.189941645E0
1.172983330E-1,-6.890694618E0,-6.830531120E0,1.113330483E0
1.197162500E-1,-7.142074585E0,-7.024453163E0,9.888373613E-1
1.221343230E-1,-7.498795986E0,-7.462573051E0,1.161212564E0
1.245525000E-1,-7.374302864E0,-7.661283493E0,5.722641945E-1
1.269707290E-1,-7.197139263E0,-7.809718132E0,2.059670687E-1
1.293890620E-1,-7.228262901E0,-7.998851776E0,1.652673781E-1
1.318074480E-1,-7.087010860E0,-7.950969696E0,-2.201825231E-1
1.342259370E-1,-7.031946182E0,-7.953364372E0,-3.104873002E-2
1.366444270E-1,-6.909847260E0,-8.039551735E0,6.950342655E-2
1.390630210E-1,-7.067857742E0,-8.156862259E0,1.683324575E-2
1.414817190E-1,-7.292903423E0,-8.302902222E0,-2.626052499E-2
1.439004160E-1,-7.335996628E0,-8.374725342E0,-2.319544554E-3
1.463191140E-1,-7.134892941E0,-8.422607422E0,-1.531477571E-1
1.487379160E-1,-7.118134022E0,-8.451336861E0,-2.034238279E-1
1.511568230E-1,-6.940970898E0,-8.468094826E0,-1.531477571E-1
1.535757290E-1,-6.794930935E0,-8.492035866E0,-3.446756601E-1
1.559946350E-1,-6.974488258E0,-8.468094826E0,-4.404396117E-1
1.584136460E-1,-6.893088818E0,-8.453730583E0,-4.428337216E-1
1.608327600E-1,-6.842813015E0,-8.415425301E0,-3.542520404E-1
1.632518750E-1,-6.969699860E0,-8.345995903E0,-1.627241671E-1
1.656709890E-1,-7.000823498E0,-8.197562218E0,-9.090119600E-2
1.680902080E-1,-7.156439781E0,-7.704377174E0,-2.489117086E-1
1.705094270E-1,-6.577067852E0,-7.395539284E0,-5.697209835E-1
1.729107810E-1,-6.687196255E0,-7.393144608E0,-8.737715483E-1
1.752889580E-1,-6.586644173E0,-7.567914009E0,-5.457799435E-1
1.776622390E-1,-6.217952728E0,-7.649312973E0,2.640965581E-2
1.800355210E-1,-5.822926998E0,-7.661283493E0,3.927067220E-1
1.824080210E-1,-5.667310238E0,-7.697195053E0,4.788943231E-1
1.847805210E-1,-5.664916515E0,-7.867176056E0,4.621356428E-1
1.871537500E-1,-5.854049683E0,-8.073068619E0,4.214359224E-1
1.895270310E-1,-5.964178085E0,-8.164044380E0,3.639775813E-1
1.918995310E-1,-6.026424885E0,-8.106586456E0,1.628732681E-1
1.942720310E-1,-6.052760124E0,-8.018004417E0,3.232778609E-1
1.966453120E-1,-6.153312206E0,-7.943787575E0,5.770523548E-1
1.990185940E-1,-6.256258488E0,-7.848023415E0,7.422451973E-1
2.013910410E-1,-6.335263729E0,-7.828870773E0,7.709743977E-1
2.037635410E-1,-6.349628448E0,-7.725924492E0,6.081756353E-1
2.061368230E-1,-6.323293209E0,-7.601431847E0,4.597415030E-1
2.085101040E-1,-6.373569489E0,-7.565520287E0,3.951008618E-1
2.108826040E-1,-6.512427330E0,-7.634948730E0,4.022831023E-1
2.132551040E-1,-6.658467293E0,-7.754653931E0,4.621356428E-1
2.156283330E-1,-6.778172016E0,-7.895905495E0,4.884707034E-1
2.180016140E-1,-6.838024139E0,-8.058704376E0,2.993369401E-1
2.203741140E-1,-6.943364620E0,-8.154467583E0,1.724496782E-1
2.227466140E-1,-7.051099300E0,-8.164044380E0,1.102030873E-1
2.251198960E-1,-7.194745064E0,-8.348389626E0,6.950342655E-2
2.274931770E-1,-7.125316143E0,-8.307690620E0,7.429161668E-2
2.298656250E-1,-6.818871975E0,-7.934210777E0,6.950342655E-2
2.322381250E-1,-6.459756851E0,-7.541579247E0,1.054148972E-1
2.346114060E-1,-6.208376408E0,-7.199222565E0,2.610313594E-1
2.369846870E-1,-6.002483845E0,-6.919113159E0,5.124117136E-1
2.393571350E-1,-5.846867561E0,-6.708432198E0,7.590038776E-1
2.417296350E-1,-5.787015438E0,-6.579151154E0,8.667383194E-1
2.441029160E-1,-5.640975475E0,-6.509721756E0,9.050438404E-1
2.464761980E-1,-5.217219830E0,-6.615062714E0,8.212504387E-1
2.488486980E-1,-4.982597828E0,-6.782649040E0,1.233035445E0
2.512211980E-1,-5.119061947E0,-7.074729919E0,1.620879412E0
2.535944790E-1,-5.384806633E0,-7.340474129E0,1.493992090E0
2.559677600E-1,-5.633792877E0,-7.431449890E0,9.672905207E-1
2.583402080E-1,-5.672098160E0,-7.426662445E0,5.602936745E-1
2.607127080E-1,-5.882779121E0,-7.843235016E0,6.177520752E-1
2.630859890E-1,-6.115006924E0,-8.221503258E0,2.993369401E-1
2.654592710E-1,-6.239499569E0,-8.326843262E0,-6.935431063E-2
2.678317710E-1,-6.122188568E0,-7.974910736E0,-4.500160217E-1
2.702042190E-1,-6.229923248E0,-7.694801331E0,-1.244185716E-1
2.725775520E-1,-6.543550491E0,-7.845629692E0,6.471520662E-2
2.749508330E-1,-6.658467293E0,-7.879146576E0,-3.583693504E-2
2.773232810E-1,-6.727895737E0,-7.812111855E0,-1.668412983E-2
2.796957810E-1,-6.866753578E0,-7.838446617E0,2.640965581E-2
2.820690620E-1,-6.945758820E0,-7.905482292E0,7.456541061E-5
2.844423440E-1,-6.878724098E0,-7.876752853E0,7.429161668E-2
2.868147910E-1,-6.782960415E0,-7.900693893E0,1.916024685E-1
2.891872910E-1,-6.773383617E0,-8.008427620E0,2.490608394E-1
2.915605730E-1,-6.878724098E0,-7.790564537E0,1.245676875E-1
2.939338540E-1,-7.316844463E0,-7.505667686E0,-8.850710094E-2
2.963063540E-1,-7.161227703E0,-7.943787575E0,4.836824834E-1
2.986788540E-1,-6.878724098E0,-8.075463295E0,4.262241423E-1
3.010521350E-1,-6.203588486E0,-7.783383369E0,3.687657416E-1
3.034254160E-1,-5.638580799E0,-8.051522255E0,1.486809850E0
3.057978640E-1,-6.531579971E0,-8.140103340E0,1.441321969E0
3.081703640E-1,-6.849994659E0,-8.137709618E0,1.539479971E0
3.105436460E-1,-6.909847260E0,-8.173621178E0,1.395834088E0
3.129169270E-1,-7.084616661E0,-8.185591698E0,1.256976366E0
3.152894270E-1,-7.273750305E0,-8.173621178E0,1.060660243E0
3.176618750E-1,-7.431760788E0,-8.156862259E0,1.039113402E0
3.200352080E-1,-7.510766506E0,-8.123345375E0,8.188563585E-1
3.224084890E-1,-7.570618629E0,-8.099404335E0,8.236445189E-1
3.247809370E-1,-7.697505951E0,-8.140103340E0,7.135159969E-1
3.271534370E-1,-7.819604874E0,-8.118556023E0,6.464812756E-1
3.295267190E-1,-7.862698555E0,-8.058704376E0,5.794464350E-1
3.319000000E-1,-7.970433235E0,-8.027581215E0,5.387468338E-1
3.342724480E-1,-7.917762756E0,-7.943787575E0,4.549532831E-1
3.366449480E-1,-7.843545914E0,-7.759442329E0,4.262241423E-1
3.390182290E-1,-7.886639595E0,-7.752259254E0,3.663716614E-1
3.413915100E-1,-8.111684799E0,-7.807323456E0,7.668569684E-2
3.437640100E-1,-8.078167915E0,-7.843235016E0,1.532968581E-1
3.461365100E-1,-7.958462715E0,-7.816900253E0,2.227257490E-1
3.485097910E-1,-7.874669075E0,-7.685224533E0,2.227257490E-1
3.508830730E-1,-7.807634354E0,-7.608613014E0,2.658195198E-1
3.532555210E-1,-7.771722794E0,-7.527214050E0,2.275139391E-1
3.556280210E-1,-7.702294350E0,-7.543972969E0,3.256720006E-1
3.580013020E-1,-7.510766506E0,-7.508061409E0,4.884707034E-1
3.603745830E-1,-7.462884426E0,-7.469756126E0,4.812884033E-1
3.627470830E-1,-7.407819748E0,-7.407509804E0,4.932589233E-1
3.651195830E-1,-7.381484985E0,-7.326109886E0,3.615835011E-1
3.674928640E-1,-7.130104065E0,-7.153735161E0,4.860766232E-1
3.698661460E-1,-7.029552460E0,-7.007695198E0,5.100176334E-1
3.722385940E-1,-7.017581940E0,-6.952630043E0,4.429828227E-1
3.746110940E-1,-7.077434063E0,-6.847290039E0,2.610313594E-1
3.769843750E-1,-7.096587181E0,-6.679702759E0,2.059670687E-1
3.793576560E-1,-7.824393272E0,-7.268651009E0,-4.780741036E-2
3.817301560E-1,-7.716658592E0,-6.883201599E0,-9.808349609E-2
3.841026040E-1,-6.849994659E0,-6.153001785E0,-1.603300571E-1
3.864759370E-1,-6.426239491E0,-5.626299858E0,-2.249707282E-1
3.888492190E-1,-5.557181835E0,-4.920041084E0,2.251198292E-1
3.912216660E-1,-5.293830872E0,-4.465162277E0,6.608457565E-1
3.935941660E-1,-6.864359856E0,-4.098864555E0,1.180365324E0
3.959674480E-1,-5.590698719E0,-4.000706673E0,1.017566562E0
3.983407290E-1,-5.140608311E0,-3.976765633E0,6.345107555E-1
4.007132290E-1,-5.942631721E0,-4.077318192E0,1.108542323E0
4.030856770E-1,-6.189223766E0,-4.022253990E0,1.245005846E0
4.054590100E-1,-9.201000214E0,-3.265718460E0,1.419775128E0
4.078322910E-1,-7.482037067E0,-2.875480413E0,8.404033184E-1
4.102047390E-1,-6.189223766E0,-2.923362255E0,2.310379744E0
4.125772390E-1,-5.528452396E0,-3.100525379E0,5.746582747E-1
4.149505210E-1,-4.022564411E0,-3.756508827E0,1.551450491E0
4.173238020E-1,-5.248342991E0,-3.938460350E0,1.319223046E0
4.196962500E-1,-6.414268970E0,-3.715808868E0,3.186619997E0
4.220687500E-1,-1.060633564E1,-2.777322292E0,3.260837078E0
4.244420830E-1,-7.795663834E0,-2.564247608E0,2.255315542E0
4.268153640E-1,-7.520342827E0,-2.964061975E0,2.236162663E0
4.291878120E-1,-7.611318111E0,-3.193895578E0,2.305591822E0
4.315603120E-1,-7.759752274E0,-3.361482382E0,2.336714983E0
4.339335940E-1,-7.740599632E0,-3.392605782E0,2.530637026E0
4.363068750E-1,-7.812422752E0,-3.497946024E0,2.535425186E0
4.386793230E-1,-7.625682831E0,-3.605680466E0,2.384597063E0
4.410518230E-1,-7.443731308E0,-3.881001711E0,2.255315542E0
4.434251040E-1,-7.331208706E0,-4.266451836E0,1.996752977E0
4.457983850E-1,-7.261779785E0,-4.637537003E0,1.833954334E0
4.481708850E-1,-7.300085068E0,-5.025381088E0,1.565815091E0
4.505433850E-1,-7.417396069E0,-5.171421051E0,1.532297730E0
4.529166660E-1,-7.436549187E0,-5.295913696E0,1.764525414E0
4.552899480E-1,-7.426972866E0,-5.568841934E0,1.872259855E0
4.576623960E-1,-7.453307629E0,-5.920773506E0,1.850713015E0
4.600348960E-1,-7.613712311E0,-6.155395508E0,2.047029018E0
4.624082290E-1,-7.668776989E0,-6.186518669E0,2.193068981E0
4.647815100E-1,-7.561042309E0,-6.191307068E0,2.171522379E0
4.671539580E-1,-7.477248669E0,-6.220036507E0,2.116457701E0
4.695264580E-1,-7.221080303E0,-6.325376511E0,2.097305059E0
4.718997390E-1,-7.448519707E0,-6.514510155E0,1.932112217E0
4.742730210E-1,-7.865092754E0,-6.624638557E0,1.572997570E0
4.766454690E-1,-8.006344795E0,-6.931083679E0,1.324011087E0
4.790179690E-1,-8.279272079E0,-7.089094162E0,1.235429525E0
4.813913020E-1,-8.149991035E0,-7.105853081E0,1.122906923E0
4.837645830E-1,-8.372641563E0,-7.060364723E0,1.515539169E0
4.861370310E-1,-8.597686768E0,-7.177676201E0,1.632849932E0
4.885095310E-1,-8.473194122E0,-7.208799362E0,1.177971125E0
4.908828120E-1,-8.111684799E0,-7.225558281E0,9.289848804E-1
4.932560940E-1,-7.941703796E0,-7.103458405E0,1.086995363E0
4.956285940E-1,-7.721446991E0,-7.115428925E0,1.252188325E0
4.980010940E-1,-7.331208706E0,-7.622978210E0,1.156424284E0
5.003743750E-1,-6.814083099E0,-8.673987389E0,3.113073409E-1
5.027476560E-1,-6.270623207E0,-1.000271225E1,-1.247250915E0
5.051201040E-1,-5.775044918E0,-1.100823402E1,-1.316679716E0
5.074926040E-1,-5.212431431E0,-1.163548851E1,-8.043426275E-1
5.098658850E-1,-4.692911625E0,-1.153014755E1,-3.518579602E-1
5.122391660E-1,-4.657000065E0,-1.147508335E1,1.341440976E-1
5.146116140E-1,-5.607457638E0,-1.173843384E1,9.553200006E-1
5.169841140E-1,-5.736739159E0,-1.135537815E1,1.230641365E0
5.193574480E-1,-5.921084881E0,-1.065151310E1,2.063787699E0
5.217307290E-1,-6.220346928E0,-1.081431198E1,2.430084705E0
5.241031770E-1,-5.961784363E0,-1.125722027E1,1.740584373E0
5.264756770E-1,-5.980937481E0,-1.166661167E1,1.161212564E0
5.288489580E-1,-5.822926998E0,-1.187968636E1,1.082207322E0
5.312222390E-1,-5.813350201E0,-1.197305584E1,9.768668413E-1
5.335947390E-1,-5.387200832E0,-1.208557796E1,1.269617975E-1
5.359672390E-1,-5.303407192E0,-1.215740108E1,-2.872172892E-1
5.383405210E-1,-5.253131390E0,-1.219570732E1,-6.846376657E-1
5.407138020E-1,-5.435082912E0,-1.183659267E1,-6.032383442E-1
5.430862500E-1,-5.942631721E0,-1.148705387E1,-4.643806219E-1
5.454587500E-1,-6.538762093E0,-1.117582130E1,-4.356514215E-1
5.478320310E-1,-5.530846596E0,-1.131228447E1,-1.046146512E0
5.502053120E-1,-6.933788300E0,-1.107526875E1,-5.146566629E-1
5.525778120E-1,-6.833236217E0,-1.108963299E1,-8.019485474E-1
5.549503120E-1,-4.882045746E0,-1.172885704E1,-2.470635176E0
5.573235940E-1,-5.875597000E0,-1.165942955E1,-2.604704618E0
5.596968750E-1,-6.852389336E0,-1.134101391E1,-2.147432089E0
5.620693230E-1,-7.367120266E0,-1.104893303E1,-1.718888402E0
5.644418230E-1,-7.584983349E0,-1.089331722E1,-9.288357496E-1
5.668151040E-1,-7.513160229E0,-1.081910038E1,-6.199970245E-1
5.691883850E-1,-7.522737026E0,-1.069221306E1,-6.295734048E-1
5.715608850E-1,-7.563436508E0,-1.048632050E1,-5.577504635E-1
5.739333850E-1,-8.149991035E0,-9.940465927E0,4.310123026E-1
5.763066660E-1,-7.922551155E0,-9.796820641E0,1.649608612E0
5.786799480E-1,-6.414268970E0,-1.051744461E1,-1.900839806E0
5.810523960E-1,-7.043916702E0,-1.043843842E1,-2.276713371E0
5.834248960E-1,-7.254597664E0,-1.025409317E1,-1.489054799E0
5.857981770E-1,-7.266568184E0,-1.000989532E1,-1.086846232E0
5.881714580E-1,-7.324026108E0,-9.820761681E0,-9.791117907E-1
5.905439580E-1,-7.321632385E0,-9.636415482E0,-8.570128679E-1
5.929164580E-1,-7.225868225E0,-9.423339844E0,-5.769032240E-1
5.952897390E-1,-7.553859711E0,-9.255753517E0,-1.709311962E0
5.976630210E-1,-7.094193459E0,-9.358699799E0,5.753293633E-2
6.000354690E-1,-6.579461575E0,-9.483193398E0,1.259370565E0
6.024079690E-1,-7.000823498E0,-9.315606117E0,8.212504387E-1
6.047813020E-1,-7.460490227E0,-9.078590393E0,2.251198292E-1
6.071545830E-1,-7.573012829E0,-9.023526192E0,1.628732681E-1
6.095270310E-1,-7.570618629E0,-9.078590393E0,3.591893613E-1
6.118995310E-1,-7.573012829E0,-9.109713554E0,5.746582747E-1
6.142728120E-1,-7.520342827E0,-9.073801994E0,9.433494806E-1
6.166460940E-1,-7.438943386E0,-9.028314590E0,1.340769887E0
6.190185940E-1,-7.276144981E0,-8.985220909E0,1.604120731E0
6.213910410E-1,-7.192351341E0,-8.932550430E0,1.824377775E0
6.237643750E-1,-7.223474503E0,-8.949309349E0,2.058999538E0
6.261376560E-1,-7.242627144E0,-8.956491470E0,2.228980541E0
6.285101040E-1,-7.266568184E0,-9.004373550E0,2.427690744E0
6.308826040E-1,-7.352756023E0,-9.054649353E0,2.652735949E0
6.332558850E-1,-7.352756023E0,-9.152807236E0,3.016638994E0
6.356291660E-1,-7.426972866E0,-9.128867149E0,3.009456873E0
6.380016660E-1,-7.704688072E0,-9.638809204E0,2.810746431E0
6.403741660E-1,-7.326420784E0,-9.250965118E0,3.569675684E0
6.427474480E-1,-7.663988590E0,-8.992403030E0,2.770046711E0
6.451207290E-1,-7.161227703E0,-9.092955589E0,3.902455330E0
6.474931770E-1,-8.185902596E0,-9.636415482E0,4.579985619E0
6.498656770E-1,-6.239499569E0,-9.722602844E0,4.915159702E0
6.522389580E-1,-5.233978271E0,-9.744150162E0,4.927130222E0
6.546122390E-1,-5.870808601E0,-9.519104004E0,3.605587244E0
6.569847390E-1,-1.221469045E0,-5.760369301E0,8.308268785E-1
6.593572390E-1,-2.346695423E0,-6.488175392E0,2.868204832E0
6.617305210E-1,-1.027594948E1,-1.301448917E1,4.632655621E0
6.641038020E-1,-9.687002182E0,-1.337120914E1,3.847391129E0
6.664762500E-1,-7.319238186E0,-1.154690647E1,3.581646204E0
6.688487500E-1,-5.660127640E0,-1.030197525E1,3.200984478E0
6.712220830E-1,-5.154973507E0,-1.015832901E1,2.813140631E0
6.735953640E-1,-5.432688236E0,-1.100823402E1,1.719037533E0
6.759678120E-1,-5.444658756E0,-1.126679611E1,3.222531557E0
6.783403120E-1,-6.335263729E0,-1.109202766E1,4.323817253E0
6.807135940E-1,-5.619428158E0,-1.092922878E1,4.647019863E0
6.830868750E-1,-5.588304996E0,-1.174801064E1,4.244811535E0
6.854593750E-1,-4.666576862E0,-1.278226089E1,2.942421913E0
6.878318750E-1,-3.708937883E0,-1.314377022E1,2.044635057E0
6.902051560E-1,-4.312250137E0,-1.286844921E1,2.164339781E0
6.925784370E-1,-4.879652023E0,-1.281817245E1,2.341503382E0
6.949508850E-1,-6.095853806E0,-1.271283245E1,3.471517801E0
6.973233850E-1,-6.888300896E0,-1.216697788E1,4.778695583E0
6.996966660E-1,-6.323293209E0,-1.306715965E1,3.904849529E0
7.020699480E-1,-2.818332911E0,-1.439109516E1,1.498780370E0
7.044424480E-1,-2.871002913E0,-1.467120552E1,-8.371889591E-2
7.068149480E-1,-4.111145973E0,-1.462332344E1,-6.966081858E-1
7.091882290E-1,-4.822193146E0,-1.451558781E1,-2.087579489E0
7.115615100E-1,-4.633059502E0,-1.373750591E1,-8.929243088E-1
7.139339580E-1,-4.400831699E0,-1.327544498E1,-4.404396117E-1
7.163064580E-1,-4.321826935E0,-1.300730610E1,2.993369401E-1
7.186797910E-1,-4.510960102E0,-1.276550198E1,9.361671209E-1
7.210530730E-1,-5.157367229E0,-1.231541252E1,2.726953030E0
7.234255210E-1,-3.625144243E0,-1.277986717E1,-5.338094831E-1
7.257980210E-1,-4.048899651E0,-1.265058613E1,-1.929569006E0
7.281713020E-1,-4.137481213E0,-1.232498837E1,-2.164190769E0
7.305445830E-1,-4.170998573E0,-1.187489796E1,-2.250378370E0
7.329170830E-1,-4.302673817E0,-1.146311283E1,-1.919992566E0
7.352895830E-1,-4.137481213E0,-1.122609711E1,-1.963086367E0
7.376628640E-1,-3.931588888E0,-1.122370338E1,-2.216861010E0
7.400361460E-1,-3.409675360E0,-1.163548851E1,-2.475423574E0
7.424085940E-1,-3.510227442E0,-1.156605911E1,-2.271925211E0
7.447810940E-1,-3.661055803E0,-1.139847183E1,-3.090707064E0
7.471543750E-1,-3.919618368E0,-1.117582130E1,-3.813724756E0
7.495276560E-1,-4.326614857E0,-1.079037094E1,-3.488127232E0
7.519001560E-1,-4.606724262E0,-1.048153210E1,-3.117042065E0
7.542726560E-1,-4.771917343E0,-1.038337421E1,-2.781868219E0
7.566459370E-1,-4.872469425E0,-1.018227005E1,-1.824228644E0
7.590192190E-1,-5.028085709E0,-9.863855362E0,-7.947661877E-1
7.613916660E-1,-5.040056229E0,-9.282089233E0,1.676614583E-1
7.637641660E-1,-5.037662506E0,-9.150413513E0,4.501651227E-1
7.661375000E-1,-5.329742432E0,-9.260541916E0,6.512694359E-1
7.685107810E-1,-5.925872803E0,-9.037890434E0,4.717119634E-1
7.708832290E-1,-6.021636963E0,-8.769751549E0,5.171998739E-1
7.732557290E-1,-5.770256519E0,-9.071408272E0,-1.866651475E-1
7.756290100E-1,-5.224401951E0,-9.756120682E0,-3.063700795E-1
7.780022910E-1,-5.243554592E0,-1.027085114E1,-2.393353134E-1
7.803747910E-1,-5.250736713E0,-1.020142269E1,7.733684778E-1
7.827472910E-1,-5.162155151E0,-1.016311741E1,1.347952127E0
7.851205730E-1,-4.970627308E0,-1.022057533E1,1.687914133E0
7.874938540E-1,-4.992174149E0,-1.059644890E1,1.434139729E0
7.898663020E-1,-5.056814671E0,-1.076642990E1,1.189941645E0
7.922388020E-1,-5.219613552E0,-1.097950554E1,8.667383194E-1
7.946121350E-1,-5.317771912E0,-1.095316982E1,9.696844816E-1
7.969854160E-1,-5.394382954E0,-1.087655830E1,1.426957369E0
7.993578640E-1,-5.423112392E0,-1.085980034E1,1.625667691E0
8.017303640E-1,-5.315377712E0,-1.077840042E1,1.889018536E0
8.041036460E-1,-5.205249310E0,-1.078079414E1,1.932112217E0
8.064769270E-1,-5.078361988E0,-1.070657730E1,1.745372534E0
8.088494270E-1,-4.980203629E0,-1.068981934E1,1.462868929E0
8.112219270E-1,-4.810222626E0,-1.050547314E1,1.350346327E0
8.135952080E-1,-4.604330063E0,-1.041689110E1,1.139665604E0
8.159684890E-1,-4.467866898E0,-1.034985733E1,1.005596042E0
8.183409370E-1,-4.396043777E0,-1.020142269E1,9.457436800E-1
8.207134370E-1,-4.451107979E0,-1.014157009E1,5.866287947E-1
8.230867190E-1,-4.285915375E0,-9.894978523E0,2.610313594E-1
8.254600000E-1,-3.814278126E0,-9.813578606E0,-6.798495054E-1
8.278325000E-1,-3.759213686E0,-1.012481117E1,-1.256827235E0
8.302050000E-1,-4.106358051E0,-1.067306042E1,-1.419625998E0
8.325782810E-1,-4.350555897E0,-1.153014755E1,-3.004519224E0
8.349515620E-1,-4.685729980E0,-1.105132866E1,-3.157741785E0
8.373240100E-1,-5.449447155E0,-1.009129429E1,-2.018150568E0
8.396965620E-1,-5.597881317E0,-9.224630356E0,-1.031782031E0
8.420698440E-1,-5.629004955E0,-9.157595634E0,-3.710107505E-1
8.444431250E-1,-5.442264557E0,-7.359627724E0,9.816550016E-1
8.468155730E-1,-5.013721466E0,-5.863315582E0,1.996752977E0
8.491880730E-1,-4.384073257E0,-5.398860931E0,2.351079464E0
8.515613540E-1,-4.036929131E0,-6.215248108E0,1.604120731E0
8.539346350E-1,-4.151845932E0,-6.789832115E0,1.319223046E0
8.563071350E-1,-4.125510693E0,-5.925561905E0,1.877048016E0
8.586796350E-1,-3.864553928E0,-5.882468224E0,1.975206137E0
8.610529160E-1,-3.586838484E0,-6.160183907E0,1.778889894E0
8.634261980E-1,-2.748903990E0,-6.916719437E0,-1.627241671E-1
8.657986980E-1,-4.570812702E0,-8.855938911E0,-2.321530282E-1
8.681711980E-1,-4.812616825E0,-7.563125610E0,2.123640299E0
8.705444790E-1,-4.470260620E0,-7.144158363E0,2.549789667E0
8.729177600E-1,-4.056081772E0,-7.110640526E0,2.006329298E0
8.752902080E-1,-3.979470730E0,-7.196828842E0,1.522721410E0
8.776627080E-1,-3.957924128E0,-8.369936943E0,5.315644741E-1
8.800359890E-1,-4.278733253E0,-8.939732552E0,1.987847388E-1
8.824092710E-1,-4.759946823E0,-8.197562218E0,9.720786810E-1
8.847817710E-1,-4.606724262E0,-8.156862259E0,1.271340966E0
8.871542710E-1,-4.008199692E0,-8.094615936E0,9.170143604E-1
8.895275520E-1,-3.613173723E0,-8.128132820E0,5.650818348E-1
8.919008330E-1,-3.670632124E0,-8.398666382E0,1.868142784E-1
8.942732810E-1,-3.926800489E0,-9.136048317E0,-9.568940103E-2
8.966457810E-1,-4.130298615E0,-9.303635597E0,-5.457799435E-1
8.990191140E-1,-4.417590618E0,-8.685957909E0,2.514549196E-1
9.013923960E-1,-4.250003815E0,-8.571041107E0,1.628732681E-1
9.037648440E-1,-3.857371807E0,-8.278961182E0,-8.850710094E-2
9.061373440E-1,-3.598809004E0,-8.176014900E0,-3.853753507E-1
9.085106250E-1,-3.594021082E0,-8.355572701E0,-6.870317459E-1
9.108839060E-1,-3.665843725E0,-8.623711586E0,-9.982646704E-1
9.132564060E-1,-3.775972605E0,-8.903820992E0,-1.249644995E0
9.156289060E-1,-3.866948366E0,-9.078590393E0,-1.304709196E0
9.180021870E-1,-3.936377048E0,-9.155201912E0,-1.350197077E0
9.203754690E-1,-3.965106249E0,-9.179142952E0,-1.244856834E0
9.227479160E-1,-4.056081772E0,-9.339547157E0,-1.182610154E0
9.251204160E-1,-4.089599133E0,-9.423339844E0,-1.098816752E0
9.274937500E-1,-4.113540173E0,-9.478404999E0,-9.934763908E-1
9.298670310E-1,-4.015382290E0,-9.248571396E0,-1.046146512E0
9.322394790E-1,-4.058475971E0,-9.126472473E0,-9.096829891E-1
9.346119790E-1,-4.068052292E0,-9.088167191E0,-7.588547468E-1
9.369852600E-1,-4.039323330E0,-9.150413513E0,-7.133668661E-1
9.393585410E-1,-4.103963852E0,-9.183930397E0,-5.481740832E-1
9.417310410E-1,-4.362526417E0,-9.399398804E0,4.094654024E-1
9.441035410E-1,-4.755158901E0,-9.758514404E0,2.415720224E0
9.464768230E-1,-4.724035263E0,-9.703450203E0,3.833026886E0
9.488501040E-1,-4.324220657E0,-9.121684074E0,2.983121634E0
9.512226040E-1,-4.137481213E0,-8.590193748E0,4.525592625E-1
9.535951040E-1,-4.041717052E0,-8.733839989E0,-1.824228644E0
9.559683850E-1,-3.957924128E0,-9.037890434E0,-2.971001863E0
9.583416660E-1,-4.589965820E0,-9.425735474E0,-2.408388615E0
9.607141140E-1,-4.566024780E0,-9.861460686E0,-2.154614210E0
9.630866140E-1,-4.853316784E0,-1.010326385E1,-1.745223403E0
9.654599480E-1,-5.233978271E0,-1.032352257E1,-1.417231798E0
9.678332290E-1,-5.576334476E0,-1.045519733E1,-1.201763034E0
9.702056770E-1,-5.815744400E0,-1.051744461E1,-9.958704710E-1
9.725781770E-1,-5.930661201E0,-1.050786686E1,-8.282836676E-1
9.749514580E-1,-5.928267002E0,-1.044801521E1,-7.612488270E-1
9.773247390E-1,-5.933055401E0,-1.043843842E1,-6.654849052E-1
9.796972390E-1,-5.933055401E0,-1.043365002E1,-6.343616247E-1
9.820697390E-1,-5.870808601E0,-1.037379837E1,-6.678789854E-1
9.844430210E-1,-5.789409161E0,-1.023972797E1,-7.684311867E-1
9.868163020E-1,-5.741527081E0,-1.014396381E1,-8.809537888E-1
9.891887500E-1,-5.691251278E0,-1.011523533E1,-8.881360292E-1
9.915612500E-1,-5.679280758E0,-1.007932281E1,-9.360181093E-1
9.939345310E-1,-5.746315479E0,-1.007214165E1,-9.886882305E-1
9.963078120E-1,-6.203588486E0,-1.017508698E1,-1.046146512E0
9.986803120E-1,-6.419057369E0,-1.020621109E1,-8.809537888E-1
1.001052812E0,-6.033607483E0,-1.000510597E1,-4.931097925E-1
1.003426094E0,-5.423112392E0,-9.703450203E0,-3.566461504E-1
1.005799375E0,-5.102302551E0,-9.358699799E0,-4.619865119E-1
1.008171875E0,-4.884439945E0,-9.042678833E0,-5.577504635E-1
1.010544375E0,-4.053687572E0,-8.702716827E0,-2.991877794E-1
1.012917656E0,-4.740793705E0,-8.760174751E0,-1.770887524E-1
1.015290937E0,-4.680941105E0,-8.640469551E0,-3.183405697E-1
1.017663385E0,-4.525325298E0,-8.504006386E0,-4.715628922E-1
1.020035885E0,-4.482231140E0,-8.391484261E0,-6.966081858E-1
1.022409219E0,-4.510960102E0,-8.276566505E0,-8.354659081E-1
1.024782500E0,-4.558842182E0,-8.183197021E0,-9.168652296E-1
1.027154948E0,-4.563630581E0,-8.087433815E0,-8.426481485E-1
1.029527448E0,-4.113540173E0,-7.802535057E0,-1.316679716E0
1.031900729E0,-4.762341022E0,-7.924634933E0,-6.846376657E-1
1.034274010E0,-4.841346264E0,-8.032368660E0,9.650945663E-3
1.036646510E0,-4.539690018E0,-7.852811813E0,-8.371889591E-2
1.039019010E0,-4.417590618E0,-7.637342453E0,-3.159464896E-1
1.041392291E0,-4.331403255E0,-7.488908768E0,-4.069222212E-1
1.043765573E0,-4.190151215E0,-7.469756126E0,-5.266271830E-1
1.046138021E0,-4.084811211E0,-7.493697166E0,-6.367557049E-1
1.048510573E0,-3.938771009E0,-7.520031929E0,-7.780075073E-1
1.050883854E0,-3.792731047E0,-7.441026688E0,-7.660369873E-1
1.053257135E0,-3.725696325E0,-7.409903526E0,-9.264416695E-1
1.055629583E0,-3.684996843E0,-7.354839325E0,-1.089240432E0
1.058002083E0,-3.644297123E0,-7.352444649E0,-1.292738676E0
1.060375416E0,-3.531774282E0,-7.373991966E0,-1.481872439E0
1.062748698E0,-3.483892202E0,-7.431449890E0,-1.594395280E0
1.065121146E0,-3.476710081E0,-7.498484612E0,-1.793105364E0
1.067493646E0,-3.493468761E0,-7.357233047E0,-2.140249729E0
1.069866927E0,-3.582050562E0,-7.481726646E0,-2.504152775E0
1.072240208E0,-3.282788038E0,-7.776200294E0,-1.982239246E0
1.074612656E0,-2.983525753E0,-7.891117096E0,-2.159402609E0
1.076985208E0,-3.072107315E0,-7.994063377E0,-2.504152775E0
1.079358489E0,-3.177447796E0,-8.108980179E0,-2.733986139E0
1.081731771E0,-3.275605679E0,-8.204744339E0,-2.719621420E0
1.084104219E0,-3.323487759E0,-8.432183266E0,-2.722015619E0
1.086476719E0,-3.165477276E0,-8.448942184E0,-2.573581457E0
1.088850052E0,-3.160689116E0,-8.508794785E0,-2.437118053E0
1.091223333E0,-3.127171755E0,-8.551888466E0,-2.346142292E0
1.093595781E0,-3.124777555E0,-8.580617905E0,-2.135461569E0
1.095968281E0,-3.177447796E0,-8.673987389E0,-2.157008410E0
1.098341562E0,-3.210964918E0,-8.733839989E0,-2.137855768E0
1.100714844E0,-3.206176996E0,-8.729051590E0,-2.039697647E0
1.103087344E0,-3.282788038E0,-8.822421074E0,-2.008574247E0
1.105459844E0,-3.414463520E0,-9.033102989E0,-1.998997808E0
1.107833125E0,-3.594021082E0,-9.234207153E0,-1.864928365E0
1.110206406E0,-3.876524448E0,-9.392217636E0,-1.771558523E0
1.112578854E0,-4.077628613E0,-9.550228119E0,-1.809864163E0
1.114951354E0,-4.226062775E0,-9.622051239E0,-1.721282363E0
1.117324687E0,-4.259580135E0,-9.581351280E0,-1.750011563E0
1.119697969E0,-4.204515934E0,-9.504739761E0,-1.654247642E0
1.122070416E0,-4.161422253E0,-9.397005081E0,-1.642277122E0
1.124442916E0,-4.080022812E0,-9.236600876E0,-1.615942121E0
1.126816198E0,-4.032140732E0,-9.136048317E0,-1.654247642E0
1.129189479E0,-4.039323330E0,-9.066619873E0,-1.778740764E0
1.131561979E0,-4.065658092E0,-9.025919914E0,-1.879292965E0
1.133934479E0,-4.115934372E0,-8.973250389E0,-1.845775604E0
1.136307760E0,-4.137481213E0,-8.939732552E0,-1.809864163E0
1.138681041E0,-4.194939613E0,-8.934945107E0,-1.682976842E0
1.141053541E0,-4.214092255E0,-8.906215668E0,-1.668612242E0
1.143426041E0,-4.211698055E0,-8.927762032E0,-1.781134844E0
1.145799323E0,-4.197333336E0,-8.889456749E0,-1.833805084E0
1.148172604E0,-4.218880653E0,-8.887063026E0,-1.855351925E0
1.150545052E0,-4.245215416E0,-8.836786270E0,-1.908022046E0
1.152917552E0,-4.206910133E0,-8.867909431E0,-1.972662687E0
1.155290885E0,-4.211698055E0,-8.836786270E0,-2.027727127E0
1.157664166E0,-4.218880653E0,-8.805663109E0,-2.113914728E0
1.160036614E0,-4.178180695E0,-8.855938911E0,-2.276713371E0
1.162409114E0,-4.194939613E0,-8.875092506E0,-2.303048372E0
1.164782396E0,-4.175786972E0,-8.925368309E0,-2.346142292E0
1.167155677E0,-4.226062775E0,-8.992403030E0,-2.346142292E0
1.169528177E0,-4.250003815E0,-9.064226151E0,-2.386842012E0
1.171900677E0,-4.293097496E0,-9.107319832E0,-2.429935694E0
1.174273958E0,-4.317038536E0,-9.179142952E0,-2.513729095E0
1.176647239E0,-4.309856415E0,-9.250965118E0,-2.583158016E0
1.179019739E0,-4.290703297E0,-9.317999840E0,-2.580764055E0
1.181392239E0,-4.192545414E0,-9.327576637E0,-2.566399336E0
1.183765521E0,-4.161422253E0,-9.382640839E0,-2.516123295E0
1.186138802E0,-4.170998573E0,-9.387429237E0,-2.456270695E0
1.188511250E0,-4.084811211E0,-9.303635597E0,-2.489788294E0
1.190883750E0,-3.943559170E0,-9.286877632E0,-2.494576216E0
1.193257083E0,-3.768790007E0,-9.255753517E0,-2.484999895E0
1.195630364E0,-3.541350842E0,-9.188718796E0,-2.631040096E0
1.198002812E0,-3.694572926E0,-9.224630356E0,-2.520911455E0
1.200375312E0,-3.780760527E0,-9.174354553E0,-2.403600454E0
1.202748594E0,-2.399365425E0,-9.361094475E0,-4.103410721E0
1.205121875E0,-3.431222200E0,-9.590927124E0,-3.938217640E0
1.207494375E0,-4.599542141E0,-9.313212395E0,-1.307103395E0
1.209866875E0,-3.586838484E0,-9.138442993E0,-1.462719679E0
1.212240156E0,-4.429561138E0,-8.891850471E0,-5.266271830E-1
1.214613437E0,-4.235639095E0,-8.554282188E0,7.456541061E-5
1.216985885E0,-3.914829969E0,-8.441760063E0,-6.630908251E-1
1.219358437E0,-3.936377048E0,-8.444153786E0,-1.062905312E0
1.221731719E0,-3.814278126E0,-8.638075829E0,-1.606365681E0
1.224105000E0,-3.838218927E0,-8.477671623E0,-1.055722952E0
1.226477448E0,-3.996229410E0,-8.379513741E0,-5.146566629E-1
1.228849948E0,-3.819066286E0,-8.513583183E0,-9.623531103E-1
1.231223281E0,-3.488680601E0,-8.262202263E0,-5.673268437E-1
1.233596562E0,-2.368242264E0,-8.786509514E0,-2.161796570E0
1.235969010E0,-4.005805492E0,-8.013216019E0,-2.319544554E-3
1.238341510E0,-3.936377048E0,-7.498484612E0,1.120512724E0
1.240714791E0,-3.637114763E0,-7.208799362E0,1.142059684E0
1.243088073E0,-3.335458279E0,-7.067546844E0,8.308268785E-1
1.245460573E0,-3.603597164E0,-7.424267769E0,4.860766232E-1
1.247833073E0,-3.510227442E0,-7.429056168E0,2.323021591E-1
1.250206354E0,-3.577262163E0,-7.381174088E0,2.394844294E-1
1.252579635E0,-3.699361324E0,-7.452997208E0,1.443913579E-2
1.254952083E0,-3.922012568E0,-7.601431847E0,-3.063700795E-1
1.257324583E0,-4.027352810E0,-7.845629692E0,-4.931097925E-1
1.259697916E0,-3.625144243E0,-7.764229774E0,-4.955039024E-1
1.262071198E0,-3.675420284E0,-7.754653931E0,-4.978979826E-1
1.264443646E0,-1.836752415E0,-7.448208809E0,-1.290344715E0
1.266816146E0,-3.538956642E0,-7.821688652E0,-2.372477293E0
1.269189479E0,-5.617034435E0,-7.491302490E0,-2.619069576E0
1.271562760E0,-6.064730644E0,-7.393144608E0,-2.913543463E0
1.273935208E0,-6.057548523E0,-7.084305763E0,-2.712439299E0
1.276307708E0,-6.031213284E0,-6.990936279E0,-2.700468779E0
1.278680989E0,-5.832502842E0,-7.002906799E0,-2.702862978E0
1.281054271E0,-5.681674957E0,-6.955024719E0,-2.561610937E0
1.283426771E0,-4.800646305E0,-7.089094162E0,-2.769897699E0
1.285799271E0,-5.291436672E0,-7.493697166E0,-2.733986139E0
1.288172552E0,-6.069518566E0,-7.745077133E0,-2.623857737E0
1.290545833E0,-6.143735886E0,-8.027581215E0,-2.690892458E0
1.292918333E0,-6.050365925E0,-8.413030624E0,-2.851296902E0
1.295290833E0,-5.866020203E0,-8.614134789E0,-2.760321140E0
1.297664114E0,-5.739133358E0,-8.820027351E0,-2.872843981E0
1.300037396E0,-5.662521839E0,-9.088167191E0,-2.887208462E0
1.302409844E0,-5.708009720E0,-9.274906158E0,-2.805809259E0
1.304782344E0,-5.712798119E0,-9.356306076E0,-2.592734575E0
1.307155677E0,-5.648157120E0,-9.497557640E0,-2.315018892E0
1.309528958E0,-5.554787636E0,-9.476011276E0,-1.829016805E0
1.311901406E0,-5.518876076E0,-9.509528160E0,-1.838593245E0
1.314273906E0,-5.497329235E0,-9.622051239E0,-1.874504685E0
1.316647187E0,-5.334530354E0,-9.566986084E0,-1.623124361E0
1.319020469E0,-5.279466152E0,-9.576562881E0,-1.338226557E0
1.321392969E0,-5.324954510E0,-9.679509163E0,-1.402867198E0
1.323765469E0,-5.403959274E0,-9.741756439E0,-1.414837718E0
1.326138750E0,-5.401565075E0,-9.751332283E0,-1.412443757E0
1.328512031E0,-5.413535595E0,-9.825549126E0,-1.524966359E0
1.330884479E0,-5.504511356E0,-9.964406967E0,-1.718888402E0
1.333257031E0,-5.645763397E0,-9.995530128E0,-1.941539526E0
1.335630312E0,-5.856443882E0,-1.008650589E1,-2.262348652E0
1.338003594E0,-6.328081131E0,-1.038098049E1,-2.382053614E0
1.340376041E0,-6.069518566E0,-1.020621109E1,-2.877632141E0
1.342748541E0,-6.069518566E0,-9.894978523E0,-3.265476227E0
1.345121875E0,-6.069518566E0,-9.631627083E0,-3.524038792E0
1.347495156E0,-6.165282726E0,-9.531075478E0,-3.737113476E0
1.349867604E0,-6.294564247E0,-9.389822960E0,-3.715566635E0
1.352240104E0,-6.342445850E0,-9.210266113E0,-3.696413994E0
1.354613385E0,-6.363992691E0,-9.104926109E0,-3.715566635E0
1.356986666E0,-6.361598969E0,-9.004373550E0,-3.713172436E0
1.359359166E0,-6.289775848E0,-8.954096794E0,-3.547979832E0
1.361731666E0,-6.215559006E0,-8.858333588E0,-3.380392790E0
1.364104948E0,-6.165282726E0,-8.774539948E0,-3.279840708E0
1.366478229E0,-6.170070648E0,-8.733839989E0,-3.231958628E0
1.368850729E0,-6.148524284E0,-8.671593666E0,-3.191258907E0
1.371223229E0,-6.117400646E0,-8.647652626E0,-3.231958628E0
1.373596510E0,-6.110218525E0,-8.673987389E0,-3.248717546E0
1.375969791E0,-6.036001205E0,-8.688351631E0,-3.275052547E0
1.378342239E0,-6.009666443E0,-8.743416786E0,-3.203229427E0
1.380714739E0,-5.992908001E0,-8.908609390E0,-3.047613144E0
1.383088073E0,-5.889961243E0,-8.987614632E0,-2.906361341E0
1.385461354E0,-5.798985958E0,-9.069014549E0,-2.820173740E0
1.387833802E0,-5.672098160E0,-9.107319832E0,-2.769897699E0
1.390206302E0,-5.485358715E0,-9.157595634E0,-2.738774538E0
1.392579583E0,-5.320165634E0,-9.193507195E0,-2.690892458E0
1.394952864E0,-5.183702469E0,-9.274906158E0,-2.635828257E0
1.397325364E0,-5.095120907E0,-9.353912354E0,-2.511334896E0
1.399697864E0,-4.987386227E0,-9.370670319E0,-2.427541494E0
1.402071146E0,-4.865287304E0,-9.440098763E0,-2.405994654E0
1.404444427E0,-4.786281586E0,-9.454463959E0,-2.432329655E0
1.406816927E0,-4.743188381E0,-9.480799675E0,-2.508940935E0
1.409189427E0,-4.747976303E0,-9.492769241E0,-2.597522497E0
1.411562708E0,-4.671365261E0,-9.490375519E0,-2.736380339E0
1.413935989E0,-4.664182663E0,-9.490375519E0,-2.812991381E0
1.416308437E0,-4.654606342E0,-9.437705040E0,-2.906361341E0
1.418680937E0,-4.609118938E0,-9.440098763E0,-2.992548704E0
1.421054271E0,-4.597148418E0,-9.461646080E0,-3.109859705E0
1.423427552E0,-4.537295818E0,-9.461646080E0,-3.224776506E0
1.425800000E0,-4.441531658E0,-9.370670319E0,-3.332510948E0
1.428172500E0,-4.372102737E0,-9.279694557E0,-3.509674311E0
1.430545781E0,-4.340979099E0,-9.183930397E0,-3.655714273E0
1.432919062E0,-4.431955338E0,-9.241389275E0,-3.828089237E0
1.435291562E0,-4.518142700E0,-9.258148193E0,-3.828089237E0
1.437664062E0,-4.628271103E0,-9.327576637E0,-3.744295835E0
1.440037344E0,-4.673759460E0,-9.435311317E0,-3.547979832E0
1.442410625E0,-4.700094223E0,-9.509528160E0,-3.301387548E0
1.444783125E0,-4.726429462E0,-9.576562881E0,-2.959031582E0
1.447155625E0,-4.776705265E0,-9.689085007E0,-2.643010378E0
1.449528906E0,-4.795858383E0,-9.890190125E0,-2.291077852E0
1.451902187E0,-4.879652023E0,-1.017987633E1,-1.996603727E0
1.454274635E0,-4.984992504E0,-1.048632050E1,-1.694947362E0
1.456647187E0,-5.123849869E0,-1.083106995E1,-1.357379317E0
1.459020469E0,-5.279466152E0,-1.119736862E1,-1.015023351E0
1.461393750E0,-5.444658756E0,-1.155408859E1,-7.301255465E-1
1.463766198E0,-5.588304996E0,-1.195869160E1,-6.343616247E-1
1.466138698E0,-5.719980240E0,-1.234892941E1,-7.157609463E-1
1.468511979E0,-5.889961243E0,-1.259791565E1,-7.277314663E-1
1.470885260E0,-6.040789604E0,-1.270565033E1,-6.918199658E-1
1.473257760E0,-6.170070648E0,-1.292830086E1,-7.277314663E-1
1.475630260E0,-6.304140091E0,-1.320841122E1,-7.756134272E-1
1.478003541E0,-6.304140091E0,-1.316531754E1,-4.811393023E-1
1.480376823E0,-6.349628448E0,-1.322277546E1,-2.776409090E-1
1.482749323E0,-6.337657928E0,-1.333290386E1,-6.217201054E-2
1.485121823E0,-6.222741127E0,-1.342148495E1,9.105029702E-2
1.487495104E0,-5.973754883E0,-1.328981018E1,-2.865463495E-2
1.489868385E0,-4.453502178E0,-1.273916721E1,2.514549196E-1
1.492240833E0,-6.239499569E0,-1.322516918E1,-1.914533377E-1
1.494613385E0,-6.699166775E0,-1.288041878E1,-3.159464896E-1
1.496986666E0,-6.691984177E0,-1.268410301E1,-1.244185716E-1
1.499359948E0,-6.636920452E0,-1.281099033E1,-6.456610560E-2
1.501732396E0,-6.234711647E0,-1.204727364E1,8.386802673E-2
1.504104896E0,-5.743921280E0,-1.184856224E1,-4.524101019E-1
1.506478229E0,-5.210037231E0,-1.158521175E1,-4.212868214E-1
1.508851510E0,-4.290703297E0,-1.162112331E1,-8.450423479E-1
1.511223958E0,-5.581122875E0,-1.200417900E1,-6.654849052E-1
1.513596458E0,-6.320899487E0,-1.154930019E1,2.227257490E-1
1.515969739E0,-6.675225735E0,-1.145592976E1,7.590038776E-1
1.518343021E0,-7.307267666E0,-1.147747707E1,9.744727612E-1
1.520715521E0,-6.921817780E0,-1.135537815E1,9.026497602E-1
1.523088021E0,-5.748709679E0,-1.151817703E1,5.914169550E-1
1.525461302E0,-5.281860352E0,-1.148944855E1,8.930734396E-1
1.527834583E0,-5.078361988E0,-1.102738762E1,1.503568649E0
1.530207083E0,-5.219613552E0,-1.077361202E1,1.879441977E0
1.532579583E0,-5.224401951E0,-1.050786686E1,2.109275579E0
1.534952864E0,-5.147790909E0,-1.018705845E1,2.042240858E0
1.537326146E0,-5.181308270E0,-9.835124969E0,1.970417738E0
1.539698594E0,-5.111879349E0,-9.490375519E0,2.037452459E0
1.542071146E0,-5.123849869E0,-9.253358841E0,2.063787699E0
1.544444427E0,-4.190151215E0,-9.052255630E0,2.070970058E0
1.546817708E0,-4.120722294E0,-9.006767273E0,2.307985783E0
1.549190156E0,-5.684068680E0,-8.985220909E0,2.389384985E0
1.551562656E0,-5.571546078E0,-8.836786270E0,2.236162663E0
1.553935937E0,-5.162155151E0,-8.659623146E0,2.068576097E0
1.556309219E0,-4.822193146E0,-8.532735825E0,1.934506178E0
1.558681719E0,-4.551660061E0,-8.432183266E0,1.702278733E0
1.561054219E0,-4.422379017E0,-8.334025383E0,1.616091251E0
1.563427500E0,-4.419984818E0,-8.221503258E0,1.659185052E0
1.565800781E0,-4.436743259E0,-8.061098099E0,1.841136456E0
1.568173281E0,-4.453502178E0,-7.927028656E0,2.015905857E0
1.570545781E0,-4.422379017E0,-7.804929733E0,2.207433462E0
1.572919062E0,-4.376890659E0,-7.747471809E0,2.367838383E0
1.575292344E0,-4.338585377E0,-7.737895012E0,2.489937305E0
1.577664791E0,-4.273944855E0,-7.754653931E0,2.588095188E0
1.580037344E0,-4.223668575E0,-7.836052895E0,2.614430428E0
1.582410625E0,-4.154239655E0,-7.941393852E0,2.628794909E0
1.584783906E0,-4.101569653E0,-8.073068619E0,2.655129910E0
1.587156354E0,-4.060870171E0,-8.199955940E0,2.691041470E0
1.589528854E0,-3.986653090E0,-8.369936943E0,2.652735949E0
1.591902187E0,-3.962712049E0,-8.535129547E0,2.571336508E0
1.594275469E0,-3.917224169E0,-8.707505226E0,2.482754946E0
1.596647916E0,-3.854977846E0,-8.884668350E0,2.403749704E0
1.599020416E0,-3.811883688E0,-9.004373550E0,2.384597063E0
1.601393698E0,-3.768790007E0,-9.126472473E0,2.422902584E0
1.603766979E0,-3.699361324E0,-9.227024078E0,2.449237585E0
1.606139479E0,-3.680208445E0,-9.329971313E0,2.525848866E0
1.608511979E0,-3.658661604E0,-9.394611359E0,2.568942547E0
1.610885260E0,-3.653873205E0,-9.478404999E0,2.607248068E0
1.613258541E0,-3.634720564E0,-9.533469200E0,2.568942547E0
1.615631041E0,-3.579656363E0,-9.557410240E0,2.432478905E0
1.618003541E0,-3.534168482E0,-9.607686043E0,2.312773943E0
1.620376823E0,-3.479104280E0,-9.478404999E0,2.102093220E0
1.622750104E0,-3.397704840E0,-9.325181961E0,1.783678055E0
1.625122552E0,-3.347428799E0,-9.492769241E0,1.687914133E0
1.627495104E0,-3.268423557E0,-9.624444962E0,1.539479971E0
1.629868385E0,-3.139142275E0,-9.708238602E0,1.391046047E0
1.632241666E0,-3.225329876E0,-9.873431206E0,1.347952127E0
1.634614114E0,-3.596415043E0,-1.006017113E1,1.781284094E0
1.636986614E0,-3.249270678E0,-1.016551113E1,1.570603371E0
1.639359948E0,-3.390522480E0,-1.027324486E1,1.292887926E0
1.641733229E0,-3.371369839E0,-1.059405518E1,6.847867966E-1
1.644105677E0,-3.481498241E0,-1.079037094E1,1.030208170E-1
1.646478177E0,-3.644297123E0,-1.085501099E1,4.077425599E-2
1.648851458E0,-3.919618368E0,-1.067784786E1,3.544012010E-1
1.651224739E0,-3.663449764E0,-9.918919563E0,1.455686688E0
1.653597239E0,-3.538956642E0,-1.007932281E1,9.194085598E-1
1.655969739E0,-3.198994637E0,-1.030197525E1,-5.505681634E-1
1.658343021E0,-3.680208445E0,-9.672327042E0,-9.501829743E-3
1.660716302E0,-4.597148418E0,-9.811183929E0,5.938110352E-1
1.663088750E0,-4.654606342E0,-1.009368801E1,-6.056324244E-1
1.665461302E0,-4.518142700E0,-9.933282852E0,-6.319675446E-1
1.667834583E0,-4.609118938E0,-1.021339321E1,-5.529623032E-1
1.670207864E0,-3.768790007E0,-9.626839638E0,-2.776409090E-1
1.672580312E0,-3.000284433E0,-8.034763336E0,2.032664537E0
1.674952812E0,-4.513354778E0,-8.664410591E0,2.360656023E0
1.677326146E0,-4.865287304E0,-9.119290352E0,6.656340361E-1
1.679699427E0,-4.245215416E0,-9.183930397E0,-2.536998987E-1
1.682071875E0,-4.032140732E0,-9.092955589E0,-6.935431063E-2
1.684444375E0,-3.862159967E0,-8.875092506E0,2.562431395E-1
1.686817656E0,-3.831036806E0,-8.666805267E0,6.704221964E-1
1.689190937E0,-4.001017570E0,-8.111374855E0,1.405410528E0
1.691563437E0,-2.554981947E0,-7.405115128E0,2.109275579E0
1.693935937E0,-3.582050562E0,-8.068280220E0,1.774101734E0
1.696309219E0,-4.257185936E0,-9.138442993E0,3.352483809E-1
1.698682500E0,-4.285915375E0,-8.999585152E0,1.379075527E0
1.701055000E0,-3.900465488E0,-9.286877632E0,7.685803175E-1
1.703427500E0,-4.010593891E0,-9.265330315E0,7.637920380E-1
1.705800781E0,-3.991441250E0,-9.064226151E0,1.144453764E0
1.708174062E0,-4.235639095E0,-8.575829506E0,2.767652750E0
1.710546510E0,-3.917224169E0,-9.069014549E0,2.248133183E0
1.712919010E0,-3.725696325E0,-9.533469200E0,1.113330483E0
1.715292344E0,-4.211698055E0,-9.578957558E0,9.505317211E-1
1.717665625E0,-4.496595860E0,-9.564592361E0,1.290493727E0
1.720038073E0,-4.408014297E0,-9.519104004E0,1.391046047E0
1.722410573E0,-4.360132217E0,-9.440098763E0,1.381469488E0
1.724783906E0,-4.415196896E0,-9.262936592E0,1.376681447E0
1.727157187E0,-4.484625340E0,-9.183930397E0,1.345558047E0
1.729529635E0,-4.522930622E0,-9.191113472E0,1.146847844E0
1.731902135E0,-4.671365261E0,-9.203083992E0,1.127695203E0
1.734275416E0,-4.630665302E0,-8.767357826E0,2.753288269E0
1.736648698E0,-3.981864929E0,-8.190379143E0,2.437267065E0
1.739021198E0,-4.221274376E0,-8.934945107E0,5.770523548E-1
1.741393698E0,-4.803040981E0,-9.001978874E0,1.173853874E-1
1.743766979E0,-4.970627308E0,-8.882274628E0,3.280661404E-1
1.746140260E0,-4.831769943E0,-8.764963150E0,6.919691563E-1
1.748512760E0,-4.752764225E0,-8.673987389E0,8.451913595E-1
1.750885260E0,-4.767129421E0,-8.609347343E0,8.116739988E-1
1.753258541E0,-4.774311066E0,-8.611741066E0,6.799986362E-1
1.755631823E0,-4.810222626E0,-8.604558945E0,8.284327984E-1
1.758004271E0,-4.973021984E0,-7.910269737E0,2.331926823E0
1.760376823E0,1.514985800E0,-2.964061975E0,3.088462114E0
1.762750104E0,2.046475649E0,-2.092609882E0,4.493798256E0
1.765123385E0,-4.441531658E0,-7.259075165E0,1.707067013E0
1.767495833E0,-7.019975662E0,-9.796820641E0,1.054148972E-1
1.769868333E0,-6.584249973E0,-1.060602570E1,4.862755537E-3
1.772241666E0,-7.254597664E0,-1.153733063E1,7.135159969E-1
1.774614948E0,-6.617767334E0,-1.187968636E1,-8.043426275E-1
1.776987396E0,-6.146129608E0,-1.091486454E1,-6.942141056E-1
1.779359896E0,-6.624949932E0,-1.019663429E1,-3.279169798E-1
1.781733177E0,-6.275411129E0,-9.722602844E0,-4.739570022E-1
1.784106458E0,-5.866020203E0,-9.358699799E0,-1.100539714E-1
1.786478958E0,-5.566758156E0,-9.219841957E0,2.370903492E-1
1.788851458E0,-5.162155151E0,-9.114501953E0,2.346962392E-1
1.791224739E0,-4.793464184E0,-8.796086311E0,6.704221964E-1
1.793598021E0,-4.609118938E0,-8.566252708E0,8.260385990E-1
1.795970521E0,-4.482231140E0,-8.367543221E0,8.954675198E-1
1.798343021E0,-4.470260620E0,-8.290931702E0,8.404033184E-1
1.800716302E0,-4.465472698E0,-8.345995903E0,6.823927164E-1
1.803089583E0,-4.470260620E0,-8.008427620E0,1.072630763E0
1.805462031E0,-4.508566380E0,-8.156862259E0,7.781567574E-1
1.807834531E0,-4.558842182E0,-8.274172783E0,7.446392775E-1
1.810207864E0,-4.652212143E0,-8.185591698E0,1.012778401E0
1.812581146E0,-5.083150387E0,-7.946181297E0,2.202645540E0
1.814953594E0,-3.749637365E0,-7.965334892E0,2.003935337E0
1.817326094E0,-4.431955338E0,-9.066619873E0,-1.531477571E-1
1.819699427E0,-5.301013470E0,-9.267724037E0,-1.603300571E-1
1.822072708E0,-5.365653992E0,-9.212659836E0,8.865621686E-2
1.824445156E0,-5.178914070E0,-9.176748276E0,2.514549196E-1
1.826817656E0,-5.059209347E0,-9.057044029E0,1.102030873E-1
1.829190937E0,-5.344106674E0,-9.607686043E0,-1.890592426E-1
1.831564219E0,-5.011327267E0,-9.119290352E0,-5.505681634E-1
1.833936719E0,-4.855710983E0,-8.669199944E0,3.017310202E-1
1.836309219E0,-4.733611584E0,-8.738628387E0,3.328543007E-1
1.838682500E0,-4.664182663E0,-8.664410591E0,4.477710426E-1
1.841055781E0,-4.601936340E0,-8.633288383E0,6.369048357E-1
1.843428281E0,-4.585177898E0,-8.767357826E0,6.297225952E-1
1.845800781E0,-4.522930622E0,-8.784115791E0,5.339585543E-1
1.848174062E0,-4.522930622E0,-8.817633629E0,4.190418422E-1
1.850547344E0,-4.594753742E0,-8.903820992E0,4.190418422E-1
1.852919791E0,-4.633059502E0,-9.100136757E0,1.437204778E-1
1.855292291E0,-4.522930622E0,-9.001978874E0,2.131493390E-1
1.857665625E0,-4.637847900E0,-9.049860954E0,4.166477621E-1
1.860038906E0,-4.642635822E0,-9.071408272E0,4.453769028E-1
1.862411354E0,-4.307462215E0,-8.549494743E0,6.105697155E-1
1.864783854E0,-1.168798923E0,-5.906409264E0,6.512694359E-1
1.867157135E0,6.798762321E0,1.625425339E0,5.743517399E0
1.869530416E0,4.807352126E-1,-4.467556000E0,3.737262726E0
1.871902916E0,-2.088132620E0,-7.532002449E0,9.218026400E-1
1.874275416E0,-5.901931763E0,-1.007214165E1,2.897605002E-1
1.876648698E0,-6.962517738E0,-1.156845284E1,1.556909978E-1
1.879021979E0,-6.636920452E0,-1.180307484E1,-4.739570022E-1
1.881394479E0,-6.869147778E0,-1.220767689E1,-1.410049558E0
1.883766979E0,-6.284987926E0,-1.184616852E1,-1.771558523E0
1.886140260E0,-9.203393936E0,-1.307912922E1,-1.046146512E0
1.888513541E0,-1.059675980E1,-1.468078136E1,-1.644671202E0
1.890886041E0,-8.193084717E0,-1.306237030E1,-9.288357496E-1
1.893258541E0,-6.074306965E0,-1.137692547E1,5.513882637E-2
1.895631823E0,-4.992174149E0,-1.015593529E1,2.442726195E-1
1.898005104E0,-4.870075226E0,-9.435311317E0,2.801841199E-1
1.900377552E0,-4.965839386E0,-9.076196671E0,5.363526344E-1
1.902750052E0,-4.872469425E0,-8.891850471E0,7.757625580E-1
1.905123385E0,-4.709671021E0,-8.810450554E0,9.553200006E-1
1.907496666E0,-4.774311066E0,-8.812845230E0,1.031931162E0
1.909869114E0,-4.745582104E0,-8.810450554E0,9.337731600E-1
1.912241614E0,-4.431955338E0,-8.839180946E0,6.440870762E-1
1.914614896E0,-5.025691986E0,-9.011555672E0,6.536635160E-1
1.916988177E0,-5.154973507E0,-9.052255630E0,4.741061032E-1
1.919360677E0,-5.176519871E0,-9.152807236E0,3.927067220E-1
1.921733177E0,-5.238766193E0,-9.258148193E0,4.070713818E-1
1.924106458E0,-5.315377712E0,-9.346729279E0,4.836824834E-1
1.926479739E0,-5.267495632E0,-9.332365036E0,4.597415030E-1
1.928852239E0,-5.308195114E0,-9.373064041E0,5.219880342E-1
1.931224739E0,-5.152578831E0,-9.272512436E0,4.741061032E-1
1.933598021E0,-4.989780426E0,-9.140837669E0,4.549532831E-1
1.935971302E0,-4.769523144E0,-9.023526192E0,3.615835011E-1
1.938343750E0,-5.011327267E0,-8.858333588E0,3.639775813E-1
1.940716302E0,-4.984992504E0,-8.738628387E0,2.251198292E-1
1.943089583E0,-4.891622066E0,-8.618923187E0,5.992701650E-2
1.945462864E0,-4.819799423E0,-8.587800026E0,-1.429003477E-2
1.947835312E0,-4.781493664E0,-8.575829506E0,-6.456610560E-2
1.950207812E0,-4.786281586E0,-8.592588425E0,-1.172362715E-1
1.952581146E0,-4.831769943E0,-8.633288383E0,-1.172362715E-1
1.954954427E0,-4.848528385E0,-8.638075829E0,-8.132480085E-2
1.957326875E0,-4.925139904E0,-8.705110550E0,-2.147233486E-2
1.959699375E0,-4.939504147E0,-8.697928429E0,-2.319544554E-3
1.962072656E0,-4.980203629E0,-8.697928429E0,2.880373597E-2
1.964445937E0,-4.980203629E0,-8.681169510E0,5.992701650E-2
1.966818437E0,-5.023297787E0,-8.700322151E0,4.795652628E-2
1.969190937E0,-5.054420948E0,-8.712292671E0,6.950342655E-2
1.971564219E0,-5.109485149E0,-8.719475746E0,2.401554585E-2
1.973937500E0,-5.121455669E0,-8.752992630E0,3.359192610E-2
1.976310000E0,-5.140608311E0,-8.762569427E0,4.795652628E-2
1.978682500E0,-5.145396709E0,-8.812845230E0,5.753293633E-2
1.981055781E0,-5.068785191E0,-8.827210426E0,8.147391677E-2
1.983429062E0,-5.150184631E0,-8.855938911E0,1.413263977E-1
1.985801510E0,-5.356077194E0,-8.875092506E0,2.394844294E-1
1.988174010E0,-4.932322025E0,-8.870304108E0,5.219880342E-1
1.990547344E0,-4.932322025E0,-9.035496712E0,5.698699951E-1
1.992920625E0,-5.746315479E0,-8.920579910E0,5.411409140E-1
1.995293073E0,-6.019242764E0,-8.745810509E0,4.765001833E-1
1.997665573E0,-5.885173321E0,-8.621317863E0,5.028352737E-1
2.000038906E0,-5.822926998E0,-8.611741066E0,6.871808767E-1
2.002412187E0,-5.770256519E0,-8.662016869E0,8.882852793E-1
2.004784635E0,-5.336924553E0,-8.796086311E0,1.276129246E0
2.007157135E0,-5.492540836E0,-9.049860954E0,1.331193566E0
2.009530416E0,-5.274677753E0,-9.040285110E0,1.338375807E0
2.011903698E0,-5.854049683E0,-8.987614632E0,1.237823606E0
2.014276198E0,-5.719980240E0,-8.831997871E0,1.106148124E0
2.016648698E0,-5.336924553E0,-8.745810509E0,1.089389563E0
2.019021979E0,-4.920351505E0,-8.887063026E0,1.395834088E0
2.021395260E0,-5.063997269E0,-8.745810509E0,1.161212564E0
2.023767760E0,-4.702488422E0,-8.719475746E0,9.313790798E-1
2.026140260E0,-5.109485149E0,-8.693140030E0,8.260385990E-1
2.028513541E0,-5.128637791E0,-8.683564186E0,7.470333576E-1
2.030886823E0,-5.085544109E0,-8.597376823E0,5.938110352E-1
2.033259323E0,-4.894016266E0,-8.640469551E0,5.890228748E-1
2.035631771E0,-4.819799423E0,-8.633288383E0,5.195939541E-1
2.038005104E0,-4.740793705E0,-8.676381111E0,4.405887425E-1
2.040378385E0,-4.412802219E0,-8.709898949E0,3.783421814E-1
2.042750833E0,-4.736005783E0,-8.752992630E0,3.735539615E-1
2.045123333E0,-4.721641064E0,-8.779328346E0,3.591893613E-1
2.047496666E0,-4.668970585E0,-8.772145271E0,2.993369401E-1
2.049869948E0,-4.479837418E0,-8.779328346E0,2.514549196E-1
2.052242396E0,-4.350555897E0,-8.831997871E0,2.538489997E-1
2.054614896E0,-4.331403255E0,-8.894245148E0,2.011788785E-1
2.056988177E0,-4.309856415E0,-8.968461990E0,1.125971973E-1
2.059361458E0,-4.312250137E0,-9.001978874E0,9.344440699E-2
2.061733958E0,-4.314644337E0,-8.939732552E0,4.316833615E-2
2.064106458E0,-4.400831699E0,-8.944520950E0,2.468675375E-3
2.066479739E0,-4.829375744E0,-9.535862923E0,-5.457799435E-1
2.068853021E0,-4.216486454E0,-8.566252708E0,-3.104873002E-2
2.071225521E0,-3.981864929E0,-8.336419106E0,3.735539615E-1
2.073598021E0,-4.410408497E0,-8.434577942E0,2.849722803E-1
2.075971302E0,-4.747976303E0,-8.453730583E0,6.710934639E-2
2.078344583E0,-4.953868866E0,-8.420212746E0,-2.513058186E-1
2.080717031E0,-5.231584072E0,-8.599770546E0,-4.859274924E-1
2.083089583E0,-5.435082912E0,-8.822421074E0,-6.511203051E-1
2.085462864E0,-5.593093395E0,-8.934945107E0,-6.678789854E-1
2.087836146E0,-5.983331203E0,-9.265330315E0,-8.785597086E-1
2.090208594E0,-5.672098160E0,-9.195900917E0,-6.367557049E-1
2.092581094E0,-5.923478603E0,-9.454463959E0,-4.931097925E-1
2.094954375E0,-6.258652687E0,-1.000271225E1,-4.117104411E-1
2.097327656E0,-6.112612724E0,-1.009129429E1,-8.139190674E-1
2.099700156E0,-5.638580799E0,-9.571775436E0,1.443913579E-2
2.102072656E0,-5.784620762E0,-9.703450203E0,1.580850780E-1
2.104445937E0,-6.347234249E0,-1.018705845E1,-1.668412983E-2
2.106819219E0,-6.754230976E0,-1.052702045E1,-2.704586089E-1
2.109191719E0,-6.589038372E0,-1.021818161E1,-1.794828475E-1
2.111564219E0,-6.938576698E0,-1.030915737E1,-5.697209835E-1
2.113937500E0,-7.010399818E0,-1.023972797E1,-3.997399211E-1
2.116310781E0,-6.996034622E0,-1.007692909E1,-4.356514215E-1
2.118683281E0,-6.885906219E0,-9.904554367E0,-2.489117086E-1
2.121055781E0,-6.715925217E0,-9.701056480E0,-1.196303815E-1
2.123429062E0,-6.763807297E0,-9.665143967E0,-1.483595669E-1
2.125802344E0,-6.902665138E0,-9.650780678E0,-2.776409090E-1
2.128174791E0,-7.075040340E0,-9.705843925E0,-5.816914439E-1
2.130547344E0,-7.173198223E0,-9.775273323E0,-8.234953880E-1
2.132920625E0,-7.204321861E0,-9.847096443E0,-9.336239100E-1
2.135293906E0,-7.170804501E0,-9.894978523E0,-9.575649500E-1
2.137666354E0,-7.127710342E0,-9.918919563E0,-9.432003498E-1
2.140038854E0,-7.087010860E0,-9.914131165E0,-8.234953880E-1
2.142412187E0,-6.967305660E0,-9.744150162E0,-6.367557049E-1
2.144785469E0,-6.888300896E0,-9.636415482E0,-4.667747021E-1
2.147157916E0,-6.809295177E0,-9.564592361E0,-4.093163013E-1
2.149530416E0,-6.763807297E0,-9.521498680E0,-4.380455017E-1
2.151903698E0,-6.735078335E0,-9.483193398E0,-4.811393023E-1
2.154276979E0,-6.763807297E0,-9.483193398E0,-5.529623032E-1
2.156649479E0,-6.617767334E0,-9.294058800E0,-2.728526890E-1
2.159021979E0,-6.510032654E0,-9.061831474E0,-1.028717011E-1
2.161395260E0,-6.526791573E0,-8.987614632E0,-2.319544554E-3
2.163768541E0,-6.402298450E0,-8.853545189E0,7.429161668E-2
2.166141041E0,-6.179647446E0,-8.697928429E0,2.514549196E-1
2.168513541E0,-6.031213284E0,-8.506400108E0,6.129639149E-1
2.170886823E0,-5.901931763E0,-8.300507545E0,9.625022411E-1
2.173260104E0,-5.813350201E0,-8.235867500E0,1.089389563E0
2.175632552E0,-5.918690681E0,-8.283749580E0,1.154030204E0
2.178005104E0,-5.988119125E0,-8.389089584E0,1.082207322E0
2.180378385E0,-6.112612724E0,-8.422607422E0,1.242611885E0
2.182751666E0,-6.241893768E0,-8.429789543E0,1.482021809E0
2.185124114E0,-6.141341686E0,-8.401060104E0,1.637638092E0
2.187496614E0,-6.177253246E0,-8.487248421E0,1.912959576E0
2.189869948E0,-6.107824326E0,-8.604558945E0,2.035058498E0
2.192243229E0,-6.146129608E0,-8.621317863E0,2.410932064E0
2.194615677E0,-6.100642204E0,-8.709898949E0,2.597671747E0
2.196988177E0,-6.093459606E0,-8.899033546E0,2.643159628E0
2.199361458E0,-6.033607483E0,-9.131260872E0,2.647947788E0
2.201734739E0,-5.992908001E0,-9.461646080E0,2.552183867E0
2.204107239E0,-6.083883286E0,-9.679509163E0,2.863416672E0
2.206479739E0,-6.241893768E0,-9.969195366E0,2.856234312E0
2.208853021E0,-6.387933731E0,-1.027564049E1,2.784411430E0
2.211226302E0,-6.543550491E0,-1.056293106E1,2.695829868E0
2.213598802E0,-6.749442577E0,-1.089571095E1,2.731741190E0
2.215971302E0,-6.960123062E0,-1.120454979E1,2.963968754E0
2.218344583E0,-7.225868225E0,-1.138650131E1,3.459547281E0
2.220717864E0,-7.362332344E0,-1.156127167E1,3.811479568E0
2.223090312E0,-7.477248669E0,-1.173843384E1,4.194535732E0
2.225462812E0,-7.587377071E0,-1.192277908E1,4.649414539E0
2.227836146E0,-7.695111752E0,-1.209036636E1,5.159357548E0
2.230209427E0,-7.790875912E0,-1.226274204E1,5.590294838E0
2.232581875E0,-7.920157433E0,-1.241357040E1,6.016444683E0
2.234954375E0,-8.066197395E0,-1.243990517E1,6.535964012E0
2.237327656E0,-8.149991035E0,-1.245187569E1,6.768191338E0
2.239700937E0,-8.238572121E0,-1.241117668E1,6.883108616E0
2.242073437E0,-8.284060478E0,-1.232019997E1,6.926201820E0
2.244445937E0,-8.252936363E0,-1.220767689E1,6.976478577E0
2.246819219E0,-8.181114197E0,-1.202093792E1,6.986054420E0
2.249192500E0,-8.123655319E0,-1.183419800E1,6.907049656E0
2.251565000E0,-8.068591118E0,-1.166661167E1,6.784950733E0
2.253937500E0,-7.884245872E0,-1.147268963E1,6.583846092E0
2.256310781E0,-7.601741791E0,-1.120215607E1,6.433018208E0
2.258684062E0,-7.376696587E0,-1.094838142E1,6.284584045E0
2.261056510E0,-7.041522980E0,-1.074488354E1,6.100237846E0
2.263429062E0,-6.675225735E0,-1.052223206E1,5.999686241E0
2.265802344E0,-6.325687408E0,-1.041449738E1,5.949409962E0
2.268175625E0,-5.801379681E0,-1.024451637E1,5.793793678E0
2.270548073E0,-5.394382954E0,-1.012002277E1,5.468195915E0
2.272920573E0,-5.097514629E0,-1.001947117E1,5.003740788E0
2.275293906E0,-4.882045746E0,-9.973982811E0,4.431551456E0
2.277667187E0,-4.788675785E0,-9.957223892E0,3.787539005E0
2.280039635E0,-4.659394741E0,-9.973982811E0,3.062126875E0
2.282412135E0,-4.400831699E0,-9.973982811E0,2.298409224E0
2.284785416E0,-4.137481213E0,-1.000750065E1,1.544268250E0
2.287158698E0,-3.823854208E0,-1.003383636E1,8.906792402E-1
2.289531198E0,-3.546139002E0,-1.006735325E1,2.370903492E-1
2.291903698E0,-3.352216959E0,-1.011762905E1,-3.590402603E-1
2.294276979E0,-3.225329876E0,-1.013199425E1,-8.234953880E-1
2.296650260E0,-3.160689116E0,-1.017269325E1,-1.163457394E0
2.299022760E0,-3.129565716E0,-1.025648689E1,-1.477084398E0
2.301395260E0,-3.108018875E0,-1.034506798E1,-1.680582762E0
2.303768541E0,-3.074501514E0,-1.046716690E1,-1.922386765E0
2.306141823E0,-3.036195993E0,-1.047674465E1,-1.797893643E0
2.308514271E0,-2.966767073E0,-1.052462578E1,-1.527360320E0
2.310886823E0,-2.933249712E0,-1.055335522E1,-1.168245673E0
2.313260104E0,-2.945220232E0,-1.061320686E1,-8.689832687E-1
2.315633385E0,-2.904520512E0,-1.069221306E1,-6.583026052E-1
2.318005833E0,-3.000284433E0,-1.075685310E1,-3.087641895E-1
2.320378333E0,-3.131959677E0,-1.078318787E1,8.865621686E-2
2.322751666E0,-3.230118036E0,-1.076882458E1,4.381946027E-1
2.325124948E0,-3.493468761E0,-1.085501099E1,7.326687574E-1
2.327497396E0,-3.740061045E0,-1.084782887E1,9.720786810E-1
2.329869896E0,-4.106358051E0,-1.084543514E1,1.335981607E0
2.332243177E0,-4.443925858E0,-1.085980034E1,1.695096493E0
2.334616458E0,-4.898804188E0,-1.081910038E1,1.948871136E0
2.336988958E0,-5.253131390E0,-1.080952454E1,2.104487181E0
2.339361458E0,-6.036001205E0,-1.138171291E1,2.049422979E0
2.341734739E0,-6.105430126E0,-1.092922878E1,1.951265097E0
2.344108021E0,-5.796591282E0,-1.017269325E1,2.712588549E0
2.346480521E0,-6.021636963E0,-1.007692909E1,2.628794909E0
2.348853021E0,-6.502851009E0,-1.014396381E1,2.355867863E0
2.351226302E0,-6.905059338E0,-1.016790485E1,2.284044743E0
2.353599583E0,-7.237838745E0,-1.006256485E1,2.384597063E0
2.355972031E0,-7.410214424E0,-1.002425957E1,2.154763460E0
2.358344531E0,-7.455701828E0,-9.708238602E0,2.011117458E0
2.360717864E0,-7.450913906E0,-9.416158676E0,2.114063740E0
2.363091146E0,-7.527524948E0,-9.303635597E0,2.080546618E0
2.365463594E0,-7.522737026E0,-9.181536674E0,2.011117458E0
2.367836094E0,-7.422184944E0,-9.054649353E0,1.924930096E0
2.370209375E0,-7.343179226E0,-8.879879951E0,1.855500937E0
2.372582656E0,-7.228262901E0,-8.705110550E0,1.781284094E0
2.374955156E0,-7.122922421E0,-8.559070587E0,1.742978573E0
2.377327656E0,-7.012794018E0,-8.460912704E0,1.731008053E0
2.379700937E0,-6.811689377E0,-8.350784302E0,1.640032291E0
2.382074219E0,-6.581855774E0,-8.293326378E0,1.630455852E0
2.384446719E0,-6.414268970E0,-8.252626419E0,1.623273492E0
2.386819219E0,-6.155706406E0,-8.147286415E0,1.616091251E0
2.389192500E0,-5.839685440E0,-8.077857018E0,1.623273492E0
2.391565781E0,-5.530846596E0,-8.006033897E0,1.618485451E0
2.393938281E0,-5.236372471E0,-7.994063377E0,1.623273492E0
2.396310781E0,-4.941898346E0,-7.953364372E0,1.596938372E0
2.398684062E0,-4.719247341E0,-7.943787575E0,1.601726651E0
2.401057344E0,-4.568418980E0,-7.974910736E0,1.685520172E0
2.403429791E0,-4.434349060E0,-7.974910736E0,1.678337812E0
2.405802291E0,-4.338585377E0,-8.027581215E0,1.697490692E0
2.408175625E0,-4.319432735E0,-8.123345375E0,1.721431613E0
2.410548906E0,-4.240427494E0,-8.231079102E0,1.575391531E0
2.412921354E0,-4.211698055E0,-8.319661140E0,1.379075527E0
2.415293854E0,-4.218880653E0,-8.489642143E0,1.103754163E0
2.417667135E0,-4.178180695E0,-8.630893707E0,8.092800379E-1
2.420040416E0,-4.108751774E0,-8.791298866E0,4.693179429E-1
2.422412916E0,-4.096781254E0,-8.942126274E0,1.365381777E-1
2.424785416E0,-4.008199692E0,-9.021132469E0,-3.583693504E-2
2.427158698E0,-4.022564411E0,-9.124077797E0,-6.456610560E-2
2.429531979E0,-3.874130487E0,-9.109713554E0,-6.456610560E-2
2.431904479E0,-3.754425526E0,-9.210266113E0,-1.890592426E-1
2.434276979E0,-3.740061045E0,-9.277299881E0,-1.579359621E-1
2.436650260E0,-3.754425526E0,-9.428129196E0,-3.344282508E-2
2.439023541E0,-3.749637365E0,-9.535862923E0,-5.977791548E-2
2.441395989E0,-3.799913645E0,-9.655568123E0,1.204505563E-2
2.443768541E0,-3.787943125E0,-9.693874359E0,1.916024685E-1
2.446141823E0,-3.843007326E0,-9.804001808E0,1.939965487E-1
2.448515104E0,-3.713725805E0,-9.724997520E0,-3.344282508E-2
2.450887552E0,-3.629932165E0,-9.710632324E0,-1.842710376E-1
2.453260052E0,-3.500651121E0,-9.593320847E0,-2.249707282E-1
2.455633385E0,-3.270817518E0,-9.404188156E0,-2.417294085E-1
2.458006666E0,-3.218147516E0,-9.243782997E0,-1.962415427E-1
2.460379114E0,-3.072107315E0,-9.073801994E0,-1.699064523E-1
2.462751614E0,-3.134354115E0,-9.013949394E0,-5.020150542E-2
2.465124896E0,-3.055348873E0,-9.033102989E0,5.992701650E-2
2.467498177E0,-2.995496273E0,-9.052255630E0,4.077425599E-2
2.469870677E0,-2.906914473E0,-9.052255630E0,1.197794974E-1
2.472243177E0,-2.813544750E0,-9.080985069E0,1.389322579E-1
2.474616458E0,-2.693839788E0,-8.992403030E0,1.922732592E-2
2.476989739E0,-2.559770346E0,-8.867909431E0,-3.823103011E-2
2.479362239E0,-2.636381626E0,-8.961279869E0,-1.483595669E-1
2.481734739E0,-2.684263229E0,-8.987614632E0,-1.387831718E-1
2.484108021E0,-2.887761831E0,-9.042678833E0,4.788943231E-1
2.486481302E0,-3.421645880E0,-9.229417801E0,8.811029196E-1
2.488853750E0,-3.541350842E0,-9.267724037E0,7.230923176E-1
2.491226250E0,-3.285182238E0,-9.188718796E0,7.135159969E-1
2.493599583E0,-2.950008392E0,-8.987614632E0,7.877330780E-1
2.495972864E0,-2.780027390E0,-8.889456749E0,8.619501591E-1
2.498345312E0,-2.775238991E0,-8.949309349E0,7.997034788E-1
2.500717812E0,-3.069713354E0,-9.133654594E0,1.101359963E0
2.503091146E0,-3.469527721E0,-9.495162964E0,1.352740407E0
2.505464427E0,-3.433616161E0,-9.701056480E0,1.034325242E0
2.507836875E0,-2.897338390E0,-9.691479683E0,5.243822336E-1
2.510209375E0,-3.318699598E0,-9.765697479E0,9.105029702E-2
2.512582656E0,-3.522197962E0,-9.653174400E0,-2.010297477E-1
2.514955937E0,-3.536562443E0,-9.399398804E0,-4.021340609E-1
2.517328437E0,-3.617961884E0,-9.332365036E0,-4.428337216E-1
2.519700937E0,-3.505439281E0,-9.181536674E0,-5.816914439E-1
2.522074219E0,-3.206176996E0,-8.985220909E0,-7.205491662E-1
2.524447500E0,-3.026619434E0,-8.882274628E0,-7.564606667E-1
2.526819948E0,-2.751298189E0,-8.741022110E0,-7.804015875E-1
2.529192500E0,-2.696233749E0,-8.700322151E0,-5.984501243E-1
2.531565781E0,-2.665110588E0,-8.659623146E0,-4.404396117E-1
2.533939062E0,-2.753692389E0,-8.808056831E0,-1.675123572E-1
2.536311510E0,-2.715386868E0,-8.882274628E0,-6.935431063E-2
2.538684010E0,-2.727357388E0,-9.061831474E0,-1.292067766E-1
2.541057344E0,-2.698627949E0,-9.092955589E0,-2.752467990E-1
2.543430625E0,-2.674686909E0,-9.073801994E0,-4.021340609E-1
2.545803073E0,-2.674686909E0,-9.054649353E0,-5.745091438E-1
2.548175573E0,-2.770451069E0,-9.088167191E0,-6.942141056E-1
2.550548854E0,-2.926067352E0,-9.071408272E0,-7.923721075E-1
2.552922135E0,-3.062530994E0,-9.054649353E0,-8.905302286E-1
2.555294635E0,-3.184629917E0,-8.990008354E0,-8.857419491E-1
2.557667135E0,-3.232511997E0,-8.942126274E0,-8.618010283E-1
2.560040416E0,-3.292364597E0,-8.932550430E0,-7.899780273E-1
2.562413698E0,-3.337852240E0,-8.903820992E0,-7.181550860E-1
2.564786198E0,-3.349822760E0,-8.884668350E0,-6.415439248E-1
2.567158698E0,-3.402493000E0,-8.911004066E0,-6.128147244E-1
2.569531979E0,-3.433616161E0,-8.870304108E0,-6.056324244E-1
2.571905260E0,-3.433616161E0,-8.827210426E0,-6.535143852E-1
2.574277760E0,-3.483892202E0,-8.772145271E0,-6.822435856E-1
2.576650260E0,-3.498256922E0,-8.690746307E0,-7.157609463E-1
2.579023541E0,-3.507833242E0,-8.633288383E0,-8.211013079E-1
2.581396823E0,-3.541350842E0,-8.561465263E0,-9.264416695E-1
2.583769271E0,-3.548532963E0,-8.523159027E0,-1.005446911E0
2.586141771E0,-3.548532963E0,-8.465701103E0,-1.082058072E0
2.588515104E0,-3.538956642E0,-8.374725342E0,-1.129940033E0
2.590888385E0,-3.524591923E0,-8.322054863E0,-1.194580674E0
2.593260833E0,-3.455163240E0,-8.235867500E0,-1.271191835E0
2.595633333E0,-3.404886961E0,-8.161650658E0,-1.290344715E0
2.598006666E0,-3.376157999E0,-8.104191780E0,-1.335832477E0
2.600379948E0,-3.297152758E0,-8.080250740E0,-1.369349837E0
2.602752396E0,-3.203782797E0,-8.013216019E0,-1.343014836E0
2.605124896E0,-3.141536236E0,-7.984486580E0,-1.362167597E0
2.607498177E0,-3.043378353E0,-7.962940216E0,-1.390896678E0
2.609871458E0,-2.918884993E0,-7.970122337E0,-1.443567038E0
2.612243958E0,-2.830303431E0,-7.989275932E0,-1.436384559E0
2.614616458E0,-2.732145309E0,-7.965334892E0,-1.366955876E0
2.616989739E0,-2.638775587E0,-7.984486580E0,-1.381320357E0
2.619363021E0,-2.552587986E0,-8.039551735E0,-1.436384559E0
2.621735469E0,-2.499917746E0,-8.106586456E0,-1.457931638E0
2.624108021E0,-2.430489063E0,-8.154467583E0,-1.417231798E0
2.626481302E0,-2.308389664E0,-8.180803299E0,-1.422020078E0
2.628854583E0,-2.337119102E0,-8.243049622E0,-1.441172838E0
2.631227031E0,-2.286843061E0,-8.317267418E0,-1.402867198E0
2.633599531E0,-2.279660702E0,-8.374725342E0,-1.383714437E0
2.635972864E0,-2.265295982E0,-8.415425301E0,-1.395684958E0
2.638346146E0,-2.222202301E0,-8.489642143E0,-1.390896678E0
2.640718594E0,-2.159955740E0,-8.527947426E0,-1.486660719E0
2.643091094E0,-2.138408899E0,-8.559070587E0,-1.469902158E0
2.645464375E0,-2.150379419E0,-8.571041107E0,-1.534542680E0
2.647837656E0,-2.124044180E0,-8.618923187E0,-1.647065401E0
2.650210156E0,-2.131226540E0,-8.621317863E0,-1.776346684E0
2.652582656E0,-2.119256020E0,-8.630893707E0,-1.819440484E0
2.654955937E0,-2.145591259E0,-8.621317863E0,-1.869716525E0
2.657329219E0,-2.171926260E0,-8.618923187E0,-1.979845047E0
2.659701719E0,-2.198261499E0,-8.609347343E0,-1.960692286E0
2.662074219E0,-2.219808340E0,-8.578223228E0,-2.037303448E0
2.664447500E0,-2.248537540E0,-8.602164268E0,-2.008574247E0
2.666820781E0,-2.291631222E0,-8.604558945E0,-2.051667929E0
2.669193229E0,-2.322754622E0,-8.606952667E0,-2.121096849E0
2.671565781E0,-2.396971464E0,-8.650046349E0,-2.185737610E0
2.673939062E0,-2.399365425E0,-8.669199944E0,-2.236013651E0
2.676312344E0,-2.444853544E0,-8.666805267E0,-2.250378370E0
2.678684791E0,-2.490341187E0,-8.652440071E0,-2.315018892E0
2.681057291E0,-2.521464825E0,-8.664410591E0,-2.413177013E0
2.683430573E0,-2.586105347E0,-8.640469551E0,-2.453876734E0
2.685803854E0,-2.650746107E0,-8.669199944E0,-2.525699377E0
2.688176354E0,-2.763268471E0,-8.757781029E0,-2.523305416E0
2.690548854E0,-2.851850271E0,-8.779328346E0,-2.540064335E0
2.692922135E0,-2.971555233E0,-8.817633629E0,-2.516123295E0
2.695295416E0,-3.103230715E0,-8.930155754E0,-2.501758575E0
2.697667916E0,-3.184629917E0,-9.013949394E0,-2.482605696E0
2.700040416E0,-3.318699598E0,-9.049860954E0,-2.434723616E0
2.702413698E0,-3.428828001E0,-9.162384033E0,-2.420359135E0
2.704786979E0,-3.529380322E0,-9.234207153E0,-2.396418333E0
2.707159479E0,-3.610779524E0,-9.265330315E0,-2.341353893E0
2.709531979E0,-3.699361324E0,-9.339547157E0,-2.269531012E0
2.711905260E0,-3.821460247E0,-9.358699799E0,-2.245589972E0
2.714278541E0,-3.907647848E0,-9.418552399E0,-2.188131809E0
2.716650989E0,-4.001017570E0,-9.468828201E0,-2.118702888E0
2.719023489E0,-4.065658092E0,-9.476011276E0,-2.022938967E0
2.721396823E0,-4.144663334E0,-9.502346039E0,-1.955904126E0
2.723770104E0,-4.226062775E0,-9.511921883E0,-1.869716525E0
2.726142552E0,-4.266762733E0,-9.526287079E0,-1.788317204E0
2.728515052E0,-4.314644337E0,-9.507134438E0,-1.678188562E0
2.730888385E0,-4.362526417E0,-9.499952316E0,-1.592001081E0
2.733261666E0,-4.408014297E0,-9.461646080E0,-1.522572279E0
2.735634114E0,-4.439137459E0,-9.447280884E0,-1.479478478E0
2.738006614E0,-4.489413738E0,-9.432917595E0,-1.426808238E0
2.740379896E0,-4.530113220E0,-9.447280884E0,-1.426808238E0
2.742753177E0,-4.580389500E0,-9.442493439E0,-1.438778758E0
2.745125677E0,-4.587571621E0,-9.365881920E0,-1.412443757E0
2.747498177E0,-4.618694782E0,-9.308423996E0,-1.352591276E0
2.749871458E0,-4.637847900E0,-9.291665077E0,-1.240068555E0
2.752244739E0,-4.642635822E0,-9.222236633E0,-1.232886314E0
2.754617239E0,-4.659394741E0,-9.143231392E0,-1.185004354E0
2.756989739E0,-4.714458942E0,-9.140837669E0,-1.161063313E0
2.759363021E0,-4.752764225E0,-9.217448235E0,-1.151486993E0
2.761736302E0,-4.690517902E0,-9.183930397E0,-1.153880954E0
2.764108750E0,-4.690517902E0,-9.176748276E0,-1.235280395E0
2.766481250E0,-4.848528385E0,-9.267724037E0,-1.266403675E0
2.768854583E0,-4.831769943E0,-9.344335556E0,-1.352591276E0
2.771227864E0,-4.779099941E0,-9.241389275E0,-1.354985356E0
2.773600312E0,-4.817405224E0,-9.317999840E0,-1.450749278E0
2.775972812E0,-4.984992504E0,-9.538257599E0,-1.508207560E0
2.778346094E0,-4.836557865E0,-9.526287079E0,-1.460325599E0
2.780719375E0,-4.858104706E0,-9.521498680E0,-1.529754519E0
2.783091875E0,-4.872469425E0,-9.593320847E0,-1.659035802E0
2.785464375E0,-5.044844151E0,-9.839914322E0,-1.805075884E0
2.787837656E0,-4.939504147E0,-9.813578606E0,-1.939145327E0
2.790210937E0,-4.896410465E0,-9.765697479E0,-2.020544767E0
2.792583437E0,-4.901198864E0,-9.880613327E0,-2.147432089E0
2.794955937E0,-4.956262589E0,-1.011523533E1,-2.532881975E0
2.797329219E0,-5.032873631E0,-1.029958153E1,-3.184076786E0
2.799702500E0,-5.092726231E0,-1.017029953E1,-2.820173740E0
2.802075000E0,-4.982597828E0,-1.022775841E1,-2.971001863E0
2.804447500E0,-5.035268307E0,-1.029958153E1,-3.143377066E0
2.806820781E0,-4.953868866E0,-1.031633949E1,-3.215199947E0
2.809194062E0,-4.963445187E0,-1.034506798E1,-3.380392790E0
2.811566510E0,-4.910774708E0,-1.036661530E1,-3.622196674E0
2.813939010E0,-4.915563107E0,-1.054377937E1,-3.928641558E0
2.816312344E0,-4.872469425E0,-1.072094250E1,-4.354791164E0
2.818685625E0,-4.882045746E0,-1.106808662E1,-4.986833096E0
2.821058073E0,-5.143002987E0,-1.111596775E1,-4.443372726E0
2.823430573E0,-5.032873631E0,-1.116624451E1,-4.208751202E0
2.825803854E0,-4.843740463E0,-1.130749607E1,-4.529560566E0
2.828177135E0,-4.982597828E0,-1.124285507E1,-4.285362244E0
2.830549635E0,-4.975415707E0,-1.122130966E1,-3.887941837E0
2.832922135E0,-4.810222626E0,-1.115427399E1,-3.840059757E0
2.835295416E0,-4.724035263E0,-1.110399818E1,-3.940612078E0
2.837668698E0,-4.601936340E0,-1.108963299E1,-3.993282318E0
2.840041198E0,-4.513354778E0,-1.101541615E1,-3.976523399E0
2.842413698E0,-4.455896378E0,-1.093162346E1,-3.875971317E0
2.844786979E0,-4.360132217E0,-1.086219406E1,-3.789783716E0
2.847160260E0,-4.185362816E0,-1.083585930E1,-3.868788958E0
2.849532708E0,-3.905253887E0,-1.071136665E1,-4.144110203E0
2.851905260E0,-3.787943125E0,-1.040970898E1,-3.485733271E0
2.854278541E0,-4.187757492E0,-1.037140465E1,-3.167317867E0
2.856651823E0,-4.180574894E0,-1.028761005E1,-3.289417028E0
2.859024271E0,-3.972288609E0,-1.015114594E1,-3.483339071E0
2.861396771E0,-3.380945921E0,-1.004341221E1,-3.641349792E0
2.863770104E0,-3.833430767E0,-9.969195366E0,-3.366028309E0
2.866143385E0,-3.977076769E0,-9.866249084E0,-3.124224186E0
2.868515833E0,-3.862159967E0,-9.832731247E0,-2.997336864E0
2.870888333E0,-3.644297123E0,-9.751332283E0,-2.896785021E0
2.873261614E0,-3.040983915E0,-9.622051239E0,-2.834538221E0
2.875634896E0,-3.783154726E0,-9.657961845E0,-2.427541494E0
2.878007396E0,-3.914829969E0,-9.691479683E0,-2.204890490E0
2.880379896E0,-3.852583408E0,-9.736967087E0,-2.157008410E0
2.882753177E0,-3.711331844E0,-9.801608086E0,-2.094761848E0
2.885126458E0,-3.620356083E0,-9.911737442E0,-2.044485807E0
2.887498958E0,-3.596415043E0,-1.006735325E1,-2.020544767E0
2.889871458E0,-3.115201235E0,-1.018466377E1,-1.977450967E0
2.892244739E0,-3.450375080E0,-1.035464478E1,-1.577636480E0
2.894618021E0,-4.044111252E0,-1.051026154E1,-1.285556436E0
2.896990469E0,-4.434349060E0,-1.064911938E1,-1.105999112E0
2.899363021E0,-4.604330063E0,-1.075685310E1,-9.527767897E-1
2.901736302E0,-4.661788940E0,-1.090768242E1,-8.282836676E-1
2.904109583E0,-4.781493664E0,-1.110160446E1,-6.630908251E-1
2.906482031E0,-4.874863148E0,-1.136495399E1,-2.896113992E-1
2.908854531E0,-4.884439945E0,-1.164267063E1,1.683324575E-2
2.911227864E0,-4.843740463E0,-1.197305584E1,2.155434489E-1
2.913601146E0,-4.779099941E0,-1.229865360E1,3.615835011E-1
2.915973594E0,-4.726429462E0,-1.268649769E1,4.788943231E-1
2.918346094E0,-4.692911625E0,-1.315334606E1,8.882852793E-1
2.920719375E0,-4.716852665E0,-1.362259007E1,1.266552806E0
2.923092656E0,-4.783887863E0,-1.406310463E1,9.433494806E-1
2.925465156E0,-4.901198864E0,-1.446291828E1,7.637920380E-1
2.927837656E0,-5.080755711E0,-1.483400440E1,9.098321199E-1
2.930210937E0,-5.229190350E0,-1.522903061E1,1.192335725E0
2.932584219E0,-5.265101910E0,-1.558096218E1,1.467657089E0
2.934956719E0,-5.219613552E0,-1.580121899E1,1.678337812E0
2.937329219E0,-5.114273071E0,-1.594247150E1,1.908171177E0
2.939702500E0,-4.973021984E0,-1.597838306E1,2.018299818E0
2.942075781E0,-4.791070461E0,-1.596401787E1,2.130822420E0
2.944448281E0,-4.661788940E0,-1.585867786E1,2.236162663E0
2.946820781E0,-4.563630581E0,-1.577488422E1,2.322350264E0
2.949194062E0,-4.489413738E0,-1.549956322E1,2.413326025E0
2.951567344E0,-4.434349060E0,-1.512129498E1,2.444449425E0
2.953939791E0,-4.455896378E0,-1.469993401E1,2.415720224E0
2.956312344E0,-4.396043777E0,-1.416844463E1,2.317562342E0
2.958685625E0,-3.170265436E0,-1.353640175E1,1.991964817E0
2.961058906E0,-4.245215416E0,-1.309110069E1,2.082940578E0
2.963431354E0,-5.121455669E0,-1.264579678E1,2.054211378E0
2.965803854E0,-5.336924553E0,-1.214782524E1,1.855500937E0
2.968177187E0,-5.566758156E0,-1.152296543E1,1.814801455E0
2.970550469E0,-5.473388195E0,-1.083585930E1,1.738190293E0
2.972922916E0,-5.143002987E0,-1.024212265E1,1.642426252E0
2.975295416E0,-5.214825153E0,-9.693874359E0,1.738190293E0
2.977668698E0,-5.370441914E0,-9.234207153E0,1.874654055E0
2.980041979E0,-5.178914070E0,-8.779328346E0,1.965629816E0
2.982414479E0,-4.968233109E0,-8.345995903E0,2.104487181E0
2.984786979E0,-5.269889832E0,-8.020398140E0,2.327138424E0
2.987160260E0,-5.123849869E0,-7.670860291E0,2.444449425E0
2.989533541E0,-5.317771912E0,-7.409903526E0,2.602459908E0
2.991906041E0,-5.370441914E0,-7.129794121E0,2.683859348E0
2.994278541E0,-5.262707233E0,-6.943054199E0,2.683859348E0
2.996651823E0,-5.008932590E0,-6.715614319E0,2.674282789E0
2.999025104E0,-4.673759460E0,-6.646185875E0,2.612036228E0
3.001397552E0,-5.049633026E0,-6.622244835E0,2.782017231E0
3.003770104E0,-5.195672989E0,-6.691673279E0,2.784411430E0
3.006143385E0,-5.202854633E0,-6.794619560E0,2.712588549E0
3.008516666E0,-5.174125671E0,-6.938265800E0,2.635977268E0
3.010889114E0,-5.162155151E0,-7.117823601E0,2.506695986E0
3.013261614E0,-5.186096191E0,-7.330898285E0,2.346291304E0
3.015634948E0,-5.111879349E0,-7.546366692E0,2.176310301E0
3.018008229E0,-5.128637791E0,-7.764229774E0,2.080546618E0
3.020380677E0,-5.353683472E0,-8.041945457E0,2.051817179E0
3.022753177E0,-5.382412434E0,-8.336419106E0,2.049422979E0
3.025126458E0,-5.322559834E0,-8.571041107E0,2.104487181E0
3.027499739E0,-5.183702469E0,-8.820027351E0,2.149975300E0
3.029872239E0,-5.001750946E0,-9.057044029E0,2.228980541E0
3.032244739E0,-4.747976303E0,-9.260541916E0,2.305591822E0
3.034618021E0,-4.506172180E0,-9.562198639E0,2.432478905E0
3.036991302E0,-4.269156456E0,-9.760908127E0,2.497119427E0
3.039363802E0,-3.974682570E0,-9.856672287E0,2.420508623E0
3.041736302E0,-3.661055803E0,-9.909341812E0,2.317562342E0
3.044109583E0,-3.368975639E0,-9.985954285E0,2.183492422E0
3.046482864E0,-3.096048355E0,-1.007214165E1,2.027876377E0
3.048855364E0,-2.835091591E0,-1.010565948E1,1.869865656E0
3.051227812E0,-2.614834547E0,-1.016072369E1,1.697490692E0
3.053601146E0,-2.449641705E0,-1.022296906E1,1.498780370E0
3.055974427E0,-2.310784101E0,-1.024451637E1,1.247400045E0
3.058346875E0,-2.243749380E0,-1.025648689E1,1.027142882E0
3.060719375E0,-2.191079140E0,-1.031155109E1,8.284327984E-1
3.063092708E0,-2.193473101E0,-1.033549213E1,5.818405151E-1
3.065465989E0,-2.226990461E0,-1.033549213E1,3.304601610E-1
3.067838437E0,-2.310784101E0,-1.032112694E1,1.221735775E-1
3.070210937E0,-2.373030424E0,-1.031633949E1,-9.501829743E-3
3.072584219E0,-2.475976706E0,-1.024212265E1,-1.818769425E-1
3.074957500E0,-2.550193787E0,-1.015832901E1,-3.255228698E-1
3.077330000E0,-2.622016668E0,-1.012481117E1,-3.997399211E-1
3.079702500E0,-2.708204269E0,-1.006495953E1,-4.619865119E-1
3.082075781E0,-2.830303431E0,-1.001947117E1,-4.763510823E-1
3.084449062E0,-3.038589954E0,-1.004341221E1,-3.949517608E-1
3.086821562E0,-3.194206476E0,-1.002186489E1,-3.135523796E-1
3.089194062E0,-3.342640638E0,-9.997923851E0,-2.465176135E-1
3.091567344E0,-3.486286640E0,-9.962013245E0,-2.130002379E-1
3.093940625E0,-3.579656363E0,-9.904554367E0,-1.363890767E-1
3.096313125E0,-3.661055803E0,-9.787242889E0,-8.850710094E-2
3.098685625E0,-3.752031565E0,-9.619657516E0,-5.498971045E-2
3.101058906E0,-3.785548687E0,-9.471221924E0,4.795652628E-2
3.103432187E0,-3.823854208E0,-9.337153435E0,3.639775813E-1
3.105804635E0,-3.919618368E0,-9.195900917E0,6.632399559E-1
3.108177135E0,-3.996229410E0,-9.066619873E0,8.571618795E-1
3.110550469E0,-4.070446491E0,-8.944520950E0,9.098321199E-1
3.112923750E0,-4.091993332E0,-8.827210426E0,7.949154377E-1
3.115296198E0,-4.091993332E0,-8.724263191E0,6.488753557E-1
3.117668698E0,-4.036929131E0,-8.357966423E0,9.194085598E-1
3.120041979E0,-4.259580135E0,-7.704377174E0,2.487543344E0
3.122415260E0,-4.747976303E0,-7.646919250E0,2.681465387E0
3.124787760E0,-4.905986786E0,-7.455390930E0,2.705406189E0
3.127160260E0,-4.795858383E0,-7.496090889E0,1.611302972E0
3.129533541E0,-4.424772739E0,-7.730712891E0,1.102030873E-1
3.131906823E0,-4.003411770E0,-8.085039139E0,-1.328650236E0
3.134279323E0,-4.640241623E0,-8.087433815E0,-8.881360292E-1
3.136651823E0,-4.965839386E0,-7.857600212E0,3.137014806E-1
3.139025104E0,-5.025691986E0,-7.795353889E0,7.661862373E-1
3.141398385E0,-4.903592587E0,-7.788170815E0,1.051083922E0
3.143770885E0,-4.671365261E0,-7.778594017E0,1.096571803E0
3.146143385E0,-4.676153183E0,-7.713953972E0,1.405410528E0
3.148516666E0,-4.460684299E0,-7.869570732E0,1.359922647E0
3.150889948E0,-4.159028053E0,-8.120950699E0,-3.590402603E-1
3.153262396E0,-4.702488422E0,-8.006033897E0,5.435349941E-1
3.155634896E0,-5.152578831E0,-7.948575020E0,1.101359963E0
3.158008229E0,-5.538028717E0,-7.776200294E0,1.702278733E0
3.160381510E0,-5.703221798E0,-7.575096130E0,2.159551859E0
3.162753958E0,-5.597881317E0,-7.366809845E0,2.262497902E0
3.165126458E0,-5.396776676E0,-7.251893044E0,2.080546618E0
3.167499791E0,-5.140608311E0,-7.163311005E0,1.798042774E0
3.169873073E0,-5.056814671E0,-7.072335243E0,1.534691930E0
3.172245521E0,-5.090332508E0,-7.089094162E0,1.252188325E0
3.174618021E0,-5.210037231E0,-7.120217323E0,9.457436800E-1
3.176991302E0,-5.456629276E0,-7.125005722E0,8.930734396E-1
3.179364583E0,-5.573940277E0,-7.062759399E0,8.619501591E-1
3.181737083E0,-5.688857079E0,-6.995724678E0,1.029536963E0
3.184109583E0,-5.844473362E0,-7.031636238E0,1.146847844E0
3.186482864E0,-5.885173321E0,-7.048394203E0,1.326405287E0
3.188856146E0,-5.722374439E0,-6.945447922E0,1.503568649E0
3.191228646E0,-5.621822357E0,-7.031636238E0,9.074380398E-1
3.193601146E0,-5.751103878E0,-7.091487885E0,2.155434489E-1
3.195974427E0,-5.511693954E0,-7.156128883E0,-5.864796638E-1
3.198347708E0,-5.770256519E0,-7.352444649E0,-9.025007486E-1
3.200720156E0,-5.688857079E0,-7.474543571E0,-8.306777477E-1
3.203092708E0,-5.672098160E0,-7.532002449E0,-6.606966853E-1
3.205465989E0,-5.772650242E0,-7.627766609E0,-2.345471233E-1
3.207839271E0,-5.748709679E0,-7.654101372E0,1.006267071E-1
3.210211719E0,-5.772650242E0,-7.776200294E0,3.304601610E-1
3.212584219E0,-5.815744400E0,-7.809718132E0,3.663716614E-1
3.214957552E0,-5.770256519E0,-7.713953972E0,2.801841199E-1
3.217330833E0,-5.782226562E0,-7.725924492E0,2.562431395E-1
3.219703281E0,-5.806167603E0,-7.685224533E0,2.370903492E-1
3.222075781E0,-5.801379681E0,-7.649312973E0,2.921546400E-1
3.224449062E0,-5.851655960E0,-7.615796089E0,2.801841199E-1
3.226822344E0,-5.844473362E0,-7.735501289E0,3.208837807E-1
3.229194844E0,-5.858838081E0,-7.701983452E0,2.131493390E-1
3.231567344E0,-5.832502842E0,-7.601431847E0,1.556909978E-1
3.233940625E0,-5.925872803E0,-7.512849808E0,2.562431395E-1
3.236313906E0,-6.033607483E0,-7.438632011E0,1.820260584E-1
3.238686406E0,-5.983331203E0,-7.426662445E0,2.162146568E-2
3.241058906E0,-5.906720161E0,-7.436238289E0,1.700555682E-1
3.243432187E0,-5.995301723E0,-7.496090889E0,2.610313594E-1
3.245805469E0,-6.081489086E0,-7.534396172E0,2.586372197E-1
3.248177969E0,-6.057548523E0,-7.393144608E0,1.987847388E-1
3.250550469E0,-6.002483845E0,-7.292592049E0,2.442726195E-1
3.252923750E0,-6.036001205E0,-7.330898285E0,1.604791880E-1
3.255297031E0,-6.086277485E0,-7.316533089E0,3.711598814E-1
3.257669479E0,-6.141341686E0,-7.352444649E0,6.560575962E-1
3.260041979E0,-6.031213284E0,-7.369203568E0,7.039395571E-1
3.262415312E0,-5.798985958E0,-7.304562569E0,7.159100771E-1
3.264788594E0,-5.772650242E0,-7.268651009E0,8.691323996E-1
3.267161041E0,-5.770256519E0,-7.417085648E0,5.531113148E-1
3.269533541E0,-6.036001205E0,-7.611007690E0,5.052293539E-1
3.271906875E0,-6.182041168E0,-7.575096130E0,5.124117136E-1
3.274280156E0,-6.098248005E0,-7.637342453E0,4.094654024E-1
3.276652604E0,-6.062336445E0,-7.723530769E0,7.907980680E-2
3.279025104E0,-5.973754883E0,-7.881541252E0,-4.062512517E-2
3.281398385E0,-5.846867561E0,-7.812111855E0,4.908647835E-1
3.283771666E0,-5.753497601E0,-7.754653931E0,5.578995943E-1
3.286144166E0,-5.681674957E0,-7.699589729E0,6.129639149E-1
3.288516666E0,-5.617034435E0,-7.780988693E0,2.035729587E-1
3.290889948E0,-5.411141872E0,-7.785777092E0,8.147391677E-2
3.293263229E0,-5.380018234E0,-7.859993935E0,7.256865501E-3
3.295635729E0,-5.291436672E0,-7.809718132E0,4.358005822E-1
3.298008229E0,-5.219613552E0,-7.867176056E0,4.956530035E-1
3.300381510E0,-5.224401951E0,-7.989275932E0,2.131493390E-1
3.302754791E0,-5.133426189E0,-8.018004417E0,-3.135523796E-1
3.305127239E0,-5.032873631E0,-7.893511772E0,2.346962392E-1
3.307499791E0,-5.159761429E0,-8.020398140E0,-1.986356378E-1
3.309873073E0,-5.233978271E0,-8.029974937E0,-3.063700795E-1
3.312246354E0,-5.233978271E0,-8.049127579E0,-8.611299098E-2
3.314618802E0,-5.116667271E0,-8.099404335E0,-7.653659582E-2
3.316991302E0,-5.164549351E0,-8.166438103E0,-2.273648232E-1
3.319364635E0,-5.092726231E0,-8.080250740E0,2.299080193E-1
3.321737916E0,-5.020903111E0,-8.075463295E0,2.682135999E-1
3.324110364E0,-4.913169384E0,-8.281355858E0,-2.872172892E-1
3.326482864E0,-4.776705265E0,-8.372330666E0,-2.704586089E-1
3.328856146E0,-4.577995300E0,-8.518370628E0,-1.060511231E0
3.331229427E0,-4.642635822E0,-8.307690620E0,5.992701650E-2
3.333601927E0,-4.786281586E0,-8.125739098E0,1.067842603E0
3.335974427E0,-4.709671021E0,-8.053915977E0,9.529259205E-1
3.338347708E0,-4.886833668E0,-8.156862259E0,1.820260584E-1
3.340720989E0,-5.071179867E0,-8.293326378E0,-6.439380050E-1
3.343093489E0,-5.111879349E0,-8.391484261E0,-6.870317459E-1
3.345465989E0,-5.279466152E0,-8.506400108E0,-7.301255465E-1
3.347839271E0,-5.245948792E0,-8.451336861E0,-2.273648232E-1
3.350212552E0,-5.281860352E0,-8.441760063E0,-9.808349609E-2
3.352585052E0,-5.143002987E0,-8.369936943E0,-2.560940087E-1
3.354957552E0,-5.054420948E0,-8.367543221E0,-4.380455017E-1
3.357330833E0,-5.061603069E0,-8.319661140E0,-2.082120329E-1
3.359704114E0,-5.090332508E0,-8.310084343E0,-1.723005474E-1
3.362076562E0,-5.025691986E0,-8.298113823E0,-1.507536620E-1
3.364449062E0,-4.977809906E0,-8.288537025E0,-8.611299098E-2
3.366822396E0,-5.176519871E0,-8.345995903E0,-2.632763088E-1
3.369195677E0,-5.128637791E0,-8.417819023E0,-2.704586089E-1
3.371568125E0,-5.164549351E0,-8.439366341E0,-6.696021557E-2
3.373940625E0,-5.154973507E0,-8.482459068E0,-3.583693504E-2
3.376313958E0,-5.351289272E0,-8.494429588E0,7.907980680E-2
3.378687239E0,-5.336924553E0,-8.499218941E0,2.394844294E-1
3.381059687E0,-5.296224594E0,-8.496824265E0,3.879185617E-1
3.383432187E0,-5.286648273E0,-8.420212746E0,5.363526344E-1
3.385805469E0,-5.061603069E0,-8.053915977E0,1.125301003E0
3.388178750E0,-4.367314816E0,-7.213587761E0,2.427690744E0
3.390551250E0,-3.663449764E0,-6.404381752E0,3.311113358E0
3.392923750E0,-4.261974335E0,-6.713220596E0,9.625022411E-1
3.395297031E0,-6.239499569E0,-7.560731888E0,-1.410049558E0
3.397670312E0,-6.979276180E0,-8.472883224E0,-2.267137051E0
3.400042812E0,-7.041522980E0,-9.102531433E0,-8.857419491E-1
3.402415312E0,-6.672832012E0,-9.303635597E0,7.733684778E-1
3.404788594E0,-6.486091614E0,-9.550228119E0,1.228247285E0
3.407161875E0,-6.541156292E0,-9.557410240E0,6.057815552E-1
3.409534323E0,-6.268229008E0,-9.258148193E0,8.643442392E-1
3.411906875E0,-5.954602242E0,-8.927762032E0,1.192335725E0
3.414280156E0,-5.684068680E0,-8.788904190E0,1.225853205E0
3.416653437E0,-5.573940277E0,-8.659623146E0,1.182759404E0
3.419025885E0,-5.506905556E0,-8.585406303E0,9.792610407E-1
3.421398385E0,-5.451841354E0,-8.537524223E0,7.805507183E-1
3.423771719E0,-5.564363956E0,-8.688351631E0,6.488753557E-1
3.426145000E0,-5.502117157E0,-8.673987389E0,3.424306810E-1
3.428517448E0,-5.523664474E0,-8.678775787E0,2.825782001E-1
3.430889948E0,-5.708009720E0,-8.836786270E0,1.173853874E-1
3.433263229E0,-5.949813843E0,-8.982826233E0,6.950342655E-2
3.435636510E0,-6.043183804E0,-8.975644112E0,2.346962392E-1
3.438009010E0,-6.124583244E0,-9.078590393E0,2.059670687E-1
3.440381510E0,-6.146129608E0,-9.126472473E0,3.017310202E-1
3.442754791E0,-6.196405888E0,-9.183930397E0,3.376425207E-1
3.445128073E0,-6.330475807E0,-9.385035515E0,1.485086679E-1
3.447500573E0,-6.294564247E0,-9.428129196E0,2.969428003E-1
3.449873073E0,-6.375963211E0,-9.495162964E0,2.801841199E-1
3.452246354E0,-6.375963211E0,-9.373064041E0,7.685803175E-1
3.454619635E0,-6.486091614E0,-9.473616600E0,6.895749569E-1
3.456992135E0,-6.632131577E0,-9.602898598E0,5.243822336E-1
3.459364635E0,-6.569885254E0,-9.617261887E0,1.772378683E-1
3.461737916E0,-7.039128780E0,-9.942860603E0,-1.651182622E-1
3.464111198E0,-7.264174461E0,-1.003623009E1,9.823262691E-2
3.466483646E0,-7.087010860E0,-9.894978523E0,4.405887425E-1
3.468856146E0,-7.151651382E0,-9.875824928E0,3.639775813E-1
3.471229479E0,-7.254597664E0,-9.823155403E0,4.381946027E-1
3.473602760E0,-7.395849228E0,-9.878219604E0,2.323021591E-1
3.475975208E0,-7.503583908E0,-9.935678482E0,-6.696021557E-2
3.478347708E0,-7.623288631E0,-9.914131165E0,-2.345471233E-1
3.480721041E0,-7.750176430E0,-9.954830170E0,-4.308632016E-1
3.483094323E0,-7.872275352E0,-1.007692909E1,-9.336239100E-1
3.485466771E0,-7.482037067E0,-9.883007050E0,-9.408062696E-1
3.487839271E0,-7.905792236E0,-9.832731247E0,-3.823103011E-2
3.490212552E0,-7.762146950E0,-9.571775436E0,1.676614583E-1
3.492585833E0,-7.678353310E0,-9.423339844E0,8.386802673E-2
3.494958333E0,-7.778905392E0,-9.476011276E0,-3.518579602E-1
3.497330833E0,-7.790875912E0,-9.468828201E0,-5.864796638E-1
3.499704114E0,-7.795663834E0,-9.428129196E0,-7.277314663E-1
3.502077396E0,-7.735811234E0,-9.368276596E0,-9.096829891E-1
3.504449896E0,-7.606530190E0,-9.270117760E0,-7.875839472E-1
3.506822396E0,-7.520342827E0,-9.195900917E0,-7.660369873E-1
3.509195677E0,-7.197139263E0,-9.090560913E0,-1.345408797E0
3.511568958E0,-7.462884426E0,-9.145625114E0,-1.141910553E0
3.513941458E0,-7.563436508E0,-9.042678833E0,-5.385977030E-1
3.516313958E0,-7.415002346E0,-8.896638870E0,-7.013963461E-1
3.518687239E0,-7.230656624E0,-8.760174751E0,-1.010235190E0
3.521060521E0,-7.158833981E0,-8.666805267E0,-1.077269912E0
3.523432969E0,-7.110951900E0,-8.616528511E0,-9.072889090E-1
3.525805469E0,-7.058281898E0,-8.556676865E0,-7.804015875E-1
3.528178802E0,-6.948153019E0,-8.422607422E0,-7.037904859E-1
3.530552083E0,-6.912241936E0,-8.334025383E0,-6.104206443E-1
3.532924531E0,-6.835630417E0,-8.231079102E0,-6.295734048E-1
3.535297031E0,-6.782960415E0,-8.159256935E0,-5.697209835E-1
3.537670364E0,-6.622555733E0,-8.097009659E0,-5.816914439E-1
3.540043646E0,-6.533973694E0,-8.061098099E0,-5.745091438E-1
3.542416094E0,-6.802112579E0,-8.077857018E0,1.652673781E-1
3.544788594E0,-6.799718857E0,-7.934210777E0,1.485086679E-1
3.547161875E0,-6.845206738E0,-7.862387657E0,6.471520662E-2
3.549535156E0,-6.988852978E0,-7.816900253E0,1.461145878E-1
3.551907656E0,-6.993640900E0,-7.785777092E0,2.921546400E-1
3.554280156E0,-7.058281898E0,-7.735501289E0,4.860766232E-1
3.556653437E0,-7.022370338E0,-7.740288734E0,7.997034788E-1
3.559026719E0,-6.993640900E0,-7.769018173E0,1.127695203E0
3.561399219E0,-6.905059338E0,-7.795353889E0,1.194729924E0
3.563771719E0,-6.924211979E0,-7.833659172E0,1.058266282E0
3.566145000E0,-6.931394100E0,-7.891117096E0,1.065448523E0
3.568518281E0,-6.996034622E0,-7.972516060E0,1.209094405E0
3.570890729E0,-7.082222939E0,-8.144891739E0,1.266552806E0
3.573263281E0,-7.142074585E0,-8.338813782E0,1.383863688E0
3.575636562E0,-7.211503983E0,-8.571041107E0,1.707067013E0
3.578009844E0,-7.201927185E0,-8.891850471E0,2.152369261E0
3.580382291E0,-7.139680862E0,-9.116896629E0,2.312773943E0
3.582754791E0,-7.259385586E0,-9.313212395E0,2.070970058E0
3.585128125E0,-7.335996628E0,-9.387429237E0,1.845924854E0
3.587501406E0,-7.412608147E0,-9.432917595E0,1.910565376E0
3.589873854E0,-7.486825466E0,-9.504739761E0,2.164339781E0
3.592246354E0,-7.520342827E0,-9.624444962E0,2.511484385E0
3.594619635E0,-7.573012829E0,-9.842308044E0,2.693435669E0
3.596992916E0,-7.663988590E0,-1.009368801E1,2.635977268E0
3.599365416E0,-7.774117470E0,-1.035464478E1,2.734135389E0
3.601737916E0,-7.912974834E0,-1.065869522E1,2.844264030E0
3.604111198E0,-8.054226875E0,-1.082388783E1,2.760470629E0
3.606484479E0,-8.147596359E0,-1.082628250E1,2.786805630E0
3.608856979E0,-8.188296318E0,-1.080712891E1,2.985515833E0
3.611229479E0,-8.205055237E0,-1.085980034E1,3.708533525E0
3.613602760E0,-8.202660561E0,-1.093162346E1,4.443521976E0
3.615976041E0,-8.205055237E0,-1.097710991E1,4.757149220E0
3.618348489E0,-8.363065720E0,-1.109202766E1,4.982193947E0
3.620721041E0,-8.420523643E0,-1.113990879E1,5.214421749E0
3.623094323E0,-8.475587845E0,-1.107526875E1,5.238362312E0
3.625467604E0,-8.444464684E0,-1.091725826E1,5.329338551E0
3.627840052E0,-8.415736198E0,-1.092444038E1,5.599871635E0
3.630212552E0,-8.355883598E0,-1.100105095E1,6.045174122E0
3.632585885E0,-8.272089958E0,-1.111357403E1,6.480899811E0
3.634959166E0,-8.121261597E0,-1.120215607E1,6.583846092E0
3.637331614E0,-8.054226875E0,-1.115188026E1,6.456959248E0
3.639704114E0,-7.762146950E0,-1.117582130E1,6.591028690E0
3.642077448E0,-7.652018070E0,-1.108245087E1,5.997292042E0
3.644450729E0,-7.383878708E0,-1.109681511E1,6.121785164E0
3.646823177E0,-7.051099300E0,-1.108963299E1,6.538358212E0
3.649195677E0,-6.677619934E0,-1.107048035E1,6.765797615E0
3.651568958E0,-6.356810570E0,-1.105132866E1,6.765797615E0
3.653942239E0,-6.081489086E0,-1.102259827E1,6.523993492E0
3.656314739E0,-5.856443882E0,-1.097232246E1,6.016444683E0
3.658687239E0,-5.638580799E0,-1.091725826E1,5.372432232E0
3.661060521E0,-5.432688236E0,-1.088374138E1,4.568015099E0
3.663433802E0,-5.193278790E0,-1.083585930E1,3.773174286E0
3.665806302E0,-4.965839386E0,-1.084304142E1,3.014245033E0
3.668178802E0,-4.745582104E0,-1.089571095E1,2.379808664E0
3.670552083E0,-4.599542141E0,-1.103696346E1,1.817195415E0
3.672925364E0,-4.472654819E0,-1.113990879E1,1.271340966E0
3.675297812E0,-4.259580135E0,-1.136256027E1,8.858911991E-1
3.677670364E0,-4.242821693E0,-1.157563496E1,5.818405151E-1
3.680043646E0,-4.278733253E0,-1.182701588E1,3.472188413E-1
3.682416927E0,-4.159028053E0,-1.208797264E1,1.916024685E-1
3.684789375E0,-4.068052292E0,-1.233217049E1,1.365381777E-1
3.687161875E0,-4.032140732E0,-1.254763889E1,1.652673781E-1
3.689535208E0,-3.974682570E0,-1.273677349E1,2.059670687E-1
3.691908489E0,-4.015382290E0,-1.287084293E1,2.993369401E-1
3.694280937E0,-3.859765768E0,-1.298336506E1,4.046772420E-1
3.696653437E0,-3.833430767E0,-1.305279446E1,5.578995943E-1
3.699026719E0,-3.756819487E0,-1.308391762E1,7.374570370E-1
3.701400000E0,-3.673026323E0,-1.305279446E1,9.529259205E-1
3.703772500E0,-3.701755285E0,-1.301448917E1,1.108542323E0
3.706145000E0,-3.797519207E0,-1.292111969E1,1.245005846E0
3.708518281E0,-3.962712049E0,-1.281099033E1,1.304858446E0
3.710891562E0,-4.147057533E0,-1.261227989E1,1.290493727E0
3.713264062E0,-4.336191177E0,-1.242793465E1,1.278523326E0
3.715636562E0,-4.546871662E0,-1.220767689E1,1.288099766E0
3.718009844E0,-4.795858383E0,-1.196826744E1,1.268946886E0
3.720383125E0,-5.073573589E0,-1.167618752E1,1.314434767E0
3.722755573E0,-5.358471394E0,-1.138889503E1,1.312040687E0
3.725128125E0,-5.676886559E0,-1.105372238E1,1.379075527E0
3.727501406E0,-5.985725403E0,-1.070657730E1,1.446110249E0
3.729874687E0,-6.268229008E0,-1.031873322E1,1.517933130E0
3.732247135E0,-6.591432095E0,-9.933282852E0,1.625667691E0
3.734619635E0,-6.871541977E0,-9.516710281E0,1.721431613E0
3.736992969E0,-7.146863461E0,-9.119290352E0,1.824377775E0
3.739366250E0,-7.388667107E0,-8.748204231E0,1.984782457E0
3.741738698E0,-7.589771271E0,-8.360360146E0,2.164339781E0
3.744111198E0,-7.766934872E0,-7.984486580E0,2.375020504E0
3.746484479E0,-7.905792236E0,-7.658889771E0,2.597671747E0
3.748857760E0,-8.003951073E0,-7.321321487E0,2.798775911E0
3.751230260E0,-8.102108955E0,-7.031636238E0,2.966362953E0
3.753602760E0,-8.176325798E0,-6.811378479E0,3.136343956E0
3.755976041E0,-8.221814156E0,-6.610274315E0,3.270413637E0
3.758349323E0,-8.243360519E0,-6.442687035E0,3.387724161E0
3.760721823E0,-8.207448959E0,-6.325376511E0,3.478699923E0
3.763094323E0,-8.135625839E0,-6.220036507E0,3.481094360E0
3.765467604E0,-8.003951073E0,-6.205671310E0,3.440394640E0
3.767840885E0,-7.838757992E0,-6.212854385E0,3.318295479E0
3.770213385E0,-7.695111752E0,-6.344529152E0,3.157890797E0
3.772585885E0,-7.304873943E0,-6.433111191E0,2.894540071E0
3.774959166E0,-7.079828262E0,-6.519298553E0,2.619218588E0
3.777332448E0,-7.015187740E0,-6.698856354E0,2.470784426E0
3.779704896E0,-6.617767334E0,-7.022059441E0,2.068576097E0
3.782077448E0,-6.306534767E0,-7.242316246E0,1.489204049E0
3.784450729E0,-6.507638931E0,-7.321321487E0,1.994358778E0
3.786824010E0,-6.088671684E0,-7.484120369E0,2.128428221E0
3.789196458E0,-5.717586517E0,-7.625371933E0,1.891412497E0
3.791568958E0,-5.430294514E0,-7.769018173E0,1.539479971E0
3.793942291E0,-5.159761429E0,-7.907876015E0,1.221064925E0
3.796315573E0,-4.910774708E0,-8.039551735E0,8.930734396E-1
3.798688021E0,-4.759946823E0,-8.255020142E0,6.009933949E-1
3.801060521E0,-4.410408497E0,-8.312478065E0,2.562431395E-1
3.803433802E0,-4.178180695E0,-8.362754822E0,-5.020150542E-2
3.805807083E0,-4.041717052E0,-8.477671623E0,-2.441235185E-1
3.808179583E0,-3.565291882E0,-8.575829506E0,-7.995544672E-1
3.810552083E0,-3.194206476E0,-8.683564186E0,-1.611153841E0
3.812925364E0,-3.400099039E0,-8.717081070E0,-1.371744037E0
3.815298646E0,-3.505439281E0,-8.779328346E0,-9.815059900E-1
3.817671146E0,-3.716120005E0,-8.798480034E0,-7.253373861E-1
3.820043646E0,-3.627538204E0,-8.812845230E0,-6.056324244E-1
3.822416927E0,-3.526986122E0,-8.899033546E0,-6.726672053E-1
3.824790208E0,-3.471921682E0,-8.985220909E0,-7.612488270E-1
3.827162656E0,-3.445586681E0,-9.066619873E0,-7.444901466E-1
3.829535208E0,-3.354610920E0,-9.114501953E0,-8.211013079E-1
3.831908489E0,-3.337852240E0,-9.155201912E0,-8.546186686E-1
3.834281771E0,-3.335458279E0,-9.207871437E0,-8.761656284E-1
3.836654219E0,-3.340246439E0,-9.231813431E0,-8.905302286E-1
3.839026719E0,-3.622750044E0,-9.377853394E0,-8.282836676E-1
3.841400052E0,-4.070446491E0,-9.650780678E0,-5.218389630E-1
3.843773333E0,-3.531774282E0,-9.373064041E0,-9.312298298E-1
3.846145781E0,-3.409675360E0,-9.277299881E0,-8.761656284E-1
3.848518281E0,-3.402493000E0,-9.203083992E0,-7.947661877E-1
3.850891562E0,-3.335458279E0,-9.100136757E0,-7.708252668E-1
3.853264844E0,-3.699361324E0,-9.088167191E0,-6.870317459E-1
3.855637344E0,-3.993835449E0,-9.042678833E0,-5.481740832E-1
3.858009844E0,-4.084811211E0,-8.975644112E0,-4.691687822E-1
3.860383125E0,-4.099175453E0,-8.870304108E0,-3.710107505E-1
3.862756406E0,-4.120722294E0,-8.800874710E0,-2.608821988E-1
3.865128906E0,-4.103963852E0,-8.657229424E0,-1.603300571E-1
3.867501406E0,-4.111145973E0,-8.542311668E0,-7.414251566E-2
3.869874687E0,-4.173392773E0,-8.415425301E0,-9.501829743E-3
3.872247969E0,-4.178180695E0,-8.310084343E0,7.907980680E-2
3.874620469E0,-4.228456974E0,-8.228685379E0,1.054148972E-1
3.876992969E0,-4.795858383E0,-8.480065346E0,2.634254396E-1
3.879366250E0,-4.360132217E0,-8.147286415E0,7.429161668E-2
3.881739531E0,-4.075234890E0,-7.831264496E0,-3.583693504E-2
3.884111979E0,-3.900465488E0,-7.656495094E0,-9.808349609E-2
3.886484479E0,-3.510227442E0,-7.452997208E0,-1.411772668E-1
3.888857812E0,-4.261974335E0,-7.484120369E0,-1.100539714E-1
3.891231094E0,-4.403226376E0,-7.445815086E0,-1.603300571E-1
3.893603541E0,-4.362526417E0,-7.412297249E0,-2.489117086E-1
3.895976041E0,-4.228456974E0,-7.359627724E0,-3.231287599E-1
3.898349323E0,-4.063264370E0,-7.340474129E0,-3.374933600E-1
3.900722604E0,-3.922012568E0,-7.316533089E0,-3.973458409E-1
3.903095104E0,-3.809489727E0,-7.321321487E0,-4.212868214E-1
3.905467604E0,-3.749637365E0,-7.294986725E0,-3.997399211E-1
3.907840885E0,-4.080022812E0,-7.639737129E0,-4.476219118E-1
3.910214166E0,-3.783154726E0,-7.551155090E0,-4.595924020E-1
3.912586666E0,-3.495862722E0,-7.376385689E0,-4.212868214E-1
3.914959166E0,-3.273211718E0,-7.273439407E0,-3.398874700E-1
3.917332448E0,-3.289970160E0,-7.278227806E0,-2.704586089E-1
3.919705729E0,-3.316305637E0,-7.328503609E0,-1.411772668E-1
3.922078229E0,-3.275605679E0,-7.323716164E0,-5.020150542E-2
3.924450729E0,-3.306729078E0,-7.373991966E0,3.838014603E-2
3.926824010E0,-3.270817518E0,-7.366809845E0,1.293559074E-1
3.929197291E0,-3.270817518E0,-7.402721405E0,1.628732681E-1
3.931569739E0,-3.280394077E0,-7.402721405E0,2.346962392E-1
3.933942239E0,-3.304335117E0,-7.429056168E0,2.490608394E-1
3.936315573E0,-3.294758558E0,-7.407509804E0,2.179375589E-1
3.938688854E0,-3.289970160E0,-7.407509804E0,1.939965487E-1
3.941061302E0,-3.249270678E0,-7.371598244E0,1.149913073E-1
3.943433802E0,-2.547799826E0,-7.239922523E0,-4.062512517E-2
3.945807083E0,-3.218147516E0,-7.280621529E0,7.456541061E-5
3.948180364E0,-3.737666845E0,-7.309350967E0,-8.371889591E-2
3.950552864E0,-3.771184206E0,-7.323716164E0,-2.225766182E-1
3.952925364E0,-3.617961884E0,-7.261468887E0,-3.470697403E-1
3.955298646E0,-3.426434040E0,-7.213587761E0,-4.835333824E-1
3.957671927E0,-3.304335117E0,-7.158522606E0,-5.936619043E-1
3.960044427E0,-3.172659636E0,-7.091487885E0,-6.654849052E-1
3.962416927E0,-3.119989395E0,-7.038818359E0,-7.684311867E-1
3.964790208E0,-3.029013634E0,-6.995724678E0,-8.187072277E-1
3.967163489E0,-2.938037872E0,-6.974177361E0,-8.641951084E-1
3.969535989E0,-2.882973433E0,-6.959813118E0,-8.881360292E-1
3.971908489E0,-2.815938711E0,-6.955024719E0,-9.240475893E-1
3.974281771E0,-2.770451069E0,-6.971783638E0,-9.336239100E-1
3.976655052E0,-2.696233749E0,-6.955024719E0,-9.934763908E-1
3.979027500E0,-2.708204269E0,-7.000512123E0,-1.029387832E0
3.981400052E0,-2.710598469E0,-7.024453163E0,-1.050934792E0
3.983773333E0,-2.710598469E0,-7.093882561E0,-1.062905312E0
3.986146614E0,-2.715386868E0,-7.168099403E0,-1.072481751E0
3.988519062E0,-2.720174789E0,-7.225558281E0,-1.055722952E0
3.990891562E0,-2.693839788E0,-7.280621529E0,-1.050934792E0
3.993264896E0,-2.691445827E0,-7.347657204E0,-1.060511231E0
3.995638177E0,-2.689051628E0,-7.419480324E0,-1.089240432E0
3.998010625E0,-2.669898748E0,-7.476938248E0,-1.129940033E0
4.000383125E0,-2.643563747E0,-7.534396172E0,-1.199368954E0
4.002756406E0,-2.605257988E0,-7.555943489E0,-1.297526956E0
4.005129687E0,-2.612440586E0,-7.603825569E0,-1.405261397E0
4.007502187E0,-2.612440586E0,-7.630160332E0,-1.486660719E0
4.009874687E0,-2.564558506E0,-7.651707649E0,-1.575242400E0
4.012247969E0,-2.564558506E0,-7.678042412E0,-1.680582762E0
4.014621250E0,-2.581316948E0,-7.690012932E0,-1.773952603E0
4.016993750E0,-2.588499546E0,-7.759442329E0,-1.824228644E0
4.019366250E0,-2.566952467E0,-7.785777092E0,-1.905627966E0
4.021739531E0,-2.581316948E0,-7.807323456E0,-1.970268726E0
4.024112812E0,-2.598075867E0,-7.850417137E0,-2.015756607E0
4.026485260E0,-2.595681667E0,-7.895905495E0,-2.078003168E0
4.028857812E0,-2.631593227E0,-7.962940216E0,-2.159402609E0
4.031231094E0,-2.626805067E0,-8.044339180E0,-2.202496290E0
4.033604375E0,-2.633987188E0,-8.130526543E0,-2.250378370E0
4.035976823E0,-2.638775587E0,-8.219108582E0,-2.295866013E0
4.038349323E0,-2.617228508E0,-8.298113823E0,-2.329383373E0
4.040722656E0,-2.619622707E0,-8.410636902E0,-2.358112812E0
4.043095937E0,-2.629199028E0,-8.501612663E0,-2.374871492E0
4.045468385E0,-2.655534267E0,-8.618923187E0,-2.429935694E0
4.047840885E0,-2.669898748E0,-8.712292671E0,-2.480211735E0
4.050214166E0,-2.727357388E0,-8.836786270E0,-2.530487776E0
4.052587448E0,-2.811150551E0,-8.932550430E0,-2.559216976E0
4.054959948E0,-2.906914473E0,-9.040285110E0,-2.609493017E0
4.057332448E0,-2.976343632E0,-9.136048317E0,-2.623857737E0
4.059705729E0,-3.117595196E0,-9.229417801E0,-2.652586699E0
4.062079010E0,-3.165477276E0,-9.291665077E0,-2.640616179E0
4.064451510E0,-3.258846998E0,-9.351517677E0,-2.678921938E0
4.066824010E0,-3.385734320E0,-9.423339844E0,-2.702862978E0
4.069197291E0,-3.510227442E0,-9.507134438E0,-2.652586699E0
4.071570573E0,-3.658661604E0,-9.564592361E0,-2.619069576E0
4.073943021E0,-3.775972605E0,-9.689085007E0,-2.662163258E0
4.076315573E0,-3.888494968E0,-9.753726006E0,-2.690892458E0
4.078688854E0,-4.118328571E0,-9.744150162E0,-2.276713371E0
4.081062135E0,-4.226062775E0,-9.748938560E0,-2.044485807E0
4.083434583E0,-4.321826935E0,-9.794425964E0,-1.903234005E0
4.085807083E0,-4.384073257E0,-9.875824928E0,-1.764376283E0
4.088180364E0,-4.463078499E0,-9.964406967E0,-1.632700682E0
4.090553646E0,-4.515748978E0,-1.002425957E1,-1.422020078E0
4.092926146E0,-4.587571621E0,-1.008890057E1,-1.268797755E0
4.095298646E0,-4.657000065E0,-1.017987633E1,-1.122757792E0
4.097671927E0,-4.702488422E0,-1.027803421E1,-9.815059900E-1
4.100045208E0,-4.738399982E0,-1.040252686E1,-8.929243088E-1
4.102417708E0,-4.819799423E0,-1.051983833E1,-8.139190674E-1
4.104790208E0,-4.925139904E0,-1.064193726E1,-8.043426275E-1
4.107163489E0,-4.994568348E0,-1.075445938E1,-8.905302286E-1
4.109536771E0,-5.111879349E0,-1.091965199E1,-1.038964272E0
4.111909271E0,-5.212431431E0,-1.106090450E1,-1.278374195E0
4.114281771E0,-5.322559834E0,-1.121891403E1,-1.601577520E0
4.116655052E0,-5.399171352E0,-1.138889503E1,-1.910416245E0
4.119028333E0,-5.473388195E0,-1.152535915E1,-2.255166531E0
4.121400781E0,-5.535634995E0,-1.172167492E1,-2.585551977E0
4.123773281E0,-5.595487118E0,-1.185574532E1,-2.875237942E0
4.126146614E0,-5.650551319E0,-1.199220848E1,-3.078736544E0
4.128519896E0,-5.727162838E0,-1.212627792E1,-3.325328588E0
4.130892344E0,-5.753497601E0,-1.226274204E1,-3.624590874E0
4.133264844E0,-5.808561802E0,-1.231541252E1,-3.921459198E0
4.135638177E0,-5.909114361E0,-1.242314625E1,-4.235085964E0
4.138011458E0,-5.947419643E0,-1.247581577E1,-4.539136410E0
4.140383906E0,-6.239499569E0,-1.237287045E1,-4.472102165E0
4.142756406E0,-6.407086849E0,-1.232498837E1,-4.464919567E0
4.145129687E0,-6.502851009E0,-1.228189468E1,-4.543924809E0
4.147502969E0,-6.596220493E0,-1.217416000E1,-4.637294292E0
4.149875469E0,-6.689590454E0,-1.207600212E1,-4.694753170E0
4.152247969E0,-6.754230976E0,-1.192756844E1,-4.670812130E0
4.154621250E0,-6.842813015E0,-1.180068016E1,-4.651659489E0
4.156994531E0,-6.802112579E0,-1.169773388E1,-4.807275295E0
4.159367031E0,-6.641708374E0,-1.147029495E1,-4.754605293E0
4.161739531E0,-6.756625175E0,-1.112315083E1,-4.172839642E0
4.164112812E0,-6.620161057E0,-1.083825302E1,-3.861606836E0
4.166486094E0,-6.507638931E0,-1.059166145E1,-3.667684793E0
4.168858541E0,-6.392722130E0,-1.032352257E1,-3.557556152E0
4.171231041E0,-6.311322689E0,-1.001228905E1,-3.500097752E0
4.173604375E0,-6.220346928E0,-9.713026047E0,-3.373210430E0
4.175977656E0,-6.129371166E0,-9.502346039E0,-3.236747026E0
4.178350104E0,-5.887567520E0,-9.150413513E0,-3.181682825E0
4.180722604E0,-5.708009720E0,-8.884668350E0,-3.069159985E0
4.183095885E0,-5.576334476E0,-8.724263191E0,-2.896785021E0
4.185469166E0,-5.360865593E0,-8.556676865E0,-2.834538221E0
4.187841666E0,-5.116667271E0,-8.458518028E0,-2.887208462E0
4.190214166E0,-4.724035263E0,-8.448942184E0,-2.923120022E0
4.192587448E0,-3.835824728E0,-8.482459068E0,-2.975790262E0
4.194960729E0,-4.776705265E0,-8.942126274E0,-3.018883944E0
4.197333229E0,-5.121455669E0,-9.416158676E0,-3.208017826E0
4.199705729E0,-5.047238827E0,-9.265330315E0,-2.724409819E0
4.202079010E0,-4.975415707E0,-9.313212395E0,-2.343748093E0
4.204452291E0,-4.922745228E0,-9.600503922E0,-2.104338408E0
4.206824791E0,-4.855710983E0,-9.911737442E0,-2.046880007E0
4.209197291E0,-4.288309097E0,-1.021818161E1,-2.066032648E0
4.211570573E0,-4.961051464E0,-1.068024254E1,-1.838593245E0
4.213943854E0,-5.478176117E0,-1.107526875E1,-1.630306602E0
4.216316302E0,-5.818138123E0,-1.153254128E1,-1.563271880E0
4.218688802E0,-5.710403919E0,-1.196587276E1,-1.539330840E0
4.221062135E0,-6.318505287E0,-1.249975681E1,-1.311891437E0
4.223435416E0,-6.550732613E0,-1.304082394E1,-1.228098035E0
4.225807864E0,-6.660861492E0,-1.366328907E1,-1.117969513E0
4.228180364E0,-6.665649414E0,-1.429533100E1,-9.001065493E-1
4.230553698E0,-6.670437813E0,-1.494413185E1,-6.247851849E-1
4.232926979E0,-6.684802055E0,-1.556420422E1,-2.656703889E-1
4.235299427E0,-6.715925217E0,-1.612921143E1,2.227257490E-1
4.237671927E0,-6.524397850E0,-1.648832512E1,8.715264797E-1
4.240045208E0,-6.797324657E0,-1.699587440E1,1.501174569E0
4.242418489E0,-6.263440609E0,-1.710839653E1,2.138004780E0
4.244790989E0,-6.284987926E0,-1.708206177E1,2.657524347E0
4.247163489E0,-6.668043137E0,-1.712276077E1,3.337448359E0
4.249536771E0,-6.378357410E0,-1.688574600E1,3.912032127E0
4.251910052E0,-5.753497601E0,-1.644044304E1,4.251994133E0
4.254282552E0,-5.858838081E0,-1.659127235E1,4.117924690E0
4.256655052E0,-4.479837418E0,-1.554505157E1,3.914425850E0
4.259028333E0,-3.498256922E0,-1.442461300E1,4.156229973E0
4.261401614E0,-2.789603710E0,-1.329699230E1,4.098771572E0
4.263774062E0,-2.133620739E0,-1.245666409E1,3.797115326E0
4.266146614E0,-2.399365425E0,-1.174801064E1,3.636710405E0
4.268519896E0,-2.655534267E0,-1.110160446E1,3.301536798E0
4.270893177E0,-2.468794584E0,-1.043604469E1,2.899328232E0
4.273265625E0,-3.546139002E0,-1.021818161E1,2.525848866E0
4.275638125E0,-4.625877380E0,-9.904554367E0,2.248133183E0
4.278011458E0,-5.054420948E0,-9.511921883E0,1.989570618E0
4.280384739E0,-5.169337749E0,-9.136048317E0,1.738190293E0
4.282757187E0,-5.399171352E0,-8.846363068E0,1.692702413E0
4.285129687E0,-5.839685440E0,-8.583011627E0,1.733402014E0
4.287502969E0,-6.012060165E0,-8.326843262E0,1.709461093E0
4.289876250E0,-6.028819084E0,-8.068280220E0,1.711855173E0
4.292248750E0,-5.978542805E0,-7.776200294E0,1.819589615E0
4.294621250E0,-5.933055401E0,-7.541579247E0,1.979994297E0
4.296994531E0,-5.911508083E0,-7.290198326E0,2.207433462E0
4.299367812E0,-5.959390163E0,-7.093882561E0,2.504301786E0
4.301740312E0,-5.997695923E0,-6.887989998E0,2.834687471E0
4.304112812E0,-5.791803360E0,-6.694067955E0,3.129161835E0
4.306486094E0,-5.245948792E0,-6.555210114E0,3.332659960E0
4.308859375E0,-5.396776676E0,-6.447475433E0,3.751627445E0
4.311231823E0,-5.363259792E0,-6.411563873E0,3.945549488E0
4.313604323E0,-5.442264557E0,-6.476204872E0,4.019766331E0
4.315977656E0,-5.296224594E0,-6.567180634E0,3.931184769E0
4.318350937E0,-5.162155151E0,-6.780255318E0,3.777962685E0
4.320723385E0,-5.224401951E0,-7.062759399E0,3.660651445E0
4.323095885E0,-5.143002987E0,-7.385962486E0,3.411665201E0
4.325469219E0,-5.047238827E0,-7.776200294E0,3.196196556E0
4.327842500E0,-4.922745228E0,-8.159256935E0,3.035791874E0
4.330214948E0,-4.807828903E0,-8.578223228E0,2.896934032E0
4.332587448E0,-4.652212143E0,-9.004373550E0,2.856234312E0
4.334960729E0,-4.503778458E0,-9.394611359E0,2.805958271E0
4.337334010E0,-4.312250137E0,-9.794425964E0,2.810746431E0
4.339706510E0,-4.089599133E0,-1.013438797E1,2.741317749E0
4.342079010E0,-3.787943125E0,-1.042407417E1,2.691041470E0
4.344452291E0,-3.421645880E0,-1.066108894E1,2.583307028E0
4.346825573E0,-3.031407833E0,-1.087655830E1,2.430084705E0
4.349198073E0,-2.574134827E0,-1.100823402E1,2.181098461E0
4.351570573E0,-2.124044180E0,-1.117582130E1,1.908171177E0
4.353943854E0,-1.635648131E0,-1.124524975E1,1.611302972E0
4.356317135E0,-1.199922204E0,-1.131228447E1,1.362316728E0
4.358689583E0,-7.929253578E-1,-1.132904339E1,1.051083922E0
4.361062083E0,-6.109738350E-1,-1.145832443E1,8.188563585E-1
4.363435416E0,-3.691698909E-1,-1.152535915E1,4.501651227E-1
4.365808698E0,-4.936629832E-1,-1.170731163E1,1.485086679E-1
4.368181146E0,-5.080275536E-1,-1.176237488E1,-2.584881186E-1
4.370553646E0,-7.881370783E-1,-1.192756844E1,-6.439380050E-1
4.372926927E0,-9.676945210E-1,-1.195390320E1,-1.127545953E0
4.375300208E0,-1.377085567E0,-1.211191368E1,-1.438778758E0
4.377672708E0,-1.410602927E0,-1.200896740E1,-1.884081125E0
4.380045208E0,-1.824781895E0,-1.201614952E1,-2.082791328E0
4.382418489E0,-2.140803099E0,-1.201854324E1,-2.202496290E0
4.384791771E0,-2.382606983E0,-1.188686848E1,-2.319807053E0
4.387164271E0,-2.645957708E0,-1.172406960E1,-2.307836533E0
4.389536771E0,-2.787209511E0,-1.150620651E1,-2.224043131E0
4.391910052E0,-2.791997671E0,-1.124046135E1,-2.001392126E0
4.394283333E0,-2.890155792E0,-1.102978134E1,-1.750011563E0
4.396655833E0,-3.287576199E0,-1.100584030E1,-1.084452152E0
4.399028333E0,-3.400099039E0,-1.087416458E1,-6.750612855E-1
4.401401614E0,-3.479104280E0,-1.064193726E1,-2.800349891E-1
4.403774896E0,-3.558109522E0,-1.041210365E1,1.078089774E-1
4.406147344E0,-3.627538204E0,-1.012720490E1,4.238300622E-1
4.408519844E0,-3.680208445E0,-9.796820641E0,7.350628376E-1
4.410893177E0,-3.723302364E0,-9.454463959E0,9.912315607E-1
4.413266458E0,-3.761607885E0,-9.114501953E0,1.201912165E0
4.415638906E0,-3.759213686E0,-8.752992630E0,1.309646606E0
4.418011406E0,-3.895677328E0,-8.482459068E0,1.644820452E0
4.420384739E0,-4.012988091E0,-8.149680138E0,1.810013294E0
4.422758021E0,-4.142269135E0,-7.867176056E0,1.891412497E0
4.425130469E0,-4.204515934E0,-7.596643448E0,1.867471457E0
4.427502969E0,-4.053687572E0,-7.268651009E0,1.869865656E0
4.429876250E0,-3.993835449E0,-6.933477402E0,1.800436974E0
4.432249531E0,-3.981864929E0,-6.679702759E0,1.781284094E0
4.434622031E0,-4.240427494E0,-6.490569115E0,2.008723497E0
4.436994531E0,-4.549266338E0,-6.301435471E0,2.109275579E0
4.439367812E0,-4.242821693E0,-6.030902863E0,2.171522379E0
4.441741094E0,-4.118328571E0,-5.839374542E0,2.197857380E0
4.444113594E0,-4.144663334E0,-5.662211418E0,2.003935337E0
4.446486094E0,-4.130298615E0,-5.678970337E0,2.209827662E0
4.448859375E0,-4.022564411E0,-5.650240898E0,2.217010021E0
4.451232656E0,-4.127904892E0,-5.614329338E0,2.300803423E0
4.453605104E0,-3.859765768E0,-5.580812454E0,2.248133183E0
4.455977604E0,-3.675420284E0,-5.497018814E0,1.793254614E0
4.458350937E0,-4.216486454E0,-5.669393539E0,1.735796094E0
4.460724219E0,-4.726429462E0,-5.789098740E0,1.460474730E0
4.463096666E0,-4.762341022E0,-5.908803940E0,1.240217805E0
4.465469166E0,-4.783887863E0,-6.052449226E0,1.168394804E0
4.467842448E0,-4.494201660E0,-6.038084984E0,7.159100771E-1
4.470215729E0,-5.147790909E0,-6.358894348E0,1.079813123E0
4.472588229E0,-4.996963024E0,-6.454657555E0,1.098965883E0
4.474960729E0,-4.939504147E0,-6.538451195E0,1.027142882E0
4.477334010E0,-4.996963024E0,-6.646185875E0,9.840492010E-1
4.479707291E0,-4.810222626E0,-6.715614319E0,8.523737192E-1
4.482079791E0,-4.525325298E0,-6.689279556E0,4.238300622E-1
4.484452291E0,-4.791070461E0,-6.830531120E0,6.081756353E-1
4.486825573E0,-5.052026749E0,-6.921506882E0,7.039395571E-1
4.489198854E0,-5.025691986E0,-6.952630043E0,5.602936745E-1
4.491571302E0,-4.956262589E0,-7.010088921E0,4.214359224E-1
4.493943854E0,-5.052026749E0,-7.055576324E0,3.304601610E-1
4.496317135E0,-5.181308270E0,-7.084305763E0,2.131493390E-1
4.498690416E0,-5.315377712E0,-7.127399445E0,1.293559074E-1
4.501062864E0,-5.518876076E0,-7.196828842E0,9.650945663E-3
4.503435364E0,-5.705615997E0,-7.268651009E0,-6.935431063E-2
4.505808698E0,-5.897143841E0,-7.321321487E0,-1.555418670E-1
4.508181979E0,-6.028819084E0,-7.376385689E0,-2.201825231E-1
4.510554427E0,-6.146129608E0,-7.409903526E0,-2.345471233E-1
4.512926927E0,-6.275411129E0,-7.431449890E0,-2.441235185E-1
4.515300208E0,-6.411874771E0,-7.433844566E0,-2.345471233E-1
4.517673489E0,-6.548338413E0,-7.448208809E0,-2.034238279E-1
4.520045989E0,-6.672832012E0,-7.460179329E0,-1.651182622E-1
4.522418489E0,-6.751836777E0,-7.443420410E0,-1.100539714E-1
4.524791771E0,-6.804507256E0,-7.412297249E0,-4.541331530E-2
4.527165052E0,-6.852389336E0,-7.395539284E0,1.683324575E-2
4.529537552E0,-6.847600937E0,-7.366809845E0,6.232112646E-2
4.531910052E0,-6.857177258E0,-7.321321487E0,8.147391677E-2
4.534283333E0,-6.838024139E0,-7.251893044E0,1.054148972E-1
4.536656614E0,-6.857177258E0,-7.160917282E0,1.389322579E-1
4.539029062E0,-6.909847260E0,-7.120217323E0,1.532968581E-1
4.541401614E0,-6.979276180E0,-7.050788879E0,1.892083585E-1
4.543774896E0,-6.993640900E0,-6.950236320E0,1.772378683E-1
4.546148177E0,-7.003217220E0,-6.861654282E0,1.652673781E-1
4.548520625E0,-7.005611420E0,-6.799407959E0,1.700555682E-1
4.550893125E0,-7.017581940E0,-6.706038475E0,1.389322579E-1
4.553266458E0,-7.010399818E0,-6.612668037E0,1.197794974E-1
4.555639739E0,-7.003217220E0,-6.540845871E0,6.710934639E-2
4.558012187E0,-6.960123062E0,-6.500145912E0,2.640965581E-2
4.560384687E0,-6.914635658E0,-6.442687035E0,1.443913579E-2
4.562757969E0,-6.838024139E0,-6.394805908E0,5.753293633E-2
4.565131250E0,-6.701560974E0,-6.294253349E0,1.078089774E-1
4.567503750E0,-6.586644173E0,-6.196095467E0,1.269617975E-1
4.569876250E0,-6.514821053E0,-6.114695549E0,2.227257490E-1
4.572249531E0,-6.557914734E0,-6.064419746E0,3.424306810E-1
4.574622812E0,-6.474121094E0,-6.002173424E0,3.998890817E-1
4.576995312E0,-6.316110611E0,-5.935138702E0,3.974949419E-1
4.579367812E0,-6.246682167E0,-5.915985107E0,3.639775813E-1
4.581741094E0,-6.222741127E0,-5.894438744E0,3.687657416E-1
4.584114375E0,-6.220346928E0,-5.870497704E0,3.352483809E-1
4.586486823E0,-6.234711647E0,-5.829797745E0,2.777899802E-1
4.588859375E0,-6.239499569E0,-5.834586143E0,2.466667593E-1
4.591232656E0,-6.256258488E0,-5.863315582E0,1.724496782E-1
4.593605937E0,-6.318505287E0,-5.882468224E0,3.598606586E-2
4.595978385E0,-6.275411129E0,-5.896833420E0,-5.259561539E-2
4.598350885E0,-6.210770607E0,-5.927955627E0,-1.579359621E-1
4.600724166E0,-6.194011688E0,-5.985414505E0,-2.465176135E-1
4.603097448E0,-6.203588486E0,-6.040478706E0,-3.350992799E-1
4.605469948E0,-6.210770607E0,-6.129060745E0,-3.973458409E-1
4.607842448E0,-6.261046886E0,-6.222430229E0,-4.332573414E-1
4.610215729E0,-6.282593727E0,-6.327770233E0,-4.835333824E-1
4.612589010E0,-6.337657928E0,-6.452263832E0,-5.433858633E-1
4.614961510E0,-6.289775848E0,-6.586333275E0,-6.176029444E-1
4.617334010E0,-6.215559006E0,-6.725191116E0,-6.295734048E-1
4.619707291E0,-6.170070648E0,-6.808984756E0,-5.912678242E-1
4.622080573E0,-6.146129608E0,-6.935872078E0,-5.792973638E-1
4.624453073E0,-6.124583244E0,-7.046000481E0,-5.505681634E-1
4.626825573E0,-6.122188568E0,-7.175281525E0,-5.194448829E-1
4.629198854E0,-6.112612724E0,-7.278227806E0,-4.955039024E-1
4.631572135E0,-6.146129608E0,-7.388356209E0,-4.739570022E-1
4.633944583E0,-6.134159088E0,-7.496090889E0,-4.715628922E-1
4.636317083E0,-6.093459606E0,-7.579884529E0,-4.404396117E-1
4.638690416E0,-6.069518566E0,-7.646919250E0,-4.236809015E-1
4.641063698E0,-6.050365925E0,-7.706771851E0,-3.925576210E-1
4.643436146E0,-5.995301723E0,-7.740288734E0,-4.571983218E-1
4.645808646E0,-5.913902283E0,-7.778594017E0,-5.433858633E-1
4.648181927E0,-6.028819084E0,-7.881541252E0,-5.816914439E-1
4.650555208E0,-6.416663170E0,-8.061098099E0,-7.653659582E-2
4.652927708E0,-6.435815811E0,-8.106586456E0,-5.020150542E-2
4.655300208E0,-6.399904251E0,-8.185591698E0,-2.034238279E-1
4.657673489E0,-6.450180054E0,-8.219108582E0,-4.332573414E-1
4.660046771E0,-6.545944214E0,-8.274172783E0,-5.745091438E-1
4.662419271E0,-6.627343655E0,-8.326843262E0,-6.367557049E-1
4.664791771E0,-6.672832012E0,-8.379513741E0,-6.032383442E-1
4.667165052E0,-6.744654655E0,-8.446547508E0,-5.242331028E-1
4.669538333E0,-6.869147778E0,-8.511188507E0,-4.835333824E-1
4.671910781E0,-6.847600937E0,-8.575829506E0,-4.643806219E-1
4.674283281E0,-6.356810570E0,-8.508794785E0,-9.862941504E-1
4.676656614E0,-6.917029858E0,-8.805663109E0,-3.135523796E-1
4.679029896E0,-7.187562943E0,-8.937338829E0,2.538489997E-1
4.681402344E0,-7.221080303E0,-9.001978874E0,2.897605002E-1
4.683774844E0,-7.381484985E0,-9.095349312E0,1.485086679E-1
4.686148177E0,-7.448519707E0,-9.159989357E0,7.189753652E-2
4.688521458E0,-7.448519707E0,-9.181536674E0,6.710934639E-2
4.690893906E0,-7.458096504E0,-9.258148193E0,1.197794974E-1
4.693266406E0,-7.460490227E0,-9.341940880E0,2.203316391E-1
4.695639687E0,-7.422184944E0,-9.423339844E0,3.352483809E-1
4.698012969E0,-7.319238186E0,-9.449675560E0,2.921546400E-1
4.700385469E0,-7.185168743E0,-9.507134438E0,1.892083585E-1
4.702757969E0,-6.689590454E0,-9.459252357E0,-3.949517608E-1
4.705131250E0,-7.266568184E0,-9.729784966E0,2.897605002E-1
4.707504531E0,-7.338391304E0,-9.784849167E0,7.374570370E-1
4.709877031E0,-7.297691345E0,-9.830337524E0,6.225402355E-1
4.712249531E0,-7.352756023E0,-9.880613327E0,3.807362616E-1
4.714622812E0,-7.412608147E0,-9.899765968E0,1.987847388E-1
4.716996094E0,-7.388667107E0,-9.890190125E0,1.221735775E-1
4.719368541E0,-7.431760788E0,-9.873431206E0,1.389322579E-1
4.721741041E0,-7.522737026E0,-9.832731247E0,1.604791880E-1
4.724114375E0,-7.118134022E0,-9.595716476E0,-3.422815800E-1
4.726487656E0,-7.558648109E0,-9.689085007E0,-8.132480085E-2
4.728860104E0,-7.908186913E0,-9.645992279E0,7.039395571E-1
4.731232604E0,-7.860304832E0,-9.435311317E0,6.608457565E-1
4.733605885E0,-8.001556396E0,-9.334758759E0,3.974949419E-1
4.735979166E0,-8.173932076E0,-9.198295593E0,1.197794974E-1
4.738351666E0,-8.228995323E0,-9.047467232E0,-5.259561539E-2
4.740724166E0,-8.159566879E0,-8.863121986E0,-7.174840569E-2
4.743097448E0,-8.188296318E0,-8.666805267E0,-9.501829743E-3
4.745470729E0,-8.288847923E0,-8.547100067E0,2.401554585E-2
4.747843229E0,-8.336730003E0,-8.427395821E0,9.650945663E-3
4.750215729E0,-8.288847923E0,-8.310084343E0,9.650945663E-3
4.752589010E0,-8.284060478E0,-8.202349663E0,2.401554585E-2
4.754962291E0,-8.228995323E0,-8.135315895E0,-7.107749581E-3
4.757334791E0,-8.085350037E0,-8.039551735E0,-8.371889591E-2
4.759707291E0,-8.042256355E0,-8.065886497E0,-1.339949667E-1
4.762080573E0,-8.001556396E0,-8.176014900E0,-1.100539714E-1
4.764453854E0,-7.893821716E0,-8.226290703E0,-7.107749581E-3
4.766826302E0,-7.807634354E0,-8.319661140E0,2.401554585E-2
4.769198802E0,-7.704688072E0,-8.458518028E0,-4.541331530E-2
4.771572135E0,-7.472460747E0,-8.559070587E0,-8.850710094E-2
4.773945416E0,-7.218686104E0,-8.705110550E0,1.922732592E-2
4.776317864E0,-6.967305660E0,-8.870304108E0,1.916024685E-1
4.778690364E0,-6.694378853E0,-9.028314590E0,3.879185617E-1
4.781063646E0,-6.442998409E0,-9.169566154E0,5.267763138E-1
4.783436927E0,-6.241893768E0,-9.301240921E0,6.752104759E-1
4.785809427E0,-6.174859524E0,-9.437705040E0,7.901271582E-1
4.788181927E0,-6.220346928E0,-9.533469200E0,9.026497602E-1
4.790555208E0,-6.318505287E0,-9.634020805E0,9.840492010E-1
4.792928489E0,-6.421451092E0,-9.727391243E0,1.017566562E0
4.795300989E0,-6.526791573E0,-9.765697479E0,9.768668413E-1
4.797673489E0,-6.639314175E0,-9.799214363E0,8.930734396E-1
4.800046771E0,-6.723107815E0,-9.815973282E0,7.685803175E-1
4.802420052E0,-6.900271416E0,-9.856672287E0,6.129639149E-1
4.804792500E0,-7.096587181E0,-9.897372246E0,5.938110352E-1
4.807165052E0,-7.350361824E0,-9.985954285E0,6.943632364E-1
4.809538333E0,-7.577800751E0,-1.007453537E1,8.978615999E-1
