"Time (s)","Acceleration x (m/s^2)","Acceleration y (m/s^2)","Acceleration z (m/s^2)"
0.000000000E0,-8.379705995E-2,-1.315853214E1,-1.211466074E0
5.005000000E-3,-8.379705995E-2,-1.315853214E1,-1.211466074E0
1.001000000E-2,-8.379705995E-2,-1.315853214E1,-1.211466074E0
1.501500000E-2,-8.379705995E-2,-1.315853214E1,-1.211466074E0
2.002000000E-2,-5.554547906E-1,-9.710882187E0,-1.244984865E0
2.496300000E-2,-6.153098345E-1,-9.703699112E0,-1.264138460E0
2.996800000E-2,-6.584054828E-1,-9.691728592E0,-1.256955862E0
3.491500000E-2,-7.062895298E-1,-9.672574997E0,-1.261744261E0
3.998100000E-2,-7.709329724E-1,-9.524134636E0,-1.252167463E0
4.498600000E-2,-9.193734527E-1,-9.485827446E0,-1.331176162E0
4.999000000E-2,-9.409212470E-1,-9.694122314E0,-1.221042871E0
5.499500000E-2,-9.888052940E-1,-9.742006302E0,-1.242590666E0
6.000000000E-2,-1.041477680E0,-9.739612579E0,-1.283292055E0
6.500500000E-2,-1.086967587E0,-9.713275909E0,-1.285686255E0
7.001000000E-2,-1.120486379E0,-9.782708168E0,-1.180341482E0
7.489300000E-2,-8.810662031E-1,-9.823410034E0,-9.959878922E-1
8.002000000E-2,-7.062895298E-1,-9.832986832E0,-9.481038451E-1
8.496300000E-2,-4.955997467E-1,-9.785101891E0,-1.005564690E0
8.996800000E-2,-4.046200812E-1,-9.648633003E0,-1.015141487E0
9.497300000E-2,-2.777273953E-1,-9.622296333E0,-9.624691010E-1
9.997800000E-2,-2.370259613E-1,-9.667786598E0,-1.005564690E0
1.049830000E-1,-2.082955539E-1,-9.689333916E0,-1.096544385E0
1.098660000E-1,-2.035071403E-1,-9.660603523E0,-1.199495077E0
1.149930000E-1,-2.011129409E-1,-9.624691010E0,-1.192312479E0
1.199980000E-1,-1.987187415E-1,-9.696516991E0,-1.187524080E0
1.250020000E-1,-2.753331959E-1,-9.737217903E0,-1.211466074E0
1.300070000E-1,-3.088520169E-1,-9.768342972E0,-1.182735682E0
1.350120000E-1,-3.184288144E-1,-9.849745750E0,-1.089361787E0
1.400170000E-1,-3.734954596E-1,-9.888052940E0,-1.000776291E0
1.450220000E-1,-4.357447028E-1,-9.914389610E0,-9.313444495E-1
1.499660000E-1,-4.094084799E-1,-9.923966408E0,-8.930372596E-1
1.549710000E-1,-3.543418646E-1,-9.919178009E0,-8.188169599E-1
1.599750000E-1,-3.160346150E-1,-9.895236015E0,-7.924807668E-1
1.649800000E-1,-2.609679997E-1,-9.868899345E0,-7.398083210E-1
1.699850000E-1,-1.771709323E-1,-9.830592155E0,-7.254431248E-1
1.749900000E-1,-1.508347094E-1,-9.828198433E0,-7.086837292E-1
1.799950000E-1,-1.316810995E-1,-9.799467087E0,-6.919242740E-1
1.850000000E-1,-1.340752989E-1,-9.780313492E0,-7.086837292E-1
1.900050000E-1,-1.244984865E-1,-9.763554573E0,-6.967126727E-1
1.950100000E-1,-1.532289088E-1,-9.751583099E0,-7.158663273E-1
2.000140000E-1,-1.412578970E-1,-9.751583099E0,-7.278373241E-1
2.050190000E-1,-1.795651317E-1,-9.734824181E0,-7.613561153E-1
2.099630000E-1,-1.364694983E-1,-9.744400978E0,-7.757213712E-1
2.149680000E-1,-1.173158810E-1,-9.737217903E0,-8.044517636E-1
2.199730000E-1,-1.053448766E-1,-9.734824181E0,-8.355764151E-1
2.249780000E-1,-1.029506698E-1,-9.746794701E0,-8.690952063E-1
2.299830000E-1,-5.027823523E-2,-9.751583099E0,-8.786720037E-1
2.349870000E-1,-5.506663769E-2,-9.739612579E0,-8.762778044E-1
2.399920000E-1,-4.070143029E-2,-9.708487511E0,-8.619126081E-1
2.449970000E-1,-4.309562966E-2,-9.689333916E0,-8.403648138E-1
2.500020000E-1,-4.548983276E-2,-9.696516991E0,-8.403648138E-1
2.550070000E-1,-6.703764945E-2,-9.701305389E0,-7.757213712E-1
2.600120000E-1,-1.029506698E-1,-9.698910713E0,-7.661445141E-1
2.650170000E-1,-1.771709323E-1,-9.708487511E0,-7.469909191E-1
2.700220000E-1,-2.298433632E-1,-9.720458984E0,-7.302315235E-1
2.749650000E-1,-2.729389966E-1,-9.694122314E0,-7.493851185E-1
2.799700000E-1,-2.896983922E-1,-9.670180321E0,-7.302315235E-1
2.849750000E-1,-3.016694188E-1,-9.677363396E0,-7.302315235E-1
2.899800000E-1,-2.825157940E-1,-9.674968719E0,-7.326257229E-1
2.949850000E-1,-2.873041928E-1,-9.651026726E0,-7.805097699E-1
2.999900000E-1,-2.753331959E-1,-9.667786598E0,-8.164227605E-1
3.049950000E-1,-2.633621991E-1,-9.651026726E0,-8.762778044E-1
3.100000000E-1,-2.777273953E-1,-9.665391922E0,-9.026140571E-1
3.150040000E-1,-2.896983922E-1,-9.682151794E0,-9.097966552E-1
3.200090000E-1,-2.753331959E-1,-9.718064308E0,-9.121908545E-1
3.250140000E-1,-2.633621991E-1,-9.727641106E0,-9.385270476E-1
3.300190000E-1,-2.633621991E-1,-9.739612579E0,-9.504981041E-1
3.349630000E-1,-2.705447972E-1,-9.753977776E0,-9.457096457E-1
3.399680000E-1,-2.466027737E-1,-9.746794701E0,-9.600749016E-1
3.449730000E-1,-2.346317619E-1,-9.718064308E0,-9.672574997E-1
3.499770000E-1,-2.035071403E-1,-9.725247383E0,-9.600749016E-1
3.549820000E-1,-1.340752989E-1,-9.674968719E0,-9.672574997E-1
3.599870000E-1,-1.484405100E-1,-9.667786598E0,-9.600749016E-1
3.649920000E-1,-1.388636976E-1,-9.682151794E0,-9.457096457E-1
3.699970000E-1,-1.436520964E-1,-9.667786598E0,-9.457096457E-1
3.750020000E-1,-1.580173075E-1,-9.646238327E0,-9.457096457E-1
3.800070000E-1,-1.723825186E-1,-9.622296333E0,-9.576807022E-1
3.850120000E-1,-1.987187415E-1,-9.639056206E0,-9.481038451E-1
3.900160000E-1,-2.322375625E-1,-9.646238327E0,-9.217676520E-1
3.950210000E-1,-2.681505978E-1,-9.665391922E0,-9.313444495E-1
3.999650000E-1,-2.873041928E-1,-9.660603523E0,-9.002198577E-1
4.049700000E-1,-2.849099934E-1,-9.670180321E0,-9.169792533E-1
4.099750000E-1,-2.705447972E-1,-9.703699112E0,-9.026140571E-1
4.149800000E-1,-2.489969730E-1,-9.706093788E0,-9.121908545E-1
4.199850000E-1,-2.394201756E-1,-9.730035782E0,-9.457096457E-1
4.249890000E-1,-2.274491638E-1,-9.751583099E0,-9.481038451E-1
4.299940000E-1,-2.370259613E-1,-9.751583099E0,-9.504981041E-1
4.349990000E-1,-2.681505978E-1,-9.720458984E0,-9.792284966E-1
4.400040000E-1,-2.633621991E-1,-9.684545517E0,-9.792284966E-1
4.450090000E-1,-3.160346150E-1,-9.698910713E0,-9.983820915E-1
4.500140000E-1,-3.495534360E-1,-9.720458984E0,-9.959878922E-1
4.550190000E-1,-3.806780577E-1,-9.756371498E0,-9.816226959E-1
4.599630000E-1,-4.309563041E-1,-9.799467087E0,-9.648633003E-1
4.649670000E-1,-4.165911078E-1,-9.842563629E0,-9.385270476E-1
4.699720000E-1,-3.878606856E-1,-9.837775230E0,-9.385270476E-1
4.749770000E-1,-3.591302633E-1,-9.866505623E0,-9.361328483E-1
4.799820000E-1,-3.184288144E-1,-9.890447617E0,-9.409212470E-1
4.849870000E-1,-2.944868207E-1,-9.892841339E0,-9.409212470E-1
4.899920000E-1,-2.370259613E-1,-9.856928825E0,-9.624691010E-1
4.949970000E-1,-2.202665508E-1,-9.813833237E0,-9.241618514E-1
5.000010000E-1,-2.059013397E-1,-9.763554573E0,-9.481038451E-1
5.050060000E-1,-1.939303428E-1,-9.710882187E0,-9.720458984E-1
5.100110000E-1,-1.747767180E-1,-9.648633003E0,-9.744400978E-1
5.150160000E-1,-1.819593310E-1,-9.631873131E0,-9.935936928E-1
5.200210000E-1,-1.699883193E-1,-9.629479408E0,-1.017535686E0
5.249650000E-1,-1.963245422E-1,-9.627084732E0,-1.007958889E0
5.299700000E-1,-2.394201756E-1,-9.636661530E0,-9.983820915E-1
5.349750000E-1,-2.609679997E-1,-9.646238327E0,-1.058237195E0
5.399790000E-1,-3.112462163E-1,-9.639056206E0,-1.079784989E0
5.449840000E-1,-3.519476354E-1,-9.674968719E0,-1.115697980E0
5.499890000E-1,-3.926490843E-1,-9.715670586E0,-1.120486379E0
5.549940000E-1,-4.429273009E-1,-9.770736694E0,-1.158793569E0
5.599990000E-1,-4.955997467E-1,-9.804255486E0,-1.201889277E0
5.650040000E-1,-5.506663918E-1,-9.761159897E0,-1.197100878E0
5.700090000E-1,-6.440402865E-1,-9.753977776E0,-1.194706678E0
5.750130000E-1,-7.230489254E-1,-9.789890289E0,-1.115697980E0
5.800180000E-1,-7.876923680E-1,-9.847352028E0,-9.600749016E-1
5.849620000E-1,-8.092401624E-1,-9.880870819E0,-7.685387731E-1
5.899670000E-1,-8.020575643E-1,-9.880870819E0,-5.195417404E-1
5.949720000E-1,-7.541735172E-1,-9.888052940E0,-4.022258818E-1
5.999770000E-1,-5.961562395E-1,-9.792284966E0,-3.639186621E-1
6.049820000E-1,-3.878606856E-1,-9.689333916E0,-3.495534360E-1
6.109630000E-1,-1.005564705E-1,-9.607931137E0,-3.854664862E-1
6.159680000E-1,4.788403213E-2,-9.560047150E0,-4.237737060E-1
6.209730000E-1,2.537853718E-1,-9.552865028E0,-4.860229492E-1
6.259780000E-1,3.950432837E-1,-9.591172218E0,-6.153098345E-1
6.309830000E-1,4.620809257E-1,-9.636661530E0,-6.847416759E-1
6.359870000E-1,5.171475410E-1,-9.801861763E0,-7.278373241E-1
6.409920000E-1,5.099649429E-1,-9.969455719E0,-7.733271718E-1
6.459970000E-1,4.548983276E-1,-1.013226128E1,-8.092401624E-1
6.510020000E-1,4.189853072E-1,-1.016817474E1,-8.714894056E-1
6.560070000E-1,3.543418646E-1,-1.009156036E1,-9.481038451E-1
6.610120000E-1,2.466027737E-1,-9.955090523E0,-1.060631394E0
6.660170000E-1,1.484405100E-1,-9.787496567E0,-1.130063176E0
6.710220000E-1,7.422025502E-2,-9.653421402E0,-1.218648672E0
6.759650000E-1,-4.309562966E-2,-9.526528358E0,-1.285686255E0
6.809700000E-1,-1.460463107E-1,-9.449913979E0,-1.333570361E0
6.857920000E-1,-2.968810201E-1,-9.332598686E0,-1.350329757E0
6.909800000E-1,-4.237737060E-1,-9.279925346E0,-1.350329757E0
6.959850000E-1,-5.291185975E-1,-9.258378029E0,-1.335964561E0
7.009900000E-1,-5.698199868E-1,-9.311050415E0,-1.355118155E0
7.059950000E-1,-6.248866320E-1,-9.418789864E0,-1.340752959E0
7.109990000E-1,-6.751648784E-1,-9.533711433E0,-1.290474772E0
7.160040000E-1,-7.062895298E-1,-9.588777542E0,-1.240196466E0
7.210090000E-1,-6.991068721E-1,-9.567230225E0,-1.187524080E0
7.260140000E-1,-6.512228847E-1,-9.502586365E0,-1.134851575E0
7.310190000E-1,-5.434837937E-1,-9.452308655E0,-1.055842996E0
7.359630000E-1,-4.453215301E-1,-9.397241592E0,-1.010353088E0
7.409680000E-1,-3.567360640E-1,-9.425971985E0,-1.015141487E0
7.459730000E-1,-2.035071403E-1,-9.466673851E0,-1.024718285E0
7.509770000E-1,-9.816227108E-2,-9.469067574E0,-1.063025594E0
7.559820000E-1,-5.506663769E-2,-9.550470352E0,-1.101332784E0
7.609870000E-1,-4.309562966E-2,-9.581595421E0,-1.194706678E0
7.659920000E-1,-4.548983276E-2,-9.641449928E0,-1.261744261E0
7.709970000E-1,-5.027823523E-2,-9.694122314E0,-1.355118155E0
7.760020000E-1,-1.292868853E-1,-9.742006302E0,-1.419761658E0
7.810070000E-1,-2.106897533E-1,-9.742006302E0,-1.417367458E0
7.860110000E-1,-2.418143749E-1,-9.737217903E0,-1.355118155E0
7.910160000E-1,-2.489969730E-1,-9.727641106E0,-1.273715258E0
7.960210000E-1,-2.250549644E-1,-9.727641106E0,-1.175553083E0
8.009650000E-1,-1.723825186E-1,-9.703699112E0,-1.063025594E0
8.059700000E-1,-6.703764945E-2,-9.727641106E0,-1.012747288E0
8.109750000E-1,-2.633621916E-2,-9.689333916E0,-9.840168953E-1
8.159800000E-1,2.633621916E-2,-9.674968719E0,-9.552865028E-1
8.209850000E-1,4.070143029E-2,-9.672574997E0,-9.409212470E-1
8.259890000E-1,4.070143029E-2,-9.672574997E0,-9.433154464E-1
8.309940000E-1,4.788403399E-3,-9.662998199E0,-9.121908545E-1
8.359990000E-1,-1.436521020E-2,-9.634267807E0,-8.643068075E-1
8.410040000E-1,-4.788403213E-2,-9.643844604E0,-8.475474119E-1
8.460090000E-1,-5.746084079E-2,-9.653421402E0,-8.188169599E-1
8.510140000E-1,-6.464344263E-2,-9.696516991E0,-8.020575643E-1
8.560190000E-1,-4.788403213E-2,-9.713275909E0,-8.164227605E-1
8.609620000E-1,-4.070143029E-2,-9.715670586E0,-8.762778044E-1
8.659670000E-1,-3.591302410E-2,-9.742006302E0,-9.457096457E-1
8.709720000E-1,-4.548983276E-2,-9.773131371E0,-1.043871999E0
8.759770000E-1,-3.591302410E-2,-9.775525093E0,-1.139639974E0
8.807990000E-1,-4.548983276E-2,-9.811438560E0,-1.165976286E0
8.869630000E-1,-6.224924326E-2,-9.801861763E0,-1.165976286E0
8.919680000E-1,-8.379705995E-2,-9.751583099E0,-1.211466074E0
8.969730000E-1,-8.140286058E-2,-9.708487511E0,-1.199495077E0
9.019780000E-1,-1.029506698E-1,-9.698910713E0,-1.180341482E0
9.068000000E-1,-1.316810995E-1,-9.727641106E0,-1.118092179E0
9.119880000E-1,-1.651999205E-1,-9.753977776E0,-1.082179189E0
9.169930000E-1,-2.250549644E-1,-9.744400978E0,-9.959878922E-1
9.219970000E-1,-2.561795712E-1,-9.763554573E0,-9.481038451E-1
9.270020000E-1,-2.968810201E-1,-9.756371498E0,-8.403648138E-1
9.320070000E-1,-3.351882398E-1,-9.744400978E0,-8.164227605E-1
9.370120000E-1,-3.495534360E-1,-9.730035782E0,-7.398083210E-1
9.420170000E-1,-2.873041928E-1,-9.698910713E0,-6.512228847E-1
9.470220000E-1,-2.537853718E-1,-9.639056206E0,-6.081272364E-1
9.519660000E-1,-1.915361285E-1,-9.581595421E0,-5.961562395E-1
9.569710000E-1,-9.576806426E-2,-9.531316757E0,-6.200982332E-1
9.619750000E-1,-5.027823523E-2,-9.514557838E0,-6.727706790E-1
9.669800000E-1,2.154781483E-2,-9.552865028E0,-7.254431248E-1
9.719850000E-1,4.788403213E-2,-9.612719536E0,-8.571242094E-1
9.769900000E-1,6.464344263E-2,-9.768342972E0,-9.289502501E-1
9.819950000E-1,1.197100803E-2,-9.964667320E0,-9.696516991E-1
9.870000000E-1,-7.182604820E-2,-1.017056847E1,-1.010353088E0
9.920050000E-1,-2.106897533E-1,-1.027112484E1,-1.027112484E0
9.970090000E-1,-2.801215947E-1,-1.030943298E1,-1.079784989E0
1.002014000E0,-3.639186621E-1,-1.032858658E1,-1.070208192E0
1.007019000E0,-3.902548850E-1,-1.030703831E1,-1.070208192E0
1.011963000E0,-4.596867263E-1,-1.035013390E1,-1.051054597E0
1.016968000E0,-5.099649429E-1,-1.034774017E1,-1.031900883E0
1.021973000E0,-5.722141862E-1,-1.032379818E1,-9.935936928E-1
1.026978000E0,-5.770025849E-1,-1.030703831E1,-9.576807022E-1
1.031983000E0,-6.512228847E-1,-1.023281765E1,-9.121908545E-1
1.036990000E0,-7.086837292E-1,-1.019690514E1,-8.619126081E-1
1.041995000E0,-7.661445141E-1,-1.019211674E1,-7.086837292E-1
1.047000000E0,-8.331822157E-1,-1.007958889E1,-5.386953950E-1
1.051821000E0,-8.140285611E-1,-9.856928825E0,-2.849099934E-1
1.056826000E0,-8.020575643E-1,-9.785101891E0,-2.657563984E-1
1.062014000E0,-7.062895298E-1,-9.629479408E0,-1.675941199E-1
1.067019000E0,-5.075707436E-1,-9.493009567E0,-7.661445439E-2
1.071963000E0,-2.537853718E-1,-9.416395187E0,-5.027823523E-2
1.076968000E0,6.703764945E-2,-9.516951561E0,-1.580173075E-1
1.081973000E0,2.920926213E-1,-9.639056206E0,-4.453215301E-1
1.086978000E0,4.453215301E-1,-9.821015358E0,-7.326257229E-1
1.091982000E0,5.075707436E-1,-9.943120003E0,-9.481038451E-1
1.096987000E0,4.333505034E-1,-1.001015759E1,-9.145850539E-1
1.101992000E0,3.471592367E-1,-9.995792389E0,-8.020575643E-1
1.106997000E0,1.604115069E-1,-9.768342972E0,-6.464344859E-1
1.112002000E0,8.858546615E-2,-9.461885452E0,-6.177040339E-1
1.117007000E0,2.633621916E-2,-9.062053680E0,-7.637503147E-1
1.122012000E0,2.394201607E-2,-8.650250435E0,-1.221042871E0
1.127017000E0,5.267243832E-2,-8.281543732E0,-1.898601890E0
1.132021000E0,3.591302410E-2,-8.027758598E0,-2.748543501E0
1.136965000E0,-3.830722719E-2,-7.884106159E0,-3.323152065E0
1.141970000E0,-2.106897533E-1,-7.943961143E0,-3.701435804E0
1.146975000E0,-4.477157295E-1,-8.099584579E0,-3.766079187E0
1.151980000E0,-7.278373241E-1,-8.271966934E0,-3.629609823E0
1.156985000E0,-9.720458984E-1,-8.504204750E0,-3.284844637E0
1.161990000E0,-1.134851575E0,-8.734047890E0,-2.832340717E0
1.166995000E0,-1.161187768E0,-8.930372238E0,-2.255337954E0
1.171999000E0,-1.019929886E0,-9.035717010E0,-1.912967205E0
1.177004000E0,-8.044517636E-1,-9.052476883E0,-1.769315004E0
1.182009000E0,-5.506663918E-1,-8.923190117E0,-1.781286120E0
1.187014000E0,-2.896983922E-1,-8.786720276E0,-1.807622313E0
1.192019000E0,-4.788403399E-3,-8.743624687E0,-1.683123827E0
1.196963000E0,3.567360640E-1,-8.724471092E0,-1.448492050E0
1.201968000E0,8.020575643E-1,-8.784325600E0,-1.233013868E0
1.206972000E0,9.888052940E-1,-9.002198219E0,-6.871358752E-1
1.211977000E0,1.247379065E0,-9.258378029E0,-2.466027737E-1
1.216982000E0,1.438915253E0,-9.519346237E0,1.340752989E-1
1.221987000E0,1.577778935E0,-9.809044838E0,5.147533417E-1
1.226992000E0,1.946485996E0,-1.002691650E1,6.081272364E-1
1.231997000E0,2.130839586E0,-1.030224991E1,2.657563984E-1
1.237002000E0,2.015917778E0,-1.066616821E1,5.506663769E-2
1.242007000E0,1.776497602E0,-1.101572227E1,9.816227108E-2
1.247011000E0,1.642422318E0,-1.112106705E1,2.849099934E-1
1.252016000E0,1.683123827E0,-1.101572227E1,4.405331016E-1
1.257021000E0,1.733402014E0,-1.094150162E1,4.405331016E-1
1.261965000E0,1.769315004E0,-1.083855152E1,3.663128614E-1
1.266970000E0,1.788468719E0,-1.059913063E1,3.112462163E-1
1.271975000E0,1.853112102E0,-1.030943298E1,3.064578176E-1
1.276980000E0,1.996764183E0,-1.009156036E1,2.609679997E-1
1.281984000E0,2.197877169E0,-9.844957352E0,8.379705995E-2
1.286989000E0,2.322375536E0,-9.560047150E0,-5.267243832E-2
1.291994000E0,2.353500366E0,-9.351752281E0,-1.484405100E-1
1.296999000E0,2.363077164E0,-9.212887764E0,-1.340752989E-1
1.302004000E0,2.418143749E0,-9.241618156E0,-1.125274822E-1
1.307009000E0,2.420537949E0,-9.354146004E0,-5.027823523E-2
1.312014000E0,2.442085743E0,-9.502586365E0,-7.661445439E-2
1.317019000E0,2.516305923E0,-9.543288231E0,-1.891419291E-1
1.321962000E0,2.624045134E0,-9.485827446E0,-3.112462163E-1
1.326967000E0,2.743755102E0,-9.387664795E0,-4.740519226E-1
1.331972000E0,2.753331900E0,-9.311050415E0,-5.722141862E-1
1.336977000E0,2.626439333E0,-9.208099365E0,-6.727706790E-1
1.341982000E0,2.468421936E0,-9.136273384E0,-7.924807668E-1
1.346987000E0,2.281674147E0,-9.107542992E0,-8.930372596E-1
1.351992000E0,2.049436569E0,-9.035717010E0,-9.840168953E-1
1.356996000E0,1.762132406E0,-8.925583839E0,-1.043871999E0
1.362001000E0,1.436521053E0,-8.841787338E0,-1.132457376E0
1.367006000E0,1.113303781E0,-8.750806808E0,-1.084573388E0
1.372011000E0,7.469909191E-1,-8.688557625E0,-9.696516991E-1
1.377016000E0,4.860229492E-1,-8.719682693E0,-8.810662031E-1
1.382021000E0,2.777273953E-1,-8.678980827E0,-8.499416113E-1
1.386965000E0,4.548983276E-2,-8.688557625E0,-7.589619160E-1
1.391970000E0,-1.244984865E-1,-8.695740700E0,-6.057330370E-1
1.396974000E0,-3.040636182E-1,-8.686163902E0,-4.620809257E-1
1.401979000E0,-4.955997467E-1,-8.717288017E0,-2.944868207E-1
1.406984000E0,-5.650315881E-1,-8.681375504E0,-2.250549644E-1
1.411989000E0,-5.961562395E-1,-8.688557625E0,-2.250549644E-1
1.416994000E0,-5.937620401E-1,-8.719682693E0,-2.992752194E-1
1.421999000E0,-6.464344859E-1,-8.765172005E0,-5.219359994E-1
1.427004000E0,-6.727706790E-1,-8.825027466E0,-7.661445141E-1
1.432008000E0,-7.038952708E-1,-8.968679428E0,-1.067813993E0
1.437013000E0,-6.631938815E-1,-9.107542992E0,-1.242590666E0
1.442018000E0,-6.057330370E-1,-9.291896820E0,-1.395819545E0
1.446962000E0,-5.195417404E-1,-9.512163162E0,-1.589749932E0
1.451967000E0,-3.974374831E-1,-9.708487511E0,-1.733402014E0
1.456972000E0,-2.992752194E-1,-9.957485199E0,-1.805228114E0
1.461977000E0,-1.532289088E-1,-1.026873112E1,-1.821987510E0
1.466798000E0,-2.154781483E-2,-1.046505547E1,-1.742978811E0
1.471925000E0,1.436520964E-1,-1.062546730E1,-1.517923832E0
1.476991000E0,2.226607651E-1,-1.078827286E1,-1.192312479E0
1.481996000E0,2.513911724E-1,-1.094150162E1,-7.972691655E-1
1.487001000E0,2.849099934E-1,-1.096544361E1,-4.046200812E-1
1.492006000E0,3.854664862E-1,-1.088404083E1,-1.675941236E-2
1.497011000E0,6.655880809E-1,-1.074278259E1,2.681505978E-1
1.502016000E0,1.017535686E0,-1.067574501E1,4.572925270E-1
1.507020000E0,1.326387763E0,-1.064940929E1,5.578489900E-1
1.511964000E0,1.675941229E0,-1.066377449E1,4.860229492E-1
1.516969000E0,1.960851192E0,-1.069968700E1,3.184288144E-1
1.521974000E0,2.375048161E0,-1.075954247E1,1.125274822E-1
1.526979000E0,2.650381327E0,-1.081700325E1,-6.703764945E-2
1.531984000E0,2.904166698E0,-1.096544361E1,-2.322375625E-1
1.536989000E0,3.145981073E0,-1.113064384E1,-3.591302633E-1
1.541994000E0,3.275267839E0,-1.136527538E1,-4.333505034E-1
1.546998000E0,3.287238836E0,-1.159272480E1,-5.722141862E-1
1.552003000E0,3.208230257E0,-1.183693314E1,-6.057330370E-1
1.557008000E0,3.071760893E0,-1.201889229E1,-4.955997467E-1
1.562013000E0,2.774879694E0,-1.219845772E1,-2.059013397E-1
1.567018000E0,2.456450939E0,-1.236844635E1,2.489969730E-1
1.571962000E0,2.154781580E0,-1.258392429E1,7.469909191E-1
1.576967000E0,1.747767210E0,-1.271081638E1,1.228225470E0
1.581971000E0,1.201889277E0,-1.279940224E1,1.707065821E0
1.586854000E0,8.547300100E-1,-1.288798809E1,1.920149803E0
1.591920000E0,7.900865674E-1,-1.292390060E1,1.975216389E0
1.596986000E0,1.041477680E0,-1.295741940E1,1.786074519E0
1.601991000E0,1.563413739E0,-1.304121685E1,1.213860273E0
1.606996000E0,2.578555346E0,-1.335246277E1,4.118026793E-1
1.612001000E0,3.306392431E0,-1.356315231E1,-1.412578970E-1
1.617006000E0,3.912125587E0,-1.378102493E1,-4.213795066E-1
1.622010000E0,4.371812344E0,-1.398213768E1,-4.620809257E-1
1.627015000E0,4.580107689E0,-1.410903072E1,-2.825157940E-1
1.632020000E0,4.438849926E0,-1.415930843E1,-4.788403213E-2
1.636964000E0,4.101267338E0,-1.416409683E1,3.447650373E-1
1.641969000E0,3.514688015E0,-1.409227085E1,1.029506683E0
1.646974000E0,3.002328873E0,-1.397734928E1,1.532289028E0
1.651979000E0,2.528276920E0,-1.382890892E1,1.860294700E0
1.656983000E0,2.195482969E0,-1.370919895E1,2.078166962E0
1.661988000E0,1.740584612E0,-1.349611473E1,2.161964178E0
1.666993000E0,1.204283476E0,-1.317529202E1,2.102109194E0
1.671998000E0,8.882488012E-1,-1.255519390E1,1.953668594E0
1.677003000E0,6.272808313E-1,-1.199973869E1,1.465251446E0
1.682008000E0,3.447650373E-1,-1.151371574E1,7.182605267E-1
1.687013000E0,-4.788403399E-3,-1.104445267E1,2.896983922E-1
1.692018000E0,-3.926490843E-1,-1.052012253E1,5.027823523E-2
1.697022000E0,-9.457096457E-1,-9.919178009E0,-3.734954596E-1
1.701966000E0,-1.247379065E0,-9.581595421E0,-6.775590777E-1
1.706971000E0,-1.434126854E0,-9.361329079E0,-5.889736414E-1
1.711976000E0,-1.527500629E0,-9.425971985E0,-3.758896589E-1
1.716981000E0,-1.563413739E0,-9.935936928E0,-2.944868207E-1
1.721986000E0,-1.656787634E0,-1.079306126E1,-2.274491638E-1
1.726991000E0,-2.097320795E0,-1.218409252E1,-2.250549644E-1
1.731995000E0,-2.552218914E0,-1.320881081E1,-3.902548850E-1
1.737000000E0,-2.853888512E0,-1.429817295E1,-4.501099288E-1
1.742005000E0,-2.947262287E0,-1.540668774E1,-4.740519226E-1
1.747010000E0,-2.987963676E0,-1.629254341E1,-4.788403511E-1
1.752015000E0,-3.222595453E0,-1.667082596E1,-6.272808313E-1
1.757020000E0,-3.938461781E0,-1.632127380E1,-1.283292055E0
1.761964000E0,-4.070142746E0,-1.582806778E1,-1.781286120E0
1.766969000E0,-3.706224203E0,-1.532528496E1,-2.111685991E0
1.771973000E0,-3.126827478E0,-1.497333717E1,-2.003946781E0
1.776978000E0,-2.315192938E0,-1.485602188E1,-1.874659896E0
1.781983000E0,-1.680729628E0,-1.456392860E1,-2.109291792E0
1.786988000E0,-1.781286120E0,-1.429817295E1,-2.324769735E0
1.791993000E0,-1.668758631E0,-1.419522190E1,-2.094926596E0
1.796998000E0,-1.079784989E0,-1.415691471E1,-1.453280449E0
1.802003000E0,-5.315127969E-1,-1.398932076E1,-7.637503147E-1
1.807008000E0,-3.495534360E-1,-1.374990082E1,-2.082955539E-1
1.812012000E0,-3.902548850E-1,-1.354639339E1,1.364694983E-1
1.817017000E0,-1.675941199E-1,-1.330457878E1,5.913678408E-1
1.822022000E0,-8.619125932E-2,-1.310107136E1,1.130063176E0
1.826966000E0,2.442085743E-1,-1.286165142E1,1.534683347E0
1.831971000E0,8.930372596E-1,-1.269645119E1,1.630451322E0
1.836976000E0,1.429338455E0,-1.244984913E1,1.510741234E0
1.841981000E0,1.726219416E0,-1.218888092E1,1.319205165E0
1.846985000E0,1.546654344E0,-1.171482849E1,1.096544385E0
1.851990000E0,1.144428372E0,-1.116895103E1,7.422025204E-1
1.856995000E0,7.134721279E-1,-1.053927612E1,1.747767180E-1
1.862000000E0,4.860229492E-1,-9.789890289E0,-3.040636182E-1
1.867005000E0,4.189853072E-1,-8.949525833E0,-5.171475410E-1
1.872010000E0,3.447650373E-1,-8.157045364E0,-5.434837937E-1
1.877015000E0,2.753331959E-1,-7.256825447E0,-6.703764796E-1
1.882020000E0,1.268926859E-1,-6.572083473E0,-7.781155705E-1
1.886963000E0,-1.699883193E-1,-6.007051945E0,-6.560112834E-1
1.891968000E0,-4.836287498E-1,-5.564124584E0,-6.871358752E-1
1.896973000E0,-7.637503147E-1,-5.130774021E0,-8.116343617E-1
1.901978000E0,-9.672574997E-1,-4.661510944E0,-8.930372596E-1
1.906983000E0,-1.079784989E0,-4.173093796E0,-8.906430602E-1
1.911988000E0,-1.168370485E0,-3.998316765E0,-8.092401624E-1
1.916993000E0,-1.187524080E0,-3.842693806E0,-6.847416759E-1
1.921997000E0,-1.125274777E0,-3.677493811E0,-6.368576288E-1
1.927002000E0,-9.720458984E-1,-3.514688015E0,-5.913678408E-1
1.932007000E0,-7.230489254E-1,-3.373430252E0,-4.477157295E-1
1.937012000E0,-3.471592367E-1,-3.145981073E0,-4.333505034E-1
1.942017000E0,-1.843535304E-1,-2.999934673E0,-5.913678408E-1
1.947022000E0,5.746084079E-2,-2.944868088E0,-7.637503147E-1
1.951966000E0,5.267243832E-2,-2.798821688E0,-9.481038451E-1
1.956971000E0,-1.436521020E-2,-2.700659513E0,-1.194706678E0
1.961975000E0,-6.224924326E-2,-2.590526342E0,-1.436521053E0
1.966980000E0,-1.699883193E-1,-2.444479942E0,-1.704671621E0
1.971985000E0,-2.298433632E-1,-2.209848166E0,-1.860294700E0
1.976990000E0,-3.160346150E-1,-1.934514999E0,-1.958456993E0
1.981995000E0,-3.567360640E-1,-1.723825216E0,-2.035071373E0
1.987000000E0,-4.165911078E-1,-1.553836942E0,-2.027888775E0
1.992005000E0,-3.902548850E-1,-1.422155857E0,-2.039859772E0
1.997009000E0,-3.064578176E-1,-1.383848548E0,-1.965639591E0
2.002014000E0,-3.399766386E-1,-1.460463047E0,-1.752555609E0
2.007019000E0,-3.423708379E-1,-1.716642618E0,-1.537077546E0
2.011963000E0,-2.777273953E-1,-1.948880196E0,-1.381454349E0
2.016968000E0,-9.097966552E-2,-2.202665567E0,-1.204283476E0
2.021973000E0,1.268926859E-1,-2.432508945E0,-9.696516991E-1
2.026978000E0,4.812345505E-1,-2.770091295E0,-4.764461517E-1
2.031983000E0,6.847416759E-1,-3.026270866E0,-2.873042040E-2
2.036990000E0,7.469909191E-1,-3.193865061E0,6.440402865E-1
2.041995000E0,7.182605267E-1,-3.406949043E0,1.460463047E0
2.047000000E0,3.447650373E-1,-3.639186621E0,2.415749550E0
2.052005000E0,-2.992752194E-1,-3.921702385E0,3.600879431E0
2.057009000E0,-6.895300746E-1,-4.244919777E0,4.582501888E0
2.062014000E0,-8.140285611E-1,-4.544194698E0,5.667075634E0
2.067019000E0,-6.368576288E-1,-4.941632271E0,6.854599476E0
2.071963000E0,-3.447650373E-1,-5.566518784E0,8.173804283E0
2.076968000E0,8.619125932E-2,-6.428431511E0,9.823410034E0
2.081973000E0,1.086967587E0,-7.486668587E0,1.213381386E1
2.086978000E0,2.140416384E0,-9.014169693E0,1.369004536E1
2.091982000E0,3.098097086E0,-1.031422138E1,1.482489681E1
2.096987000E0,3.969586372E0,-1.165018559E1,1.550724411E1
2.101992000E0,4.620809078E0,-1.302445698E1,1.568920326E1
2.106997000E0,4.790797710E0,-1.430774975E1,1.538753414E1
2.112002000E0,4.311957359E0,-1.585440350E1,1.454716969E1
2.117007000E0,3.373430252E0,-1.698925591E1,1.350329781E1
2.122012000E0,2.166752577E0,-1.795890617E1,1.232774448E1
2.127017000E0,9.935936928E-1,-1.864604378E1,1.097980881E1
2.132021000E0,9.576806426E-2,-1.882321358E1,9.636661530E0
2.136965000E0,-4.285621047E-1,-1.847605515E1,8.592789650E0
2.141970000E0,-1.015141487E0,-1.753034401E1,7.989450932E0
2.146975000E0,-1.388636947E0,-1.656548119E1,7.891288757E0
2.151980000E0,-1.673547029E0,-1.545696640E1,7.757213593E0
2.156985000E0,-1.922544003E0,-1.446576691E1,7.338228226E0
2.161990000E0,-2.315192938E0,-1.370680428E1,6.744466305E0
2.166995000E0,-2.863465309E0,-1.339076996E1,6.057330132E0
2.171999000E0,-3.835511208E0,-1.370919895E1,4.944026470E0
2.177004000E0,-4.738125324E0,-1.438436413E1,3.703830004E0
2.182009000E0,-5.489904404E0,-1.516966152E1,2.236184359E0
2.187014000E0,-5.911283970E0,-1.579454899E1,1.340752959E0
2.192019000E0,-6.133944988E0,-1.619437981E1,1.625662923E0
2.196963000E0,-6.040570736E0,-1.640506935E1,3.251325846E0
2.201968000E0,-5.264849663E0,-1.666364288E1,5.786785603E0
2.206972000E0,-4.074931145E0,-1.674983597E1,7.584830761E0
2.211977000E0,-2.063801765E0,-1.641704178E1,7.977479935E0
2.216982000E0,7.900865376E-2,-1.565329075E1,7.560888767E0
2.221987000E0,1.762132406E0,-1.471955204E1,7.122750282E0
2.226992000E0,2.621650934E0,-1.367089176E1,6.430825710E0
2.231997000E0,2.633621931E0,-1.206677628E1,4.048594952E0
2.237002000E0,2.324769735E0,-1.029027843E1,7.254431248E-1
2.242007000E0,1.537077546E0,-8.209717751E0,-2.667140722E0
2.247011000E0,3.351882473E-2,-6.229712963E0,-4.896142483E0
2.252016000E0,-1.436521053E0,-4.235342979E0,-6.090848923E0
2.257021000E0,-2.585737944E0,-2.250549555E0,-6.622362137E0
2.261965000E0,-3.392583847E0,-5.027823523E-2,-7.287950039E0
2.266970000E0,-4.029441357E0,9.361328483E-1,-7.881711960E0
2.271975000E0,-4.556165695E0,1.091755986E0,-8.358158112E0
2.276980000E0,-4.783615112E0,5.793967843E-1,-8.346187592E0
2.281984000E0,-4.632780075E0,-3.806780577E-1,-7.498639584E0
2.286989000E0,-4.019864559E0,-1.723825216E0,-6.007051945E0
2.291994000E0,-2.497152328E0,-3.605667830E0,-3.801992416E0
2.296999000E0,-8.092401624E-1,-5.367800236E0,-1.994369984E0
2.302004000E0,1.070208192E0,-7.271190643E0,-6.943184733E-1
2.307009000E0,3.002328873E0,-9.210494041E0,-2.944868207E-1
2.312014000E0,4.867412090E0,-1.128866100E1,-7.900865674E-1
2.317019000E0,6.459556103E0,-1.343386555E1,-2.003946781E0
2.321962000E0,7.486668587E0,-1.571793461E1,-2.355894566E0
2.326967000E0,7.335834026E0,-1.684799767E1,-2.420537949E0
2.331972000E0,6.991068840E0,-1.725740623E1,-2.303221941E0
2.336977000E0,6.497863293E0,-1.720952225E1,-1.999158382E0
2.341982000E0,6.038176537E0,-1.668758583E1,-1.424550056E0
2.346987000E0,5.597643375E0,-1.589749908E1,-6.799532771E-1
2.351992000E0,4.745307922E0,-1.487517548E1,8.499416113E-1
2.356996000E0,3.785232782E0,-1.390312958E1,2.224213362E0
2.362001000E0,2.762908697E0,-1.267490387E1,3.533841610E0
2.367006000E0,1.572990537E0,-1.124795914E1,4.213795185E0
2.372011000E0,1.771709323E-1,-9.852140427E0,4.323928356E0
2.377016000E0,-1.237802267E0,-8.638279915E0,4.118026733E0
2.382021000E0,-2.839523315E0,-7.560888767E0,3.979163170E0
2.386965000E0,-3.804386616E0,-6.991068840E0,3.936067581E0
2.391970000E0,-4.319139957E0,-6.567295074E0,3.706224203E0
2.396974000E0,-4.378994942E0,-6.265625954E0,3.126827478E0
2.401979000E0,-4.060565948E0,-6.143521786E0,2.255337954E0
2.406984000E0,-3.086126089E0,-6.248866558E0,9.217676520E-1
2.411989000E0,-2.094926596E0,-6.667851925E0,-1.125274822E-1
2.416994000E0,-1.051054597E0,-7.184999466E0,-1.084573388E0
2.421999000E0,-4.788403399E-3,-7.819462776E0,-1.771709204E0
2.427004000E0,1.118092179E0,-8.528146744E0,-2.173935175E0
2.432008000E0,2.099714994E0,-9.198522568E0,-2.415749550E0
2.437013000E0,2.894589901E0,-9.780313492E0,-2.415749550E0
2.442018000E0,3.081337690E0,-9.981427193E0,-2.288856745E0
2.446962000E0,3.191470861E0,-9.715670586E0,-2.319981337E0
2.451967000E0,3.253720045E0,-9.253589630E0,-2.456450939E0
2.456972000E0,3.002328873E0,-8.626308441E0,-2.600103140E0
2.461977000E0,2.772485495E0,-8.025363922E0,-2.731784105E0
2.466982000E0,2.408566952E0,-7.395689011E0,-2.815581083E0
2.471986000E0,2.035071373E0,-7.113173485E0,-2.554613113E0
2.476991000E0,1.649604917E0,-6.964732647E0,-2.200271368E0
2.481996000E0,1.283292055E0,-6.964732647E0,-1.800439715E0
2.487001000E0,9.959878922E-1,-6.988674641E0,-1.393425345E0
2.492006000E0,6.967126727E-1,-7.137115479E0,-1.067813993E0
2.497011000E0,3.256114423E-1,-7.352593422E0,-6.943184733E-1
2.502016000E0,1.508347094E-1,-7.560888767E0,-4.094084799E-1
2.507020000E0,1.436521020E-2,-7.795520782E0,-4.309562966E-2
2.511964000E0,-1.197100803E-2,-7.975085735E0,2.609679997E-1
2.516969000E0,5.985504389E-2,-8.092401505E0,4.908113480E-1
2.521974000E0,1.963245422E-1,-8.161833763E0,6.560112834E-1
2.526979000E0,3.495534360E-1,-8.303091049E0,7.278373241E-1
2.531984000E0,5.219359994E-1,-8.398859978E0,6.320692301E-1
2.536806000E0,7.876923680E-1,-8.571242332E0,2.801215947E-1
2.541994000E0,9.552865028E-1,-8.820239067E0,2.873042040E-2
2.546998000E0,1.168370485E0,-9.174580574E0,-2.561795712E-1
2.552003000E0,1.312022567E0,-9.478644371E0,-4.668693244E-1
2.557008000E0,1.316810966E0,-9.923966408E0,-5.219359994E-1
2.562013000E0,1.290474772E0,-1.017296314E1,-4.189853072E-1
2.567018000E0,1.221042871E0,-1.034774017E1,-2.466027737E-1
2.571962000E0,1.086967587E0,-1.047223854E1,-1.005564705E-1
2.576967000E0,9.504981041E-1,-1.055603504E1,-5.027823523E-2
2.581971000E0,8.379706144E-1,-1.055603504E1,-4.548983276E-2
2.586976000E0,6.536170840E-1,-1.049139214E1,4.548983276E-2
2.591981000E0,4.955997467E-1,-1.031900978E1,2.178723514E-1
2.596986000E0,3.878606856E-1,-1.016099167E1,4.668693244E-1
2.601991000E0,2.035071403E-1,-9.991003990E0,7.876923680E-1
2.606996000E0,-4.788403213E-2,-9.880870819E0,1.197100878E0
2.612001000E0,-7.182604820E-2,-9.847352028E0,1.582567334E0
2.617006000E0,3.040636182E-1,-9.849745750E0,1.877054095E0
2.622010000E0,7.278373241E-1,-9.945513725E0,1.886630893E0
2.627015000E0,1.137245774E0,-1.007480049E1,1.738190413E0
2.632020000E0,1.436521053E0,-1.019211674E1,1.453280449E0
2.636964000E0,1.628057122E0,-1.033337498E1,1.115697980E0
2.641969000E0,1.709460020E0,-1.041717148E1,8.116343617E-1
2.646974000E0,1.750161409E0,-1.054406452E1,4.955997467E-1
2.651979000E0,1.716642618E0,-1.060870743E1,2.561795712E-1
2.656983000E0,1.611297727E0,-1.071644688E1,1.268926859E-1
2.661988000E0,1.553836942E0,-1.069250488E1,1.053448766E-1
2.666993000E0,1.551442742E0,-1.066137981E1,1.580173075E-1
2.671998000E0,1.620874524E0,-1.065659142E1,2.561795712E-1
2.677003000E0,1.810016513E0,-1.059434223E1,2.729389966E-1
2.682008000E0,2.114080191E0,-1.061828423E1,1.771709323E-1
2.687013000E0,2.511517525E0,-1.069489861E1,-7.422025502E-2
2.692018000E0,2.961627483E0,-1.083376312E1,-5.003881454E-1
2.697022000E0,3.440467834E0,-1.104205799E1,-1.022324085E0
2.701966000E0,3.871424198E0,-1.137245846E1,-1.496376038E0
2.706971000E0,4.165910721E0,-1.190875912E1,-1.958456993E0
2.711976000E0,4.199429989E0,-1.228704357E1,-2.037465572E0
2.716981000E0,3.883395195E0,-1.267729759E1,-1.668758631E0
2.721986000E0,3.239354849E0,-1.298614979E1,-1.000776291E0
2.726991000E0,2.463633537E0,-1.312501335E1,-2.226607651E-1
2.731995000E0,1.814804912E0,-1.308670616E1,5.051765442E-1
2.737000000E0,1.149216771E0,-1.290474701E1,1.376665950E0
2.742005000E0,8.930372596E-1,-1.271799946E1,1.922544003E0
2.747010000E0,8.499416113E-1,-1.258392429E1,2.173935175E0
2.752015000E0,1.079784989E0,-1.251449203E1,2.236184359E0
2.757020000E0,1.448492050E0,-1.241872406E1,2.245761156E0
2.761964000E0,2.020706177E0,-1.239717674E1,2.516305923E0
2.766969000E0,2.815581083E0,-1.253364563E1,2.901772499E0
2.771973000E0,3.418920040E0,-1.276109505E1,2.980781078E0
2.776978000E0,4.034229755E0,-1.315853214E1,2.736572504E0
2.781983000E0,4.546588898E0,-1.371877575E1,2.159569979E0
2.786988000E0,4.853046894E0,-1.429098988E1,1.228225470E0
2.791993000E0,5.027823448E0,-1.487517548E1,4.141969085E-1
2.796998000E0,4.819528103E0,-1.539471722E1,8.858546615E-2
2.802003000E0,4.436455727E0,-1.543541813E1,5.817909837E-1
2.807008000E0,3.900154591E0,-1.492784786E1,1.079784989E0
2.812012000E0,3.670311213E0,-1.385285091E1,1.211466074E0
2.817017000E0,4.041412354E0,-1.280658531E1,6.943184733E-1
2.822022000E0,4.115632534E0,-1.174595356E1,-7.517793179E-1
2.826966000E0,3.538630009E0,-1.108275986E1,-1.240196466E0
2.831971000E0,2.509123325E0,-1.068053341E1,-1.156399369E0
2.836976000E0,1.175553083E0,-1.061828423E1,-8.523358107E-1
2.841981000E0,-5.722141862E-1,-1.087446404E1,-5.027823523E-2
2.846985000E0,-2.588132143E0,-1.119049835E1,1.106121182E0
2.851990000E0,-4.580107689E0,-1.173877048E1,2.176329374E0
2.856995000E0,-5.449203014E0,-1.270363426E1,2.269703150E0
2.862000000E0,-5.719748020E0,-1.365892029E1,1.685518026E0
2.867005000E0,-5.506663799E0,-1.470518684E1,6.919242740E-1
2.872010000E0,-5.049371243E0,-1.578018379E1,-2.609679997E-1
2.877015000E0,-4.446032524E0,-1.694615936E1,-9.361328483E-1
2.882020000E0,-4.012681961E0,-1.793017578E1,-1.663970232E0
2.886963000E0,-3.869029999E0,-1.817917442E1,-2.212242365E0
2.891968000E0,-3.581725836E0,-1.834916115E1,-2.406172752E0
2.896973000E0,-3.074155092E0,-1.833240318E1,-2.612074137E0
2.901978000E0,-2.430114746E0,-1.797805977E1,-2.686294317E0
2.906983000E0,-1.647210717E0,-1.748246002E1,-2.281674147E0
2.911988000E0,-4.118026793E-1,-1.688391113E1,-1.939303398E0
2.916993000E0,8.619125932E-2,-1.638591576E1,-2.389413357E0
2.921997000E0,4.333505034E-1,-1.601960373E1,-2.698265314E0
2.927002000E0,1.046266198E0,-1.546654320E1,-2.908955097E0
2.931885000E0,7.876923680E-1,-1.495178986E1,-2.126051188E0
2.937989000E0,3.854664862E-1,-1.489911747E1,-1.051054597E0
2.942993000E0,3.088520169E-1,-1.494700146E1,9.576806426E-2
2.947998000E0,5.793967843E-1,-1.473391724E1,4.118026793E-1
2.953003000E0,7.589619160E-1,-1.448492050E1,-3.351882473E-2
2.958008000E0,9.433154464E-1,-1.421198082E1,-5.530605912E-1
2.963013000E0,1.058237195E0,-1.378581333E1,-9.121908545E-1
2.968018000E0,9.313444495E-1,-1.315853214E1,-9.648633003E-1
2.972962000E0,7.972691655E-1,-1.235647488E1,-8.092401624E-1
2.977967000E0,8.259995580E-1,-1.121204662E1,-5.243301988E-1
2.982971000E0,6.823474765E-1,-1.058716011E1,-2.489969730E-1
2.987976000E0,1.149216816E-1,-9.847352028E0,-2.896983922E-1
2.992981000E0,-3.543418646E-1,-8.884882927E0,-5.243301988E-1
2.997986000E0,-6.129156351E-1,-7.795520782E0,-6.799532771E-1
3.002991000E0,-6.607996821E-1,-6.828263283E0,-6.847416759E-1
3.007996000E0,-5.913678408E-1,-5.798756599E0,-6.488286853E-1
3.013001000E0,-1.556231081E-1,-5.037400246E0,-9.026140571E-1
3.018006000E0,2.154781483E-2,-4.388571739E0,-1.187524080E0
3.023010000E0,-7.182605099E-3,-3.845088005E0,-1.362300754E0
3.028015000E0,-9.576806426E-2,-3.351882458E0,-1.419761658E0
3.032962000E0,-1.268926859E-1,-3.021482468E0,-1.429338455E0
3.037967000E0,-3.830722570E-1,-2.664746523E0,-1.417367458E0
3.042971000E0,-5.698199868E-1,-2.427720547E0,-1.388636947E0
3.047976000E0,-5.961562395E-1,-2.181117773E0,-1.383848548E0
3.052981000E0,-4.596867263E-1,-2.054224968E0,-1.398213744E0
3.057986000E0,-1.029506698E-1,-1.948880196E0,-1.465251446E0
3.062991000E0,2.442085743E-1,-1.795651317E0,-1.553836942E0
3.067996000E0,2.896983922E-1,-1.704671621E0,-1.661576033E0
3.073001000E0,3.782838583E-1,-1.668758631E0,-1.807622313E0
3.078005000E0,3.663128614E-1,-1.680729628E0,-2.020706177E0
3.083010000E0,2.537853718E-1,-1.668758631E0,-2.243366957E0
3.088015000E0,1.580173075E-1,-1.687912226E0,-2.473210335E0
3.093020000E0,-8.858546615E-2,-1.699883223E0,-2.650381327E0
3.097964000E0,-4.070142806E-1,-1.618480325E0,-2.940079689E0
3.102969000E0,-5.722141862E-1,-1.644816518E0,-3.124433279E0
3.107974000E0,-7.541735172E-1,-1.731007814E0,-3.239354849E0
3.112979000E0,-9.074024558E-1,-1.845929503E0,-3.282450438E0
3.117983000E0,-1.039083481E0,-1.972822189E0,-3.301604033E0
3.122988000E0,-1.242590666E0,-2.078166962E0,-3.342305660E0
3.127993000E0,-1.582567334E0,-2.173935175E0,-3.301604033E0
3.132998000E0,-1.733402014E0,-2.133233786E0,-3.232172251E0
3.138003000E0,-1.790862918E0,-2.099714994E0,-2.999934673E0
3.143008000E0,-1.877054095E0,-2.001552582E0,-2.607285738E0
3.148013000E0,-1.924938202E0,-1.872265697E0,-2.121262789E0
3.153017000E0,-1.936909199E0,-1.807622313E0,-1.714248419E0
3.158022000E0,-1.946485996E0,-1.843535304E0,-6.943184733E-1
3.162966000E0,-1.944091797E0,-1.948880196E0,2.274491638E-1
3.167971000E0,-1.738190413E0,-2.140416384E0,1.309628367E0
3.172976000E0,-1.326387763E0,-2.482787132E0,2.506729126E0
3.177981000E0,-5.746083856E-1,-3.033453465E0,3.804386616E0
3.182986000E0,1.268926859E-1,-3.835511208E0,5.566518784E0
3.187991000E0,1.041477680E0,-5.166687489E0,7.141903877E0
3.192995000E0,1.596932530E0,-6.517016888E0,9.109937668E0
3.198000000E0,1.980004787E0,-8.066065788E0,1.135091019E1
3.203005000E0,2.207453966E0,-9.861717224E0,1.384806252E1
3.208010000E0,2.133233786E0,-1.191354752E1,1.621592903E1
3.213015000E0,1.917755604E0,-1.476025391E1,1.817199135E1
3.218020000E0,1.805228114E0,-1.714487839E1,1.834437370E1
3.222964000E0,1.644816518E0,-1.946007156E1,1.754231644E1
3.227968000E0,1.309628367E0,-2.182075500E1,1.643619537E1
3.232973000E0,1.103726983E0,-2.408327484E1,1.498291397E1
3.237978000E0,1.192312479E0,-2.579512978E1,1.306037045E1
3.242983000E0,1.383848548E0,-2.630030632E1,1.018493366E1
3.247988000E0,1.441309452E0,-2.438973236E1,8.798690796E0
3.252993000E0,1.544260144E0,-2.119347382E1,8.497021675E0
3.257998000E0,1.680729628E0,-1.757344055E1,8.693346024E0
3.263003000E0,1.628057122E0,-1.427423096E1,8.796297073E0
3.268007000E0,1.503558636E0,-1.145625496E1,8.564059258E0
3.273012000E0,1.352723956E0,-8.731653214E0,7.766790390E0
3.278017000E0,1.072602391E0,-7.115567684E0,6.732495308E0
3.283022000E0,5.243301988E-1,-5.983109951E0,5.621585369E0
3.287966000E0,-2.274491638E-1,-5.276820660E0,4.604049683E0
3.292971000E0,-1.043871999E0,-5.073313236E0,3.600879431E0
3.297976000E0,-1.910573006E0,-5.377377033E0,2.767697096E0
3.302980000E0,-3.076549292E0,-6.117185116E0,1.939303398E0
3.307985000E0,-3.617638826E0,-7.235277653E0,1.587355733E0
3.312990000E0,-3.809175014E0,-8.157045364E0,1.683123827E0
3.317995000E0,-3.584120035E0,-9.095572472E0,2.178723574E0
3.323000000E0,-2.748543501E0,-1.008916569E1,2.868253708E0
3.328005000E0,-1.350329757E0,-1.117852783E1,3.066972494E0
3.333010000E0,2.753331959E-1,-1.295263100E1,2.073378563E0
3.338015000E0,1.043871999E0,-1.480574322E1,1.041477680E0
3.343019000E0,1.316810966E0,-1.693179512E1,1.628057212E-1
3.347963000E0,1.333570361E0,-1.900996208E1,-8.068459630E-1
3.352968000E0,1.383848548E0,-2.075533485E1,-1.673547029E0
3.357973000E0,1.472434044E0,-2.197398376E1,-1.403002143E0
3.362978000E0,1.165976286E0,-2.238099670E1,3.280056417E-1
3.367983000E0,1.436521053E0,-2.125093460E1,2.181117773E0
3.372988000E0,1.877054095E0,-1.851436234E1,3.258508444E0
3.377992000E0,2.066195965E0,-1.485123348E1,2.398990154E0
3.382997000E0,2.032677174E0,-1.124795914E1,6.224924326E-2
3.388002000E0,1.714248419E0,-8.020575523E0,-2.715024710E0
3.393007000E0,2.106897533E-1,-4.620809078E0,-5.695806026E0
3.398012000E0,-1.431732655E0,-2.322375536E0,-6.964732647E0
3.403017000E0,-2.911349297E0,-5.339069963E-1,-6.679822922E0
3.408022000E0,-4.426878929E0,4.405331016E-1,-4.836287498E0
3.412966000E0,-5.705382824E0,6.655880809E-1,-2.657563925E0
3.417970000E0,-6.605602264E0,3.040636182E-1,-4.141969085E-1
3.422975000E0,-7.247248650E0,-8.930372596E-1,1.898601890E0
3.427980000E0,-6.842628479E0,-2.135627985E0,2.509123325E0
3.432985000E0,-5.365406036E0,-3.541024208E0,1.968033791E0
3.437990000E0,-3.203441858E0,-5.336675644E0,3.064578176E-1
3.442995000E0,-8.427590132E-1,-7.536946774E0,-1.616086125E0
3.448000000E0,8.307880163E-1,-9.818621635E0,-2.669534922E0
3.453005000E0,3.153163671E0,-1.211226654E1,-3.469198227E0
3.458009000E0,4.553771496E0,-1.339795303E1,-4.141968727E0
3.463014000E0,4.740519524E0,-1.420958710E1,-4.642356873E0
3.468019000E0,4.364629745E0,-1.448013210E1,-5.202600479E0
3.472963000E0,4.192247391E0,-1.441788292E1,-5.544970989E0
3.477968000E0,4.393360138E0,-1.430296135E1,-5.240907669E0
3.482973000E0,5.066130638E0,-1.409945393E1,-3.797203779E0
3.487978000E0,5.793968201E0,-1.383609200E1,-1.970427990E0
3.492982000E0,6.344634533E0,-1.342668343E1,-1.197100803E-2
3.497987000E0,6.325480938E0,-1.282334423E1,1.781286120E0
3.502992000E0,5.743690014E0,-1.201649857E1,3.251325846E0
3.507997000E0,4.797980309E0,-1.118570995E1,4.189853191E0
3.513002000E0,3.110068083E0,-1.003409958E1,4.338293552E0
3.518007000E0,1.690306425E0,-9.155426979E0,3.921702385E0
3.523012000E0,5.195417404E-1,-8.315062523E0,3.105279684E0
3.528017000E0,-1.197100878E-1,-7.558494568E0,2.080561161E0
3.533021000E0,-2.992752194E-1,-6.909666061E0,1.007958889E0
3.537965000E0,-3.232172430E-1,-6.356605530E0,-1.388636976E-1
3.542970000E0,-3.112462163E-1,-5.808333397E0,-1.486799240E0
3.547975000E0,-3.351882398E-1,-5.523423195E0,-2.231395960E0
3.552980000E0,-5.506663918E-1,-5.422866821E0,-2.659958124E0
3.559022000E0,-8.930372596E-1,-5.501875401E0,-2.741360903E0
3.563966000E0,-1.031900883E0,-5.492298603E0,-2.863465309E0
3.568971000E0,-1.074996591E0,-5.427655220E0,-2.777273893E0
3.573976000E0,-1.039083481E0,-5.535394192E0,-2.365471363E0
3.578981000E0,-8.331822157E-1,-5.963956356E0,-1.831564307E0
3.583986000E0,-5.698199868E-1,-6.497863293E0,-1.668758631E0
3.588990000E0,-1.053448766E-1,-7.098807812E0,-1.805228114E0
3.593995000E0,6.153098345E-1,-7.788338184E0,-2.181117773E0
3.599000000E0,9.528923035E-1,-8.413225174E0,-2.379836559E0
3.604005000E0,9.648633003E-1,-9.160215378E0,-2.542642117E0
3.609010000E0,7.948749661E-1,-9.581595421E0,-2.446874142E0
3.614015000E0,6.200982332E-1,-9.868899345E0,-2.063801765E0
3.619020000E0,4.046200812E-1,-9.943120003E0,-1.493981838E0
3.623964000E0,1.867477298E-1,-9.835380554E0,-7.541735172E-1
3.628968000E0,4.309562966E-2,-9.588777542E0,-1.915361360E-2
3.633973000E0,-2.394201607E-2,-9.260771751E0,8.762778044E-1
3.638978000E0,5.746084079E-2,-8.781931877E0,1.335964561E0
3.643983000E0,2.466027737E-1,-8.477868080E0,1.592144132E0
3.648988000E0,5.889736414E-1,-8.238448143E0,1.623268723E0
3.653993000E0,1.015141487E0,-8.049305916E0,1.434126854E0
3.658998000E0,1.410184860E0,-8.020575523E0,1.110909581E0
3.664003000E0,1.838746905E0,-8.161833763E0,7.422025204E-1
3.669007000E0,2.159569979E0,-8.336610794E0,5.770025849E-1
3.674012000E0,2.394201756E0,-8.542511940E0,4.548983276E-1
3.679017000E0,2.547430515E0,-8.829815865E0,4.261679053E-1
3.684022000E0,2.592920542E0,-9.112331390E0,5.410895944E-1
3.688966000E0,2.494758129E0,-9.346963882E0,8.140285611E-1
3.693971000E0,2.097320795E0,-9.579200745E0,1.187524080E0
3.698976000E0,1.549048543E0,-9.873687744E0,1.197100878E0
3.703980000E0,9.337386489E-1,-1.015141487E1,1.055842996E0
3.708985000E0,3.303998411E-1,-1.044350815E1,8.379706144E-1
3.713990000E0,-1.628057212E-1,-1.075475407E1,7.278373241E-1
3.718995000E0,-5.075707436E-1,-1.094389629E1,9.720458984E-1
3.724000000E0,-4.812345505E-1,-1.094389629E1,1.424550056E0
3.729005000E0,-1.221042871E-1,-1.078108978E1,1.575384736E0
3.734010000E0,2.992752194E-1,-1.068053341E1,1.367089152E0
3.738831000E0,6.655880809E-1,-1.078587818E1,7.398083210E-1
3.744019000E0,8.307880163E-1,-1.094629002E1,3.399766386E-1
3.748963000E0,9.744400978E-1,-1.120007515E1,-4.788403213E-2
3.753968000E0,1.070208192E0,-1.147780323E1,-2.944868207E-1
3.758973000E0,1.101332784E0,-1.163342571E1,-4.022258818E-1
3.763978000E0,1.139639974E0,-1.166215611E1,-6.177040339E-1
3.768983000E0,1.168370485E0,-1.154723454E1,-8.044517636E-1
3.773988000E0,1.290474772E0,-1.129344940E1,-1.031900883E0
3.778992000E0,1.616086125E0,-1.092474270E1,-1.218648672E0
3.783997000E0,2.410961151E0,-1.060152531E1,-1.477222443E0
3.789002000E0,3.256114244E0,-1.058237171E1,-1.745373011E0
3.794007000E0,4.141968727E0,-1.083136845E1,-1.996764183E0
3.799012000E0,4.836287498E0,-1.134372807E1,-2.051830769E0
3.804017000E0,5.267243862E0,-1.203325748E1,-1.941697598E0
3.809022000E0,5.446808815E0,-1.261026001E1,-1.798045516E0
3.813966000E0,5.195417881E0,-1.325908947E1,-1.096544385E0
3.818970000E0,4.702212334E0,-1.364216137E1,-3.615244627E-1
3.823975000E0,4.165910721E0,-1.386242771E1,4.070142806E-1
3.828980000E0,3.806780815E0,-1.395340729E1,1.031900883E0
3.833985000E0,3.464409828E0,-1.389834118E1,1.517923832E0
3.838990000E0,3.150769472E0,-1.374271774E1,1.900996208E0
3.843995000E0,2.940079689E0,-1.347935581E1,2.236184359E0
3.849000000E0,2.925714493E0,-1.329021358E1,2.516305923E0
3.854004000E0,3.114856482E0,-1.315853214E1,2.774879694E0
3.859009000E0,3.373430252E0,-1.314656162E1,2.894589901E0
3.864014000E0,3.485957623E0,-1.306755257E1,2.949656487E0
3.869019000E0,3.550601006E0,-1.300530338E1,3.009511471E0
3.873963000E0,3.502717018E0,-1.300530338E1,3.160346270E0
3.878968000E0,3.359065056E0,-1.307473564E1,3.299209833E0
3.883973000E0,3.040636063E0,-1.307234097E1,3.224989653E0
3.888978000E0,2.652775526E0,-1.298375607E1,2.923320293E0
3.893982000E0,2.521094322E0,-1.284010410E1,2.561795712E0
3.898987000E0,2.664746523E0,-1.251449203E1,2.375048161E0
3.903992000E0,3.011905670E0,-1.186087513E1,1.970427990E0
3.908997000E0,3.224989653E0,-1.130781460E1,8.499416113E-1
3.914002000E0,3.361459255E0,-1.091755962E1,-7.038952708E-1
3.919007000E0,3.450044632E0,-1.063504410E1,-1.711854219E0
3.924012000E0,3.339911461E0,-1.031661510E1,-1.980004787E0
3.929016000E0,3.105279684E0,-1.012507915E1,-1.769315004E0
3.934021000E0,2.054224968E0,-1.036210537E1,-1.489193439E0
3.938965000E0,5.578489900E-1,-1.085770512E1,-1.010353088E0
3.943970000E0,-1.216254473E0,-1.148498535E1,-9.816227108E-2
3.948975000E0,-2.997540474E0,-1.216493893E1,6.679822803E-1
3.953980000E0,-4.228160381E0,-1.284249783E1,7.805097699E-1
3.958985000E0,-4.888959885E0,-1.357512379E1,3.639186621E-1
3.963990000E0,-5.140350819E0,-1.466687965E1,-3.830722570E-1
3.968994000E0,-5.106832027E0,-1.552879238E1,-9.768342972E-1
3.973999000E0,-4.951209068E0,-1.644098282E1,-1.290474772E0
3.979004000E0,-4.771644115E0,-1.731007767E1,-1.446097851E0
3.984009000E0,-4.678270340E0,-1.791581154E1,-1.508347034E0
3.989014000E0,-4.508281708E0,-1.812889481E1,-1.218648672E0
3.994019000E0,-3.833117008E0,-1.819353867E1,-8.595184088E-1
3.998963000E0,-3.313575268E0,-1.805706978E1,-5.363011956E-1
4.003967000E0,-3.102885485E0,-1.776018906E1,-4.141969085E-1
4.008972000E0,-2.908955097E0,-1.753034401E1,-4.070142806E-1
4.013977000E0,-2.583343744E0,-1.741063499E1,-4.596867263E-1
4.018982000E0,-2.281674147E0,-1.727177048E1,-7.422025204E-1
4.023987000E0,-1.714248419E0,-1.696291924E1,-2.133233786E0
4.028992000E0,-1.223437071E0,-1.645774269E1,-2.777273893E0
4.033938000E0,-5.195417404E-1,-1.575863552E1,-1.944091797E0
4.039004000E0,-1.651999205E-1,-1.516247940E1,-6.009446383E-1
4.044009000E0,4.309562966E-2,-1.466687965E1,3.926490843E-1
4.049014000E0,3.136404157E-1,-1.409945393E1,5.171475410E-1
4.054019000E0,6.009446383E-1,-1.341950035E1,2.154781483E-2
4.058963000E0,9.552865028E-1,-1.300051498E1,-3.423708379E-1
4.063967000E0,1.005564690E0,-1.264856720E1,-6.440402865E-1
4.068972000E0,9.289502501E-1,-1.242351246E1,-7.134721279E-1
4.073977000E0,8.068459630E-1,-1.224155331E1,-6.488286853E-1
4.078982000E0,5.530605912E-1,-1.192073059E1,-8.786720037E-1
4.083987000E0,3.639186621E-1,-1.134372807E1,-1.142034173E0
4.088992000E0,1.125274822E-1,-1.083855152E1,-1.288080573E0
4.093997000E0,-2.178723514E-1,-1.019690514E1,-1.343147159E0
4.099002000E0,-6.009446383E-1,-9.172186852E0,-1.608903527E0
4.104006000E0,-5.985504389E-1,-8.013393402E0,-1.738190413E0
4.109011000E0,-6.943184882E-2,-6.742072105E0,-1.403002143E0
4.114016000E0,2.585737705E-1,-5.971138954E0,-1.053448796E0
4.119021000E0,5.339069963E-1,-5.408501625E0,-9.193734527E-1
4.123965000E0,6.584054828E-1,-4.888959885E0,-1.005564690E0
4.128970000E0,6.153098345E-1,-4.333505154E0,-1.043871999E0
4.133975000E0,6.488286853E-1,-3.766079187E0,-1.137245774E0
4.138979000E0,5.099649429E-1,-2.980781078E0,-1.340752959E0
4.143984000E0,4.357447028E-1,-2.406172752E0,-1.455674648E0
4.148989000E0,4.118026793E-1,-2.018311977E0,-1.438915253E0
4.153994000E0,2.681505978E-1,-1.807622313E0,-1.300051570E0
4.158999000E0,1.436521020E-2,-1.747767210E0,-1.108515382E0
4.164004000E0,-2.298433632E-1,-1.781286120E0,-9.217676520E-1
4.169009000E0,-4.596867263E-1,-1.833958507E0,-7.206547260E-1
4.174014000E0,-5.650315881E-1,-1.879448295E0,-6.607996821E-1
4.179018000E0,-6.392518282E-1,-1.905784607E0,-6.272808313E-1
4.183962000E0,-6.943184733E-1,-1.905784607E0,-6.607996821E-1
4.188967000E0,-6.416460276E-1,-1.934514999E0,-7.781155705E-1
4.193972000E0,-6.560112834E-1,-1.843535304E0,-9.026140571E-1
4.198977000E0,-7.805097699E-1,-1.616086125E0,-1.180341482E0
4.203982000E0,-8.092401624E-1,-1.434126854E0,-1.503558636E0
4.208987000E0,-8.810662031E-1,-1.268926859E0,-1.833958507E0
4.213991000E0,-1.027112484E0,-1.130063176E0,-2.078166962E0
4.218996000E0,-1.053448796E0,-9.935936928E-1,-2.365471363E0
4.224001000E0,-8.690952063E-1,-9.576807022E-1,-2.592920542E0
4.229006000E0,-7.230489254E-1,-1.043871999E0,-2.774879694E0
4.234011000E0,-6.823474765E-1,-1.146822572E0,-2.729389906E0
4.239016000E0,-6.799532771E-1,-1.213860273E0,-2.554613113E0
4.244021000E0,-7.254431248E-1,-1.264138460E0,-2.398990154E0
4.248965000E0,-7.015010715E-1,-1.271321058E0,-2.111685991E0
4.253969000E0,-6.129156351E-1,-1.314416766E0,-1.577778935E0
4.258791000E0,-6.607996821E-1,-1.470039845E0,-8.188169599E-1
4.263918000E0,-8.738836050E-1,-1.702277422E0,-9.097966552E-2
4.268984000E0,-1.043871999E0,-2.066195965E0,6.679822803E-1
4.273989000E0,-1.268926859E0,-2.525882721E0,1.546654344E0
4.278994000E0,-1.362300754E0,-3.124433279E0,2.525882721E0
4.283999000E0,-1.414973259E0,-3.900154591E0,3.543418407E0
4.289003000E0,-1.144428372E0,-5.046977043E0,5.046977043E0
4.294008000E0,-8.212111592E-1,-6.227318764E0,6.294356346E0
4.299013000E0,-3.088520169E-1,-7.649474621E0,7.874529362E0
4.304018000E0,3.758896589E-1,-9.287108421E0,9.919178009E0
4.308962000E0,1.031900883E0,-1.114500904E1,1.204283428E1
4.313967000E0,1.467645645E0,-1.323514652E1,1.389115810E1
4.318972000E0,1.924938202E0,-1.602918053E1,1.542105293E1
4.323977000E0,2.315192938E0,-1.827015305E1,1.610100555E1
4.328981000E0,2.825158119E0,-2.033874321E1,1.651759720E1
4.333986000E0,3.526659012E0,-2.226847076E1,1.666124916E1
4.338991000E0,4.108449936E0,-2.389173889E1,1.630451393E1
4.343996000E0,4.800374508E0,-2.466745949E1,1.491108799E1
4.349001000E0,5.238513470E0,-2.381512451E1,1.372116947E1
4.354006000E0,5.403713226E0,-2.155499840E1,1.303882217E1
4.359011000E0,5.269638062E0,-1.872026253E1,1.255279922E1
4.364015000E0,4.805162907E0,-1.586158657E1,1.188242340E1
4.369020000E0,3.988739967E0,-1.327345467E1,1.076193619E1
4.373964000E0,2.796427488E0,-1.105881786E1,9.330204010E0
4.378969000E0,7.661445141E-1,-8.939949036E0,6.938396454E0
4.383974000E0,-1.106121182E0,-7.793126583E0,4.879383087E0
4.388979000E0,-2.715024710E0,-7.058106422E0,3.246537447E0
4.393984000E0,-3.974374771E0,-6.830657482E0,1.932120800E0
4.398989000E0,-4.757278919E0,-7.046135426E0,1.091755986E0
4.403993000E0,-5.832275391E0,-7.747636795E0,4.381389022E-1
4.408998000E0,-6.483498096E0,-9.385271072E0,4.764461517E-1
4.414003000E0,-6.914454460E0,-1.137245846E1,9.481038451E-1
4.419008000E0,-6.959944248E0,-1.378820801E1,1.620874524E0
4.424013000E0,-6.485892296E0,-1.665646172E1,1.714248419E0
4.429018000E0,-5.257667065E0,-1.983117294E1,1.604115129E0
4.434023000E0,-2.667140722E0,-2.322854424E1,1.182735682E0
4.438966000E0,2.202665508E-1,-2.670013809E1,3.112462163E-2
4.443971000E0,3.141192675E0,-2.836410713E1,-6.296750307E-1
4.448976000E0,5.626373768E0,-2.827791595E1,7.469909191E-1
4.453981000E0,6.909666061E0,-2.587653160E1,1.881842494E0
4.458986000E0,6.402095318E0,-2.098038864E1,-5.171475410E-1
4.463991000E0,5.482721806E0,-1.340513515E1,-6.119579315E0
4.468996000E0,4.726154327E0,-7.852981567E0,-1.024239445E1
4.474001000E0,2.894589901E0,-3.567360640E0,-1.259110641E1
4.479005000E0,3.351882473E-2,-4.501099288E-1,-1.302924538E1
4.484010000E0,-2.937685490E0,1.752555609E0,-1.139640045E1
4.489015000E0,-5.638344765E0,3.294421434E0,-8.262390137E0
4.494020000E0,-9.069235802E0,4.386177540E0,-3.337517262E0
4.498964000E0,-1.134612179E1,4.484339714E0,1.977610588E0
4.503969000E0,-1.303403378E1,3.974374771E0,7.536946774E0
4.508974000E0,-1.351526833E1,2.786850691E0,9.215282440E0
4.513978000E0,-1.200452709E1,6.871358752E-1,6.339846134E0
4.518983000E0,-8.662221909E0,-2.042253971E0,1.699883223E0
4.523988000E0,-3.919308186E0,-5.525817394E0,-2.518700123E0
4.528993000E0,-2.657563984E-1,-8.341399193E0,-4.309563160E0
4.533998000E0,3.088520288E0,-1.138203526E1,-5.679046631E0
4.539003000E0,4.556165695E0,-1.408269405E1,-6.983886242E0
4.544008000E0,4.711789131E0,-1.598608494E1,-8.283937454E0
4.549013000E0,4.855441093E0,-1.689109230E1,-9.282320023E0
4.554017000E0,5.001487255E0,-1.708023453E1,-9.686940193E0
4.559022000E0,5.614402771E0,-1.704911041E1,-8.880094528E0
4.563966000E0,6.591237068E0,-1.719515610E1,-6.382941723E0
4.568971000E0,8.066065788E0,-1.715924263E1,-2.882618904E0
4.573976000E0,9.452308655E0,-1.691503525E1,8.164227605E-1
4.578981000E0,1.030224991E1,-1.634760857E1,3.921702385E0
4.583986000E0,1.009634876E1,-1.495178986E1,5.829881191E0
4.588990000E0,8.494627953E0,-1.360624790E1,5.834669590E0
4.593995000E0,6.222530365E0,-1.216493893E1,4.836287498E0
4.599000000E0,3.895366192E0,-1.073081207E1,3.691859007E0
4.604005000E0,1.944091797E0,-9.536105156E0,2.822763920E0
4.609010000E0,5.817909837E-1,-8.437167168E0,2.226607561E0
4.614015000E0,-6.009446383E-1,-7.153874874E0,1.288080573E0
4.619020000E0,-1.369483352E0,-6.277596951E0,9.816227108E-2
4.623964000E0,-1.651999116E0,-5.578489780E0,-9.457096457E-1
4.628968000E0,-1.771709204E0,-5.104437828E0,-1.838746905E0
4.633973000E0,-1.924938202E0,-4.886565685E0,-2.427720547E0
4.638978000E0,-1.920149803E0,-4.905719280E0,-2.770091295E0
4.643983000E0,-1.762132406E0,-5.334281445E0,-2.794033289E0
4.648988000E0,-1.831564307E0,-5.793968201E0,-2.561795712E0
4.653993000E0,-1.728613615E0,-6.157886982E0,-2.279279947E0
4.658998000E0,-1.321599364E0,-6.543353081E0,-2.128445387E0
4.663819000E0,-5.889736414E-1,-7.034164429E0,-2.104503393E0
4.669007000E0,-2.729389966E-1,-7.333439827E0,-2.087743998E0
4.674012000E0,5.889736414E-1,-7.757213593E0,-2.382230759E0
4.679017000E0,1.261744261E0,-8.075642586E0,-2.650381327E0
4.684022000E0,1.611297727E0,-8.427590370E0,-2.786850691E0
4.688966000E0,1.680729628E0,-8.772355080E0,-2.667140722E0
4.693971000E0,1.345541358E0,-9.165003777E0,-2.085349798E0
4.698976000E0,9.552865028E-1,-9.454702377E0,-1.426944256E0
4.703980000E0,4.644751251E-1,-9.588777542E0,-7.709329724E-1
4.708985000E0,5.267243832E-2,-9.473855972E0,-2.801215947E-1
4.713990000E0,-3.495534360E-1,-9.196128845E0,2.082955539E-1
4.718995000E0,-6.847416759E-1,-8.836998940E0,6.655880809E-1
4.724000000E0,-8.762778044E-1,-8.437167168E0,9.696516991E-1
4.728883000E0,-8.834604025E-1,-7.984662533E0,1.115697980E0
4.734010000E0,-6.631938815E-1,-7.661445618E0,1.070208192E0
4.739015000E0,-1.460463107E-1,-7.352593422E0,9.624691010E-1
4.744019000E0,5.123591423E-1,-7.132327080E0,7.613561153E-1
4.748963000E0,1.276109457E0,-7.074865818E0,5.841852427E-1
4.753968000E0,1.982398987E0,-7.177816868E0,5.291185975E-1
4.758973000E0,2.578555346E0,-7.479485989E0,6.320692301E-1
4.763978000E0,3.066972494E0,-8.054094315E0,9.481038451E-1
4.768983000E0,3.220201254E0,-8.683769226E0,1.335964561E0
4.773988000E0,3.327940464E0,-9.287108421E0,1.793257117E0
4.778992000E0,3.303998232E0,-9.809044838E0,2.226607561E0
4.783997000E0,3.196259260E0,-1.022084713E1,2.444479942E0
4.789002000E0,3.016694069E0,-1.043153667E1,2.288856745E0
4.794007000E0,2.705447912E0,-1.051533413E1,1.381454349E0
4.799012000E0,2.497152328E0,-1.048660374E1,4.213795066E-1
4.804017000E0,2.303221941E0,-1.042435455E1,-3.543418646E-1
4.809022000E0,2.166752577E0,-1.040520096E1,-7.206547260E-1
4.813966000E0,2.039859772E0,-1.048420906E1,-6.081272364E-1
4.818970000E0,1.922544003E0,-1.062786102E1,2.633621916E-2
4.823975000E0,1.683123827E0,-1.085052204E1,8.307880163E-1
4.828980000E0,1.558625340E0,-1.101572227E1,1.529894829E0
4.833985000E0,1.472434044E0,-1.108515358E1,2.047042370E0
4.838990000E0,1.484405041E0,-1.106599998E1,2.269703150E0
4.843995000E0,1.594538331E0,-1.100614548E1,2.135627985E0
4.849000000E0,1.807622313E0,-1.084333992E1,1.551442742E0
4.854004000E0,2.082955360E0,-1.069011021E1,7.757213712E-1
4.859009000E0,2.523488522E0,-1.059673691E1,-2.178723514E-1
4.864014000E0,3.088520288E0,-1.069489861E1,-1.261744261E0
4.869019000E0,3.732560396E0,-1.104924107E1,-2.128445387E0
4.873963000E0,4.405331135E0,-1.160709000E1,-2.626439333E0
4.878968000E0,4.812345505E0,-1.214099693E1,-2.633621931E0
4.883973000E0,4.814739704E0,-1.265575027E1,-2.214636564E0
4.888978000E0,4.350264549E0,-1.292390060E1,-1.462857246E0
4.893982000E0,3.636792421E0,-1.312022495E1,-6.129156351E-1
4.898987000E0,2.901772499E0,-1.316332054E1,1.867477298E-1
4.903992000E0,2.176329374E0,-1.310825443E1,8.954314590E-1
4.908875000E0,1.565807939E0,-1.305558205E1,1.496376038E0
4.914002000E0,1.290474772E0,-1.307234097E1,1.896207690E0
4.919007000E0,1.304839969E0,-1.317289734E1,2.229001760E0
4.924012000E0,1.534683347E0,-1.334767437E1,2.458845139E0
4.929993000E0,1.987187386E0,-1.369483376E1,2.521094322E0
4.934998000E0,2.430114746E0,-1.399171448E1,2.485181332E0
4.940003000E0,2.839523315E0,-1.422634697E1,2.379836559E0
4.945008000E0,3.124433279E0,-1.426225948E1,2.317587137E0
4.950013000E0,3.174711466E0,-1.410184765E1,2.564189911E0
4.955017000E0,3.076549292E0,-1.385285091E1,3.162740469E0
4.960022000E0,3.069366693E0,-1.364934349E1,3.730166197E0
4.964966000E0,3.210624456E0,-1.349850941E1,3.821146011E0
4.969971000E0,3.385401249E0,-1.316332054E1,3.066972494E0
4.974976000E0,3.538630009E0,-1.262223148E1,1.647210717E0
4.979981000E0,3.909731388E0,-1.243069553E1,3.208230138E-1
4.984986000E0,3.928884983E0,-1.224155331E1,-4.955997467E-1
4.989990000E0,3.457227230E0,-1.176989555E1,-7.805097699E-1
4.994995000E0,2.882618904E0,-1.127908421E1,-9.026140571E-1
5.000000000E0,2.147598982E0,-1.092713642E1,-1.098938584E0
5.005005000E0,6.895300746E-1,-1.066137981E1,-5.530605912E-1
5.010010000E0,-8.547300100E-1,-1.085291672E1,9.289502501E-1
5.015015000E0,-2.576161146E0,-1.137485218E1,2.456450939E0
5.020020000E0,-4.213795185E0,-1.199973869E1,3.141192675E0
5.024963000E0,-5.264849663E0,-1.272996998E1,2.894589901E0
5.029968000E0,-5.623979568E0,-1.345780754E1,1.877054095E0
5.034915000E0,-5.245696068E0,-1.448731422E1,3.160346150E-1
5.039981000E0,-4.649539471E0,-1.548569679E1,-6.727706790E-1
5.044986000E0,-4.295197964E0,-1.641704178E1,-1.383848548E0
5.050967000E0,-4.041412354E0,-1.721191597E1,-1.872265697E0
5.055972000E0,-3.828328609E0,-1.747527885E1,-1.975216389E0
5.060977000E0,-3.533841610E0,-1.743218231E1,-2.178723574E0
5.065982000E0,-3.244143248E0,-1.722867584E1,-2.236184359E0
5.070986000E0,-2.784456491E0,-1.672828674E1,-2.159569979E0
5.075991000E0,-2.118868589E0,-1.638591576E1,-1.805228114E0
5.080996000E0,-1.276109457E0,-1.606988144E1,-1.374271750E0
5.086001000E0,-7.134721279E-1,-1.587116337E1,-1.197100878E0
5.091006000E0,-4.501099288E-1,-1.571314621E1,-1.565807939E0
5.096011000E0,2.873042040E-2,-1.541147614E1,-2.121262789E0
5.101016000E0,9.169792533E-1,-1.488235760E1,-1.417367458E0
5.106021000E0,7.254431248E-1,-1.469321537E1,-8.858546615E-2
5.110964000E0,5.243301988E-1,-1.444661331E1,6.751648784E-1
5.115969000E0,5.267243981E-1,-1.406832886E1,3.399766386E-1
5.120974000E0,7.757213712E-1,-1.354878712E1,-4.094084799E-1
5.125979000E0,1.189918280E0,-1.309149456E1,-1.003170490E0
5.130984000E0,1.400607944E0,-1.264617348E1,-1.321599364E0
5.135989000E0,1.340752959E0,-1.217690945E1,-1.364694953E0
5.140994000E0,1.165976286E0,-1.161666679E1,-1.177947283E0
5.145998000E0,8.116343617E-1,-1.104924107E1,-8.954314590E-1
5.151003000E0,3.734954596E-1,-1.052969933E1,-7.900865674E-1
5.156008000E0,-2.106897533E-1,-9.971850395E0,-8.236053586E-1
5.161013000E0,-5.793967843E-1,-9.241618156E0,-9.457096457E-1
5.166018000E0,-3.280056417E-1,-8.549694061E0,-1.175553083E0
5.170962000E0,-1.963245422E-1,-7.953537941E0,-1.450886250E0
5.175967000E0,-1.197100878E-1,-7.326257229E0,-1.525106430E0
5.180972000E0,1.915361360E-2,-6.610390663E0,-1.216254473E0
5.185976000E0,2.202665508E-1,-5.901707172E0,-9.002198577E-1
5.190981000E0,3.136404157E-1,-5.176264286E0,-5.985504389E-1
5.195986000E0,3.160346150E-1,-4.793191910E0,-5.650315881E-1
5.200991000E0,3.830722570E-1,-4.448426723E0,-5.027823448E-1
5.205996000E0,3.040636182E-1,-4.079719543E0,-4.429273009E-1
5.211001000E0,2.777273953E-1,-3.679888010E0,-6.057330370E-1
5.216006000E0,4.548983276E-1,-3.387795448E0,-1.012747288E0
5.221010000E0,4.788403511E-1,-3.162740469E0,-1.216254473E0
5.226015000E0,3.423708379E-1,-3.028665066E0,-1.254561663E0
5.231020000E0,9.097966552E-2,-2.887407303E0,-1.240196466E0
5.235964000E0,-1.460463107E-1,-2.734178305E0,-1.268926859E0
5.240969000E0,-3.734954596E-1,-2.547430515E0,-1.285686255E0
5.245974000E0,-5.961562395E-1,-2.351106167E0,-1.292868972E0
5.250979000E0,-7.900865674E-1,-2.051830769E0,-1.297657371E0
5.255984000E0,-1.012747288E0,-1.860294700E0,-1.345541358E0
5.260988000E0,-1.192312479E0,-1.640028119E0,-1.424550056E0
5.265993000E0,-1.233013868E0,-1.446097851E0,-1.474828243E0
5.270998000E0,-1.340752959E0,-1.168370485E0,-1.553836942E0
5.276003000E0,-1.285686255E0,-9.672574997E-1,-1.762132406E0
5.281008000E0,-1.206677675E0,-7.972691655E-1,-1.948880196E0
5.286013000E0,-1.084573388E0,-7.326257229E-1,-2.090138197E0
5.291018000E0,-9.624691010E-1,-7.086837292E-1,-2.114080191E0
5.296022000E0,-7.062895298E-1,-6.895300746E-1,-2.087743998E0
5.300966000E0,-4.764461517E-1,-6.751648784E-1,-1.951274395E0
5.305971000E0,-2.681505978E-1,-7.182605267E-1,-1.673547029E0
5.310976000E0,-1.699883193E-1,-7.924807668E-1,-1.503558636E0
5.315981000E0,2.154781483E-2,-8.858546019E-1,-1.173158884E0
5.320986000E0,1.699883193E-1,-1.072602391E0,-7.206547260E-1
5.325991000E0,2.322375625E-1,-1.321599364E0,-1.723825186E-1
5.330996000E0,2.873041928E-1,-1.618480325E0,5.051765442E-1
5.336000000E0,2.394201756E-1,-2.193088770E0,1.462857246E0
5.341005000E0,2.226607651E-1,-2.731784105E0,2.322375536E0
5.346010000E0,1.364694983E-1,-3.473986626E0,3.397372246E0
5.351015000E0,1.173158810E-1,-4.321534157E0,4.455609322E0
5.356020000E0,3.447650373E-1,-5.348646641E0,5.808333397E0
5.360964000E0,7.493851185E-1,-6.598419666E0,7.611167431E0
5.365969000E0,1.429338455E0,-8.516175270E0,1.043632507E1
5.370973000E0,1.977610588E0,-1.030224991E1,1.277306652E1
5.375978000E0,2.480392933E0,-1.227746677E1,1.465730286E1
5.380983000E0,3.026270866E0,-1.435563374E1,1.583524990E1
5.385988000E0,3.296815634E0,-1.648886681E1,1.635479164E1
5.390993000E0,3.143586874E0,-1.863886070E1,1.641704178E1
5.395998000E0,2.669534922E0,-2.122220421E1,1.620635223E1
5.401003000E0,2.398990154E0,-2.305855751E1,1.589271069E1
5.406008000E0,2.348711967E0,-2.438494492E1,1.484883881E1
5.411012000E0,2.331952572E0,-2.470337296E1,1.314177322E1
5.416017000E0,2.298433542E0,-2.375766373E1,1.134372807E1
5.421022000E0,1.989581585E0,-2.169865036E1,9.907206535E0
5.425966000E0,1.510741234E0,-1.853351593E1,8.683769226E0
5.430971000E0,1.127668977E0,-1.603636360E1,8.037335396E0
5.435976000E0,6.536170840E-1,-1.389115810E1,7.328651428E0
5.440981000E0,5.985504389E-2,-1.202607536E1,6.268020153E0
5.445985000E0,-4.860229492E-1,-1.039322948E1,4.948814869E0
5.450990000E0,-1.201889277E0,-8.966285706E0,3.847482204E0
5.455995000E0,-1.960851192E0,-7.587224960E0,3.368641853E0
5.461000000E0,-2.434903145E0,-7.062894821E0,3.464409828E0
5.466005000E0,-2.870647907E0,-7.249642849E0,3.801992416E0
5.471010000E0,-3.320757866E0,-8.118738174E0,4.256890774E0
5.476015000E0,-3.366247654E0,-9.378087997E0,4.738125324E0
5.481020000E0,-2.918531895E0,-1.090798283E1,5.236119270E0
5.485963000E0,-1.549048543E0,-1.301727486E1,5.499481201E0
5.490968000E0,2.394201607E-2,-1.455435181E1,4.790797710E0
5.495973000E0,1.704671621E0,-1.590468216E1,3.181894064E0
5.500978000E0,2.985569477E0,-1.716642570E1,5.817909837E-1
5.505983000E0,3.112462282E0,-1.843535233E1,-2.439691544E0
5.510988000E0,2.149993181E0,-1.956062698E1,-4.922478676E0
5.515993000E0,4.955997467E-1,-2.028367615E1,-5.884947777E0
5.520998000E0,-3.519476354E-1,-2.000116158E1,-4.939238071E0
5.525819000E0,-6.177040339E-1,-1.794454193E1,-3.224989653E0
5.531007000E0,-1.204283476E0,-1.584243298E1,-3.181894064E0
5.536012000E0,-2.525882721E0,-1.244266605E1,-4.503493309E0
5.541017000E0,-4.007893562E0,-8.875306129E0,-6.526593685E0
5.546022000E0,-5.987898350E0,-5.188235283E0,-8.719682693E0
5.550966000E0,-7.702147007E0,-3.148375273E0,-7.843404770E0
5.555971000E0,-9.385271072E0,-1.831564307E0,-3.876212597E0
5.560975000E0,-1.081460953E1,-9.720458984E-1,1.685518026E0
5.565980000E0,-1.140837097E1,-3.064578176E-1,6.727706909E0
5.570985000E0,-1.129105568E1,1.364694983E-1,9.248801231E0
5.575990000E0,-1.029027843E1,-1.412578970E-1,6.758831501E0
5.580995000E0,-8.200140953E0,-1.086967587E0,2.432508945E0
5.586000000E0,-4.647145271E0,-2.494758129E0,-2.442085743E0
5.591005000E0,-4.620809257E-1,-4.606443882E0,-6.074089527E0
5.596010000E0,3.258508444E0,-6.983886242E0,-7.836222172E0
5.601014000E0,6.385335922E0,-1.011310768E1,-8.427590370E0
5.606019000E0,7.709329605E0,-1.244984913E1,-8.892065048E0
5.610963000E0,7.915230751E0,-1.436999893E1,-9.253589630E0
5.615968000E0,7.240066051E0,-1.544499493E1,-9.694122314E0
5.620973000E0,6.979097843E0,-1.559822369E1,-1.043632507E1
5.625978000E0,7.165845871E0,-1.543541813E1,-1.041956615E1
5.630983000E0,6.971915245E0,-1.545696640E1,-9.038111687E0
5.635987000E0,6.914454460E0,-1.559104156E1,-5.786785603E0
5.640992000E0,7.508216381E0,-1.575624180E1,-1.635239720E0
5.645997000E0,8.425195694E0,-1.588313389E1,3.550601006E0
5.651002000E0,8.722076416E0,-1.578257751E1,7.489062786E0
5.656007000E0,7.987056732E0,-1.509065342E1,8.552088737E0
5.661012000E0,5.633556366E0,-1.357991219E1,7.086836815E0
5.666017000E0,3.203441858E0,-1.217690945E1,5.645527840E0
5.671022000E0,1.060631394E0,-1.063743782E1,4.395754337E0
5.675965000E0,-3.136404157E-1,-9.102754593E0,3.466804028E0
5.680970000E0,-1.077390790E0,-7.826645374E0,2.791639090E0
5.685975000E0,-1.561019540E0,-6.828263283E0,2.190694571E0
5.690980000E0,-2.173935175E0,-6.016628742E0,7.852981687E-1
5.695985000E0,-2.312798738E0,-5.262455463E0,-2.226607651E-1
5.700990000E0,-2.360682964E0,-4.972756863E0,-1.187524080E0
5.705995000E0,-2.229001760E0,-4.915296078E0,-1.932120800E0
5.710999000E0,-1.975216389E0,-5.145139217E0,-2.430114746E0
5.716004000E0,-1.470039845E0,-5.691017628E0,-2.920926094E0
5.721009000E0,-1.213860273E0,-6.320692539E0,-3.224989653E0
5.726014000E0,-1.182735682E0,-6.756437302E0,-3.244143248E0
5.731019000E0,-1.082179189E0,-7.228095055E0,-3.385401249E0
5.735963000E0,-9.504981041E-1,-7.764396191E0,-3.658340216E0
5.740968000E0,-5.554547906E-1,-8.315062523E0,-4.053383350E0
5.745973000E0,-1.436520964E-1,-8.705317497E0,-4.283226967E0
5.750977000E0,5.291185975E-1,-9.064447403E0,-4.199429989E0
5.755982000E0,1.094150186E0,-9.354146004E0,-3.552995205E0
5.760987000E0,1.350329757E0,-9.615114212E0,-2.631227732E0
5.765992000E0,1.316810966E0,-9.627084732E0,-1.659181833E0
5.770997000E0,1.158793569E0,-9.464279175E0,-8.882488012E-1
5.776002000E0,8.690952063E-1,-9.258378029E0,-2.753331959E-1
5.781007000E0,5.003881454E-1,-8.892065048E0,4.237737060E-1
5.786011000E0,1.939303428E-1,-8.475474358E0,9.864110947E-1
5.791016000E0,-4.788403399E-3,-8.087613106E0,1.477222443E0
5.796021000E0,-1.149216816E-1,-7.800309181E0,1.661576033E0
5.800965000E0,-1.077390760E-1,-7.592013359E0,1.587355733E0
5.805970000E0,8.619125932E-2,-7.580042362E0,1.273715258E0
5.810975000E0,5.602431893E-1,-7.762001991E0,8.355764151E-1
5.815980000E0,9.792284966E-1,-8.001421928E0,6.272808313E-1
5.820985000E0,1.338358760E0,-8.384494781E0,7.062895298E-1
5.825989000E0,1.704671621E0,-8.769960403E0,1.223437071E0
5.830994000E0,2.044648170E0,-9.169792175E0,2.087743998E0
5.835999000E0,2.315192938E0,-9.452308655E0,3.318363667E0
5.841004000E0,2.585737944E0,-9.555258751E0,4.709394932E0
5.846009000E0,2.932897091E0,-9.375694275E0,4.853046894E0
5.851014000E0,3.361459255E0,-8.987833023E0,3.897760391E0
5.856019000E0,3.847482204E0,-8.499416351E0,2.176329374E0
5.860962000E0,4.264073372E0,-7.991845131E0,1.915361285E-1
5.865967000E0,4.462791920E0,-7.606379032E0,-1.630451322E0
5.870972000E0,4.053383350E0,-7.352593422E0,-3.268085241E0
5.875977000E0,3.256114244E0,-7.551311970E0,-3.790021181E0
5.880982000E0,2.145204782E0,-8.200140953E0,-3.131615877E0
5.885987000E0,9.528923035E-1,-9.179368973E0,-1.357512355E0
5.890992000E0,-7.422025502E-2,-1.022084713E1,8.379706144E-1
5.895997000E0,-7.876923680E-1,-1.109473038E1,2.770091295E0
5.901001000E0,-1.130063176E0,-1.197579670E1,4.091690540E0
5.906006000E0,-8.499416113E-1,-1.244027233E1,4.192247391E0
5.911011000E0,-2.370259613E-1,-1.267011547E1,3.632004023E0
5.916016000E0,5.626373887E-1,-1.268208599E1,2.650381327E0
5.921021000E0,1.508347034E0,-1.255758762E1,1.515529633E0
5.925965000E0,2.463633537E0,-1.235647488E1,3.303998411E-1
5.930970000E0,3.703830004E0,-1.201649857E1,-1.005564690E0
5.935974000E0,4.608838081E0,-1.177707863E1,-1.759738207E0
5.940979000E0,5.391742229E0,-1.153286934E1,-2.221819162E0
5.945984000E0,5.944802761E0,-1.147301483E1,-2.248155355E0
5.950989000E0,6.150704384E0,-1.160469532E1,-1.771709204E0
5.955994000E0,5.884947777E0,-1.194467258E1,-1.058237195E0
5.960999000E0,4.989516258E0,-1.235408115E1,-1.125274822E-1
5.966004000E0,4.015076160E0,-1.251688671E1,5.770025849E-1
5.971009000E0,3.052607059E0,-1.251688671E1,1.175553083E0
5.976013000E0,2.226607561E0,-1.243308926E1,1.668758631E0
5.981018000E0,1.644816518E0,-1.235408115E1,1.953668594E0
5.985962000E0,1.340752959E0,-1.240196514E1,2.092532396E0
5.990967000E0,1.319205165E0,-1.263899040E1,2.217030764E0
5.995972000E0,1.503558636E0,-1.292868900E1,2.387019157E0
6.000977000E0,1.810016513E0,-1.326866627E1,2.554613113E0
6.005982000E0,2.296039343E0,-1.358948898E1,2.576161146E0
6.010986000E0,2.767697096E0,-1.385045719E1,2.389413357E0
6.015869000E0,3.260902643E0,-1.402044487E1,2.008735180E0
6.020996000E0,3.411737442E0,-1.398453236E1,1.714248419E0
6.026001000E0,3.373430252E0,-1.376426601E1,1.175553083E0
6.031006000E0,3.323152065E0,-1.343626022E1,5.075707436E-1
6.035952000E0,3.347094059E0,-1.316571522E1,-1.316810995E-1
6.040835000E0,3.033453465E0,-1.291671848E1,-3.136404157E-1
6.045962000E0,2.798821688E0,-1.272757626E1,-3.112462163E-2
6.050967000E0,2.693476915E0,-1.244984913E1,1.939303428E-1
6.055972000E0,2.772485495E0,-1.228704357E1,1.675941236E-2
6.060977000E0,2.583343744E0,-1.199734497E1,9.576806426E-2
6.065982000E0,1.836352706E0,-1.156159973E1,3.854664862E-1
6.070986000E0,7.422025204E-1,-1.123359394E1,4.788403511E-1
6.075991000E0,-8.068459630E-1,-1.115458584E1,9.074024558E-1
6.080996000E0,-2.451662540E0,-1.157357121E1,1.963245392E0
6.086001000E0,-4.462791920E0,-1.204522896E1,2.985569477E0
6.091006000E0,-6.200982571E0,-1.256237602E1,3.308786631E0
6.096011000E0,-7.108384609E0,-1.327105999E1,2.873042107E0
6.101016000E0,-7.213729858E0,-1.421916389E1,1.886630893E0
6.106021000E0,-6.924031258E0,-1.527021885E1,4.405331016E-1
6.110964000E0,-6.552929878E0,-1.585679817E1,-7.374141216E-1
6.115969000E0,-6.210559368E0,-1.613452530E1,-1.841141105E0
6.120974000E0,-5.655104637E0,-1.631409073E1,-2.497152328E0
6.125979000E0,-4.738125324E0,-1.640985870E1,-2.640804529E0
6.130984000E0,-3.411737442E0,-1.651520348E1,-2.501940727E0
6.135989000E0,-1.616086125E0,-1.668279839E1,-2.037465572E0
6.140994000E0,-3.950432837E-1,-1.681208420E1,-1.551442742E0
6.145998000E0,6.943184733E-1,-1.686475754E1,-1.285686255E0
6.151003000E0,1.417367458E0,-1.683123779E1,-1.182735682E0
6.156008000E0,1.577778935E0,-1.691503525E1,-1.235408068E0
6.161013000E0,1.474828243E0,-1.698207283E1,-1.855506301E0
6.166018000E0,1.285686255E0,-1.675462341E1,-2.616862535E0
6.170962000E0,2.013523579E0,-1.621832275E1,-1.663970232E0
6.175967000E0,1.917755604E0,-1.575863552E1,-5.051765442E-1
6.180972000E0,1.517923832E0,-1.519120979E1,-4.788403213E-2
6.185976000E0,1.537077546E0,-1.450167942E1,-2.944868207E-1
6.190981000E0,1.776497602E0,-1.381693840E1,-8.331822157E-1
6.195986000E0,1.752555609E0,-1.315853214E1,-1.343147159E0
6.200991000E0,1.443703651E0,-1.266772079E1,-1.369483352E0
6.205996000E0,9.504981041E-1,-1.232056236E1,-1.247379065E0
6.211001000E0,2.968810201E-1,-1.198537350E1,-1.137245774E0
6.216006000E0,-3.495534360E-1,-1.145864964E1,-1.022324085E0
6.221010000E0,-8.595184088E-1,-1.091037750E1,-9.816226959E-1
6.226015000E0,-7.158663273E-1,-1.019929886E1,-1.268926859E0
6.231020000E0,-3.854664862E-1,-9.595960617E0,-1.386242747E0
6.235964000E0,-1.675941199E-1,-9.038111687E0,-1.266532660E0
6.240969000E0,-1.029506698E-1,-8.506598473E0,-9.888052940E-1
6.245974000E0,-9.097966552E-2,-7.972691536E0,-8.499416113E-1
6.250979000E0,-1.651999205E-1,-7.417236805E0,-9.217676520E-1
6.255984000E0,-1.987187415E-1,-6.751648903E0,-1.120486379E0
6.260988000E0,-7.182604820E-2,-6.062118530E0,-1.144428372E0
6.265993000E0,4.788403213E-2,-5.351040840E0,-1.041477680E0
6.270998000E0,2.418143749E-1,-4.805162907E0,-9.289502501E-1
6.276003000E0,2.705447972E-1,-4.378994942E0,-9.409212470E-1
6.281008000E0,2.489969730E-1,-3.983951569E0,-1.012747288E0
6.286013000E0,1.915361285E-1,-3.610456228E0,-1.230619669E0
6.291018000E0,-4.309562966E-2,-3.378218651E0,-1.288080573E0
6.296022000E0,-2.849099934E-1,-3.181894064E0,-1.290474772E0
6.300966000E0,-4.453215301E-1,-2.942473888E0,-1.259350061E0
6.305971000E0,-5.315127969E-1,-2.729389906E0,-1.235408068E0
6.310976000E0,-5.339069963E-1,-2.410961151E0,-1.218648672E0
6.315981000E0,-5.363011956E-1,-2.030282974E0,-1.307234168E0
6.320986000E0,-4.788403511E-1,-1.752555609E0,-1.369483352E0
6.325991000E0,-4.764461517E-1,-1.436521053E0,-1.429338455E0
6.330996000E0,-5.027823448E-1,-1.101332784E0,-1.501164436E0
6.336000000E0,-4.477157295E-1,-8.283938169E-1,-1.673547029E0
6.341066000E0,-3.495534360E-1,-6.200982332E-1,-1.987187386E0
6.346010000E0,-3.782838583E-1,-4.477157295E-1,-2.195482969E0
6.351015000E0,-4.620809257E-1,-3.351882398E-1,-2.327163935E0
6.356020000E0,-4.477157295E-1,-2.394201756E-1,-2.403778553E0
6.360964000E0,-3.375824392E-1,-2.178723514E-1,-2.456450939E0
6.365969000E0,-2.561795712E-1,-2.513911724E-1,-2.487575531E0
6.370973000E0,-1.987187415E-1,-3.040636182E-1,-2.434903145E0
6.375978000E0,-1.053448766E-1,-4.213795066E-1,-2.303221941E0
6.380983000E0,-5.985504389E-2,-5.554547906E-1,-2.070984364E0
6.385988000E0,-4.309562966E-2,-7.158663273E-1,-1.666364431E0
6.390993000E0,-4.548983276E-2,-9.481038451E-1,-1.125274777E0
6.395998000E0,-1.005564705E-1,-1.230619669E0,-4.070142806E-1
6.401003000E0,-1.556231081E-1,-1.565807939E0,5.793967843E-1
6.406008000E0,-2.394201756E-1,-2.171540976E0,1.460463047E0
6.411012000E0,-3.663128614E-1,-2.844311714E0,2.384624958E0
6.416017000E0,-4.285621047E-1,-3.691859007E0,3.335123062E0
6.421022000E0,-3.782838583E-1,-4.718971729E0,4.335899353E0
6.425966000E0,-5.267243832E-2,-5.849034786E0,5.659893036E0
6.430971000E0,2.633621991E-1,-7.240066051E0,7.474697590E0
6.435976000E0,6.057330370E-1,-9.342175484E0,1.035252857E1
6.440981000E0,6.943184733E-1,-1.122641182E1,1.255279922E1
6.445985000E0,5.889736414E-1,-1.333091545E1,1.439633465E1
6.450990000E0,4.022258818E-1,-1.547851372E1,1.564610767E1
6.455995000E0,1.484405100E-1,-1.761414146E1,1.616564941E1
6.461000000E0,-3.351882473E-2,-2.020945740E1,1.615367889E1
6.466005000E0,2.633621991E-1,-2.212002945E1,1.588313389E1
6.471010000E0,9.672574997E-1,-2.347035980E1,1.535641003E1
6.476015000E0,1.568202138E0,-2.388934517E1,1.448252583E1
6.481020000E0,1.663970232E0,-2.307052803E1,1.320402241E1
6.485963000E0,1.443703651E0,-2.113601303E1,1.196143150E1
6.490968000E0,1.295263171E0,-1.862210083E1,1.067335129E1
6.495973000E0,1.206677675E0,-1.542105293E1,9.631873131E0
6.500978000E0,1.170764685E0,-1.301009178E1,8.394071579E0
6.505983000E0,9.935936928E-1,-1.068532181E1,6.986280441E0
6.510988000E0,6.751648784E-1,-8.489839554E0,5.717353821E0
6.515993000E0,2.537853718E-1,-6.533776283E0,4.778826714E0
6.520998000E0,-5.410895944E-1,-4.642356873E0,4.000710964E0
6.526002000E0,-1.072602391E0,-3.720589399E0,3.507505417E0
6.531007000E0,-1.553836942E0,-3.552995205E0,3.064578056E0
6.536012000E0,-2.212242365E0,-4.477157116E0,2.992752075E0
6.541017000E0,-2.885013103E0,-6.121973515E0,3.167528868E0
6.546022000E0,-3.134010077E0,-8.219294548E0,3.763684988E0
6.550966000E0,-3.090914488E0,-1.066137981E1,4.769249916E0
6.555971000E0,-2.193088770E0,-1.368765068E1,4.393360138E0
6.560975000E0,-5.339069963E-1,-1.596693134E1,2.726995707E0
6.565980000E0,2.418143749E-1,-1.872744560E1,5.171475410E-1
6.570985000E0,5.027823448E-1,-2.187103271E1,-1.544260144E0
6.575990000E0,1.094150186E0,-2.452859688E1,-4.436455727E0
6.580995000E0,1.197100878E0,-2.684379005E1,-4.908113480E0
6.586000000E0,1.237802267E0,-2.757880974E1,-7.398083210E-1
6.591005000E0,1.455674648E0,-2.645353508E1,3.268085241E0
6.596010000E0,1.649604917E0,-2.268027306E1,2.480392933E0
6.601014000E0,1.537077546E0,-1.728134727E1,-1.980004787E0
6.606019000E0,1.151610970E0,-1.171482849E1,-7.072471619E0
6.610963000E0,-5.746083856E-1,-5.940014362E0,-1.068532181E1
6.615968000E0,-2.336740971E0,-2.750937700E0,-8.286332130E0
6.620973000E0,-4.616020679E0,-4.884171486E-1,-3.526659012E0
6.625978000E0,-6.318298340E0,1.240196466E0,6.129156351E-1
6.630983000E0,-7.196970463E0,2.588132143E0,3.234566450E0
6.635987000E0,-7.797914982E0,3.157952070E0,4.345476151E0
6.640992000E0,-8.006210327E0,2.382230759E0,2.724601507E0
6.645997000E0,-6.758831501E0,1.103726983E0,-3.495534360E-1
6.651002000E0,-4.062960148E0,-5.722141862E-1,-3.294421434E0
6.656007000E0,-7.134721279E-1,-2.997540474E0,-4.843470097E0
6.661012000E0,1.649604917E0,-6.370970726E0,-5.825092793E0
6.666017000E0,2.849100113E0,-1.001733971E1,-7.034164429E0
6.671022000E0,3.605667830E0,-1.371159267E1,-9.176975250E0
6.675965000E0,3.809175014E0,-1.559582996E1,-1.101332760E1
6.680970000E0,3.655946016E0,-1.653675079E1,-1.204044056E1
6.685975000E0,2.985569477E0,-1.686236191E1,-1.149695683E1
6.690980000E0,2.868253708E0,-1.657505798E1,-9.947908401E0
6.695985000E0,3.770867586E0,-1.608903503E1,-7.773972988E0
6.700990000E0,5.846640587E0,-1.610100555E1,-2.312798738E0
6.705995000E0,7.584830761E0,-1.636197472E1,3.632004023E0
6.710999000E0,8.633491516E0,-1.635718536E1,8.123526573E0
6.716004000E0,8.362946510E0,-1.580891418E1,9.095572472E0
6.721009000E0,7.110779285E0,-1.477461910E1,7.659051418E0
6.726014000E0,5.370194435E0,-1.359667110E1,5.169081688E0
6.731019000E0,2.698265314E0,-1.211466026E1,3.380612850E0
6.735963000E0,1.091755986E0,-1.070208168E1,1.893813491E0
6.740968000E0,1.197100878E-1,-9.275136948E0,1.261744261E0
6.745973000E0,-4.094084799E-1,-7.984662533E0,1.101332784E0
6.750977000E0,-9.337386489E-1,-6.799532890E0,7.661445439E-2
6.755982000E0,-9.074024558E-1,-5.669469833E0,-9.337386489E-1
6.760987000E0,-1.599326730E0,-4.714183331E0,-1.323993564E0
6.765992000E0,-2.817975283E0,-4.328716755E0,-1.065419793E0
6.770997000E0,-3.964797974E0,-4.323928356E0,-6.224924326E-1
6.776002000E0,-4.604049683E0,-4.503493309E0,-8.236053586E-1
6.781007000E0,-4.522646904E0,-4.800374508E0,-1.721431017E0
6.786011000E0,-3.993528366E0,-5.329493046E0,-2.856282711E0
6.791016000E0,-2.985569477E0,-6.165069580E0,-3.627215624E0
6.796021000E0,-1.987187386E0,-6.691793919E0,-3.730166197E0
6.800965000E0,-8.930372596E-1,-7.098807812E0,-3.828328609E0
6.805970000E0,2.394201607E-2,-7.350199223E0,-3.986345768E0
6.810975000E0,6.991068721E-1,-7.632715225E0,-3.897760391E0
6.815980000E0,9.409212470E-1,-7.979874134E0,-3.423708439E0
6.820985000E0,9.840168953E-1,-8.401253700E0,-2.935291290E0
6.825989000E0,9.911994934E-1,-8.791508675E0,-2.245761156E0
6.830994000E0,8.571242094E-1,-9.090784073E0,-1.400607944E0
6.835999000E0,6.344634295E-1,-9.203310966E0,-7.134721279E-1
6.841004000E0,2.322375625E-1,-9.301473618E0,-1.508347094E-1
6.846009000E0,-3.495534360E-1,-9.241618156E0,3.878606856E-1
6.851990000E0,-8.427590132E-1,-9.016563416E0,8.451532125E-1
6.856995000E0,-1.312022567E0,-8.731653214E0,1.106121182E0
6.862000000E0,-1.498770237E0,-8.595184326E0,1.211466074E0
6.867005000E0,-1.474828243E0,-8.403648376E0,1.197100878E0
6.872010000E0,-1.321599364E0,-8.271966934E0,1.144428372E0
6.877015000E0,-9.026140571E-1,-8.212111473E0,1.058237195E0
6.882020000E0,-2.705447972E-1,-8.283937454E0,1.019929886E0
6.886963000E0,2.178723514E-1,-8.453926086E0,1.233013868E0
6.891968000E0,6.655880809E-1,-8.669404030E0,1.632845521E0
6.896973000E0,1.060631394E0,-8.959102631E0,2.128445387E0
6.901978000E0,1.436521053E0,-9.320627213E0,2.621650934E0
6.906983000E0,1.817199111E0,-9.648633003E0,2.894589901E0
6.911988000E0,2.185906172E0,-9.883264542E0,2.631227732E0
6.916993000E0,2.363077164E0,-1.002691650E1,1.848323703E0
6.921997000E0,2.437297344E0,-1.007001209E1,8.044517636E-1
6.927002000E0,2.430114746E0,-1.007958889E1,-8.140286058E-2
6.932007000E0,2.358288765E0,-9.976638794E0,-6.153098345E-1
6.937012000E0,2.229001760E0,-9.849745750E0,-7.350199223E-1
6.942017000E0,2.121262789E0,-9.667786598E0,-4.860229492E-1
6.947022000E0,2.188300371E0,-9.617507935E0,-1.436521020E-2
6.951966000E0,2.339135170E0,-9.744400978E0,5.602431893E-1
6.956971000E0,2.561795712E0,-1.008198357E1,1.175553083E0
6.961975000E0,2.798821688E0,-1.055124664E1,1.884236693E0
6.966980000E0,2.873042107E0,-1.102529907E1,2.509123325E0
6.971985000E0,2.839523315E0,-1.137724686E1,3.129221678E0
6.976990000E0,2.674323320E0,-1.138921738E1,3.198653460E0
6.981995000E0,2.671929121E0,-1.123120022E1,2.877830505E0
6.987000000E0,2.935291290E0,-1.097502041E1,2.157175779E0
6.992005000E0,3.488351822E0,-1.073799419E1,1.146822572E0
6.997009000E0,4.448426723E0,-1.068292809E1,-3.591302410E-2
7.002014000E0,5.918466568E0,-1.111867237E1,-1.608903527E0
7.007019000E0,7.055712223E0,-1.190157700E1,-2.664746523E0
7.011963000E0,7.841010571E0,-1.280897903E1,-3.315969467E0
7.016968000E0,8.075642586E0,-1.355357552E1,-3.442862034E0
7.021973000E0,7.642292023E0,-1.394622517E1,-2.952050686E0
7.026978000E0,6.629544735E0,-1.405875206E1,-1.788468719E0
7.031983000E0,4.915296078E0,-1.409705925E1,3.351882473E-2
7.036990000E0,3.737348795E0,-1.399410915E1,1.465251446E0
7.041995000E0,2.837129116E0,-1.377623653E1,2.705447912E0
7.047000000E0,2.221819162E0,-1.346499062E1,3.548206806E0
7.052005000E0,2.006340981E0,-1.308431244E1,3.849876404E0
7.056887000E0,2.138022184E0,-1.276348972E1,3.380612850E0
7.061953000E0,2.480392933E0,-1.266053867E1,2.489969730E0
7.067019000E0,2.961627483E0,-1.273475838E1,1.546654344E0
7.071963000E0,3.545812607E0,-1.289038181E1,7.589619160E-1
7.076968000E0,3.998316765E0,-1.306515884E1,5.267243981E-1
7.081973000E0,4.115632534E0,-1.302685165E1,8.355764151E-1
7.086978000E0,3.861847401E0,-1.276588345E1,1.486799240E0
7.091982000E0,3.090914488E0,-1.244984913E1,2.683900118E0
7.096987000E0,2.475604534E0,-1.218888092E1,3.184288263E0
7.101992000E0,2.011129379E0,-1.197100830E1,2.782062292E0
7.106997000E0,1.661576033E0,-1.188002872E1,1.912967205E0
7.112002000E0,1.577778935E0,-1.185129833E1,1.051054597E0
7.117007000E0,1.517923832E0,-1.179383755E1,5.985504389E-2
7.122012000E0,1.654393315E0,-1.200213337E1,-1.122880578E0
7.127017000E0,1.549048543E0,-1.203086376E1,-1.132457376E0
7.132021000E0,1.187524080E0,-1.179862595E1,-8.331822157E-1
7.136965000E0,4.644751251E-1,-1.170285797E1,-9.457096457E-1
7.141970000E0,-4.572925270E-1,-1.174116516E1,-8.738836050E-1
7.146975000E0,-1.853112102E0,-1.197579670E1,2.346317619E-1
7.151980000E0,-4.209006786E0,-1.256477070E1,2.971204281E0
7.156985000E0,-6.155492783E0,-1.322556973E1,4.237737179E0
7.161990000E0,-7.668628216E0,-1.399889755E1,3.615244627E0
7.166995000E0,-8.379706383E0,-1.476743603E1,1.328781962E0
7.171999000E0,-8.355764389E0,-1.554794598E1,-1.252167463E0
7.177004000E0,-8.006210327E0,-1.634042740E1,-2.975992680E0
7.182009000E0,-7.721300602E0,-1.709938812E1,-3.775655985E0
7.187014000E0,-7.666234016E0,-1.737232780E1,-3.854664803E0
7.192019000E0,-7.627926826E0,-1.743218231E1,-3.847482204E0
7.196963000E0,-7.015010834E0,-1.752316284E1,-3.308786631E0
7.201968000E0,-5.971138954E0,-1.770751572E1,-2.537853718E0
7.206972000E0,-4.752490520E0,-1.799960899E1,-1.551442742E0
7.211977000E0,-3.181894064E0,-1.824860573E1,-2.968810201E-1
7.216982000E0,-2.252943754E0,-1.820072174E1,1.508347094E-1
7.221987000E0,-1.759738207E0,-1.808340454E1,-5.027823523E-2
7.226992000E0,-1.343147159E0,-1.793496513E1,-7.900865376E-2
7.231997000E0,-6.440402865E-1,-1.758780479E1,-3.567360640E-1
7.237002000E0,3.064578176E-1,-1.665885544E1,-8.283938169E-1
7.242007000E0,1.776497602E0,-1.561977196E1,-6.679822803E-1
7.247011000E0,2.746149302E0,-1.476983070E1,-5.027823523E-2
7.252016000E0,3.711012602E0,-1.423113537E1,7.805097699E-1
7.257021000E0,4.101267338E0,-1.380736160E1,1.132457376E0
7.261965000E0,4.007893562E0,-1.342428875E1,9.935936928E-1
7.266970000E0,3.725377798E0,-1.296939087E1,5.410895944E-1
7.271975000E0,3.373430252E0,-1.226310158E1,6.703764945E-2
7.276980000E0,2.746149302E0,-1.158793640E1,-2.370259613E-1
7.281984000E0,1.941697598E0,-1.071884060E1,-4.836287498E-1
7.286989000E0,1.163581967E0,-9.849745750E0,-9.121908545E-1
7.291994000E0,3.184288144E-1,-8.959102631E0,-1.383848548E0
7.296999000E0,-2.585737705E-1,-8.037335396E0,-1.721431017E0
7.302004000E0,-4.118026793E-1,-6.710947514E0,-1.510741234E0
7.307009000E0,-6.751648784E-1,-5.863399982E0,-1.304839969E0
7.312014000E0,-9.050082564E-1,-5.324704647E0,-1.063025594E0
7.317019000E0,-8.523358107E-1,-4.912901878E0,-6.033388376E-1
7.321962000E0,-8.379706144E-1,-4.580107689E0,-4.572925270E-1
7.326967000E0,-7.541735172E-1,-4.182670593E0,-6.512228847E-1
7.331972000E0,-4.620809257E-1,-3.912125587E0,-9.289502501E-1
7.336977000E0,-1.029506698E-1,-3.605667830E0,-9.768342972E-1
7.341982000E0,1.843535304E-1,-3.284844637E0,-9.576807022E-1
7.346987000E0,3.687070608E-1,-2.913743496E0,-8.619126081E-1
7.351992000E0,5.530605912E-1,-2.576161146E0,-8.858546019E-1
7.356996000E0,5.889736414E-1,-2.171540976E0,-9.241618514E-1
7.362001000E0,6.105214357E-1,-1.917755604E0,-1.010353088E0
7.367006000E0,5.386953950E-1,-1.690306425E0,-1.103726983E0
7.372011000E0,4.548983276E-1,-1.527500629E0,-1.256955862E0
7.377016000E0,3.687070608E-1,-1.386242747E0,-1.388636947E0
7.382021000E0,3.160346150E-1,-1.242590666E0,-1.534683347E0
7.386965000E0,2.250549644E-1,-1.079784989E0,-1.721431017E0
7.391970000E0,1.173158810E-1,-9.097966552E-1,-1.848323703E0
7.396974000E0,-1.915361360E-2,-7.422025204E-1,-1.951274395E0
7.401979000E0,-1.939303428E-1,-6.320692301E-1,-2.114080191E0
7.406984000E0,-4.022258818E-1,-4.979939461E-1,-2.293645144E0
7.411989000E0,-5.961562395E-1,-4.309563041E-1,-2.463633537E0
7.416994000E0,-7.709329724E-1,-4.405331016E-1,-2.518700123E0
7.421999000E0,-9.241618514E-1,-5.434837937E-1,-2.494758129E0
7.427004000E0,-9.935936928E-1,-7.086837292E-1,-2.389413357E0
7.432008000E0,-1.084573388E0,-9.074024558E-1,-2.255337954E0
7.437013000E0,-1.130063176E0,-1.125274777E0,-2.121262789E0
7.442018000E0,-1.106121182E0,-1.383848548E0,-1.872265697E0
7.446962000E0,-9.097966552E-1,-1.630451322E0,-1.438915253E0
7.451967000E0,-6.895300746E-1,-1.793257117E0,-1.022324085E0
7.456972000E0,-5.267243981E-1,-1.936909199E0,-5.075707436E-1
7.461977000E0,-4.740519226E-1,-2.154781580E0,4.070143029E-2
7.466982000E0,-5.554547906E-1,-2.485181332E0,7.469909191E-1
7.471986000E0,-5.841852427E-1,-2.894589901E0,1.630451322E0
7.476991000E0,-6.727706790E-1,-3.629609823E0,2.956839085E0
7.481996000E0,-8.212111592E-1,-4.376600742E0,4.065354347E0
7.487001000E0,-9.648633003E-1,-5.255272865E0,5.178658485E0
7.492006000E0,-9.768342972E-1,-6.335057735E0,6.792350292E0
7.497011000E0,-9.959878922E-1,-7.647080421E0,8.987833023E0
7.502016000E0,-9.552865028E-1,-9.210494041E0,1.161427212E1
7.507020000E0,-1.048660398E0,-1.145625496E1,1.493742466E1
7.511964000E0,-1.252167463E0,-1.348653793E1,1.694855309E1
7.516969000E0,-1.170764685E0,-1.560780048E1,1.780807304E1
7.521974000E0,-1.000776291E0,-1.785595703E1,1.720712852E1
7.526979000E0,-8.451532125E-1,-2.011608315E1,1.556949329E1
7.531984000E0,-6.967126727E-1,-2.244085312E1,1.375468922E1
7.536989000E0,-9.576806799E-3,-2.476801682E1,1.214578533E1
7.541994000E0,6.823474765E-1,-2.579752350E1,1.149216843E1
7.546998000E0,1.137245774E0,-2.559880447E1,1.130063248E1
7.552003000E0,1.285686255E0,-2.401863098E1,1.107797146E1
7.557008000E0,1.412579060E0,-2.126529884E1,1.061589050E1
7.562013000E0,1.673547029E0,-1.793975258E1,9.933543205E0
7.567018000E0,1.848323703E0,-1.385285091E1,8.798690796E0
7.572999000E0,1.695094824E0,-1.028549004E1,7.448361397E0
7.578004000E0,1.276109457E0,-7.826645374E0,6.347028732E0
7.583009000E0,5.554547906E-1,-5.872976780E0,5.530605793E0
7.588014000E0,-3.782838583E-1,-4.448426723E0,5.058948040E0
7.593019000E0,-1.383848548E0,-3.548206806E0,4.754884720E0
7.597963000E0,-2.080561161E0,-3.282450438E0,4.338293552E0
7.602968000E0,-2.499546528E0,-3.912125587E0,3.782838583E0
7.607972000E0,-2.822763920E0,-5.288791656E0,3.555389643E0
7.612977000E0,-2.942473888E0,-7.101202011E0,3.883395195E0
7.617982000E0,-2.765302896E0,-9.272743225E0,4.668693542E0
7.622987000E0,-2.456450939E0,-1.166694450E1,5.535394192E0
7.627992000E0,-1.886630893E0,-1.419282722E1,5.868188381E0
7.632997000E0,-3.208230138E-1,-1.736993408E1,4.754884720E0
7.638002000E0,1.374271750E0,-1.981680679E1,2.851494312E0
7.643006000E0,2.645592928E0,-2.222776794E1,4.285621047E-1
7.648011000E0,3.112462282E0,-2.430833054E1,-2.528276920E0
7.653016000E0,3.201047659E0,-2.557246780E1,-5.118803024E0
7.658021000E0,2.097320795E0,-2.601060677E1,-4.711789131E0
7.662965000E0,2.226607561E0,-2.487575531E1,-7.254431248E-1
7.667970000E0,3.270479441E0,-2.210087585E1,2.999934673E0
7.672975000E0,2.817975283E0,-1.792059898E1,1.254561663E0
7.677980000E0,1.197100878E0,-1.297178459E1,-4.896142483E0
7.682984000E0,-1.268926859E-1,-7.821856976E0,-1.126950741E1
7.687989000E0,-2.614468336E0,-3.402160645E0,-1.449210262E1
7.692994000E0,-5.284003258E0,3.208230138E-1,-1.070926380E1
7.697999000E0,-8.056488991E0,2.135627985E0,-4.987122059E0
7.703004000E0,-1.029027843E1,3.318363667E0,2.250549644E-1
7.708009000E0,-1.143949604E1,4.039018154E0,4.541800499E0
7.713014000E0,-1.182496262E1,4.137180328E0,7.295132637E0
7.718018000E0,-1.108275986E1,3.045424461E0,6.459556103E0
7.722962000E0,-8.645462036E0,1.386242747E0,2.092532396E0
7.727967000E0,-4.850652695E0,-9.026140571E-1,-2.899378300E0
7.732972000E0,-1.053448796E0,-4.010287762E0,-5.046977043E0
7.737855000E0,2.097320795E0,-8.125920296E0,-4.812345505E0
7.742860000E0,3.756502390E0,-1.180341434E1,-5.698200226E0
7.748963000E0,4.165910721E0,-1.358470058E1,-6.864176273E0
7.755006000E0,3.801992416E0,-1.571075153E1,-8.930372238E0
7.760011000E0,3.440467834E0,-1.637633896E1,-1.065419769E1
7.765015000E0,3.591302633E0,-1.624705315E1,-1.084094524E1
7.770020000E0,4.192247391E0,-1.615607262E1,-9.246406555E0
7.774964000E0,5.501875401E0,-1.635000420E1,-5.449203014E0
7.779969000E0,7.180211067E0,-1.676420021E1,9.576806799E-3
7.784974000E0,9.062053680E0,-1.727177048E1,5.705382824E0
7.789979000E0,1.050575733E1,-1.729092407E1,9.205705643E0
7.794984000E0,9.952696800E0,-1.659421158E1,8.398859978E0
7.799988000E0,8.439560890E0,-1.529655457E1,6.426037312E0
7.804993000E0,6.586448669E0,-1.370441055E1,4.462791920E0
7.809998000E0,4.625597477E0,-1.205719948E1,2.736572504E0
7.815980000E0,2.585737944E0,-9.914389610E0,9.552865028E-1
7.820985000E0,1.582567334E0,-8.427590370E0,2.729389966E-1
7.825989000E0,5.746083856E-1,-7.163451672E0,3.088520169E-1
7.830994000E0,-2.226607651E-1,-6.449979305E0,3.136404157E-1
7.835999000E0,-1.098938584E0,-5.789179802E0,-1.005564705E-1
7.841004000E0,-1.719036818E0,-5.303156853E0,-4.932055473E-1
7.846009000E0,-2.226607561E0,-5.037400246E0,-8.427590132E-1
7.851014000E0,-2.540247917E0,-5.011064053E0,-1.197100878E0
7.856019000E0,-2.873042107E0,-5.396530628E0,-1.575384736E0
7.860962000E0,-2.719813108E0,-5.820304394E0,-1.903390408E0
7.865906000E0,-2.322375536E0,-6.222530365E0,-2.003946781E0
7.870972000E0,-1.810016513E0,-6.631938934E0,-1.810016513E0
7.875977000E0,-1.185129881E0,-6.940790653E0,-1.778891921E0
7.880982000E0,-4.118026793E-1,-7.216124058E0,-2.044648170E0
7.885987000E0,4.094084799E-1,-7.532158375E0,-2.509123325E0
7.890992000E0,9.313444495E-1,-7.694964409E0,-2.861071110E0
7.895997000E0,1.228225470E0,-7.754819393E0,-3.019088268E0
7.901001000E0,1.376665950E0,-7.814674377E0,-2.865859509E0
7.906006000E0,1.465251446E0,-8.034940720E0,-2.458845139E0
7.911011000E0,1.194706678E0,-8.259995461E0,-1.692700624E0
7.916016000E0,6.320692301E-1,-8.288725853E0,-7.709329724E-1
7.921021000E0,3.303998411E-1,-8.226476669E0,-2.657563984E-1
7.925965000E0,-4.788403399E-3,-8.209717751E0,-5.267243832E-2
7.930970000E0,-3.399766386E-1,-8.183381081E0,-1.436521020E-2
7.935974000E0,-7.422025204E-1,-8.202534676E0,2.394201607E-2
7.940979000E0,-1.084573388E0,-8.298302650E0,4.548983276E-2
7.945984000E0,-1.345541358E0,-8.403648376E0,-2.633621916E-2
7.950989000E0,-1.398213744E0,-8.410830498E0,-1.077390760E-1
7.955994000E0,-1.264138460E0,-8.386888504E0,-1.436521020E-2
7.960999000E0,-8.283938169E-1,-8.238448143E0,3.734954596E-1
7.966004000E0,-1.723825186E-1,-8.073247910E0,9.528923035E-1
7.971009000E0,5.458779931E-1,-7.939172745E0,1.563413739E0
7.976013000E0,1.513135433E0,-7.807491779E0,2.178723574E0
7.981018000E0,2.181117773E0,-7.750030994E0,2.650381327E0
7.985962000E0,2.710236311E0,-7.733271599E0,3.050212860E0
7.990967000E0,3.122039080E0,-7.795520782E0,3.224989653E0
7.995972000E0,3.399766445E0,-8.063671112E0,2.928108692E0
8.000977000E0,3.476380825E0,-8.492233276E0,1.970427990E0
8.005982000E0,3.335123062E0,-9.198522568E0,2.873041928E-1
8.010986000E0,3.045424461E0,-9.854534149E0,-9.217676520E-1
8.015991000E0,2.588132143E0,-1.054406452E1,-1.640028119E0
8.020996000E0,2.059013367E0,-1.115937424E1,-1.754949808E0
8.026001000E0,1.561019540E0,-1.175074196E1,-1.233013868E0
8.031006000E0,1.134851575E0,-1.225113010E1,1.460463107E-1
8.035952000E0,7.685387731E-1,-1.256955910E1,1.582567334E0
8.041018000E0,7.350199223E-1,-1.242111874E1,2.870647907E0
8.045962000E0,9.624691010E-1,-1.192312431E1,3.655946016E0
8.050967000E0,1.431732655E0,-1.125035381E1,3.699041605E0
8.055972000E0,2.128445387E0,-1.066137981E1,2.995146275E0
8.060977000E0,3.193865061E0,-1.028309631E1,1.288080573E0
8.065982000E0,4.031835556E0,-1.020648193E1,-2.370259613E-1
8.070986000E0,4.843470097E0,-1.035492229E1,-1.515529633E0
8.075991000E0,5.489904404E0,-1.068532181E1,-2.590526342E0
8.080996000E0,6.019022942E0,-1.106360626E1,-3.485957623E0
8.086001000E0,6.275202751E0,-1.155202293E1,-3.967192173E0
8.091006000E0,6.102819920E0,-1.233732128E1,-3.811569214E0
8.096011000E0,5.662287235E0,-1.299093819E1,-3.126827478E0
8.101992000E0,4.793191910E0,-1.353202820E1,-2.023100376E0
8.106997000E0,3.909731388E0,-1.374032402E1,-1.197100878E0
8.112979000E0,2.755726099E0,-1.374271774E1,-4.118026793E-1
8.117983000E0,1.991975784E0,-1.360864258E1,1.915361285E-1
8.122988000E0,1.414973259E0,-1.337161636E1,8.906430602E-1
8.127993000E0,9.720458984E-1,-1.316571522E1,1.623268723E0
8.132998000E0,5.554547906E-1,-1.301248646E1,2.580949545E0
8.138003000E0,3.543418646E-1,-1.300769806E1,3.201047659E0
8.143008000E0,2.873041928E-1,-1.305558205E1,3.495534420E0
8.148013000E0,4.596867263E-1,-1.318965721E1,3.315969467E0
8.153017000E0,8.810662031E-1,-1.338119316E1,2.715024710E0
8.158022000E0,1.472434044E0,-1.356075859E1,1.853112102E0
8.162966000E0,2.123656988E0,-1.364216137E1,9.911994934E-1
8.167971000E0,2.229001760E0,-1.372116947E1,1.154005170E0
8.172976000E0,1.948880196E0,-1.377144814E1,2.011129379E0
8.177981000E0,1.374271750E0,-1.376187134E1,2.944868088E0
8.182986000E0,8.619126081E-1,-1.369962215E1,3.213018656E0
8.187991000E0,4.165911078E-1,-1.351766300E1,2.920926094E0
8.192995000E0,1.412578970E-1,-1.318726254E1,2.401384354E0
8.198000000E0,1.460463107E-1,-1.256237602E1,1.996764183E0
8.203005000E0,7.661445141E-1,-1.206198788E1,1.302445769E0
8.208010000E0,1.438915253E0,-1.169328117E1,9.768342972E-1
8.213015000E0,1.584961534E0,-1.111867237E1,1.000776291E0
8.218996000E0,1.292868972E0,-1.050336266E1,2.944868207E-1
8.224001000E0,7.876923680E-1,-1.011550236E1,-2.777273953E-1
8.229006000E0,-3.567360640E-1,-1.023760605E1,5.841852427E-1
8.234011000E0,-1.608903527E0,-1.073081207E1,2.018311977E0
8.239016000E0,-2.765302896E0,-1.138921738E1,2.427720547E0
8.244021000E0,-3.615244627E0,-1.217690945E1,1.757344007E0
8.248965000E0,-4.027047157E0,-1.311304283E1,9.217676520E-1
8.253969000E0,-4.211400986E0,-1.408030033E1,2.825157940E-1
8.258974000E0,-4.060565948E0,-1.545457172E1,-3.950432837E-1
8.263979000E0,-3.945644379E0,-1.644816589E1,-1.144428372E0
8.268984000E0,-3.703830004E0,-1.715206146E1,-1.774103403E0
8.273989000E0,-3.217807055E0,-1.758541107E1,-2.145204782E0
8.278994000E0,-2.461239338E0,-1.787989807E1,-2.312798738E0
8.283999000E0,-1.723825216E0,-1.801636696E1,-2.343923569E0
8.289003000E0,-7.685387731E-1,-1.788947487E1,-2.020706177E0
8.294008000E0,5.506663769E-2,-1.759977722E1,-1.754949808E0
8.299013000E0,1.053448796E0,-1.721430969E1,-1.699883223E0
8.304018000E0,1.977610588E0,-1.679053688E1,-1.867477298E0
8.308962000E0,2.600103140E0,-1.632606125E1,-2.159569979E0
8.313967000E0,2.913743496E0,-1.583764458E1,-2.530671120E0
8.318972000E0,3.205836058E0,-1.513374901E1,-2.147598982E0
8.323977000E0,2.188300371E0,-1.482729149E1,-1.276109457E0
8.328981000E0,1.048660398E0,-1.454477501E1,-5.793967843E-1
8.333986000E0,3.854664862E-1,-1.407790565E1,-2.729389966E-1
8.338991000E0,3.040636182E-1,-1.341710663E1,-4.955997467E-1
8.343996000E0,2.298433632E-1,-1.278024864E1,-6.679822803E-1
8.349001000E0,-2.753331959E-1,-1.219127464E1,-7.733271718E-1
8.354006000E0,-8.164227605E-1,-1.175313568E1,-8.331822157E-1
8.359011000E0,-1.393425345E0,-1.133175659E1,-8.283938169E-1
8.364015000E0,-1.944091797E0,-1.092474270E1,-6.512228847E-1
8.369020000E0,-2.296039343E0,-1.051772785E1,-6.368576288E-1
8.373964000E0,-2.604891539E0,-9.998186111E0,-7.517793179E-1
8.378969000E0,-1.905784607E0,-9.392453194E0,-1.235408068E0
8.383974000E0,-1.307234168E0,-9.006986618E0,-1.431732655E0
8.388979000E0,-1.019929886E0,-8.635885239E0,-1.446097851E0
8.393984000E0,-1.046266198E0,-8.245630264E0,-1.510741234E0
8.398989000E0,-9.624691010E-1,-7.740454197E0,-1.431732655E0
8.403993000E0,-5.530605912E-1,-7.137115479E0,-1.142034173E0
8.408998000E0,-4.548983276E-2,-6.337451935E0,-8.164227605E-1
8.414003000E0,3.112462163E-1,-5.774814606E0,-6.224924326E-1
8.419008000E0,3.998316824E-1,-5.133168221E0,-5.770025849E-1
8.424013000E0,3.878606856E-1,-4.558559895E0,-7.445967197E-1
8.429018000E0,2.466027737E-1,-4.017470360E0,-9.983820915E-1
8.434023000E0,6.224924326E-2,-3.603273630E0,-1.300051570E0
8.438966000E0,-4.548983276E-2,-3.083731890E0,-1.460463047E0
8.443971000E0,-1.891419291E-1,-2.731784105E0,-1.599326730E0
8.448976000E0,-3.303998411E-1,-2.389413357E0,-1.687912226E0
8.453981000E0,-4.764461517E-1,-2.114080191E0,-1.675941229E0
8.458986000E0,-5.482721925E-1,-1.826775908E0,-1.661576033E0
8.463991000E0,-6.105214357E-1,-1.572990537E0,-1.572990537E0
8.468996000E0,-3.998316824E-1,-1.379060149E0,-1.580173135E0
8.474001000E0,-1.819593310E-1,-1.177947283E0,-1.539471745E0
8.479005000E0,-4.309562966E-2,-9.624691010E-1,-1.589749932E0
8.484010000E0,9.816227108E-2,-8.116343617E-1,-1.719036818E0
8.489015000E0,8.858546615E-2,-7.278373241E-1,-1.795651317E0
8.494020000E0,3.040636182E-1,-6.655880809E-1,-1.857900500E0
8.498964000E0,4.525041282E-1,-7.374141216E-1,-1.845929503E0
8.503969000E0,3.639186621E-1,-9.074024558E-1,-1.853112102E0
8.508974000E0,9.576806426E-2,-1.146822572E0,-1.929726601E0
8.513978000E0,-8.858546615E-2,-1.343147159E0,-1.970427990E0
8.518983000E0,-2.250549644E-1,-1.527500629E0,-1.910573006E0
8.523988000E0,-4.285621047E-1,-1.702277422E0,-1.814804912E0
8.528993000E0,-5.793967843E-1,-1.924938202E0,-1.697489023E0
8.533998000E0,-7.302315235E-1,-2.090138197E0,-1.448492050E0
8.539003000E0,-9.145850539E-1,-2.248155355E0,-1.127668977E0
8.544008000E0,-1.110909581E0,-2.391807556E0,-6.727706790E-1
8.549013000E0,-1.316810966E0,-2.540247917E0,3.112462163E-2
8.554017000E0,-1.561019540E0,-2.858676910E0,1.010353088E0
8.559022000E0,-1.580173135E0,-3.184288263E0,1.845929503E0
8.563966000E0,-1.400607944E0,-3.684676409E0,2.592920542E0
8.568971000E0,-1.108515382E0,-4.364629745E0,3.356670856E0
8.573976000E0,-7.900865674E-1,-5.193023682E0,4.311957359E0
8.578981000E0,-4.285621047E-1,-6.222530365E0,5.494692802E0
8.583986000E0,1.556231081E-1,-7.728483200E0,7.726089001E0
8.588990000E0,5.722141862E-1,-9.071630478E0,1.000058079E1
8.593995000E0,8.690952063E-1,-1.052969933E1,1.224155331E1
8.599000000E0,1.204283476E0,-1.213381386E1,1.412100124E1
8.604005000E0,1.388636947E0,-1.381933212E1,1.545457172E1
8.609010000E0,1.436521053E0,-1.562934875E1,1.621113968E1
8.614015000E0,1.599326730E0,-1.793975258E1,1.638112831E1
8.619020000E0,1.824381709E0,-1.981680679E1,1.600523758E1
8.623964000E0,2.044648170E0,-2.152147865E1,1.517923832E1
8.628968000E0,2.269703150E0,-2.267787933E1,1.376187134E1
8.633973000E0,2.506729126E0,-2.282392502E1,1.217690945E1
8.638978000E0,2.619256735E0,-2.173216820E1,1.064222622E1
8.643983000E0,2.667140722E0,-1.916319084E1,9.402029991E0
8.648988000E0,2.600103140E0,-1.682645035E1,8.791508675E0
8.653993000E0,2.494758129E0,-1.454238129E1,8.274360657E0
8.658998000E0,2.331952572E0,-1.246660805E1,7.613561630E0
8.664003000E0,2.032677174E0,-1.050815105E1,6.888118267E0
8.669007000E0,1.613691926E0,-8.710105896E0,6.318298340E0
8.674012000E0,1.072602391E0,-6.864176273E0,5.544970989E0
8.679017000E0,6.488286853E-1,-5.746084213E0,4.838681698E0
8.684022000E0,3.639186621E-1,-4.996698856E0,4.223371983E0
8.688966000E0,5.985504389E-2,-4.855441093E0,4.039018154E0
8.693971000E0,-4.692635238E-1,-5.525817394E0,4.103661537E0
8.698976000E0,-8.954314590E-1,-6.770802498E0,4.407725334E0
8.703980000E0,-9.217676520E-1,-8.726864815E0,4.860229492E0
8.708985000E0,-5.171475410E-1,-1.052012253E1,5.226542473E0
8.713990000E0,2.418143749E-1,-1.251209831E1,5.166687489E0
8.718995000E0,1.350329757E0,-1.464293766E1,3.818751812E0
8.724000000E0,2.054224968E0,-1.698446655E1,1.948880196E0
8.729005000E0,1.805228114E0,-1.970667458E1,3.998316824E-1
8.734010000E0,1.733402014E0,-2.292448044E1,-2.329558372E0
8.739015000E0,1.632845521E0,-2.500264740E1,-2.983175278E0
8.744019000E0,1.077390790E0,-2.669534874E1,-1.747767180E-1
8.748963000E0,1.553836942E0,-2.706645012E1,4.960785866E0
8.753846000E0,2.387019157E0,-2.388934517E1,5.841852188E0
8.758973000E0,1.719036818E0,-2.022382164E1,2.166752577E0
8.763978000E0,-1.216254473E0,-1.325190639E1,-6.689399719E0
8.768983000E0,-4.053383350E0,-7.943961143E0,-1.266532707E1
8.773988000E0,-6.612784863E0,-3.476380825E0,-1.561977196E1
8.778992000E0,-8.554482460E0,-2.346317619E-1,-1.329739666E1
8.783997000E0,-1.026394272E1,1.771709204E0,-7.941566944E0
8.789002000E0,-1.186805820E1,2.956839085E0,-1.584961534E0
8.794007000E0,-1.350329781E1,3.696647406E0,6.766014099E0
8.799012000E0,-1.493263626E1,3.612850428E0,1.056082344E1
8.804017000E0,-1.517923832E1,2.777273893E0,9.904812813E0
8.809022000E0,-1.337161636E1,1.407790542E0,6.356605530E0
8.813966000E0,-8.753201485E0,-3.064578176E-1,1.122880578E0
8.818970000E0,-3.076549292E0,-2.621650934E0,-3.373430252E0
8.823975000E0,2.580949545E0,-6.485892296E0,-5.755661011E0
8.828980000E0,5.255272865E0,-1.010113716E1,-6.828263283E0
8.833985000E0,6.789956093E0,-1.333570385E1,-8.463502884E0
8.838929000E0,7.553706169E0,-1.582088470E1,-1.041717148E1
8.843995000E0,7.785943985E0,-1.737232780E1,-1.230140877E1
8.849000000E0,7.364564419E0,-1.819353867E1,-1.292390060E1
8.854004000E0,6.895300865E0,-1.816720200E1,-1.220324612E1
8.859009000E0,7.120356083E0,-1.781525421E1,-1.102051067E1
8.864014000E0,7.783549786E0,-1.755668068E1,-8.760383606E0
8.869019000E0,8.894459724E0,-1.760935402E1,-4.127603531E0
8.873963000E0,1.046266174E1,-1.779849625E1,3.265691042E0
8.878968000E0,1.149935055E1,-1.773624611E1,9.610325813E0
8.883973000E0,1.059673691E1,-1.662054825E1,1.197100830E1
8.888978000E0,8.669404030E0,-1.501164436E1,1.034534550E1
8.893982000E0,6.461950302E0,-1.309628296E1,7.623138428E0
8.898987000E0,4.472368717E0,-1.109473038E1,5.075707436E0
8.903992000E0,2.494758129E0,-9.179368973E0,2.985569477E0
8.908997000E0,7.110779285E-1,-7.551311970E0,1.280897856E0
8.914002000E0,-3.639186621E-1,-6.105214119E0,6.655880809E-1
8.919007000E0,-1.316810966E0,-5.281609058E0,2.059013397E-1
8.924012000E0,-2.006340981E0,-4.644751072E0,-3.064578176E-1
8.929016000E0,-2.394201756E0,-4.185064793E0,-6.751648784E-1
8.934021000E0,-2.456450939E0,-3.904942989E0,-1.082179189E0
8.938965000E0,-2.229001760E0,-3.995922565E0,-1.539471745E0
8.943970000E0,-2.200271368E0,-4.431667328E0,-1.786074519E0
8.948975000E0,-2.193088770E0,-4.984727859E0,-1.941697598E0
8.953980000E0,-1.829170108E0,-5.576095581E0,-2.233790159E0
8.958985000E0,-1.139639974E0,-6.052541733E0,-2.724601507E0
8.963990000E0,-3.351882398E-1,-6.572083473E0,-3.179499865E0
8.968994000E0,4.477157295E-1,-7.307103634E0,-3.653551817E0
8.973999000E0,1.048660398E0,-7.860164165E0,-4.005499363E0
8.979004000E0,1.498770237E0,-8.298302650E0,-4.072536945E0
8.984009000E0,1.845929503E0,-8.631096840E0,-3.818751812E0
8.989014000E0,2.188300371E0,-9.030928612E0,-3.399766445E0
8.994019000E0,1.867477298E0,-9.459490776E0,-2.698265314E0
8.998963000E0,7.350199223E-1,-9.730035782E0,-1.403002143E0
9.003967000E0,-7.900865376E-2,-9.809044838E0,-3.112462163E-1
9.008972000E0,-6.679822803E-1,-9.782708168E0,6.344634295E-1
9.013977000E0,-1.039083481E0,-9.631873131E0,1.484405041E0
9.018982000E0,-1.271321058E0,-9.392453194E0,2.133233786E0
9.023987000E0,-1.431732655E0,-9.126696587E0,2.609679937E0
9.028992000E0,-1.407790542E0,-8.746018410E0,2.796427488E0
9.033938000E0,-1.089361787E0,-8.449137688E0,2.624045134E0
9.039004000E0,-5.650315881E-1,-8.178592682E0,2.334346771E0
9.044009000E0,8.858546615E-2,-7.996633530E0,1.893813491E0
9.049014000E0,8.355764151E-1,-7.891288757E0,1.498770237E0
9.054019000E0,1.532289028E0,-7.941566944E0,1.206677675E0
9.058963000E0,2.190694571E0,-8.200140953E0,9.720458984E-1
9.063967000E0,2.499546528E0,-8.578424454E0,8.834604025E-1
9.068972000E0,2.636016130E0,-9.057265282E0,9.002198577E-1
9.073977000E0,2.631227732E0,-9.485827446E0,9.265560508E-1
9.078982000E0,2.549824715E0,-9.895236015E0,8.667010069E-1
9.083987000E0,2.454056740E0,-1.013465595E1,6.775590777E-1
9.088992000E0,2.257732153E0,-1.017535686E1,4.548983276E-1
9.093997000E0,2.140416384E0,-1.009156036E1,3.447650373E-1
9.099002000E0,2.020706177E0,-9.825803757E0,2.537853718E-1
9.104006000E0,1.987187386E0,-9.526528358E0,2.705447972E-1
9.109011000E0,1.948880196E0,-9.174580574E0,4.070142806E-1
9.113833000E0,1.977610588E0,-8.846575737E0,5.291185975E-1
9.119021000E0,2.087743998E0,-8.760383606E0,6.464344859E-1
9.123965000E0,2.336740971E0,-8.959102631E0,8.068459630E-1
9.128970000E0,2.533065319E0,-9.363722801E0,1.041477680E0
9.133975000E0,2.681505919E0,-9.928754807E0,1.323993564E0
9.138979000E0,2.839523315E0,-1.046505547E1,1.635239720E0
9.143984000E0,3.031059265E0,-1.091037750E1,1.807622313E0
9.148989000E0,3.241749048E0,-1.132696819E1,1.556231141E0
9.153994000E0,3.397372246E0,-1.154005241E1,1.027112484E0
9.158999000E0,3.560178041E0,-1.168609810E1,2.968810201E-1
9.164004000E0,3.746925592E0,-1.181299114E1,-4.525041282E-1
9.169009000E0,3.876212597E0,-1.195664310E1,-1.063025594E0
9.174014000E0,4.043806553E0,-1.218648624E1,-1.434126854E0
9.179018000E0,4.062960148E0,-1.248815632E1,-1.352723956E0
9.183962000E0,3.888183594E0,-1.272518158E1,-1.060631394E0
9.188967000E0,3.478775024E0,-1.291193008E1,-4.668693244E-1
9.193972000E0,2.992752075E0,-1.303164005E1,2.561795712E-1
9.198855000E0,2.334346771E0,-1.315613842E1,1.242590666E0
9.203982000E0,1.958456993E0,-1.323035812E1,1.910573006E0
9.208987000E0,1.484405041E0,-1.333570385E1,2.475604534E0
9.213991000E0,1.230619669E0,-1.338119316E1,2.887407303E0
9.218996000E0,1.101332784E0,-1.349372101E1,3.179499865E0
9.224001000E0,1.139639974E0,-1.361343098E1,3.330334663E0
9.229006000E0,1.422155857E0,-1.389834118E1,3.181894064E0
9.234011000E0,1.841141105E0,-1.421916389E1,2.729389906E0
9.239016000E0,2.545036316E0,-1.447773743E1,2.214636564E0
9.244021000E0,3.232172251E0,-1.458308220E1,1.733402014E0
9.248965000E0,3.823540211E0,-1.470039845E1,1.304839969E0
9.253969000E0,4.065354347E0,-1.472434044E1,8.403648138E-1
9.258974000E0,3.955221176E0,-1.472912884E1,4.908113480E-1
9.263979000E0,3.383007050E0,-1.463336086E1,5.530605912E-1
9.268984000E0,2.973598480E0,-1.432929707E1,8.020575643E-1
9.273989000E0,2.908955097E0,-1.401326275E1,9.888052940E-1
9.278811000E0,2.535459518E0,-1.321120453E1,4.165911078E-1
9.283999000E0,2.226607561E0,-1.261265469E1,1.005564705E-1
9.289003000E0,1.496376038E0,-1.181538582E1,-3.112462163E-2
9.294008000E0,3.591302410E-2,-1.103966427E1,-2.801215947E-1
9.299013000E0,-1.295263171E0,-1.075954247E1,-1.292868853E-1
9.304018000E0,-2.904166698E0,-1.077630138E1,9.888052940E-1
9.308962000E0,-4.402936935E0,-1.102051067E1,2.353500366E0
9.313967000E0,-5.667075634E0,-1.133893967E1,2.961627483E0
9.318972000E0,-6.380547523E0,-1.169088650E1,2.619256735E0
9.323977000E0,-6.351817131E0,-1.218409252E1,1.326387763E0
9.328981000E0,-5.695806026E0,-1.314416695E1,1.340752989E-1
9.333986000E0,-4.845864296E0,-1.419282722E1,-8.355764151E-1
9.338991000E0,-4.211400986E0,-1.512417221E1,-1.539471745E0
9.343996000E0,-3.651157618E0,-1.584003830E1,-1.984793186E0
9.349001000E0,-2.913743496E0,-1.611776543E1,-2.401384354E0
9.354006000E0,-1.867477298E0,-1.613691902E1,-2.626439333E0
9.359011000E0,-1.024718285E0,-1.608903503E1,-2.281674147E0
9.364015000E0,-1.173158810E-1,-1.604115105E1,-1.824381709E0
9.369020000E0,7.637503147E-1,-1.606988144E1,-1.544260144E0
9.373964000E0,1.472434044E0,-1.601960373E1,-1.379060149E0
9.378969000E0,1.635239720E0,-1.597650814E1,-1.407790542E0
9.383974000E0,1.405396342E0,-1.594538307E1,-1.747767210E0
9.388979000E0,1.302445769E0,-1.569878101E1,-1.707065821E0
9.393984000E0,1.666364431E0,-1.521036339E1,-1.034295082E0
9.398989000E0,1.201889277E0,-1.491348267E1,-5.506663769E-2
9.403993000E0,6.153098345E-1,-1.476983070E1,6.655880809E-1
9.408998000E0,5.722141862E-1,-1.448970890E1,4.453215301E-1
9.414003000E0,1.110909581E0,-1.391270638E1,-3.854664862E-1
9.419008000E0,1.364694953E0,-1.355357552E1,-8.810662031E-1
9.424013000E0,1.206677675E0,-1.329260826E1,-1.192312479E0
9.429018000E0,9.504981041E-1,-1.308910084E1,-1.443703651E0
9.434999000E0,4.620809257E-1,-1.267969227E1,-1.407790542E0
9.440004000E0,-2.633621916E-2,-1.222479343E1,-1.130063176E0
9.445009000E0,-3.806780577E-1,-1.164779091E1,-9.050082564E-1
9.450014000E0,-7.254431248E-1,-1.077630138E1,-6.799532771E-1
9.455019000E0,-1.063025594E0,-9.959878922E0,-6.033388376E-1
9.459963000E0,-1.201889277E0,-9.095572472E0,-8.355764151E-1
9.464967000E0,-1.259350061E0,-8.204929352E0,-1.223437071E0
9.469972000E0,-1.103726983E0,-7.383718014E0,-1.477222443E0
9.474977000E0,-9.337386489E-1,-6.576871872E0,-1.534683347E0
9.479982000E0,-6.105214357E-1,-5.664681435E0,-1.429338455E0
9.484987000E0,-3.639186621E-1,-5.082890034E0,-1.280897856E0
9.489992000E0,-6.703764945E-2,-4.599261284E0,-1.132457376E0
9.494997000E0,2.873042040E-2,-4.189853191E0,-1.082179189E0
9.500001000E0,1.580173075E-1,-3.842693806E0,-1.144428372E0
9.505006000E0,9.816227108E-2,-3.617638826E0,-1.199495077E0
9.510011000E0,-4.788403213E-2,-3.361459255E0,-1.237802267E0
9.515016000E0,-8.140286058E-2,-3.141192675E0,-1.295263171E0
9.520021000E0,1.197100803E-2,-2.906560898E0,-1.276109457E0
9.524965000E0,1.053448766E-1,-2.755726099E0,-1.206677675E0
9.529970000E0,1.963245422E-1,-2.578555346E0,-1.094150186E0
9.534975000E0,3.351882398E-1,-2.439691544E0,-1.098938584E0
9.539979000E0,3.495534360E-1,-2.128445387E0,-1.082179189E0
9.544984000E0,2.537853718E-1,-1.917755604E0,-1.180341482E0
9.549989000E0,2.777273953E-1,-1.692700624E0,-1.307234168E0
9.554994000E0,2.059013397E-1,-1.546654344E0,-1.379060149E0
9.559999000E0,9.816227108E-2,-1.359906554E0,-1.505952835E0
9.565004000E0,-2.154781483E-2,-1.199495077E0,-1.716642618E0
9.570009000E0,-1.651999205E-1,-1.039083481E0,-1.853112102E0
9.575013000E0,-3.447650373E-1,-9.528923035E-1,-1.975216389E0
9.580018000E0,-5.482721925E-1,-9.337386489E-1,-2.044648170E0
9.584962000E0,-7.781155705E-1,-9.528923035E-1,-2.104503393E0
9.589967000E0,-9.528923035E-1,-9.624691010E-1,-2.171540976E0
9.594972000E0,-1.122880578E0,-1.015141487E0,-2.298433542E0
9.599977000E0,-1.218648672E0,-1.031900883E0,-2.042253971E0
9.604982000E0,-1.237802267E0,-1.079784989E0,-1.630451322E0
9.609987000E0,-1.316810966E0,-1.106121182E0,-1.094150186E0
9.614991000E0,-1.328781962E0,-1.223437071E0,-4.812345505E-1
9.619996000E0,-1.338358760E0,-1.359906554E0,1.412578970E-1
9.625001000E0,-1.285686255E0,-1.613691926E0,1.194706678E0
9.630006000E0,-9.983820915E-1,-2.128445387E0,2.293645144E0
9.635011000E0,-6.105214357E-1,-2.715024710E0,3.450044632E0
9.640016000E0,-1.580173075E-1,-3.555389643E0,4.714183331E0
9.645021000E0,4.261679053E-1,-4.632780075E0,6.260837555E0
9.649964000E0,1.149216771E0,-5.925649166E0,8.355764389E0
9.654969000E0,2.001552582E0,-7.460332394E0,1.152089882E1
9.659974000E0,2.880224705E0,-9.730035782E0,1.429817295E1
9.664979000E0,3.497928619E0,-1.181299114E1,1.665167236E1
9.669984000E0,3.718195200E0,-1.399650288E1,1.795411873E1
9.674989000E0,3.284844637E0,-1.626141739E1,1.790862846E1
9.679994000E0,2.188300371E0,-1.847605515E1,1.683602715E1
9.684999000E0,8.834604025E-1,-2.110488892E1,1.509065342E1
9.690003000E0,5.458779931E-1,-2.269463730E1,1.360624790E1
9.695008000E0,7.110779285E-1,-2.336022568E1,1.201410389E1
9.700990000E0,1.000776291E0,-2.256774521E1,1.023281765E1
9.705995000E0,6.943184733E-1,-2.065956688E1,9.157821655E0
9.710999000E0,2.729389966E-1,-1.817199135E1,8.322244644E0
9.716004000E0,-4.788403213E-2,-1.547851372E1,7.517793179E0
9.721009000E0,-4.141969085E-1,-1.219127464E1,6.402095318E0
9.726014000E0,-8.834604025E-1,-9.859322548E0,5.626373768E0
9.731019000E0,-1.302445769E0,-7.762001991E0,5.147533417E0
9.735963000E0,-1.812410712E0,-6.112396717E0,4.857835293E0
9.742005000E0,-2.315192938E0,-5.058948040E0,4.467580318E0
9.747010000E0,-2.487575531E0,-5.137956619E0,4.132391930E0
9.752015000E0,-2.561795712E0,-6.074089527E0,3.780444384E0
9.757020000E0,-2.427720547E0,-7.812280178E0,3.387795448E0
9.761964000E0,-1.786074519E0,-9.234436035E0,3.603273630E0
9.766969000E0,-1.091755986E0,-1.075714779E1,4.163516521E0
9.771973000E0,-1.173158810E-1,-1.243548393E1,4.525041103E0
9.776978000E0,1.216254473E0,-1.431493187E1,3.881000996E0
9.781983000E0,2.176329374E0,-1.657266426E1,2.616862535E0
9.786988000E0,2.624045134E0,-1.951274300E1,3.782838583E-1
9.791993000E0,2.966415882E0,-2.138022041E1,-2.679111719E0
9.796998000E0,3.466804028E0,-2.269224358E1,-4.881777287E0
9.802003000E0,2.837129116E0,-2.395159340E1,-4.158728123E0
9.807008000E0,1.501164436E0,-2.491645622E1,-8.954314590E-1
9.812012000E0,9.600749016E-1,-2.499785995E1,3.473986626E0
9.817017000E0,1.139639974E0,-2.287659645E1,5.477933407E0
9.822022000E0,1.309628367E0,-1.906502724E1,2.291250944E0
9.826966000E0,9.816226959E-1,-1.422634697E1,-3.337517262E0
9.831971000E0,-3.160346150E-1,-9.263166428E0,-9.346963882E0
9.836976000E0,-2.461239338E0,-4.795586109E0,-1.427662468E1
9.841981000E0,-4.771644115E0,-1.314416766E0,-1.491587639E1
9.846985000E0,-7.048529625E0,1.350329757E0,-9.885659218E0
9.851990000E0,-8.717288017E0,2.475604534E0,-3.708618402E0
9.856995000E0,-9.885659218E0,2.916137695E0,2.789244890E0
9.862000000E0,-1.042674828E1,2.846705914E0,7.568071365E0
9.867005000E0,-1.030943298E1,2.461239338E0,8.774748802E0
9.872010000E0,-9.330204010E0,1.374271750E0,6.461950302E0
9.877015000E0,-6.265625954E0,-7.924807668E-1,1.048660398E0
9.882020000E0,-2.480392933E0,-3.208230257E0,-3.035847664E0
9.886963000E0,1.271321058E0,-5.954379559E0,-6.153098583E0
9.891968000E0,3.938461781E0,-8.908824921E0,-7.996633530E0
9.896973000E0,4.939238071E0,-1.173398209E1,-8.475474358E0
9.901978000E0,4.496310711E0,-1.400129128E1,-8.192957878E0
9.906983000E0,3.835511208E0,-1.572511673E1,-8.647856712E0
9.911988000E0,3.519476414E0,-1.643858910E1,-8.863334656E0
9.916993000E0,3.715801001E0,-1.678335381E1,-8.753201485E0
9.921997000E0,4.805162907E0,-1.705868721E1,-8.015787125E0
9.927002000E0,6.263231754E0,-1.744415283E1,-6.129156113E0
9.932007000E0,7.793126583E0,-1.766442108E1,-3.363853455E0
9.937012000E0,9.662998199E0,-1.769315147E1,6.584054828E-1
9.942017000E0,1.026154804E1,-1.717360878E1,3.778050184E0
9.947022000E0,9.670180321E0,-1.571793461E1,5.691017628E0
9.951966000E0,7.553706169E0,-1.370680428E1,6.100425720E0
9.956971000E0,4.754884720E0,-1.159033012E1,5.746084213E0
9.961975000E0,2.140416384E0,-9.806650162E0,5.363011837E0
9.966980000E0,-2.609679997E-1,-8.082824707E0,5.075707436E0
9.971985000E0,-1.414973259E0,-7.026981831E0,4.733336926E0
9.976990000E0,-2.315192938E0,-6.153098583E0,4.053383350E0
9.981995000E0,-3.083731890E0,-5.360617638E0,2.545036316E0
9.987000000E0,-3.174711466E0,-4.690241337E0,8.331822157E-1
9.992005000E0,-2.849100113E0,-4.173093796E0,-8.499416113E-1
9.997009000E0,-2.578555346E0,-4.084507942E0,-2.494758129E0
1.000201400E1,-2.013523579E0,-4.374206543E0,-3.052607059E0
1.000701900E1,-1.364694953E0,-4.800374508E0,-3.409343243E0
1.001196300E1,-6.943184733E-1,-5.207388878E0,-3.677493811E0
1.001696800E1,-2.633621916E-2,-5.734113216E0,-3.469198227E0
1.002197300E1,3.950432837E-1,-6.356605530E0,-3.136404276E0
1.002697800E1,4.572925270E-1,-7.170634270E0,-3.009511471E0
1.003198300E1,5.434837937E-1,-7.769184589E0,-3.076549292E0
1.003699000E1,5.722141862E-1,-8.350975990E0,-3.184288263E0
1.004199500E1,2.250549644E-1,-8.892065048E0,-3.047818661E0
1.004700000E1,-2.561795712E-1,-9.236829758E0,-2.750937700E0
1.005200500E1,-7.326257229E-1,-9.514557838E0,-2.042253971E0
1.005700900E1,-1.144428372E0,-9.679757118E0,-1.290474772E0
1.006201400E1,-1.273715258E0,-9.658209801E0,-4.118026793E-1
1.006701900E1,-1.297657371E0,-9.586383820E0,4.165911078E-1
1.007196300E1,-1.280897856E0,-9.406818390E0,1.096544385E0
1.007696800E1,-1.144428372E0,-9.165003777E0,1.675941229E0
1.008197300E1,-9.409212470E-1,-8.935160637E0,2.035071373E0
1.008697800E1,-6.440402865E-1,-8.542511940E0,2.066195965E0
1.009198200E1,-2.801215947E-1,-8.243236542E0,1.845929503E0
1.009698700E1,7.182604820E-2,-7.991845131E0,1.539471745E0
1.010296900E1,6.272808313E-1,-7.699752808E0,1.405396342E0
1.010797400E1,1.103726983E0,-7.532158375E0,1.422155857E0
1.011297900E1,1.584961534E0,-7.431602001E0,1.441309452E0
1.011798300E1,2.183511972E0,-7.517793179E0,1.472434044E0
1.012298800E1,2.571372509E0,-7.764396191E0,1.441309452E0
1.012799300E1,2.863465309E0,-8.137891769E0,1.242590666E0
1.013299800E1,3.007117271E0,-8.695740700E0,9.289502501E-1
1.013800300E1,2.932897091E0,-9.327810287E0,5.506663918E-1
1.014300800E1,2.731784105E0,-9.854534149E0,3.303998411E-1
1.014801300E1,2.372653961E0,-1.032379818E1,2.873041928E-1
1.015301700E1,1.939303398E0,-1.053209305E1,4.070142806E-1
1.015802200E1,1.465251446E0,-1.055842972E1,5.841852427E-1
1.016296600E1,1.027112484E0,-1.045787334E1,7.948749661E-1
1.016797100E1,6.464344859E-1,-1.034055710E1,9.361328483E-1
1.017297600E1,3.399766386E-1,-1.024478912E1,1.065419793E0
1.017798100E1,7.900865376E-2,-1.031182671E1,1.292868972E0
1.018298600E1,-5.506663769E-2,-1.056561184E1,1.594538331E0
1.018799100E1,-1.340752989E-1,-1.092953110E1,1.927332401E0
