"Time (s)","Acceleration x (m/s^2)","Acceleration y (m/s^2)","Acceleration z (m/s^2)"
0.000000000E0,-8.052520752E-1,3.311492920E0,9.631011963E0
5.004883000E-3,-7.717285156E-1,3.335433960E0,9.654953003E0
1.007080100E-2,-7.334289551E-1,3.287551880E0,9.616653442E0
1.510620200E-2,-6.711730957E-1,3.277984619E0,9.492156982E0
2.020263700E-2,-6.328735352E-1,3.287551880E0,9.429901123E0
2.523803800E-2,-5.706176758E-1,3.239669800E0,9.372436523E0
3.030395600E-2,-5.275268555E-1,3.244461060E0,9.338928223E0
3.540039100E-2,-5.131683350E-1,3.258819580E0,9.353286743E0
4.049682700E-2,-4.892120361E-1,3.230102539E0,9.382019043E0
4.559326200E-2,-4.987945557E-1,3.177429199E0,9.372436523E0
5.068969800E-2,-4.604949951E-1,3.158264160E0,9.434692383E0
5.575561600E-2,-4.221801758E-1,3.158264160E0,9.501724243E0
6.085205100E-2,-3.982391357E-1,3.172637939E0,9.506515503E0
6.591796900E-2,-4.030303955E-1,3.143905640E0,9.520874023E0
7.101440500E-2,-3.551483154E-1,3.167846680E0,9.535247803E0
7.608032300E-2,-3.455657959E-1,3.201370239E0,9.482574463E0
8.114624100E-2,-3.455657959E-1,3.167846680E0,9.420318604E0
8.621215900E-2,-3.742980957E-1,3.182205200E0,9.382019043E0
9.127807700E-2,-3.886566162E-1,3.258819580E0,9.295822144E0
9.634399500E-2,-3.742980957E-1,3.297134399E0,9.180908203E0
1.014404300E-1,-3.455657959E-1,3.335433960E0,9.133026123E0
1.065368660E-1,-3.551483154E-1,3.330657959E0,9.152175903E0
1.116333010E-1,-3.407745361E-1,3.325866699E0,9.176116943E0
1.167297370E-1,-3.072662354E-1,3.306716919E0,9.252731323E0
1.217956550E-1,-2.976837158E-1,3.330657959E0,9.267089844E0
1.268920900E-1,-2.258605957E-1,3.301925659E0,9.291030884E0
1.319580080E-1,-2.162780762E-1,3.273193359E0,9.329345703E0
1.370239260E-1,-1.923370361E-1,3.268402100E0,9.334136963E0
1.421203620E-1,-2.019195557E-1,3.254043579E0,9.377227783E0
1.471862800E-1,-1.875457764E-1,3.230102539E0,9.377227783E0
1.522521980E-1,-1.683959961E-1,3.249252319E0,9.343704224E0
1.573181160E-1,-1.348724365E-1,3.230102539E0,9.396377563E0
1.624145510E-1,-1.492462158E-1,3.191787720E0,9.449050903E0
1.675109870E-1,-1.779785156E-1,3.215728760E0,9.439483643E0
1.726074220E-1,-1.731872559E-1,3.210937500E0,9.429901123E0
1.776733400E-1,-1.588134766E-1,3.215728760E0,9.434692383E0
1.827697760E-1,-1.731872559E-1,3.210937500E0,9.420318604E0
1.878356940E-1,-1.588134766E-1,3.206146240E0,9.405960083E0
1.929016120E-1,-1.683959961E-1,3.210937500E0,9.367645264E0
1.979980470E-1,-1.779785156E-1,3.201370239E0,9.367645264E0
2.030639650E-1,-1.492462158E-1,3.201370239E0,9.334136963E0
2.081604010E-1,-1.253051758E-1,3.215728760E0,9.281463623E0
2.132263190E-1,-1.205139160E-1,3.210937500E0,9.281463623E0
2.183227540E-1,-1.253051758E-1,3.215728760E0,9.305404663E0
2.233886720E-1,-1.013641357E-1,3.201370239E0,9.358078003E0
2.284851080E-1,-1.492462158E-1,3.206146240E0,9.444259644E0
2.335510260E-1,-1.205139160E-1,3.244461060E0,9.410751343E0
2.386169440E-1,-8.699035645E-2,3.201370239E0,9.420318604E0
2.437133790E-1,-1.061401367E-1,3.172637939E0,9.434692383E0
2.487792970E-1,-8.219909668E-2,3.153488159E0,9.386810303E0
2.538757330E-1,-3.910827637E-2,3.153488159E0,9.348495483E0
2.589416510E-1,-9.178161621E-2,3.139114380E0,9.310195923E0
2.640380860E-1,-1.636047363E-1,3.124755859E0,9.372436523E0
2.691040040E-1,-1.971282959E-1,3.153488159E0,9.362869263E0
2.742004400E-1,-2.067108154E-1,3.148696899E0,9.372436523E0
2.792663580E-1,-2.019195557E-1,3.153488159E0,9.401168823E0
2.843322760E-1,-2.162780762E-1,3.148696899E0,9.425109863E0
2.894287110E-1,-2.067108154E-1,3.110382080E0,9.439483643E0
2.944946290E-1,-1.827545166E-1,3.143905640E0,9.439483643E0
2.995910650E-1,-1.731872559E-1,3.110382080E0,9.482574463E0
3.046569830E-1,-2.019195557E-1,3.096023560E0,9.487365723E0
3.097534180E-1,-1.827545166E-1,3.096023560E0,9.506515503E0
3.148193360E-1,-2.067108154E-1,3.091232300E0,9.516098022E0
3.199157720E-1,-2.689514160E-1,3.110382080E0,9.540039062E0
3.249816900E-1,-3.024749756E-1,3.153488159E0,9.463424683E0
3.300781250E-1,-4.078216553E-1,3.210937500E0,9.382019043E0
3.351440430E-1,-4.413299561E-1,3.191787720E0,9.353286743E0
3.402099610E-1,-4.509124756E-1,3.186996460E0,9.271881104E0
3.453063970E-1,-4.365539551E-1,3.172637939E0,9.180908203E0
3.503723150E-1,-4.269714355E-1,3.172637939E0,9.161743164E0
3.554687500E-1,-4.269714355E-1,3.201370239E0,9.094711304E0
3.605346680E-1,-4.221801758E-1,3.163055420E0,9.051620483E0
3.656311040E-1,-4.413299561E-1,3.148696899E0,9.056411743E0
3.706970220E-1,-4.221801758E-1,3.158264160E0,9.099502563E0
3.757934570E-1,-4.173889160E-1,3.115173340E0,9.113861084E0
3.808593750E-1,-3.838806152E-1,3.119964600E0,9.147384644E0
3.859558110E-1,-3.551483154E-1,3.105590820E0,9.200057983E0
3.910217290E-1,-3.216247559E-1,3.062500000E0,9.276672363E0
3.960876470E-1,-2.785339355E-1,3.048141479E0,9.310195923E0
4.011840820E-1,-2.976837158E-1,2.995468140E0,9.233581543E0
4.062500000E-1,-3.024749756E-1,2.914062500E0,9.209640503E0
4.113464360E-1,-3.359832764E-1,2.933212280E0,9.156967163E0
4.164123540E-1,-3.168334961E-1,2.918853760E0,9.032470703E0
4.215087900E-1,-4.125976562E-1,2.890121460E0,8.922332764E0
4.265747070E-1,-5.514678955E-1,2.847030640E0,8.759521484E0
4.316406250E-1,-6.855468750E-1,2.861389160E0,8.601501465E0
4.367370610E-1,-8.004608154E-1,2.880538940E0,8.529678345E0
4.418029790E-1,-9.153900146E-1,2.899688721E0,8.414764404E0
4.468994150E-1,-1.097351074E0,2.918853760E0,8.299835205E0
4.519653320E-1,-1.212265015E0,2.909271240E0,8.275894165E0
4.570617680E-1,-1.341552734E0,2.861389160E0,8.170547485E0
4.621276860E-1,-1.442108154E0,2.770416260E0,8.180130005E0
4.672241220E-1,-1.509155273E0,2.698577881E0,8.165756226E0
4.722900400E-1,-1.523513794E0,2.617187500E0,8.122665405E0
4.773864750E-1,-1.585769653E0,2.507049561E0,8.060424805E0
4.824523930E-1,-1.652801514E0,2.440002441E0,7.950286865E0
4.875183110E-1,-1.691101074E0,2.262832642E0,7.753952026E0
4.926147470E-1,-1.738998413E0,2.171859741E0,7.552841187E0
4.976806650E-1,-1.834762573E0,1.946807861E0,7.289489746E0
5.027771000E-1,-1.868286133E0,1.764846802E0,7.040481567E0
5.078125000E-1,-1.940109253E0,1.669082642E0,6.825012207E0
5.129089360E-1,-2.035873413E0,1.597244263E0,6.599960327E0
5.180053720E-1,-2.160369873E0,1.549362183E0,6.379684448E0
5.231018070E-1,-2.327972412E0,1.549362183E0,6.121109009E0
5.281677250E-1,-2.543441772E0,1.539794922E0,5.905639648E0
5.332336430E-1,-2.821166992E0,1.544570923E0,5.690155029E0
5.382995610E-1,-3.070175171E0,1.539794922E0,5.536926270E0
5.433959970E-1,-3.218612671E0,1.511062622E0,5.354965210E0
5.484924320E-1,-3.300018311E0,1.506271362E0,5.187377930E0
5.535583500E-1,-3.376632690E0,1.487121582E0,5.010208130E0
5.586547860E-1,-3.424514771E0,1.463180542E0,4.914428711E0
5.637207040E-1,-3.448455811E0,1.472747803E0,4.756423950E0
5.688171390E-1,-3.395782471E0,1.482330322E0,4.641494751E0
5.738830570E-1,-3.266494751E0,1.400924683E0,4.584030151E0
5.789489750E-1,-3.036651611E0,1.228546143E0,4.449966431E0
5.840454110E-1,-2.797225952E0,1.075317383E0,4.272796631E0
5.891113290E-1,-2.548233032E0,8.981475830E-1,4.138717651E0
5.942077640E-1,-2.299240112E0,7.449188232E-1,3.908874512E0
5.992736820E-1,-2.011932373E0,6.730957031E-1,3.688598633E0
6.043701180E-1,-1.782089233E0,5.581665039E-1,3.473129272E0
6.094360360E-1,-1.557037354E0,3.857879639E-1,3.286376953E0
6.145324710E-1,-1.327194214E0,2.086181641E-1,3.046951294E0
6.195983890E-1,-1.202697754E0,5.059814453E-2,2.855422974E0
6.246643070E-1,-1.188323975E0,-2.075195312E-3,2.673461914E0
6.297607430E-1,-1.269729614E0,-6.910705566E-2,2.606430054E0
6.348266610E-1,-1.466049194E0,-1.553039551E-1,2.553756714E0
6.399230960E-1,-1.820388794E0,-2.893829346E-1,2.649520874E0
6.449890140E-1,-2.198684692E0,-4.138793945E-1,2.903305054E0
6.500854500E-1,-2.567382812E0,-5.479583740E-1,3.315109253E0
6.551513680E-1,-2.758926392E0,-6.341400146E-1,3.851409912E0
6.602478030E-1,-2.754135132E0,-7.586517334E-1,4.382919312E0
6.653137210E-1,-2.706253052E0,-9.597625732E-1,4.746841431E0
6.704101570E-1,-2.605697632E0,-1.194381714E0,5.019775391E0
6.754760750E-1,-2.553024292E0,-1.376342773E0,5.201736450E0
6.805419930E-1,-2.548233032E0,-1.567886353E0,5.273559570E0
6.856384280E-1,-2.548233032E0,-1.773788452E0,5.240051270E0
6.907043460E-1,-2.529083252E0,-1.936584473E0,5.240051270E0
6.958007820E-1,-2.485977173E0,-2.113769531E0,5.249618530E0
7.008667000E-1,-2.466827393E0,-2.386703491E0,5.211318970E0
7.059631350E-1,-2.572174072E0,-2.674011230E0,5.249618530E0
7.110290530E-1,-2.720611572E0,-2.966094971E0,5.508193970E0
7.161254890E-1,-3.079742432E0,-3.191146851E0,5.929580688E0
7.211914070E-1,-3.577743530E0,-3.330017090E0,6.389266968E0
7.262573250E-1,-4.032638550E0,-3.368331909E0,6.868103027E0
7.313537600E-1,-4.382186890E0,-3.382690430E0,7.275115967E0
7.364196780E-1,-4.535415649E0,-3.377899170E0,7.581573486E0
7.415161140E-1,-4.468383789E0,-3.430572510E0,7.931137085E0
7.465820320E-1,-4.272064209E0,-3.507186890E0,8.285476685E0
7.516784670E-1,-4.094894409E0,-3.622116089E0,8.692489624E0
7.567443850E-1,-4.032638550E0,-3.722671509E0,9.094711304E0
7.618408210E-1,-4.128402710E0,-3.842376709E0,9.583129883E0
7.669067390E-1,-4.161926270E0,-3.923782349E0,9.918319702E0
7.720031740E-1,-4.046997070E0,-4.033905029E0,1.005717468E1
7.770690920E-1,-3.812377930E0,-4.282913208E0,1.007154846E1
7.821350100E-1,-3.582534790E0,-4.579788208E0,9.875228882E0
7.872314460E-1,-3.323959351E0,-4.958068848E0,9.626220703E0
7.922973640E-1,-3.036651611E0,-5.379455566E0,9.482574463E0
7.973937990E-1,-2.797225952E0,-5.738586426E0,9.281463623E0
8.024597170E-1,-2.591323853E0,-6.049835205E0,9.166534424E0
8.075561530E-1,-2.543441772E0,-6.303619385E0,9.075561523E0
8.126220710E-1,-2.720611572E0,-6.437698364E0,9.070770264E0
8.177185060E-1,-3.323959351E0,-6.452056885E0,9.257522583E0
8.227844240E-1,-4.319946289E0,-6.207839966E0,9.765090942E0
8.278503420E-1,-5.440429688E0,-5.834350586E0,1.039236450E1
8.329467780E-1,-6.489089966E0,-5.475219727E0,1.105795288E1
8.380126960E-1,-7.231292725E0,-5.307632446E0,1.166609192E1
8.431091310E-1,-7.791534424E0,-5.240585327E0,1.230294800E1
8.481750490E-1,-8.174606323E0,-5.278900146E0,1.282008362E1
8.532714850E-1,-8.323043823E0,-5.436920166E0,1.320315552E1
8.583374030E-1,-8.160247803E0,-5.661972046E0,1.349046326E1
8.634338380E-1,-7.834625244E0,-5.925338745E0,1.360539246E1
8.684997560E-1,-7.350997925E0,-6.356292725E0,1.376818848E1
8.735961920E-1,-6.857788086E0,-6.902160645E0,1.398846436E1
8.786621100E-1,-6.225723267E0,-7.495925903E0,1.445294189E1
8.837280280E-1,-5.526626587E0,-8.286010742E0,1.534837341E1
8.888244630E-1,-4.760467529E0,-9.171875000E0,1.633956909E1
8.938903810E-1,-3.979965210E0,-1.015348816E1,1.735470581E1
8.989868170E-1,-3.314376831E0,-1.099145508E1,1.839857483E1
9.040527350E-1,-2.825958252E0,-1.149424744E1,1.926049805E1
9.091491700E-1,-2.500350952E0,-1.181027222E1,1.987341309E1
9.142150880E-1,-2.332748413E0,-1.188211060E1,2.017987061E1
9.193115240E-1,-2.299240112E0,-1.179591370E1,2.011761475E1
9.243774420E-1,-2.404586792E0,-1.145115662E1,1.977763367E1
9.294433600E-1,-2.648788452E0,-1.118778992E1,1.912641907E1
9.345397950E-1,-2.988769531E0,-1.093400574E1,1.852786255E1
9.396057130E-1,-3.357467651E0,-1.049346924E1,1.796282959E1
9.447021490E-1,-3.754913330E0,-1.007208252E1,1.747441101E1
9.497680670E-1,-4.171508789E0,-9.708175659E0,1.711050415E1
9.548645020E-1,-4.372619629E0,-9.301162720E0,1.680882263E1
9.599304200E-1,-4.401351929E0,-8.965972900E0,1.648321533E1
9.650268560E-1,-4.406127930E0,-8.640350342E0,1.604267883E1
9.700927740E-1,-4.300781250E0,-8.348266602E0,1.560693359E1
9.751586920E-1,-4.075729370E0,-8.123214722E0,1.517120361E1
9.802551270E-1,-3.754913330E0,-7.965194702E0,1.460137939E1
9.853210450E-1,-3.328735352E0,-7.926879883E0,1.388311768E1
9.904174810E-1,-2.811599731E0,-7.979553223E0,1.302120972E1
9.954833990E-1,-2.308807373E0,-8.089691162E0,1.202522278E1
1.000579834E0,-1.868286133E0,-8.180664062E0,1.106274414E1
1.005645752E0,-1.422958374E0,-8.218978882E0,1.022956848E1
1.010742188E0,-1.130859375E0,-8.123214722E0,9.631011963E0
1.015808106E0,-1.025527954E0,-7.998703003E0,9.180908203E0
1.020874024E0,-1.030303955E0,-7.917312622E0,8.740371704E0
1.025970459E0,-1.178756714E0,-7.811965942E0,8.472213745E0
1.031036377E0,-1.379867554E0,-7.586914062E0,8.318984985E0
1.036132813E0,-1.628860474E0,-7.357070923E0,8.228012085E0
1.041198731E0,-1.911376953E0,-7.222991943E0,8.208862305E0
1.046295166E0,-2.169952393E0,-7.036239624E0,8.175338745E0
1.051361084E0,-2.323181152E0,-6.820770264E0,7.988586426E0
1.056457520E0,-2.371063232E0,-6.696258545E0,7.801849365E0
1.061523438E0,-2.428527832E0,-6.600494385E0,7.639038086E0
1.066619874E0,-2.557815552E0,-6.456848145E0,7.619888306E0
1.071685791E0,-2.586532593E0,-6.322769165E0,7.581573486E0
1.076751709E0,-2.490768433E0,-6.231796265E0,7.533691406E0
1.081848145E0,-2.404586792E0,-6.198272705E0,7.481018066E0
1.086914063E0,-2.323181152E0,-6.303619385E0,7.327789307E0
1.092010499E0,-2.069396973E0,-6.361083984E0,7.150619507E0
1.097076416E0,-1.786880493E0,-6.442474365E0,7.006973267E0
1.102172852E0,-1.504364014E0,-6.528671265E0,6.820220947E0
1.107238770E0,-1.288879395E0,-6.634017944E0,6.508972168E0
1.112335206E0,-1.068618774E0,-6.734573364E0,6.216888428E0
1.117401124E0,-8.579254150E-1,-6.839920044E0,5.953521729E0
1.122467041E0,-5.993499756E-1,-6.883010864E0,5.776351929E0
1.127563477E0,-4.125976562E-1,-6.930892944E0,5.747619629E0
1.132629395E0,-2.976837158E-1,-6.983566284E0,5.896057129E0
1.137725831E0,-2.737426758E-1,-6.758514404E0,6.111541748E0
1.142791749E0,-3.886566162E-1,-6.792037964E0,6.236038208E0
1.147888184E0,-4.413299561E-1,-7.026657104E0,6.394058228E0
1.152954102E0,-5.179443359E-1,-7.074554443E0,6.767547607E0
1.158050538E0,-6.568145752E-1,-6.926101685E0,7.232025146E0
1.163116456E0,-6.951141357E-1,-6.576553345E0,7.749176025E0
1.168182374E0,-8.244018555E-1,-6.552612305E0,8.156188965E0
1.173278809E0,-9.201812744E-1,-6.590927124E0,8.443496704E0
1.178344727E0,-8.148345947E-1,-6.528671265E0,8.567993164E0
1.183441163E0,-6.376647949E-1,-6.308410645E0,8.711639404E0
1.188507081E0,-5.993499756E-1,-6.327560425E0,8.721221924E0
1.193603516E0,-5.083770752E-1,-6.408966064E0,8.635025024E0
1.198669434E0,-3.168334961E-1,-6.365859985E0,8.558410645E0
1.203765870E0,-1.683959961E-1,-6.346710205E0,8.381240845E0
1.208831788E0,-4.869079590E-2,-6.222213745E0,8.065200806E0
1.213928223E0,1.237030029E-1,-6.064193726E0,7.428344727E0
1.218994141E0,4.157867432E-1,-6.054611206E0,6.858520508E0
1.224060059E0,8.275909424E-1,-6.174331665E0,6.556854248E0
1.229156495E0,1.272918701E0,-6.313186646E0,6.365325928E0
1.234191895E0,1.655990601E0,-6.399383545E0,6.255187988E0
1.239288331E0,2.005538940E0,-6.475997925E0,6.159423828E0
1.244354249E0,2.355087280E0,-6.504730225E0,6.202514648E0
1.249420166E0,2.599304199E0,-6.495147705E0,6.303070068E0
1.254516602E0,2.675918579E0,-6.710632324E0,6.355743408E0
1.259613038E0,2.838714600E0,-6.729782104E0,6.494613647E0
1.264709473E0,3.049407959E0,-6.523880005E0,6.690933228E0
1.269775391E0,3.068557739E0,-6.317977905E0,6.887252808E0
1.274871827E0,2.704650879E0,-6.159957886E0,6.829803467E0
1.279937745E0,2.479583740E0,-6.054611206E0,6.743606567E0
1.285034180E0,2.460433960E0,-6.097717285E0,6.580795288E0
1.290100098E0,2.340728760E0,-6.447265625E0,6.255187988E0
1.295196534E0,2.776473999E0,-5.915756226E0,6.475448608E0
1.300262452E0,3.159545898E0,-5.226226807E0,6.973449707E0
1.305358887E0,2.972793579E0,-5.618881226E0,7.069213867E0
1.310424805E0,2.809997559E0,-5.992370605E0,6.872894287E0
1.315521241E0,2.719009399E0,-5.968429565E0,6.839370728E0
1.320587159E0,3.111663818E0,-4.962860107E0,7.356521606E0
1.325653077E0,2.939285278E0,-4.728225708E0,7.485809326E0
1.330749512E0,2.527481079E0,-5.063415527E0,7.217651367E0
1.335815430E0,2.311996460E0,-5.111297607E0,6.753189087E0
1.340911866E0,-1.300964355E-1,-4.670776367E0,6.403625488E0
1.345977784E0,2.771682739E0,-4.431350708E0,5.048507690E0
1.351074219E0,1.450088501E0,-5.278900146E0,4.426025391E0
1.356140137E0,-5.993499756E-1,-5.163970947E0,4.234481812E0
1.361236573E0,-8.387756348E-1,-4.450500488E0,4.014221191E0
1.366302491E0,-1.628860474E0,-4.263748169E0,4.205749512E0
1.371368409E0,-2.361480713E0,-4.589370728E0,4.268005371E0
1.376464844E0,-2.768493652E0,-5.350723267E0,4.239273071E0
1.381530762E0,-2.102905273E0,-4.651611328E0,4.670227051E0
1.386627198E0,-1.777297974E0,-4.440933228E0,5.422012329E0
1.391693116E0,-2.021514893E0,-5.451278687E0,5.728469849E0
1.396789551E0,-1.700683594E0,-6.140808105E0,6.015762329E0
1.401855469E0,-1.015945435E0,-6.566970825E0,6.221664429E0
1.406951905E0,-3.551483154E-1,-7.419311523E0,6.283920288E0
1.412017823E0,1.196304321E0,-6.447265625E0,6.638259888E0
1.417114258E0,1.904983521E0,-6.159957886E0,7.054855347E0
1.422180176E0,2.187500000E0,-6.308410645E0,7.399612427E0
1.427246094E0,2.168350220E0,-6.887802124E0,7.504959106E0
1.432342530E0,2.321578979E0,-7.108062744E0,7.538482666E0
1.437408448E0,2.216232300E0,-7.735351562E0,7.322998047E0
1.442504883E0,2.589721680E0,-7.510299683E0,7.294265747E0
1.447570801E0,3.269683838E0,-6.150390625E0,7.557632446E0
1.452667237E0,3.183486938E0,-5.920547485E0,7.572006226E0
1.457733155E0,3.121231079E0,-6.107284546E0,7.591156006E0
1.462829590E0,2.934494019E0,-6.600494385E0,7.370880127E0
1.467895508E0,3.058990479E0,-6.677108765E0,7.208084106E0
1.472961426E0,2.877029419E0,-6.926101685E0,6.767547607E0
1.478057862E0,2.848297119E0,-7.630004883E0,6.590377808E0
1.483123780E0,3.963989258E0,-6.375442505E0,7.030914307E0
1.488220215E0,4.289611816E0,-5.877441406E0,7.572006226E0
1.493286133E0,4.126800537E0,-6.140808105E0,7.897613525E0
1.498382569E0,4.198623657E0,-6.499938965E0,8.208862305E0
1.503448487E0,4.361434937E0,-6.523880005E0,8.304626465E0
1.508544922E0,4.548187256E0,-6.432907104E0,8.122665405E0
1.513610840E0,4.414108276E0,-6.557403564E0,7.801849365E0
1.518707276E0,4.495513916E0,-6.207839966E0,7.806625366E0
1.523773194E0,3.959213257E0,-6.337127686E0,7.710861206E0
1.528839112E0,3.188278198E0,-6.696258545E0,7.461868286E0
1.533935547E0,2.738159180E0,-6.935684204E0,7.452285767E0
1.539001465E0,2.316787720E0,-7.491134644E0,7.433135986E0
1.544097901E0,2.920120239E0,-6.332351685E0,7.351730347E0
1.549163819E0,3.193069458E0,-5.475219727E0,7.509750366E0
1.554260254E0,3.126022339E0,-5.475219727E0,7.682128906E0
1.559326172E0,2.800415039E0,-6.054611206E0,7.849731445E0
1.564422608E0,3.149963379E0,-6.677108765E0,7.931137085E0
1.569488526E0,3.590499878E0,-6.748931885E0,7.945495605E0
1.574554444E0,3.547409058E0,-6.701049805E0,8.228012085E0
1.579650879E0,3.494735718E0,-7.404953003E0,7.931137085E0
1.584716797E0,3.705429077E0,-6.394592285E0,7.481018066E0
1.589813233E0,3.662322998E0,-5.580566406E0,6.935134888E0
1.594879151E0,3.255310059E0,-5.460861206E0,7.303848267E0
1.599975586E0,2.398193359E0,-5.867874146E0,7.145828247E0
1.605041504E0,2.651977539E0,-6.322769165E0,7.141036987E0
1.610137940E0,3.293624878E0,-6.227005005E0,7.648620605E0
1.615203858E0,3.422912598E0,-6.179122925E0,6.944717407E0
1.620269776E0,3.600082397E0,-6.227005005E0,6.552062988E0
1.625366211E0,3.686264038E0,-5.709854126E0,6.561645508E0
1.630432129E0,3.624023438E0,-5.882232666E0,6.437149048E0
1.635528565E0,3.676696777E0,-6.035461426E0,6.360534668E0
1.640594483E0,4.117218018E0,-6.361083984E0,5.163436890E0
1.645690918E0,4.845062256E0,-6.356292725E0,4.694168091E0
1.650756836E0,4.811538696E0,-6.571762085E0,4.799514771E0
1.655853272E0,4.490722656E0,-6.859069824E0,4.607971191E0
1.660919190E0,4.600860596E0,-6.873428345E0,4.550521851E0
1.665985108E0,4.854644775E0,-6.260513306E0,4.742050171E0
1.671081543E0,4.758865356E0,-6.131225586E0,4.569671631E0
1.676147461E0,4.404525757E0,-6.724990845E0,4.368560791E0
1.681243897E0,4.136383057E0,-7.041030884E0,4.679809570E0
1.686309815E0,3.681472778E0,-7.031448364E0,4.967102051E0
1.691406250E0,3.738937378E0,-6.815979004E0,5.532135010E0
1.696487113E0,3.092514038E0,-7.093704224E0,6.288711548E0
1.701583549E0,2.024688721E0,-7.136795044E0,6.322219849E0
1.706649467E0,1.057434082E0,-7.002716064E0,6.614318848E0
1.711745902E0,4.876098633E-1,-6.744155884E0,6.499404907E0
1.716811820E0,6.073303223E-1,-6.753723145E0,6.729248047E0
1.721877738E0,1.038284302E0,-6.926101685E0,6.791488647E0
1.726974174E0,1.225036621E0,-7.098495483E0,6.532913208E0
1.732040092E0,1.641616821E0,-7.026657104E0,6.154632568E0
1.737136527E0,2.158767700E0,-6.959625244E0,5.934371948E0
1.742202445E0,2.446075439E0,-6.983566284E0,6.168991089E0
1.747298881E0,2.867446899E0,-6.978775024E0,6.149841309E0
1.752364799E0,3.355865479E0,-6.916534424E0,5.929580688E0
1.757461235E0,3.853866577E0,-6.796813965E0,5.867324829E0
1.762527152E0,4.519454956E0,-6.485580444E0,5.991821289E0
1.767593070E0,5.041381836E0,-6.289245605E0,5.857757568E0
1.772689506E0,5.592056274E0,-6.298828125E0,5.570449829E0
1.777755424E0,6.204971313E0,-6.466415405E0,5.077239990E0
1.782851860E0,6.640716553E0,-6.859069824E0,4.593612671E0
1.787917777E0,6.817886353E0,-7.443252563E0,3.880142212E0
1.793014213E0,6.702957153E0,-7.677886963E0,3.190612793E0
1.798080131E0,6.276794434E0,-7.352279663E0,2.970336914E0
1.803176567E0,5.711761475E0,-7.021881104E0,2.884155273E0
1.808242485E0,5.208984375E0,-6.653167725E0,2.836273193E0
1.813338920E0,4.950408936E0,-6.341918945E0,2.826690674E0
1.818404838E0,4.758865356E0,-6.198272705E0,2.850631714E0
1.823470756E0,4.576904297E0,-5.982788086E0,2.898513794E0
1.828567192E0,4.830703735E0,-5.408187866E0,2.376586914E0
1.833633110E0,4.059768677E0,-5.427337646E0,2.362213135E0
1.838729545E0,3.111663818E0,-5.776885986E0,2.654312134E0
1.843795463E0,1.986389160E0,-5.930114746E0,2.836273193E0
1.848891899E0,1.402206421E0,-5.590148926E0,2.869781494E0
1.853957817E0,9.520874023E-1,-5.101730347E0,2.994293213E0
1.859054252E0,2.050933838E-1,-4.436141968E0,2.955978394E0
1.864120170E0,-6.999053955E-1,-3.545501709E0,3.099624634E0
1.869186088E0,-1.030303955E0,-2.678787231E0,3.295959473E0
1.874282524E0,9.281463623E-1,-2.937362671E0,4.612762451E0
1.879348442E0,6.975906372E0,-6.878219604E0,9.999725342E0
1.884444877E0,6.200180054E0,-7.931671143E0,8.314208984E0
1.889510795E0,6.822677612E0,-7.582122803E0,9.252731323E0
1.894607231E0,7.593612671E0,-6.926101685E0,9.089920044E0
1.899673149E0,7.023788452E0,-6.820770264E0,6.714874268E0
1.904769584E0,6.382141113E0,-7.874206543E0,4.445175171E0
1.909835502E0,5.180252075E0,-7.515075684E0,3.712539673E0
1.914931938E0,4.193832397E0,-7.098495483E0,2.118011475E0
1.919997856E0,4.136383057E0,-7.199050903E0,2.175476074E0
1.925063774E0,4.117218018E0,-7.352279663E0,2.740493774E0
1.930160209E0,4.835479736E0,-1.358677673E1,-4.106918335E0
1.935226127E0,1.051452637E1,-2.382917786E1,-9.393310547E0
1.940322563E0,1.346418762E1,-1.750848389E1,2.898513794E0
1.945388481E0,9.686141968E0,-1.022531128E1,7.107528687E0
1.950484916E0,8.857742310E0,-8.472763062E0,6.743606567E0
1.955550834E0,9.547271729E0,-8.573318481E0,5.024566650E0
1.960647270E0,7.794723511E0,-8.099273682E0,3.434814453E0
1.965713188E0,5.836257935E0,-6.863861084E0,2.764450073E0
1.970779106E0,4.993499756E0,-6.327560425E0,3.123580933E0
1.975875541E0,4.605636597E0,-6.361083984E0,3.142730713E0
1.980941459E0,4.256088257E0,-6.839920044E0,2.821899414E0
1.986037895E0,4.337493896E0,-7.098495483E0,2.979919434E0
1.991103813E0,4.538604736E0,-7.299606323E0,3.147521973E0
1.996200248E0,4.792388916E0,-7.625213623E0,3.224136353E0
2.001266166E0,5.022232056E0,-7.931671143E0,3.204971313E0
2.006362602E0,5.223342896E0,-8.060958862E0,3.291168213E0
2.011428520E0,5.572906494E0,-8.003494263E0,3.497070312E0
2.016494438E0,5.893722534E0,-7.902938843E0,3.659881592E0
2.021590873E0,5.845840454E0,-7.754501343E0,3.655090332E0
2.026656791E0,5.874572754E0,-7.414520264E0,3.602416992E0
2.031753227E0,5.965545654E0,-7.036239624E0,3.506652832E0
2.036819145E0,6.046951294E0,-6.720199585E0,3.611984253E0
2.041915580E0,6.295944214E0,-6.466415405E0,3.932815552E0
2.046981498E0,6.482696533E0,-6.346710205E0,4.081253052E0
2.052077934E0,6.520996094E0,-6.255737305E0,4.354187012E0
2.057143852E0,6.353408813E0,-6.183898926E0,4.411651611E0
2.062240287E0,6.224121094E0,-6.116867065E0,4.536148071E0
2.067306205E0,5.692611694E0,-6.227005005E0,4.411651611E0
2.072372123E0,4.466781616E0,-6.274887085E0,4.459533691E0
2.077468559E0,5.055755615E0,-6.131225586E0,4.497848511E0
2.082534477E0,5.376571655E0,-5.963638306E0,4.550521851E0
2.087630912E0,5.204193115E0,-5.738586426E0,4.426025391E0
2.092696830E0,5.036605835E0,-5.829559326E0,4.354187012E0
2.097793266E0,5.223342896E0,-5.762527466E0,4.526580811E0
2.102859184E0,5.304748535E0,-5.599716187E0,4.564880371E0
2.107955619E0,5.022232056E0,-5.858291626E0,4.253631592E0
2.113021537E0,5.070114136E0,-5.968429565E0,4.564880371E0
2.118087455E0,5.079696655E0,-5.901382446E0,4.282363892E0
2.123183891E0,4.959991455E0,-6.179122925E0,4.095626831E0
2.128249809E0,5.194610596E0,-6.490356445E0,4.564880371E0
2.133346244E0,5.323898315E0,-6.595703125E0,4.062103271E0
2.138412162E0,5.410095215E0,-6.806396484E0,4.033370972E0
2.143508598E0,5.510650635E0,-6.997940063E0,3.928024292E0
2.148574516E0,5.687820435E0,-7.227783203E0,3.923233032E0
2.153670951E0,5.812316895E0,-7.328338623E0,3.841827393E0
2.158736869E0,5.845840454E0,-7.294815063E0,3.770004272E0
2.163833305E0,5.831466675E0,-7.170318604E0,3.808319092E0
2.168899223E0,5.788375854E0,-7.088912964E0,3.817886353E0
2.173965141E0,5.783584595E0,-7.108062744E0,3.808319092E0
2.179061576E0,5.716552734E0,-7.088912964E0,3.746063232E0
2.184127494E0,5.644729614E0,-7.060180664E0,3.707763672E0
2.189223930E0,5.534591675E0,-7.088912964E0,3.741271973E0
2.194289848E0,5.797958374E0,-7.146377563E0,3.702972412E0
2.199386283E0,7.684585571E0,-7.653945923E0,4.066894531E0
2.204452201E0,9.159408569E0,-8.420089722E0,4.440383911E0
2.209548637E0,9.063644409E0,-8.961181641E0,3.928024292E0
2.214614555E0,6.597610474E0,-8.975540161E0,3.300750732E0
2.219680473E0,3.954421997E0,-8.381790161E0,3.559310913E0
2.224776908E0,3.523468018E0,-7.874206543E0,4.248855591E0
2.229842826E0,3.896957397E0,-7.548599243E0,4.315887451E0
2.234939262E0,4.064559937E0,-7.347488403E0,3.923233032E0
2.240005180E0,3.652755737E0,-7.232559204E0,3.516220093E0
2.245101615E0,3.624023438E0,-7.103271484E0,3.798736572E0
2.250167533E0,4.500289917E0,-7.251724243E0,4.248855591E0
2.255263969E0,4.988708496E0,-7.663528442E0,4.215332031E0
2.260329887E0,5.151519775E0,-8.147155762E0,4.014221191E0
2.265395805E0,4.835479736E0,-8.362625122E0,3.860992432E0
2.270492240E0,4.481140137E0,-8.214187622E0,3.999847412E0
2.275558158E0,4.122009277E0,-7.773651123E0,4.028579712E0
2.280654594E0,4.270446777E0,-7.318756104E0,4.244064331E0
2.285720512E0,4.672683716E0,-7.189468384E0,4.272796631E0
2.290816947E0,4.816329956E0,-7.189468384E0,4.090835571E0
2.295882865E0,4.974349976E0,-7.165527344E0,4.038162231E0
2.300979301E0,5.084487915E0,-7.170318604E0,4.047729492E0
2.306045219E0,5.007873535E0,-7.194259644E0,4.157867432E0
2.311141654E0,4.907318115E0,-7.218200684E0,4.186599731E0
2.316207572E0,4.926467896E0,-7.328338623E0,4.220123291E0
2.321242973E0,5.094055176E0,-7.539016724E0,4.234481812E0
2.326308891E0,5.094055176E0,-7.783233643E0,4.129135132E0
2.331405326E0,4.940826416E0,-7.931671143E0,4.148284912E0
2.336471244E0,4.888153076E0,-8.056167603E0,4.090835571E0
2.341567680E0,4.816329956E0,-7.965194702E0,4.052520752E0
2.346664115E0,4.701416016E0,-7.778442383E0,4.023788452E0
2.351760551E0,4.596069336E0,-7.634796143E0,4.038162231E0
2.356856986E0,4.576904297E0,-7.572540283E0,4.047729492E0
2.361922904E0,4.648742676E0,-7.543807983E0,4.062103271E0
2.366988822E0,4.811538696E0,-7.558181763E0,4.167449951E0
2.372085258E0,4.610427856E0,-7.448043823E0,4.191390991E0
2.377151176E0,4.246505737E0,-7.084121704E0,4.392501831E0
2.382247611E0,4.907318115E0,-7.050613403E0,4.698959351E0
2.387283012E0,5.323898315E0,-7.045822144E0,4.488265991E0
2.392379447E0,5.654296875E0,-6.940475464E0,4.291946411E0
2.397475883E0,5.750076294E0,-7.141586304E0,4.378128052E0
2.402572319E0,5.544174194E0,-7.323547363E0,4.516998291E0
2.407638236E0,5.017440796E0,-7.424102783E0,4.665435791E0
2.412734672E0,4.830703735E0,-7.333129883E0,4.675018311E0
2.417800590E0,4.816329956E0,-7.275665283E0,4.516998291E0
2.422866508E0,4.797180176E0,-7.352279663E0,4.320678711E0
2.427962944E0,4.471572876E0,-7.342697144E0,4.177017212E0
2.433028861E0,4.629577637E0,-7.290023804E0,4.057312012E0
2.438125297E0,5.017440796E0,-7.428894043E0,3.856201172E0
2.443191215E0,5.208984375E0,-7.620422363E0,3.746063232E0
2.448287651E0,5.232925415E0,-7.874206543E0,3.722122192E0
2.453353569E0,5.074905396E0,-7.984344482E0,3.621566772E0
2.458450004E0,4.869003296E0,-8.003494263E0,3.573684692E0
2.463515922E0,4.500289917E0,-7.821533203E0,3.458755493E0
2.468581840E0,4.576904297E0,-7.735351562E0,3.573684692E0
2.473678276E0,4.725357056E0,-7.735351562E0,3.324691772E0
2.478744194E0,4.639160156E0,-7.764083862E0,3.070907593E0
2.483840629E0,4.538604736E0,-7.807174683E0,2.932037354E0
2.488906547E0,4.418899536E0,-7.802383423E0,2.932037354E0
2.494002983E0,4.366226196E0,-7.759292603E0,3.133148193E0
2.499068901E0,4.361434937E0,-7.898147583E0,3.219345093E0
2.504165336E0,4.457199097E0,-8.046600342E0,2.898513794E0
2.509231254E0,4.332702637E0,-8.003494263E0,2.649520874E0
2.514297172E0,4.222564697E0,-7.792816162E0,2.697402954E0
2.519393608E0,4.270446777E0,-7.649154663E0,3.171463013E0
2.524459526E0,4.490722656E0,-7.701828003E0,3.382141113E0
2.529555961E0,4.648742676E0,-7.850265503E0,3.281585693E0
2.534621879E0,4.447631836E0,-7.912521362E0,3.003860474E0
2.539718315E0,4.098068237E0,-7.764083862E0,2.984710693E0
2.544784233E0,4.184265137E0,-7.620422363E0,3.439605713E0
2.549880668E0,4.270446777E0,-7.754501343E0,3.679031372E0
2.554946586E0,4.275238037E0,-7.888580322E0,3.645507812E0
2.560043022E0,4.155532837E0,-7.984344482E0,3.449188232E0
2.565108940E0,3.944839478E0,-7.984344482E0,3.281585693E0
2.570174858E0,3.619232178E0,-7.754501343E0,3.123580933E0
2.575271293E0,3.892166138E0,-7.625213623E0,3.568893433E0
2.580337211E0,4.021453857E0,-7.855056763E0,3.463546753E0
2.585433647E0,4.112442017E0,-8.104049683E0,3.305526733E0
2.590499565E0,4.275238037E0,-8.314743042E0,3.396514893E0
2.595596000E0,4.198623657E0,-8.477554321E0,3.334259033E0
2.600661918E0,3.839492798E0,-8.487121582E0,3.080474854E0
2.605758354E0,3.365447998E0,-8.233337402E0,2.955978394E0
2.610824272E0,3.499526978E0,-7.912521362E0,3.367782593E0
2.615890190E0,3.489944458E0,-7.941253662E0,3.219345093E0
2.620986625E0,3.044616699E0,-7.744918823E0,2.721343994E0
2.626052543E0,3.394180298E0,-7.486358643E0,2.932037354E0
2.631148979E0,3.518676758E0,-7.419311523E0,2.730926514E0
2.636214897E0,3.355865479E0,-7.232559204E0,2.290390015E0
2.641311332E0,3.355865479E0,-6.629226685E0,2.405319214E0
2.646377250E0,3.394180298E0,-5.973220825E0,2.740493774E0
2.651473686E0,3.365447998E0,-5.594924927E0,2.668670654E0
2.656539604E0,3.307983398E0,-5.245376587E0,2.410095215E0
2.661636039E0,3.260101318E0,-4.914978027E0,2.252090454E0
2.666701957E0,3.212219238E0,-4.867095947E0,2.280807495E0
2.671767875E0,3.556976318E0,-7.515075684E0,3.607208252E0
2.676864311E0,3.523468018E0,-1.097709656E1,4.440383911E0
2.681930229E0,3.221786499E0,-1.285893250E1,4.086044312E0
2.687026664E0,3.298400879E0,-1.400337219E1,3.434814453E0
2.692092582E0,3.269683838E0,-1.469290161E1,2.884155273E0
2.697189018E0,3.169128418E0,-1.468811035E1,1.892959595E0
2.702254936E0,3.236160278E0,-1.382620239E1,7.006378174E-1
2.707351371E0,3.011108398E0,-1.170014954E1,8.107757568E-1
2.712417289E0,3.494735718E0,-9.281997681E0,1.356658936E0
2.717483207E0,3.753311157E0,-7.898147583E0,2.199417114E0
2.722579643E0,3.236160278E0,-7.495925903E0,2.611221313E0
2.727645561E0,2.958435059E0,-7.701828003E0,2.199417114E0
2.732741996E0,2.551422119E0,-7.816757202E0,1.926467896E0
2.737807914E0,2.474807739E0,-7.452835083E0,1.869018555E0
2.742904350E0,2.560989380E0,-6.959625244E0,1.892959595E0
2.747970268E0,2.431701660E0,-6.753723145E0,1.869018555E0
2.753066703E0,2.268905640E0,-6.763305664E0,1.864227295E0
2.758132621E0,2.058212280E0,-6.868652344E0,2.027023315E0
2.763198539E0,2.316787720E0,-7.031448364E0,2.122802734E0
2.768294975E0,2.795623779E0,-7.199050903E0,2.295181274E0
2.773360893E0,3.327133179E0,-7.342697144E0,2.544174194E0
2.778457328E0,4.050186157E0,-7.539016724E0,2.888946533E0
2.783523246E0,4.835479736E0,-7.855056763E0,3.176239014E0
2.788619682E0,5.419677734E0,-8.137573242E0,3.310317993E0
2.793685600E0,5.644729614E0,-8.429672241E0,3.497070312E0
2.798782035E0,5.668670654E0,-8.630783081E0,3.477920532E0
2.803847953E0,5.615997314E0,-8.702606201E0,3.329467773E0
2.808944389E0,5.419677734E0,-8.764862061E0,3.181030273E0
2.814010307E0,5.237716675E0,-8.846252441E0,2.970336914E0
2.819076225E0,5.180252075E0,-8.908508301E0,2.793167114E0
2.824172660E0,5.362213135E0,-8.975540161E0,2.740493774E0
2.829238578E0,5.764434814E0,-9.018646240E0,2.855422974E0
2.834335014E0,6.243270874E0,-8.985122681E0,2.960769653E0
2.839400932E0,6.592834473E0,-8.994705200E0,3.248077393E0
2.844497367E0,6.434814453E0,-8.937240601E0,3.659881592E0
2.849563285E0,5.534591675E0,-8.827102661E0,4.234481812E0
2.854659721E0,5.548950195E0,-8.827102661E0,3.607208252E0
2.859725639E0,5.702178955E0,-8.774429321E0,2.874572754E0
2.864791557E0,5.726135254E0,-8.664291382E0,2.448410034E0
2.869887992E0,5.673461914E0,-8.520645142E0,2.247299194E0
2.874953910E0,5.448394775E0,-8.420089722E0,2.338272095E0
2.880050346E0,5.477127075E0,-8.343475342E0,2.548965454E0
2.885116264E0,5.635147095E0,-8.290802002E0,2.759658813E0
2.890212699E0,5.817108154E0,-8.238128662E0,2.903305054E0
2.895278617E0,5.893722534E0,-8.190246582E0,3.051742554E0
2.900375053E0,5.644729614E0,-8.104049683E0,3.305526733E0
2.905440971E0,5.534591675E0,-8.017868042E0,3.214553833E0
2.910537406E0,5.505859375E0,-7.993927002E0,3.051742554E0
2.915603324E0,5.486709595E0,-7.936462402E0,2.970336914E0
2.920669242E0,5.457977295E0,-7.826324463E0,2.783599854E0
2.925765678E0,5.448394775E0,-7.811965942E0,2.462768555E0
2.930831596E0,5.376571655E0,-7.764083862E0,2.256866455E0
2.935928031E0,5.290390015E0,-7.759292603E0,2.132369995E0
2.940993949E0,5.333480835E0,-7.754501343E0,2.041397095E0
2.946090385E0,5.443618774E0,-7.802383423E0,2.055755615E0
2.951156303E0,5.529800415E0,-7.898147583E0,2.146743774E0
2.956222221E0,5.462768555E0,-8.003494263E0,1.988723755E0
2.961318656E0,5.352630615E0,-8.065750122E0,1.945632935E0
2.966384574E0,5.309539795E0,-8.037017822E0,2.175476074E0
2.971481010E0,5.141937256E0,-7.955612183E0,2.175476074E0
2.976546928E0,4.974349976E0,-7.831115723E0,2.132369995E0
2.981643363E0,4.744506836E0,-7.735351562E0,2.194625854E0
2.986709281E0,4.447631836E0,-7.567749023E0,2.199417114E0
2.991805717E0,4.198623657E0,-7.409744263E0,2.189834595E0
2.996871635E0,4.002304077E0,-7.376220703E0,1.988723755E0
3.001968070E0,3.805984497E0,-7.452835083E0,1.864227295E0
3.007033988E0,3.700637817E0,-7.706619263E0,1.701416016E0
3.012130424E0,3.475585938E0,-8.070541382E0,1.921676636E0
3.017196342E0,3.944839478E0,-8.539794922E0,2.386154175E0
3.022262260E0,4.916885376E0,-8.769638062E0,3.046951294E0
3.027358695E0,5.869781494E0,-8.784011841E0,3.588043213E0
3.032424613E0,6.602401733E0,-8.654724121E0,3.621566772E0
3.037521049E0,7.023788452E0,-8.415298462E0,3.267227173E0
3.042586967E0,6.999847412E0,-8.070541382E0,3.032592773E0
3.047683402E0,6.334259033E0,-7.744918823E0,2.898513794E0
3.052749320E0,6.262435913E0,-7.682678223E0,2.290390015E0
3.057845756E0,6.621566772E0,-7.586914062E0,1.821121216E0
3.062911674E0,6.640716553E0,-7.199050903E0,1.514663696E0
3.067977592E0,5.769226074E0,-7.026657104E0,1.485946655E0
3.073074027E0,4.356643677E0,-7.136795044E0,1.921676636E0
3.078139945E0,3.987945557E0,-7.275665283E0,1.452423096E0
3.083236381E0,4.054977417E0,-7.376220703E0,1.107650757E0
3.088271781E0,4.198623657E0,-7.467193604E0,1.251312256E0
3.093368217E0,4.567337036E0,-7.586914062E0,1.701416016E0
3.098464652E0,4.907318115E0,-7.697036743E0,2.333480835E0
3.103561088E0,5.228134155E0,-7.716201782E0,2.951187134E0
3.108627006E0,5.505859375E0,-7.706619263E0,3.425247192E0
3.113692924E0,5.692611694E0,-7.601272583E0,3.770004272E0
3.118789360E0,5.812316895E0,-7.395370483E0,4.047729492E0
3.123855277E0,5.783584595E0,-7.199050903E0,4.133926392E0
3.128951713E0,5.659088135E0,-7.012298584E0,4.095626831E0
3.134017631E0,5.520233154E0,-6.983566284E0,4.033370972E0
3.139114067E0,5.266448975E0,-7.050613403E0,3.980697632E0
3.144179985E0,5.424453735E0,-7.151168823E0,3.659881592E0
3.149276420E0,5.764434814E0,-7.132003784E0,3.449188232E0
3.154342338E0,6.061309814E0,-7.122436523E0,3.420455933E0
3.159438774E0,6.267211914E0,-7.175109863E0,3.343841553E0
3.164504692E0,5.874572754E0,-7.122436523E0,3.353424072E0
3.169570610E0,5.362213135E0,-7.108062744E0,3.152297974E0
3.174667045E0,5.113220215E0,-7.050613403E0,2.678253174E0
3.179732963E0,4.869003296E0,-7.036239624E0,2.410095215E0
3.184829399E0,4.744506836E0,-7.055389404E0,2.362213135E0
3.189895317E0,4.864212036E0,-7.112854004E0,2.462768555E0
3.194991752E0,5.084487915E0,-7.146377563E0,2.697402954E0
3.200057670E0,5.252075195E0,-7.155944824E0,3.042175293E0
3.205154106E0,5.146728516E0,-7.088912964E0,3.578475952E0
3.210220024E0,5.156311035E0,-7.203842163E0,3.597625732E0
3.215285942E0,5.304748535E0,-7.357070923E0,3.396514893E0
3.220382377E0,5.625564575E0,-7.438461304E0,3.200195312E0
3.225448295E0,5.999069214E0,-7.481567383E0,3.152297974E0
3.230544731E0,6.157089233E0,-7.486358643E0,3.118789673E0
3.235610649E0,6.257644653E0,-7.448043823E0,2.917678833E0
3.240707084E0,6.190597534E0,-7.414520264E0,2.606430054E0
3.245773002E0,6.027801514E0,-7.333129883E0,2.419677734E0
3.250869438E0,5.960754395E0,-7.290023804E0,2.323913574E0
3.255935356E0,5.975128174E0,-7.347488403E0,2.314331055E0
3.261001274E0,5.908081055E0,-7.323547363E0,2.381378174E0
3.266097709E0,5.841049194E0,-7.270874023E0,2.481933594E0
3.271163627E0,5.884140015E0,-7.285232544E0,2.668670654E0
3.276260063E0,5.922454834E0,-7.395370483E0,2.721343994E0
3.281325981E0,6.018218994E0,-7.414520264E0,2.620788574E0
3.286422416E0,6.334259033E0,-7.309173584E0,2.539382935E0
3.291488334E0,6.626342773E0,-7.194259644E0,2.697402954E0
3.296584770E0,7.014205933E0,-7.117645264E0,2.774017334E0
3.301650688E0,7.473892212E0,-7.036239624E0,2.841064453E0
3.306747123E0,8.091598511E0,-6.916534424E0,2.888946533E0
3.311813041E0,8.560867310E0,-6.854278564E0,2.831481934E0
3.316878959E0,8.886474609E0,-6.854278564E0,2.764450073E0
3.321975395E0,8.800277710E0,-6.897384644E0,2.922454834E0
3.327041313E0,7.378128052E0,-6.969207764E0,4.047729492E0
3.332137748E0,6.564102173E0,-7.194259644E0,3.875350952E0
3.337203666E0,5.946395874E0,-7.572540283E0,2.855422974E0
3.342300102E0,5.127578735E0,-7.974761963E0,1.998291016E0
3.347366020E0,4.490722656E0,-8.156723022E0,1.356658936E0
3.352462455E0,4.112442017E0,-8.094482422E0,7.916259766E-1
3.357528373E0,4.007095337E0,-7.893371582E0,7.628936768E-1
3.362594291E0,4.212997437E0,-7.577331543E0,1.131591797E0
3.367690727E0,4.658309937E0,-7.476776123E0,1.730148315E0
3.372756645E0,5.098846436E0,-7.481567383E0,2.386154175E0
3.377853080E0,5.501068115E0,-7.390579224E0,2.702194214E0
3.382918998E0,5.620788574E0,-7.122436523E0,2.979919434E0
3.388015434E0,3.978363037E0,-6.720199585E0,4.330245972E0
3.393081352E0,3.652755737E0,-6.519088745E0,3.674240112E0
3.398177787E0,4.074127197E0,-6.437698364E0,2.448410034E0
3.403243705E0,4.959991455E0,-6.605285645E0,1.289611816E0
3.408309623E0,6.329467773E0,-6.758514404E0,5.617828369E-1
3.413375541E0,5.960754395E0,-6.758514404E0,2.103637695E0
3.418441459E0,6.032592773E0,-7.079330444E0,2.424468994E0
3.423507377E0,6.937591553E0,-7.366638184E0,1.801971436E0
3.428603813E0,6.793945312E0,-7.529449463E0,2.156311035E0
3.433700248E0,6.252853394E0,-7.668304443E0,2.706985474E0
3.438796684E0,6.310317993E0,-7.792816162E0,2.395736694E0
3.443893119E0,6.415664673E0,-7.821533203E0,1.921676636E0
3.448959037E0,6.310317993E0,-7.773651123E0,1.663116455E0
3.454055473E0,6.243270874E0,-7.697036743E0,1.672683716E0
3.459121391E0,6.353408813E0,-7.491134644E0,1.787612915E0
3.464187309E0,6.396499634E0,-7.261291504E0,1.974349976E0
3.469283744E0,6.444381714E0,-7.203842163E0,1.873794556E0
3.474349662E0,6.497055054E0,-7.213409424E0,1.653533936E0
3.479415580E0,6.712539673E0,-7.218200684E0,1.280044556E0
3.484481498E0,6.947174072E0,-7.151168823E0,1.145965576E0
3.489577934E0,6.803512573E0,-7.069763184E0,1.509887695E0
3.494674369E0,6.688598633E0,-6.993148804E0,1.778030396E0
3.499770805E0,6.717330933E0,-6.930892944E0,1.787612915E0
3.504836723E0,6.688598633E0,-6.839920044E0,1.888168335E0
3.509933158E0,6.554519653E0,-6.792037964E0,2.050964355E0
3.514999076E0,6.468338013E0,-6.787246704E0,2.295181274E0
3.520064994E0,6.449172974E0,-6.691482544E0,2.443618774E0
3.525161430E0,6.367767334E0,-6.600494385E0,2.558547974E0
3.530227348E0,6.233703613E0,-6.643585205E0,2.630371094E0
3.535323783E0,6.061309814E0,-6.878219604E0,2.515441895E0
3.540389701E0,5.965545654E0,-7.218200684E0,2.295181274E0
3.545486137E0,5.989486694E0,-7.404953003E0,1.964782715E0
3.550552055E0,6.085266113E0,-7.404953003E0,1.734939575E0
3.555648490E0,6.267211914E0,-7.424102783E0,1.629592896E0
3.560714408E0,6.430023193E0,-7.491134644E0,1.438049316E0
3.565780326E0,6.535369873E0,-7.567749023E0,1.289611816E0
3.570876762E0,6.664657593E0,-7.548599243E0,1.145965576E0
3.575942680E0,6.793945312E0,-7.395370483E0,1.098083496E0
3.581039115E0,6.980697632E0,-7.117645264E0,1.107650757E0
3.586105033E0,7.291931152E0,-6.969207764E0,1.198638916E0
3.591201469E0,7.449951172E0,-6.969207764E0,1.265670776E0
3.596267387E0,7.402069092E0,-7.036239624E0,1.284820557E0
3.601363822E0,7.200958252E0,-7.184677124E0,1.179489136E0
3.606429740E0,6.851409912E0,-7.184677124E0,1.054977417E0
3.611526176E0,6.458755493E0,-7.160736084E0,9.735870361E-1
3.616592094E0,5.879364014E0,-7.112854004E0,7.054290771E-1
3.621658012E0,5.390945435E0,-7.045822144E0,6.623382568E-1
3.626754447E0,5.496292114E0,-7.103271484E0,6.623382568E-1
3.631820365E0,6.075683594E0,-7.203842163E0,8.107757568E-1
3.636916801E0,6.702957153E0,-7.309173584E0,1.064559937E0
3.641982719E0,7.148284912E0,-7.371429443E0,1.299194336E0
3.647079154E0,7.536148071E0,-7.275665283E0,1.327926636E0
3.652145072E0,7.765991211E0,-7.112854004E0,1.251312256E0
3.657241508E0,7.794723511E0,-6.863861084E0,1.141174316E0
3.662307426E0,7.607971191E0,-6.677108765E0,1.093292236E0
3.667373344E0,7.296722412E0,-6.557403564E0,1.083709717E0
3.672469779E0,7.234481812E0,-6.471206665E0,1.054977417E0
3.677535697E0,7.191375732E0,-6.447265625E0,1.088500977E0
3.682632133E0,7.100402832E0,-6.447265625E0,1.241729736E0
3.687698051E0,7.177017212E0,-6.442474365E0,1.428482056E0
3.692794486E0,7.358978271E0,-6.499938965E0,1.567337036E0
3.697860404E0,7.445159912E0,-6.610076904E0,1.677474976E0
3.702956840E0,7.349395752E0,-6.787246704E0,1.653533936E0
3.708022758E0,7.239257812E0,-6.964416504E0,1.600860596E0
3.713119194E0,7.167434692E0,-7.041030884E0,1.586502075E0
3.718185111E0,7.153076172E0,-7.045822144E0,1.519454956E0
3.723251029E0,7.196166992E0,-7.036239624E0,1.414108276E0
3.728347465E0,7.167434692E0,-7.026657104E0,1.327926636E0
3.733413383E0,7.076461792E0,-7.002716064E0,1.155532837E0
3.738479301E0,7.114761353E0,-7.017089844E0,9.209136963E-1
3.743575736E0,7.177017212E0,-6.906951904E0,8.059844971E-1
3.748672172E0,7.229690552E0,-6.830337524E0,5.665588379E-1
3.753738090E0,7.248840332E0,-6.744155884E0,5.282592773E-1
3.758834526E0,7.291931152E0,-6.705841064E0,4.516448975E-1
3.763900444E0,7.277572632E0,-6.696258545E0,3.941802979E-1
3.768966361E0,7.114761353E0,-6.662750244E0,4.851684570E-1
3.774062797E0,6.200180054E0,-6.461639404E0,9.735870361E-1
3.779128715E0,5.323898315E0,-6.246154785E0,8.299255371E-1
3.784225151E0,5.491500854E0,-6.078567505E0,5.426177979E-1
3.789291069E0,5.769226074E0,-5.997161865E0,5.234680176E-1
3.794387504E0,6.104415894E0,-5.872665405E0,5.091094971E-1
3.799453422E0,6.669448853E0,-5.642822266E0,5.043182373E-1
3.804549858E0,7.449951172E0,-5.508743286E0,3.127746582E-1
3.809615776E0,8.407638550E0,-5.685913086E0,2.265930176E-1
3.814681694E0,9.279129028E0,-6.088134766E0,4.085540771E-1
3.819778129E0,9.743591309E0,-6.581344604E0,6.671295166E-1
3.824844047E0,8.996612549E0,-7.026657104E0,9.209136963E-1
3.829940483E0,7.679794312E0,-7.227783203E0,2.505340576E-1
3.835006401E0,6.516220093E0,-7.213409424E0,-9.130554199E-1
3.840102836E0,5.501068115E0,-7.184677124E0,-1.616943359E0
3.845168754E0,5.113220215E0,-6.887802124E0,-1.885101318E0
3.850265190E0,5.213775635E0,-6.610076904E0,-1.693557739E0
3.855331108E0,5.453186035E0,-6.691482544E0,-6.832122803E-1
3.860427543E0,6.377349854E0,-6.605285645E0,1.691284180E-1
3.865493461E0,7.445159912E0,-6.404174805E0,-1.708526611E-1
3.870559379E0,7.852172852E0,-6.356292725E0,-7.986450195E-2
3.875655815E0,8.101181030E0,-6.332351685E0,1.110839844E-2
3.880721733E0,8.082015991E0,-6.241363525E0,-7.507324219E-2
3.885818168E0,7.545715332E0,-6.179122925E0,4.942321777E-2
3.890884086E0,6.851409912E0,-6.298828125E0,2.026519775E-1
3.895980522E0,6.300735474E0,-6.471206665E0,3.079986572E-1
3.901046440E0,6.161880493E0,-6.638809204E0,4.803771973E-1
3.906142875E0,6.396499634E0,-6.739364624E0,6.240234375E-1
3.911208793E0,6.736480713E0,-6.854278564E0,7.293701172E-1
3.916274711E0,7.047729492E0,-6.902160645E0,7.533111572E-1
3.921371147E0,7.205749512E0,-6.902160645E0,6.192321777E-1
3.926437065E0,7.220108032E0,-6.902160645E0,5.665588379E-1
3.931533500E0,7.129135132E0,-6.835128784E0,4.707946777E-1
3.936599418E0,6.947174072E0,-6.815979004E0,3.750305176E-1
3.941695854E0,6.616775513E0,-6.921325684E0,2.648925781E-1
3.946761772E0,6.353408813E0,-7.151168823E0,1.260375977E-1
3.951858207E0,6.214538574E0,-7.318756104E0,1.589965820E-2
3.956924125E0,6.295944214E0,-7.404953003E0,-7.029724121E-2
3.962020561E0,6.391723633E0,-7.376220703E0,4.942321777E-2
3.967086479E0,6.645507812E0,-7.285232544E0,2.313842773E-1
3.972152397E0,7.018997192E0,-7.045822144E0,4.755859375E-1
3.977248832E0,7.315872192E0,-6.849487305E0,7.533111572E-1
3.982314750E0,7.603179932E0,-6.710632324E0,9.783630371E-1
3.987411186E0,7.823455811E0,-6.600494385E0,1.380599976E0
3.992477104E0,7.909637451E0,-6.418533325E0,1.706207275E0
3.997573539E0,7.871337891E0,-6.169540405E0,1.830703735E0
4.002639457E0,7.823455811E0,-6.025894165E0,1.610443115E0
4.007735893E0,7.732467651E0,-6.073776245E0,1.442840576E0
4.012801811E0,7.660644531E0,-6.308410645E0,1.313552856E0
4.017867729E0,7.607971191E0,-6.634017944E0,1.083709717E0
4.022964164E0,7.502624512E0,-6.873428345E0,9.017486572E-1
4.028030082E0,7.306304932E0,-7.031448364E0,6.910705566E-1
4.033126518E0,7.162643433E0,-7.079330444E0,4.324951172E-1
4.038192436E0,7.090820312E0,-7.060180664E0,3.032073975E-1
4.043288871E0,7.042938232E0,-6.978775024E0,2.744750977E-1
4.048354789E0,7.038146973E0,-6.844711304E0,2.984161377E-1
4.053451225E0,7.143493652E0,-6.653167725E0,4.516448975E-1
4.058517143E0,7.220108032E0,-6.480789185E0,5.282592773E-1
4.063583061E0,7.090820312E0,-6.581344604E0,4.707946777E-1
4.068679496E0,6.669448853E0,-6.610076904E0,5.474090576E-1
4.073745414E0,7.018997192E0,-6.317977905E0,4.899444580E-1
4.078841850E0,7.675003052E0,-6.188690186E0,5.330505371E-1
4.083907768E0,7.598388672E0,-6.260513306E0,8.395080566E-1
4.089004203E0,7.354187012E0,-6.274887085E0,8.442993164E-1
4.094070121E0,7.244049072E0,-6.212631226E0,8.682403564E-1
4.099166557E0,7.220108032E0,-6.327560425E0,1.035827637E0
4.104232475E0,7.311096191E0,-6.667541504E0,1.021469116E0
4.109328910E0,7.416427612E0,-6.964416504E0,9.209136963E-1
4.114394828E0,7.330245972E0,-7.021881104E0,1.088500977E0
4.119460746E0,7.138702393E0,-6.988357544E0,1.428482056E0
4.124557182E0,7.086029053E0,-6.868652344E0,1.533828735E0
4.129623100E0,7.167434692E0,-6.806396484E0,1.198638916E0
4.134719535E0,6.966323853E0,-6.863861084E0,1.394958496E0
4.139785453E0,6.995056152E0,-6.902160645E0,1.739730835E0
4.144881889E0,7.215316772E0,-6.940475464E0,1.648742676E0
4.149947807E0,7.167434692E0,-6.935684204E0,1.557769775E0
4.155044242E0,6.971115112E0,-6.863861084E0,1.313552856E0
4.160110160E0,6.650283813E0,-6.705841064E0,9.735870361E-1
4.165206596E0,6.339050293E0,-6.590927124E0,1.217788696E0
4.170272514E0,6.348617554E0,-6.538253784E0,9.879455566E-1
4.175338432E0,6.243270874E0,-6.533462524E0,4.229125977E-1
4.180434867E0,5.994277954E0,-6.533462524E0,-1.995849609E-1
4.185500785E0,5.711761475E0,-6.389801025E0,-1.042343140E0
4.190597221E0,5.525009155E0,-6.212631226E0,-7.119445801E-1
4.195663139E0,5.740493774E0,-5.786468506E0,-1.482864380E0
4.200759574E0,5.893722534E0,-5.130462646E0,-3.197113037E0
4.205825492E0,6.367767334E0,-4.972442627E0,-2.076629639E0
4.210921928E0,6.726898193E0,-6.289245605E0,1.541137695E-3
4.215987846E0,6.607192993E0,-7.328338623E0,2.266448975E0
4.221053764E0,6.233703613E0,-7.697036743E0,4.200958252E0
4.226150199E0,5.774017334E0,-7.931671143E0,5.776351929E0
4.231216117E0,5.319107056E0,-7.969985962E0,6.820220947E0
4.236312553E0,5.280807495E0,-8.041809082E0,7.528900146E0
4.241378471E0,5.438827515E0,-8.151931763E0,7.509750366E0
4.246474906E0,5.855407715E0,-8.099273682E0,6.686141968E0
4.251540824E0,6.295944214E0,-8.113632202E0,4.943161011E0
4.256606742E0,6.966323853E0,-8.084899902E0,3.166671753E0
4.261703178E0,7.435592651E0,-8.027435303E0,1.548187256E0
4.266769096E0,7.531356812E0,-7.328338623E0,3.223571777E-1
4.271865531E0,7.665435791E0,-6.485580444E0,-7.507324219E-2
4.276931449E0,7.579238892E0,-6.270095825E0,2.601013184E-1
4.282027885E0,7.258422852E0,-6.341918945E0,9.400634766E-1
4.287093803E0,6.904083252E0,-6.600494385E0,1.404541016E0
4.292190238E0,6.540161133E0,-6.892593384E0,1.557769775E0
4.297256156E0,6.362991333E0,-6.978775024E0,1.653533936E0
4.302352592E0,6.578460693E0,-6.935684204E0,2.146743774E0
4.307418510E0,6.755630493E0,-7.002716064E0,2.620788574E0
4.312514945E0,6.640716553E0,-7.232559204E0,2.979919434E0
4.317580863E0,6.362991333E0,-7.400161743E0,3.305526733E0
4.322646781E0,6.161880493E0,-7.448043823E0,3.377365112E0
4.327743217E0,6.190597534E0,-7.313964844E0,3.348632812E0
4.332809135E0,6.334259033E0,-7.141586304E0,3.137939453E0
4.337905570E0,6.559310913E0,-7.050613403E0,2.769226074E0
4.342971488E0,6.808303833E0,-6.868652344E0,2.467559814E0
4.348067924E0,6.990264893E0,-6.729782104E0,2.386154175E0
4.353133842E0,6.856185913E0,-6.605285645E0,2.256866455E0
4.358230277E0,6.473114014E0,-6.600494385E0,2.108428955E0
4.363296195E0,6.118774414E0,-6.672317505E0,2.084487915E0
4.368392631E0,5.855407715E0,-6.835128784E0,2.046188354E0
4.373458549E0,5.711761475E0,-7.026657104E0,2.127578735E0
4.378524467E0,5.630355835E0,-7.103271484E0,2.141952515E0
4.383620902E0,5.644729614E0,-7.151168823E0,2.098861694E0
4.388686820E0,5.711761475E0,-7.199050903E0,2.094070435E0
4.393783256E0,5.697402954E0,-7.285232544E0,2.050964355E0
4.398849174E0,5.429244995E0,-7.404953003E0,1.749298096E0
4.403945610E0,5.515441895E0,-7.366638184E0,1.912109375E0
4.409011527E0,5.893722534E0,-7.381011963E0,2.347854614E0
4.414107963E0,6.171447754E0,-7.462402344E0,2.606430054E0
4.419173881E0,6.214538574E0,-7.452835083E0,2.706985474E0
4.424239799E0,6.214538574E0,-7.457626343E0,2.702194214E0
4.429336235E0,6.310317993E0,-7.438461304E0,2.683044434E0
4.434402152E0,6.367767334E0,-7.476776123E0,2.678253174E0
4.439498588E0,6.386932373E0,-7.433685303E0,2.678253174E0
4.444564506E0,6.520996094E0,-7.299606323E0,2.754867554E0
4.449660942E0,6.616775513E0,-7.242141724E0,2.917678833E0
4.454726860E0,6.554519653E0,-7.299606323E0,2.869781494E0
4.459823295E0,6.511428833E0,-7.270874023E0,2.879364014E0
4.464889213E0,6.425231934E0,-7.328338623E0,2.783599854E0
4.469985649E0,6.209762573E0,-7.309173584E0,2.663879395E0
4.475051567E0,6.018218994E0,-7.328338623E0,2.587265015E0
4.480117485E0,5.917663574E0,-7.333129883E0,2.611221313E0
4.485213920E0,5.927246094E0,-7.323547363E0,2.539382935E0
4.490279838E0,5.955978394E0,-7.256500244E0,2.424468994E0
4.495345756E0,5.936813354E0,-7.203842163E0,2.390945435E0
4.500411674E0,5.941604614E0,-7.141586304E0,2.419677734E0
4.505477592E0,5.941604614E0,-7.069763184E0,2.453201294E0
4.510543510E0,5.888931274E0,-7.012298584E0,2.592056274E0
4.515670463E0,5.797958374E0,-7.021881104E0,2.678253174E0
4.520766899E0,5.644729614E0,-7.012298584E0,2.764450073E0
4.525832817E0,5.611206055E0,-6.950042725E0,2.826690674E0
4.530929252E0,5.563323975E0,-6.863861084E0,2.831481934E0
4.535995170E0,5.620788574E0,-6.787246704E0,2.759658813E0
4.541091606E0,5.668670654E0,-6.657958984E0,2.668670654E0
4.546157524E0,5.668670654E0,-6.519088745E0,2.611221313E0
4.551253959E0,5.659088135E0,-6.351501465E0,2.563323975E0
4.556319877E0,5.683029175E0,-6.207839966E0,2.501083374E0
4.561385795E0,5.410095215E0,-5.633239746E0,2.352645874E0
4.566451713E0,5.434036255E0,-5.647598267E0,2.232925415E0
4.571517631E0,5.175460815E0,-5.652389526E0,1.270462036E0
4.576614067E0,5.156311035E0,-5.058624268E0,1.451873779E-1
4.581710502E0,5.548950195E0,-4.943710327E0,8.538665771E-1
4.586776420E0,5.486709595E0,-5.163970947E0,1.562561035E0
4.591872856E0,5.280807495E0,-5.063415527E0,2.055755615E0
4.596969291E0,5.247283936E0,-5.044265747E0,2.429260254E0
4.602035209E0,5.309539795E0,-5.211853027E0,2.850631714E0
4.607131645E0,5.343063354E0,-5.231018066E0,3.181030273E0
4.612197563E0,5.371780396E0,-5.077789307E0,3.449188232E0
4.617293998E0,5.534591675E0,-4.914978027E0,3.568893433E0
4.622359916E0,5.888931274E0,-5.001174927E0,3.525802612E0
4.627425834E0,6.238494873E0,-5.288467407E0,3.324691772E0
4.632522270E0,6.319885254E0,-5.417755127E0,3.142730713E0
4.637588188E0,6.300735474E0,-5.671539307E0,2.908096313E0
4.642684623E0,6.181030273E0,-6.001953125E0,2.683044434E0
4.647750541E0,6.066101074E0,-6.136016846E0,2.711776733E0
4.652846977E0,6.228912354E0,-6.102508545E0,2.611221313E0
4.657912895E0,6.391723633E0,-6.356292725E0,2.462768555E0
4.663009330E0,6.482696533E0,-6.691482544E0,2.271240234E0
4.668075248E0,6.300735474E0,-6.710632324E0,2.261657715E0
4.673171684E0,5.802749634E0,-6.997940063E0,2.529815674E0
4.678237602E0,5.405303955E0,-8.429672241E0,3.592834473E0
4.683303520E0,4.959991455E0,-9.612396240E0,4.952743530E0
4.688369438E0,4.548187256E0,-1.013912964E1,5.714096069E0
4.693465873E0,4.428466797E0,-1.017263794E1,5.584808350E0
4.698562309E0,4.658309937E0,-1.010081482E1,4.694168091E0
4.703628227E0,5.405303955E0,-1.042164612E1,3.880142212E0
4.708724662E0,6.980697632E0,-1.189167786E1,3.200195312E0
4.713790580E0,7.105194092E0,-1.148466492E1,2.453201294E0
4.718887016E0,6.975906372E0,-1.074246216E1,2.055755615E0
4.723952934E0,6.884918213E0,-1.051741028E1,1.806762695E0
4.729018852E0,6.358200073E0,-1.083345032E1,1.811553955E0
4.734115287E0,5.654296875E0,-1.090527344E1,1.701416016E0
4.739181205E0,5.098846436E0,-1.103456116E1,1.572128296E0
4.744277641E0,4.519454956E0,-1.109202576E1,1.380599976E0
4.749343559E0,4.050186157E0,-1.063711548E1,1.054977417E0
4.754439994E0,3.710205078E0,-9.976318359E0,4.947357178E-1
4.759505912E0,3.485153198E0,-9.411285400E0,-5.113220215E-2
4.764602348E0,3.925689697E0,-8.673873901E0,3.984069824E-2
4.769668266E0,4.428466797E0,-8.147155762E0,6.575469971E-1
4.774734184E0,4.548187256E0,-8.242919922E0,1.141174316E0
4.779830619E0,4.821121216E0,-8.214187622E0,1.514663696E0
4.784896537E0,5.060546875E0,-8.113632202E0,1.773239136E0
4.789992973E0,5.151519775E0,-8.104049683E0,1.888168335E0
4.795058891E0,4.787597656E0,-8.463180542E0,1.485946655E0
4.800155326E0,4.414108276E0,-8.903717041E0,9.927368164E-1
4.805221244E0,4.457199097E0,-8.932449341E0,7.485198975E-1
4.810317680E0,4.648742676E0,-8.535018921E0,5.857238770E-1
4.815383598E0,4.916885376E0,-7.749710083E0,5.282592773E-1
4.820480033E0,4.993499756E0,-6.806396484E0,7.820434570E-1
4.825545951E0,4.658309937E0,-6.595703125E0,9.113311768E-1
4.830611869E0,4.107650757E0,-6.385025024E0,1.064559937E0
4.835708305E0,3.480361938E0,-6.183898926E0,1.160324097E0
4.840774223E0,2.843505859E0,-6.116867065E0,1.251312256E0
4.845870658E0,2.168350220E0,-5.963638306E0,1.265670776E0
4.850936576E0,1.478820801E0,-5.647598267E0,1.347076416E0
4.856033012E0,1.335159302E0,-4.718658447E0,1.620010376E0
4.861098930E0,1.560211182E0,-3.583801270E0,2.050964355E0
4.866195365E0,1.651199341E0,-3.186370850E0,2.730926514E0
4.871261283E0,1.703872681E0,-3.282135010E0,3.793945312E0
4.876327201E0,1.703872681E0,-3.598175049E0,4.670227051E0
4.881423637E0,1.660766602E0,-3.923782349E0,4.473907471E0
4.886489555E0,1.703872681E0,-4.014755249E0,3.712539673E0
4.891585990E0,1.809219360E0,-4.043487549E0,2.639938354E0
4.896651908E0,1.876251221E0,-4.134475708E0,1.337493896E0
4.901748344E0,1.881042480E0,-4.282913208E0,2.265930176E-1
4.906814262E0,1.914566040E0,-4.574996948E0,-5.251922607E-1
4.911910697E0,1.876251221E0,-4.824005127E0,-9.848785400E-1
4.916976615E0,1.785278320E0,-5.001174927E0,-1.023178101E0
4.922042533E0,1.761337280E0,-5.245376587E0,-6.353302002E-1
4.927138969E0,1.694290161E0,-5.408187866E0,-5.592346191E-2
4.932204887E0,1.612884521E0,-5.508743286E0,6.192321777E-1
4.937301322E0,1.507537842E0,-5.499160767E0,1.098083496E0
4.942367240E0,1.339950562E0,-5.513534546E0,1.409332275E0
4.947463676E0,1.148422241E0,-5.508743286E0,1.466781616E0
4.952529594E0,1.134048462E0,-5.403396606E0,1.529037476E0
4.957626029E0,1.100524902E0,-5.240585327E0,1.466781616E0
4.962691947E0,9.472961426E-1,-4.986801147E0,1.418899536E0
4.967788383E0,7.988586426E-1,-4.914978027E0,1.438049316E0
4.972854301E0,7.030944824E-1,-5.120880127E0,1.366226196E0
4.977920219E0,5.929565430E-1,-5.408187866E0,9.783630371E-1
4.983016654E0,4.349365234E-1,-5.767318726E0,6.814880371E-1
4.988082572E0,3.200225830E-1,-6.025894165E0,4.707946777E-1
4.993179008E0,1.428527832E-1,-6.303619385E0,-1.038055420E-1
4.998244926E0,-1.013641357E-1,-6.787246704E0,-8.795318604E-1
5.003341361E0,-2.833251953E-1,-7.184677124E0,-1.090225220E0
5.008407279E0,-3.120422363E-1,-7.840698242E0,-4.294281006E-1
5.013503715E0,-1.683959961E-1,-8.338684082E0,4.277038574E-1
5.018569633E0,-1.061401367E-1,-8.946807861E0,6.623382568E-1
5.023666069E0,-2.976837158E-1,-9.593246460E0,5.569915771E-1
5.028731986E0,-5.035858154E-1,-1.020137024E1,7.341613770E-1
5.033797904E0,-5.993499756E-1,-1.093879700E1,7.437438965E-1
5.038894340E0,-7.573699951E-1,-1.174324036E1,5.522003174E-1
5.043960258E0,-1.221847534E0,-1.252853394E1,2.936248779E-1
5.049056694E0,-1.964050293E0,-1.343354797E1,2.984161377E-1
5.054122611E0,-3.711807251E0,-1.811660767E1,8.730163574E-1
5.059219047E0,-8.366149902E0,-3.852957153E1,4.373352051E0
5.064284965E0,-1.380097961E1,-5.418765259E1,4.612762451E0
5.069381401E0,-9.299880981E0,-5.412060547E1,3.185821533E0
5.074447319E0,1.622467041E0,-4.115840149E1,-1.645675659E0
5.079513236E0,3.432479858E0,-2.471502686E1,-4.288879395E0
5.084609672E0,-2.969619751E0,-1.190126038E1,-3.091781616E0
5.089675590E0,-7.652664185E0,-5.245376587E0,-1.099792480E0
5.094772026E0,-9.510574341E0,-2.286148071E0,6.431732178E-1
5.099837944E0,-8.327835083E0,-1.194381714E0,2.003082275E0
5.104934379E0,-5.828292847E0,-1.395507812E0,2.118011475E0
5.110000297E0,-3.793212891E0,-3.272552490E0,1.696624756E0
5.115096733E0,-2.203460693E0,-6.270095825E0,1.615219116E0
5.120162651E0,-7.382202148E-1,-9.104827881E0,1.749298096E0
5.125228569E0,6.791534424E-1,-1.089089966E1,1.734939575E0
5.130325004E0,1.517120361E0,-1.155648804E1,1.505096436E0
5.135390922E0,1.368682861E0,-1.150381470E1,1.045410156E0
5.140487358E0,5.833892822E-1,-1.103935242E1,6.527557373E-1
5.145553276E0,-2.545928955E-1,-1.041206360E1,6.479644775E-1
5.150649711E0,-9.776306152E-1,-9.727325439E0,9.400634766E-1
5.155715629E0,-1.748565674E0,-9.162292480E0,1.189056396E0
5.160812065E0,-2.457260132E0,-8.788803101E0,1.399749756E0
5.165877983E0,-2.960037231E0,-8.597259521E0,1.586502075E0
5.170974418E0,-3.295227051E0,-8.640350342E0,1.754089355E0
5.176040336E0,-3.582534790E0,-8.836685181E0,1.696624756E0
5.181106254E0,-3.553802490E0,-9.104827881E0,1.390167236E0
5.186202690E0,-3.280853271E0,-9.214965820E0,1.112442017E0
5.191268608E0,-2.825958252E0,-9.305938721E0,8.969726562E-1
5.196365043E0,-2.308807373E0,-9.420867920E0,7.868347168E-1
5.201430961E0,-1.868286133E0,-9.502273560E0,7.341613770E-1
5.206527397E0,-1.571395874E0,-9.574096680E0,7.102203369E-1
5.211593315E0,-1.413375854E0,-9.612396240E0,7.485198975E-1
5.216689750E0,-1.346343994E0,-9.574096680E0,7.628936768E-1
5.221755668E0,-1.375076294E0,-9.554946899E0,7.772521973E-1
5.226821586E0,-1.518722534E0,-9.507064819E0,8.011932373E-1
5.231918022E0,-1.700683594E0,-9.502273560E0,9.352722168E-1
5.236983940E0,-1.964050293E0,-9.502273560E0,1.059768677E0
5.242080375E0,-2.193893433E0,-9.497482300E0,1.145965576E0
5.247146293E0,-2.327972412E0,-9.468750000E0,1.232147217E0
5.252242729E0,-2.304031372E0,-9.463958740E0,1.251312256E0
5.257308647E0,-2.251358032E0,-9.440017700E0,1.251312256E0
5.262405082E0,-2.122070312E0,-9.440017700E0,1.222579956E0
5.267471000E0,-1.973617554E0,-9.430450439E0,1.280044556E0
5.272567436E0,-1.877853394E0,-9.440017700E0,1.284820557E0
5.277633354E0,-1.820388794E0,-9.459167480E0,1.323135376E0
5.282699272E0,-1.801239014E0,-9.430450439E0,1.308761597E0
5.287795707E0,-1.810821533E0,-9.377777100E0,1.275253296E0
5.292861625E0,-1.844329834E0,-9.329879761E0,1.246520996E0
5.297958061E0,-1.882644653E0,-9.310729980E0,1.184265137E0
5.303023979E0,-1.954467773E0,-9.258056641E0,1.117233276E0
5.308120414E0,-1.997573853E0,-9.272430420E0,1.131591797E0
5.313186332E0,-2.078964233E0,-9.248489380E0,1.078918457E0
5.318282768E0,-2.155578613E0,-9.214965820E0,1.031036377E0
5.323348686E0,-2.193893433E0,-9.210174561E0,1.050201416E0
5.328414604E0,-2.222625732E0,-9.200592041E0,1.035827637E0
5.333511039E0,-2.203460693E0,-9.248489380E0,1.064559937E0
5.338576957E0,-2.232192993E0,-9.305938721E0,1.054977417E0
5.343673393E0,-2.227416992E0,-9.349044800E0,1.011886597E0
5.348739311E0,-2.208251953E0,-9.368194580E0,1.059768677E0
5.353835746E0,-2.213043213E0,-9.425659180E0,1.050201416E0
5.358901664E0,-2.179519653E0,-9.492691040E0,1.045410156E0
5.363998100E0,-2.189102173E0,-9.569305420E0,1.007095337E0
5.369064018E0,-2.141220093E0,-9.574096680E0,1.011886597E0
5.374160453E0,-2.131637573E0,-9.540573120E0,9.975280762E-1
5.379226371E0,-2.078964233E0,-9.521423340E0,1.021469116E0
5.384292289E0,-2.011932373E0,-9.449600220E0,1.050201416E0
5.389388725E0,-1.992782593E0,-9.387344360E0,9.879455566E-1
5.394454643E0,-2.059814453E0,-9.583679199E0,8.969726562E-1
5.399551078E0,-2.040664673E0,-9.722534180E0,9.161224365E-1
5.404616996E0,-1.992782593E0,-9.717742920E0,9.352722168E-1
5.409682914E0,-2.002349854E0,-9.617187500E0,1.007095337E0
5.414779350E0,-2.021514893E0,-9.516632080E0,1.050201416E0
5.419875785E0,-1.983200073E0,-9.459167480E0,1.011886597E0
5.424941703E0,-1.978408813E0,-9.406494141E0,9.783630371E-1
5.430007621E0,-1.791671753E0,-8.693023682E0,1.078918457E0
5.435104057E0,-2.122070312E0,-9.080886841E0,1.093292236E0
5.440169975E0,-2.251358032E0,-9.842239380E0,9.592132568E-1
5.445266410E0,-2.026290894E0,-9.947586060E0,8.778076172E-1
5.450332328E0,-1.973617554E0,-9.669860840E0,9.496307373E-1
5.455428764E0,-2.141220093E0,-9.554946899E0,1.064559937E0
5.460494682E0,-2.294448853E0,-9.540573120E0,1.141174316E0
5.465591117E0,-2.256134033E0,-9.487899780E0,1.102859497E0
5.470657035E0,-2.174743652E0,-9.411285400E0,1.050201416E0
5.475753471E0,-2.141220093E0,-9.325103760E0,1.031036377E0
5.480819389E0,-2.136428833E0,-9.339462280E0,1.016677856E0
5.485885307E0,-2.150802612E0,-9.411285400E0,1.064559937E0
5.490981742E0,-2.117279053E0,-9.463958740E0,1.078918457E0
5.496047660E0,-2.098129272E0,-9.531005859E0,1.059768677E0
5.501144096E0,-2.078964233E0,-9.574096680E0,1.050201416E0
5.506210014E0,-2.026290894E0,-9.564514160E0,1.054977417E0
5.511306449E0,-2.011932373E0,-9.497482300E0,1.035827637E0
5.516372367E0,-2.016723633E0,-9.468750000E0,1.040618896E0
5.521468803E0,-2.007141113E0,-9.449600220E0,1.074142456E0
5.526534721E0,-2.007141113E0,-9.449600220E0,1.054977417E0
5.531600639E0,-2.021514893E0,-9.444808960E0,1.011886597E0
5.536697074E0,-2.055023193E0,-9.430450439E0,9.783630371E-1
5.541762992E0,-2.117279053E0,-9.411285400E0,9.448547363E-1
5.546859428E0,-2.160369873E0,-9.401718140E0,9.304809570E-1
5.551925346E0,-2.189102173E0,-9.372985840E0,9.400634766E-1
5.556991264E0,-2.189102173E0,-9.420867920E0,9.687957764E-1
5.562087699E0,-2.174743652E0,-9.444808960E0,8.634490967E-1
5.567184135E0,-2.160369873E0,-9.483108521E0,8.490753174E-1
5.572250053E0,-2.131637573E0,-9.497482300E0,8.730163574E-1
5.577315971E0,-2.136428833E0,-9.454391479E0,8.825988770E-1
5.582412406E0,-2.150802612E0,-9.411285400E0,8.251342773E-1
5.587478324E0,-2.198684692E0,-9.454391479E0,8.203582764E-1
5.592544242E0,-2.198684692E0,-9.435226440E0,8.730163574E-1
5.597610160E0,-2.227416992E0,-9.459167480E0,8.969726562E-1
5.602706596E0,-2.227416992E0,-9.454391479E0,9.879455566E-1
5.607803031E0,-2.256134033E0,-9.473541260E0,1.050201416E0
5.612899467E0,-2.241775513E0,-9.487899780E0,1.064559937E0
5.617965385E0,-2.217834473E0,-9.473541260E0,1.054977417E0
5.623061820E0,-2.184310913E0,-9.478332520E0,1.045410156E0
5.628127738E0,-2.136428833E0,-9.483108521E0,1.031036377E0
5.633224174E0,-2.107696533E0,-9.487899780E0,1.016677856E0
5.638290092E0,-2.055023193E0,-9.468750000E0,9.304809570E-1
5.643356010E0,-2.088546753E0,-9.463958740E0,9.448547363E-1
5.648421928E0,-2.160369873E0,-9.492691040E0,9.017486572E-1
5.653487846E0,-2.169952393E0,-9.511840820E0,8.921813965E-1
5.658553764E0,-2.174743652E0,-9.468750000E0,8.873901367E-1
5.663650199E0,-2.189102173E0,-9.454391479E0,8.490753174E-1
5.668746635E0,-2.265716553E0,-9.449600220E0,8.873901367E-1
5.673843070E0,-2.241775513E0,-9.382553101E0,8.634490967E-1
5.678939506E0,-2.241775513E0,-9.315521240E0,9.161224365E-1
5.684005424E0,-2.227416992E0,-9.301162720E0,8.921813965E-1
5.689071342E0,-2.241775513E0,-9.305938721E0,8.299255371E-1
5.694167777E0,-2.236984253E0,-9.305938721E0,7.964019775E-1
5.699233695E0,-2.256134033E0,-9.291580200E0,8.011932373E-1
5.704330131E0,-2.227416992E0,-9.320312500E0,8.873901367E-1
5.709396049E0,-2.203460693E0,-9.372985840E0,9.304809570E-1
5.714492485E0,-2.150802612E0,-9.401718140E0,8.921813965E-1
5.719558402E0,-2.098129272E0,-9.392135620E0,9.448547363E-1
5.724654838E0,-2.074188232E0,-9.358612061E0,1.040618896E0
5.729720756E0,-2.031082153E0,-9.349044800E0,1.131591797E0
5.734786674E0,-1.964050293E0,-9.353836060E0,1.174697876E0
5.739883110E0,-1.987991333E0,-9.315521240E0,1.169906616E0
5.744949027E0,-1.987991333E0,-9.315521240E0,1.131591797E0
5.750045463E0,-2.045455933E0,-9.344253540E0,1.131591797E0
5.755111381E0,-2.102905273E0,-9.291580200E0,1.088500977E0
5.760207817E0,-2.160369873E0,-9.267639160E0,1.026245117E0
5.765273735E0,-2.289657593E0,-9.286788940E0,9.113311768E-1
5.770370170E0,-2.304031372E0,-9.315521240E0,8.347167969E-1
5.775436088E0,-1.753356934E0,-8.137573242E0,9.783630371E-1
5.780532524E0,-1.815612793E0,-7.974761963E0,1.083709717E0
5.785598442E0,-2.323181152E0,-9.258056641E0,7.724609375E-1
5.790664360E0,-2.203460693E0,-9.823089600E0,5.617828369E-1
5.795760795E0,-2.169952393E0,-1.006730652E1,6.192321777E-1
5.800826713E0,-2.289657593E0,-1.012475586E1,7.964019775E-1
5.805923149E0,-2.313598633E0,-1.012475586E1,8.921813965E-1
5.810989067E0,-2.304031372E0,-9.794357300E0,9.927368164E-1
5.816085502E0,-2.433303833E0,-9.904495239E0,9.687957764E-1
5.821151420E0,-2.395004272E0,-9.875762939E0,9.831542969E-1
5.826247856E0,-2.227416992E0,-9.578887939E0,1.050201416E0
5.831313774E0,-2.208251953E0,-9.420867920E0,1.026245117E0
5.836379692E0,-2.160369873E0,-9.396926880E0,1.002304077E0
5.841476127E0,-2.136428833E0,-9.478332520E0,1.026245117E0
5.846542045E0,-2.126846313E0,-9.521423340E0,1.050201416E0
5.851638481E0,-2.088546753E0,-9.516632080E0,1.040618896E0
5.856704399E0,-2.050231934E0,-9.502273560E0,1.002304077E0
5.861800834E0,-2.069396973E0,-9.468750000E0,9.640045166E-1
5.866866752E0,-2.083755493E0,-9.454391479E0,9.161224365E-1
5.871963188E0,-2.107696533E0,-9.416076660E0,8.059844971E-1
5.877029106E0,-2.088546753E0,-9.382553101E0,7.389526367E-1
5.882095024E0,-2.093338013E0,-9.401718140E0,6.719055176E-1
5.887191459E0,-2.112487793E0,-9.454391479E0,6.814880371E-1
5.892257377E0,-2.117279053E0,-9.516632080E0,6.000823975E-1
5.897353813E0,-2.117279053E0,-9.521423340E0,6.288146973E-1
5.902419731E0,-2.141220093E0,-9.535781860E0,6.575469971E-1
5.907516166E0,-2.141220093E0,-9.564514160E0,7.245788574E-1
5.912582084E0,-2.126846313E0,-9.569305420E0,7.437438965E-1
5.917678520E0,-2.078964233E0,-9.564514160E0,7.916259766E-1
5.922744438E0,-2.107696533E0,-9.540573120E0,8.395080566E-1
5.927840873E0,-2.064605713E0,-9.574096680E0,9.065399170E-1
5.932906791E0,-2.093338013E0,-9.521423340E0,8.873901367E-1
5.937972709E0,-2.122070312E0,-9.526214600E0,9.209136963E-1
5.943069145E0,-2.136428833E0,-9.554946899E0,9.113311768E-1
5.948135063E0,-2.174743652E0,-9.550155640E0,9.065399170E-1
5.953231498E0,-2.193893433E0,-9.492691040E0,9.448547363E-1
5.958297416E0,-2.227416992E0,-9.459167480E0,9.209136963E-1
5.963393852E0,-2.246566772E0,-9.435226440E0,9.352722168E-1
5.968459770E0,-2.270507812E0,-9.468750000E0,9.256896973E-1
5.973556205E0,-2.260925293E0,-9.463958740E0,8.969726562E-1
5.978622123E0,-2.232192993E0,-9.516632080E0,9.161224365E-1
5.983718559E0,-2.184310913E0,-9.540573120E0,8.778076172E-1
5.988784477E0,-2.141220093E0,-9.559722900E0,8.442993164E-1
5.993850395E0,-2.112487793E0,-9.564514160E0,8.251342773E-1
5.998946830E0,-2.021514893E0,-9.593246460E0,7.724609375E-1
6.004012748E0,-2.016723633E0,-9.550155640E0,7.868347168E-1
6.009109184E0,-2.021514893E0,-9.545364380E0,7.964019775E-1
6.014175102E0,-2.026290894E0,-9.650711060E0,7.820434570E-1
6.019271537E0,-2.031082153E0,-9.736907959E0,7.485198975E-1
6.024337455E0,-1.997573853E0,-9.847030640E0,7.389526367E-1
6.029433891E0,-1.968841553E0,-9.880554199E0,7.820434570E-1
6.034499809E0,-2.011932373E0,-9.890136719E0,7.485198975E-1
6.039565727E0,-2.021514893E0,-9.918853760E0,8.442993164E-1
6.044662162E0,-2.059814453E0,-9.894912720E0,8.107757568E-1
6.049728080E0,-2.093338013E0,-9.808731079E0,8.107757568E-1
6.054824516E0,-2.150802612E0,-9.722534180E0,8.347167969E-1
6.059890434E0,-2.165161133E0,-9.593246460E0,8.155670166E-1
6.064986869E0,-2.131637573E0,-9.435226440E0,8.490753174E-1
6.070052787E0,-2.088546753E0,-9.339462280E0,8.778076172E-1
6.075149223E0,-2.055023193E0,-9.167083740E0,8.347167969E-1
6.080215141E0,-2.045455933E0,-9.028213501E0,8.347167969E-1
6.085311576E0,-2.011932373E0,-8.999481201E0,7.868347168E-1
6.090377494E0,-1.911376953E0,-8.985122681E0,9.113311768E-1
6.095443412E0,-1.887435913E0,-9.114410400E0,9.209136963E-1
6.100539848E0,-1.897003174E0,-9.262847900E0,7.724609375E-1
6.105605766E0,-1.992782593E0,-9.325103760E0,4.851684570E-1
6.110702201E0,-1.849121094E0,-9.152709961E0,5.330505371E-1
6.115768119E0,-1.892227173E0,-9.076095581E0,9.065399170E-1
6.120864555E0,-2.021514893E0,-9.210174561E0,8.778076172E-1
6.125930473E0,-2.112487793E0,-9.291580200E0,7.293701172E-1
6.131026908E0,-2.055023193E0,-9.315521240E0,6.000823975E-1
6.136092826E0,-2.035873413E0,-9.310729980E0,5.426177979E-1
6.141158744E0,-2.040664673E0,-9.339462280E0,5.043182373E-1
6.146255180E0,-2.011932373E0,-9.305938721E0,4.516448975E-1
6.151321098E0,-2.016723633E0,-9.315521240E0,4.372863770E-1
6.156417533E0,-2.007141113E0,-9.301162720E0,4.995269775E-1
6.161483451E0,-1.973617554E0,-9.334671021E0,4.612274170E-1
6.166579887E0,-1.968841553E0,-9.363403320E0,4.707946777E-1
6.171645805E0,-1.978408813E0,-9.401718140E0,4.372863770E-1
6.176742240E0,-1.992782593E0,-9.430450439E0,4.564361572E-1
6.181808158E0,-2.045455933E0,-9.420867920E0,5.043182373E-1
6.186904594E0,-2.055023193E0,-9.459167480E0,5.474090576E-1
6.191970512E0,-2.074188232E0,-9.468750000E0,5.569915771E-1
6.197036430E0,-2.112487793E0,-9.411285400E0,5.905151367E-1
6.202132865E0,-2.083755493E0,-9.440017700E0,6.575469971E-1
6.207198783E0,-2.088546753E0,-9.468750000E0,6.623382568E-1
6.212295219E0,-2.035873413E0,-9.420867920E0,5.522003174E-1
6.217361137E0,-1.983200073E0,-9.363403320E0,5.426177979E-1
6.222457572E0,-1.983200073E0,-9.339462280E0,5.569915771E-1
6.227523490E0,-1.964050293E0,-9.301162720E0,5.857238770E-1
6.232619926E0,-1.992782593E0,-9.291580200E0,6.288146973E-1
6.237685844E0,-1.978408813E0,-9.267639160E0,6.048736572E-1
6.242751762E0,-2.011932373E0,-9.238906860E0,5.905151367E-1
6.247848197E0,-2.069396973E0,-9.200592041E0,5.474090576E-1
6.252914115E0,-2.126846313E0,-9.238906860E0,4.899444580E-1
6.258010551E0,-2.141220093E0,-9.258056641E0,4.899444580E-1
6.263076469E0,-2.160369873E0,-9.229324341E0,5.186767578E-1
6.268172904E0,-2.289657593E0,-9.281997681E0,4.612274170E-1
6.273238822E0,-2.327972412E0,-9.262847900E0,4.372863770E-1
6.278335258E0,-2.347122192E0,-9.248489380E0,4.707946777E-1
6.283401176E0,-2.399795532E0,-9.219757080E0,4.755859375E-1
6.288497611E0,-2.476409912E0,-9.214965820E0,5.043182373E-1
6.293563529E0,-2.476409912E0,-9.181442261E0,4.947357178E-1
6.298629447E0,-2.428527832E0,-9.133560181E0,4.612274170E-1
6.303725883E0,-2.375854492E0,-9.143142700E0,4.803771973E-1
6.308791801E0,-2.356689453E0,-9.258056641E0,4.229125977E-1
6.313888236E0,-2.351913452E0,-9.392135620E0,3.702392578E-1
6.318954154E0,-2.193893433E0,-9.430450439E0,3.271484375E-1
6.324050590E0,-2.146011353E0,-9.487899780E0,3.032073975E-1
6.329116508E0,-2.045455933E0,-9.602828979E0,2.601013184E-1
6.334212944E0,-1.997573853E0,-9.722534180E0,1.978607178E-1
6.339278861E0,-2.031082153E0,-9.808731079E0,1.164550781E-1
6.344344779E0,-2.098129272E0,-9.890136719E0,9.730529785E-2
6.349441215E0,-2.126846313E0,-9.894912720E0,1.834869385E-1
6.354507133E0,-2.074188232E0,-9.037796021E0,4.755859375E-1
6.359603569E0,-2.241775513E0,-8.118423462E0,5.617828369E-1
6.364669486E0,-2.481201172E0,-8.669082642E0,4.995269775E-1
6.369765922E0,-2.529083252E0,-9.205383301E0,5.569915771E-1
6.374831840E0,-2.562591553E0,-9.655502319E0,6.862792969E-1
6.379928276E0,-2.533874512E0,-9.971527100E0,9.400634766E-1
6.384994194E0,-2.529083252E0,-1.031150818E1,1.107650757E0
6.390090629E0,-2.423736572E0,-1.064669800E1,1.208206177E0
6.395156547E0,-2.193893433E0,-1.051741028E1,1.366226196E0
6.400222465E0,-2.045455933E0,-1.001463318E1,1.529037476E0
6.405318901E0,-2.126846313E0,-9.526214600E0,1.452423096E0
6.410384819E0,-2.222625732E0,-9.277221680E0,1.160324097E0
6.415481254E0,-2.270507812E0,-9.090469360E0,7.868347168E-1
6.420547172E0,-2.236984253E0,-8.515853882E0,8.730163574E-1
6.425643608E0,-2.213043213E0,-8.218978882E0,7.676849365E-1
6.430709526E0,-2.931304932E0,-1.095794678E1,1.499786377E-1
6.435805961E0,-2.610488892E0,-1.029235840E1,-4.150543213E-1
6.440871879E0,-3.055801392E0,-9.133560181E0,-1.804199219E-1
6.445937797E0,-3.256912231E0,-9.238906860E0,1.122024536E0
6.451034233E0,-2.821166992E0,-9.267639160E0,1.739730835E0
6.456100151E0,-2.371063232E0,-9.238906860E0,1.926467896E0
6.461196586E0,-2.265716553E0,-9.296371460E0,1.907318115E0
6.466262504E0,-2.337539673E0,-9.315521240E0,1.581710815E0
6.471358940E0,-2.409362793E0,-9.238906860E0,1.361434937E0
6.476424858E0,-2.452468872E0,-9.214965820E0,1.260879517E0
6.481521293E0,-2.567382812E0,-9.310729980E0,1.059768677E0
6.486587211E0,-2.610488892E0,-9.363403320E0,9.640045166E-1
6.491683647E0,-2.557815552E0,-9.368194580E0,9.400634766E-1
6.496749565E0,-2.485977173E0,-9.339462280E0,9.400634766E-1
6.501815483E0,-2.418945312E0,-9.368194580E0,9.975280762E-1
6.506911918E0,-2.347122192E0,-9.377777100E0,1.098083496E0
6.511977836E0,-2.256134033E0,-9.401718140E0,1.193847656E0
6.517074272E0,-2.160369873E0,-9.411285400E0,1.351867676E0
6.522140190E0,-2.098129272E0,-9.430450439E0,1.390167236E0
6.527236625E0,-2.040664673E0,-9.440017700E0,1.433273315E0
6.532302543E0,-2.007141113E0,-9.459167480E0,1.505096436E0
6.537398979E0,-1.987991333E0,-9.478332520E0,1.552978516E0
6.542464897E0,-1.954467773E0,-9.444808960E0,1.514663696E0
6.547530815E0,-1.920944214E0,-9.449600220E0,1.457214355E0
6.552627250E0,-1.853912354E0,-9.406494141E0,1.399749756E0
6.557693168E0,-1.825180054E0,-9.392135620E0,1.327926636E0
6.562789604E0,-1.791671753E0,-9.358612061E0,1.299194336E0
6.567855522E0,-1.729415894E0,-9.382553101E0,1.265670776E0
6.572951957E0,-1.681533813E0,-9.396926880E0,1.251312256E0
6.578017875E0,-1.657592773E0,-9.430450439E0,1.208206177E0
6.583114311E0,-1.609710693E0,-9.454391479E0,1.246520996E0
6.588180229E0,-1.590545654E0,-9.454391479E0,1.251312256E0
6.593276664E0,-1.600128174E0,-9.463958740E0,1.294403076E0
6.598342582E0,-1.576187134E0,-9.473541260E0,1.313552856E0
6.603408500E0,-1.614486694E0,-9.497482300E0,1.342285156E0
6.608504936E0,-1.614486694E0,-9.545364380E0,1.270462036E0
6.613570854E0,-1.595336914E0,-9.545364380E0,1.246520996E0
6.618667289E0,-1.676742554E0,-9.526214600E0,1.294403076E0
6.623733207E0,-1.743774414E0,-9.511840820E0,1.332717896E0
6.628829643E0,-1.748565674E0,-9.487899780E0,1.270462036E0
6.633895561E0,-1.753356934E0,-9.440017700E0,1.222579956E0
6.638991996E0,-1.777297974E0,-9.425659180E0,1.184265137E0
6.644057914E0,-1.719833374E0,-9.406494141E0,1.189056396E0
6.649123832E0,-1.662384033E0,-9.406494141E0,1.212997437E0
6.654220268E0,-1.566604614E0,-9.463958740E0,1.198638916E0
6.659286186E0,-1.494781494E0,-9.468750000E0,1.141174316E0
6.664382621E0,-1.518722534E0,-9.535781860E0,1.136383057E0
6.669448539E0,-1.537872314E0,-9.545364380E0,1.126815796E0
6.674544975E0,-1.571395874E0,-9.535781860E0,1.126815796E0
6.679610893E0,-1.566604614E0,-9.535781860E0,1.145965576E0
6.684707328E0,-1.604919434E0,-9.545364380E0,1.112442017E0
6.689773246E0,-1.624069214E0,-9.569305420E0,1.083709717E0
6.694869682E0,-1.624069214E0,-9.526214600E0,1.102859497E0
6.699935600E0,-1.547454834E0,-8.970748901E0,1.098083496E0
6.705001518E0,-1.762939453E0,-9.061737061E0,1.236938477E0
6.710097953E0,-1.978408813E0,-1.019659424E1,9.065399170E-1
6.715163871E0,-1.595336914E0,-9.928436279E0,6.958465576E-1
6.720260307E0,-1.715057373E0,-9.545364380E0,8.299255371E-1
6.725326225E0,-1.868286133E0,-9.487899780E0,9.304809570E-1
6.730392143E0,-1.853912354E0,-9.463958740E0,9.113311768E-1
6.735458061E0,-1.849121094E0,-9.411285400E0,9.065399170E-1
6.740523979E0,-1.834762573E0,-9.416076660E0,8.634490967E-1
6.745620414E0,-1.825180054E0,-9.454391479E0,8.155670166E-1
6.750716850E0,-1.772506714E0,-9.463958740E0,8.586578369E-1
6.755813285E0,-1.758148193E0,-9.463958740E0,8.634490967E-1
6.760879203E0,-1.748565674E0,-9.492691040E0,8.107757568E-1
6.765975639E0,-1.715057373E0,-9.535781860E0,7.820434570E-1
6.771041557E0,-1.734207153E0,-9.554946899E0,7.628936768E-1
6.776137992E0,-1.691101074E0,-9.593246460E0,7.006378174E-1
6.781203910E0,-1.681533813E0,-9.593246460E0,7.437438965E-1
6.786300346E0,-1.676742554E0,-9.569305420E0,6.719055176E-1
6.791366264E0,-1.667160034E0,-9.540573120E0,7.054290771E-1
6.796462699E0,-1.705474854E0,-9.535781860E0,6.958465576E-1
6.801528617E0,-1.753356934E0,-9.521423340E0,6.671295166E-1
6.806594535E0,-1.829971313E0,-9.502273560E0,6.814880371E-1
6.811690971E0,-1.882644653E0,-9.516632080E0,7.054290771E-1
6.816756889E0,-1.834762573E0,-9.492691040E0,7.293701172E-1
6.821853324E0,-1.882644653E0,-9.463958740E0,7.724609375E-1
6.826919242E0,-1.873062134E0,-9.478332520E0,8.490753174E-1
6.832015678E0,-1.858703613E0,-9.473541260E0,8.730163574E-1
6.837081596E0,-1.853912354E0,-9.449600220E0,8.490753174E-1
6.842178031E0,-1.810821533E0,-9.473541260E0,7.485198975E-1
6.847243949E0,-1.786880493E0,-9.468750000E0,6.766967773E-1
6.852309867E0,-1.791671753E0,-9.478332520E0,6.383972168E-1
6.857375785E0,-1.806030273E0,-9.507064819E0,6.431732178E-1
6.862472221E0,-1.858703613E0,-9.531005859E0,6.431732178E-1
6.867568656E0,-1.906585693E0,-9.516632080E0,6.958465576E-1
6.872634574E0,-1.944900513E0,-9.554946899E0,6.814880371E-1
6.877731010E0,-1.973617554E0,-9.578887939E0,7.437438965E-1
6.882796928E0,-1.968841553E0,-9.511840820E0,7.964019775E-1
6.887893363E0,-1.968841553E0,-9.492691040E0,8.011932373E-1
6.892959281E0,-1.944900513E0,-9.463958740E0,8.107757568E-1
6.898055717E0,-1.916168213E0,-9.449600220E0,7.916259766E-1
6.903121635E0,-1.882644653E0,-9.425659180E0,7.437438965E-1
6.908187553E0,-1.892227173E0,-9.430450439E0,6.862792969E-1
6.913283988E0,-1.949676514E0,-9.420867920E0,6.719055176E-1
6.918349906E0,-1.920944214E0,-9.454391479E0,6.479644775E-1
6.923446342E0,-2.011932373E0,-9.463958740E0,7.245788574E-1
6.928512260E0,-2.050231934E0,-9.425659180E0,7.150115967E-1
6.933608695E0,-1.973617554E0,-9.425659180E0,6.766967773E-1
6.938644096E0,-1.959259033E0,-9.440017700E0,6.527557373E-1
6.943740531E0,-1.944900513E0,-9.454391479E0,6.383972168E-1
6.948836967E0,-1.949676514E0,-9.487899780E0,5.713500977E-1
6.953902885E0,-1.992782593E0,-9.487899780E0,5.043182373E-1
6.958999320E0,-1.987991333E0,-9.492691040E0,5.569915771E-1
6.964065238E0,-1.906585693E0,-9.123977661E0,6.048736572E-1
6.969161674E0,-1.782089233E0,-8.391357422E0,6.623382568E-1
6.974227592E0,-2.548233032E0,-9.693801880E0,5.186767578E-1
6.979324027E0,-2.327972412E0,-1.008166504E1,4.468536377E-1
6.984389945E0,-2.102905273E0,-9.712951660E0,5.761413574E-1
6.989486381E0,-2.275299072E0,-9.641128540E0,6.240234375E-1
6.994552299E0,-2.289657593E0,-9.612396240E0,6.527557373E-1
6.999648735E0,-2.222625732E0,-9.478332520E0,6.336059570E-1
7.004714652E0,-2.136428833E0,-9.430450439E0,5.857238770E-1
7.009780570E0,-2.117279053E0,-9.382553101E0,5.905151367E-1
7.014877006E0,-2.165161133E0,-9.406494141E0,5.234680176E-1
7.019942924E0,-2.184310913E0,-9.396926880E0,5.330505371E-1
7.025039360E0,-2.174743652E0,-9.416076660E0,5.282592773E-1
7.030105277E0,-2.208251953E0,-9.435226440E0,5.043182373E-1
7.035201713E0,-2.251358032E0,-9.468750000E0,4.947357178E-1
7.040267631E0,-2.275299072E0,-9.444808960E0,4.803771973E-1
7.045364067E0,-2.294448853E0,-9.487899780E0,5.282592773E-1
7.050429985E0,-2.323181152E0,-9.454391479E0,5.139007568E-1
7.055495902E0,-2.342330933E0,-9.435226440E0,5.282592773E-1
7.060592338E0,-2.395004272E0,-9.382553101E0,5.091094971E-1
7.065658256E0,-2.395004272E0,-9.334671021E0,5.378417969E-1
7.070754692E0,-2.385421753E0,-9.315521240E0,5.474090576E-1
7.075820610E0,-2.395004272E0,-9.320312500E0,5.330505371E-1
7.080917045E0,-2.375854492E0,-9.368194580E0,5.234680176E-1
7.085982963E0,-2.356689453E0,-9.363403320E0,5.474090576E-1
7.091079399E0,-2.347122192E0,-9.406494141E0,6.144561768E-1
7.096145317E0,-2.342330933E0,-9.463958740E0,6.766967773E-1
7.101241752E0,-2.337539673E0,-9.478332520E0,6.288146973E-1
7.106307670E0,-2.289657593E0,-9.463958740E0,6.096649170E-1
7.111373588E0,-2.208251953E0,-9.420867920E0,6.575469971E-1
7.116470024E0,-2.169952393E0,-9.392135620E0,6.575469971E-1
7.121535942E0,-2.213043213E0,-9.382553101E0,5.952911377E-1
7.126632377E0,-2.256134033E0,-9.363403320E0,4.995269775E-1
7.131698295E0,-2.289657593E0,-9.372985840E0,4.803771973E-1
7.136794731E0,-2.327972412E0,-9.382553101E0,4.899444580E-1
7.141860649E0,-2.342330933E0,-9.396926880E0,4.947357178E-1
7.146957084E0,-2.342330933E0,-9.396926880E0,4.947357178E-1
7.152023002E0,-2.385421753E0,-9.377777100E0,4.995269775E-1
7.157088920E0,-2.409362793E0,-9.377777100E0,4.899444580E-1
7.162185356E0,-2.462036133E0,-9.392135620E0,4.755859375E-1
7.167251274E0,-2.529083252E0,-9.392135620E0,5.043182373E-1
7.172347709E0,-2.485977173E0,-9.329879761E0,5.139007568E-1
7.177413627E0,-2.538650513E0,-9.281997681E0,4.899444580E-1
7.182510063E0,-2.500350952E0,-9.286788940E0,4.947357178E-1
7.187575981E0,-2.500350952E0,-9.262847900E0,4.851684570E-1
7.192672416E0,-2.538650513E0,-9.272430420E0,5.234680176E-1
7.197738334E0,-2.586532593E0,-9.291580200E0,5.761413574E-1
7.202834770E0,-2.567382812E0,-9.286788940E0,5.474090576E-1
7.207900688E0,-2.576965332E0,-9.320312500E0,5.665588379E-1
7.212966606E0,-2.519500732E0,-9.372985840E0,5.809326172E-1
7.218063041E0,-2.505142212E0,-9.368194580E0,5.426177979E-1
7.223128959E0,-2.485977173E0,-9.401718140E0,5.474090576E-1
7.228225395E0,-2.505142212E0,-9.454391479E0,4.947357178E-1
7.233291313E0,-2.538650513E0,-9.459167480E0,4.707946777E-1
7.238387748E0,-2.500350952E0,-9.449600220E0,4.707946777E-1
7.243453666E0,-2.514709473E0,-9.440017700E0,4.803771973E-1
7.248550102E0,-2.548233032E0,-9.416076660E0,4.947357178E-1
7.253616020E0,-2.591323853E0,-9.368194580E0,4.899444580E-1
7.258712455E0,-2.667938232E0,-9.358612061E0,5.091094971E-1
7.263778373E0,-2.691879272E0,-9.377777100E0,4.995269775E-1
7.268844291E0,-2.744552612E0,-9.372985840E0,4.995269775E-1
7.273940727E0,-2.758926392E0,-9.387344360E0,4.564361572E-1
7.279006645E0,-2.739761353E0,-9.372985840E0,4.995269775E-1
7.284103080E0,-2.773284912E0,-9.363403320E0,4.995269775E-1
7.289168998E0,-2.806808472E0,-9.344253540E0,5.091094971E-1
7.294265434E0,-2.802017212E0,-9.334671021E0,5.474090576E-1
7.299331352E0,-2.864273071E0,-9.349044800E0,6.096649170E-1
7.304427787E0,-2.854690552E0,-9.358612061E0,5.809326172E-1
7.309493705E0,-2.873840332E0,-9.344253540E0,5.569915771E-1
7.314559623E0,-2.859481812E0,-9.334671021E0,6.048736572E-1
7.319656059E0,-2.792434692E0,-9.353836060E0,6.479644775E-1
7.324721977E0,-2.758926392E0,-9.363403320E0,6.096649170E-1
7.329818412E0,-2.711044312E0,-9.363403320E0,6.431732178E-1
7.334884330E0,-2.667938232E0,-9.377777100E0,6.288146973E-1
7.339980766E0,-2.620056152E0,-9.334671021E0,6.431732178E-1
7.345046684E0,-2.600906372E0,-9.329879761E0,6.527557373E-1
7.350143119E0,-2.605697632E0,-9.344253540E0,5.857238770E-1
7.355209037E0,-2.634429932E0,-9.382553101E0,5.282592773E-1
7.360274955E0,-2.572174072E0,-9.406494141E0,5.234680176E-1
7.365371391E0,-2.481201172E0,-9.401718140E0,4.851684570E-1
7.370437309E0,-2.505142212E0,-9.440017700E0,4.899444580E-1
7.375533744E0,-2.519500732E0,-9.463958740E0,5.186767578E-1
7.380599662E0,-2.519500732E0,-9.459167480E0,4.707946777E-1
7.385696098E0,-2.495559692E0,-9.425659180E0,4.947357178E-1
7.390762016E0,-2.433303833E0,-9.368194580E0,5.091094971E-1
7.395858451E0,-2.442886353E0,-9.325103760E0,5.091094971E-1
7.400924369E0,-2.452468872E0,-9.301162720E0,5.426177979E-1
7.406020805E0,-2.462036133E0,-9.296371460E0,5.905151367E-1
7.411086723E0,-2.462036133E0,-9.296371460E0,6.431732178E-1
7.416152641E0,-2.462036133E0,-9.325103760E0,6.048736572E-1
7.421249076E0,-2.423736572E0,-9.296371460E0,5.665588379E-1
7.426314994E0,-2.390213013E0,-9.310729980E0,5.426177979E-1
7.431411430E0,-2.366271973E0,-9.339462280E0,5.713500977E-1
7.436477348E0,-2.399795532E0,-9.396926880E0,5.378417969E-1
7.441573783E0,-2.433303833E0,-9.425659180E0,4.803771973E-1
7.446639701E0,-2.447677612E0,-9.459167480E0,4.995269775E-1
7.451736137E0,-2.395004272E0,-9.444808960E0,5.378417969E-1
7.456802055E0,-2.404586792E0,-9.377777100E0,5.330505371E-1
7.461867973E0,-2.380645752E0,-9.372985840E0,4.803771973E-1
7.466964408E0,-2.351913452E0,-9.396926880E0,4.899444580E-1
7.472030326E0,-2.308807373E0,-9.401718140E0,5.282592773E-1
7.477126762E0,-2.327972412E0,-9.382553101E0,5.186767578E-1
7.482192680E0,-2.361480713E0,-9.387344360E0,5.569915771E-1
7.487289115E0,-2.442886353E0,-9.401718140E0,5.330505371E-1
7.492355033E0,-2.395004272E0,-9.444808960E0,5.617828369E-1
7.497451469E0,-2.342330933E0,-9.411285400E0,5.282592773E-1
7.502517387E0,-2.404586792E0,-9.406494141E0,5.474090576E-1
7.507613822E0,-2.495559692E0,-9.411285400E0,6.048736572E-1
7.512679740E0,-2.524291992E0,-9.344253540E0,5.330505371E-1
7.517745658E0,-2.543441772E0,-9.334671021E0,5.330505371E-1
7.522842094E0,-2.562591553E0,-9.315521240E0,5.426177979E-1
7.527908012E0,-2.548233032E0,-9.310729980E0,5.186767578E-1
7.533004447E0,-2.538650513E0,-9.315521240E0,5.330505371E-1
7.538070365E0,-2.505142212E0,-9.344253540E0,5.474090576E-1
7.543166801E0,-2.495559692E0,-9.396926880E0,4.564361572E-1
7.548232719E0,-2.476409912E0,-9.425659180E0,4.133300781E-1
7.553329154E0,-2.471618652E0,-9.411285400E0,4.133300781E-1
7.558395072E0,-2.505142212E0,-9.392135620E0,4.324951172E-1
7.563491508E0,-2.524291992E0,-9.382553101E0,4.133300781E-1
7.568557426E0,-2.529083252E0,-9.344253540E0,3.798217773E-1
7.573623344E0,-2.596115112E0,-9.349044800E0,3.702392578E-1
7.578719779E0,-2.667938232E0,-9.325103760E0,3.223571777E-1
7.583785697E0,-2.667938232E0,-9.281997681E0,3.510894775E-1
7.588882133E0,-2.677520752E0,-9.277221680E0,3.175659180E-1
7.593948051E0,-2.658370972E0,-9.320312500E0,2.313842773E-1
7.599044486E0,-2.624847412E0,-9.310729980E0,1.978607178E-1
7.604110404E0,-2.624847412E0,-9.334671021E0,2.122192383E-1
7.609206840E0,-2.677520752E0,-9.325103760E0,2.122192383E-1
7.614272758E0,-2.682312012E0,-9.329879761E0,1.930694580E-1
7.619338676E0,-2.677520752E0,-9.334671021E0,1.834869385E-1
7.624435111E0,-2.701461792E0,-9.310729980E0,2.313842773E-1
7.629501029E0,-2.696670532E0,-9.344253540E0,3.032073975E-1
7.634597465E0,-2.605697632E0,-9.353836060E0,3.032073975E-1
7.639663383E0,-2.620056152E0,-9.339462280E0,3.319396973E-1
7.644759819E0,-2.596115112E0,-9.377777100E0,3.702392578E-1
7.649825736E0,-2.605697632E0,-9.377777100E0,3.941802979E-1
7.654922172E0,-2.600906372E0,-9.363403320E0,4.755859375E-1
7.659988090E0,-2.572174072E0,-9.377777100E0,4.755859375E-1
7.665084526E0,-2.533874512E0,-9.377777100E0,4.851684570E-1
7.670150444E0,-2.548233032E0,-9.377777100E0,4.324951172E-1
7.675216361E0,-2.553024292E0,-9.349044800E0,4.037628174E-1
7.680312797E0,-2.557815552E0,-9.406494141E0,4.133300781E-1
7.685378715E0,-2.462036133E0,-9.435226440E0,4.851684570E-1
7.690475151E0,-2.404586792E0,-9.392135620E0,4.468536377E-1
7.695541069E0,-2.399795532E0,-9.387344360E0,3.846130371E-1
7.700637504E0,-2.366271973E0,-9.411285400E0,4.181213379E-1
7.705703422E0,-2.375854492E0,-9.387344360E0,4.564361572E-1
7.710799858E0,-2.385421753E0,-9.425659180E0,4.803771973E-1
7.715865776E0,-2.428527832E0,-9.358612061E0,4.947357178E-1
7.720931694E0,-2.423736572E0,-9.349044800E0,5.569915771E-1
7.726028129E0,-2.418945312E0,-9.387344360E0,5.330505371E-1
7.731094047E0,-2.385421753E0,-9.406494141E0,4.995269775E-1
7.736190483E0,-2.375854492E0,-9.377777100E0,4.995269775E-1
7.741256401E0,-2.361480713E0,-9.430450439E0,4.851684570E-1
7.746352836E0,-2.347122192E0,-9.387344360E0,4.324951172E-1
7.751418754E0,-2.361480713E0,-9.401718140E0,4.372863770E-1
7.756515190E0,-2.375854492E0,-9.382553101E0,4.277038574E-1
7.761581108E0,-2.423736572E0,-9.344253540E0,3.989715576E-1
7.766647026E0,-2.442886353E0,-9.377777100E0,3.989715576E-1
7.771743461E0,-2.414154053E0,-9.392135620E0,4.420623779E-1
7.776809379E0,-2.409362793E0,-9.392135620E0,4.564361572E-1
7.781905815E0,-2.385421753E0,-9.396926880E0,4.660034180E-1
7.786971733E0,-2.371063232E0,-9.430450439E0,4.612274170E-1
7.792068168E0,-2.385421753E0,-9.454391479E0,4.468536377E-1
7.797134086E0,-2.423736572E0,-9.487899780E0,4.851684570E-1
7.802230522E0,-2.452468872E0,-9.463958740E0,4.133300781E-1
7.807296440E0,-2.481201172E0,-9.435226440E0,4.085540771E-1
7.812392875E0,-2.533874512E0,-9.420867920E0,3.941802979E-1
7.817428276E0,-2.572174072E0,-9.411285400E0,3.415069580E-1
7.822524711E0,-2.553024292E0,-9.344253540E0,3.654479980E-1
7.827590629E0,-2.576965332E0,-9.301162720E0,3.702392578E-1
7.832656547E0,-2.567382812E0,-9.291580200E0,3.271484375E-1
7.837752983E0,-2.514709473E0,-9.310729980E0,3.319396973E-1
7.842849418E0,-2.505142212E0,-9.320312500E0,3.223571777E-1
7.847945854E0,-2.476409912E0,-9.334671021E0,2.984161377E-1
7.853011772E0,-2.466827393E0,-9.353836060E0,3.032073975E-1
7.858108207E0,-2.471618652E0,-9.344253540E0,3.175659180E-1
7.863174125E0,-2.476409912E0,-9.430450439E0,2.888336182E-1
7.868270561E0,-2.442886353E0,-9.463958740E0,2.984161377E-1
7.873336479E0,-2.433303833E0,-9.430450439E0,3.032073975E-1
7.878402397E0,-2.433303833E0,-9.406494141E0,3.654479980E-1
7.883468315E0,-2.442886353E0,-9.406494141E0,3.989715576E-1
7.888534233E0,-2.414154053E0,-9.411285400E0,4.277038574E-1
7.893630668E0,-2.418945312E0,-9.416076660E0,4.324951172E-1
7.898727104E0,-2.404586792E0,-9.425659180E0,3.750305176E-1
7.903823539E0,-2.447677612E0,-9.425659180E0,3.750305176E-1
7.908889457E0,-2.438095093E0,-9.411285400E0,3.127746582E-1
7.913985893E0,-2.447677612E0,-9.425659180E0,3.223571777E-1
7.919051811E0,-2.428527832E0,-9.444808960E0,3.223571777E-1
7.924117729E0,-2.452468872E0,-9.416076660E0,3.319396973E-1
7.929214164E0,-2.428527832E0,-9.401718140E0,3.175659180E-1
7.934280082E0,-2.399795532E0,-9.420867920E0,3.175659180E-1
7.939376518E0,-2.438095093E0,-9.425659180E0,3.271484375E-1
7.944442436E0,-2.438095093E0,-9.392135620E0,3.079986572E-1
7.949538871E0,-2.438095093E0,-9.358612061E0,3.175659180E-1
7.954604789E0,-2.457260132E0,-9.349044800E0,3.175659180E-1
7.959701225E0,-2.481201172E0,-9.329879761E0,3.702392578E-1
7.964767143E0,-2.476409912E0,-9.329879761E0,3.367156982E-1
7.969863578E0,-2.457260132E0,-9.368194580E0,3.079986572E-1
7.974929496E0,-2.471618652E0,-9.358612061E0,2.648925781E-1
7.979995414E0,-2.490768433E0,-9.387344360E0,2.744750977E-1
7.985091850E0,-2.490768433E0,-9.372985840E0,3.032073975E-1
7.990157768E0,-2.500350952E0,-9.382553101E0,2.936248779E-1
7.995254203E0,-2.476409912E0,-9.368194580E0,2.984161377E-1
8.000320121E0,-2.452468872E0,-9.353836060E0,3.606719971E-1
8.005416557E0,-2.428527832E0,-9.401718140E0,3.798217773E-1
8.010482475E0,-2.433303833E0,-9.401718140E0,3.223571777E-1
8.015578910E0,-2.428527832E0,-9.454391479E0,3.319396973E-1
8.020644828E0,-2.447677612E0,-9.444808960E0,3.223571777E-1
8.025710746E0,-2.438095093E0,-9.463958740E0,3.175659180E-1
8.030807182E0,-2.409362793E0,-9.449600220E0,3.415069580E-1
8.035873100E0,-2.471618652E0,-9.372985840E0,3.127746582E-1
8.040969535E0,-2.524291992E0,-9.353836060E0,3.271484375E-1
8.046035453E0,-2.548233032E0,-9.372985840E0,3.415069580E-1
8.051131889E0,-2.576965332E0,-9.372985840E0,2.840576172E-1
8.056197807E0,-2.562591553E0,-9.382553101E0,2.648925781E-1
8.061294242E0,-2.538650513E0,-9.382553101E0,1.499786377E-1
8.066360160E0,-2.572174072E0,-9.353836060E0,1.499786377E-1
8.071456596E0,-2.567382812E0,-9.349044800E0,1.356048584E-1
8.076522514E0,-2.581756592E0,-9.310729980E0,1.595458984E-1
8.081588432E0,-2.610488892E0,-9.320312500E0,2.026519775E-1
8.086684867E0,-2.605697632E0,-9.315521240E0,2.840576172E-1
8.091750785E0,-2.562591553E0,-9.339462280E0,2.601013184E-1
8.096847221E0,-2.495559692E0,-9.363403320E0,2.457427979E-1
8.101913139E0,-2.505142212E0,-9.382553101E0,2.361602783E-1
8.107009574E0,-2.529083252E0,-9.368194580E0,2.265930176E-1
8.112075492E0,-2.533874512E0,-9.353836060E0,2.409515381E-1
8.117171928E0,-2.567382812E0,-9.372985840E0,2.840576172E-1
8.122237846E0,-2.576965332E0,-9.358612061E0,3.319396973E-1
8.127303764E0,-2.567382812E0,-9.368194580E0,3.510894775E-1
8.132400199E0,-2.543441772E0,-9.392135620E0,3.558807373E-1
8.137466117E0,-2.514709473E0,-9.363403320E0,3.319396973E-1
8.142562553E0,-2.481201172E0,-9.392135620E0,3.367156982E-1
8.147628471E0,-2.495559692E0,-9.416076660E0,3.654479980E-1
8.152724906E0,-2.490768433E0,-9.368194580E0,3.606719971E-1
8.157790824E0,-2.476409912E0,-9.372985840E0,3.175659180E-1
8.162887260E0,-2.505142212E0,-9.392135620E0,2.984161377E-1
8.167953178E0,-2.509918213E0,-9.377777100E0,2.792663574E-1
8.173049613E0,-2.495559692E0,-9.396926880E0,2.457427979E-1
8.178115531E0,-2.495559692E0,-9.377777100E0,2.840576172E-1
8.183181449E0,-2.471618652E0,-9.353836060E0,3.032073975E-1
8.188277885E0,-2.442886353E0,-9.396926880E0,2.984161377E-1
8.193343803E0,-2.471618652E0,-9.401718140E0,3.271484375E-1
8.198440238E0,-2.462036133E0,-9.401718140E0,3.462982178E-1
8.203506156E0,-2.428527832E0,-9.368194580E0,3.079986572E-1
8.208602592E0,-2.433303833E0,-9.310729980E0,2.792663574E-1
8.213668510E0,-2.423736572E0,-9.305938721E0,2.984161377E-1
8.218764945E0,-2.442886353E0,-9.301162720E0,2.696838379E-1
8.223830863E0,-2.414154053E0,-9.296371460E0,2.601013184E-1
8.228896781E0,-2.418945312E0,-9.339462280E0,2.888336182E-1
8.233993217E0,-2.423736572E0,-9.377777100E0,3.462982178E-1
8.239059135E0,-2.399795532E0,-9.406494141E0,3.558807373E-1
8.244155570E0,-2.404586792E0,-9.411285400E0,3.702392578E-1
8.249221488E0,-2.385421753E0,-9.396926880E0,3.750305176E-1
8.254317924E0,-2.404586792E0,-9.406494141E0,3.893890381E-1
8.259383842E0,-2.442886353E0,-9.425659180E0,3.127746582E-1
8.264480277E0,-2.471618652E0,-9.411285400E0,3.127746582E-1
8.269546195E0,-2.471618652E0,-9.353836060E0,3.606719971E-1
8.274612113E0,-2.466827393E0,-9.353836060E0,3.510894775E-1
8.279708549E0,-2.447677612E0,-9.368194580E0,3.079986572E-1
8.284774467E0,-2.423736572E0,-9.344253540E0,3.271484375E-1
8.289870902E0,-2.423736572E0,-9.387344360E0,3.032073975E-1
8.294936820E0,-2.447677612E0,-9.377777100E0,2.553253174E-1
8.300033256E0,-2.471618652E0,-9.372985840E0,2.218017578E-1
8.305099174E0,-2.500350952E0,-9.396926880E0,1.930694580E-1
8.310195610E0,-2.500350952E0,-9.392135620E0,2.696838379E-1
8.315261527E0,-2.471618652E0,-9.382553101E0,2.361602783E-1
8.320357963E0,-2.409362793E0,-9.401718140E0,2.553253174E-1
8.325423881E0,-2.366271973E0,-9.382553101E0,2.409515381E-1
8.330489799E0,-2.366271973E0,-9.377777100E0,2.648925781E-1
8.335586235E0,-2.442886353E0,-9.377777100E0,2.601013184E-1
8.340652152E0,-2.485977173E0,-9.368194580E0,2.170104980E-1
8.345748588E0,-2.500350952E0,-9.372985840E0,2.984161377E-1
8.350814506E0,-2.505142212E0,-9.392135620E0,2.696838379E-1
8.355910942E0,-2.485977173E0,-9.396926880E0,3.175659180E-1
8.360976860E0,-2.509918213E0,-9.387344360E0,3.367156982E-1
8.366073295E0,-2.462036133E0,-9.416076660E0,2.984161377E-1
8.371139213E0,-2.462036133E0,-9.377777100E0,2.744750977E-1
8.376235649E0,-2.490768433E0,-9.387344360E0,3.271484375E-1
8.381301567E0,-2.481201172E0,-9.382553101E0,3.175659180E-1
8.386367485E0,-2.481201172E0,-9.382553101E0,2.936248779E-1
8.391463920E0,-2.490768433E0,-9.372985840E0,2.888336182E-1
8.396529838E0,-2.471618652E0,-9.382553101E0,2.505340576E-1
8.401626274E0,-2.428527832E0,-9.387344360E0,2.648925781E-1
8.406692192E0,-2.442886353E0,-9.368194580E0,2.409515381E-1
8.411788627E0,-2.452468872E0,-9.372985840E0,2.696838379E-1
8.416854545E0,-2.428527832E0,-9.339462280E0,2.984161377E-1
8.421950981E0,-2.414154053E0,-9.349044800E0,3.175659180E-1
8.427016899E0,-2.385421753E0,-9.387344360E0,2.744750977E-1
8.432082817E0,-2.375854492E0,-9.353836060E0,2.696838379E-1
8.437179252E0,-2.399795532E0,-9.363403320E0,2.313842773E-1
8.442245170E0,-2.438095093E0,-9.363403320E0,2.457427979E-1
8.447341606E0,-2.452468872E0,-9.349044800E0,2.170104980E-1
8.452407524E0,-2.500350952E0,-9.363403320E0,2.218017578E-1
8.457503959E0,-2.481201172E0,-9.387344360E0,2.361602783E-1
8.462569877E0,-2.471618652E0,-9.392135620E0,2.553253174E-1
8.467666313E0,-2.452468872E0,-9.401718140E0,2.936248779E-1
8.472732231E0,-2.447677612E0,-9.454391479E0,3.462982178E-1
8.477828666E0,-2.433303833E0,-9.430450439E0,3.702392578E-1
8.482894584E0,-2.418945312E0,-9.435226440E0,3.893890381E-1
8.487960502E0,-2.442886353E0,-9.416076660E0,3.750305176E-1
8.493056938E0,-2.442886353E0,-9.411285400E0,3.271484375E-1
8.498122856E0,-2.471618652E0,-9.382553101E0,2.696838379E-1
8.503219291E0,-2.500350952E0,-9.387344360E0,2.361602783E-1
8.508285209E0,-2.495559692E0,-9.349044800E0,2.218017578E-1
8.513381645E0,-2.529083252E0,-9.353836060E0,2.074432373E-1
8.518447563E0,-2.519500732E0,-9.334671021E0,2.696838379E-1
8.523543998E0,-2.485977173E0,-9.315521240E0,2.792663574E-1
8.528609916E0,-2.433303833E0,-9.363403320E0,2.936248779E-1
8.533706352E0,-2.438095093E0,-9.382553101E0,3.702392578E-1
8.538772270E0,-2.414154053E0,-9.401718140E0,4.181213379E-1
8.543838188E0,-2.385421753E0,-9.444808960E0,4.037628174E-1
8.548934623E0,-2.390213013E0,-9.401718140E0,3.798217773E-1
8.554000541E0,-2.380645752E0,-9.440017700E0,3.415069580E-1
8.559096977E0,-2.409362793E0,-9.396926880E0,3.175659180E-1
8.564162895E0,-2.423736572E0,-9.363403320E0,3.367156982E-1
8.569259330E0,-2.462036133E0,-9.377777100E0,3.558807373E-1
8.574325248E0,-2.485977173E0,-9.401718140E0,3.271484375E-1
8.579421684E0,-2.490768433E0,-9.382553101E0,3.510894775E-1
8.584487602E0,-2.442886353E0,-9.372985840E0,3.367156982E-1
8.589553520E0,-2.433303833E0,-9.387344360E0,3.510894775E-1
8.594649955E0,-2.452468872E0,-9.382553101E0,3.127746582E-1
8.599715873E0,-2.490768433E0,-9.377777100E0,2.744750977E-1
8.604812309E0,-2.476409912E0,-9.387344360E0,2.601013184E-1
8.609878227E0,-2.462036133E0,-9.406494141E0,2.601013184E-1
8.614974662E0,-2.462036133E0,-9.387344360E0,2.744750977E-1
8.620040580E0,-2.418945312E0,-9.392135620E0,2.984161377E-1
8.625137016E0,-2.414154053E0,-9.406494141E0,2.648925781E-1
8.630202934E0,-2.409362793E0,-9.411285400E0,2.888336182E-1
8.635268852E0,-2.438095093E0,-9.377777100E0,2.744750977E-1
8.640365287E0,-2.495559692E0,-9.387344360E0,2.553253174E-1
8.645431205E0,-2.538650513E0,-9.382553101E0,2.888336182E-1
8.650527641E0,-2.586532593E0,-9.372985840E0,2.984161377E-1
8.655593559E0,-2.600906372E0,-9.349044800E0,3.032073975E-1
8.660689994E0,-2.562591553E0,-9.368194580E0,3.223571777E-1
8.665755912E0,-2.557815552E0,-9.334671021E0,3.558807373E-1
8.670852348E0,-2.524291992E0,-9.325103760E0,3.702392578E-1
8.675918266E0,-2.505142212E0,-9.344253540E0,3.271484375E-1
8.681014701E0,-2.447677612E0,-9.387344360E0,2.936248779E-1
8.686080619E0,-2.414154053E0,-9.353836060E0,2.409515381E-1
8.691146537E0,-2.414154053E0,-9.358612061E0,1.595458984E-1
8.696242973E0,-2.438095093E0,-9.387344360E0,1.978607178E-1
8.701308891E0,-2.428527832E0,-9.416076660E0,2.505340576E-1
8.706405326E0,-2.442886353E0,-9.425659180E0,2.313842773E-1
8.711471244E0,-2.452468872E0,-9.392135620E0,2.744750977E-1
8.716567680E0,-2.418945312E0,-9.406494141E0,2.888336182E-1
8.721633598E0,-2.452468872E0,-9.420867920E0,3.127746582E-1
8.726730033E0,-2.466827393E0,-9.396926880E0,3.271484375E-1
8.731795951E0,-2.485977173E0,-9.372985840E0,3.271484375E-1
8.736892387E0,-2.490768433E0,-9.377777100E0,3.079986572E-1
8.741958305E0,-2.509918213E0,-9.363403320E0,3.175659180E-1
8.747024223E0,-2.500350952E0,-9.353836060E0,3.127746582E-1
8.752120658E0,-2.457260132E0,-9.349044800E0,2.936248779E-1
8.757186576E0,-2.471618652E0,-9.353836060E0,2.553253174E-1
8.762283012E0,-2.500350952E0,-9.353836060E0,2.170104980E-1
8.767348930E0,-2.505142212E0,-9.349044800E0,2.601013184E-1
8.772445365E0,-2.485977173E0,-9.353836060E0,3.079986572E-1
8.777511283E0,-2.490768433E0,-9.368194580E0,3.223571777E-1
8.782607719E0,-2.481201172E0,-9.339462280E0,3.750305176E-1
8.787673637E0,-2.505142212E0,-9.334671021E0,3.558807373E-1
8.792739555E0,-2.495559692E0,-9.372985840E0,3.654479980E-1
8.797835990E0,-2.529083252E0,-9.377777100E0,3.319396973E-1
8.802901908E0,-2.471618652E0,-9.382553101E0,3.175659180E-1
8.807998344E0,-2.452468872E0,-9.401718140E0,3.558807373E-1
8.813064262E0,-2.447677612E0,-9.396926880E0,3.798217773E-1
8.818160697E0,-2.428527832E0,-9.401718140E0,3.223571777E-1
8.823226615E0,-2.414154053E0,-9.435226440E0,3.175659180E-1
8.828323051E0,-2.409362793E0,-9.416076660E0,3.415069580E-1
8.833388969E0,-2.452468872E0,-9.392135620E0,2.840576172E-1
8.838454887E0,-2.447677612E0,-9.353836060E0,3.223571777E-1
8.843551322E0,-2.438095093E0,-9.349044800E0,3.462982178E-1
8.848617240E0,-2.447677612E0,-9.339462280E0,3.558807373E-1
8.853713676E0,-2.423736572E0,-9.349044800E0,3.367156982E-1
8.858779594E0,-2.457260132E0,-9.363403320E0,3.079986572E-1
8.863876029E0,-2.418945312E0,-9.325103760E0,2.888336182E-1
8.868941947E0,-2.476409912E0,-9.368194580E0,2.792663574E-1
8.874038383E0,-2.481201172E0,-9.387344360E0,2.601013184E-1
8.879104301E0,-2.490768433E0,-9.372985840E0,3.032073975E-1
8.884200736E0,-2.495559692E0,-9.334671021E0,2.840576172E-1
8.889266654E0,-2.514709473E0,-9.368194580E0,2.792663574E-1
8.894332572E0,-2.538650513E0,-9.382553101E0,2.936248779E-1
8.899429008E0,-2.514709473E0,-9.387344360E0,2.601013184E-1
8.904464408E0,-2.524291992E0,-9.420867920E0,2.361602783E-1
8.909530326E0,-2.519500732E0,-9.420867920E0,2.026519775E-1
8.914626762E0,-2.519500732E0,-9.382553101E0,2.696838379E-1
8.919692680E0,-2.509918213E0,-9.363403320E0,3.415069580E-1
8.924789115E0,-2.485977173E0,-9.363403320E0,3.319396973E-1
8.929885551E0,-2.519500732E0,-9.368194580E0,3.462982178E-1
8.934981986E0,-2.548233032E0,-9.344253540E0,3.702392578E-1
8.940078422E0,-2.538650513E0,-9.349044800E0,3.702392578E-1
8.945144340E0,-2.567382812E0,-9.353836060E0,4.277038574E-1
8.950210258E0,-2.514709473E0,-9.363403320E0,4.372863770E-1
8.955306694E0,-2.524291992E0,-9.377777100E0,4.420623779E-1
8.960372611E0,-2.524291992E0,-9.377777100E0,3.558807373E-1
8.965469047E0,-2.505142212E0,-9.372985840E0,3.079986572E-1
8.970534965E0,-2.538650513E0,-9.416076660E0,3.319396973E-1
8.975600883E0,-2.509918213E0,-9.396926880E0,3.606719971E-1
8.980666801E0,-2.471618652E0,-9.353836060E0,3.223571777E-1
8.985763236E0,-2.457260132E0,-9.344253540E0,3.223571777E-1
8.990859672E0,-2.414154053E0,-9.372985840E0,3.893890381E-1
8.995925590E0,-2.409362793E0,-9.377777100E0,3.606719971E-1
9.001022026E0,-2.375854492E0,-9.420867920E0,2.601013184E-1
9.006087944E0,-2.347122192E0,-9.444808960E0,3.223571777E-1
9.011184379E0,-2.337539673E0,-9.416076660E0,2.792663574E-1
9.016250297E0,-2.347122192E0,-9.411285400E0,2.744750977E-1
9.021346733E0,-2.356689453E0,-9.377777100E0,3.319396973E-1
9.026412651E0,-2.366271973E0,-9.368194580E0,3.032073975E-1
9.031509086E0,-2.447677612E0,-9.353836060E0,3.175659180E-1
9.036575004E0,-2.471618652E0,-9.387344360E0,3.654479980E-1
9.041640922E0,-2.485977173E0,-9.401718140E0,3.367156982E-1
9.046737358E0,-2.433303833E0,-9.411285400E0,3.654479980E-1
9.051803276E0,-2.414154053E0,-9.396926880E0,3.750305176E-1
9.056899711E0,-2.447677612E0,-9.382553101E0,3.941802979E-1
9.061965629E0,-2.457260132E0,-9.401718140E0,3.319396973E-1
9.067062065E0,-2.433303833E0,-9.406494141E0,3.175659180E-1
9.072127983E0,-2.428527832E0,-9.382553101E0,2.888336182E-1
9.077224418E0,-2.500350952E0,-9.363403320E0,2.888336182E-1
9.082290336E0,-2.529083252E0,-9.372985840E0,2.840576172E-1
9.087386772E0,-2.538650513E0,-9.339462280E0,2.601013184E-1
9.092452690E0,-2.562591553E0,-9.339462280E0,2.792663574E-1
9.097518608E0,-2.553024292E0,-9.353836060E0,3.271484375E-1
9.102615043E0,-2.553024292E0,-9.363403320E0,3.510894775E-1
9.107680961E0,-2.509918213E0,-9.401718140E0,3.941802979E-1
9.112777397E0,-2.457260132E0,-9.425659180E0,4.181213379E-1
9.117843315E0,-2.466827393E0,-9.406494141E0,4.324951172E-1
9.122939750E0,-2.495559692E0,-9.420867920E0,4.229125977E-1
9.128005668E0,-2.505142212E0,-9.425659180E0,4.085540771E-1
9.133102104E0,-2.495559692E0,-9.392135620E0,3.654479980E-1
9.138168022E0,-2.500350952E0,-9.349044800E0,3.319396973E-1
9.143264457E0,-2.533874512E0,-9.387344360E0,3.127746582E-1
9.148330375E0,-2.495559692E0,-9.368194580E0,3.462982178E-1
9.153396293E0,-2.500350952E0,-9.358612061E0,3.415069580E-1
9.158492729E0,-2.519500732E0,-9.320312500E0,3.415069580E-1
9.163558647E0,-2.490768433E0,-9.339462280E0,3.271484375E-1
9.168655082E0,-2.476409912E0,-9.344253540E0,3.558807373E-1
9.173721000E0,-2.423736572E0,-9.353836060E0,3.319396973E-1
9.178817436E0,-2.433303833E0,-9.344253540E0,3.223571777E-1
9.183883354E0,-2.476409912E0,-9.349044800E0,2.648925781E-1
9.188979789E0,-2.509918213E0,-9.377777100E0,2.648925781E-1
9.194045707E0,-2.509918213E0,-9.401718140E0,2.840576172E-1
9.199142143E0,-2.538650513E0,-9.377777100E0,2.888336182E-1
9.204208061E0,-2.500350952E0,-9.382553101E0,3.558807373E-1
9.209273979E0,-2.428527832E0,-9.353836060E0,3.558807373E-1
9.214370414E0,-2.409362793E0,-9.329879761E0,3.558807373E-1
9.219436332E0,-2.404586792E0,-9.310729980E0,3.846130371E-1
9.224532768E0,-2.414154053E0,-9.372985840E0,3.558807373E-1
9.229598686E0,-2.395004272E0,-9.406494141E0,3.367156982E-1
9.234695121E0,-2.452468872E0,-9.401718140E0,3.606719971E-1
9.239761039E0,-2.481201172E0,-9.396926880E0,4.181213379E-1
9.244857475E0,-2.462036133E0,-9.368194580E0,4.372863770E-1
9.249923393E0,-2.457260132E0,-9.382553101E0,4.133300781E-1
9.254989311E0,-2.442886353E0,-9.406494141E0,4.277038574E-1
9.260085746E0,-2.452468872E0,-9.387344360E0,4.468536377E-1
9.265151664E0,-2.452468872E0,-9.401718140E0,4.372863770E-1
9.270248100E0,-2.457260132E0,-9.387344360E0,4.324951172E-1
9.275314018E0,-2.452468872E0,-9.372985840E0,4.037628174E-1
9.280410453E0,-2.409362793E0,-9.363403320E0,4.085540771E-1
9.285476371E0,-2.447677612E0,-9.377777100E0,4.277038574E-1
9.290572807E0,-2.466827393E0,-9.358612061E0,4.229125977E-1
9.295638725E0,-2.442886353E0,-9.349044800E0,3.989715576E-1
9.300704643E0,-2.433303833E0,-9.358612061E0,3.846130371E-1
9.305801078E0,-2.452468872E0,-9.396926880E0,4.324951172E-1
9.310866996E0,-2.433303833E0,-9.368194580E0,4.229125977E-1
9.315963432E0,-2.418945312E0,-9.363403320E0,3.702392578E-1
9.321029350E0,-2.433303833E0,-9.396926880E0,4.133300781E-1
9.326125785E0,-2.457260132E0,-9.392135620E0,4.133300781E-1
9.331191703E0,-2.457260132E0,-9.406494141E0,4.133300781E-1
9.336288139E0,-2.395004272E0,-9.396926880E0,4.229125977E-1
9.341354057E0,-2.423736572E0,-9.353836060E0,4.372863770E-1
9.346450492E0,-2.481201172E0,-9.368194580E0,4.229125977E-1
9.351516410E0,-2.471618652E0,-9.353836060E0,4.133300781E-1
9.356582328E0,-2.471618652E0,-9.382553101E0,4.612274170E-1
9.361678764E0,-2.495559692E0,-9.416076660E0,4.707946777E-1
9.366744682E0,-2.466827393E0,-9.392135620E0,4.612274170E-1
9.371841117E0,-2.543441772E0,-9.396926880E0,4.947357178E-1
9.376907035E0,-2.519500732E0,-9.406494141E0,5.186767578E-1
9.382003471E0,-2.538650513E0,-9.387344360E0,4.612274170E-1
9.387069389E0,-2.505142212E0,-9.325103760E0,4.181213379E-1
9.392165824E0,-2.529083252E0,-9.296371460E0,4.085540771E-1
9.397231742E0,-2.567382812E0,-9.325103760E0,4.133300781E-1
9.402297660E0,-2.562591553E0,-9.277221680E0,3.893890381E-1
9.407394096E0,-2.567382812E0,-9.248489380E0,3.654479980E-1
9.412460014E0,-2.495559692E0,-9.291580200E0,3.941802979E-1
9.417556449E0,-2.428527832E0,-9.334671021E0,4.085540771E-1
9.422622367E0,-2.409362793E0,-9.353836060E0,4.277038574E-1
9.427718803E0,-2.418945312E0,-9.372985840E0,4.037628174E-1
9.432784721E0,-2.452468872E0,-9.396926880E0,4.229125977E-1
9.437881156E0,-2.452468872E0,-9.411285400E0,4.085540771E-1
9.442947074E0,-2.485977173E0,-9.401718140E0,3.606719971E-1
9.448043510E0,-2.471618652E0,-9.406494141E0,3.606719971E-1
9.453109428E0,-2.490768433E0,-9.382553101E0,3.846130371E-1
9.458175346E0,-2.495559692E0,-9.377777100E0,3.750305176E-1
9.463271781E0,-2.524291992E0,-9.368194580E0,3.606719971E-1
9.468337699E0,-2.557815552E0,-9.396926880E0,3.558807373E-1
9.473434135E0,-2.591323853E0,-9.382553101E0,3.702392578E-1
9.478500053E0,-2.596115112E0,-9.392135620E0,4.277038574E-1
9.483596488E0,-2.605697632E0,-9.358612061E0,4.037628174E-1
9.488631889E0,-2.624847412E0,-9.325103760E0,4.468536377E-1
9.493728324E0,-2.643997192E0,-9.339462280E0,4.564361572E-1
9.498824760E0,-2.653579712E0,-9.325103760E0,4.372863770E-1
9.503921195E0,-2.634429932E0,-9.315521240E0,4.803771973E-1
9.508987113E0,-2.576965332E0,-9.305938721E0,5.186767578E-1
9.514053031E0,-2.557815552E0,-9.305938721E0,4.372863770E-1
9.519149467E0,-2.495559692E0,-9.339462280E0,3.606719971E-1
9.524215385E0,-2.500350952E0,-9.382553101E0,3.606719971E-1
9.529311820E0,-2.481201172E0,-9.396926880E0,3.606719971E-1
9.534377738E0,-2.476409912E0,-9.401718140E0,3.798217773E-1
9.539474174E0,-2.404586792E0,-9.382553101E0,3.846130371E-1
9.544540092E0,-2.395004272E0,-9.363403320E0,3.271484375E-1
9.549636527E0,-2.390213013E0,-9.382553101E0,3.415069580E-1
9.554702445E0,-2.361480713E0,-9.416076660E0,3.941802979E-1
9.559768363E0,-2.356689453E0,-9.440017700E0,4.085540771E-1
9.564864799E0,-2.327972412E0,-9.411285400E0,4.468536377E-1
9.569930717E0,-2.308807373E0,-9.392135620E0,4.612274170E-1
9.575027152E0,-2.361480713E0,-9.377777100E0,3.558807373E-1
9.580093070E0,-2.356689453E0,-9.377777100E0,3.271484375E-1
9.585189506E0,-2.414154053E0,-9.363403320E0,3.941802979E-1
9.590255424E0,-2.462036133E0,-9.372985840E0,3.702392578E-1
9.595351860E0,-2.471618652E0,-9.363403320E0,3.367156982E-1
9.600417777E0,-2.476409912E0,-9.377777100E0,3.750305176E-1
9.605514213E0,-2.490768433E0,-9.325103760E0,3.893890381E-1
9.610580131E0,-2.500350952E0,-9.315521240E0,3.654479980E-1
9.615646049E0,-2.505142212E0,-9.358612061E0,3.462982178E-1
9.620742485E0,-2.500350952E0,-9.344253540E0,3.846130371E-1
9.625808402E0,-2.481201172E0,-9.382553101E0,3.510894775E-1
9.630904838E0,-2.514709473E0,-9.363403320E0,3.798217773E-1
9.635970756E0,-2.533874512E0,-9.358612061E0,4.277038574E-1
9.641067192E0,-2.538650513E0,-9.382553101E0,4.707946777E-1
9.646133110E0,-2.519500732E0,-9.368194580E0,4.372863770E-1
9.651229545E0,-2.538650513E0,-9.363403320E0,4.133300781E-1
9.656295463E0,-2.524291992E0,-9.387344360E0,3.893890381E-1
9.661361381E0,-2.529083252E0,-9.401718140E0,3.462982178E-1
9.666457817E0,-2.538650513E0,-9.353836060E0,3.510894775E-1
9.671523735E0,-2.529083252E0,-9.344253540E0,3.175659180E-1
9.676620170E0,-2.562591553E0,-9.344253540E0,3.175659180E-1
9.681686088E0,-2.572174072E0,-9.368194580E0,3.462982178E-1
9.686782524E0,-2.514709473E0,-9.344253540E0,3.558807373E-1
9.691848442E0,-2.505142212E0,-9.334671021E0,4.277038574E-1
9.696944877E0,-2.476409912E0,-9.344253540E0,3.319396973E-1
9.702010795E0,-2.466827393E0,-9.339462280E0,2.601013184E-1
9.707107231E0,-2.519500732E0,-9.325103760E0,2.696838379E-1
9.712173149E0,-2.567382812E0,-9.320312500E0,2.505340576E-1
9.717239067E0,-2.615264893E0,-9.358612061E0,2.218017578E-1
9.722335502E0,-2.624847412E0,-9.363403320E0,2.888336182E-1
9.727401420E0,-2.567382812E0,-9.358612061E0,3.654479980E-1
9.732497856E0,-2.514709473E0,-9.368194580E0,3.989715576E-1
9.737563774E0,-2.505142212E0,-9.353836060E0,3.989715576E-1
9.742660209E0,-2.495559692E0,-9.401718140E0,3.702392578E-1
9.747726127E0,-2.490768433E0,-9.368194580E0,3.415069580E-1
9.752822563E0,-2.538650513E0,-9.396926880E0,3.558807373E-1
9.757888481E0,-2.591323853E0,-9.396926880E0,3.750305176E-1
9.762954399E0,-2.624847412E0,-9.377777100E0,3.750305176E-1
9.768050834E0,-2.586532593E0,-9.358612061E0,3.702392578E-1
9.773116752E0,-2.562591553E0,-9.358612061E0,3.893890381E-1
9.778213188E0,-2.524291992E0,-9.334671021E0,3.606719971E-1
9.783279106E0,-2.533874512E0,-9.353836060E0,3.846130371E-1
9.788375541E0,-2.514709473E0,-9.339462280E0,4.085540771E-1
9.793441459E0,-2.500350952E0,-9.334671021E0,4.133300781E-1
9.798537895E0,-2.481201172E0,-9.411285400E0,4.229125977E-1
9.803603813E0,-2.447677612E0,-9.411285400E0,3.893890381E-1
9.808700248E0,-2.395004272E0,-9.382553101E0,4.085540771E-1
9.813766166E0,-2.395004272E0,-9.392135620E0,4.372863770E-1
9.818832084E0,-2.423736572E0,-9.416076660E0,4.229125977E-1
9.823928520E0,-2.462036133E0,-9.411285400E0,4.133300781E-1
9.828994438E0,-2.481201172E0,-9.372985840E0,4.564361572E-1
9.834090873E0,-2.524291992E0,-9.363403320E0,4.133300781E-1
9.839156791E0,-2.500350952E0,-9.363403320E0,4.085540771E-1
9.844253227E0,-2.481201172E0,-9.334671021E0,4.037628174E-1
9.849319145E0,-2.476409912E0,-9.368194580E0,4.181213379E-1
9.854415580E0,-2.438095093E0,-9.358612061E0,4.468536377E-1
9.859481498E0,-2.390213013E0,-9.387344360E0,4.420623779E-1
9.864547416E0,-2.323181152E0,-9.401718140E0,3.941802979E-1
9.869643852E0,-2.323181152E0,-9.396926880E0,4.324951172E-1
9.874709770E0,-2.323181152E0,-9.368194580E0,4.085540771E-1
9.879806205E0,-2.366271973E0,-9.387344360E0,3.654479980E-1
9.884872123E0,-2.428527832E0,-9.392135620E0,3.558807373E-1
9.889968559E0,-2.452468872E0,-9.377777100E0,4.037628174E-1
9.895034477E0,-2.471618652E0,-9.368194580E0,3.941802979E-1
9.900130912E0,-2.476409912E0,-9.363403320E0,4.085540771E-1
9.905196830E0,-2.457260132E0,-9.396926880E0,4.564361572E-1
9.910293266E0,-2.466827393E0,-9.372985840E0,5.139007568E-1
9.915359184E0,-2.476409912E0,-9.382553101E0,4.707946777E-1
9.920425102E0,-2.462036133E0,-9.382553101E0,4.803771973E-1
9.925521537E0,-2.452468872E0,-9.382553101E0,4.564361572E-1
9.930587455E0,-2.442886353E0,-9.372985840E0,3.750305176E-1
9.935683891E0,-2.481201172E0,-9.349044800E0,4.229125977E-1
9.940749809E0,-2.524291992E0,-9.329879761E0,4.324951172E-1
9.945846244E0,-2.553024292E0,-9.329879761E0,3.415069580E-1
9.950912162E0,-2.490768433E0,-9.358612061E0,4.468536377E-1
9.956008598E0,-2.490768433E0,-9.372985840E0,4.803771973E-1
9.961074516E0,-2.466827393E0,-9.382553101E0,4.372863770E-1
9.966140434E0,-2.409362793E0,-9.387344360E0,4.277038574E-1
9.971236869E0,-2.428527832E0,-9.411285400E0,3.893890381E-1
9.976302787E0,-2.438095093E0,-9.406494141E0,3.223571777E-1
9.981399223E0,-2.447677612E0,-9.387344360E0,3.654479980E-1
9.986465141E0,-2.433303833E0,-9.353836060E0,3.510894775E-1
9.991531059E0,-2.452468872E0,-9.344253540E0,3.510894775E-1
9.996596977E0,-2.519500732E0,-9.320312500E0,3.750305176E-1
1.000166290E1,-2.495559692E0,-9.358612061E0,3.798217773E-1
1.000672881E1,-2.457260132E0,-9.401718140E0,4.037628174E-1
1.001185577E1,-2.457260132E0,-9.406494141E0,3.750305176E-1
1.001695220E1,-2.457260132E0,-9.396926880E0,3.893890381E-1
1.002201812E1,-2.452468872E0,-9.411285400E0,3.941802979E-1
1.002711456E1,-2.466827393E0,-9.425659180E0,3.606719971E-1
1.003218047E1,-2.500350952E0,-9.392135620E0,3.223571777E-1
1.003727691E1,-2.538650513E0,-9.382553101E0,3.223571777E-1
1.004234283E1,-2.548233032E0,-9.368194580E0,3.415069580E-1
1.004743926E1,-2.538650513E0,-9.358612061E0,3.798217773E-1
1.005250518E1,-2.533874512E0,-9.344253540E0,3.798217773E-1
1.005757110E1,-2.524291992E0,-9.349044800E0,3.750305176E-1
1.006263702E1,-2.509918213E0,-9.368194580E0,3.558807373E-1
1.006770293E1,-2.529083252E0,-9.368194580E0,3.702392578E-1
1.007279937E1,-2.524291992E0,-9.363403320E0,3.415069580E-1
1.007789580E1,-2.543441772E0,-9.334671021E0,3.654479980E-1
1.008299224E1,-2.519500732E0,-9.372985840E0,3.271484375E-1
1.008805816E1,-2.509918213E0,-9.377777100E0,3.750305176E-1
1.009315459E1,-2.548233032E0,-9.387344360E0,3.702392578E-1
1.009822051E1,-2.509918213E0,-9.382553101E0,3.415069580E-1
1.010331695E1,-2.490768433E0,-9.392135620E0,3.271484375E-1
1.010838287E1,-2.485977173E0,-9.363403320E0,3.319396973E-1
1.011347930E1,-2.447677612E0,-9.368194580E0,2.840576172E-1
1.011854522E1,-2.471618652E0,-9.387344360E0,2.792663574E-1
1.012361114E1,-2.495559692E0,-9.353836060E0,2.648925781E-1
1.012870757E1,-2.476409912E0,-9.368194580E0,3.319396973E-1
1.013377349E1,-2.457260132E0,-9.392135620E0,3.510894775E-1
1.013886993E1,-2.447677612E0,-9.387344360E0,3.702392578E-1
1.014393584E1,-2.462036133E0,-9.406494141E0,3.702392578E-1
1.014903228E1,-2.433303833E0,-9.387344360E0,3.654479980E-1
1.015409820E1,-2.385421753E0,-9.406494141E0,3.654479980E-1
1.015919463E1,-2.395004272E0,-9.416076660E0,3.510894775E-1
1.016423003E1,-2.423736572E0,-9.406494141E0,2.888336182E-1
1.016932647E1,-2.466827393E0,-9.363403320E0,3.223571777E-1
1.017442290E1,-2.476409912E0,-9.339462280E0,2.936248779E-1
1.017948882E1,-2.514709473E0,-9.301162720E0,3.654479980E-1
1.018458526E1,-2.567382812E0,-9.315521240E0,3.654479980E-1
1.018965118E1,-2.543441772E0,-9.358612061E0,3.462982178E-1
1.019474761E1,-2.490768433E0,-9.387344360E0,3.319396973E-1
1.019981353E1,-2.452468872E0,-9.353836060E0,3.223571777E-1
1.020490996E1,-2.485977173E0,-9.382553101E0,2.936248779E-1
1.020997588E1,-2.476409912E0,-9.368194580E0,3.127746582E-1
1.021507232E1,-2.433303833E0,-9.358612061E0,3.415069580E-1
1.022013824E1,-2.466827393E0,-9.392135620E0,3.846130371E-1
1.022520415E1,-2.452468872E0,-9.344253540E0,3.175659180E-1
1.023030059E1,-2.414154053E0,-9.344253540E0,2.457427979E-1
1.023536651E1,-2.399795532E0,-9.377777100E0,2.505340576E-1
1.024046294E1,-2.457260132E0,-9.363403320E0,2.744750977E-1
1.024552886E1,-2.457260132E0,-9.368194580E0,2.984161377E-1
1.025062530E1,-2.462036133E0,-9.372985840E0,3.271484375E-1
1.025569122E1,-2.476409912E0,-9.377777100E0,3.271484375E-1
1.026078765E1,-2.447677612E0,-9.401718140E0,3.319396973E-1
1.026585357E1,-2.414154053E0,-9.387344360E0,3.510894775E-1
1.027095000E1,-2.433303833E0,-9.368194580E0,3.606719971E-1
1.027601592E1,-2.471618652E0,-9.392135620E0,3.127746582E-1
1.028108184E1,-2.457260132E0,-9.329879761E0,3.079986572E-1
1.028617828E1,-2.538650513E0,-9.349044800E0,2.792663574E-1
1.029124419E1,-2.557815552E0,-9.349044800E0,3.367156982E-1
1.029634063E1,-2.572174072E0,-9.349044800E0,3.319396973E-1
1.030140655E1,-2.543441772E0,-9.344253540E0,3.032073975E-1
1.030650298E1,-2.505142212E0,-9.349044800E0,3.271484375E-1
1.031156890E1,-2.514709473E0,-9.325103760E0,4.229125977E-1
1.031666534E1,-2.481201172E0,-9.349044800E0,3.989715576E-1
1.032173125E1,-2.442886353E0,-9.387344360E0,4.612274170E-1
1.032679717E1,-2.452468872E0,-9.406494141E0,4.612274170E-1
1.033189361E1,-2.423736572E0,-9.406494141E0,3.654479980E-1
1.033695953E1,-2.476409912E0,-9.440017700E0,3.367156982E-1
1.034205596E1,-2.490768433E0,-9.449600220E0,3.223571777E-1
1.034712188E1,-2.462036133E0,-9.420867920E0,3.415069580E-1
1.035221832E1,-2.471618652E0,-9.401718140E0,3.415069580E-1
1.035728423E1,-2.490768433E0,-9.396926880E0,3.510894775E-1
1.036238067E1,-2.490768433E0,-9.401718140E0,3.798217773E-1
1.036744659E1,-2.495559692E0,-9.387344360E0,4.229125977E-1
1.037254302E1,-2.476409912E0,-9.382553101E0,3.941802979E-1
1.037760894E1,-2.476409912E0,-9.396926880E0,3.654479980E-1
1.038267486E1,-2.462036133E0,-9.382553101E0,4.133300781E-1
1.038777129E1,-2.481201172E0,-9.368194580E0,3.846130371E-1
1.039283721E1,-2.505142212E0,-9.372985840E0,3.846130371E-1
1.039793365E1,-2.524291992E0,-9.353836060E0,3.989715576E-1
1.040299956E1,-2.543441772E0,-9.334671021E0,3.654479980E-1
1.040809600E1,-2.562591553E0,-9.305938721E0,3.367156982E-1
1.041316192E1,-2.505142212E0,-9.344253540E0,3.606719971E-1
1.041825835E1,-2.514709473E0,-9.344253540E0,3.462982178E-1
1.042332427E1,-2.442886353E0,-9.349044800E0,3.893890381E-1
1.042842071E1,-2.404586792E0,-9.372985840E0,3.989715576E-1
1.043348662E1,-2.385421753E0,-9.377777100E0,3.846130371E-1
1.043855254E1,-2.380645752E0,-9.349044800E0,3.750305176E-1
1.044364898E1,-2.399795532E0,-9.329879761E0,2.744750977E-1
