"Time (s)","Gyroscope x (rad/s)","Gyroscope y (rad/s)","Gyroscope z (rad/s)"
7.159458300E-2,-1.760722101E-1,-3.048037738E-2,2.332575172E-1
7.358401000E-2,-1.739416867E-1,-3.474143147E-2,2.375185639E-1
7.557343700E-2,-1.718111634E-1,-4.006774724E-2,2.353880405E-1
7.756286400E-2,-1.686153710E-1,-4.539406672E-2,2.332575172E-1
7.955229100E-2,-1.686153710E-1,-4.858985543E-2,2.311269790E-1
8.154171800E-2,-1.675501019E-1,-5.178564787E-2,2.268659323E-1
8.353114600E-2,-1.611585170E-1,-5.711196363E-2,2.236701399E-1
8.552057300E-2,-1.590279937E-1,-5.711196363E-2,2.215396166E-1
8.751000000E-2,-1.568974704E-1,-5.604670197E-2,2.151480317E-1
8.949942700E-2,-1.537016779E-1,-5.711196363E-2,2.087564468E-1
9.148885400E-2,-1.483753622E-1,-5.604670197E-2,2.066259235E-1
9.347828100E-2,-1.451795697E-1,-5.285090953E-2,2.012996078E-1
9.546770800E-2,-1.409185082E-1,-4.965512082E-2,1.959732920E-1
9.745713500E-2,-1.366574615E-1,-4.539406672E-2,1.906469762E-1
9.944656200E-2,-1.313311458E-1,-4.006774724E-2,1.863859147E-1
1.014359890E-1,-1.270700842E-1,-3.474143147E-2,1.821248680E-1
1.034254160E-1,-1.174827069E-1,-2.728458494E-2,1.778638065E-1
1.054148430E-1,-1.153521761E-1,-2.195826918E-2,1.714722365E-1
1.074042710E-1,-1.089605987E-1,-1.556668710E-2,1.650806516E-1
1.093936980E-1,-1.025690138E-1,-1.024036948E-2,1.586890668E-1
1.113831250E-1,-9.617742896E-2,-4.914051853E-3,1.501669586E-1
1.133725520E-1,-9.085111320E-2,-6.529977545E-4,1.427101195E-1
1.153619790E-1,-8.552479744E-2,3.608056344E-3,1.352532655E-1
1.173514060E-1,-8.019848168E-2,7.869110443E-3,1.277964264E-1
1.193408330E-1,-7.700268924E-2,1.106490102E-2,1.182090566E-1
1.213302600E-1,-7.487216592E-2,1.532595605E-2,1.107522175E-1
1.233196870E-1,-6.741531938E-2,1.745648310E-2,1.022301093E-1
1.253091140E-1,-6.421952695E-2,1.745648310E-2,9.477326274E-2
1.272985410E-1,-5.995847657E-2,1.852174476E-2,8.944694698E-2
1.292879680E-1,-5.782795325E-2,1.852174476E-2,8.092483878E-2
1.312773960E-1,-5.782795325E-2,1.852174476E-2,7.666378468E-2
1.332668230E-1,-5.143636838E-2,1.852174476E-2,6.920693815E-2
1.352562500E-1,-4.611005262E-2,2.065227181E-2,6.175009161E-2
1.372456770E-1,-4.291426018E-2,1.745648310E-2,5.642377585E-2
1.392351040E-1,-3.865320608E-2,1.532595605E-2,5.109745637E-2
1.412245310E-1,-3.652268276E-2,1.213016361E-2,4.896692559E-2
1.432139580E-1,-3.545741737E-2,7.869110443E-3,4.896692559E-2
1.452033850E-1,-3.226162866E-2,4.673319869E-3,4.577113688E-2
1.471928120E-1,-3.545741737E-2,4.122657701E-4,4.683640227E-2
1.491822390E-1,-3.332689032E-2,-6.529977545E-4,4.577113688E-2
1.511716660E-1,-3.332689032E-2,-1.718261279E-3,4.577113688E-2
1.531610930E-1,-3.439215198E-2,-7.044578902E-3,4.364060983E-2
1.551505210E-1,-3.545741737E-2,-1.024036948E-2,4.364060983E-2
1.571399480E-1,-3.652268276E-2,-1.024036948E-2,4.577113688E-2
1.591293750E-1,-3.865320608E-2,-1.343616005E-2,4.364060983E-2
1.611188020E-1,-4.184899852E-2,-1.663194969E-2,4.257534817E-2
1.631082290E-1,-4.504479095E-2,-2.089300379E-2,4.257534817E-2
1.650976560E-1,-4.717531428E-2,-2.302353084E-2,4.151008278E-2
1.670870830E-1,-4.930584505E-2,-2.728458494E-2,3.724902868E-2
1.690765100E-1,-5.250163004E-2,-3.154563904E-2,3.724902868E-2
1.710659370E-1,-5.676268414E-2,-3.367616981E-2,3.511850163E-2
1.730553640E-1,-5.676268414E-2,-3.793722391E-2,3.192270920E-2
1.750447910E-1,-6.315426528E-2,-4.219827801E-2,2.766165510E-2
1.770342180E-1,-6.102373824E-2,-4.539406672E-2,2.233533934E-2
1.790236460E-1,-6.315426528E-2,-4.752459377E-2,1.913955063E-2
1.810130730E-1,-6.315426528E-2,-5.072038621E-2,1.487849560E-2
1.830025000E-1,-6.635005772E-2,-5.285090953E-2,1.168270316E-2
1.849919270E-1,-6.421952695E-2,-5.178564787E-2,7.421649061E-3
1.869813540E-1,-6.315426528E-2,-5.285090953E-2,4.225859419E-3
1.889707810E-1,-6.208900735E-2,-5.072038621E-2,-2.165721729E-3
1.909602080E-1,-5.782795325E-2,-4.858985543E-2,-4.296248779E-3
1.929496350E-1,-5.782795325E-2,-4.539406672E-2,-7.492039353E-3
1.949390620E-1,-5.569742247E-2,-4.006774724E-2,-1.175309345E-2
1.969284890E-1,-5.250163004E-2,-4.006774724E-2,-1.494888403E-2
1.989179160E-1,-4.930584505E-2,-3.793722391E-2,-1.601414755E-2
2.009073430E-1,-4.717531428E-2,-3.687195852E-2,-1.814467460E-2
2.028967710E-1,-4.611005262E-2,-3.793722391E-2,-2.027520165E-2
2.048861980E-1,-4.611005262E-2,-4.006774724E-2,-2.134046517E-2
2.068756250E-1,-4.078373685E-2,-4.006774724E-2,-2.560151741E-2
2.088650520E-1,-4.078373685E-2,-4.326353967E-2,-2.879730985E-2
2.108544790E-1,-3.758794442E-2,-4.752459377E-2,-2.879730985E-2
2.128439060E-1,-3.758794442E-2,-4.965512082E-2,-3.305836394E-2
2.148333330E-1,-3.758794442E-2,-5.072038621E-2,-3.412362561E-2
2.168227600E-1,-3.652268276E-2,-5.498144031E-2,-3.625415266E-2
2.188121870E-1,-3.545741737E-2,-5.604670197E-2,-3.944994509E-2
2.208016140E-1,-3.545741737E-2,-5.391617492E-2,-4.158047214E-2
2.227910410E-1,-3.439215198E-2,-5.498144031E-2,-4.584152624E-2
2.247804680E-1,-3.652268276E-2,-5.178564787E-2,-4.797205329E-2
2.267698960E-1,-3.758794442E-2,-4.858985543E-2,-4.903731868E-2
2.287593230E-1,-3.865320608E-2,-4.539406672E-2,-5.329837278E-2
2.307487500E-1,-4.078373685E-2,-4.219827801E-2,-5.649416149E-2
2.327381770E-1,-4.078373685E-2,-4.219827801E-2,-5.862468854E-2
2.347276040E-1,-4.184899852E-2,-3.687195852E-2,-6.075521559E-2
2.367170310E-1,-4.184899852E-2,-3.367616981E-2,-6.608153880E-2
2.387064580E-1,-4.291426018E-2,-3.261090443E-2,-6.821206212E-2
2.406958850E-1,-4.184899852E-2,-2.621932328E-2,-7.140784711E-2
2.426853120E-1,-4.291426018E-2,-2.515405789E-2,-7.566890121E-2
2.446747390E-1,-4.611005262E-2,-1.982774213E-2,-7.779943198E-2
2.466641660E-1,-4.611005262E-2,-1.982774213E-2,-8.099521697E-2
2.486535930E-1,-4.397952557E-2,-1.343616005E-2,-8.206047863E-2
2.506430210E-1,-4.504479095E-2,-1.130563300E-2,-8.632154018E-2
2.526324480E-1,-4.184899852E-2,-8.109842427E-3,-8.738680184E-2
2.546218750E-1,-4.291426018E-2,-4.914051853E-3,-9.058258682E-2
2.566113020E-1,-3.971847147E-2,-1.718261279E-3,-9.377837926E-2
2.586007290E-1,-3.652268276E-2,1.477529295E-3,-9.271311760E-2
2.605901560E-1,-3.545741737E-2,2.542792819E-3,-9.697417170E-2
2.625795830E-1,-3.439215198E-2,4.673319869E-3,-9.590891004E-2
2.645690100E-1,-2.693530731E-2,4.673319869E-3,-9.910469502E-2
2.665584370E-1,-2.800057083E-2,4.673319869E-3,-9.697417170E-2
2.685478640E-1,-2.160898969E-2,6.803846918E-3,-9.697417170E-2
2.705372910E-1,-2.160898969E-2,5.738583393E-3,-9.590891004E-2
2.725267180E-1,-1.841319911E-2,4.673319869E-3,-9.590891004E-2
2.745161460E-1,-1.734793559E-2,2.542792819E-3,-9.058258682E-2
2.765055730E-1,-1.308688149E-2,2.542792819E-3,-8.845206350E-2
2.784950000E-1,-1.308688149E-2,1.477529295E-3,-8.419100940E-2
2.804844270E-1,-6.695300806E-3,-3.848788328E-3,-7.673416287E-2
2.824738540E-1,-4.564773757E-3,-1.130563300E-2,-7.247310877E-2
2.844633330E-1,-3.037196002E-4,-1.450142357E-2,-6.501626968E-2
2.864528120E-1,3.957334440E-3,-1.876247674E-2,-5.649416149E-2
2.884422910E-1,6.087861490E-3,-2.408879623E-2,-4.797205329E-2
2.904317710E-1,1.034891605E-2,-2.728458494E-2,-4.051520675E-2
2.924212500E-1,1.567523554E-2,-3.154563904E-2,-3.199309856E-2
2.944107290E-1,1.887102425E-2,-3.793722391E-2,-2.347099222E-2
2.964002080E-1,2.206681296E-2,-4.432880133E-2,-1.707941107E-2
2.983896870E-1,2.739313245E-2,-5.285090953E-2,-9.622566402E-3
3.003791660E-1,2.632786706E-2,-6.030775607E-2,-2.165721729E-3
3.023686460E-1,2.952365950E-2,-6.563407183E-2,3.160595894E-3
3.043581250E-1,2.952365950E-2,-7.202565670E-2,8.486914448E-3
3.063476040E-1,2.739313245E-2,-7.735197246E-2,1.381323021E-2
3.083370830E-1,2.845839784E-2,-8.161302656E-2,1.594375819E-2
3.103265620E-1,2.526260540E-2,-8.693934232E-2,2.020481229E-2
3.123160410E-1,2.206681296E-2,-9.013513476E-2,2.233533934E-2
3.143055210E-1,1.780575886E-2,-9.120039642E-2,2.446586639E-2
3.162950000E-1,1.141417958E-2,-9.439618886E-2,2.766165510E-2
3.182844790E-1,8.218389004E-3,-9.546145052E-2,2.659639344E-2
3.202739580E-1,5.022597965E-3,-9.865724295E-2,2.659639344E-2
3.222634370E-1,7.615439245E-4,-1.007877737E-1,2.659639344E-2
3.242529160E-1,7.615439245E-4,-1.061140895E-1,2.659639344E-2
3.262423960E-1,-4.564773757E-3,-1.114404052E-1,2.766165510E-2
3.282318750E-1,-4.564773757E-3,-1.167667210E-1,2.979218587E-2
3.302213540E-1,-3.499510232E-3,-1.210277751E-1,3.192270920E-2
3.322108330E-1,-5.630037282E-3,-1.231583059E-1,3.192270920E-2
3.342003120E-1,-7.760564331E-3,-1.263540983E-1,3.298797458E-2
3.361897910E-1,-6.695300806E-3,-1.284846216E-1,3.618376330E-2
3.381792710E-1,-1.202161796E-2,-1.316804141E-1,3.405323997E-2
3.401687500E-1,-1.308688149E-2,-1.306151450E-1,3.511850163E-2
3.421582290E-1,-1.841319911E-2,-1.316804141E-1,3.511850163E-2
3.441477080E-1,-2.267425321E-2,-1.306151450E-1,3.511850163E-2
3.461371870E-1,-3.013109788E-2,-1.284846216E-1,3.405323997E-2
3.481266140E-1,-3.652268276E-2,-1.316804141E-1,3.511850163E-2
3.501160410E-1,-4.291426018E-2,-1.274193525E-1,3.511850163E-2
3.521054680E-1,-4.504479095E-2,-1.252888292E-1,3.511850163E-2
3.540948960E-1,-5.250163004E-2,-1.252888292E-1,3.511850163E-2
3.560843230E-1,-6.102373824E-2,-1.242235675E-1,3.511850163E-2
3.580737500E-1,-7.167637348E-2,-1.242235675E-1,3.618376330E-2
3.600631770E-1,-7.593742758E-2,-1.220930368E-1,3.405323997E-2
3.620526040E-1,-8.339427412E-2,-1.188972518E-1,3.618376330E-2
3.640420310E-1,-9.191638231E-2,-1.178319901E-1,3.831429407E-2
3.660314580E-1,-9.724269807E-2,-1.146361977E-1,4.044481739E-2
3.680208850E-1,-1.025690138E-1,-1.103751436E-1,4.577113688E-2
3.700103120E-1,-1.100258604E-1,-1.061140895E-1,5.109745637E-2
3.719997390E-1,-1.142869145E-1,-1.050488204E-1,5.748903751E-2
3.739891660E-1,-1.228090227E-1,-1.029182971E-1,6.281536072E-2
3.759785930E-1,-1.313311458E-1,-1.007877737E-1,6.494588405E-2
3.779680210E-1,-1.387879848E-1,-1.018530354E-1,6.601114571E-2
3.799574480E-1,-1.505058855E-1,-1.050488204E-1,6.814167649E-2
3.819468750E-1,-1.590279937E-1,-1.050488204E-1,6.814167649E-2
3.839363020E-1,-1.707458943E-1,-1.071793512E-1,7.133746892E-2
3.859257290E-1,-1.803332716E-1,-1.093098819E-1,7.666378468E-2
3.879151560E-1,-1.931164265E-1,-1.082446128E-1,7.879430801E-2
3.899045830E-1,-2.016385347E-1,-1.061140895E-1,8.518589288E-2
3.918940100E-1,-2.090953737E-1,-1.018530354E-1,9.051220864E-2
3.938834370E-1,-2.154869586E-1,-9.759198129E-2,9.903431684E-2
3.958728640E-1,-2.197480202E-1,-9.226566553E-2,1.054259017E-1
3.978622910E-1,-2.293353826E-1,-8.800460398E-2,1.150132641E-1
3.998517180E-1,-2.314659208E-1,-8.054776490E-2,1.246006414E-1
4.018411460E-1,-2.346617132E-1,-7.096038759E-2,1.352532655E-1
4.038305730E-1,-2.378574908E-1,-6.456881016E-2,1.469711661E-1
4.058200000E-1,-2.399880290E-1,-5.711196363E-2,1.597543359E-1
4.078094270E-1,-2.410532832E-1,-5.072038621E-2,1.704069674E-1
4.097988540E-1,-2.399880290E-1,-4.432880133E-2,1.831901222E-1
4.117882810E-1,-2.399880290E-1,-3.687195852E-2,1.949080229E-1
4.137777080E-1,-2.378574908E-1,-2.834985033E-2,2.087564468E-1
4.157671350E-1,-2.378574908E-1,-2.089300379E-2,2.204743475E-1
4.177565620E-1,-2.335964441E-1,-1.343616005E-2,2.343227714E-1
4.197459890E-1,-2.335964441E-1,-4.914051853E-3,2.471059412E-1
4.217354160E-1,-2.304006517E-1,3.608056344E-3,2.598891258E-1
4.237248430E-1,-2.272048593E-1,1.106490102E-2,2.758680582E-1
4.257142710E-1,-2.272048593E-1,2.065227181E-2,2.897164822E-1
4.277036980E-1,-2.250743359E-1,3.023964539E-2,3.035649061E-1
4.296931250E-1,-2.208132744E-1,4.408806935E-2,3.184786141E-1
4.316825520E-1,-2.197480202E-1,5.367544293E-2,3.355228305E-1
4.336719790E-1,-2.154869586E-1,6.539334357E-2,3.483060002E-1
4.356614060E-1,-2.112259120E-1,7.604597509E-2,3.621544242E-1
4.376508330E-1,-2.090953737E-1,8.669860661E-2,3.781333566E-1
4.396402600E-1,-2.058995962E-1,9.415545315E-2,3.941123188E-1
4.416296870E-1,-2.005732805E-1,1.048080921E-1,4.090259969E-1
4.436191140E-1,-1.973774880E-1,1.090691462E-1,4.239397049E-1
4.456085410E-1,-1.973774880E-1,1.186565161E-1,4.399186373E-1
4.475979680E-1,-1.952469498E-1,1.239828318E-1,4.558975995E-1
4.495873960E-1,-1.941816956E-1,1.303744167E-1,4.697460234E-1
4.515768230E-1,-1.931164265E-1,1.346354634E-1,4.857249856E-1
4.535662500E-1,-1.963122189E-1,1.378312558E-1,4.995734096E-1
4.555556770E-1,-1.973774880E-1,1.410270482E-1,5.155523419E-1
4.575451040E-1,-1.963122189E-1,1.442228407E-1,5.315313339E-1
4.595345310E-1,-2.005732805E-1,1.463533640E-1,5.485755205E-1
4.615239580E-1,-2.027038038E-1,1.463533640E-1,5.634891987E-1
4.635133850E-1,-2.048343271E-1,1.495491564E-1,5.784029365E-1
4.655028120E-1,-2.069648504E-1,1.484839022E-1,5.954471231E-1
4.674922390E-1,-2.090953737E-1,1.495491564E-1,6.092955470E-1
4.694816660E-1,-2.122911662E-1,1.495491564E-1,6.242092252E-1
4.714710930E-1,-2.165522277E-1,1.548754722E-1,6.391229033E-1
4.734605210E-1,-2.176174968E-1,1.548754722E-1,6.529713869E-1
4.754499480E-1,-2.186827511E-1,1.644628495E-1,6.657544971E-1
4.774393750E-1,-2.240090668E-1,1.772460043E-1,6.796029210E-1
4.794288020E-1,-2.250743359E-1,1.878986508E-1,6.934513450E-1
4.814182290E-1,-2.314659208E-1,1.996165514E-1,7.041040063E-1
4.834076560E-1,-2.335964441E-1,2.155954987E-1,7.136913538E-1
4.853970830E-1,-2.357269675E-1,2.347702384E-1,7.232787609E-1
4.873865100E-1,-2.378574908E-1,2.550102472E-1,7.275397778E-1
4.893759370E-1,-2.431838065E-1,2.827070951E-1,7.318008542E-1
4.913653640E-1,-2.421185523E-1,3.157302737E-1,7.296703458E-1
4.933547910E-1,-2.442490757E-1,3.455576599E-1,7.318008542E-1
4.953442180E-1,-2.442490757E-1,3.860376477E-1,7.307356000E-1
4.973336460E-1,-2.463795990E-1,4.275829494E-1,7.307356000E-1
4.993230730E-1,-2.485101372E-1,4.669976830E-1,7.254092693E-1
5.013125000E-1,-2.453143448E-1,5.074777603E-1,7.222135067E-1
5.033019270E-1,-2.453143448E-1,5.500882864E-1,7.179524302E-1
5.052913540E-1,-2.421185523E-1,5.937640667E-1,7.115608454E-1
5.072807810E-1,-2.421185523E-1,6.406356096E-1,7.062345147E-1
5.092702080E-1,-2.346617132E-1,6.853767633E-1,7.030387521E-1
5.112596350E-1,-2.325311750E-1,7.354440689E-1,6.998429298E-1
5.132490620E-1,-2.240090668E-1,7.823157310E-1,6.987776756E-1
5.152384890E-1,-2.165522277E-1,8.291872740E-1,6.987776756E-1
5.172279160E-1,-2.016385347E-1,8.781894445E-1,7.019734979E-1
5.192173430E-1,-1.877901107E-1,9.271914959E-1,7.019734979E-1
5.212067710E-1,-1.707458943E-1,9.804546833E-1,7.062345147E-1
5.231961980E-1,-1.537016779E-1,1.031587481E0,7.083650827E-1
5.251856250E-1,-1.387879848E-1,1.084850669E0,7.126260996E-1
5.271750520E-1,-1.217437536E-1,1.138113856E0,7.126260996E-1
5.291644790E-1,-1.046995372E-1,1.187115908E0,7.136913538E-1
5.311539060E-1,-8.659005910E-2,1.239313841E0,7.147566676E-1
5.331433330E-1,-6.954584271E-2,1.287250638E0,7.147566676E-1
5.351327600E-1,-5.356689915E-2,1.334122300E0,7.147566676E-1
5.371221870E-1,-3.332689032E-2,1.377798080E0,7.115608454E-1
5.391116140E-1,-1.947846264E-2,1.420408607E0,7.104955912E-1
5.411010410E-1,-3.499510232E-3,1.460888624E0,7.104955912E-1
5.430904680E-1,1.247944310E-2,1.492846608E0,7.072997689E-1
5.450798960E-1,2.952365950E-2,1.526934981E0,7.041040063E-1
5.470693230E-1,4.550261423E-2,1.553566575E0,7.051692605E-1
5.490587500E-1,6.041629985E-2,1.577002406E0,7.019734979E-1
5.510481770E-1,7.746051997E-2,1.600438118E0,6.987776756E-1
5.530376040E-1,8.491736650E-2,1.623873949E0,6.966471672E-1
5.550270310E-1,9.663526714E-2,1.640918136E0,6.934513450E-1
5.570164580E-1,1.019615829E-1,1.663288713E0,6.881250739E-1
5.590058850E-1,1.062226370E-1,1.676071882E0,6.806682348E-1
5.609953120E-1,1.094184220E-1,1.689920306E0,6.764071584E-1
5.629847910E-1,9.876579046E-2,1.701638222E0,6.710808277E-1
5.649742710E-1,8.811315894E-2,1.708029747E0,6.657544971E-1
5.669637500E-1,7.319946587E-2,1.706964493E0,6.572324038E-1
5.689532290E-1,4.976366833E-2,1.700572968E0,6.519060731E-1
5.709427080E-1,2.419734374E-2,1.686724544E0,6.497755647E-1
5.729321870E-1,-8.825827390E-3,1.666484475E0,6.465798020E-1
5.749216660E-1,-4.611005262E-2,1.636657119E0,6.412534714E-1
5.769111460E-1,-8.872058988E-2,1.599372864E0,6.391229033E-1
5.789006250E-1,-1.345269382E-1,1.551436067E0,6.380576491E-1
5.808901040E-1,-1.835290641E-1,1.498172879E0,6.337966323E-1
5.828795830E-1,-2.399880290E-1,1.439583421E0,6.295355558E-1
5.848690620E-1,-2.943164408E-1,1.376732826E0,6.274050474E-1
5.868585410E-1,-3.550364673E-1,1.308555961E0,6.220787168E-1
5.888480210E-1,-4.146912396E-1,1.236118078E0,6.178176403E-1
5.908375000E-1,-4.743459821E-1,1.156223297E0,6.146218777E-1
5.928269790E-1,-5.361312628E-1,1.076328516E0,6.082302928E-1
5.948164580E-1,-5.947207808E-1,9.943031073E-1,6.007734537E-1
5.968059370E-1,-6.575713158E-1,9.037557840E-1,5.943818688E-1
5.987954160E-1,-7.129650116E-1,8.132083416E-1,5.890555382E-1
6.007848960E-1,-7.683587074E-1,7.183998823E-1,5.837292075E-1
6.027743750E-1,-8.194913864E-1,6.235914230E-1,5.784029365E-1
6.047638540E-1,-8.642324209E-1,5.255872011E-1,5.752071142E-1
6.067533330E-1,-9.089735150E-1,4.233218729E-1,5.730766058E-1
6.087428120E-1,-9.419966936E-1,3.295786977E-1,5.709460378E-1
6.107322910E-1,-9.739545584E-1,2.390312999E-1,5.720113516E-1
6.127217710E-1,-1.001651406E0,1.495491564E-1,5.709460378E-1
6.147112500E-1,-1.019760966E0,6.645860523E-2,5.730766058E-1
6.167007290E-1,-1.031478763E0,-9.175105952E-3,5.730766058E-1
6.186902080E-1,-1.037870407E0,-7.415618002E-2,5.741418600E-1
6.206796870E-1,-1.036805153E0,-1.316804141E-1,5.720113516E-1
6.226691660E-1,-1.029348254E0,-1.806825399E-1,5.720113516E-1
6.246586460E-1,-1.012304068E0,-2.169014961E-1,5.709460378E-1
6.266480730E-1,-9.909988046E-1,-2.477941364E-1,5.677502751E-1
6.286375000E-1,-9.590408802E-1,-2.712299228E-1,5.666850209E-1
6.306269270E-1,-9.164303541E-1,-2.882741392E-1,5.592281818E-1
6.326163540E-1,-8.748850822E-1,-3.053183556E-1,5.581629276E-1
6.346057810E-1,-8.194913864E-1,-3.181015253E-1,5.570976138E-1
6.365952080E-1,-7.619671226E-1,-3.287541568E-1,5.592281818E-1
6.385846350E-1,-6.991165876E-1,-3.447331190E-1,5.613586903E-1
6.405740620E-1,-6.447881460E-1,-3.948005140E-1,5.773376226E-1
6.425634890E-1,-5.766112804E-1,-4.065183997E-1,5.954471231E-1
6.445529160E-1,-5.031080842E-1,-4.033226073E-1,6.092955470E-1
6.465423430E-1,-4.189522862E-1,-3.926699758E-1,6.231439710E-1
6.485317710E-1,-3.284048736E-1,-3.702994287E-1,6.284703016E-1
6.505211980E-1,-2.314659208E-1,-3.436678648E-1,6.306008101E-1
6.525106250E-1,-1.334616691E-1,-3.159709871E-1,6.295355558E-1
6.545000520E-1,-2.906583436E-2,-2.872088850E-1,6.231439710E-1
6.564894790E-1,8.172157407E-2,-2.541857064E-1,6.124913692E-1
6.584789060E-1,1.914436966E-1,-2.200972885E-1,6.039692163E-1
6.604683330E-1,3.086227179E-1,-1.774867475E-1,5.911860466E-1
6.624577600E-1,4.268669486E-1,-1.391372532E-1,5.815986991E-1
6.644471870E-1,5.461764932E-1,-9.120039642E-2,5.709460378E-1
6.664366140E-1,6.654859781E-1,-3.900248557E-2,5.656197667E-1
6.684260410E-1,7.869260311E-1,1.745648310E-2,5.645545125E-1
6.704154680E-1,9.030397534E-1,8.030702919E-2,5.634891987E-1
6.724048960E-1,1.022349238E0,1.474186331E-1,5.698807836E-1
6.743943230E-1,1.138463020E0,2.209218144E-1,5.826639533E-1
6.763837500E-1,1.251380920E0,3.029471040E-1,6.018387079E-1
6.783731770E-1,1.363233566E0,3.839071393E-1,6.284703016E-1
6.803626040E-1,1.474020958E0,4.669976830E-1,6.636239886E-1
6.823520310E-1,1.579482079E0,5.564798117E-1,7.062345147E-1
6.843414580E-1,1.686008453E0,6.566145420E-1,7.658892870E-1
6.863308850E-1,1.797861099E0,7.610104084E-1,8.383272290E-1
6.883203120E-1,1.915040135E0,8.728630543E-1,9.278093576E-1
6.903097390E-1,2.039675713E0,1.008151650E0,1.036466241E0
6.922991660E-1,2.178160191E0,1.167941213E0,1.167493582E0
6.942885930E-1,2.323035955E0,1.314947486E0,1.305977941E0
6.962780210E-1,2.495608568E0,1.406560183E0,1.442331672E0
6.982674480E-1,2.693747520E0,1.497107625E0,1.576554775E0
7.002568750E-1,2.890821457E0,1.631330848E0,1.720365405E0
7.022463020E-1,3.091090918E0,1.781533003E0,1.865241289E0
7.042357290E-1,3.292425632E0,1.941322446E0,2.006921053E0
7.062251560E-1,3.490564823E0,2.120286703E0,2.140079021E0
7.082145830E-1,3.684442759E0,2.304577351E0,2.255127430E0
7.102040100E-1,3.875124931E0,2.509107828E0,2.357392788E0
7.121934370E-1,4.053024292E0,2.714703798E0,2.442613840E0
7.141828640E-1,4.220270634E0,2.935213327E0,2.507594824E0
7.161722910E-1,4.373668671E0,3.156788111E0,2.556596994E0
7.181617180E-1,4.506826401E0,3.343209267E0,2.585359097E0
7.201511460E-1,4.615483284E0,3.494476557E0,2.587489605E0
7.221405730E-1,4.710291862E0,3.637221813E0,2.599207640E0
7.241300000E-1,4.800838947E0,3.750139952E0,2.636491776E0
7.261194270E-1,4.869016171E0,3.817251444E0,2.670580149E0
7.281088540E-1,4.911626339E0,3.841752529E0,2.689754963E0
7.300982810E-1,4.933997154E0,3.822577715E0,2.692950726E0
7.320877080E-1,4.935062408E0,3.787424088E0,2.682298183E0
7.340771350E-1,4.915887356E0,3.735226154E0,2.655666590E0
7.360665620E-1,4.879668713E0,3.671310425E0,2.622643471E0
7.380559890E-1,4.822144508E0,3.601002932E0,2.576837063E0
7.400454160E-1,4.750771523E0,3.530695438E0,2.525704384E0
7.420348430E-1,4.666615963E0,3.458257675E0,2.470310688E0
7.440242710E-1,4.573937893E0,3.379428148E0,2.407460213E0
7.460136980E-1,4.475933552E0,3.282489061E0,2.344609499E0
7.480031250E-1,4.368341923E0,3.184484959E0,2.281759024E0
7.499925520E-1,4.265011787E0,3.074762821E0,2.217843294E0
7.519819790E-1,4.157420158E0,2.943735361E0,2.154992580E0
7.539714060E-1,4.053024292E0,2.799924850E0,2.092142105E0
7.559608330E-1,3.949693203E0,2.655048847E0,2.030356884E0
7.579502600E-1,3.850623846E0,2.515499353E0,1.965376019E0
7.599396870E-1,3.750488997E0,2.384471893E0,1.906786561E0
7.619291140E-1,3.661006927E0,2.251314163E0,1.849262238E0
7.639185410E-1,3.571524858E0,2.119221449E0,1.799194932E0
7.659079680E-1,3.487369061E0,1.999911785E0,1.766171694E0
7.678973960E-1,3.404278278E0,1.869949818E0,1.748062253E0
7.698868230E-1,3.329710007E0,1.764488697E0,1.729952812E0
7.718762500E-1,3.249815226E0,1.683528781E0,1.718234897E0
7.738656770E-1,3.165659428E0,1.626004457E0,1.711843252E0
7.758551040E-1,3.080438375E0,1.579132915E0,1.709712744E0
7.778445310E-1,2.995217085E0,1.556762338E0,1.710777998E0
7.798339580E-1,2.908930779E0,1.542913914E0,1.712908506E0
7.818233850E-1,2.822644472E0,1.538652897E0,1.723561168E0
7.838128120E-1,2.733162403E0,1.531195998E0,1.711843252E0
7.858022390E-1,2.643680334E0,1.530130744E0,1.689472795E0
7.877916660E-1,2.558459044E0,1.534391880E0,1.675624371E0
7.897810930E-1,2.472172737E0,1.539718151E0,1.663906455E0
7.917705210E-1,2.390147448E0,1.546109676E0,1.651123285E0
7.937599480E-1,2.313448429E0,1.561023474E0,1.643666387E0
7.957493750E-1,2.239945412E0,1.575937152E0,1.639405370E0
7.977388020E-1,2.177094698E0,1.592981339E0,1.650058031E0
7.997282290E-1,2.121701002E0,1.611090779E0,1.672428608E0
8.017176560E-1,2.074829578E0,1.621743441E0,1.700125456E0
8.037070830E-1,2.029023170E0,1.624939203E0,1.735279083E0
8.056965100E-1,1.990673900E0,1.632396102E0,1.776824355E0
8.076859370E-1,1.950193763E0,1.636657119E0,1.818369627E0
8.096753640E-1,1.915040135E0,1.643048763E0,1.859914899E0
8.116647910E-1,1.880951643E0,1.644114017E0,1.900394917E0
8.136542180E-1,1.851124287E0,1.650505543E0,1.935548663E0
8.156436460E-1,1.825557947E0,1.652636051E0,1.964310765E0
8.176330730E-1,1.802122116E0,1.652636051E0,1.986681342E0
8.196225000E-1,1.784012675E0,1.652636051E0,2.000529528E0
8.216119270E-1,1.768033743E0,1.651570797E0,2.005855799E0
8.236013540E-1,1.755250573E0,1.652636051E0,2.003725290E0
8.255907810E-1,1.738206387E0,1.660092950E0,1.990942240E0
8.275802080E-1,1.720096827E0,1.688855052E0,1.967506528E0
8.295696870E-1,1.697726369E0,1.741052985E0,1.934483409E0
8.315591660E-1,1.666833758E0,1.803903461E0,1.887611747E0
8.335486460E-1,1.632745266E0,1.864623547E0,1.839674950E0
8.355381250E-1,1.596526265E0,1.920017242E0,1.785346508E0
8.375276040E-1,1.557111502E0,1.966888785E0,1.725691676E0
8.395170830E-1,1.518762112E0,2.012695074E0,1.660710692E0
8.415065620E-1,1.478282094E0,2.056370735E0,1.595729589E0
8.434960410E-1,1.436736822E0,2.092589855E0,1.527552724E0
8.454855210E-1,1.395191550E0,2.122417212E0,1.468963265E0
8.474750000E-1,1.346189380E0,2.152244568E0,1.406112671E0
8.494644790E-1,1.302513599E0,2.178876162E0,1.350718975E0
8.514539580E-1,1.262033582E0,2.211899281E0,1.298521042E0
8.534434370E-1,1.213031411E0,2.239596128E0,1.249518871E0
8.554329160E-1,1.167225122E0,2.259836197E0,1.204777837E0
8.574223960E-1,1.126745105E0,2.281141520E0,1.162167311E0
8.594118750E-1,1.090526104E0,2.296055079E0,1.122752547E0
8.614013540E-1,1.051111341E0,2.303511858E0,1.088664174E0
8.633908330E-1,1.014892459E0,2.301381350E0,1.057771444E0
8.653803120E-1,9.808039665E-1,2.294989824E0,1.033270478E0
8.673697910E-1,9.435197711E-1,2.283272028E0,1.008769393E0
8.693592710E-1,9.094313383E-1,2.264097214E0,9.906599522E-1
8.713487500E-1,8.700165749E-1,2.240661383E0,9.736157060E-1
8.733382290E-1,8.327323794E-1,2.210834026E0,9.629630446E-1
8.753277080E-1,7.922523618E-1,2.176745653E0,9.533756971E-1
8.773171870E-1,7.560333610E-1,2.136265516E0,9.501798749E-1
8.793066660E-1,7.166186571E-1,2.096850872E0,9.491146207E-1
8.812961460E-1,6.708123088E-1,2.055305481E0,9.469841123E-1
8.832856250E-1,6.250059605E-1,2.010564566E0,9.523103833E-1
8.852751040E-1,5.781343579E-1,1.970084667E0,9.608325362E-1
8.872645830E-1,5.270017385E-1,1.933865666E0,9.725503922E-1
8.892540620E-1,4.726732969E-1,1.900842428E0,9.895945787E-1
8.912435410E-1,4.151490629E-1,1.866754055E0,1.010899901E0
8.932329680E-1,3.512332439E-1,1.826274037E0,1.034335732E0
8.952223960E-1,2.894479632E-1,1.784728765E0,1.060967326E0
8.972118230E-1,2.255321294E-1,1.742118239E0,1.090794683E0
8.992012500E-1,1.562900096E-1,1.695246577E0,1.125948310E0
9.011906770E-1,8.278684318E-2,1.646244526E0,1.162167311E0
9.031801040E-1,7.153125014E-3,1.594046593E0,1.197321057E0
9.051695310E-1,-6.848058105E-2,1.542913914E0,1.234605193E0
9.071589580E-1,-1.483753622E-1,1.487520218E0,1.277215838E0
9.091483850E-1,-2.325311750E-1,1.426800251E0,1.319826365E0
9.111378120E-1,-3.209480345E-1,1.366080165E0,1.364567399E0
9.131272390E-1,-4.061691165E-1,1.298968554E0,1.403982162E0
9.151166660E-1,-4.956512451E-1,1.227595925E0,1.448723197E0
9.171060930E-1,-5.851333737E-1,1.153027534E0,1.492398977E0
9.190955210E-1,-6.746155024E-1,1.073132753E0,1.539270639E0
9.210849480E-1,-7.683587074E-1,9.868463278E-1,1.586142182E0
9.230743750E-1,-8.621019125E-1,8.920378685E-1,1.635144353E0
9.250638020E-1,-9.515840411E-1,7.887072563E-1,1.684146404E0
9.270532290E-1,-1.040000916E0,6.757893562E-1,1.735279083E0
9.290426560E-1,-1.126287222E0,5.628714561E-1,1.786411762E0
9.310320830E-1,-1.205116749E0,4.467576742E-1,1.834348559E0
9.330215100E-1,-1.282881021E0,3.306439519E-1,1.882285476E0
9.350109370E-1,-1.353188396E0,2.123997062E-1,1.928091764E0
9.370003640E-1,-1.428822160E0,9.522071481E-2,1.969637036E0
9.389897910E-1,-1.493803144E0,-2.195826918E-2,2.013312578E0
9.409792180E-1,-1.557718992E0,-1.380719990E-1,2.059118986E0
9.429686460E-1,-1.614177942E0,-2.520551980E-1,2.101729631E0
9.449580730E-1,-1.667441130E0,-3.596467972E-1,2.145405293E0
9.469475000E-1,-1.719639063E0,-4.629773796E-1,2.189081192E0
9.489369270E-1,-1.764380097E0,-5.577858686E-1,2.232756853E0
9.509263540E-1,-1.803794861E0,-6.504637003E-1,2.278563261E0
9.529157810E-1,-1.835752726E0,-7.367501259E-1,2.324369669E0
9.549052080E-1,-1.862384319E0,-8.123837709E-1,2.369110584E0
9.568946350E-1,-1.883689642E0,-8.826911449E-1,2.409590721E0
9.588840620E-1,-1.898603320E0,-9.434112310E-1,2.446874857E0
9.608734890E-1,-1.909255981E0,-9.945439100E-1,2.476702213E0
9.628629160E-1,-1.918843269E0,-1.025436401E0,2.520378113E0
9.648523430E-1,-1.917778015E0,-1.056329012E0,2.578967571E0
9.668417710E-1,-1.907125473E0,-1.094678521E0,2.631165504E0
9.688311980E-1,-1.895407557E0,-1.121310115E0,2.678037167E0
9.708206250E-1,-1.878363252E0,-1.134093285E0,2.718517065E0
9.728100520E-1,-1.850666404E0,-1.129832268E0,2.752605438E0
9.747994790E-1,-1.822969556E0,-1.114918590E0,2.782432795E0
9.767889060E-1,-1.793142200E0,-1.097874284E0,2.807999134E0
9.787783330E-1,-1.761184335E0,-1.063785911E0,2.831434965E0
9.807677600E-1,-1.724965334E0,-1.012653232E0,2.852740288E0
9.827571870E-1,-1.690876961E0,-9.487375021E-1,2.872980356E0
9.847466140E-1,-1.656788468E0,-8.784301281E-1,2.895350933E0
9.867360410E-1,-1.623765349E0,-8.059922457E-1,2.920917273E0
9.887254680E-1,-1.591807365E0,-7.250322104E-1,2.946483374E0
9.907148960E-1,-1.558784246E0,-6.419416666E-1,2.972049713E0
9.927043230E-1,-1.526826382E0,-5.524594784E-1,3.000811815E0
9.946937500E-1,-1.492737889E0,-4.789563119E-1,3.029574156E0
9.966831770E-1,-1.457584262E0,-4.075836539E-1,3.058336258E0
9.986726040E-1,-1.422430515E0,-3.436678648E-1,3.087098360E0
1.000662031E0,-1.385146260E0,-2.850783467E-1,3.115860462E0
1.002651458E0,-1.346796870E0,-2.286193967E-1,3.143557310E0
1.004640885E0,-1.311643124E0,-1.753562093E-1,3.171254158E0
1.006630312E0,-1.265836835E0,-1.263540983E-1,3.194689989E0
1.008619739E0,-1.224291563E0,-7.948249578E-2,3.219190836E0
1.010609166E0,-1.177419901E0,-3.793722391E-2,3.242626667E0
1.012598593E0,-1.128417730E0,5.738583393E-3,3.263931990E0
1.014588021E0,-1.078350425E0,4.302280396E-2,3.284172058E0
1.016577448E0,-1.025087237E0,7.391545177E-2,3.302281618E0
1.018566875E0,-9.675629735E-1,1.016122997E-1,3.316129923E0
1.020556302E0,-9.132345319E-1,1.271786243E-1,3.328912973E0
1.022545729E0,-8.578408360E-1,1.570059955E-1,3.340631008E0
1.024535156E0,-7.981861234E-1,1.783112735E-1,3.352348804E0
1.026524583E0,-7.395966053E-1,2.070733905E-1,3.364066839E0
1.028514010E0,-6.810070872E-1,2.347702384E-1,3.374719381E0
1.030503437E0,-6.192218065E-1,2.645976245E-1,3.384306908E0
1.032492864E0,-5.606323481E-1,2.976208031E-1,3.393894196E0
1.034482291E0,-4.988470376E-1,3.274481595E-1,3.404546738E0
1.036471718E0,-4.391922951E-1,3.626018763E-1,3.415199518E0
1.038461146E0,-3.784722686E-1,4.009513557E-1,3.423721552E0
1.040450573E0,-3.198827803E-1,4.382355809E-1,3.432243586E0
1.042440000E0,-2.580974996E-1,4.595408440E-1,3.436504602E0
1.044429427E0,-1.963122189E-1,4.723240137E-1,3.439700603E0
1.046418854E0,-1.377227157E-1,4.829766452E-1,3.443961620E0
1.048408281E0,-7.913322002E-2,4.989556372E-1,3.452483654E0
1.050397708E0,-2.267425321E-2,5.149345398E-1,3.461005688E0
1.052387135E0,3.271945193E-2,5.298482180E-1,3.470593214E0
1.054376562E0,9.024368227E-2,5.341092348E-1,3.483376265E0
1.056365989E0,1.424415857E-1,5.330439806E-1,3.495094299E0
1.058355416E0,1.946394891E-1,5.234566927E-1,3.508942604E0
1.060344843E0,2.468374223E-1,5.085430145E-1,3.522791147E0
1.062334271E0,2.979700565E-1,4.978903234E-1,3.538769960E0
1.064323698E0,3.437764049E-1,4.787155986E-1,3.560075283E0
1.066313125E0,3.895827234E-1,4.680629671E-1,3.583511114E0
1.068302552E0,4.311280251E-1,4.680629671E-1,3.614403725E0
1.070291979E0,4.694775045E-1,4.733892679E-1,3.650622606E0
1.072281406E0,5.067617297E-1,4.808461070E-1,3.688972235E0
1.074270833E0,5.440459251E-1,4.883029461E-1,3.733713150E0
1.076260260E0,5.791996717E-1,4.904334843E-1,3.776323795E0
1.078249687E0,6.143533587E-1,5.000208616E-1,3.819999695E0
1.080239114E0,6.505723000E-1,5.149345398E-1,3.863675356E0
1.082228541E0,6.846607327E-1,5.373051167E-1,3.911612272E0
1.084217968E0,7.166186571E-1,5.735239983E-1,3.961679697E0
1.086207396E0,7.507070899E-1,6.140040159E-1,4.007486343E0
1.088196875E0,7.847955227E-1,6.640714407E-1,4.058619022E0
1.090186354E0,8.199492097E-1,7.162693739E-1,4.104424953E0
1.092175833E0,8.551028967E-1,7.769893408E-1,4.149166107E0
1.094165312E0,8.891913295E-1,8.355789185E-1,4.196037769E0
1.096154791E0,9.232797623E-1,9.005599022E-1,4.236517906E0
1.098144271E0,9.541723728E-1,9.815199375E-1,4.279128551E0
1.100133750E0,9.808039665E-1,1.069936991E0,4.322803974E0
1.102123229E0,1.004239798E0,1.160484314E0,4.357957840E0
1.104112708E0,1.026610374E0,1.259553790E0,4.390981197E0
1.106102187E0,1.039393544E0,1.356492877E0,4.422938824E0
1.108091666E0,1.055372477E0,1.456627607E0,4.449570656E0
1.110081146E0,1.062829256E0,1.559958100E0,4.476202011E0
1.112070625E0,1.069220901E0,1.652636051E0,4.500703335E0
1.114060104E0,1.069220901E0,1.741052985E0,4.519877911E0
1.116049583E0,1.067090392E0,1.828404546E0,4.536921978E0
1.118039062E0,1.060698748E0,1.906168818E0,4.553966522E0
1.120028541E0,1.044719815E0,1.977541447E0,4.561423302E0
1.122018021E0,1.019153476E0,2.038261414E0,4.565684319E0
1.124007500E0,9.925218821E-1,2.089394093E0,4.561423302E0
1.125996979E0,9.594987035E-1,2.128808737E0,4.550770760E0
1.127986458E0,9.211492538E-1,2.150114059E0,4.532660961E0
1.129975937E0,8.732123971E-1,2.160766602E0,4.507094860E0
1.131965416E0,8.199492097E-1,2.154375076E0,4.468745232E0
1.133954896E0,7.613596916E-1,2.144787788E0,4.426134586E0
1.135944375E0,7.038354874E-1,2.123482466E0,4.383524418E0
1.137933854E0,6.452459693E-1,2.101111889E0,4.356892586E0
1.139923333E0,5.898522735E-1,2.080871820E0,4.336652756E0
1.141912812E0,5.397849083E-1,2.049979210E0,4.330261230E0
1.143902291E0,4.886522293E-1,2.004173040E0,4.332391739E0
1.145891771E0,4.428459108E-1,1.962627769E0,4.346240044E0
1.147881250E0,4.002353549E-1,1.924278259E0,4.373936653E0
1.149870729E0,3.661469221E-1,1.891255140E0,4.412286282E0
1.151860208E0,3.384500742E-1,1.871015072E0,4.457027435E0
1.153849635E0,3.139490187E-1,1.866754055E0,4.510290623E0
1.155839062E0,2.958395481E-1,1.882732987E0,4.565684319E0
1.157828489E0,2.894479632E-1,1.916821480E0,4.628534794E0
1.159817916E0,2.873174250E-1,1.971149921E0,4.692450523E0
1.161807343E0,2.862521708E-1,2.037196159E0,4.755300999E0
1.163796771E0,2.947742939E-1,2.107503414E0,4.813890457E0
1.165786198E0,3.043616414E-1,2.175680399E0,4.868218899E0
1.167775625E0,3.171448112E-1,2.231074095E0,4.910829544E0
1.169765052E0,3.299279809E-1,2.269423485E0,4.928939342E0
1.171754479E0,3.256669343E-1,2.268358231E0,4.917221069E0
1.173743906E0,3.171448112E-1,2.210834026E0,4.869284153E0
1.175733333E0,2.958395481E-1,2.108568668E0,4.793650627E0
1.177722760E0,2.692079544E-1,1.961562514E0,4.686058998E0
1.179712187E0,2.393805534E-1,1.778337121E0,4.555031776E0
1.181701614E0,2.138142437E-1,1.600438118E0,4.415482044E0
1.183691041E0,1.999658197E-1,1.436387539E0,4.281259060E0
1.185680468E0,1.999658197E-1,1.298968554E0,4.157688141E0
1.187669896E0,2.234016061E-1,1.192442298E0,4.053292751E0
1.189659323E0,2.660121620E-1,1.106155872E0,3.967005968E0
1.191648750E0,3.288627267E-1,1.040109515E0,3.911612272E0
1.193638177E0,4.023658931E-1,9.953683615E-1,3.881784916E0
1.195627604E0,4.961090684E-1,9.740631580E-1,3.883915424E0
1.197617031E0,6.058312058E-1,9.687367678E-1,3.908416510E0
1.199606458E0,7.198144197E-1,9.761936665E-1,3.937178612E0
1.201595885E0,8.401892185E-1,9.815199375E-1,3.968071222E0
1.203585312E0,9.563029408E-1,9.857810736E-1,3.991506815E0
1.205574739E0,1.066025019E0,9.825851917E-1,4.002160072E0
1.207564166E0,1.165094614E0,9.751284122E-1,4.002160072E0
1.209553593E0,1.254576683E0,9.644757509E-1,3.988311052E0
1.211543021E0,1.329145193E0,9.527578354E-1,3.967005968E0
1.213532448E0,1.394126296E0,9.516925812E-1,3.936113358E0
1.215521875E0,1.447389364E0,9.580842257E-1,3.902024984E0
1.217511302E0,1.486804128E0,9.719326496E-1,3.861544847E0
1.219500729E0,1.517696857E0,9.900420904E-1,3.814673185E0
1.221490156E0,1.537936807E0,1.014543176E0,3.768867016E0
1.223479583E0,1.548589468E0,1.033717990E0,3.714538574E0
1.225469010E0,1.550719976E0,1.052892685E0,3.661275387E0
1.227458437E0,1.547524214E0,1.065675855E0,3.605881691E0
1.229447864E0,1.531545281E0,1.074198008E0,3.548357487E0
1.231437291E0,1.510239959E0,1.081654787E0,3.491898298E0
1.233426718E0,1.481477857E0,1.086981177E0,3.430113077E0
1.235416146E0,1.445258856E0,1.086981177E0,3.366197348E0
1.237405573E0,1.405844092E0,1.086981177E0,3.298020363E0
1.239395000E0,1.355776787E0,1.077393770E0,3.220256329E0
1.241384427E0,1.302513599E0,1.059284329E0,3.140361547E0
1.243373854E0,1.248185158E0,1.028391600E0,3.054075003E0
1.245363281E0,1.189595699E0,9.974989891E-1,2.970984459E0
1.247352708E0,1.131006122E0,9.783241749E-1,2.887893915E0
1.249342135E0,1.072416663E0,9.580842257E-1,2.804803371E0
1.251331562E0,1.015957713E0,9.421051741E-1,2.719582319E0
1.253320989E0,9.637597799E-1,9.367789030E-1,2.639687538E0
1.255310416E0,9.200839996E-1,9.527578354E-1,2.582163334E0
1.257299843E0,8.881260753E-1,9.836504459E-1,2.564053774E0
1.259289271E0,8.593639731E-1,1.027326345E0,2.572576046E0
1.261278698E0,8.348628879E-1,1.066741109E0,2.603468657E0
1.263268125E0,8.061007857E-1,1.102960110E0,2.652470827E0
1.265257552E0,7.794691920E-1,1.135983229E0,2.717451811E0
1.267246979E0,7.581639290E-1,1.161549568E0,2.804803371E0
1.269236406E0,7.357933521E-1,1.186050653E0,2.910264492E0
1.271225833E0,7.187491655E-1,1.208421230E0,3.024247646E0
1.273215260E0,7.017049193E-1,1.228661180E0,3.144622564E0
1.275204687E0,6.867912412E-1,1.244640112E0,3.260736227E0
1.277194114E0,6.761386395E-1,1.263814926E0,3.369393110E0
1.279183541E0,6.580291390E-1,1.278728604E0,3.463136196E0
1.281172968E0,6.367238760E-1,1.289381266E0,3.537704706E0
1.283162396E0,6.068965197E-1,1.310686469E0,3.597359419E0
1.285151823E0,5.760038495E-1,1.334122300E0,3.630382776E0
1.287141250E0,5.397849083E-1,1.360753894E0,3.644231081E0
1.289130677E0,4.982396364E-1,1.385254979E0,3.635709047E0
1.291120104E0,4.513680339E-1,1.414017081E0,3.599489927E0
1.293109531E0,3.906480074E-1,1.452366590E0,3.541965723E0
1.295098958E0,3.235363960E-1,1.500303388E0,3.457809925E0
1.297088385E0,2.425763458E-1,1.541848660E0,3.350218296E0
1.299077812E0,1.562900096E-1,1.577002406E0,3.219190836E0
1.301067239E0,6.680788845E-2,1.603634000E0,3.060466766E0
1.303056666E0,-2.160898969E-2,1.620678186E0,2.883632898E0
1.305046093E0,-1.100258604E-1,1.624939203E0,2.694015980E0
1.307035521E0,-1.877901107E-1,1.617482424E0,2.491616011E0
1.309024948E0,-2.570322454E-1,1.603634000E0,2.278563261E0
1.311014375E0,-3.209480345E-1,1.587654948E0,2.061249495E0
1.313003802E0,-3.784722686E-1,1.575937152E0,1.837544441E0
1.314993229E0,-4.338659644E-1,1.573806524E0,1.613839030E0
1.316982656E0,-4.860638976E-1,1.589785576E0,1.390133739E0
1.318972083E0,-5.318701863E-1,1.613221288E0,1.165363073E0
1.320961510E0,-5.723502040E-1,1.652636051E0,9.491146207E-1
1.322950937E0,-6.053733826E-1,1.697377205E0,7.349966764E-1
1.324940364E0,-6.266786456E-1,1.744248748E0,5.325965881E-1
1.326929791E0,-6.373313069E-1,1.784728765E0,3.429796696E-1
1.328919218E0,-6.234828830E-1,1.811360359E0,1.693416983E-1
1.330908646E0,-6.021776199E-1,1.825208783E0,1.274796855E-2
1.332898073E0,-5.766112804E-1,1.841187716E0,-1.193447039E-1
1.334887500E0,-5.670239329E-1,1.858231902E0,-2.280015945E-1
1.336876927E0,-5.734155178E-1,1.876341462E0,-3.153531849E-1
1.338866354E0,-6.160260439E-1,1.899777174E0,-3.813995123E-1
1.340855781E0,-6.969860792E-1,1.927474022E0,-4.272058606E-1
1.342845208E0,-7.928597927E-1,1.932800412E0,-4.538374543E-1
1.344834635E0,-8.684934974E-1,1.911495090E0,-4.698163867E-1
1.346824062E0,-9.057776928E-1,1.868884563E0,-4.740774632E-1
1.348813489E0,-9.047124386E-1,1.816686630E0,-4.676858783E-1
1.350802968E0,-8.716892600E-1,1.770880342E0,-4.549027085E-1
1.352792448E0,-8.130998015E-1,1.739987731E0,-4.421195388E-1
1.354781927E0,-7.321397662E-1,1.725074053E0,-4.304016531E-1
1.356771406E0,-6.309397221E-1,1.728269815E0,-4.218795300E-1
1.358760885E0,-5.212175846E-1,1.746379256E0,-4.176184833E-1
1.360750364E0,-4.029733241E-1,1.779402494E0,-4.133574367E-1
1.362739843E0,-2.783375084E-1,1.823078275E0,-4.101616442E-1
1.364729323E0,-1.590279937E-1,1.876341462E0,-4.080311060E-1
1.366718802E0,-4.078373685E-2,1.933865666E0,-4.059005976E-1
1.368708281E0,7.319946587E-2,1.996716022E0,-4.027048051E-1
1.370697760E0,1.807910651E-1,2.062762499E0,-4.005742669E-1
1.372687239E0,2.809258699E-1,2.125612974E0,-3.931174278E-1
1.374676718E0,3.810606301E-1,2.192724466E0,-3.835300505E-1
1.376666198E0,4.716080129E-1,2.259836197E0,-3.739426732E-1
1.378655677E0,5.642859340E-1,2.322686672E0,-3.600942492E-1
1.380645156E0,6.548333764E-1,2.389798403E0,-3.473110795E-1
1.382634635E0,7.400544286E-1,2.460105658E0,-3.313321471E-1
1.384624114E0,8.231449723E-1,2.533608913E0,-3.164184391E-1
1.386613593E0,9.073008299E-1,2.609242678E0,-2.983089685E-1
1.388603073E0,9.861303568E-1,2.687006950E0,-2.812647521E-1
1.390592552E0,1.063894510E0,2.762640476E0,-2.620899975E-1
1.392582031E0,1.139528275E0,2.841470003E0,-2.450458109E-1
1.394571510E0,1.210900903E0,2.919234276E0,-2.258710712E-1
1.396560989E0,1.280143023E0,2.995933294E0,-2.077615857E-1
1.398550468E0,1.345124125E0,3.074762821E0,-1.907173693E-1
1.400539948E0,1.403713584E0,3.155722857E0,-1.736731529E-1
1.402529427E0,1.456976771E0,3.235617638E0,-1.576942056E-1
1.404518906E0,1.512370467E0,3.312316418E0,-1.427805126E-1
1.406508385E0,1.565633655E0,3.385819674E0,-1.299973428E-1
1.408497864E0,1.610374689E0,3.453996658E0,-1.182794422E-1
1.410487343E0,1.649789453E0,3.521108150E0,-1.086920723E-1
1.412476823E0,1.688138962E0,3.585023880E0,-1.001699641E-1
1.414466302E0,1.720096827E0,3.642548323E0,-9.590891004E-2
1.416455729E0,1.747793674E0,3.695811510E0,-9.484364837E-2
1.418445156E0,1.772294760E0,3.746943951E0,-9.484364837E-2
1.420434583E0,1.788273692E0,3.787424088E0,-1.001699641E-1
1.422424010E0,1.802122116E0,3.824708223E0,-1.076268032E-1
1.424413437E0,1.811709523E0,3.851339817E0,-1.182794422E-1
1.426402864E0,1.817035913E0,3.865188360E0,-1.321278661E-1
1.428392291E0,1.815970540E0,3.873710394E0,-1.470415592E-1
1.430381718E0,1.806383252E0,3.874775648E0,-1.662163138E-1
1.432371146E0,1.793600082E0,3.864123106E0,-1.885868460E-1
1.434360573E0,1.771229506E0,3.850274563E0,-2.109573781E-1
1.436350000E0,1.739271641E0,3.823642969E0,-2.418500185E-1
1.438339427E0,1.704117894E0,3.785293579E0,-2.738079131E-1
1.440328854E0,1.662572622E0,3.734160900E0,-3.078963459E-1
1.442318281E0,1.613570571E0,3.677701950E0,-3.430500329E-1
1.444307708E0,1.547524214E0,3.605263948E0,-3.771384656E-1
1.446297135E0,1.461237788E0,3.510455608E0,-4.037700593E-1
1.448286562E0,1.347254634E0,3.396472454E0,-4.229448140E-1
1.450275989E0,1.190660954E0,3.247335434E0,-4.218795300E-1
1.452265416E0,9.935871363E-1,3.059849024E0,-4.059005976E-1
1.454254843E0,7.933176160E-1,2.865971088E0,-3.792690039E-1
1.456244271E0,6.282017827E-1,2.701920509E0,-3.515721560E-1
1.458233698E0,5.046312213E-1,2.577284813E0,-3.281363547E-1
1.460223125E0,4.098227322E-1,2.482476234E0,-3.153531849E-1
1.462212552E0,3.139490187E-1,2.391928911E0,-3.174837232E-1
1.464201979E0,2.234016061E-1,2.313099384E0,-3.217447698E-1
1.466191406E0,1.339194775E-1,2.230008841E0,-3.270710707E-1
1.468180833E0,4.763313755E-2,2.155440331E0,-3.238753080E-1
1.470170260E0,-4.078373685E-2,2.084067583E0,-3.196142316E-1
1.472159687E0,-1.281353533E-1,2.016956091E0,-3.057658076E-1
1.474149114E0,-2.186827511E-1,1.941322446E0,-2.876563370E-1
1.476138541E0,-3.028385639E-1,1.859297156E0,-2.620899975E-1
1.478127968E0,-3.880596459E-1,1.770880342E0,-2.301321179E-1
1.480117396E0,-4.722154438E-1,1.679267645E0,-1.917826384E-1
1.482106823E0,-5.542407632E-1,1.583393931E0,-1.513026208E-1
1.484096250E0,-6.298744678E-1,1.485389709E0,-1.097573340E-1
1.486085677E0,-7.033776641E-1,1.383124352E0,-6.501626968E-2
1.488075104E0,-7.694239616E-1,1.276598096E0,-1.814467460E-2
1.490064531E0,-8.312092423E-1,1.170071721E0,2.979218587E-2
1.492053958E0,-8.855376840E-1,1.065675855E0,8.199010044E-2
1.494043385E0,-9.334745407E-1,9.602147341E-1,1.352532655E-1
1.496032812E0,-9.728893042E-1,8.568841219E-1,1.917122304E-1
1.498022239E0,-1.002716780E0,7.556841373E-1,2.481711954E-1
1.500011666E0,-1.026152492E0,6.576799154E-1,3.110217750E-1
1.502001093E0,-1.038935661E0,5.660672188E-1,3.791986406E-1
1.503990521E0,-1.042131424E0,4.755198061E-1,4.484407604E-1
1.505979948E0,-1.034674644E0,3.881681859E-1,5.240744948E-1
1.507969375E0,-1.018695593E0,3.008165658E-1,6.007734537E-1
1.509958802E0,-9.920640588E-1,2.134649754E-1,6.827987432E-1
1.511948229E0,-9.526492953E-1,1.229175776E-1,7.626935244E-1
1.513937656E0,-9.057776928E-1,2.704385296E-2,8.404577374E-1
1.515927083E0,-8.493187428E-1,-7.096038759E-2,9.182219505E-1
1.517916510E0,-7.832723856E-1,-1.657688469E-1,9.895945787E-1
1.519905937E0,-7.118997574E-1,-2.563162446E-1,1.055640936E0
1.521895364E0,-6.352007985E-1,-3.394067883E-1,1.106773615E0
1.523884791E0,-5.574365258E-1,-4.043878615E-1,1.149384141E0
1.525874218E0,-4.796723127E-1,-4.608468413E-1,1.182407379E0
1.527863646E0,-3.965817392E-1,-5.077184439E-1,1.210104227E0
1.529853073E0,-3.081648648E-1,-5.503289700E-1,1.229278922E0
1.531842500E0,-2.165522277E-1,-5.886784792E-1,1.240996838E0
1.533831927E0,-1.196132302E-1,-6.259627342E-1,1.246323109E0
1.535821354E0,-1.841319911E-2,-6.557900906E-1,1.250584245E0
1.537810781E0,8.811315894E-2,-6.856174469E-1,1.243127346E0
1.539800208E0,2.031615973E-1,-7.111837864E-1,1.232474685E0
1.541789635E0,3.224711418E-1,-7.324889898E-1,1.217561007E0
1.543779062E0,4.407153726E-1,-7.442069054E-1,1.200516820E0
1.545768489E0,5.664165020E-1,-7.474027872E-1,1.177080989E0
1.547757916E0,6.889218092E-1,-7.420763969E-1,1.154710531E0
1.549747343E0,8.199492097E-1,-7.282279730E-1,1.132339954E0
1.551736771E0,9.477808475E-1,-6.994658709E-1,1.106773615E0
1.553726198E0,1.074547172E0,-6.611163616E-1,1.085468292E0
1.555715625E0,1.203444123E0,-6.121143103E-1,1.063097835E0
1.557705052E0,1.327014685E0,-5.567206144E-1,1.053510427E0
1.559694479E0,1.442063093E0,-4.821521044E-1,1.051379919E0
1.561683906E0,1.539002061E0,-3.777562976E-1,1.067358851E0
1.563673333E0,1.621027350E0,-2.541857064E-1,1.092925191E0
1.565662760E0,1.695595860E0,-1.391372532E-1,1.104643106E0
1.567652187E0,1.760576844E0,-2.408879623E-2,1.116361022E0
1.569641614E0,1.808513761E0,9.095966816E-2,1.135535717E0
1.571631041E0,1.842602134E0,1.974860132E-1,1.155775785E0
1.573620468E0,1.862842202E0,3.008165658E-1,1.182407379E0
1.575609896E0,1.863907456E0,3.966903090E-1,1.202647328E0
1.577599323E0,1.853254795E0,4.872376919E-1,1.212234735E0
1.579588750E0,1.831949592E0,5.703282356E-1,1.218626261E0
1.581578177E0,1.797861099E0,6.427661180E-1,1.218626261E0
1.583567604E0,1.756315827E0,6.992251873E-1,1.215430498E0
1.585557031E0,1.712640047E0,7.354440689E-1,1.213299990E0
1.587546458E0,1.667899013E0,7.450314760E-1,1.213299990E0
1.589535885E0,1.622092605E0,7.343788147E-1,1.212234735E0
1.591525312E0,1.575221062E0,7.056167126E-1,1.212234735E0
1.593514739E0,1.526218891E0,6.598104239E-1,1.210104227E0
1.595504166E0,1.480412602E0,5.958945751E-1,1.205843091E0
1.597493593E0,1.428214669E0,5.245219469E-1,1.198386312E0
1.599483021E0,1.373886228E0,4.371702969E-1,1.186668396E0
1.601472448E0,1.319557786E0,3.562102914E-1,1.167493582E0
1.603461875E0,1.257772565E0,2.922944725E-1,1.142992616E0
1.605451302E0,1.195987225E0,2.432923466E-1,1.109969378E0
1.607440729E0,1.129940867E0,1.868333817E-1,1.064163089E0
1.609430208E0,1.066025019E0,1.143954620E-1,1.009834647E0
1.611419687E0,1.001044035E0,3.982701525E-2,9.437882900E-1
1.613409166E0,9.371281862E-1,-4.432880133E-2,8.628282547E-1
1.615398646E0,8.774734139E-1,-1.402025223E-1,7.658892870E-1
1.617388125E0,8.242102265E-1,-2.414025515E-1,6.551018953E-1
1.619377604E0,7.752081156E-1,-3.521899581E-1,5.336618423E-1
1.621367083E0,7.357933521E-1,-4.746952653E-1,4.005039036E-1
1.623356562E0,6.985091567E-1,-6.057226658E-1,2.609543800E-1
1.625346041E0,6.622902155E-1,-7.484680414E-1,1.182090566E-1
1.627335521E0,6.367238760E-1,-9.061269760E-1,-2.986257151E-2
1.629325000E0,6.090270281E-1,-1.070177436E0,-1.747384220E-1
1.631314479E0,5.823954344E-1,-1.236358643E0,-3.174837232E-1
1.633303958E0,5.536333323E-1,-1.413192391E0,-4.634248018E-1
1.635293437E0,5.270017385E-1,-1.590026140E0,-6.072353721E-1
1.637282916E0,4.961090684E-1,-1.762598753E0,-7.499806881E-1
1.639272396E0,4.652164578E-1,-1.926649332E0,-8.895302415E-1
1.641261875E0,4.321932793E-1,-2.090700150E0,-1.029079795E0
1.643251354E0,4.044964314E-1,-2.253685474E0,-1.163302898E0
1.645240833E0,3.810606301E-1,-2.414540291E0,-1.302852511E0
1.647230312E0,3.597553670E-1,-2.566872835E0,-1.439206243E0
1.649219791E0,3.384500742E-1,-2.707487583E0,-1.573429465E0
1.651209271E0,3.086227179E-1,-2.826797247E0,-1.706587315E0
1.653198750E0,2.798605859E-1,-2.916279316E0,-1.835484266E0
1.655188229E0,2.542942762E-1,-2.989782572E0,-1.956924319E0
1.657177708E0,2.297931910E-1,-3.049437284E0,-2.074103594E0
1.659167187E0,2.042268664E-1,-3.093112946E0,-2.182760477E0
1.661156666E0,1.829216033E-1,-3.115483522E0,-2.270112038E0
1.663146146E0,1.637468487E-1,-3.116548777E0,-2.340419292E0
1.665135625E0,1.467026323E-1,-3.093112946E0,-2.391551971E0
1.667125104E0,1.317889541E-1,-3.044111013E0,-2.423509836E0
1.669114583E0,1.179405302E-1,-2.975934029E0,-2.442684650E0
1.671104062E0,1.051573753E-1,-2.888582468E0,-2.444815159E0
1.673093541E0,9.450473636E-2,-2.793773890E0,-2.429901600E0
1.675082968E0,8.704788983E-2,-2.698965549E0,-2.405400515E0
1.677072396E0,8.172157407E-2,-2.620136023E0,-2.370246649E0
1.679061823E0,8.065631241E-2,-2.561546564E0,-2.327636242E0
1.681051250E0,8.704788983E-2,-2.528523445E0,-2.278634071E0
1.683040677E0,9.663526714E-2,-2.530653954E0,-2.225370884E0
1.685030104E0,1.126142144E-1,-2.550894022E0,-2.167846680E0
1.687019531E0,1.285931617E-1,-2.593504429E0,-2.102865696E0
1.689008958E0,1.456373781E-1,-2.647832870E0,-2.038949728E0
1.690998385E0,1.605510563E-1,-2.708552837E0,-1.969707489E0
1.692987812E0,1.775952727E-1,-2.772468805E0,-1.898334742E0
1.694977239E0,1.914436966E-1,-2.836384535E0,-1.822701097E0
1.696966666E0,2.031615973E-1,-2.898169756E0,-1.746002078E0
1.698956093E0,2.138142437E-1,-2.958889723E0,-1.668237805E0
1.700945521E0,2.234016061E-1,-3.026001453E0,-1.586212516E0
1.702934948E0,2.372500449E-1,-3.087786674E0,-1.508448362E0
1.704924375E0,2.489679307E-1,-3.147441387E0,-1.425357819E0
1.706913802E0,2.585553229E-1,-3.203900337E0,-1.347593546E0
1.708903229E0,2.681427002E-1,-3.255033016E0,-1.268764019E0
1.710892656E0,2.787953317E-1,-3.300839424E0,-1.194195628E0
1.712882083E0,2.883827090E-1,-3.346645832E0,-1.120692372E0
1.714871510E0,2.990353405E-1,-3.386060476E0,-1.050384998E0
1.716860937E0,3.107532263E-1,-3.428671122E0,-9.854039550E-1
1.718850364E0,3.203406036E-1,-3.468085766E0,-9.289450049E-1
1.720839791E0,3.331237733E-1,-3.509631157E0,-8.746165633E-1
1.722829218E0,3.469721973E-1,-3.553306818E0,-8.298754692E-1
1.724818646E0,3.586900830E-1,-3.595917463E0,-7.915259600E-1
1.726808073E0,3.736037910E-1,-3.641723871E0,-7.616986036E-1
1.728797500E0,3.906480074E-1,-3.686464787E0,-7.393280864E-1
1.730786927E0,4.044964314E-1,-3.725879669E0,-7.233490944E-1
1.732776354E0,4.236711562E-1,-3.758902788E0,-7.169575095E-1
1.734765781E0,4.428459108E-1,-3.783403873E0,-7.190880775E-1
1.736755208E0,4.609553814E-1,-3.808970213E0,-7.297406793E-1
1.738744635E0,4.801301360E-1,-3.824949026E0,-7.489154339E-1
1.740734062E0,4.971743226E-1,-3.832406044E0,-7.766122818E-1
1.742723489E0,5.099574924E-1,-3.828144789E0,-8.075049520E-1
1.744712916E0,5.238059163E-1,-3.810035467E0,-8.479849696E-1
1.746702343E0,5.280669928E-1,-3.779142857E0,-8.895302415E-1
1.748691771E0,5.312627554E-1,-3.740793228E0,-9.257491827E-1
1.750681198E0,5.301975012E-1,-3.697117567E0,-9.640986919E-1
1.752670625E0,5.270017385E-1,-3.650245905E0,-1.003513455E0
1.754660052E0,5.248712301E-1,-3.614026785E0,-1.045058727E0
1.756649479E0,5.248712301E-1,-3.584199429E0,-1.087669253E0
1.758638906E0,5.259364843E-1,-3.566090107E0,-1.136671305E0
1.760628333E0,5.323280692E-1,-3.565024853E0,-1.182477713E0
1.762617760E0,5.440459251E-1,-3.572481632E0,-1.226153493E0
1.764607187E0,5.568290949E-1,-3.593786955E0,-1.271959782E0
1.766596614E0,5.717427731E-1,-3.624679565E0,-1.316700935E0
1.768586041E0,5.951786041E-1,-3.666224718E0,-1.356115699E0
1.770575468E0,6.132880449E-1,-3.718422651E0,-1.393399835E0
1.772564896E0,6.324627995E-1,-3.779142857E0,-1.425357819E0
1.774554323E0,6.516375542E-1,-3.839862823E0,-1.450924158E0
1.776543750E0,6.665512323E-1,-3.896321774E0,-1.465837836E0
1.778533177E0,6.772038937E-1,-3.953845978E0,-1.473294616E0
1.780522604E0,6.825302243E-1,-4.000717640E0,-1.467968345E0
1.782512031E0,6.835954785E-1,-4.035871029E0,-1.455185175E0
1.784501458E0,6.835954785E-1,-4.063567638E0,-1.429618835E0
1.786490885E0,6.793344021E-1,-4.092329979E0,-1.391269326E0
1.788480312E0,6.697470546E-1,-4.120027065E0,-1.343332529E0
1.790469739E0,6.569638848E-1,-4.154115200E0,-1.291134596E0
1.792459166E0,6.409849524E-1,-4.181812286E0,-1.230414510E0
1.794448593E0,6.196796298E-1,-4.210574150E0,-1.164368272E0
1.796438021E0,5.973091125E-1,-4.238271236E0,-1.096191406E0
1.798427448E0,5.706775188E-1,-4.273424625E0,-1.030145049E0
1.800416875E0,5.483070016E-1,-4.312839508E0,-9.609028697E-1
1.802406302E0,5.259364843E-1,-4.355450153E0,-8.948565722E-1
1.804395729E0,5.025006533E-1,-4.394865036E0,-8.256143928E-1
1.806385156E0,4.790648818E-1,-4.433214188E0,-7.595680952E-1
1.808374583E0,4.545637965E-1,-4.463041782E0,-6.967175007E-1
1.810364010E0,4.247364402E-1,-4.485412121E0,-6.359975338E-1
1.812353437E0,3.917132616E-1,-4.504587173E0,-5.784732699E-1
1.814342864E0,3.565595746E-1,-4.518435478E0,-5.220143199E-1
1.816332291E0,3.182100654E-1,-4.524827003E0,-4.676858783E-1
1.818321718E0,2.787953317E-1,-4.528022766E0,-4.154879451E-1
1.820311146E0,2.361847609E-1,-4.524827003E0,-3.675510883E-1
1.822300573E0,1.935742348E-1,-4.517370224E0,-3.238753080E-1
1.824290000E0,1.498984247E-1,-4.519500732E0,-2.855257988E-1
1.826279427E0,1.104836911E-1,-4.528022766E0,-2.503721118E-1
1.828268854E0,5.935103819E-2,-4.535479546E0,-2.216100097E-1
1.830258281E0,1.141417958E-2,-4.550393105E0,-1.939131618E-1
1.832247708E0,-4.291426018E-2,-4.565307140E0,-1.672815681E-1
1.834237135E0,-1.025690138E-1,-4.579155445E0,-1.481068283E-1
1.836226562E0,-1.696806252E-1,-4.594069004E0,-1.353236735E-1
1.838215989E0,-2.335964441E-1,-4.619635582E0,-1.342584044E-1
1.840205416E0,-2.953817248E-1,-4.661180496E0,-1.470415592E-1
1.842194843E0,-3.550364673E-1,-4.715508938E0,-1.608899981E-1
1.844184271E0,-4.274743795E-1,-4.760250092E0,-1.779342145E-1
1.846173698E0,-5.020428300E-1,-4.793273449E0,-1.939131618E-1
1.848163125E0,-5.787417889E-1,-4.830557823E0,-2.130879015E-1
1.850152552E0,-6.554408073E-1,-4.866776466E0,-2.280015945E-1
1.852141979E0,-7.332050204E-1,-4.909387112E0,-2.439805418E-1
1.854131406E0,-8.067082167E-1,-4.956258774E0,-2.642205358E-1
1.856120833E0,-8.791460991E-1,-4.998869419E0,-2.833952904E-1
1.858110260E0,-9.483882785E-1,-5.037218571E0,-3.089616001E-1
1.860099739E0,-1.010173559E0,-5.083024979E0,-3.345279396E-1
1.862089218E0,-1.065567255E0,-5.132027149E0,-3.622247875E-1
1.864078698E0,-1.120960951E0,-5.178898811E0,-3.920521736E-1
1.866068177E0,-1.169963121E0,-5.205530167E0,-4.240100682E-1
1.868057656E0,-1.216834664E0,-5.220444202E0,-4.570332468E-1
1.870047135E0,-1.259445190E0,-5.235357761E0,-4.889911413E-1
1.872036614E0,-1.298859954E0,-5.251336575E0,-5.220143199E-1
1.874026093E0,-1.329752564E0,-5.268381119E0,-5.539722443E-1
1.876015573E0,-1.356384158E0,-5.281164169E0,-5.827343464E-1
1.878005052E0,-1.377689481E0,-5.292881966E0,-6.125617027E-1
1.879994531E0,-1.398994684E0,-5.305665016E0,-6.391932964E-1
1.881984010E0,-1.411777854E0,-5.316317558E0,-6.647596359E-1
1.883973489E0,-1.422430515E0,-5.322709560E0,-6.881954074E-1
1.885962968E0,-1.433083177E0,-5.328035831E0,-7.095006704E-1
1.887952448E0,-1.436278939E0,-5.333362103E0,-7.276101708E-1
1.889941927E0,-1.437344193E0,-5.340818882E0,-7.467849255E-1
1.891931406E0,-1.433083177E0,-5.338688374E0,-7.670249343E-1
1.893920885E0,-1.428822160E0,-5.320579052E0,-7.893954515E-1
1.895910364E0,-1.421365261E0,-5.287555695E0,-8.107007146E-1
1.897899843E0,-1.409647346E0,-5.256662846E0,-8.320059776E-1
1.899889323E0,-1.395798922E0,-5.217248440E0,-8.565070629E-1
1.901878802E0,-1.376624227E0,-5.176768303E0,-8.799428344E-1
1.903868281E0,-1.359579921E0,-5.130961895E0,-9.087049961E-1
1.905857760E0,-1.340405226E0,-5.084090233E0,-9.332060218E-1
1.907847239E0,-1.319099903E0,-5.037218571E0,-9.630334377E-1
1.909836718E0,-1.298859954E0,-4.995673656E0,-9.907302856E-1
1.911826198E0,-1.277554631E0,-4.956258774E0,-1.017361879E0
1.913815677E0,-1.259445190E0,-4.923235416E0,-1.043993473E0
1.915805156E0,-1.237074614E0,-4.894473553E0,-1.070625067E0
1.917794635E0,-1.215769410E0,-4.872102737E0,-1.097256660E0
1.919784114E0,-1.198725224E0,-4.855058670E0,-1.120692372E0
1.921773593E0,-1.178485155E0,-4.840145111E0,-1.144128203E0
1.923763073E0,-1.162506223E0,-4.825231075E0,-1.165433526E0
1.925752500E0,-1.147592545E0,-4.812448025E0,-1.181412458E0
1.927741927E0,-1.135874629E0,-4.795403957E0,-1.193130374E0
1.929731354E0,-1.129483104E0,-4.781555653E0,-1.198456645E0
1.931720781E0,-1.126287222E0,-4.764511108E0,-1.200587153E0
1.933710208E0,-1.127352476E0,-4.747467041E0,-1.195260882E0
1.935699635E0,-1.132678866E0,-4.731488228E0,-1.188869238E0
1.937689062E0,-1.143331528E0,-4.708052158E0,-1.177151322E0
1.939678489E0,-1.158245206E0,-4.682486057E0,-1.162237644E0
1.941667916E0,-1.181680918E0,-4.660115242E0,-1.145193458E0
1.943657343E0,-1.202986240E0,-4.632418633E0,-1.126018763E0
1.945646771E0,-1.232813597E0,-4.599395275E0,-1.104713440E0
1.947636198E0,-1.262640953E0,-4.561046124E0,-1.085538745E0
1.949625625E0,-1.299925208E0,-4.509913445E0,-1.065298676E0
1.951615052E0,-1.331883073E0,-4.474759579E0,-1.040797591E0
1.953604479E0,-1.356384158E0,-4.450258732E0,-1.014166117E0
1.955593906E0,-1.383015752E0,-4.424692154E0,-9.832733870E-1
1.957583333E0,-1.401125193E0,-4.403387070E0,-9.491850138E-1
1.959572760E0,-1.416038990E0,-4.392734528E0,-9.129660130E-1
1.961562187E0,-1.428822160E0,-4.382081509E0,-8.703554869E-1
1.963551614E0,-1.442670584E0,-4.373559475E0,-8.256143928E-1
1.965541041E0,-1.454388380E0,-4.365037441E0,-7.830038667E-1
1.967530468E0,-1.462910533E0,-4.353319645E0,-7.382628322E-1
1.969519896E0,-1.473563194E0,-4.338406086E0,-6.935217381E-1
1.971509323E0,-1.489542127E0,-4.301121712E0,-6.434543729E-1
1.973498750E0,-1.503390551E0,-4.276620388E0,-5.987132788E-1
1.975488177E0,-1.519369483E0,-4.255315304E0,-5.518416762E-1
1.977477604E0,-1.533217907E0,-4.237205982E0,-5.060353875E-1
1.979467031E0,-1.552392721E0,-4.211639404E0,-4.612942934E-1
1.981456458E0,-1.575828433E0,-4.179681778E0,-4.186837375E-1
1.983445885E0,-1.600329518E0,-4.153049946E0,-3.760732114E-1
1.985435312E0,-1.621634841E0,-4.123222828E0,-3.366584480E-1
1.987424739E0,-1.641874790E0,-4.090199471E0,-2.993742228E-1
1.989414166E0,-1.659984231E0,-4.053980350E0,-2.674163282E-1
1.991403593E0,-1.674898028E0,-4.002848148E0,-2.439805418E-1
1.993393021E0,-1.691942215E0,-3.943193436E0,-2.280015945E-1
1.995382448E0,-1.700464249E0,-3.859037399E0,-2.184142172E-1
1.997371875E0,-1.710051656E0,-3.756772280E0,-2.216100097E-1
1.999361302E0,-1.721769571E0,-3.642789125E0,-2.343931794E-1
2.001350729E0,-1.728161097E0,-3.520283699E0,-2.578289509E-1
2.003340156E0,-1.735617995E0,-3.387125731E0,-2.951131761E-1
2.005329583E0,-1.742009521E0,-3.249706745E0,-3.387889862E-1
2.007319010E0,-1.747335911E0,-3.118679285E0,-3.888563812E-1
2.009308437E0,-1.754792690E0,-2.995108843E0,-4.485111237E-1
2.011297864E0,-1.760119081E0,-2.875799179E0,-5.102964044E-1
2.013287291E0,-1.771836996E0,-2.758620262E0,-5.763427615E-1
2.015276718E0,-1.780359030E0,-2.641441345E0,-6.445196271E-1
2.017266146E0,-1.794207454E0,-2.522131681E0,-7.190880775E-1
2.019255573E0,-1.808055878E0,-2.403887510E0,-7.936565280E-1
2.021245000E0,-1.826165438E0,-2.283512831E0,-8.671596646E-1
2.023234427E0,-1.845340133E0,-2.163137913E0,-9.459891915E-1
2.025223854E0,-1.867710710E0,-2.039567471E0,-1.018427134E0
2.027213281E0,-1.885820150E0,-1.919192553E0,-1.086603999E0
2.029202708E0,-1.902864337E0,-1.792426109E0,-1.150519848E0
2.031192135E0,-1.922039151E0,-1.669920802E0,-1.208044052E0
2.033181562E0,-1.938018084E0,-1.545284986E0,-1.254915595E0
2.035170989E0,-1.957192779E0,-1.423844934E0,-1.294330359E0
2.037160416E0,-1.973171711E0,-1.306666017E0,-1.327353477E0
2.039149843E0,-1.990216017E0,-1.195878625E0,-1.349724054E0
2.041139271E0,-2.009390831E0,-1.089352250E0,-1.366768241E0
2.043128698E0,-2.025369883E0,-9.924132824E-1,-1.376355648E0
2.045118125E0,-2.038152933E0,-9.050617218E-1,-1.378486156E0
2.047107552E0,-2.050936222E0,-8.272974491E-1,-1.376355648E0
2.049096979E0,-2.061588764E0,-7.623164654E-1,-1.368898869E0
2.051086406E0,-2.069045544E0,-7.026616335E-1,-1.352919817E0
2.053075833E0,-2.075437069E0,-6.493984461E-1,-1.332679868E0
2.055065260E0,-2.078633070E0,-5.940047503E-1,-1.308178782E0
2.057054687E0,-2.081828833E0,-5.226321220E-1,-1.278351426E0
2.059044114E0,-2.080763578E0,-4.256931543E-1,-1.244262934E0
2.061033541E0,-2.076502562E0,-2.925352156E-1,-1.206978798E0
2.063022968E0,-2.069045544E0,-1.295498908E-1,-1.165433526E0
2.065012396E0,-2.062654018E0,6.432807446E-2,-1.119627118E0
2.067001823E0,-2.055197239E0,2.805765569E-1,-1.072755575E0
2.068991250E0,-2.056262493E0,5.543493032E-1,-1.042928219E0
2.070980677E0,-2.055197239E0,8.227957487E-1,-1.013100743E0
2.072970104E0,-2.036022425E0,1.055023193E0,-9.790123701E-1
2.074959531E0,-2.004064560E0,1.261684418E0,-9.491850138E-1
2.076948958E0,-1.965714931E0,1.449170709E0,-9.289450049E-1
2.078938385E0,-1.916712761E0,1.613221288E0,-9.140312672E-1
2.080927812E0,-1.858123302E0,1.749575019E0,-9.065744281E-1
2.082917239E0,-1.787815928E0,1.847579360E0,-9.150965214E-1
2.084906666E0,-1.714312673E0,1.917886734E0,-9.364018440E-1
2.086896093E0,-1.632287383E0,1.951975107E0,-9.662292004E-1
2.088885521E0,-1.554523230E0,1.939191937E0,-1.001382947E0
2.090874948E0,-1.476758957E0,1.894450903E0,-1.035471320E0
2.092864375E0,-1.400059938E0,1.824143529E0,-1.067429185E0
2.094853802E0,-1.325491548E0,1.708029747E0,-1.102582932E0
2.096843229E0,-1.241335750E0,1.575937152E0,-1.141997695E0
2.098832656E0,-1.159310460E0,1.436387539E0,-1.182477713E0
2.100822083E0,-1.074089408E0,1.287250638E0,-1.226153493E0
2.102811510E0,-9.814113975E-1,1.141309619E0,-1.265568256E0
2.104800989E0,-8.919292688E-1,1.008151650E0,-1.307113528E0
2.106790468E0,-8.077734709E-1,9.037557840E-1,-1.352919817E0
2.108779948E0,-7.449229360E-1,8.419704437E-1,-1.406183004E0
2.110769427E0,-6.959208250E-1,8.014904261E-1,-1.458380938E0
2.112758906E0,-6.426576376E-1,7.610104084E-1,-1.510578871E0
2.114748385E0,-5.925902128E-1,7.215956450E-1,-1.561711550E0
2.116737864E0,-5.489144325E-1,6.704629660E-1,-1.609648347E0
2.118727343E0,-5.094996691E-1,6.182651520E-1,-1.653324127E0
2.120716823E0,-4.700849354E-1,5.213261843E-1,-1.697000027E0
2.122706302E0,-4.232133329E-1,3.423618674E-1,-1.743871570E0
2.124695781E0,-3.731459379E-1,1.122649312E-1,-1.792873740E0
2.126685260E0,-3.241438270E-1,-1.391372532E-1,-1.842941046E0
2.128674739E0,-2.825985551E-1,-3.926699758E-1,-1.888747454E0
2.130664218E0,-2.442490757E-1,-6.504637003E-1,-1.932423234E0
2.132653698E0,-2.122911662E-1,-8.794953823E-1,-1.967576861E0
2.134643177E0,-1.867248416E-1,-1.074438572E0,-1.997404337E0
2.136632656E0,-1.622237861E-1,-1.224640727E0,-2.011252880E0
2.138622135E0,-1.483753622E-1,-1.318383932E0,-2.017644644E0
2.140611614E0,-1.430490464E-1,-1.366320729E0,-2.021905661E0
2.142601093E0,-1.377227157E-1,-1.385495543E0,-2.028297186E0
2.144590573E0,-1.398532540E-1,-1.386560798E0,-2.021905661E0
2.146580052E0,-1.377227157E-1,-1.368451238E0,-1.999534845E0
2.148569531E0,-1.409185082E-1,-1.338623881E0,-1.967576861E0
2.150559010E0,-1.419837773E-1,-1.297078609E0,-1.915379047E0
2.152548489E0,-1.419837773E-1,-1.254468083E0,-1.854658961E0
2.154537968E0,-1.387879848E-1,-1.211857557E0,-1.781155825E0
2.156527448E0,-1.345269382E-1,-1.167116523E0,-1.693804145E0
2.158516927E0,-1.281353533E-1,-1.115983844E0,-1.594734669E0
2.160506406E0,-1.132216454E-1,-1.073373318E0,-1.486077785E0
2.162495885E0,-9.191638231E-2,-1.022240639E0,-1.379551411E0
2.164485364E0,-6.421952695E-2,-9.700428247E-1,-1.280481935E0
2.166474843E0,-3.545741737E-2,-9.135838747E-1,-1.190999746E0
2.168464323E0,-1.202161796E-2,-8.613859415E-1,-1.119627118E0
2.170453802E0,1.674049720E-2,-8.155796528E-1,-1.056776643E0
2.172443229E0,4.337208346E-2,-7.900133133E-1,-1.004578710E0
2.174432656E0,6.787315011E-2,-7.772301435E-1,-9.587723613E-1
2.176422083E0,8.598262817E-2,-7.708384991E-1,-9.182923436E-1
2.178411510E0,1.019615829E-1,-7.655122280E-1,-8.788775802E-1
2.180400937E0,1.083531678E-1,-7.708384991E-1,-8.447891474E-1
2.182390364E0,1.072878987E-1,-7.868174314E-1,-8.075049520E-1
2.184379791E0,1.019615829E-1,-8.081227541E-1,-7.744817734E-1
2.186369218E0,8.704788983E-2,-8.326238394E-1,-7.435891032E-1
2.188358646E0,6.361209601E-2,-8.486027718E-1,-7.190880775E-1
2.190348073E0,2.313207835E-2,-8.464722633E-1,-6.956522465E-1
2.192337500E0,-2.587004378E-2,-8.411458731E-1,-6.690206528E-1
2.194326927E0,-7.700268924E-2,-8.400806189E-1,-6.423890591E-1
2.196316354E0,-1.281353533E-1,-8.486027718E-1,-6.200185418E-1
2.198305781E0,-1.686153710E-1,-8.752343655E-1,-5.965827703E-1
2.200295208E0,-2.048343271E-1,-8.965395689E-1,-5.763427615E-1
2.202284635E0,-2.378574908E-1,-9.146491289E-1,-5.624943376E-1
2.204274062E0,-2.708806396E-1,-9.370195866E-1,-5.475806594E-1
2.206263489E0,-2.996427715E-1,-9.636511803E-1,-5.379932523E-1
2.208252916E0,-3.252090812E-1,-9.956091642E-1,-5.358627439E-1
2.210242343E0,-3.518406749E-1,-1.026501656E0,-5.294711590E-1
2.212231771E0,-3.774070144E-1,-1.061655402E0,-5.188184977E-1
2.214221198E0,-4.093649089E-1,-1.092548013E0,-4.985785186E-1
2.216210625E0,-4.402575493E-1,-1.123440623E0,-4.708816707E-1
2.218200052E0,-4.700849354E-1,-1.150072217E0,-4.367932379E-1
2.220189479E0,-5.020428300E-1,-1.180964947E0,-3.931174278E-1
2.222178906E0,-5.350660086E-1,-1.210792303E0,-3.419847786E-1
2.224168333E0,-5.606323481E-1,-1.242750168E0,-2.887215912E-1
2.226157760E0,-5.798070431E-1,-1.283230186E0,-2.301321179E-1
2.228147187E0,-5.936555266E-1,-1.342884898E0,-1.747384220E-1
2.230136614E0,-6.000470519E-1,-1.403604984E0,-1.182794422E-1
2.232126041E0,-6.096344590E-1,-1.453672409E0,-3.944994509E-2
2.234115468E0,-6.096344590E-1,-1.494152427E0,4.577113688E-2
2.236104896E0,-6.138955355E-1,-1.523979783E0,1.299269497E-1
2.238094323E0,-6.192218065E-1,-1.545284986E0,2.098217160E-1
2.240083750E0,-6.128302217E-1,-1.559133410E0,2.769333422E-1
2.242073177E0,-6.032428741E-1,-1.561263919E0,3.344575763E-1
2.244062604E0,-5.840681195E-1,-1.561263919E0,3.781333566E-1
2.246052031E0,-5.606323481E-1,-1.558068156E0,4.068954885E-1
2.248041458E0,-5.329355001E-1,-1.544219732E0,4.313965440E-1
2.250030885E0,-5.073691607E-1,-1.529306054E0,4.441797137E-1
2.252020312E0,-4.775417745E-1,-1.522914529E0,4.473755062E-1
2.254009739E0,-4.541059732E-1,-1.517588139E0,4.431144297E-1
2.255999166E0,-4.285396636E-1,-1.508000851E0,4.399186373E-1
2.257988593E0,-4.008427858E-1,-1.490956545E0,4.260702133E-1
2.259978021E0,-3.731459379E-1,-1.445150256E0,3.983733654E-1
2.261967448E0,-3.433185816E-1,-1.372712374E0,3.546975851E-1
2.263956875E0,-3.039038181E-1,-1.277903914E0,2.939775586E-1
2.265946302E0,-2.527711689E-1,-1.174573302E0,2.204743475E-1
2.267935729E0,-1.888553798E-1,-1.069112182E0,1.363185346E-1
2.269925156E0,-1.206784919E-1,-9.572596550E-1,4.896692559E-2
2.271914583E0,-5.676268414E-2,-8.560595512E-1,-4.903731868E-2
2.273904010E0,5.022597965E-3,-7.761648893E-1,-1.481068283E-1
2.275893437E0,7.532999665E-2,-7.335543633E-1,-2.397194952E-1
2.277882864E0,1.445721090E-1,-7.335543633E-1,-3.270710707E-1
2.279872291E0,2.063573897E-1,-7.687079906E-1,-4.112268984E-1
2.281861718E0,2.649469078E-1,-8.347543478E-1,-4.879258871E-1
2.283851146E0,3.192753494E-1,-9.050617218E-1,-5.518416762E-1
2.285840573E0,3.704079986E-1,-9.764343500E-1,-6.093659401E-1
2.287830000E0,4.279322326E-1,-1.042480588E0,-6.509112120E-1
2.289819427E0,4.801301360E-1,-1.111722708E0,-6.839343905E-1
2.291808854E0,5.259364843E-1,-1.168181777E0,-7.052396536E-1
2.293798281E0,5.664165020E-1,-1.199074388E0,-7.063049078E-1
2.295787708E0,6.015701890E-1,-1.204400659E0,-6.999133229E-1
2.297777135E0,6.250059605E-1,-1.194813371E0,-6.743469834E-1
2.299766562E0,6.345933676E-1,-1.145811200E0,-6.338669658E-1
2.301755989E0,6.345933676E-1,-1.052067995E0,-5.880606771E-1
2.303745416E0,6.122227907E-1,-9.103879929E-1,-5.369279981E-1
2.305734843E0,5.717427731E-1,-7.303584814E-1,-4.815343022E-1
2.307724271E0,5.184796453E-1,-5.236973763E-1,-4.186837375E-1
2.309713698E0,4.588248730E-1,-3.127752244E-1,-3.505068719E-1
2.311703125E0,3.917132616E-1,-1.231583059E-1,-2.770037055E-1
2.313692552E0,3.203406036E-1,1.106490102E-2,-1.928478926E-1
2.315681979E0,2.479026765E-1,6.645860523E-2,-1.023004875E-1
2.317671406E0,1.765300184E-1,4.089228064E-2,-1.175309345E-2
2.319660833E0,9.876579046E-2,-3.154563904E-2,7.666378468E-2
2.321650260E0,1.780575886E-2,-1.242235675E-1,1.618848592E-1
2.323639687E0,-6.102373824E-2,-2.318151891E-1,2.471059412E-1
2.325629114E0,-1.345269382E-1,-3.426025808E-1,3.270007074E-1
2.327618541E0,-2.037690580E-1,-4.491289556E-1,4.047649503E-1
2.329607968E0,-2.676848471E-1,-5.535247326E-1,4.772028625E-1
2.331597396E0,-3.284048736E-1,-6.515289545E-1,5.432491899E-1
2.333586823E0,-3.816680610E-1,-7.463374138E-1,6.018387079E-1
2.335576250E0,-4.381270111E-1,-8.390153646E-1,6.561671495E-1
2.337565677E0,-4.913901985E-1,-9.221059084E-1,7.072997689E-1
2.339555104E0,-5.531755090E-1,-9.711080790E-1,7.477797866E-1
2.341544531E0,-6.202870607E-1,-1.003066063E0,7.797377110E-1
2.343533958E0,-6.980513334E-1,-1.000935435E0,7.893251181E-1
2.345523385E0,-7.768808007E-1,-9.146491289E-1,7.797377110E-1
2.347512864E0,-8.514492512E-1,-7.591205835E-1,7.552366257E-1
2.349502343E0,-9.004514217E-1,-5.567206144E-1,7.168871760E-1
2.351491823E0,-9.313440323E-1,-3.170362711E-1,6.604282260E-1
2.353481302E0,-9.451924562E-1,-7.202565670E-2,5.847945213E-1
2.355470781E0,-9.366703629E-1,1.506144255E-1,4.899860620E-1
2.357460260E0,-9.089735150E-1,3.285134435E-1,3.802638948E-1
2.359449739E0,-8.684934974E-1,4.659324288E-1,2.748028040E-1
2.361439218E0,-8.269482255E-1,5.681977272E-1,1.714722365E-1
2.363428698E0,-7.854029536E-1,6.246566772E-1,7.985957712E-2
2.365418177E0,-7.534450293E-1,6.118735075E-1,9.552176110E-3
2.367407656E0,-7.342702746E-1,5.277177095E-1,-3.305836394E-2
2.369397135E0,-7.342702746E-1,3.902987242E-1,-5.436363444E-2
2.371386614E0,-7.502492666E-1,1.996165514E-1,-5.010258034E-2
2.373376093E0,-7.758155465E-1,2.542792819E-3,-2.666678280E-2
2.375365573E0,-8.045776486E-1,-1.306151450E-1,-5.361512303E-3
2.377355052E0,-8.301439881E-1,-1.870741099E-1,3.160595894E-3
2.379344531E0,-8.482534885E-1,-1.870741099E-1,-4.296248779E-3
2.381334010E0,-8.663629889E-1,-1.508551538E-1,-2.134046517E-2
2.383323489E0,-8.759503365E-1,-8.267828822E-2,-3.944994509E-2
2.385312968E0,-8.897987604E-1,1.532595605E-2,-6.501626968E-2
2.387302448E0,-8.972555995E-1,1.239828318E-1,-9.590891004E-2
2.389291927E0,-9.057776928E-1,2.379660308E-1,-1.374541968E-1
2.391281406E0,-8.940598369E-1,3.657976687E-1,-1.928478926E-1
2.393270885E0,-8.716892600E-1,5.000208616E-1,-2.535679042E-1
2.395260364E0,-8.386660814E-1,6.278524399E-1,-3.249405622E-1
2.397249843E0,-7.800766230E-1,7.301177979E-1,-3.984437287E-1
2.399239323E0,-6.991165876E-1,8.142735958E-1,-4.730121791E-1
2.401228802E0,-5.936555266E-1,8.654062748E-1,-5.539722443E-1
2.403218281E0,-4.764765203E-1,8.909726143E-1,-6.413238049E-1
2.405207760E0,-3.614280522E-1,9.026904106E-1,-7.318712473E-1
2.407197239E0,-2.495753765E-1,9.069515467E-1,-8.192228079E-1
2.409186718E0,-1.505058855E-1,8.835157156E-1,-9.097702503E-1
2.411176198E0,-5.889321491E-2,8.313177824E-1,-1.001382947E0
2.413165677E0,1.567523554E-2,7.269220352E-1,-1.089799762E0
2.415155104E0,7.532999665E-2,5.873724222E-1,-1.170759797E0
2.417144531E0,1.317889541E-1,4.211913645E-1,-1.240001917E0
2.419133958E0,1.775952727E-1,2.305091918E-1,-1.299656630E0
2.421123385E0,2.159447670E-1,3.343543410E-2,-1.349724054E0
2.423112812E0,2.447068840E-1,-1.657688469E-1,-1.390204072E0
2.425102239E0,2.564247847E-1,-3.639078736E-1,-1.409378767E0
2.427091666E0,2.383152992E-1,-5.343500376E-1,-1.398726225E0
2.429081093E0,1.829216033E-1,-6.611163616E-1,-1.349724054E0
2.431070521E0,1.179405302E-1,-7.633817196E-1,-1.287938833E0
2.433059948E0,5.935103819E-2,-8.645817041E-1,-1.213370323E0
2.435049375E0,-1.095635444E-2,-9.529986382E-1,-1.145193458E0
2.437038802E0,-1.132216454E-1,-9.913480282E-1,-1.082342982E0
2.439028229E0,-2.335964441E-1,-1.000935435E0,-1.013100743E0
2.441017656E0,-3.443838358E-1,-1.014783740E0,-9.364018440E-1
2.443007083E0,-4.573017657E-1,-1.040350080E0,-8.522459865E-1
2.444996510E0,-5.776765347E-1,-1.062720656E0,-7.627638578E-1
2.446985937E0,-7.076386809E-1,-1.066981673E0,-6.743469834E-1
2.448975364E0,-8.461229801E-1,-1.071242809E0,-5.912564397E-1
2.450964791E0,-9.814113975E-1,-1.074438572E0,-5.113617182E-1
2.452954218E0,-1.113504052E0,-1.089352250E0,-4.357279539E-1
2.454943646E0,-1.261575699E0,-1.097874284E0,-3.675510883E-1
2.456933073E0,-1.405386329E0,-1.146876454E0,-2.951131761E-1
2.458922500E0,-1.548131585E0,-1.209727049E0,-2.311973870E-1
2.460911927E0,-1.691942215E0,-1.242750168E0,-1.662163138E-1
2.462901354E0,-1.837883353E0,-1.260859609E0,-9.910469502E-2
2.464890781E0,-1.974237084E0,-1.272577524E0,-2.666678280E-2
2.466880208E0,-2.097807646E0,-1.258729100E0,5.109745637E-2
2.468869635E0,-2.229900360E0,-1.236358643E0,1.416448504E-1
2.470859062E0,-2.406734228E0,-1.250207067E0,2.748028040E-1
2.472848489E0,-2.611264706E0,-1.298143864E0,4.367228746E-1
2.474837916E0,-2.831774235E0,-1.350341797E0,5.986429453E-1
2.476827343E0,-3.027782679E0,-1.394017577E0,7.318008542E-1
2.478816771E0,-3.166266918E0,-1.403604984E0,8.298050761E-1
2.480806198E0,-3.247226954E0,-1.385495543E0,8.915903568E-1
2.482795625E0,-3.298359632E0,-1.347146034E0,9.373967052E-1
2.484785052E0,-3.331382990E0,-1.294948101E0,9.725503922E-1
2.486774479E0,-3.346296549E0,-1.232097507E0,1.024748325E0
2.488763906E0,-3.376123905E0,-1.137289047E0,1.117426276E0
2.490753333E0,-3.413408279E0,-9.966744184E-1,1.195190549E0
2.492742760E0,-3.404886007E0,-8.773648739E-1,1.168558955E0
2.494732187E0,-3.316469193E0,-7.910785675E-1,1.116361022E0
2.496721614E0,-3.199290276E0,-6.270279884E-1,1.062032580E0
2.498711041E0,-3.013934374E0,-4.480636716E-1,1.011965156E0
2.500700468E0,-2.791294336E0,-2.467288673E-1,9.587019682E-1
2.502689896E0,-2.536696196E0,-3.793722391E-2,8.319356441E-1
2.504679323E0,-2.219247818E0,1.005470380E-1,6.423187256E-1
2.506668750E0,-1.683420062E0,4.755198061E-1,3.088912368E-1
2.508658177E0,-9.526492953E-1,1.056088567E0,-1.566289365E-1
2.510647604E0,-3.326659203E-1,1.390581250E0,-5.358627439E-1
2.512637031E0,7.213420421E-2,1.371406555E0,-7.489154339E-1
2.514626458E0,2.990353405E-1,1.172202229E0,-8.256143928E-1
2.516615885E0,4.108880162E-1,8.952336311E-1,-8.245491385E-1
2.518605312E0,4.545637965E-1,5.958945751E-1,-8.075049520E-1
2.520594739E0,4.662817121E-1,3.295786977E-1,-8.075049520E-1
2.522584166E0,4.684122205E-1,1.303744167E-1,-8.362670541E-1
2.524573593E0,4.769343436E-1,1.477529295E-3,-8.788775802E-1
2.526563021E0,4.705427587E-1,-3.261090443E-2,-9.172270894E-1
2.528552448E0,4.471069574E-1,-1.343616005E-2,-9.470544457E-1
2.530541875E0,3.991701007E-1,2.278279886E-2,-9.640986919E-1
2.532531302E0,3.246016502E-1,6.219755113E-2,-9.651639462E-1
2.534520729E0,2.308584601E-1,1.122649312E-1,-9.300102592E-1
2.536510156E0,1.158100069E-1,1.506144255E-1,-8.735512495E-1
2.538499583E0,-3.037196002E-4,1.857681125E-1,-8.075049520E-1
2.540489010E0,-1.078953296E-1,2.294439226E-1,-7.521112561E-1
2.542478437E0,-2.090953737E-1,2.699239254E-1,-6.977828145E-1
2.544467864E0,-2.975122333E-1,3.146649897E-1,-6.381280422E-1
2.546457291E0,-3.774070144E-1,3.594060838E-1,-5.699511766E-1
2.548446718E0,-4.423880875E-1,3.871029317E-1,-5.102964044E-1
2.550436146E0,-4.977817833E-1,3.913639784E-1,-4.804690480E-1
2.552425573E0,-5.361312628E-1,3.817766011E-1,-4.549027085E-1
2.554415000E0,-5.616976023E-1,3.562102914E-1,-4.293363690E-1
2.556404427E0,-5.776765347E-1,3.295786977E-1,-3.984437287E-1
2.558393854E0,-5.819376111E-1,2.922944725E-1,-3.600942492E-1
2.560383281E0,-5.808723569E-1,2.518144548E-1,-3.238753080E-1
2.562372708E0,-5.787417889E-1,2.070733905E-1,-2.887215912E-1
2.564362135E0,-5.734155178E-1,1.719196886E-1,-2.556984425E-1
2.566351562E0,-5.712849498E-1,1.580712646E-1,-2.077615857E-1
2.568340989E0,-5.723502040E-1,1.548754722E-1,-1.555636674E-1
2.570330416E0,-5.776765347E-1,1.623323262E-1,-9.803943336E-2
2.572319843E0,-5.830028653E-1,1.761807501E-1,-4.158047214E-2
2.574309271E0,-5.936555266E-1,2.006818056E-1,1.807428524E-2
2.576298698E0,-6.032428741E-1,2.369007617E-1,7.985957712E-2
2.578288125E0,-6.160260439E-1,2.837723494E-1,1.427101195E-1
2.580277552E0,-6.234828830E-1,3.349049985E-1,2.034301311E-1
2.582266979E0,-6.415923834E-1,3.743197620E-1,2.449754030E-1
2.584256458E0,-6.650281549E-1,3.988208175E-1,2.716070116E-1
2.586245937E0,-6.831376553E-1,4.158650339E-1,2.971733510E-1
2.588235416E0,-7.012470961E-1,4.307787418E-1,3.259354532E-1
2.590224896E0,-7.129650116E-1,4.414313734E-1,3.440449238E-1
2.592214375E0,-7.214871049E-1,4.393008351E-1,3.557628393E-1
2.594203854E0,-7.300092578E-1,4.254524112E-1,3.738723099E-1
2.596193333E0,-7.364007831E-1,4.041471481E-1,3.887860179E-1
2.598182812E0,-7.300092578E-1,3.594060838E-1,4.090259969E-1
2.600172291E0,-7.087039351E-1,2.976208031E-1,4.292660058E-1
2.602161771E0,-7.012470961E-1,2.262481302E-1,4.377881289E-1
2.604151250E0,-6.905944943E-1,1.719196886E-1,4.463102221E-1
2.606140729E0,-6.863334179E-1,1.388965249E-1,4.569628835E-1
2.608130208E0,-6.788765788E-1,1.111996695E-1,4.644197226E-1
2.610119687E0,-6.714197397E-1,6.752386689E-2,4.558975995E-1
2.612109166E0,-6.618323922E-1,2.171753719E-2,4.484407604E-1
2.614098646E0,-6.458534002E-1,-2.195826918E-2,4.367228746E-1
2.616088125E0,-6.405270696E-1,-8.480881900E-2,4.175481200E-1
2.618077604E0,-6.309397221E-1,-1.412677765E-1,4.026344419E-1
2.620067083E0,-6.234828830E-1,-2.019878030E-1,3.887860179E-1
2.622056562E0,-6.277439594E-1,-2.605772913E-1,3.738723099E-1
2.624046041E0,-6.309397221E-1,-2.925352156E-1,3.578933477E-1
2.626035521E0,-6.394618154E-1,-3.276889026E-1,3.483060002E-1
2.628025000E0,-6.533102393E-1,-3.660383821E-1,3.387186229E-1
2.630014479E0,-6.746155024E-1,-4.054531455E-1,3.184786141E-1
2.632003958E0,-6.991165876E-1,-4.256931543E-1,3.035649061E-1
2.633993437E0,-7.129650116E-1,-4.342152476E-1,2.897164822E-1
2.635982916E0,-7.236176729E-1,-4.267584085E-1,2.833249271E-1
2.637972396E0,-7.268134356E-1,-4.203668237E-1,2.726722658E-1
2.639961875E0,-7.321397662E-1,-4.203668237E-1,2.598891258E-1
2.641951354E0,-7.278786898E-1,-4.214320779E-1,2.556280494E-1
2.643940833E0,-7.193565965E-1,-4.182362854E-1,2.588238418E-1
2.645930312E0,-7.140302658E-1,-4.235626161E-1,2.598891258E-1
2.647919791E0,-7.065734267E-1,-4.299542010E-1,2.684112191E-1
2.649909271E0,-6.948555112E-1,-4.491289556E-1,2.779985964E-1
2.651898750E0,-6.778113246E-1,-4.906742275E-1,2.950428128E-1
2.653888177E0,-6.415923834E-1,-5.173058510E-1,3.195438683E-1
2.655877604E0,-5.957860351E-1,-5.609816313E-1,3.355228305E-1
2.657867031E0,-5.435881019E-1,-6.035921574E-1,3.536323011E-1
2.659856458E0,-4.871291518E-1,-6.451374292E-1,3.802638948E-1
2.661845885E0,-4.274743795E-1,-6.824216843E-1,4.068954885E-1
2.663835312E0,-3.614280522E-1,-7.005311251E-1,4.324617982E-1
2.665824739E0,-2.836638093E-1,-6.962701082E-1,4.601586461E-1
2.667814166E0,-1.973774880E-1,-6.834869385E-1,4.931818247E-1
2.669803593E0,-1.153521761E-1,-6.611163616E-1,5.283355117E-1
2.671793021E0,-2.800057083E-2,-6.206363440E-1,5.688155293E-1
2.673782448E0,4.017629102E-2,-5.769605637E-1,6.156871319E-1
2.675771875E0,7.639525831E-2,-5.332847834E-1,6.668198109E-1
2.677761302E0,8.385210484E-2,-4.906742275E-1,7.104955912E-1
2.679750729E0,6.361209601E-2,-4.491289556E-1,7.328661084E-1
2.681740156E0,3.591523692E-2,-3.916047215E-1,7.413882017E-1
2.683729583E0,1.567523554E-2,-3.340804875E-1,7.413882017E-1
2.685719010E0,1.567523554E-2,-2.744257152E-1,7.360619307E-1
2.687708437E0,3.271945193E-2,-2.190320194E-1,7.275397778E-1
2.689697864E0,4.763313755E-2,-1.497898996E-1,7.115608454E-1
2.691687291E0,6.041629985E-2,-8.587408066E-2,6.806682348E-1
2.693676718E0,6.680788845E-2,-1.769721508E-2,6.316660643E-1
2.695666146E0,6.467735767E-2,4.302280396E-2,5.698807836E-1
2.697655573E0,4.763313755E-2,9.095966816E-2,4.953123331E-1
2.699645000E0,2.100155130E-2,1.293091476E-1,4.143523276E-1
2.701634427E0,-1.308688149E-2,1.559407413E-1,3.216744065E-1
2.703623854E0,-3.865320608E-2,1.836375892E-1,2.279312015E-1
2.705613281E0,-6.635005772E-2,2.028123289E-1,1.363185346E-1
2.707602708E0,-1.015037522E-1,2.134649754E-1,5.109745637E-2
2.709592135E0,-1.377227157E-1,2.081386447E-1,-2.560151741E-2
2.711581562E0,-1.750069410E-1,1.857681125E-1,-1.001699641E-1
2.713570989E0,-2.133564353E-1,1.474186331E-1,-1.566289365E-1
2.715560416E0,-2.485101372E-1,9.522071481E-2,-2.045657933E-1
2.717549843E0,-2.751417160E-1,3.023964539E-2,-2.471763343E-1
2.719539271E0,-2.847290635E-1,-3.367616981E-2,-2.759384513E-1
2.721528698E0,-2.836638093E-1,-8.906987309E-2,-2.929826379E-1
2.723518125E0,-2.687501311E-1,-1.380719990E-1,-3.047005534E-1
2.725507552E0,-2.261395901E-1,-1.966614872E-1,-2.993742228E-1
2.727496979E0,-1.664848477E-1,-2.435330749E-1,-2.855257988E-1
2.729486406E0,-1.238742843E-1,-2.275541276E-1,-2.908521295E-1
2.731475833E0,-8.126374334E-2,-1.306151450E-1,-3.260058165E-1
2.733465260E0,-3.013109788E-2,-5.924249440E-2,-3.483763635E-1
2.735454687E0,2.952365950E-2,-2.515405789E-2,-3.451805711E-1
2.737444114E0,8.704788983E-2,3.608056344E-3,-3.302668631E-1
2.739433541E0,1.488331705E-1,9.309019148E-2,-3.355931938E-1
2.741422968E0,2.116837054E-1,2.518144548E-1,-3.537026644E-1
2.743412396E0,2.937090099E-1,4.073429406E-1,-3.792690039E-1
2.745401823E0,3.821258843E-1,4.978903234E-1,-3.973784745E-1
2.747391250E0,4.843912125E-1,5.277177095E-1,-4.090963900E-1
2.749380677E0,5.802649260E-1,5.596755743E-1,-4.186837375E-1
2.751370104E0,6.686818004E-1,6.044167280E-1,-4.293363690E-1
2.753359531E0,7.475112677E-1,6.459619999E-1,-4.485111237E-1
2.755348958E0,8.114271164E-1,6.757893562E-1,-4.751427174E-1
2.757338385E0,8.529723883E-1,6.896377802E-1,-4.879258871E-1
2.759327812E0,8.827997446E-1,6.938987970E-1,-4.921869338E-1
2.761317239E0,9.158229232E-1,6.949640512E-1,-4.943174720E-1
2.763306666E0,9.509766102E-1,7.013556957E-1,-4.900563955E-1
2.765296093E0,9.839997292E-1,7.034862041E-1,-4.847300947E-1
2.767285521E0,1.008500814E0,6.907030344E-1,-4.772732556E-1
2.769274948E0,1.027675629E0,6.960293055E-1,-4.655553401E-1
2.771264375E0,1.038328171E0,6.970945597E-1,-4.602290392E-1
2.773253802E0,1.042589307E0,7.002904415E-1,-4.591637552E-1
2.775243229E0,1.045785069E0,7.141388655E-1,-4.655553401E-1
2.777232656E0,1.041524053E0,7.375745773E-1,-4.772732556E-1
2.779222083E0,1.053241968E0,7.674020529E-1,-4.932521880E-1
2.781211510E0,1.062829256E0,7.972294092E-1,-5.198838115E-1
2.783200937E0,1.070286155E0,8.206651211E-1,-5.624943376E-1
2.785190364E0,1.075612426E0,8.387746811E-1,-6.178880334E-1
2.787179791E0,1.084134579E0,8.536883593E-1,-6.828690767E-1
2.789169218E0,1.094787240E0,8.675367832E-1,-7.542417645E-1
2.791158646E0,1.119288206E0,8.845809698E-1,-8.352017999E-1
2.793148073E0,1.144854546E0,9.090820551E-1,-9.214881063E-1
2.795137500E0,1.174681902E0,9.314526320E-1,-1.021622896E0
2.797126927E0,1.208770394E0,9.538230896E-1,-1.127084017E0
2.799116354E0,1.236467242E0,9.740631580E-1,-1.236806154E0
2.801105781E0,1.248185158E0,9.825851917E-1,-1.349724054E0
2.803095208E0,1.248185158E0,9.655410051E-1,-1.460511446E0
2.805084635E0,1.249250412E0,9.314526320E-1,-1.573429465E0
2.807074062E0,1.253511429E0,8.696672916E-1,-1.697000027E0
2.809063489E0,1.254576683E0,8.100125790E-1,-1.812048435E0
2.811052916E0,1.257772565E0,7.801852226E-1,-1.919640064E0
2.813042343E0,1.259903073E0,7.684673071E-1,-2.029362440E0
2.815031771E0,1.253511429E0,7.695325613E-1,-2.132693052E0
2.817021198E0,1.246054649E0,7.823157310E-1,-2.234958410E0
2.819010677E0,1.237532496E0,8.110778332E-1,-2.335093021E0
2.821000156E0,1.223684072E0,8.441009521E-1,-2.435227871E0
2.822989635E0,1.209835649E0,8.728630543E-1,-2.532166719E0
2.824979114E0,1.201313496E0,8.920378685E-1,-2.630171061E0
2.826968593E0,1.186399817E0,9.058862925E-1,-2.721783638E0
2.828958073E0,1.164029360E0,9.112125635E-1,-2.801678419E0
2.830947552E0,1.135267258E0,9.186694622E-1,-2.864529133E0
2.832937031E0,1.104374528E0,9.282567501E-1,-2.911400557E0
2.834926510E0,1.063894510E0,9.410399199E-1,-2.942293167E0
2.836915989E0,1.010631323E0,9.453010559E-1,-2.951880693E0
2.838905468E0,9.424545169E-1,9.389094114E-1,-2.940162659E0
2.840894948E0,8.678860664E-1,9.282567501E-1,-2.901813269E0
2.842884427E0,7.975786924E-1,9.186694622E-1,-2.844289064E0
2.844873906E0,7.368586659E-1,9.112125635E-1,-2.779307842E0
2.846863385E0,6.803996563E-1,9.101473093E-1,-2.700478554E0
2.848852864E0,6.154186130E-1,8.920378685E-1,-2.599278450E0
2.850842343E0,5.440459251E-1,8.430356979E-1,-2.477838278E0
2.852831823E0,4.748038054E-1,7.876420021E-1,-2.347876310E0
2.854821302E0,4.258016944E-1,7.194651365E-1,-2.200869799E0
2.856810781E0,3.885174692E-1,6.438314915E-1,-2.046406746E0
2.858800260E0,3.608206213E-1,5.554145575E-1,-1.889812708E0
2.860789739E0,3.405806124E-1,4.478229582E-1,-1.741741061E0
2.862779218E0,3.235363960E-1,3.231871128E-1,-1.596865177E0
2.864768698E0,3.139490187E-1,1.847028583E-1,-1.456250429E0
2.866758177E0,3.107532263E-1,1.745648310E-2,-1.324157715E0
2.868747656E0,3.160795569E-1,-1.828130633E-1,-1.201652408E0
2.870737135E0,3.352542818E-1,-4.033226073E-1,-1.086603999E0
2.872726614E0,3.618858755E-1,-6.291584969E-1,-9.864692092E-1
2.874716093E0,4.013006389E-1,-8.539290428E-1,-8.959218264E-1
2.876705573E0,4.620206654E-1,-1.056329012E0,-8.309407234E-1
2.878695052E0,5.259364843E-1,-1.190552235E0,-8.128312826E-1
2.880684531E0,5.685470104E-1,-1.222510219E0,-8.256143928E-1
2.882674010E0,6.058312058E-1,-1.213988066E0,-8.298754692E-1
2.884663489E0,6.452459693E-1,-1.186291218E0,-8.107007146E-1
2.886652968E0,6.889218092E-1,-1.145811200E0,-7.680901885E-1
2.888642448E0,7.421849370E-1,-1.095743775E0,-7.265449166E-1
2.890631875E0,8.327323794E-1,-1.008392215E0,-7.020438313E-1
2.892621302E0,1.005305052E0,-8.209059238E-1,-6.679553986E-1
2.894610729E0,1.172551394E0,-6.238321066E-1,-6.391932964E-1
2.896600156E0,1.318492532E0,-4.235626161E-1,-6.136269569E-1
2.898589583E0,1.439932585E0,-2.350109816E-1,-5.859301090E-1
2.900579010E0,1.519827366E0,-3.261090443E-2,-5.443848372E-1
2.902568437E0,1.569894671E0,1.623323262E-1,-4.772732556E-1
2.904557864E0,1.607178926E0,3.285134435E-1,-3.803342581E-1
2.906547291E0,1.632745266E0,4.680629671E-1,-2.620899975E-1
2.908536718E0,1.651919961E0,5.863071680E-1,-1.310626119E-1
2.910526146E0,1.661507368E0,6.917682886E-1,-4.296248779E-3
2.912515573E0,1.671094775E0,7.812504768E-1,1.075564250E-1
2.914505000E0,1.681747437E0,8.483620882E-1,1.895817071E-1
2.916494427E0,1.696661115E0,8.771241903E-1,2.407143563E-1
2.918483854E0,1.712640047E0,8.994946480E-1,2.652154267E-1
2.920473281E0,1.731814742E0,9.026904106E-1,2.705417573E-1
2.922462708E0,1.758446336E0,9.048210382E-1,2.609543800E-1
2.924452135E0,1.771229506E0,9.186694622E-1,2.407143563E-1
2.926441562E0,1.791469574E0,9.602147341E-1,2.162133008E-1
2.928430989E0,1.795730591E0,9.687367678E-1,1.661459059E-1
2.930420416E0,1.788273692E0,9.591494799E-1,1.107522175E-1
2.932409843E0,1.775490522E0,9.527578354E-1,5.535851419E-2
2.934399271E0,1.750989556E0,9.644757509E-1,2.095332369E-3
2.936388698E0,1.716901064E0,9.708672762E-1,-5.116784200E-2
2.938378125E0,1.675355792E0,9.719326496E-1,-1.054962799E-1
2.940367552E0,1.625288367E0,9.612799883E-1,-1.576942056E-1
2.942356979E0,1.569894671E0,9.453010559E-1,-2.088268548E-1
2.944346406E0,1.511305213E0,9.282567501E-1,-2.493068576E-1
2.946335833E0,1.443128347E0,9.080168009E-1,-2.897868752E-1
2.948325260E0,1.362168312E0,9.165389538E-1,-3.323974013E-1
2.950314687E0,1.286534667E0,9.410399199E-1,-3.696816266E-1
2.952304114E0,1.213031411E0,9.506273270E-1,-4.037700593E-1
2.954293541E0,1.145919800E0,9.559535980E-1,-4.389237463E-1
2.956282968E0,1.076677680E0,9.570188522E-1,-4.730121791E-1
2.958272396E0,1.006370306E0,9.676715136E-1,-4.953827262E-1
2.960261823E0,9.467155337E-1,9.868463278E-1,-5.102964044E-1
2.962251250E0,8.870608211E-1,1.001760125E0,-5.166879892E-1
2.964240677E0,8.306018114E-1,1.007086396E0,-5.209490657E-1
2.966230104E0,7.752081156E-1,1.014543176E0,-5.241448283E-1
2.968219531E0,7.240754962E-1,1.020934820E0,-5.188184977E-1
2.970208958E0,6.750733852E-1,1.017739058E0,-5.198838115E-1
2.972198385E0,6.260712147E-1,9.793894291E-1,-5.241448283E-1
2.974187812E0,5.760038495E-1,9.058862925E-1,-5.358627439E-1
2.976177239E0,5.344585776E-1,8.249262571E-1,-5.475806594E-1
2.978166666E0,5.078269839E-1,7.492924929E-1,-5.507764220E-1
2.980156093E0,4.843912125E-1,6.843113899E-1,-5.539722443E-1
2.982145521E0,4.694775045E-1,6.353093386E-1,-5.550374985E-1
2.984134948E0,4.609553814E-1,5.863071680E-1,-5.561027527E-1
2.986124375E0,4.545637965E-1,5.405008793E-1,-5.561027527E-1
2.988113802E0,4.513680339E-1,4.925640225E-1,-5.561027527E-1
2.990103229E0,4.492374957E-1,4.520840049E-1,-5.529069304E-1
2.992092656E0,4.503027499E-1,4.073429406E-1,-5.497111678E-1
2.994082083E0,4.534985423E-1,3.508839607E-1,-5.433195829E-1
2.996071510E0,4.609553814E-1,2.901639342E-1,-5.358627439E-1
2.998060937E0,4.694775045E-1,2.230523378E-1,-5.273406506E-1
3.000050364E0,4.854564667E-1,1.559407413E-1,-5.209490657E-1
3.002039791E0,5.035659075E-1,8.137229085E-2,-5.092311502E-1
3.004029218E0,5.238059163E-1,3.608056344E-3,-4.964479804E-1
3.006018646E0,5.440459251E-1,-6.669934094E-2,-4.847300947E-1
3.008008073E0,5.674817562E-1,-1.199625134E-1,-4.740774632E-1
3.009997500E0,6.015701890E-1,-1.178319901E-1,-4.900563955E-1
3.011986927E0,6.313975453E-1,-1.252888292E-1,-5.124269128E-1
3.013976354E0,6.590943933E-1,-1.348762065E-1,-5.294711590E-1
3.015965781E0,6.867912412E-1,-1.423330456E-1,-5.475806594E-1
3.017955208E0,7.091618180E-1,-1.519204229E-1,-5.678206682E-1
3.019944635E0,7.294018269E-1,-1.455288380E-1,-5.933869481E-1
3.021934062E0,7.485765219E-1,-1.188972518E-1,-6.200185418E-1
3.023923489E0,7.645555139E-1,-8.267828822E-2,-6.477153897E-1
3.025912916E0,7.784039378E-1,-2.941511199E-2,-6.796733141E-1
3.027902343E0,7.879912853E-1,2.384806424E-2,-7.137617469E-1
3.029891771E0,7.997092009E-1,7.924176753E-2,-7.467849255E-1
3.031881198E0,8.124923706E-1,1.506144255E-1,-7.776775360E-1
3.033870625E0,8.167533875E-1,2.198565453E-1,-8.117659688E-1
3.035860052E0,8.252755404E-1,2.933597267E-1,-8.479849696E-1
3.037849479E0,8.348628879E-1,3.807113469E-1,-8.767470717E-1
3.039838906E0,8.519071341E-1,4.701934755E-1,-9.044439197E-1
3.041828333E0,8.614944816E-1,5.532840490E-1,-9.310755134E-1
3.043817760E0,8.806692362E-1,6.331788301E-1,-9.513155222E-1
3.045807239E0,8.913218379E-1,7.045514584E-1,-9.747512937E-1
3.047796718E0,8.998439908E-1,7.631409168E-1,-9.949913025E-1
3.049786198E0,9.104965925E-1,8.046861887E-1,-1.018427134E0
3.051775677E0,9.190186858E-1,8.323830366E-1,-1.037601829E0
3.053765156E0,9.190186858E-1,8.792546988E-1,-1.057841897E0
3.055754635E0,9.254102707E-1,9.293220043E-1,-1.078081846E0
3.057744114E0,9.413892627E-1,9.389094114E-1,-1.089799762E0
3.059733593E0,9.541723728E-1,9.250609875E-1,-1.091930270E0
3.061723073E0,9.616292715E-1,9.101473093E-1,-1.083408237E0
3.063712552E0,9.658902884E-1,8.867114782E-1,-1.065298676E0
3.065702031E0,9.605639577E-1,8.568841219E-1,-1.038667083E0
3.067691510E0,9.499113560E-1,8.164041042E-1,-1.009904981E0
3.069680989E0,9.318018556E-1,7.535536289E-1,-9.758165479E-1
3.071670468E0,9.094313383E-1,6.683324575E-1,-9.374670982E-1
3.073659948E0,8.806692362E-1,5.724587440E-1,-8.959218264E-1
3.075649427E0,8.455155492E-1,4.755198061E-1,-8.490502238E-1
3.077638906E0,8.018397093E-1,3.849723935E-1,-8.053743839E-1
3.079628385E0,7.475112677E-1,2.944250107E-1,-7.606333494E-1
3.081617864E0,6.878564954E-1,2.187912911E-1,-7.201533318E-1
3.083607343E0,6.218101978E-1,1.527449489E-1,-6.796733141E-1
3.085596823E0,5.610901713E-1,1.005470380E-1,-6.413238049E-1
3.087586302E0,4.897174835E-1,6.219755113E-2,-6.125617027E-1
3.089575781E0,4.226059020E-1,1.958701015E-2,-5.869953632E-1
3.091565260E0,3.661469221E-1,-2.728458494E-2,-5.624943376E-1
3.093554739E0,3.086227179E-1,-7.415618002E-2,-5.411890745E-1
3.095544218E0,2.542942762E-1,-1.210277751E-1,-5.209490657E-1
3.097533698E0,2.020963430E-1,-1.615077853E-1,-5.007090569E-1
3.099523177E0,1.530942172E-1,-2.051835954E-1,-4.825995564E-1
3.101512656E0,1.126142144E-1,-2.211625427E-1,-4.570332468E-1
3.103502135E0,6.680788845E-2,-2.105099112E-1,-4.304016531E-1
3.105491614E0,2.313207835E-2,-1.934656948E-1,-4.037700593E-1
3.107481093E0,-1.308688149E-2,-1.774867475E-1,-3.782037497E-1
3.109470573E0,-4.504479095E-2,-1.593772620E-1,-3.451805711E-1
3.111460052E0,-7.593742758E-2,-1.242235675E-1,-3.132226467E-1
3.113449531E0,-1.025690138E-1,-9.759198129E-2,-2.791342139E-1
3.115439010E0,-1.345269382E-1,-8.054776490E-2,-2.503721118E-1
3.117428437E0,-1.590279937E-1,-8.693934232E-2,-2.205447406E-1
3.119417864E0,-1.888553798E-1,-9.439618886E-2,-1.864563078E-1
3.121407291E0,-2.122911662E-1,-1.199625134E-1,-1.544984132E-1
3.123396718E0,-2.346617132E-1,-1.796172708E-1,-1.289320886E-1
3.125386146E0,-2.549017072E-1,-2.605772913E-1,-1.001699641E-1
3.127375573E0,-2.730111778E-1,-3.575162888E-1,-7.140784711E-2
3.129365000E0,-2.911206484E-1,-4.885436893E-1,-4.797205329E-2
3.131354427E0,-3.156217337E-1,-6.525943279E-1,-3.518889099E-2
3.133343854E0,-3.411880434E-1,-8.517985344E-1,-1.814467460E-2
3.135333281E0,-3.603627980E-1,-1.009457469E0,1.030068845E-3
3.137322708E0,-3.869943619E-1,-1.171377540E0,1.700902358E-2
3.139312135E0,-4.232133329E-1,-1.284295440E0,2.020481229E-2
3.141301562E0,-4.807375669E-1,-1.310927033E0,4.225859419E-3
3.143290989E0,-5.563712716E-1,-1.236358643E0,-3.518889099E-2
3.145280416E0,-6.309397221E-1,-1.119179606E0,-8.738680184E-2
3.147269843E0,-6.916597486E-1,-1.016914368E0,-1.449110359E-1
3.149259271E0,-7.438576818E-1,-9.316933155E-1,-2.056310624E-1
3.151248698E0,-7.843376398E-1,-8.581901789E-1,-2.695468664E-1
3.153238125E0,-8.099039793E-1,-8.123837709E-1,-3.355931938E-1
3.155227552E0,-8.226871490E-1,-7.974700928E-1,-3.995090127E-1
3.157216979E0,-8.312092423E-1,-8.049269915E-1,-4.612942934E-1
3.159206406E0,-8.333398104E-1,-8.304933310E-1,-5.273406506E-1
3.161195833E0,-8.376008272E-1,-8.752343655E-1,-5.944522023E-1
3.163185260E0,-8.429271579E-1,-9.189101458E-1,-6.594333053E-1
3.165174687E0,-8.535798192E-1,-9.529986382E-1,-7.201533318E-1
3.167164114E0,-8.621019125E-1,-9.806954861E-1,-7.808733582E-1
3.169153541E0,-8.748850822E-1,-9.966744184E-1,-8.352017999E-1
3.171142968E0,-8.908640146E-1,-9.988049269E-1,-8.884649873E-1
3.173132396E0,-9.068429470E-1,-9.870870113E-1,-9.364018440E-1
3.175121823E0,-9.292135239E-1,-9.657818079E-1,-9.811428785E-1
3.177111250E0,-9.505187869E-1,-9.359543324E-1,-1.020557642E0
3.179100677E0,-9.707587957E-1,-9.082574844E-1,-1.053580761E0
3.181090104E0,-9.824767113E-1,-8.890827894E-1,-1.079147100E0
3.183079531E0,-9.888682365E-1,-8.794953823E-1,-1.097256660E0
3.185068958E0,-9.867377281E-1,-8.699080944E-1,-1.111105084E0
3.187058385E0,-9.803461432E-1,-8.592554331E-1,-1.123888254E0
3.189047812E0,-9.664977193E-1,-8.486027718E-1,-1.129214525E0
3.191037239E0,-9.537145495E-1,-8.358196020E-1,-1.134540796E0
3.193026666E0,-9.419966936E-1,-8.038617373E-1,-1.137736678E0
3.195016093E0,-9.302787781E-1,-7.697732449E-1,-1.136671305E0
3.197005521E0,-9.142998457E-1,-7.324889898E-1,-1.137736678E0
3.198994948E0,-8.961903453E-1,-6.920089722E-1,-1.134540796E0
3.200984375E0,-8.684934974E-1,-6.600511074E-1,-1.120692372E0
3.202973802E0,-8.312092423E-1,-6.366152763E-1,-1.094060779E0
3.204963229E0,-7.885987163E-1,-6.185058355E-1,-1.057841897E0
3.206952656E0,-7.321397662E-1,-6.110490561E-1,-1.002448201E0
3.208942083E0,-6.660934091E-1,-6.142448187E-1,-9.310755134E-1
3.210931510E0,-6.245481372E-1,-5.950700045E-1,-8.501154780E-1
3.212920937E0,-6.778113246E-1,-5.045226812E-1,-7.638291121E-1
3.214910364E0,-6.980513334E-1,-4.683036804E-1,-6.754122376E-1
3.216899791E0,-6.597018242E-1,-4.821521044E-1,-5.891259313E-1
3.218889218E0,-5.702196956E-1,-5.183711052E-1,-5.039048195E-1
3.220878646E0,-4.573017657E-1,-5.673731565E-1,-4.186837375E-1
3.222868073E0,-3.316006660E-1,-5.897437334E-1,-3.345279396E-1
3.224857500E0,-1.952469498E-1,-5.780258179E-1,-2.482416034E-1
3.226846927E0,-6.421952695E-2,-5.450026989E-1,-1.630205214E-1
3.228836354E0,6.361209601E-2,-4.885436893E-1,-8.525627106E-2
3.230825781E0,2.191405594E-1,-4.310194552E-1,-4.296248779E-3
3.232815208E0,3.459069431E-1,-3.671036661E-1,7.240273058E-2
3.234804635E0,4.769343436E-1,-2.946657240E-1,1.501669586E-1
3.236794062E0,6.037006974E-1,-2.169014961E-1,2.226048857E-1
3.238783489E0,7.262060046E-1,-1.359414607E-1,2.939775586E-1
3.240772916E0,8.444502354E-1,-6.350354850E-2,3.589586318E-1
3.242762343E0,9.520418644E-1,1.426069066E-2,4.143523276E-1
3.244751771E0,1.043654561E0,8.882913738E-2,4.548323452E-1
3.246741198E0,1.135267258E0,1.506144255E-1,4.899860620E-1
3.248730625E0,1.216227174E0,2.060081214E-1,5.166176558E-1
3.250720052E0,1.281208277E0,2.582060397E-1,5.400534272E-1
3.252709479E0,1.353646278E0,2.965555191E-1,5.645545125E-1
3.254698906E0,1.417562008E0,3.274481595E-1,5.879902840E-1
3.256688333E0,1.478282094E0,3.476881683E-1,6.156871319E-1
3.258677760E0,1.534741044E0,3.700587153E-1,6.540366411E-1
3.260667187E0,1.575221062E0,3.924292326E-1,6.966471672E-1
3.262656666E0,1.610374689E0,4.211913645E-1,7.456492782E-1
3.264646146E0,1.634875774E0,4.542145133E-1,8.042387962E-1
3.266635625E0,1.657246351E0,4.936292768E-1,8.617630005E-1
3.268625104E0,1.665768385E0,5.170650482E-1,9.128956795E-1
3.270614583E0,1.666833758E0,5.298482180E-1,9.608325362E-1
3.272604062E0,1.662572622E0,5.255872011E-1,9.981167316E-1
3.274593541E0,1.654050589E0,5.223914385E-1,1.031139851E0
3.276583021E0,1.635941029E0,5.159997940E-1,1.057771444E0
3.278572500E0,1.610374689E0,5.085430145E-1,1.081207275E0
3.280561979E0,1.574155807E0,5.085430145E-1,1.098251462E0
3.282551458E0,1.532610536E0,5.181303024E-1,1.114230514E0
3.284540937E0,1.482543111E0,5.298482180E-1,1.129144192E0
3.286530416E0,1.421823144E0,5.522187948E-1,1.140862107E0
3.288519896E0,1.361103058E0,5.713934898E-1,1.152579904E0
3.290509375E0,1.299317837E0,5.852419138E-1,1.162167311E0
3.292498854E0,1.237532496E0,6.001555920E-1,1.171754718E0
3.294488333E0,1.171486139E0,6.022861004E-1,1.172819972E0
3.296477812E0,1.108635664E0,5.863071680E-1,1.173885226E0
3.298467291E0,1.045785069E0,5.554145575E-1,1.171754718E0
3.300456771E0,9.754776955E-1,5.245219469E-1,1.167493582E0
3.302446250E0,9.041050076E-1,4.946945310E-1,1.158971548E0
3.304435729E0,8.337976336E-1,4.712587297E-1,1.148318887E0
3.306425208E0,7.539028525E-1,4.478229582E-1,1.138731480E0
3.308414687E0,6.740080714E-1,4.222566187E-1,1.127013683E0
3.310404166E0,5.887870193E-1,4.030818641E-1,1.114230514E0
3.312393646E0,5.067617297E-1,3.828418553E-1,1.096120954E0
3.314383125E0,4.194101095E-1,3.562102914E-1,1.080142021E0
3.316372604E0,3.395153582E-1,3.253176510E-1,1.065228343E0
3.318362083E0,2.564247847E-1,2.816418409E-1,1.052445173E0
3.320351562E0,1.850521266E-1,2.305091918E-1,1.043923020E0
3.322341041E0,1.147447526E-1,1.740502119E-1,1.039662004E0
3.324330521E0,5.082892999E-2,1.186565161E-1,1.038596749E0
3.326320000E0,-3.037196002E-4,6.113228947E-2,1.038596749E0
3.328309479E0,-3.971847147E-2,9.999637492E-3,1.035400987E0
3.330298958E0,-6.421952695E-2,-4.752459377E-2,1.031139851E0
3.332288437E0,-7.913322002E-2,-9.759198129E-2,1.025813580E0
3.334277916E0,-8.126374334E-2,-1.295498908E-1,1.017291427E0
3.336267343E0,-7.380689681E-2,-1.465941072E-1,1.004508376E0
3.338256771E0,-6.208900735E-2,-1.508551538E-1,9.874641299E-1
3.340246198E0,-4.611005262E-2,-1.391372532E-1,9.640282989E-1
3.342235625E0,-2.160898969E-2,-1.263540983E-1,9.416577816E-1
3.344225052E0,6.087861490E-3,-1.082446128E-1,9.128956795E-1
3.346214479E0,3.804576769E-2,-7.948249578E-2,8.809377551E-1
3.348203906E0,7.319946587E-2,-4.326353967E-2,8.479145765E-1
3.350193333E0,1.062226370E-1,-6.529977545E-4,8.116956353E-1
3.352182760E0,1.445721090E-1,4.515333474E-2,7.722808719E-1
3.354172187E0,1.797258109E-1,8.989439905E-2,7.296703458E-1
3.356161614E0,2.170100361E-1,1.388965249E-1,6.881250739E-1
3.358151041E0,2.479026765E-1,1.878986508E-1,6.433839798E-1
3.360140468E0,2.777300775E-1,2.337049842E-1,6.007734537E-1
3.362129896E0,2.990353405E-1,2.741850019E-1,5.624239445E-1
3.364119323E0,3.128837645E-1,3.157302737E-1,5.304660797E-1
3.366108750E0,3.246016502E-1,3.530144989E-1,4.995734096E-1
3.368098177E0,3.341890275E-1,3.785808086E-1,4.750723541E-1
3.370087604E0,3.373848200E-1,3.902987242E-1,4.505712986E-1
3.372077031E0,3.331237733E-1,3.892334402E-1,4.282007515E-1
3.374066458E0,3.277974427E-1,3.807113469E-1,4.036996961E-1
3.376055885E0,3.160795569E-1,3.615365922E-1,3.738723099E-1
3.378045312E0,3.022311330E-1,3.391660750E-1,3.472407162E-1
3.380034739E0,2.798605859E-1,3.029471040E-1,3.163480759E-1
3.382024166E0,2.564247847E-1,2.614018321E-1,2.875859737E-1
3.384013593E0,2.308584601E-1,2.166607678E-1,2.577585876E-1
3.386003021E0,1.989005506E-1,1.783112735E-1,2.289964557E-1
3.387992448E0,1.648121178E-1,1.431575716E-1,1.970385462E-1
3.389981875E0,1.349847317E-1,1.069386154E-1,1.640153825E-1
3.391971302E0,1.019615829E-1,7.924176753E-2,1.288616806E-1
3.393960729E0,7.319946587E-2,5.900175869E-2,9.051220864E-2
3.395950156E0,4.869840667E-2,3.450069577E-2,5.748903751E-2
3.397939583E0,2.419734374E-2,1.426069066E-2,2.553113177E-2
3.399929010E0,5.022597965E-3,-8.109842427E-3,-5.361512303E-3
3.401918437E0,-1.095635444E-2,-3.261090443E-2,-2.986257151E-2
3.403907864E0,-2.267425321E-2,-5.178564787E-2,-4.477626458E-2
3.405897291E0,-3.332689032E-2,-5.817722902E-2,-5.010258034E-2
3.407886718E0,-3.865320608E-2,-6.882986426E-2,-5.755942687E-2
3.409876146E0,-4.184899852E-2,-8.054776490E-2,-6.714680046E-2
3.411865573E0,-4.078373685E-2,-9.226566553E-2,-7.566890121E-2
3.413855000E0,-4.291426018E-2,-1.050488204E-1,-8.525627106E-2
3.415844427E0,-4.504479095E-2,-1.135709286E-1,-9.377837926E-2
3.417833854E0,-4.291426018E-2,-1.199625134E-1,-9.803943336E-2
3.419823281E0,-4.397952557E-2,-1.423330456E-1,-8.525627106E-2
3.421812708E0,-4.504479095E-2,-1.348762065E-1,-7.992995530E-2
3.423802135E0,-5.569742247E-2,-1.103751436E-1,-7.034259290E-2
3.425791562E0,-6.208900735E-2,-9.652671218E-2,-5.968995020E-2
3.427780989E0,-6.954584271E-2,-8.267828822E-2,-5.329837278E-2
3.429770416E0,-7.487216592E-2,-6.989512593E-2,-5.329837278E-2
3.431759843E0,-8.126374334E-2,-6.350354850E-2,-5.010258034E-2
3.433749271E0,-8.765532076E-2,-4.858985543E-2,-5.010258034E-2
3.435738698E0,-9.724269807E-2,-2.834985033E-2,-5.010258034E-2
3.437728125E0,-1.036342755E-1,-1.130563300E-2,-4.584152624E-2
3.439717552E0,-1.078953296E-1,-2.783524804E-3,-4.051520675E-2
3.441706979E0,-1.100258604E-1,6.803846918E-3,-3.518889099E-2
3.443696406E0,-1.174827069E-1,3.130490705E-2,-3.092783689E-2
3.445685833E0,-1.323964000E-1,7.817649841E-2,-1.920993812E-2
3.447675260E0,-1.323964000E-1,1.080038846E-1,-1.175309345E-2
3.449664687E0,-1.260048300E-1,1.186565161E-1,-2.165721729E-3
3.451654114E0,-1.121563837E-1,1.175912544E-1,7.421649061E-3
3.453643541E0,-9.404690564E-2,1.154607236E-1,1.487849560E-2
3.455632968E0,-7.167637348E-2,1.111996695E-1,2.127007768E-2
3.457622396E0,-4.930584505E-2,9.841650724E-2,2.659639344E-2
3.459611823E0,-3.226162866E-2,8.989439905E-2,3.085744753E-2
3.461601250E0,-1.521740854E-2,5.580596626E-2,4.151008278E-2
3.463590677E0,-4.564773757E-3,1.745648310E-2,5.216271803E-2
3.465580104E0,5.022597965E-3,-3.154563904E-2,6.814167649E-2
3.467569531E0,1.247944310E-2,-8.374355733E-2,8.412062377E-2
3.469558958E0,1.141417958E-2,-1.444635689E-1,9.690379351E-2
3.471548385E0,9.283652529E-3,-1.977267563E-1,1.064911634E-1
3.473537864E0,2.892070916E-3,-2.595120370E-1,1.128827408E-1
3.475527343E0,-1.095635444E-2,-3.244931102E-1,1.203395948E-1
3.477516823E0,-2.693530731E-2,-3.873436451E-1,1.214048490E-1
3.479506302E0,-5.250163004E-2,-4.406068325E-1,1.214048490E-1
3.481495781E0,-7.913322002E-2,-4.960005283E-1,1.182090566E-1
3.483485260E0,-1.132216454E-1,-5.396763086E-1,1.107522175E-1
3.485474739E0,-1.483753622E-1,-5.705690384E-1,1.011648402E-1
3.487464218E0,-1.888553798E-1,-6.003963947E-1,9.583852440E-2
3.489453698E0,-2.229438126E-1,-6.248974800E-1,9.157747030E-2
3.491443177E0,-2.527711689E-1,-6.408764124E-1,8.625115454E-2
3.493432656E0,-2.804680169E-1,-6.462026834E-1,7.772904634E-2
3.495422135E0,-2.975122333E-1,-6.472679377E-1,7.240273058E-2
3.497411614E0,-3.070996106E-1,-6.430069208E-1,7.133746892E-2
3.499401093E0,-3.102954030E-1,-6.366152763E-1,6.920693815E-2
3.501390573E0,-3.070996106E-1,-6.270279884E-1,7.240273058E-2
3.503380052E0,-2.996427715E-1,-6.110490561E-1,7.985957712E-2
3.505369531E0,-2.857943475E-1,-5.854827166E-1,8.838168532E-2
3.507359010E0,-2.719459236E-1,-5.535247326E-1,9.583852440E-2
3.509348489E0,-2.506406605E-1,-5.162405968E-1,1.064911634E-1
3.511337968E0,-2.250743359E-1,-4.778910577E-1,1.160785332E-1
3.513327448E0,-2.005732805E-1,-4.406068325E-1,1.288616806E-1
3.515316927E0,-1.718111634E-1,-4.054531455E-1,1.427101195E-1
3.517306406E0,-1.387879848E-1,-3.724299669E-1,1.565585434E-1
3.519295885E0,-1.068300679E-1,-3.362109959E-1,1.736027598E-1
3.521285364E0,-7.487216592E-2,-2.936004698E-1,1.831901222E-1
3.523274843E0,-4.078373685E-2,-2.499246597E-1,1.927774996E-1
3.525264323E0,-5.630037282E-3,-2.030530721E-1,2.044954002E-1
3.527253802E0,2.632786706E-2,-1.593772620E-1,2.172785550E-1
3.529243281E0,6.148156151E-2,-1.252888292E-1,2.311269790E-1
3.531232760E0,9.130895138E-2,-9.226566553E-2,2.439101487E-1
3.533222239E0,1.200710684E-1,-6.776460260E-2,2.598891258E-1
3.535211718E0,1.467026323E-1,-4.858985543E-2,2.779985964E-1
3.537201198E0,1.658773869E-1,-2.515405789E-2,2.886512280E-1
3.539190677E0,1.861173809E-1,-1.024036948E-2,2.982386053E-1
3.541180156E0,2.010310739E-1,-3.848788328E-3,3.110217750E-1
3.543169635E0,2.138142437E-1,1.319542900E-2,3.131522834E-1
3.545159114E0,2.212710828E-1,2.597859129E-2,3.110217750E-1
3.547148593E0,2.202058136E-1,4.728385806E-2,3.099564910E-1
3.549138021E0,2.170100361E-1,6.326281279E-2,3.056954443E-1
3.551127448E0,2.127489746E-1,7.711123675E-2,3.014343977E-1
3.553116875E0,2.063573897E-1,9.309019148E-2,2.950428128E-1
3.555106302E0,2.074226588E-1,1.069386154E-1,2.961080670E-1
3.557095729E0,2.138142437E-1,1.186565161E-1,3.046301901E-1
3.559085156E0,2.297931910E-1,1.282438934E-1,3.216744065E-1
3.561074583E0,2.585553229E-1,1.452881098E-1,3.546975851E-1
3.563064010E0,3.032963872E-1,1.740502119E-1,3.941123188E-1
3.565053437E0,3.565595746E-1,2.028123289E-1,4.505712986E-1
3.567042864E0,4.162143171E-1,2.251828611E-1,5.230091810E-1
3.569032291E0,4.673469663E-1,2.518144548E-1,6.007734537E-1
3.571021718E0,5.131533146E-1,2.933597267E-1,6.785376668E-1
3.573011146E0,5.483070016E-1,3.306439519E-1,7.584324479E-1
3.575000573E0,5.760038495E-1,3.626018763E-1,8.468493223E-1
3.576990000E0,5.973091125E-1,4.020166099E-1,9.320703745E-1
3.578979427E0,6.143533587E-1,4.414313734E-1,1.019422054E0
3.580968854E0,6.313975453E-1,4.840418994E-1,1.101447344E0
3.582958281E0,6.473765373E-1,5.128040314E-1,1.179211497E0
3.584947708E0,6.633554697E-1,5.223914385E-1,1.259106278E0
3.586937135E0,6.686818004E-1,5.277177095E-1,1.331544280E0
3.588926562E0,6.740080714E-1,5.266524553E-1,1.397590518E0
3.590915989E0,6.793344021E-1,5.277177095E-1,1.447657943E0
3.592905416E0,6.857259870E-1,5.213261843E-1,1.483876944E0
3.594894843E0,6.867912412E-1,5.149345398E-1,1.492398977E0
3.596884271E0,6.846607327E-1,5.053471327E-1,1.467898011E0
3.598873698E0,6.782691479E-1,4.883029461E-1,1.421026349E0
3.600863125E0,6.676164865E-1,4.733892679E-1,1.367763162E0
3.602852552E0,6.505723000E-1,4.446271658E-1,1.304912686E0
3.604841979E0,6.250059605E-1,4.137345254E-1,1.228213668E0
3.606831406E0,5.866565108E-1,3.807113469E-1,1.142992616E0
3.608820833E0,5.429806709E-1,3.466229141E-1,1.046053648E0
3.610810260E0,4.939785600E-1,3.018818498E-1,9.480493665E-1
3.612799687E0,4.385848641E-1,2.475534081E-1,8.553714156E-1
3.614789114E0,3.767995834E-1,1.793765426E-1,7.605629563E-1
3.616778541E0,3.128837645E-1,1.048080921E-1,6.625587344E-1
3.618767968E0,2.383152992E-1,2.384806424E-2,5.677502751E-1
3.620757396E0,1.680079103E-1,-6.882986426E-2,4.814639390E-1
3.622746823E0,9.876579046E-2,-1.657688469E-1,3.941123188E-1
3.624736250E0,2.952365950E-2,-2.648383677E-1,3.078259826E-1
3.626725677E0,-3.971847147E-2,-3.692341745E-1,2.236701399E-1
3.628715104E0,-9.937322140E-2,-4.704342186E-1,1.448406428E-1
3.630704531E0,-1.654195786E-1,-5.631121397E-1,7.666378468E-2
3.632693958E0,-2.250743359E-1,-6.536595821E-1,1.168270316E-2
3.634683385E0,-2.815333009E-1,-7.516638041E-1,-3.944994509E-2
3.636672812E0,-3.358617127E-1,-8.336890936E-1,-8.632154018E-2
3.638662239E0,-3.816680610E-1,-9.071922302E-1,-1.331931353E-1
3.640651666E0,-4.168217480E-1,-9.689775705E-1,-1.662163138E-1
3.642641093E0,-4.455838799E-1,-1.020110130E0,-1.960436851E-1
3.644630521E0,-4.700849354E-1,-1.046741724E0,-2.258710712E-1
3.646619948E0,-4.892596602E-1,-1.059524894E0,-2.514373958E-1
3.648609375E0,-5.031080842E-1,-1.058459640E0,-2.716773748E-1
3.650598802E0,-5.031080842E-1,-1.040350080E0,-2.929826379E-1
3.652588229E0,-4.999123216E-1,-1.013718486E0,-3.142879307E-1
3.654577656E0,-4.871291518E-1,-9.796302319E-1,-3.302668631E-1
3.656567083E0,-4.626280963E-1,-9.380849600E-1,-3.430500329E-1
3.658556510E0,-4.359965026E-1,-8.922785521E-1,-3.558332026E-1
3.660545937E0,-4.051038623E-1,-8.486027718E-1,-3.664858341E-1
3.662535364E0,-3.646238446E-1,-7.964048386E-1,-3.835300505E-1
3.664524791E0,-3.220132887E-1,-7.388806343E-1,-3.995090127E-1
3.666514218E0,-2.772722244E-1,-6.866827011E-1,-4.197490215E-1
3.668503646E0,-2.250743359E-1,-6.398111582E-1,-4.335974455E-1
3.670493073E0,-1.760722101E-1,-5.812215805E-1,-4.591637552E-1
3.672482500E0,-1.281353533E-1,-5.215668678E-1,-4.847300947E-1
3.674471927E0,-8.232900500E-2,-4.576510489E-1,-5.071006417E-1
3.676461354E0,-4.184899852E-2,-3.894741833E-1,-5.316016674E-1
3.678450781E0,-5.630037282E-3,-3.234278560E-1,-5.561027527E-1
3.680440260E0,2.526260540E-2,-2.595120370E-1,-5.806037784E-1
3.682429739E0,5.295945331E-2,-2.126404345E-1,-5.997785330E-1
3.684419218E0,7.213420421E-2,-1.700298935E-1,-6.146922112E-1
3.686408698E0,8.172157407E-2,-1.433983147E-1,-6.328017116E-1
3.688398177E0,9.343947470E-2,-1.252888292E-1,-6.381280422E-1
3.690387656E0,9.450473636E-2,-1.125056669E-1,-6.413238049E-1
3.692377135E0,9.024368227E-2,-1.061140895E-1,-6.391932964E-1
3.694366614E0,8.172157407E-2,-1.093098819E-1,-6.317364573E-1
3.696356093E0,7.426473498E-2,-1.210277751E-1,-6.221491098E-1
3.698345573E0,5.828577653E-2,-1.359414607E-1,-6.051048636E-1
3.700335052E0,4.230682179E-2,-1.497898996E-1,-5.848648548E-1
3.702324531E0,2.100155130E-2,-1.742909551E-1,-5.678206682E-1
3.704314010E0,-1.368983183E-3,-2.051835954E-1,-5.497111678E-1
3.706303489E0,-2.800057083E-2,-2.318151891E-1,-5.294711590E-1
3.708292968E0,-5.356689915E-2,-2.563162446E-1,-5.071006417E-1
3.710282448E0,-8.019848168E-2,-2.744257152E-1,-4.879258871E-1
3.712271927E0,-1.089605987E-1,-2.925352156E-1,-4.751427174E-1
3.714261406E0,-1.377227157E-1,-3.170362711E-1,-4.623595476E-1
3.716250885E0,-1.664848477E-1,-3.394067883E-1,-4.506416619E-1
3.718240364E0,-1.931164265E-1,-3.511247039E-1,-4.410542846E-1
3.720229843E0,-2.122911662E-1,-3.553857505E-1,-4.431848228E-1
3.722219323E0,-2.240090668E-1,-3.553857505E-1,-4.559679627E-1
3.724208802E0,-2.314659208E-1,-3.479289114E-1,-4.740774632E-1
3.726198281E0,-2.357269675E-1,-3.415373266E-1,-4.953827262E-1
3.728187760E0,-2.389227599E-1,-3.426025808E-1,-5.209490657E-1
3.730177239E0,-2.399880290E-1,-3.553857505E-1,-5.454500914E-1
3.732166718E0,-2.431838065E-1,-3.702994287E-1,-5.635595918E-1
3.734156198E0,-2.506406605E-1,-3.820173442E-1,-5.827343464E-1
3.736145677E0,-2.517059147E-1,-4.043878615E-1,-6.019091010E-1
3.738135156E0,-2.580974996E-1,-4.278236628E-1,-6.125617027E-1
3.740124635E0,-2.612932920E-1,-4.565857947E-1,-6.178880334E-1
3.742114114E0,-2.623585463E-1,-4.928047359E-1,-6.232143641E-1
3.744103593E0,-2.644890845E-1,-5.364805460E-1,-6.296059489E-1
3.746093073E0,-2.517059147E-1,-5.769605637E-1,-6.359975338E-1
3.748082552E0,-2.293353826E-1,-6.089184284E-1,-6.434543729E-1
3.750072031E0,-2.005732805E-1,-6.248974800E-1,-6.509112120E-1
3.752061510E0,-1.707458943E-1,-6.291584969E-1,-6.615638137E-1
3.754050989E0,-1.366574615E-1,-6.344847679E-1,-6.711512208E-1
3.756040468E0,-1.036342755E-1,-6.483331919E-1,-6.764775515E-1
3.758029948E0,-7.380689681E-2,-6.664427519E-1,-6.764775515E-1
3.760019375E0,-4.078373685E-2,-6.824216843E-1,-6.732817292E-1
3.762008802E0,-1.521740854E-2,-6.952048540E-1,-6.658248901E-1
3.763998229E0,7.153125014E-3,-7.058573961E-1,-6.551722288E-1
3.765987656E0,2.100155130E-2,-7.165100574E-1,-6.359975338E-1
3.767977083E0,2.845839784E-2,-7.346196175E-1,-6.114964485E-1
3.769966510E0,3.378471360E-2,-7.644469738E-1,-5.827343464E-1
3.771955937E0,3.165418655E-2,-7.846869230E-1,-5.507764220E-1
3.773945364E0,3.165418655E-2,-7.964048386E-1,-5.198838115E-1
3.775934791E0,2.952365950E-2,-8.017312288E-1,-4.900563955E-1
3.777924218E0,2.739313245E-2,-8.049269915E-1,-4.623595476E-1
3.779913646E0,2.206681296E-2,-8.049269915E-1,-4.346626997E-1
3.781903073E0,2.206681296E-2,-8.006658554E-1,-4.090963900E-1
3.783892500E0,2.632786706E-2,-7.910785675E-1,-3.888563812E-1
3.785881927E0,3.058892116E-2,-7.804259062E-1,-3.707468808E-1
3.787871354E0,3.911102936E-2,-7.665774822E-1,-3.590289950E-1
3.789860781E0,4.763313755E-2,-7.527290583E-1,-3.494416177E-1
3.791850208E0,5.402472243E-2,-7.452721596E-1,-3.366584480E-1
3.793839635E0,6.148156151E-2,-7.250322104E-1,-3.206795156E-1
3.795829062E0,7.000367343E-2,-6.909437180E-1,-2.993742228E-1
3.797818489E0,8.598262817E-2,-6.472679377E-1,-2.770037055E-1
3.799807916E0,9.450473636E-2,-6.174405813E-1,-2.535679042E-1
3.801797343E0,1.072878987E-1,-5.918742418E-1,-2.280015945E-1
3.803786771E0,1.179405302E-1,-5.684384108E-1,-2.024352700E-1
3.805776198E0,1.253973842E-1,-5.460679531E-1,-1.726078838E-1
3.807765625E0,1.307236850E-1,-5.311542749E-1,-1.417152435E-1
3.809755052E0,1.317889541E-1,-5.205016136E-1,-1.097573340E-1
3.811744479E0,1.392457932E-1,-5.173058510E-1,-7.886469364E-2
3.813733906E0,1.445721090E-1,-5.162405968E-1,-4.477626458E-2
3.815723333E0,1.488331705E-1,-5.194363594E-1,-1.494888403E-2
3.817712760E0,1.541594863E-1,-5.194363594E-1,1.381323021E-2
3.819702187E0,1.552247405E-1,-5.141099691E-1,3.724902868E-2
3.821691614E0,1.573552638E-1,-5.055879354E-1,6.068482995E-2
3.823681041E0,1.648121178E-1,-4.960005283E-1,8.199010044E-2
3.825670468E0,1.690731645E-1,-4.917394817E-1,1.022301093E-1
3.827659896E0,1.775952727E-1,-4.906742275E-1,1.182090566E-1
3.829649323E0,1.871826500E-1,-4.842826426E-1,1.352532655E-1
3.831638750E0,1.989005506E-1,-4.789563119E-1,1.522974819E-1
3.833628177E0,2.170100361E-1,-4.725647271E-1,1.714722365E-1
3.835617604E0,2.287279218E-1,-4.640426338E-1,1.831901222E-1
3.837607031E0,2.447068840E-1,-4.565857947E-1,1.895817071E-1
3.839596458E0,2.681427002E-1,-4.587163031E-1,1.895817071E-1
3.841585885E0,2.915785015E-1,-4.640426338E-1,1.853206605E-1
3.843575312E0,3.192753494E-1,-4.714994729E-1,1.831901222E-1
3.845564739E0,3.533637822E-1,-4.821521044E-1,1.831901222E-1
3.847554166E0,3.821258843E-1,-4.874784350E-1,1.757332832E-1
3.849543593E0,4.098227322E-1,-4.906742275E-1,1.672111750E-1
3.851533021E0,4.385848641E-1,-5.034574270E-1,1.554932743E-1
3.853522448E0,4.705427587E-1,-5.162405968E-1,1.448406428E-1
3.855511875E0,4.982396364E-1,-5.386110544E-1,1.416448504E-1
3.857501302E0,5.333933234E-1,-5.663079023E-1,1.448406428E-1
3.859490729E0,5.674817562E-1,-5.940047503E-1,1.405795813E-1
3.861480156E0,5.951786041E-1,-6.195710897E-1,1.395143270E-1
3.863469583E0,6.324627995E-1,-6.525943279E-1,1.363185346E-1
3.865459010E0,6.729428172E-1,-6.930743456E-1,1.331227422E-1
3.867448437E0,7.208796740E-1,-7.388806343E-1,1.331227422E-1
3.869437864E0,7.784039378E-1,-7.932090759E-1,1.352532655E-1
3.871427291E0,8.220797181E-1,-8.400806189E-1,1.363185346E-1
3.873416718E0,8.700165749E-1,-8.805606365E-1,1.373838037E-1
3.875406146E0,9.286060929E-1,-9.189101458E-1,1.448406428E-1
3.877395573E0,9.903913736E-1,-9.466069937E-1,1.512322277E-1
3.879385000E0,1.053241968E0,-9.764343500E-1,1.586890668E-1
3.881374427E0,1.121418834E0,-9.988049269E-1,1.704069674E-1
3.883363854E0,1.170420885E0,-9.988049269E-1,1.831901222E-1
3.885353333E0,1.190660954E0,-9.785648584E-1,2.023648769E-1
3.887342812E0,1.175747275E0,-9.391502142E-1,2.279312015E-1
3.889332291E0,1.144854546E0,-8.784301281E-1,2.545627952E-1
3.891321771E0,1.093721867E0,-8.006658554E-1,2.843901813E-1
3.893311250E0,1.028740883E0,-7.090532780E-1,3.216744065E-1
3.895300729E0,9.477808475E-1,-5.961352587E-1,3.568280935E-1
3.897290208E0,8.444502354E-1,-4.683036804E-1,3.887860179E-1
3.899279687E0,7.443155050E-1,-3.159709871E-1,4.143523276E-1
3.901269166E0,6.420502067E-1,-1.615077853E-1,4.345923364E-1
3.903258646E0,5.515027642E-1,-3.848788328E-3,4.527018070E-1
3.905248125E0,4.737385511E-1,1.442228407E-1,4.644197226E-1
3.907237604E0,4.151490629E-1,2.784460485E-1,4.612239301E-1
3.909227083E0,3.789300919E-1,3.913639784E-1,4.441797137E-1
3.911216562E0,3.533637822E-1,4.733892679E-1,4.100912809E-1
3.913206041E0,3.480374515E-1,5.309134722E-1,3.653502166E-1
3.915195521E0,3.491027355E-1,5.660672188E-1,3.259354532E-1
3.917185000E0,3.565595746E-1,5.841766596E-1,3.014343977E-1
3.919174479E0,3.672122061E-1,5.852419138E-1,2.854554355E-1
3.921163958E0,3.821258843E-1,5.681977272E-1,2.694764733E-1
3.923153437E0,3.885174692E-1,5.330439806E-1,2.513670027E-1
3.925142916E0,4.055616856E-1,4.861724377E-1,2.321922481E-1
3.927132396E0,4.268669486E-1,4.243871570E-1,2.066259235E-1
3.929121875E0,4.417806566E-1,3.466229141E-1,1.874511838E-1
3.931111354E0,4.598901272E-1,2.635323703E-1,1.714722365E-1
3.933100833E0,4.737385511E-1,1.719196886E-1,1.608195901E-1
3.935090312E0,4.833258986E-1,8.776387572E-2,1.416448504E-1
3.937079791E0,4.886522293E-1,9.999637492E-3,1.139480099E-1
3.939069271E0,4.886522293E-1,-5.178564787E-2,8.518589288E-2
3.941058750E0,4.897174835E-1,-1.050488204E-1,4.364060983E-2
3.943048229E0,4.779995978E-1,-1.572467387E-1,-9.622566402E-3
3.945037708E0,4.566943347E-1,-2.126404345E-1,-7.353837788E-2
3.947027187E0,4.268669486E-1,-2.776215076E-1,-1.385194510E-1
3.949016666E0,3.885174692E-1,-3.447331190E-1,-2.056310624E-1
3.951006146E0,3.533637822E-1,-4.086489379E-1,-2.759384513E-1
3.952995625E0,3.267321885E-1,-4.501942098E-1,-3.494416177E-1
3.954985104E0,3.043616414E-1,-4.832173884E-1,-4.229448140E-1
3.956974583E0,2.851869166E-1,-5.162405968E-1,-4.889911413E-1
3.958964062E0,2.649469078E-1,-5.492637157E-1,-5.433195829E-1
3.960953541E0,2.585553229E-1,-5.439374447E-1,-5.869953632E-1
3.962943021E0,2.649469078E-1,-5.173058510E-1,-6.253448725E-1
3.964932500E0,2.734690011E-1,-4.832173884E-1,-6.562375426E-1
3.966921927E0,2.798605859E-1,-4.544552565E-1,-6.828690767E-1
3.968911354E0,2.755995393E-1,-4.544552565E-1,-7.105659246E-1
3.970900781E0,2.724037468E-1,-4.757605195E-1,-7.446544170E-1
3.972890208E0,2.681427002E-1,-5.066531897E-1,-7.968522906E-1
3.974879635E0,2.734690011E-1,-5.673731565E-1,-8.618333936E-1
3.976869062E0,2.787953317E-1,-6.611163616E-1,-9.502502680E-1
3.978858489E0,2.979700565E-1,-7.942743301E-1,-1.054646015E0
3.980847916E0,3.150143027E-1,-9.636511803E-1,-1.186738729E0
3.982837343E0,3.363195658E-1,-1.178834319E0,-1.345463037E0
3.984826771E0,3.640164137E-1,-1.429171324E0,-1.541471481E0
3.986816198E0,3.459069431E-1,-1.628375530E0,-1.768372655E0
3.988805625E0,2.905132174E-1,-1.762598753E0,-1.955859065E0
3.990795052E0,2.074226588E-1,-1.840363026E0,-2.081560373E0
3.992784479E0,1.062226370E-1,-1.870190382E0,-2.159324646E0
3.994773906E0,-1.308688149E-2,-1.862733603E0,-2.204065561E0
3.996763333E0,-1.270700842E-1,-1.814796686E0,-2.220044613E0
3.998752760E0,-2.399880290E-1,-1.746619821E0,-2.213653088E0
4.000742187E0,-3.443838358E-1,-1.657137632E0,-2.196608782E0
4.002731614E0,-4.413228035E-1,-1.552741885E0,-2.167846680E0
4.004721041E0,-5.233480930E-1,-1.440889239E0,-2.127366781E0
4.006710468E0,-5.925902128E-1,-1.317318678E0,-2.069842339E0
4.008699896E0,-6.501144767E-1,-1.189486980E0,-1.986751676E0
4.010689323E0,-6.991165876E-1,-1.060590148E0,-1.874899030E0
4.012678750E0,-7.268134356E-1,-9.157143831E-1,-1.728957891E0
4.014668177E0,-7.385313511E-1,-7.612512112E-1,-1.549993634E0
4.016657604E0,-7.246829271E-1,-6.014616489E-1,-1.331614614E0
4.018647031E0,-6.884639263E-1,-4.395415783E-1,-1.094060779E0
4.020636458E0,-6.288092136E-1,-2.925352156E-1,-8.618333936E-1
4.022625885E0,-5.489144325E-1,-1.561814696E-1,-6.530417204E-1
4.024615312E0,-4.487796724E-1,-3.048037738E-2,-4.794037640E-1
4.026604739E0,-3.422532976E-1,6.645860523E-2,-3.483763635E-1
4.028594166E0,-2.218785435E-1,1.314396858E-1,-2.578289509E-1
4.030583593E0,-1.004384905E-1,1.623323262E-1,-1.981742084E-1
4.032573021E0,1.034891605E-2,1.633975804E-1,-1.555636674E-1
4.034562448E0,1.104836911E-1,1.484839022E-1,-1.225404963E-1
4.036551875E0,1.871826500E-1,1.250481009E-1,-8.525627106E-2
4.038541302E0,2.393805534E-1,9.948177636E-2,-4.477626458E-2
4.040530729E0,2.702732086E-1,7.285018265E-2,-6.426775828E-3
4.042520156E0,2.702732086E-1,5.474070460E-2,2.020481229E-2
4.044509583E0,2.532289922E-1,4.408806935E-2,3.618376330E-2
4.046499010E0,2.202058136E-1,4.408806935E-2,4.470587149E-2
4.048488437E0,1.797258109E-1,5.367544293E-2,5.322797969E-2
4.050477864E0,1.296584159E-1,7.391545177E-2,4.364060983E-2
4.052467291E0,8.172157407E-2,1.016122997E-1,1.487849560E-2
4.054456718E0,5.189419165E-2,1.197217777E-1,-3.519468009E-5
4.056446146E0,3.165418655E-2,1.229175776E-1,3.160595894E-3
4.058435573E0,1.460997015E-2,1.175912544E-1,9.552176110E-3
