"Time (s)","Gyroscope x (rad/s)","Gyroscope y (rad/s)","Gyroscope z (rad/s)"
0.000000000E0,1.130100712E-1,-4.667010605E-1,-1.213789225E0
2.973346000E-3,1.130100712E-1,-4.667010605E-1,-1.213789225E0
7.920346000E-3,1.130100712E-1,-4.667010605E-1,-1.213789225E0
1.286534600E-2,1.130100712E-1,-4.667010605E-1,-1.213789225E0
1.781034600E-2,1.130100712E-1,-4.667010605E-1,-1.213789225E0
2.275534600E-2,1.130100712E-1,-4.667010605E-1,-1.213789225E0
2.769934600E-2,1.130100712E-1,-4.667010605E-1,-1.213789225E0
3.264434600E-2,1.130100712E-1,-4.667010605E-1,-1.213789225E0
3.755780800E-2,-4.337143302E-1,3.121521473E-1,1.160643995E-1
4.250280800E-2,-6.914994717E-1,-1.417207420E-1,1.850921661E-1
4.744780800E-2,-7.092145681E-1,-2.443460934E-2,2.412917763E-1
5.239280800E-2,-7.171558142E-1,7.147123665E-2,2.791654170E-1
5.733680800E-2,-7.153232098E-1,1.508837193E-1,3.084869385E-1
6.228180800E-2,-7.043276429E-1,2.583959997E-1,3.268128932E-1
6.722680800E-2,-6.805039048E-1,3.634648323E-1,3.433062732E-1
7.217180800E-2,-6.481280327E-1,4.422664344E-1,3.610213697E-1
7.711680800E-2,-6.053674817E-1,5.088507533E-1,3.830125034E-1
8.206180800E-2,-5.479460955E-1,5.711590052E-1,4.245513380E-1
8.700580800E-2,-4.844161272E-1,6.145304441E-1,4.776966274E-1
9.182880800E-2,-4.251621962E-1,6.450737119E-1,5.235115290E-1
9.689580800E-2,-3.756821156E-1,6.579018831E-1,5.577199459E-1
1.018408080E-1,-3.316998184E-1,6.511823535E-1,5.791002512E-1
1.067858080E-1,-2.999348342E-1,6.114761233E-1,5.955936313E-1
1.117308080E-1,-2.809980214E-1,5.338962078E-1,6.065891981E-1
1.166748080E-1,-2.742784917E-1,4.092797041E-1,6.206390858E-1
1.215840770E-1,-2.907718420E-1,2.553416789E-1,6.316346526E-1
1.265290770E-1,-3.292563558E-1,8.307767659E-2,6.334672570E-1
1.314740770E-1,-3.842342496E-1,-1.136209369E-1,6.163630486E-1
1.364190770E-1,-4.410447180E-1,-3.341432810E-1,5.705481172E-1
1.413640770E-1,-5.461135507E-1,-6.670648456E-1,5.064072609E-1
1.463080770E-1,-6.004805565E-1,-8.173376918E-1,4.954117239E-1
1.512530770E-1,-6.236934066E-1,-8.564330935E-1,5.033529401E-1
1.561980770E-1,-6.090326309E-1,-8.081747293E-1,4.978551865E-1
1.611430770E-1,-5.687155724E-1,-6.963863969E-1,4.874704778E-1
1.660880770E-1,-4.874704778E-1,-4.850270152E-1,4.673119187E-1
1.710330770E-1,-3.720169365E-1,-2.003637999E-1,4.410447180E-1
1.759770770E-1,-2.302961946E-1,1.215621829E-1,4.068362415E-1
1.809220770E-1,-8.674286306E-2,4.459316432E-1,3.744603992E-1
1.858670770E-1,5.314527452E-2,7.299839854E-1,3.549126983E-1
1.908120770E-1,1.765400618E-1,9.669997096E-1,3.543018401E-1
1.957570770E-1,2.840523422E-1,1.155757070E0,3.622430861E-1
2.007020770E-1,3.762930036E-1,1.301142931E0,3.744603992E-1
2.056460770E-1,4.691445231E-1,1.408655286E0,3.964515328E-1
2.105910770E-1,5.143485069E-1,1.476461291E0,4.343251884E-1
2.155360770E-1,4.862487316E-1,1.444696307E0,4.801400900E-1
2.204810770E-1,3.830125034E-1,1.295645237E0,5.296201706E-1
2.254260770E-1,2.296853364E-1,1.061683774E0,6.047565937E-1
2.303710770E-1,1.588249579E-2,8.759807348E-1,6.652322412E-1
2.353150770E-1,-2.663372457E-1,6.921103001E-1,7.397578359E-1
2.402600770E-1,-6.713408828E-1,5.418374538E-1,7.977899909E-1
2.451967690E-1,-8.808676600E-1,5.546656251E-1,7.965682745E-1
2.501417690E-1,-1.017701507E0,6.542366743E-1,7.721336484E-1
2.550740770E-1,-1.068403363E0,7.788531780E-1,7.379252315E-1
2.600190770E-1,-1.078788042E0,9.303477407E-1,7.061602473E-1
2.649630770E-1,-1.070846796E0,1.070846796E0,6.652322412E-1
2.699080770E-1,-1.053131700E0,1.185689449E0,6.236934066E-1
2.748530770E-1,-1.027475357E0,1.262047648E0,5.839871764E-1
2.797980770E-1,-9.938777685E-1,1.287703991E0,5.491678715E-1
2.847430770E-1,-9.505063295E-1,1.274875760E0,5.051855445E-1
2.896880770E-1,-8.949176073E-1,1.247386813E0,4.691445231E-1
2.946320770E-1,-8.332201838E-1,1.214400053E0,4.398229718E-1
2.995770770E-1,-7.800748944E-1,1.141096234E0,4.098905921E-1
3.045220770E-1,-7.299839854E-1,1.063516378E0,3.756821156E-1
3.094670770E-1,-6.829473376E-1,9.651671052E-1,3.439171314E-1
3.144120770E-1,-6.310238242E-1,8.698720932E-1,3.145956099E-1
3.193570770E-1,-5.736024380E-1,7.586946487E-1,2.895501256E-1
3.243010770E-1,-5.100724697E-1,6.957755089E-1,2.724458873E-1
3.292460770E-1,-4.740314186E-1,6.126978397E-1,2.638937831E-1
3.341910770E-1,-4.502076805E-1,5.314527750E-1,2.590068579E-1
3.391251920E-1,-4.453207552E-1,4.434881806E-1,2.657263875E-1
3.440701920E-1,-4.581489265E-1,4.098905921E-1,2.669481039E-1
3.490151920E-1,-4.795292318E-1,3.714060783E-1,2.755002379E-1
3.539601920E-1,-5.064072609E-1,3.408628106E-1,2.822197378E-1
3.589041920E-1,-5.296201706E-1,3.280346394E-1,2.797762752E-1
3.638491920E-1,-5.564982295E-1,3.133738637E-1,2.858849466E-1
3.687941920E-1,-5.876523852E-1,2.809980214E-1,2.993239760E-1
3.737391920E-1,-6.139195561E-1,2.528982162E-1,3.109304011E-1
3.786841920E-1,-6.352998614E-1,2.321287990E-1,3.182607889E-1
3.836291920E-1,-6.530149579E-1,2.125810981E-1,3.249803185E-1
3.885731920E-1,-6.719517708E-1,1.942551434E-1,3.298672438E-1
3.935181920E-1,-6.914994717E-1,1.722639948E-1,3.420845270E-1
3.984344610E-1,-7.092145681E-1,1.521054506E-1,3.652974069E-1
4.033794610E-1,-7.238753438E-1,1.368338168E-1,3.952298164E-1
4.083244610E-1,-7.342600226E-1,1.307251602E-1,4.300491214E-1
4.132694610E-1,-7.440338731E-1,1.264491081E-1,4.721988440E-1
4.182134610E-1,-7.501425147E-1,1.288925707E-1,5.143485069E-1
4.231584610E-1,-7.507534027E-1,1.417207420E-1,5.540547967E-1
4.281034610E-1,-7.483099103E-1,1.710422635E-1,5.925393105E-1
4.330484610E-1,-7.489207983E-1,1.960877478E-1,6.255260110E-1
4.379934610E-1,-7.562511563E-1,2.266310006E-1,6.695083380E-1
4.429384610E-1,-7.538077235E-1,2.553416789E-1,6.921103001E-1
4.478824610E-1,-7.458664775E-1,3.017674387E-1,7.104362845E-1
4.528274610E-1,-7.483099103E-1,3.213151097E-1,7.330383062E-1
4.577724610E-1,-7.409795523E-1,3.634648323E-1,7.489207983E-1
4.627174610E-1,-7.312057018E-1,4.288274050E-1,7.519751191E-1
4.676624610E-1,-7.464773059E-1,4.196644127E-1,7.409795523E-1
4.725919230E-1,-7.593054771E-1,4.007275999E-1,7.134906054E-1
4.775359230E-1,-6.896668673E-1,5.516113043E-1,6.780604124E-1
4.824809230E-1,-6.352998614E-1,7.422012687E-1,6.682865620E-1
4.874259230E-1,-6.133087277E-1,9.236282706E-1,6.365215778E-1
4.923709230E-1,-6.017022729E-1,1.040303469E0,5.852088928E-1
4.973159230E-1,-5.992587805E-1,1.095281363E0,5.161811113E-1
5.022609230E-1,-6.017022729E-1,1.095892191E0,4.233296216E-1
5.072049230E-1,-5.974262357E-1,1.082453251E0,3.237585723E-1
5.121499230E-1,-5.852088928E-1,1.051909924E0,2.076941878E-1
5.170949230E-1,-5.607742667E-1,1.012203693E0,8.368854225E-2
5.220399230E-1,-5.296201706E-1,9.816604257E-1,-4.642575979E-2
5.269849230E-1,-5.021312237E-1,9.663888216E-1,-1.722639948E-1
5.319299230E-1,-4.856378734E-1,9.517280459E-1,-2.742784917E-1
5.368739230E-1,-4.599815309E-1,9.004153609E-1,-3.573561609E-1
5.418189230E-1,-4.172209501E-1,8.472700715E-1,-3.781255782E-1
5.467639230E-1,-3.219259977E-1,7.825183868E-1,-3.836233616E-1
5.517089230E-1,-1.582140923E-1,7.067710757E-1,-3.909537494E-1
5.566539230E-1,5.742133409E-2,6.450737119E-1,-4.318817258E-1
5.615989230E-1,2.871066630E-1,5.687155724E-1,-5.589417219E-1
5.665429230E-1,5.027421117E-1,4.764748812E-1,-7.648032904E-1
5.714879230E-1,6.866125464E-1,4.221078753E-1,-1.051299095E0
5.764329230E-1,8.038986921E-1,4.318817258E-1,-1.386053205E0
5.813779230E-1,8.319984674E-1,4.941899776E-1,-1.712255239E0
5.863229230E-1,7.953465581E-1,5.363397002E-1,-1.987755537E0
5.912566920E-1,7.104362845E-1,5.558874011E-1,-2.199114799E0
5.962006920E-1,6.078109145E-1,5.907067060E-1,-2.352442026E0
6.011456920E-1,5.100724697E-1,6.493497491E-1,-2.445904493E0
6.060906920E-1,3.933972120E-1,7.751879692E-1,-2.495995283E0
6.110356920E-1,2.693915665E-1,9.364564419E-1,-2.518597364E0
6.159776530E-1,1.637118906E-1,1.047633886E0,-2.519819021E0
6.209226530E-1,7.086037099E-2,1.073901057E0,-2.488054037E0
6.258666530E-1,3.176499158E-2,9.181304574E-1,-2.415971994E0
6.308116530E-1,9.957103431E-2,6.615670323E-1,-2.327396631E0
6.357566530E-1,2.486221492E-1,7.330382615E-2,-2.160019398E0
6.407016530E-1,5.277875662E-1,-3.720169365E-1,-1.980425119E0
6.456466530E-1,7.428121567E-1,-8.252789378E-1,-1.743409395E0
6.505916530E-1,9.566149712E-1,-1.325577617E0,-1.466687441E0
6.555356530E-1,1.161254883E0,-1.783115625E0,-1.166752577E0
6.604806530E-1,1.320079803E0,-2.112371922E0,-9.431759119E-1
6.654256530E-1,1.421483397E0,-2.236377716E0,-7.819074988E-1
6.703706530E-1,1.439198494E0,-2.125200272E0,-6.310238242E-1
6.752996920E-1,1.403157473E0,-1.817934990E0,-5.778785348E-1
6.802446920E-1,1.390329242E0,-1.334129691E0,-5.943718553E-1
6.851886920E-1,1.390940189E0,-7.678576112E-1,-6.475171447E-1
6.901336920E-1,1.407433510E0,-2.321287990E-1,-7.281513810E-1
6.950786920E-1,1.467909217E0,1.777617931E-1,-7.825183868E-1
7.000236920E-1,1.548543453E0,4.074471295E-1,-7.996225953E-1
7.049686920E-1,1.627344966E0,4.801400900E-1,-7.892379165E-1
7.099136920E-1,1.705535769E0,4.715879560E-1,-7.519751191E-1
7.148461530E-1,1.769065738E0,4.239404798E-1,-6.823364496E-1
7.197911530E-1,1.809993744E0,3.304781020E-1,-5.949827433E-1
7.247361530E-1,1.823432803E0,1.936442852E-1,-4.868595898E-1
7.296811530E-1,1.831984878E0,4.398229718E-2,-3.683517575E-1
7.346261530E-1,1.849089146E0,-1.710422635E-1,-2.138028294E-1
7.395711530E-1,1.894293070E0,-2.730567753E-1,-1.117883399E-1
7.445151530E-1,1.929112434E0,-3.463605940E-1,-4.764748737E-2
7.494601530E-1,1.935221076E0,-4.343251884E-1,-7.330383174E-3
7.544051530E-1,1.921171188E0,-5.503895879E-1,9.162978269E-3
7.593501530E-1,1.893682241E0,-6.994407177E-1,-2.382374369E-2
7.642951530E-1,1.877188921E0,-8.283332586E-1,-8.918632567E-2
7.692401530E-1,1.846034765E0,-9.291260242E-1,-1.576032341E-1
7.741807690E-1,1.811215401E0,-9.999864101E-1,-1.936442852E-1
7.791257690E-1,1.762346268E0,-1.060462117E0,-2.095267773E-1
7.840707690E-1,1.694540143E0,-1.091005325E0,-2.168571651E-1
7.890124610E-1,1.607186437E0,-1.061072946E0,-2.254092693E-1
7.939574610E-1,1.496008992E0,-1.017701507E0,-2.419026345E-1
7.989024610E-1,1.359786034E0,-9.847147465E-1,-2.632829249E-1
8.038464610E-1,1.197295904E0,-9.663888216E-1,-2.907718420E-1
8.087914610E-1,1.018923283E0,-9.712757468E-1,-3.164281845E-1
8.137364610E-1,8.161159754E-1,-9.859365225E-1,-3.316998184E-1
8.186814610E-1,6.126978397E-1,-1.007316828E0,-3.384193480E-1
8.236264610E-1,4.166100919E-1,-1.020755768E0,-3.402519524E-1
8.285714610E-1,2.412917763E-1,-1.019534111E0,-3.414736688E-1
8.335164610E-1,9.957103431E-2,-1.021366715E0,-3.426954150E-1
8.384604610E-1,-4.642575979E-2,-1.021977544E0,-3.396410644E-1
8.434054610E-1,-9.468411654E-2,-1.028086185E0,-3.262020350E-1
8.483504610E-1,-9.957103431E-2,-1.029307961E0,-3.084869385E-1
8.532954610E-1,-6.841690838E-2,-1.021977544E0,-2.828305960E-1
8.582404610E-1,2.443460980E-3,-9.816604257E-1,-2.528982162E-1
8.631854610E-1,1.014036313E-1,-9.077457786E-1,-2.107485086E-1
8.681108460E-1,2.138028294E-1,-8.069530129E-1,-1.600466967E-1
8.730558460E-1,3.402519524E-1,-6.896668673E-1,-1.105666086E-1
8.780008460E-1,4.636467099E-1,-5.760459304E-1,-6.841690838E-2
8.829458460E-1,5.815436840E-1,-4.685336351E-1,-3.359758854E-2
8.878871530E-1,6.853908300E-1,-3.781255782E-1,-1.832595794E-3
8.928321530E-1,7.672467232E-1,-2.993239760E-1,3.176499158E-2
8.977761530E-1,8.289441466E-1,-2.290744632E-1,6.902777404E-2
9.027211530E-1,8.655960560E-1,-1.753183305E-1,1.117883399E-1
9.076661530E-1,8.686503768E-1,-1.459967941E-1,1.569923609E-1
9.126030380E-1,8.387179971E-1,-1.404990107E-1,1.966986060E-1
9.175480380E-1,7.806857824E-1,-1.521054506E-1,2.278527319E-1
9.224930380E-1,6.951646209E-1,-1.740965992E-1,2.565633953E-1
9.274370380E-1,6.023131609E-1,-1.869247705E-1,2.846632004E-1
9.323820380E-1,4.984660447E-1,-1.869247705E-1,3.225368559E-1
9.373270380E-1,3.408628106E-1,-1.740965992E-1,3.488040566E-1
9.422720380E-1,2.345722616E-1,-1.643227488E-1,3.689626157E-1
9.472170380E-1,1.295034289E-1,-1.728748679E-1,3.738495409E-1
9.521620380E-1,2.382374369E-2,-2.095267773E-1,3.695734739E-1
9.571060380E-1,-7.269296050E-2,-2.840523422E-1,3.610213697E-1
9.620510380E-1,-1.612684280E-1,-3.933972120E-1,3.543018401E-1
9.669951150E-1,-2.254092693E-1,-5.430592299E-1,3.512475193E-1
9.719401150E-1,-2.645046413E-1,-7.183775306E-1,3.488040566E-1
9.768851150E-1,-2.718350291E-1,-9.010262489E-1,3.463605940E-1
9.818301150E-1,-2.516764700E-1,-1.064127207E0,3.371976018E-1
9.867733840E-1,-2.144137025E-1,-1.182635069E0,3.237585723E-1
9.917183840E-1,-1.612684280E-1,-1.249219418E0,3.048217595E-1
9.966633840E-1,-1.062905490E-1,-1.249830246E0,2.889392674E-1
1.001608384E0,-5.436700583E-2,-1.210734963E0,2.779437006E-1
1.006555384E0,3.665191587E-3,-1.109331250E0,2.638937831E-1
1.011487576E0,9.834930301E-2,-8.411614299E-1,2.486221492E-1
1.016432576E0,1.380555481E-1,-6.004805565E-1,2.877175212E-1
1.021255576E0,1.850921661E-1,-1.331686229E-1,3.549126983E-1
1.026322576E0,2.125810981E-1,5.803219974E-2,3.714060783E-1
1.031266345E0,2.211332172E-1,6.823364496E-1,2.968805134E-1
1.036211345E0,1.551597714E-1,8.319984674E-1,1.820378453E-1
1.041156345E0,9.407325089E-2,9.370672703E-1,1.020144969E-1
1.046101345E0,3.909537569E-2,9.199630618E-1,3.054326167E-3
1.051046345E0,-5.497787148E-2,8.381071091E-1,-8.124507964E-2
1.055991345E0,-1.655444801E-1,6.933320761E-1,-8.613199741E-2
1.060935345E0,-2.663372457E-1,5.467243791E-1,3.054326167E-3
1.065880345E0,-3.695734739E-1,4.086688459E-1,1.087340117E-1
1.070825345E0,-4.850270152E-1,3.335324228E-1,1.991420686E-1
1.075770345E0,-5.907067060E-1,3.298672438E-1,2.669481039E-1
1.080715345E0,-6.762278080E-1,3.891211748E-1,3.127630055E-1
1.085655961E0,-7.470881939E-1,4.483750761E-1,3.543018401E-1
1.090593845E0,-7.929030657E-1,4.618141353E-1,3.988949955E-1
1.095538845E0,-7.929030657E-1,4.587597847E-1,4.343251884E-1
1.100483845E0,-7.696902156E-1,3.659082949E-1,4.575380683E-1
1.105428845E0,-7.183775306E-1,1.808161139E-1,4.520402849E-1
1.110373845E0,-6.481280327E-1,-1.343903542E-1,4.031710625E-1
1.115318845E0,-5.736024380E-1,-5.687155724E-1,2.999348342E-1
1.120262845E0,-4.801400900E-1,-1.042747021E0,1.514945775E-1
1.125207845E0,-3.793473244E-1,-1.531439185E0,-1.954768784E-2
1.130152845E0,-2.504547536E-1,-2.176512957E0,-2.858849466E-1
1.135097845E0,-4.092797264E-2,-2.437963247E0,-4.135557711E-1
1.140042845E0,5.803219974E-2,-2.499660492E0,-4.715879560E-1
1.144987845E0,1.123992056E-1,-2.368324518E0,-4.282165468E-1
1.149932845E0,1.521054506E-1,-2.062281132E0,-2.968805134E-1
1.154876845E0,1.667662114E-1,-1.642005801E0,-1.301143020E-1
1.159821845E0,1.557706445E-1,-1.127046347E0,5.436700583E-2
1.164746999E0,1.099557430E-1,-5.949827433E-1,2.339613885E-1
1.169681884E0,3.298672289E-2,-8.979719132E-2,3.909537494E-1
1.174626884E0,-7.941248268E-2,3.121521473E-1,5.259549618E-1
1.179571884E0,-2.003637999E-1,6.157521605E-1,6.517932415E-1
1.184515884E0,-3.353650272E-1,8.203920126E-1,7.782423496E-1
1.189460884E0,-4.886921942E-1,9.193521738E-1,8.875871897E-1
1.194400230E0,-6.572909951E-1,8.827002645E-1,1.003651619E0
1.199345230E0,-7.898487449E-1,7.990117669E-1,1.072679400E0
1.204290230E0,-8.802568316E-1,6.743952036E-1,1.080620646E0
1.209235230E0,-9.266825914E-1,5.436700583E-1,1.050688267E0
1.214179230E0,-9.291260242E-1,4.422664344E-1,9.883799553E-1
1.219124230E0,-9.108000994E-1,3.646865487E-1,8.900306821E-1
1.224069230E0,-8.729264140E-1,3.194825351E-1,7.751879692E-1
1.229014230E0,-8.301658630E-1,2.871066630E-1,5.754350424E-1
1.233959230E0,-7.648032904E-1,2.565633953E-1,4.654793143E-1
1.238904230E0,-7.000515461E-1,2.449569702E-1,3.787364662E-1
1.243848230E0,-6.200281978E-1,2.095267773E-1,3.310889602E-1
1.248793230E0,-5.479460955E-1,1.624901593E-1,3.200933933E-1
1.253738230E0,-4.935791194E-1,1.050688252E-1,3.188716471E-1
1.258683230E0,-4.434881806E-1,4.825835302E-2,3.243694305E-1
1.263628230E0,-4.031710625E-1,-4.886921868E-2,3.940080702E-1
1.268573230E0,-3.714060783E-1,-2.223549485E-1,4.874704778E-1
1.273517230E0,-3.426954150E-1,-4.068362415E-1,5.748242140E-1
1.278462230E0,-3.176499307E-1,-5.797111392E-1,6.487388611E-1
1.283407230E0,-2.852740586E-1,-7.257078886E-1,6.963863969E-1
1.288351153E0,-2.357939780E-1,-8.319984674E-1,7.183775306E-1
1.293273499E0,-1.759291887E-1,-9.010262489E-1,7.360926270E-1
1.298218499E0,-1.001819000E-1,-9.230173826E-1,7.495316267E-1
1.303152499E0,-6.719517522E-3,-8.857545853E-1,7.458664775E-1
1.308097499E0,7.086037099E-2,-7.825183868E-1,7.544185519E-1
1.313042499E0,1.172861308E-1,-6.426302195E-1,7.745771408E-1
1.317987499E0,1.411098689E-1,-4.465425014E-1,7.990117669E-1
1.322932499E0,1.490511149E-1,-2.034181207E-1,8.381071091E-1
1.327877499E0,1.637118906E-1,7.574728876E-2,9.498954415E-1
1.332821499E0,1.508837193E-1,4.783074856E-1,1.078788042E0
1.337766499E0,8.735372871E-2,6.566801667E-1,1.219287038E0
1.342711499E0,-9.162978269E-3,7.971791625E-1,1.350623012E0
1.347656499E0,-1.356120855E-1,9.462302923E-1,1.428202987E0
1.352601499E0,-3.176499307E-1,1.094059706E0,1.437976837E0
1.357546499E0,-5.302310586E-1,1.219897866E0,1.373225093E0
1.362490499E0,-7.446447611E-1,1.305419087E0,1.252884626E0
1.367313499E0,-8.973610401E-1,1.372614264E0,1.100168347E0
1.372380499E0,-9.926560521E-1,1.453248382E0,9.682214260E-1
1.377325499E0,-1.043968678E0,1.538769603E0,8.674286604E-1
1.382270499E0,-1.066570759E0,1.623068929E0,7.922922373E-1
1.387215499E0,-1.088561893E0,1.679268599E0,7.360926270E-1
1.392159499E0,-1.117883444E0,1.717142224E0,6.878342628E-1
1.397104499E0,-1.157589674E0,1.728137732E0,6.334672570E-1
1.402049499E0,-1.195463300E0,1.730581284E0,5.797111392E-1
1.406994499E0,-1.222952247E0,1.737300754E0,5.357288122E-1
1.411939499E0,-1.232115149E0,1.718974829E0,5.112941861E-1
1.416884499E0,-1.187522054E0,1.631621122E0,5.119050741E-1
1.421828499E0,-1.094670534E0,1.442863703E0,5.149593949E-1
1.426773499E0,-9.596692920E-1,1.223563075E0,5.094616413E-1
1.431718499E0,-7.232644558E-1,8.936958313E-1,5.033529401E-1
1.436663499E0,-5.784893632E-1,6.719517708E-1,4.960225821E-1
1.441583884E0,-4.721988440E-1,4.740314186E-1,4.978551865E-1
1.446528884E0,-4.269948006E-1,3.304781020E-1,5.137376785E-1
1.451472884E0,-4.361577928E-1,2.553416789E-1,5.375614166E-1
1.456417884E0,-4.789183438E-1,2.223549485E-1,5.632177591E-1
1.461362884E0,-5.351179838E-1,2.138028294E-1,5.864306092E-1
1.466307884E0,-5.925393105E-1,2.211332172E-1,6.041457057E-1
1.471252884E0,-6.389650702E-1,2.284636050E-1,6.139195561E-1
1.476197884E0,-6.731734872E-1,2.247984111E-1,6.181956530E-1
1.481141884E0,-6.969972253E-1,2.095267773E-1,6.261368990E-1
1.486086884E0,-7.153232098E-1,1.869247705E-1,6.389650702E-1
1.491031884E0,-7.275404930E-1,1.643227488E-1,6.542366743E-1
1.495976884E0,-7.318165898E-1,1.692096740E-1,6.701191664E-1
1.500921884E0,-7.391469479E-1,1.857030392E-1,6.823364496E-1
1.505866884E0,-7.403686643E-1,2.180788964E-1,6.963863969E-1
1.510810884E0,-7.507534027E-1,2.596177161E-1,7.153232098E-1
1.515755884E0,-7.617489696E-1,3.097086847E-1,7.397578359E-1
1.520700884E0,-7.745771408E-1,3.616322279E-1,7.666358948E-1
1.525645884E0,-7.947356701E-1,4.227187634E-1,8.093964458E-1
1.530590884E0,-8.252789378E-1,5.381723046E-1,8.326093554E-1
1.535535884E0,-8.472700715E-1,6.194173694E-1,8.466592431E-1
1.540357884E0,-8.680394888E-1,6.994407177E-1,8.484918475E-1
1.545424884E0,-8.863654733E-1,7.721336484E-1,8.448266387E-1
1.550369884E0,-9.028588533E-1,8.411614299E-1,8.301658630E-1
1.555314884E0,-9.095783234E-1,9.101892114E-1,8.106181622E-1
1.560259884E0,-9.089674950E-1,9.761626720E-1,7.849618196E-1
1.565204884E0,-8.918632865E-1,1.031751394E0,7.501425147E-1
1.570148884E0,-8.619308472E-1,1.091616154E0,7.141014934E-1
1.575093884E0,-8.210029006E-1,1.150870085E0,6.579018831E-1
1.580038884E0,-7.788531780E-1,1.218676209E0,5.888741016E-1
1.584983884E0,-7.293730974E-1,1.271821499E0,5.076290369E-1
1.589928884E0,-6.829473376E-1,1.282817006E0,4.196644127E-1
1.594873884E0,-6.328563690E-1,1.277319193E0,3.243694305E-1
1.599817884E0,-5.791002512E-1,1.284649611E0,2.266310006E-1
1.604748460E0,-5.265658498E-1,1.317025423E0,1.203404516E-1
1.609693460E0,-4.770857692E-1,1.340238333E0,1.466076635E-2
1.614638460E0,-4.294382632E-1,1.349401355E0,-8.857546002E-2
1.619583460E0,-3.878994286E-1,1.331075311E0,-1.875356287E-1
1.624528460E0,-3.610213697E-1,1.249830246E0,-3.353650272E-1
1.629472460E0,-3.396410644E-1,1.051909924E0,-4.361577928E-1
1.634417460E0,-3.341432810E-1,9.480628371E-1,-5.448917747E-1
1.639357691E0,-3.060434759E-1,8.491026759E-1,-6.530149579E-1
1.644302691E0,-2.748893499E-1,7.330383062E-1,-7.599163651E-1
1.649247691E0,-2.302961946E-1,5.992587805E-1,-8.607091308E-1
1.654192691E0,-1.704314053E-1,4.520402849E-1,-9.608910084E-1
1.659137691E0,-9.773843735E-2,3.042109013E-1,-1.052520871E0
1.664081691E0,-1.099557430E-2,1.459967941E-1,-1.145372391E0
1.669026691E0,8.674286306E-2,-2.138028294E-2,-1.235169530E0
1.673971691E0,1.954768747E-1,-1.918116808E-1,-1.324355841E0
1.678916691E0,3.164281845E-1,-3.536909819E-1,-1.431257248E0
1.683861691E0,4.495968223E-1,-5.021312237E-1,-1.575421453E0
1.688806691E0,6.004805565E-1,-6.230825782E-1,-1.770287514E0
1.693750691E0,7.556403279E-1,-6.878342628E-1,-2.017687798E0
1.698695691E0,9.028588533E-1,-7.061602473E-1,-2.288912058E0
1.703617537E0,1.034805775E0,-6.951646209E-1,-2.537534237E0
1.708560422E0,1.150259256E0,-6.279694438E-1,-2.744006634E0
1.713505422E0,1.248608589E0,-5.088507533E-1,-2.890614271E0
1.718450422E0,1.335962296E0,-3.262020350E-1,-2.991407156E0
1.723394422E0,1.382387996E0,-7.391469181E-2,-3.051882744E0
1.728339422E0,1.373225093E0,3.976732790E-1,-3.056158781E0
1.733284422E0,1.335962296E0,6.957755089E-1,-3.024393797E0
1.738229422E0,1.286482215E0,1.008538485E0,-2.951090097E0
1.743171076E0,1.246775985E0,1.078177214E0,-2.854573250E0
1.748116076E0,1.268767118E0,8.246681094E-1,-2.598620653E0
1.753060076E0,1.307862520E0,2.651155293E-1,-2.164295673E0
1.758005076E0,1.371392488E0,-4.532620013E-1,-1.614516854E0
1.762950076E0,1.411709547E0,-1.142318010E0,-1.134376764E0
1.767895076E0,1.351844788E0,-1.583362699E0,-7.776314616E-1
1.772840076E0,1.301753879E0,-1.717142224E0,-4.514294267E-1
1.777783306E0,1.240056396E0,-1.547321677E0,-2.913827300E-1
1.782727306E0,1.152702689E0,-1.203404546E0,-2.455678284E-1
1.787672306E0,1.103833556E0,-8.155050874E-1,-2.779437006E-1
1.792495306E0,1.132544160E0,-4.337143302E-1,-4.801400900E-1
1.797562306E0,1.174082994E0,-3.793473244E-1,-5.558874011E-1
1.802491037E0,1.271210551E0,-3.933972120E-1,-6.878342628E-1
1.807436037E0,1.386664152E0,-4.758640230E-1,-7.470881939E-1
1.812380037E0,1.493565559E0,-5.668829679E-1,-7.501425147E-1
1.817325037E0,1.578475833E0,-6.615670323E-1,-7.104362845E-1
1.822270037E0,1.626123309E0,-7.476990819E-1,-6.609562039E-1
1.827215037E0,1.674381614E0,-8.173376918E-1,-5.687155724E-1
1.832160037E0,1.659720898E0,-8.594874144E-1,-4.996877611E-1
1.837090191E0,1.648725271E0,-8.845328689E-1,-4.166100919E-1
1.842034191E0,1.609019041E0,-9.321803451E-1,-3.280346394E-1
1.846979191E0,1.562593341E0,-1.000597239E0,-2.474004179E-1
1.851924191E0,1.524719596E0,-1.081842303E0,-1.905899495E-1
1.856869191E0,1.478293896E0,-1.169806957E0,-1.740965992E-1
1.861692191E0,1.422705173E0,-1.287703991E0,-2.089159191E-1
1.866759191E0,1.400714040E0,-1.419039965E0,-2.028072625E-1
1.871703191E0,1.369559884E0,-1.533271790E0,-1.631010175E-1
1.876648191E0,1.323745012E0,-1.617571115E0,-1.130100712E-1
1.881593191E0,1.260215044E0,-1.657888293E0,-6.536258012E-2
1.886538191E0,1.185078621E0,-1.690264106E0,-3.237585723E-2
1.891483191E0,1.101390004E0,-1.706146598E0,-6.108652335E-3
1.896428191E0,1.012814522E0,-1.711644411E0,2.382374369E-2
1.901372191E0,9.175195694E-1,-1.694540143E0,4.581489414E-2
1.906295191E0,8.313875794E-1,-1.659109950E0,6.352998316E-2
1.911240191E0,7.550294399E-1,-1.631010175E0,7.269296050E-2
1.916185191E0,6.890559793E-1,-1.593136549E0,7.635815442E-2
1.921130191E0,6.365215778E-1,-1.543656468E0,7.941248268E-2
1.926075191E0,5.919284225E-1,-1.450194120E0,6.291911751E-2
1.931019191E0,5.858197808E-1,-1.376890302E0,5.253441259E-2
1.935964191E0,6.010913849E-1,-1.299310327E0,4.092797264E-2
1.940909191E0,6.377432942E-1,-1.219897866E0,2.993239649E-2
1.945854191E0,6.908885837E-1,-1.140485406E0,2.260201424E-2
1.950799191E0,7.617489696E-1,-1.058018565E0,1.954768784E-2
1.955744191E0,8.405506015E-1,-9.896016717E-1,2.260201424E-2
1.960688191E0,9.291260242E-1,-9.266825914E-1,3.176499158E-2
1.965633191E0,1.014036298E0,-8.655960560E-1,4.459316283E-2
1.970578191E0,1.090394497E0,-8.063421249E-1,6.352998316E-2
1.975523191E0,1.153924465E0,-7.568620443E-1,8.735372871E-2
1.980468191E0,1.196074128E0,-7.232644558E-1,1.185078546E-1
1.985413191E0,1.215621829E0,-7.153232098E-1,1.484402567E-1
1.990357191E0,1.204015374E0,-7.189884186E-1,1.826487035E-1
1.995302191E0,1.164919972E0,-7.354817390E-1,2.107485086E-1
2.000247191E0,1.091616154E0,-7.678576112E-1,2.290744632E-1
2.005160229E0,9.871582389E-1,-8.051204085E-1,2.357939780E-1
2.010104229E0,8.546004891E-1,-8.552113175E-1,2.400700450E-1
2.015049229E0,7.061602473E-1,-9.144652486E-1,2.431243658E-1
2.019994229E0,5.510004759E-1,-9.645562172E-1,2.431243658E-1
2.024939229E0,3.243694305E-1,-1.004873276E0,2.315179259E-1
2.029884229E0,1.850921661E-1,-9.932668805E-1,2.247984111E-1
2.034829229E0,7.696902007E-2,-9.608910084E-1,2.180788964E-1
2.039773229E0,-7.941247895E-3,-9.291260242E-1,2.125810981E-1
2.044718229E0,-5.192354694E-2,-8.784242272E-1,2.101376504E-1
2.049663229E0,-5.558873713E-2,-8.093964458E-1,2.193006277E-1
2.054608229E0,-2.443460934E-2,-7.324274182E-1,2.241875380E-1
2.059553229E0,3.787364438E-2,-6.640105247E-1,2.345722616E-1
2.064498229E0,1.252273768E-1,-5.919284225E-1,2.553416789E-1
2.069442229E0,2.235766798E-1,-5.253441334E-1,2.669481039E-1
2.074387229E0,3.103195429E-1,-5.033529401E-1,2.730567753E-1
2.079332229E0,3.799581826E-1,-4.886921942E-1,2.755002379E-1
2.084277229E0,4.263839424E-1,-4.660901725E-1,2.761110961E-1
2.089222229E0,4.563163519E-1,-4.471533597E-1,2.767219543E-1
2.094167229E0,4.673119187E-1,-4.331034720E-1,2.773328125E-1
2.099111229E0,4.721988440E-1,-4.208861589E-1,2.748893499E-1
2.104056229E0,4.764748812E-1,-4.098905921E-1,2.730567753E-1
2.109001229E0,4.831944108E-1,-3.842342496E-1,2.736676335E-1
2.113946229E0,4.923573732E-1,-3.543018401E-1,2.730567753E-1
2.118891229E0,5.027421117E-1,-3.139847219E-1,2.730567753E-1
2.123836229E0,5.167919993E-1,-2.449569702E-1,2.730567753E-1
2.128780229E0,5.174028873E-1,-2.089159191E-1,2.730567753E-1
2.133721883E0,5.088507533E-1,-1.820378453E-1,2.736676335E-1
2.138666883E0,4.929682612E-1,-1.649336219E-1,2.755002379E-1
2.143596037E0,4.734205604E-1,-1.496619880E-1,2.773328125E-1
2.148541037E0,4.434881806E-1,-1.386664063E-1,2.767219543E-1
2.153486037E0,4.086688459E-1,-1.319468915E-1,2.773328125E-1
2.158430037E0,3.665191531E-1,-1.343903542E-1,2.791654170E-1
2.163375037E0,3.225368559E-1,-1.411098689E-1,2.809980214E-1
2.168320037E0,2.712241709E-1,-1.472185254E-1,2.803871334E-1
2.173265037E0,2.193006277E-1,-1.496619880E-1,2.748893499E-1
2.178210037E0,1.643227488E-1,-1.392772794E-1,2.687807083E-1
2.183155037E0,1.093448773E-1,-1.197295859E-1,2.596177161E-1
2.188099037E0,5.803219974E-2,-8.491026610E-2,2.480112910E-1
2.193044037E0,7.941247895E-3,-3.909537569E-2,2.370157093E-1
2.197989037E0,-3.726277873E-2,1.771509275E-2,2.278527319E-1
2.202934037E0,-8.063421398E-2,7.635815442E-2,2.247984111E-1
2.207879037E0,-1.258382350E-1,1.233947799E-1,2.235766798E-1
2.212824037E0,-1.747074574E-1,1.582140923E-1,2.290744632E-1
2.217768037E0,-2.284636050E-1,1.875356287E-1,2.351831198E-1
2.222713037E0,-3.084869385E-1,2.498438805E-1,2.602286041E-1
2.227658037E0,-3.536909819E-1,3.029891551E-1,2.877175212E-1
2.232603037E0,-3.805690408E-1,3.543018401E-1,3.225368559E-1
2.237548037E0,-3.891211748E-1,3.799581826E-1,3.665191531E-1
2.242493037E0,-3.830125034E-1,3.738495409E-1,4.129449129E-1
2.247437037E0,-3.720169365E-1,3.640756905E-1,4.575380683E-1
2.252372652E0,-3.646865487E-1,3.536909819E-1,5.009095073E-1
2.257317652E0,-3.695734739E-1,3.414736688E-1,5.400048494E-1
2.262262652E0,-3.848451078E-1,3.164281845E-1,5.754350424E-1
2.267207652E0,-4.159992337E-1,2.718350291E-1,6.053674817E-1
2.272152652E0,-4.532620013E-1,1.966986060E-1,6.273586154E-1
2.277096652E0,-4.923573732E-1,9.896016866E-2,6.352998614E-1
2.282041652E0,-5.277875662E-1,-1.832595654E-2,6.383541822E-1
2.286986652E0,-5.619960427E-1,-1.386664063E-1,6.316346526E-1
2.291931652E0,-5.919284225E-1,-2.724458873E-1,6.090326309E-1
2.296876652E0,-6.126978397E-1,-4.117231667E-1,5.613851547E-1
2.301821652E0,-6.181956530E-1,-5.522221923E-1,4.911356568E-1
2.306765652E0,-6.090326309E-1,-6.939429045E-1,4.062253833E-1
2.311690960E0,-5.882632136E-1,-8.362745047E-1,3.048217595E-1
2.316635960E0,-5.577199459E-1,-9.608910084E-1,2.052507252E-1
2.321580960E0,-5.186246037E-1,-1.079398870E0,8.307767659E-2
2.326525960E0,-4.636467099E-1,-1.100168347E0,3.115412779E-2
2.331470960E0,-4.453207552E-1,-1.069014192E0,1.099557430E-2
2.336414960E0,-4.416555762E-1,-9.755517840E-1,2.871066704E-2
2.341359960E0,-4.447098970E-1,-8.258898258E-1,7.269296050E-2
2.346304960E0,-4.483750761E-1,-6.420193911E-1,1.258382350E-1
2.351249960E0,-4.502076805E-1,-4.386012554E-1,1.673770845E-1
2.356194960E0,-4.557054639E-1,-2.345722616E-1,1.942551434E-1
2.361139960E0,-4.612032473E-1,-3.359758854E-2,2.070833147E-1
2.366083960E0,-4.660901725E-1,1.386664063E-1,2.083050460E-1
2.371028960E0,-4.758640230E-1,2.785545588E-1,2.089159191E-1
2.375973960E0,-4.868595898E-1,3.830125034E-1,2.101376504E-1
2.380918960E0,-4.917465150E-1,4.465425014E-1,2.180788964E-1
2.385863960E0,-4.984660447E-1,4.850270152E-1,2.357939780E-1
2.390808960E0,-5.051855445E-1,5.015203953E-1,2.620611787E-1
2.395752960E0,-5.064072609E-1,4.978551865E-1,2.901609838E-1
2.400697960E0,-5.045747161E-1,4.612032473E-1,3.182607889E-1
2.405642960E0,-5.015203953E-1,3.982841372E-1,3.433062732E-1
2.410587960E0,-4.978551865E-1,3.072652221E-1,3.762930036E-1
2.415532960E0,-4.831944108E-1,2.015855312E-1,4.233296216E-1
2.420477960E0,-4.673119187E-1,1.404990070E-2,5.021312237E-1
2.425421960E0,-4.544837475E-1,-1.203404516E-1,5.461135507E-1
2.430366960E0,-4.642575979E-1,-2.846632004E-1,5.815436840E-1
2.435311960E0,-4.886921942E-1,-4.660901725E-1,6.151412725E-1
2.440256960E0,-4.972442985E-1,-6.047565937E-1,6.444628239E-1
2.445201960E0,-4.569272101E-1,-6.365215778E-1,6.627888083E-1
2.450146960E0,-3.714060783E-1,-6.157521605E-1,6.597344875E-1
2.455091960E0,-2.528982162E-1,-5.528330207E-1,6.511823535E-1
2.460035960E0,-1.282816976E-1,-5.137376785E-1,6.554583907E-1
2.464980960E0,-1.588249579E-2,-5.296201706E-1,6.682865620E-1
2.469803960E0,9.834930301E-2,-5.485569835E-1,6.768386960E-1
2.474870960E0,2.138028294E-1,-5.632177591E-1,6.811147332E-1
2.479815960E0,3.268128932E-1,-5.564982295E-1,6.835582256E-1
2.484760960E0,4.331034720E-1,-5.253441334E-1,6.860016584E-1
2.489704960E0,5.131267905E-1,-4.422664344E-1,6.811147332E-1
2.494649960E0,5.546656251E-1,-3.017674387E-1,6.719517708E-1
2.499594960E0,5.638286471E-1,-1.172861308E-1,6.640105247E-1
2.504539960E0,5.418374538E-1,1.172861308E-1,6.407976151E-1
2.509484460E0,4.520402849E-1,3.689626157E-1,5.900958180E-1
2.514429460E0,3.646865487E-1,6.456845403E-1,5.595525503E-1
2.519358537E0,3.023782969E-1,1.049466491E0,5.577199459E-1
2.524303537E0,1.960877478E-1,1.228450060E0,5.888741016E-1
2.529248537E0,1.087340117E-1,1.326799273E0,6.249151230E-1
2.534193537E0,4.276056774E-3,1.367116451E0,6.511823535E-1
2.539138537E0,-1.160643995E-1,1.357953429E0,6.737843752E-1
2.544083537E0,-2.516764700E-1,1.340238333E0,6.860016584E-1
2.549027537E0,-3.762930036E-1,1.337794900E0,6.914994717E-1
2.553972537E0,-4.728097022E-1,1.366505504E0,6.890559793E-1
2.558917537E0,-5.528330207E-1,1.437976837E0,6.725626588E-1
2.563862537E0,-6.139195561E-1,1.532050014E0,6.511823535E-1
2.568807537E0,-6.505714655E-1,1.597412586E0,6.126978397E-1
2.573746306E0,-6.841690540E-1,1.694540143E0,5.821545720E-1
2.578690306E0,-7.067710757E-1,1.819767594E0,5.607742667E-1
2.583635306E0,-7.220427394E-1,1.940718889E0,5.436700583E-1
2.588580306E0,-7.507534027E-1,2.032348633E0,5.021312237E-1
2.593520729E0,-7.800748944E-1,2.086715698E0,4.538728893E-1
2.598465729E0,-7.947356701E-1,2.125200272E0,4.166100919E-1
2.603410729E0,-8.014551997E-1,2.158797741E0,3.946189582E-1
2.608354729E0,-7.996225953E-1,2.142915249E0,3.933972120E-1
2.613298883E0,-7.953465581E-1,2.071444035E0,4.050036669E-1
2.618243883E0,-7.843509912E-1,1.901623487E0,4.447098970E-1
2.623188883E0,-7.629706860E-1,1.764178872E0,4.734205604E-1
2.628133883E0,-7.385360599E-1,1.615738630E0,5.137376785E-1
2.633078883E0,-7.232644558E-1,1.470352650E0,5.491678715E-1
2.638022883E0,-6.982190013E-1,1.342681766E0,5.852088928E-1
2.642967883E0,-6.719517708E-1,1.233336926E0,6.023131609E-1
2.647891229E0,-6.456845403E-1,1.141096234E0,6.010913849E-1
2.652836229E0,-6.188064814E-1,1.056796908E0,5.815436840E-1
2.657774998E0,-6.035348773E-1,9.767735004E-1,5.528330207E-1
2.662719998E0,-5.998696685E-1,8.985827565E-1,5.277875662E-1
2.667663998E0,-6.072000265E-1,8.222246170E-1,5.131267905E-1
2.672608998E0,-6.218608022E-1,7.599163651E-1,5.057964325E-1
2.677553998E0,-6.365215778E-1,7.098253965E-1,5.045747161E-1
2.682498998E0,-6.615670323E-1,6.670648456E-1,5.057964325E-1
2.687443998E0,-6.866125464E-1,6.236934066E-1,5.076290369E-1
2.692365767E0,-7.116580009E-1,5.803219676E-1,5.161811113E-1
2.697309767E0,-7.360926270E-1,5.393940210E-1,5.290092826E-1
2.702254767E0,-7.525860071E-1,5.039638281E-1,5.540547967E-1
2.707199767E0,-7.660250068E-1,4.758640230E-1,5.821545720E-1
2.712144767E0,-7.782423496E-1,4.569272101E-1,6.133087277E-1
2.717089767E0,-7.837401032E-1,4.526511431E-1,6.579018831E-1
2.722034767E0,-7.880161405E-1,4.636467099E-1,6.884451509E-1
2.726978767E0,-7.941248417E-1,4.697553813E-1,7.141014934E-1
2.731923767E0,-8.038986921E-1,4.838052690E-1,7.330383062E-1
2.736868767E0,-8.179485798E-1,4.990769029E-1,7.483099103E-1
2.741813767E0,-8.295549750E-1,5.290092826E-1,7.531968355E-1
2.746758767E0,-8.442157507E-1,5.717698932E-1,7.519751191E-1
2.751703767E0,-8.509352803E-1,6.169738770E-1,7.422012687E-1
2.756647767E0,-8.533787727E-1,6.609562039E-1,7.226535678E-1
2.761592767E0,-8.478809595E-1,7.092145681E-1,7.018841505E-1
2.766537767E0,-8.356636763E-1,7.586946487E-1,6.743952036E-1
2.771482767E0,-8.136724830E-1,8.167268038E-1,6.426302195E-1
2.776427767E0,-7.880161405E-1,8.686503768E-1,6.041457057E-1
2.781372767E0,-7.562511563E-1,8.814785480E-1,5.650503635E-1
2.786316767E0,-7.287622094E-1,8.906415105E-1,5.198463202E-1
2.791261767E0,-7.141014934E-1,8.979719281E-1,4.715879560E-1
2.796198229E0,-6.811147332E-1,9.132435322E-1,4.221078753E-1
2.801143229E0,-6.560692787E-1,9.132435322E-1,3.707951903E-1
2.806088229E0,-6.084218025E-1,9.193521738E-1,3.078760803E-1
2.811033229E0,-5.674937963E-1,9.083566070E-1,2.412917763E-1
2.815977229E0,-5.186246037E-1,8.582656980E-1,1.233947799E-1
2.820922229E0,-4.422664344E-1,8.100073338E-1,3.237585723E-2
2.825867229E0,-3.842342496E-1,7.495316267E-1,-6.658431143E-2
2.830812229E0,-3.310889602E-1,7.104362845E-1,-1.802052408E-1
2.835757229E0,-2.926044464E-1,6.511823535E-1,-3.097086847E-1
2.840702229E0,-2.663372457E-1,5.681046844E-1,-4.379903674E-1
2.845640421E0,-2.449569702E-1,4.844161272E-1,-5.577199459E-1
2.850585421E0,-2.168571651E-1,3.982841372E-1,-6.646214128E-1
2.855530421E0,-1.747074574E-1,3.243694305E-1,-7.574729323E-1
2.860475421E0,-1.172861308E-1,2.687807083E-1,-8.411614299E-1
2.865420421E0,-4.886921868E-2,2.217440903E-1,-9.187413454E-1
2.870365421E0,2.993239649E-2,1.698205322E-1,-1.003040791E0
2.875309421E0,1.191187203E-1,1.014036313E-1,-1.105055213E0
2.880254421E0,2.174680233E-1,1.771509275E-2,-1.237612963E0
2.885199421E0,3.084869385E-1,-5.681046844E-2,-1.416596532E0
2.890144421E0,4.105014503E-1,-1.582140923E-1,-1.644449234E0
2.895081113E0,5.192354321E-1,-2.657263875E-1,-1.906510472E0
2.900026113E0,6.395758986E-1,-3.420845270E-1,-2.170404196E0
2.904970113E0,7.562511563E-1,-3.738495409E-1,-2.428189278E0
2.909915113E0,8.613200188E-1,-3.775147200E-1,-2.681698322E0
2.914860113E0,9.529497623E-1,-3.500257730E-1,-2.995683193E0
2.919805113E0,1.070846796E0,-2.205223590E-1,-3.155118942E0
2.924750113E0,1.105055213E0,-9.590584040E-2,-3.269961596E0
2.929689075E0,1.088561893E0,8.918632567E-2,-3.323107004E0
2.934633075E0,1.052520871E0,3.255911767E-1,-3.328604698E0
2.939578075E0,1.020755768E0,5.693264008E-1,-3.279735565E0
2.944523075E0,9.816604257E-1,8.686503768E-1,-3.231477261E0
2.949468075E0,9.584475756E-1,1.025031924E0,-3.153897285E0
2.954413075E0,8.710938692E-1,8.979719281E-1,-2.921157598E0
2.959358075E0,9.077457786E-1,6.579018831E-1,-2.412306786E0
2.964303075E0,9.944885969E-1,3.219259977E-1,-1.753794074E0
2.969236883E0,1.021977544E0,-3.604105115E-2,-1.200350165E0
2.974181883E0,9.089674950E-1,-2.260201424E-1,-7.745771408E-1
2.979126883E0,8.515461683E-1,-2.974913716E-1,-5.070181489E-1
2.984071883E0,7.825183868E-1,-3.115412891E-1,-3.695734739E-1
2.989011036E0,7.635815740E-1,-2.339613885E-1,-3.255911767E-1
2.993951036E0,8.038986921E-1,-1.166752651E-1,-3.903428912E-1
2.998895036E0,9.022479653E-1,-4.642575979E-2,-5.412266254E-1
3.003843036E0,1.006095052E0,-1.227839142E-1,-7.110471725E-1
3.008788036E0,1.158811331E0,-3.420845270E-1,-8.008443117E-1
3.013731459E0,1.315192819E0,-4.935791194E-1,-8.313875794E-1
3.018676459E0,1.553430319E0,-5.858197808E-1,-8.008443117E-1
3.023499459E0,1.665218711E0,-5.241223574E-1,-7.373143435E-1
3.028562998E0,1.725083470E0,-4.361577928E-1,-6.438519955E-1
3.033507998E0,1.717142224E0,-3.628539443E-1,-5.051855445E-1
3.038452998E0,1.649336219E0,-3.817907870E-1,-4.715879560E-1
3.043396998E0,1.549154282E0,-4.062253833E-1,-5.039638281E-1
3.048341998E0,1.499063253E0,-3.805690408E-1,-5.064072609E-1
3.053286998E0,1.418429136E0,-3.885102868E-1,-4.612032473E-1
3.058231998E0,1.348179579E0,-4.807509482E-1,-3.958406746E-1
3.063176998E0,1.289536476E0,-6.029239893E-1,-3.353650272E-1
3.068121998E0,1.229671717E0,-7.000515461E-1,-2.987131178E-1
3.073065998E0,1.166752577E0,-7.849618196E-1,-2.651155293E-1
3.078010998E0,1.107498646E0,-8.594874144E-1,-2.345722616E-1
3.082955998E0,1.046412110E0,-9.193521738E-1,-2.125810981E-1
3.087900998E0,9.816604257E-1,-9.663888216E-1,-1.960877478E-1
3.092807498E0,9.120218158E-1,-1.005484223E0,-1.814269722E-1
3.097752498E0,8.350527883E-1,-1.043357849E0,-1.637118906E-1
3.102696498E0,7.629706860E-1,-1.080009699E0,-1.380555481E-1
3.107641498E0,6.786713004E-1,-1.112385631E0,-1.172861308E-1
3.112586498E0,5.882632136E-1,-1.141096234E0,-9.773843735E-2
3.117531498E0,4.508185387E-1,-1.159422278E0,-9.468411654E-2
3.122476498E0,3.604104817E-1,-1.160033107E0,-9.285151958E-2
3.127421498E0,2.730567753E-1,-1.153924465E0,-8.552113175E-2
3.132365498E0,1.960877478E-1,-1.139874578E0,-7.696902007E-2
3.137310498E0,1.356120855E-1,-1.132544160E0,-7.574728876E-2
3.142255498E0,1.130100712E-1,-1.103833556E0,-7.147123665E-2
3.147200498E0,1.343903542E-1,-1.062905550E0,-6.230825558E-2
3.152145498E0,2.009746730E-1,-1.016479731E0,-4.398229718E-2
3.157090498E0,3.097086847E-1,-9.590584636E-1,-2.565634064E-2
3.162034498E0,4.422664344E-1,-8.796459436E-1,-3.665191587E-3
3.166979498E0,5.809328556E-1,-7.953465581E-1,1.649336144E-2
3.171924498E0,7.110471725E-1,-7.165449262E-1,2.993239649E-2
3.176869498E0,8.222246170E-1,-6.475171447E-1,4.581489414E-2
3.181692498E0,9.413433671E-1,-5.638286471E-1,7.880161703E-2
3.186759498E0,9.663888216E-1,-5.393940210E-1,9.162978828E-2
3.191581498E0,1.001819015E0,-4.721988440E-1,1.270599663E-1
3.196648498E0,1.000597239E0,-4.538728893E-1,1.350012124E-1
3.201593498E0,9.792169929E-1,-4.214970171E-1,1.545489132E-1
3.206538498E0,9.352346659E-1,-4.117231667E-1,1.722639948E-1
3.211483498E0,8.680394888E-1,-4.111123085E-1,1.985312104E-1
3.216428498E0,7.330383062E-1,-4.166100919E-1,2.107485086E-1
3.221367305E0,6.304129362E-1,-4.294382632E-1,2.205223590E-1
3.226294575E0,5.326744914E-1,-4.434881806E-1,2.272418737E-1
3.231239575E0,4.489859641E-1,-4.612032473E-1,2.260201424E-1
3.236184575E0,3.799581826E-1,-4.783074856E-1,2.235766798E-1
3.241129575E0,3.213151097E-1,-4.893030524E-1,2.180788964E-1
3.246074575E0,2.675589919E-1,-4.899139404E-1,2.125810981E-1
3.251018575E0,2.180788964E-1,-4.813618064E-1,2.113593817E-1
3.255963575E0,1.740965992E-1,-4.612032473E-1,2.174680233E-1
3.260908575E0,1.417207420E-1,-4.355469346E-1,2.284636050E-1
3.265853575E0,1.178969890E-1,-4.098905921E-1,2.474004179E-1
3.270798575E0,1.044579595E-1,-3.933972120E-1,2.632829249E-1
3.275743575E0,1.136209369E-1,-4.159992337E-1,2.724458873E-1
3.280688575E0,9.896016866E-2,-3.995058835E-1,2.913827300E-1
3.285632575E0,1.142318025E-1,-4.123340547E-1,3.011565804E-1
3.290577575E0,1.276708394E-1,-4.312708676E-1,3.158173263E-1
3.295522575E0,1.447750628E-1,-4.550946057E-1,3.225368559E-1
3.300467575E0,1.557706445E-1,-4.740314186E-1,3.316998184E-1
3.305412575E0,1.661553532E-1,-4.935791194E-1,3.426954150E-1
3.310357575E0,1.753183305E-1,-5.143485069E-1,3.530801237E-1
3.315301575E0,1.930334121E-1,-5.387831330E-1,3.579670191E-1
3.320246575E0,2.076941878E-1,-5.503895879E-1,3.610213697E-1
3.325191575E0,2.247984111E-1,-5.558874011E-1,3.591887653E-1
3.330136575E0,2.461786866E-1,-5.607742667E-1,3.573561609E-1
3.335081575E0,2.669481039E-1,-5.644394755E-1,3.567453027E-1
3.340026575E0,2.834414840E-1,-5.613851547E-1,3.524692357E-1
3.344970575E0,2.950479090E-1,-5.510004759E-1,3.506366611E-1
3.349915575E0,2.981022298E-1,-5.314527750E-1,3.451388776E-1
3.354860575E0,2.926044464E-1,-5.015203953E-1,3.420845270E-1
3.359805575E0,2.803871334E-1,-4.642575979E-1,3.371976018E-1
3.364750575E0,2.602286041E-1,-4.245513380E-1,3.298672438E-1
3.369692882E0,2.370157093E-1,-3.811798990E-1,3.231477141E-1
3.374636882E0,2.089159191E-1,-3.420845270E-1,3.127630055E-1
3.379574998E0,1.789835095E-1,-3.121521473E-1,2.999348342E-1
3.384519998E0,1.472185254E-1,-2.901609838E-1,2.895501256E-1
3.389464998E0,1.075122803E-1,-2.785545588E-1,2.779437006E-1
3.394409998E0,7.147123665E-2,-2.773328125E-1,2.681698501E-1
3.399354998E0,3.604105115E-2,-2.748893499E-1,2.626720667E-1
3.404294113E0,6.108652335E-3,-2.700024247E-1,2.626720667E-1
3.409227190E0,-1.893682219E-2,-2.547308207E-1,2.706133127E-1
3.414172190E0,-5.314527452E-2,-2.076941878E-1,2.797762752E-1
3.419117190E0,-7.880161703E-2,-1.551597714E-1,2.993239760E-1
3.424062190E0,-1.050688252E-1,-1.044579595E-1,3.243694305E-1
3.429007190E0,-1.307251602E-1,-5.864306539E-2,3.506366611E-1
3.433951190E0,-1.521054506E-1,-1.527163107E-2,3.750712574E-1
3.438896190E0,-1.685988009E-1,3.543018550E-2,3.866777122E-1
3.443841190E0,-1.777617931E-1,1.142318025E-1,3.946189582E-1
3.448786190E0,-1.850921661E-1,2.229658216E-1,4.086688459E-1
3.453731190E0,-1.936442852E-1,3.524692357E-1,4.343251884E-1
3.458676190E0,-2.107485086E-1,4.667010605E-1,4.624249935E-1
3.463498190E0,-2.480112910E-1,5.485569835E-1,4.911356568E-1
3.468565190E0,-3.090978265E-1,5.943718553E-1,5.106833577E-1
3.473510190E0,-3.878994286E-1,5.955936313E-1,5.283984542E-1
3.478455190E0,-4.715879560E-1,5.357288122E-1,5.320636034E-1
3.483400190E0,-5.528330207E-1,4.129449129E-1,5.222898126E-1
3.488345190E0,-6.273586154E-1,2.535090744E-1,4.966334403E-1
3.493289190E0,-6.835582256E-1,8.368854225E-2,4.520402849E-1
3.498234190E0,-7.330383062E-1,-9.162978828E-2,3.848451078E-1
3.503179190E0,-7.654141784E-1,-2.577851415E-1,2.999348342E-1
3.508124190E0,-7.910705209E-1,-4.123340547E-1,2.064724565E-1
3.513069190E0,-8.100073338E-1,-6.090326309E-1,6.963863969E-2
3.518014190E0,-8.118399382E-1,-6.945537925E-1,-1.832595794E-3
3.522958190E0,-8.148942590E-1,-7.434229851E-1,-4.031710699E-2
3.527903190E0,-8.155050874E-1,-7.611380816E-1,-3.970624134E-2
3.532848190E0,-8.185594082E-1,-7.446447611E-1,2.443460980E-3
3.537793190E0,-8.167268038E-1,-6.902777553E-1,5.864306539E-2
3.542738190E0,-8.075638413E-1,-6.059783101E-1,1.099557430E-1
3.547683190E0,-7.935139537E-1,-4.996877611E-1,1.521054506E-1
3.552627190E0,-7.696902156E-1,-3.793473244E-1,1.783726513E-1
3.557450190E0,-7.348709106E-1,-2.449569702E-1,2.089159191E-1
3.562517190E0,-6.976081133E-1,-1.105666086E-1,2.425135076E-1
3.567462190E0,-6.646214128E-1,-3.054326167E-3,2.724458873E-1
3.572407190E0,-6.285803318E-1,8.185594529E-2,3.017674387E-1
3.577312497E0,-5.888741016E-1,1.508837193E-1,3.341432810E-1
3.582256497E0,-5.473352671E-1,2.266310006E-1,3.549126983E-1
3.587201497E0,-5.112941861E-1,3.139847219E-1,3.726277947E-1
3.592146497E0,-4.776966274E-1,3.964515328E-1,3.933972120E-1
3.597091497E0,-4.386012554E-1,4.599815309E-1,4.141666293E-1
3.602036497E0,-3.988949955E-1,4.972442985E-1,4.373795092E-1
3.606981497E0,-3.591887653E-1,4.886921942E-1,4.715879560E-1
3.611925497E0,-3.036000133E-1,3.830125034E-1,5.186246037E-1
3.616870497E0,-2.871066630E-1,2.516764700E-1,5.387831330E-1
3.621815497E0,-2.846632004E-1,8.063421398E-2,5.510004759E-1
3.626760497E0,-3.158173263E-1,-1.423316002E-1,5.461135507E-1
3.631705497E0,-3.805690408E-1,-4.037819207E-1,5.442809463E-1
3.636650497E0,-4.404338300E-1,-6.487388611E-1,5.522221923E-1
3.641594497E0,-4.789183438E-1,-8.112290502E-1,5.839871764E-1
3.646539497E0,-4.844161272E-1,-8.747590184E-1,6.249151230E-1
3.651484497E0,-4.508185387E-1,-8.827002645E-1,6.750060916E-1
3.656429497E0,-3.854559660E-1,-8.491026759E-1,7.312057018E-1
3.661374497E0,-3.017674387E-1,-7.941248417E-1,7.837401032E-1
3.666319497E0,-2.015855312E-1,-7.348709106E-1,8.271115422E-1
3.671263497E0,-6.841690838E-2,-6.542366743E-1,8.539896011E-1
3.676208497E0,6.414084882E-2,-5.681046844E-1,8.704829812E-1
3.681153497E0,1.979203373E-1,-4.776966274E-1,8.802568316E-1
3.686098497E0,3.249803185E-1,-3.775147200E-1,8.784242272E-1
3.691043497E0,4.300491214E-1,-2.480112910E-1,8.515461683E-1
3.695985882E0,4.746423066E-1,-1.044579595E-1,7.990117669E-1
3.700929882E0,4.758640230E-1,3.604105115E-2,7.440338731E-1
3.705874882E0,4.685336351E-1,1.875356287E-1,7.086036801E-1
3.710819882E0,4.630358517E-1,4.459316432E-1,7.024950385E-1
3.715764882E0,4.428772926E-1,6.102544069E-1,7.128797174E-1
3.720704420E0,4.062253833E-1,7.489207983E-1,7.232644558E-1
3.725649420E0,3.335324228E-1,8.399397135E-1,7.373143435E-1
3.730593420E0,2.168571651E-1,8.778133392E-1,7.605272532E-1
3.735538420E0,5.986479297E-2,8.930850029E-1,7.941248417E-1
3.740483420E0,-1.203404516E-1,8.955284357E-1,8.148942590E-1
3.745414805E0,-3.115412891E-1,8.894197941E-1,8.301658630E-1
3.750359805E0,-4.917465150E-1,8.936958313E-1,8.332201838E-1
3.755304805E0,-6.365215778E-1,9.236282706E-1,8.228355050E-1
3.760249805E0,-7.391469479E-1,9.706648588E-1,8.002334833E-1
3.765166074E0,-7.886270285E-1,1.034194827E0,7.678576112E-1
3.770111074E0,-7.965682745E-1,1.114829063E0,7.275404930E-1
3.775056074E0,-7.935139537E-1,1.255938888E0,6.798930168E-1
3.780001074E0,-8.130616546E-1,1.414153099E0,6.261368990E-1
3.784946074E0,-8.448266387E-1,1.587638736E0,5.784893632E-1
3.789891074E0,-8.863654733E-1,1.740355134E0,5.467243791E-1
3.794835074E0,-9.224064946E-1,1.864971638E0,5.277875662E-1
3.799780074E0,-9.419541955E-1,1.962099195E0,5.192354321E-1
3.804725074E0,-9.712757468E-1,1.982868552E0,5.265658498E-1
3.809670074E0,-1.029918790E0,1.877799749E0,5.503895879E-1
3.814615074E0,-1.053131700E0,1.750739813E0,5.729916096E-1
3.819560074E0,-1.056796908E0,1.625512362E0,6.010913849E-1
3.824504074E0,-1.037249207E0,1.524108768E0,6.273586154E-1
3.829449074E0,-9.981538057E-1,1.430035591E0,6.572909951E-1
3.834394074E0,-9.346238375E-1,1.343903542E0,6.805039048E-1
3.839339074E0,-8.539896011E-1,1.265101910E0,6.957755089E-1
3.844284074E0,-7.544185519E-1,1.186300278E0,6.988298297E-1
3.849229074E0,-6.579018831E-1,1.097724795E0,6.823364496E-1
3.854173074E0,-5.705481172E-1,9.999864101E-1,6.505714655E-1
3.859118074E0,-5.094616413E-1,9.046914577E-1,6.133087277E-1
3.864063074E0,-4.795292318E-1,8.271115422E-1,5.766568184E-1
3.869008074E0,-4.825835526E-1,7.745771408E-1,5.448917747E-1
3.873953074E0,-5.119050741E-1,7.476990819E-1,5.247332454E-1
3.878898074E0,-5.571091175E-1,7.367035151E-1,5.149593949E-1
3.883842074E0,-6.072000265E-1,7.385360599E-1,5.112941861E-1
3.888787074E0,-6.591235995E-1,7.385360599E-1,5.112941861E-1
3.893732074E0,-7.067710757E-1,7.415903807E-1,5.149593949E-1
3.898677074E0,-7.440338731E-1,7.428121567E-1,5.180137157E-1
3.903622074E0,-7.684684992E-1,7.464773059E-1,5.229006410E-1
3.908567074E0,-7.947356701E-1,7.458664775E-1,5.259549618E-1
3.913511074E0,-8.057312369E-1,7.434229851E-1,5.302310586E-1
3.918456074E0,-8.148942590E-1,7.385360599E-1,5.320636034E-1
3.923401074E0,-8.216137290E-1,7.250970602E-1,5.332853794E-1
3.928346074E0,-8.240572214E-1,7.061602473E-1,5.381723046E-1
3.933291074E0,-8.216137290E-1,6.969972253E-1,5.418374538E-1
3.938236074E0,-8.191702962E-1,7.086036801E-1,5.418374538E-1
3.943180074E0,-8.142833710E-1,7.391469479E-1,5.418374538E-1
3.948125074E0,-8.087855577E-1,7.849618196E-1,5.406157374E-1
3.953070074E0,-8.032878041E-1,8.472700715E-1,5.369505286E-1
3.958015074E0,-8.002334833E-1,9.144652486E-1,5.253441334E-1
3.962960074E0,-7.941248417E-1,9.786061049E-1,5.100724697E-1
3.967905074E0,-7.867944241E-1,1.026864529E0,4.868595898E-1
3.972849074E0,-7.709119320E-1,1.057407737E0,4.605923891E-1
3.977780920E0,-7.385360599E-1,1.077566266E0,4.276056588E-1
3.982725920E0,-6.933320761E-1,1.086729288E0,3.891211748E-1
3.987548920E0,-6.065891981E-1,1.061072946E0,3.262020350E-1
3.992615920E0,-5.723807216E-1,1.040303469E0,2.987131178E-1
3.997559189E0,-5.070181489E-1,9.828822017E-1,2.321287990E-1
4.002503189E0,-4.392121136E-1,9.224064946E-1,1.685988009E-1
4.007451189E0,-3.775147200E-1,8.332201838E-1,5.986479297E-2
4.012396189E0,-3.158173263E-1,7.739662528E-1,-2.321287990E-2
4.017340189E0,-2.907718420E-1,6.963863969E-1,-1.246165112E-1
4.022163189E0,-2.791654170E-1,5.962044597E-1,-2.357939780E-1
4.027230189E0,-2.785545588E-1,4.954117239E-1,-3.494149148E-1
4.032175189E0,-2.626720667E-1,4.300491214E-1,-4.563163519E-1
4.037120189E0,-2.278527319E-1,3.860668242E-1,-5.571091175E-1
4.042065189E0,-1.692096740E-1,3.152064681E-1,-6.462954283E-1
4.047009189E0,-9.651670605E-2,2.327396572E-1,-7.360926270E-1
4.051938843E0,-1.282817032E-2,1.594358236E-1,-8.319984674E-1
4.056883843E0,8.185594529E-2,1.007927656E-1,-9.376781583E-1
4.061828843E0,1.905899495E-1,7.391469181E-2,-1.075122833E0
4.066773843E0,3.017674387E-1,2.260201424E-2,-1.260825872E0
4.071718843E0,4.153883755E-1,-3.787364438E-2,-1.516167521E0
4.076663843E0,5.351179838E-1,-9.834930301E-2,-1.825265408E0
4.081607843E0,6.621779203E-1,-1.588249654E-1,-2.177734613E0
4.086552843E0,8.002334833E-1,-2.107485086E-1,-2.521651745E0
4.091490728E0,9.395107627E-1,-2.425135076E-1,-2.824640989E0
4.096435728E0,1.068403363E0,-2.247984111E-1,-3.076317310E0
4.101380728E0,1.176526427E0,-1.453859210E-1,-3.277292013E0
4.106325728E0,1.241889000E0,1.178969890E-1,-3.457497358E0
4.111269728E0,1.259604096E0,4.257730842E-1,-3.481321096E0
4.116193882E0,1.226617455E0,8.930850029E-1,-3.448945284E0
4.121138882E0,1.186300278E0,1.382998943E0,-3.379306555E0
4.126083882E0,1.088561893E0,1.807550311E0,-3.334713459E0
4.131028882E0,9.859365225E-1,2.012190104E0,-3.193603516E0
4.135973882E0,1.053131700E0,1.915673375E0,-2.949257374E0
4.140917882E0,1.233947754E0,1.464244008E0,-2.543642998E0
4.145862882E0,1.426981211E0,6.872233748E-1,-1.952936172E0
4.150807882E0,1.647503614E0,-1.007927656E-1,-1.342070937E0
4.155752882E0,1.696983695E0,-6.407976151E-1,-8.649851680E-1
4.160697882E0,1.644449234E0,-9.254608750E-1,-4.886921942E-1
4.165642882E0,1.552208543E0,-8.912523985E-1,-2.638937831E-1
4.170586882E0,1.514945865E0,-6.383541822E-1,-1.954768747E-1
4.175531882E0,1.485013366E0,-2.602286041E-1,-2.651155293E-1
4.180476882E0,1.529606581E0,7.941247895E-3,-4.312708676E-1
4.185421882E0,1.601688623E0,5.192354694E-2,-5.766568184E-1
4.190366882E0,1.684766293E0,-4.398229718E-2,-6.328563690E-1
4.195311882E0,1.764789701E0,-2.223549485E-1,-6.585127115E-1
4.200233228E0,1.842980504E0,-3.940080702E-1,-6.878342628E-1
4.205178228E0,1.914451718E0,-5.693264008E-1,-6.395758986E-1
4.210123228E0,1.984090328E0,-6.493497491E-1,-5.864306092E-1
4.215068228E0,2.018298864E0,-6.921103001E-1,-5.070181489E-1
4.220013228E0,2.004859686E0,-7.623597980E-1,-4.086688459E-1
4.224958228E0,1.948049307E0,-8.301658630E-1,-3.109304011E-1
4.229902228E0,1.880854130E0,-8.735373020E-1,-2.968805134E-1
4.234847228E0,1.792889476E0,-8.344419003E-1,-3.103195429E-1
4.239792228E0,1.687209845E0,-7.825183868E-1,-3.384193480E-1
4.244737228E0,1.601688623E0,-7.703011036E-1,-3.292563558E-1
4.249682228E0,1.524108768E0,-8.368853927E-1,-2.797762752E-1
4.254627228E0,1.448972344E0,-9.505063295E-1,-2.119702399E-1
4.259571228E0,1.357342601E0,-1.067181587E0,-1.655444801E-1
4.264516228E0,1.247386813E0,-1.169196129E0,-1.453859210E-1
4.269461228E0,1.124602914E0,-1.236391306E0,-1.386664063E-1
4.274406228E0,9.993755221E-1,-1.269377947E0,-1.453859210E-1
4.279351228E0,8.765916228E-1,-1.290758252E0,-1.569923609E-1
4.284296228E0,7.519751191E-1,-1.299310327E0,-1.661553532E-1
4.289240074E0,6.444628239E-1,-1.302364707E0,-1.716531366E-1
4.294169189E0,5.479460955E-1,-1.291980028E0,-1.771509200E-1
4.299114189E0,4.648684561E-1,-1.269377947E0,-1.808161139E-1
4.304059189E0,3.946189582E-1,-1.231504321E0,-1.844813079E-1
4.309004189E0,3.194825351E-1,-1.199739337E0,-1.936442852E-1
4.313949189E0,2.858849466E-1,-1.177137375E0,-1.997529417E-1
4.318893189E0,2.724458873E-1,-1.163698316E0,-2.052507252E-1
4.323838189E0,2.913827300E-1,-1.161254883E0,-2.052507252E-1
4.328661189E0,3.390302062E-1,-1.150259256E0,-2.015855312E-1
4.333728189E0,4.141666293E-1,-1.125213742E0,-1.918116808E-1
4.338673189E0,5.161811113E-1,-1.070235968E0,-1.728748679E-1
4.343496189E0,6.328563690E-1,-9.834930301E-1,-1.496619880E-1
4.348562189E0,7.519751191E-1,-8.686503768E-1,-1.209513173E-1
4.353507189E0,8.594874144E-1,-7.324274182E-1,-8.918632567E-2
4.358452189E0,9.450085163E-1,-5.919284225E-1,-5.375614017E-2
4.363397189E0,9.999864101E-1,-4.673119187E-1,-1.832595654E-2
4.368342189E0,1.025031924E0,-3.793473244E-1,1.343903504E-2
4.373287189E0,1.020755768E0,-3.365867436E-1,4.337143153E-2
4.378231189E0,9.908234477E-1,-3.249803185E-1,7.208210230E-2
4.383176189E0,9.358455539E-1,-3.451388776E-1,1.026253626E-1
4.388117766E0,8.625417352E-1,-3.866777122E-1,1.398881376E-1
4.393053881E0,7.666358948E-1,-4.306600094E-1,1.765400618E-1
4.397998881E0,6.591235995E-1,-4.709770977E-1,2.107485086E-1
4.402943881E0,5.448917747E-1,-5.198463202E-1,2.516764700E-1
4.407887881E0,3.787364662E-1,-5.406157374E-1,2.693915665E-1
4.412832881E0,2.919935882E-1,-5.516113043E-1,2.852740586E-1
4.417777881E0,2.235766798E-1,-5.436700583E-1,2.999348342E-1
4.422722881E0,1.624901593E-1,-5.198463202E-1,3.152064681E-1
4.427667881E0,9.834930301E-2,-4.856378734E-1,3.292563558E-1
4.432607958E0,3.115412779E-2,-4.477642179E-1,3.408628106E-1
4.437551958E0,-3.359758854E-2,-4.184426963E-1,3.536909819E-1
4.442496958E0,-9.101892263E-2,-4.062253833E-1,3.665191531E-1
4.447441958E0,-1.350012124E-1,-4.074471295E-1,3.775147200E-1
4.452386535E0,-1.673770845E-1,-4.331034720E-1,3.891211748E-1
4.457331535E0,-1.863138974E-1,-4.721988440E-1,3.976732790E-1
4.462276535E0,-1.857030392E-1,-5.222898126E-1,4.037819207E-1
4.467220535E0,-1.747074574E-1,-5.717698932E-1,4.135557711E-1
4.472165535E0,-1.539380401E-1,-6.212499738E-1,4.233296216E-1
4.477096381E0,-1.252273768E-1,-6.774495840E-1,4.337143302E-1
4.482041381E0,-9.224065393E-2,-7.324274182E-1,4.386012554E-1
4.486986381E0,-6.719517708E-2,-7.715228200E-1,4.422664344E-1
4.491931381E0,-3.543018550E-2,-8.051204085E-1,4.434881806E-1
4.496875381E0,-6.108652451E-4,-8.271115422E-1,4.404338300E-1
4.501820381E0,3.665191308E-2,-8.344419003E-1,4.251621962E-1
4.506765381E0,9.224065393E-2,-8.191702962E-1,4.068362415E-1
4.511710381E0,1.246165112E-1,-7.812966704E-1,3.885102868E-1
4.516655381E0,1.521054506E-1,-7.195992470E-1,3.659082949E-1
4.521600381E0,1.685988009E-1,-6.377432942E-1,3.451388776E-1
4.526535689E0,1.673770845E-1,-5.424483418E-1,3.243694305E-1
4.531480689E0,1.521054506E-1,-4.343251884E-1,3.042109013E-1
4.536425689E0,1.191187203E-1,-3.145956099E-1,2.877175212E-1
4.541370689E0,6.963863969E-2,-1.850921661E-1,2.761110961E-1
4.546315689E0,8.552113548E-3,-6.047565863E-2,2.706133127E-1
4.551260689E0,-6.230825558E-2,4.948008433E-2,2.614503205E-1
4.556194689E0,-1.398881376E-1,1.423316002E-1,2.522873580E-1
4.561139689E0,-2.168571651E-1,2.040289938E-1,2.400700450E-1
4.566084689E0,-2.962696552E-1,2.333505303E-1,2.229658216E-1
4.571029689E0,-3.824016452E-1,2.412917763E-1,2.021963894E-1
4.575974689E0,-4.721988440E-1,2.480112910E-1,1.795943826E-1
4.580919689E0,-5.662720799E-1,2.632829249E-1,1.631010175E-1
4.585864689E0,-6.511823535E-1,2.828305960E-1,1.606575549E-1
4.590805881E0,-7.244861722E-1,2.974913716E-1,1.685988009E-1
4.595748304E0,-7.715228200E-1,3.023782969E-1,1.887573600E-1
4.600693304E0,-7.916813493E-1,3.054326177E-1,2.461786866E-1
4.605638304E0,-7.782423496E-1,3.072652221E-1,3.048217595E-1
4.610583304E0,-7.476990819E-1,2.993239760E-1,3.824016452E-1
4.615528304E0,-7.043276429E-1,2.724458873E-1,4.715879560E-1
4.620472304E0,-6.633996367E-1,2.455678284E-1,5.644394755E-1
4.625417304E0,-6.267477274E-1,2.296853364E-1,6.560692787E-1
4.630362304E0,-5.980370641E-1,2.052507252E-1,7.342600226E-1
4.635307304E0,-5.650503635E-1,1.624901593E-1,7.874053121E-1
4.640252304E0,-5.345070958E-1,7.086037099E-2,8.112290502E-1
4.645180766E0,-5.033529401E-1,-7.696902007E-2,7.880161405E-1
4.650124766E0,-4.752531648E-1,-2.663372457E-1,7.189884186E-1
4.655069766E0,-4.483750761E-1,-4.862487316E-1,6.151412725E-1
4.660014766E0,-4.196644127E-1,-7.092145681E-1,4.831944108E-1
4.664944035E0,-3.885102868E-1,-9.071348906E-1,3.365867436E-1
4.669889035E0,-3.518583775E-1,-1.054964304E0,1.936442852E-1
4.674834035E0,-3.194825351E-1,-1.147204876E0,6.597344577E-2
4.679778035E0,-2.895501256E-1,-1.164309144E0,-2.504547499E-2
4.684723035E0,-2.718350291E-1,-1.115439892E0,-7.330382615E-2
4.689668035E0,-2.693915665E-1,-1.003651619E0,-6.597344577E-2
4.694613035E0,-2.706133127E-1,-8.399397135E-1,6.108652451E-4
4.699558035E0,-2.663372457E-1,-6.310238242E-1,1.331686229E-1
4.704503035E0,-2.553416789E-1,-3.109304011E-1,2.180788964E-1
4.709447035E0,-2.626720667E-1,-1.362229437E-1,2.926044464E-1
4.714392035E0,-3.005456924E-1,-8.552113548E-3,3.518583775E-1
4.719337035E0,-3.714060783E-1,7.452555746E-2,3.982841372E-1
4.724282035E0,-4.605923891E-1,9.468411654E-2,4.263839424E-1
4.729105035E0,-5.510004759E-1,5.375614017E-2,4.471533597E-1
4.734172035E0,-6.273586154E-1,-4.764748737E-2,4.581489265E-1
4.739116035E0,-6.847799420E-1,-1.734857261E-1,4.587597847E-1
4.744061035E0,-7.189884186E-1,-3.011565804E-1,4.605923891E-1
4.749006035E0,-7.238753438E-1,-4.117231667E-1,4.746423066E-1
4.753951035E0,-7.031059265E-1,-5.033529401E-1,4.917465150E-1
4.758896035E0,-6.499606371E-1,-5.742133260E-1,5.161811113E-1
4.763831074E0,-5.858197808E-1,-6.114761233E-1,5.479460955E-1
4.768775074E0,-5.192354321E-1,-6.084218025E-1,5.943718553E-1
4.773720074E0,-3.988949955E-1,-4.612032473E-1,6.371324658E-1
4.778665074E0,-2.193006277E-1,-2.260201424E-1,6.505714655E-1
4.783610074E0,-2.687807009E-2,7.757988572E-2,6.554583907E-1
4.788555074E0,1.496619880E-1,3.970624208E-1,6.792821288E-1
4.793499458E0,2.687807083E-1,6.102544069E-1,7.110471725E-1
4.798443458E0,3.475823104E-1,6.493497491E-1,7.941248417E-1
4.803388458E0,3.842342496E-1,4.660901725E-1,8.454375267E-1
4.808333458E0,3.811798990E-1,2.510656118E-1,8.796459436E-1
4.813278458E0,3.707951903E-1,6.719517522E-3,8.955284357E-1
4.818223458E0,3.549126983E-1,-2.229658216E-1,8.869763613E-1
4.823168458E0,3.353650272E-1,-4.098905921E-1,8.594874144E-1
4.828112458E0,3.182607889E-1,-5.326744914E-1,8.246681094E-1
4.833057458E0,3.066543639E-1,-5.705481172E-1,7.941248417E-1
4.838002458E0,2.999348342E-1,-5.259549618E-1,7.660250068E-1
4.842947458E0,2.987131178E-1,-4.025602043E-1,7.397578359E-1
4.847888304E0,3.225368559E-1,-2.076941878E-1,7.293730974E-1
4.852833304E0,3.518583775E-1,3.054326214E-2,7.275404930E-1
4.857777304E0,3.543018401E-1,2.785545588E-1,7.244861722E-1
4.862722304E0,3.292563558E-1,5.131267905E-1,7.202101350E-1
4.867667304E0,2.724458873E-1,7.367035151E-1,7.055493593E-1
4.872606420E0,1.960877478E-1,9.480628371E-1,6.927211881E-1
4.877551420E0,1.093448773E-1,1.135598540E0,6.841690540E-1
4.882496420E0,4.886921961E-3,1.275486588E0,6.866125464E-1
4.887440420E0,-1.026253626E-1,1.395827055E0,6.860016584E-1
4.892385420E0,-2.021963894E-1,1.502117634E0,6.756169796E-1
4.897330420E0,-2.809980214E-1,1.579697490E0,6.517932415E-1
4.902153420E0,-3.652974069E-1,1.656666517E0,6.395758986E-1
4.907220420E0,-4.025602043E-1,1.725694299E0,6.236934066E-1
4.912142650E0,-4.306600094E-1,1.838093519E0,6.163630486E-1
4.917086650E0,-4.502076805E-1,1.977981687E0,5.998696685E-1
4.922031650E0,-4.874704778E-1,2.112371922E0,5.760459304E-1
4.926976650E0,-5.455026627E-1,2.225382090E0,5.430592299E-1
4.931921650E0,-6.072000265E-1,2.296853304E0,5.332853794E-1
4.936866650E0,-6.530149579E-1,2.331061840E0,5.406157374E-1
4.941811650E0,-6.847799420E-1,2.353052855E0,5.601634383E-1
4.946755650E0,-7.086036801E-1,2.347555161E0,5.913175344E-1
4.951700650E0,-7.324274182E-1,2.289522886E0,6.243042946E-1
4.956645650E0,-7.550294399E-1,2.196060658E0,6.609562039E-1
4.961590573E0,-7.703011036E-1,2.108706713E0,6.939429045E-1
4.966535573E0,-7.831292152E-1,2.048231125E0,7.183775306E-1
4.971480573E0,-7.886270285E-1,2.002416372E0,7.367035151E-1
4.976424573E0,-7.874053121E-1,1.937664509E0,7.574729323E-1
4.981349150E0,-7.788531780E-1,1.874745488E0,7.874053121E-1
4.986294150E0,-7.690793276E-1,1.832595706E0,8.051204085E-1
4.991239150E0,-7.574729323E-1,1.797776461E0,8.118399382E-1
4.996184150E0,-7.348709106E-1,1.758070230E0,8.112290502E-1
5.001129150E0,-6.963863969E-1,1.672549009E0,8.118399382E-1
5.006076150E0,-6.768386960E-1,1.612684250E0,8.142833710E-1
5.011021150E0,-6.640105247E-1,1.536326051E0,8.161159754E-1
5.015966150E0,-6.658431292E-1,1.463633180E0,8.258898258E-1
5.020911150E0,-6.811147332E-1,1.403768301E0,8.301658630E-1
5.025855150E0,-7.061602473E-1,1.358564258E0,8.332201838E-1
5.030800150E0,-7.324274182E-1,1.325577617E0,8.332201838E-1
5.035745150E0,-7.599163651E-1,1.300532103E0,8.356636763E-1
5.040690150E0,-7.843509912E-1,1.278540969E0,8.350527883E-1
5.045635150E0,-8.100073338E-1,1.245554209E0,8.289441466E-1
5.050580150E0,-8.289441466E-1,1.208291411E0,8.240572214E-1
5.055524150E0,-8.381071091E-1,1.163698316E0,8.173376918E-1
5.060469150E0,-8.442157507E-1,1.111163855E0,8.051204085E-1
5.065414150E0,-8.491026759E-1,1.043357849E0,7.861835957E-1
5.070359150E0,-8.546004891E-1,9.712757468E-1,7.568620443E-1
5.075304150E0,-8.570439219E-1,9.077457786E-1,7.202101350E-1
5.080249150E0,-8.570439219E-1,8.442157507E-1,6.701191664E-1
5.085193150E0,-8.546004891E-1,7.959573865E-1,6.181956530E-1
5.090138150E0,-8.570439219E-1,7.635815740E-1,5.711590052E-1
5.095083150E0,-8.649851680E-1,7.409795523E-1,5.149593949E-1
5.100026343E0,-8.704829812E-1,7.257078886E-1,4.886921942E-1
5.104971343E0,-8.704829812E-1,7.171558142E-1,4.618141353E-1
5.109916343E0,-8.576548100E-1,7.024950385E-1,4.379903674E-1
5.114860343E0,-8.411614299E-1,6.805039048E-1,4.159992337E-1
5.119805343E0,-8.191702962E-1,6.615670323E-1,3.976732790E-1
5.124750343E0,-7.935139537E-1,6.566801667E-1,3.866777122E-1
5.129695343E0,-7.654141784E-1,6.499606371E-1,3.744603992E-1
5.134640343E0,-7.342600226E-1,6.450737119E-1,3.561344445E-1
5.139585343E0,-7.012733221E-1,6.365215778E-1,3.316998184E-1
5.144529343E0,-6.627888083E-1,6.261368990E-1,2.926044464E-1
5.149474343E0,-6.200281978E-1,6.084218025E-1,2.492330223E-1
5.154419343E0,-5.803219676E-1,6.053674817E-1,2.021963894E-1
5.159364343E0,-5.412266254E-1,5.894849896E-1,1.404990107E-1
5.164300150E0,-5.021312237E-1,5.778785348E-1,7.635815442E-2
5.169245150E0,-4.618141353E-1,5.693264008E-1,1.282817032E-2
5.174189150E0,-4.202753007E-1,5.607742667E-1,-4.337143153E-2
5.179134150E0,-3.793473244E-1,5.381723046E-1,-9.773843735E-2
5.184077381E0,-3.408628106E-1,5.002986193E-1,-1.557706445E-1
5.189022381E0,-3.084869385E-1,4.410447180E-1,-2.223549485E-1
5.193967381E0,-2.700024247E-1,3.781255782E-1,-2.926044464E-1
5.198910150E0,-1.966986060E-1,2.987131178E-1,-3.903428912E-1
5.203854150E0,-1.319468915E-1,2.541199327E-1,-4.453207552E-1
5.208677150E0,-5.253441259E-2,2.217440903E-1,-4.990769029E-1
5.213744150E0,3.237585723E-2,1.905899495E-1,-5.564982295E-1
5.218672227E0,1.209513173E-1,1.618792862E-1,-6.359107494E-1
5.223617227E0,2.156354338E-1,1.484402567E-1,-7.525860071E-1
5.228550266E0,3.029891551E-1,1.478293836E-1,-9.138544202E-1
5.233494266E0,3.946189582E-1,1.466076523E-1,-1.124602914E0
5.238439266E0,4.990769029E-1,1.117883399E-1,-1.375668526E0
5.243384266E0,6.163630486E-1,3.665191587E-3,-1.657277465E0
5.248329266E0,7.476990819E-1,-1.490511149E-1,-1.942551494E0
5.253152266E0,8.820894361E-1,-2.767219543E-1,-2.211943150E0
5.258219266E0,1.023810148E0,-3.530801237E-1,-2.467284679E0
5.263163266E0,1.160033107E0,-3.701843321E-1,-2.703078747E0
5.268108266E0,1.279151797E0,-3.402519524E-1,-2.916270733E0
5.273053266E0,1.357953429E0,-2.809980214E-1,-3.106860638E0
5.277998266E0,1.404379249E0,-1.960877478E-1,-3.249803066E0
5.282943266E0,1.400103092E0,-3.787364438E-2,-3.320663452E0
5.287888266E0,1.321301579E0,2.474004179E-1,-3.342654705E0
5.292832266E0,1.227839112E0,6.603453159E-1,-3.305391788E0
5.297751227E0,1.105666041E0,1.311527729E0,-3.233920574E0
5.302696227E0,1.014647126E0,1.641394973E0,-3.169779778E0
5.307641227E0,1.015868902E0,1.684766293E0,-3.028059006E0
5.312586227E0,1.136820197E0,1.419650793E0,-2.790432453E0
5.317521650E0,1.293201685E0,9.908234477E-1,-2.448958874E0
5.322465650E0,1.420261741E0,3.750712574E-1,-1.938886285E0
5.327410650E0,1.461800575E0,-1.838704348E-1,-1.452637553E0
5.332355650E0,1.430646420E0,-5.784893632E-1,-1.023199320E0
5.337300650E0,1.360396862E0,-7.812966704E-1,-7.024950385E-1
5.342245650E0,1.295034289E0,-6.798930168E-1,-5.094616413E-1
5.347177958E0,1.277930140E0,-3.433062732E-1,-4.135557711E-1
5.352121958E0,1.317025423E0,-3.115412779E-2,-4.386012554E-1
5.357066958E0,1.397659659E0,1.264491081E-1,-5.540547967E-1
5.362011958E0,1.480737329E0,7.941248268E-2,-6.829473376E-1
5.366956958E0,1.593747377E0,-9.224065393E-2,-7.422012687E-1
5.371901958E0,1.727526903E0,-2.767219543E-1,-7.544185519E-1
5.376846958E0,1.842369556E0,-4.269948006E-1,-7.147123218E-1
5.381791958E0,1.911397338E0,-5.021312237E-1,-6.505714655E-1
5.386735958E0,1.950492740E0,-5.479460955E-1,-5.711590052E-1
5.391680958E0,1.959044814E0,-5.277875662E-1,-4.801400900E-1
5.396625958E0,1.872301936E0,-4.557054639E-1,-3.347541690E-1
5.401570958E0,1.762957096E0,-5.094616413E-1,-3.933972120E-1
5.406515958E0,1.681712031E0,-5.705481172E-1,-4.795292318E-1
5.411460958E0,1.618792892E0,-6.273586154E-1,-5.271766782E-1
5.416404958E0,1.567480206E0,-7.183775306E-1,-5.241223574E-1
5.421349958E0,1.518610954E0,-8.332201838E-1,-4.972442985E-1
5.426294958E0,1.468520045E0,-9.468411207E-1,-4.447098970E-1
5.431239958E0,1.404990077E0,-1.037249207E0,-3.848451078E-1
5.436184958E0,1.324355841E0,-1.109942198E0,-3.384193480E-1
5.441129958E0,1.221119642E0,-1.185078621E0,-3.200933933E-1
5.446073958E0,1.101390004E0,-1.265712738E0,-3.115412891E-1
5.451018958E0,9.621127844E-1,-1.332907915E0,-3.121521473E-1
5.455963958E0,8.203920126E-1,-1.368949056E0,-3.371976018E-1
5.460908958E0,6.591235995E-1,-1.374446750E0,-3.506366611E-1
5.465853958E0,4.929682612E-1,-1.370170712E0,-3.756821156E-1
5.470798958E0,3.237585723E-1,-1.350623012E0,-4.019493461E-1
5.475742958E0,1.637118906E-1,-1.320690632E0,-4.269948006E-1
5.480687958E0,2.565634064E-2,-1.277930140E0,-4.550946057E-1
5.485632958E0,-8.246681094E-2,-1.247997642E0,-4.899139404E-1
5.490577958E0,-1.661553532E-1,-1.237002134E0,-5.265658498E-1
5.495522958E0,-2.101376504E-1,-1.228450060E0,-5.662720799E-1
5.500467958E0,-1.747074574E-1,-1.222952247E0,-5.729916096E-1
5.505411958E0,-8.246681094E-2,-1.215621829E0,-5.687155724E-1
5.510356958E0,6.536258012E-2,-1.183856845E0,-5.503895879E-1
5.515301958E0,2.596177161E-1,-1.134376764E0,-5.259549618E-1
5.520246958E0,4.972442985E-1,-1.073290229E0,-4.862487316E-1
5.525191958E0,7.556403279E-1,-9.804387093E-1,-4.428772926E-1
5.530136958E0,1.004262447E0,-8.411614299E-1,-4.013384581E-1
5.535080958E0,1.210734963E0,-6.585127115E-1,-3.671300113E-1
5.540025958E0,1.381166339E0,-4.642575979E-1,-3.488040566E-1
5.544970958E0,1.489289522E0,-2.926044464E-1,-3.231477141E-1
5.549915958E0,1.540602207E0,-1.447750628E-1,-2.968805134E-1
5.554860958E0,1.545489073E0,-3.970624134E-2,-2.614503205E-1
5.559802419E0,1.505172014E0,2.626720630E-2,-2.284636050E-1
5.564746419E0,1.428202987E0,5.253441259E-2,-2.089159191E-1
5.569691419E0,1.321301579E0,7.757988572E-2,-1.942551434E-1
5.574636419E0,1.199128509E0,1.093448773E-1,-1.631010175E-1
5.579557804E0,1.069014192E0,1.069014147E-1,-1.209513173E-1
5.584502804E0,9.242390990E-1,7.574728876E-2,-8.979719132E-2
5.589447804E0,7.739662528E-1,7.941247895E-3,-6.414084882E-2
5.594391804E0,5.430592299E-1,-7.024950534E-2,-2.015855350E-2
5.599336804E0,4.013384581E-1,-1.099557430E-1,7.941247895E-3
5.604281804E0,2.755002379E-1,-1.453859210E-1,4.276056588E-2
5.609226804E0,1.875356287E-1,-1.850921661E-1,7.024950534E-2
5.614171804E0,9.101892263E-2,-2.162462920E-1,1.087340117E-1
5.619116804E0,8.552113548E-3,-2.492330223E-1,1.447750628E-1
5.624060804E0,-6.658431143E-2,-2.883284092E-1,1.826487035E-1
5.629005804E0,-1.252273768E-1,-3.420845270E-1,2.260201424E-1
5.633948842E0,-1.545489132E-1,-4.043927789E-1,2.773328125E-1
5.638893842E0,-1.576032341E-1,-4.703662395E-1,3.213151097E-1
5.643838842E0,-1.252273768E-1,-5.375614166E-1,3.634648323E-1
5.648783842E0,-7.391469181E-2,-5.943718553E-1,4.001167417E-1
5.653727842E0,-9.162978269E-3,-6.450737119E-1,4.306600094E-1
5.658672842E0,5.681046844E-2,-6.835582256E-1,4.550946057E-1
5.663591534E0,1.093448773E-1,-7.104362845E-1,4.728097022E-1
5.668536534E0,1.484402567E-1,-7.360926270E-1,4.850270152E-1
5.673481534E0,1.728748679E-1,-7.580837607E-1,4.880813360E-1
5.678426534E0,1.899790913E-1,-7.739662528E-1,4.893030524E-1
5.683370534E0,1.918116808E-1,-7.880161405E-1,4.905247986E-1
5.688315534E0,1.802052408E-1,-7.874053121E-1,4.880813360E-1
5.693260534E0,1.508837193E-1,-7.495316267E-1,4.819726646E-1
5.698205534E0,8.429940045E-2,-7.116580009E-1,4.807509482E-1
5.703150534E0,3.176499158E-2,-6.719517708E-1,4.721988440E-1
5.708095534E0,-2.504547499E-2,-6.328563690E-1,4.624249935E-1
5.713039534E0,-8.491026610E-2,-5.845980644E-1,4.520402849E-1
5.717984534E0,-1.508837193E-1,-5.253441334E-1,4.508185387E-1
5.722929534E0,-2.254092693E-1,-4.569272101E-1,4.593706727E-1
5.727874534E0,-3.078760803E-1,-3.744603992E-1,4.752531648E-1
5.732819534E0,-3.958406746E-1,-3.182607889E-1,5.094616413E-1
5.737764534E0,-4.948008358E-1,-2.645046413E-1,5.412266254E-1
5.742708534E0,-5.943718553E-1,-2.364048511E-1,5.699372888E-1
5.747653534E0,-6.927211881E-1,-2.364048511E-1,5.919284225E-1
5.752598534E0,-7.886270285E-1,-2.583959997E-1,6.072000265E-1
5.757543534E0,-8.710938692E-1,-2.950479090E-1,6.157521605E-1
5.762488534E0,-9.248499870E-1,-3.219259977E-1,6.261368990E-1
5.767433534E0,-9.425650835E-1,-3.182607889E-1,6.395758986E-1
5.772377534E0,-9.211847782E-1,-2.693915665E-1,6.597344875E-1
5.777322534E0,-8.710938692E-1,-1.722639948E-1,6.786713004E-1
5.782260496E0,-7.916813493E-1,-4.398229718E-2,6.982190013E-1
5.787205496E0,-7.000515461E-1,9.346238524E-2,7.043276429E-1
5.792150496E0,-6.157521605E-1,2.382374406E-1,6.835582256E-1
5.797095496E0,-5.375614166E-1,2.443460971E-1,6.414085031E-1
5.802039496E0,-5.381723046E-1,1.679879427E-1,5.791002512E-1
5.806984496E0,-5.766568184E-1,3.665191587E-3,4.935791194E-1
5.811929496E0,-6.524040699E-1,-2.095267773E-1,3.915646076E-1
5.816874496E0,-7.452555895E-1,-4.312708676E-1,2.956587672E-1
5.821819496E0,-8.448266387E-1,-6.285803318E-1,2.309070677E-1
5.826764496E0,-9.431759119E-1,-7.837401032E-1,2.095267773E-1
5.831708496E0,-1.024420977E0,-8.820894361E-1,2.229658216E-1
5.836653496E0,-1.071457624E0,-9.126327038E-1,2.565633953E-1
5.841476496E0,-1.080009699E0,-8.686503768E-1,2.901609838E-1
5.846543496E0,-1.033583999E0,-7.550294399E-1,3.127630055E-1
5.851488496E0,-9.346238375E-1,-5.919284225E-1,3.158173263E-1
5.856433496E0,-7.996225953E-1,-3.964515328E-1,3.017674387E-1
5.861377496E0,-6.377432942E-1,-2.064724565E-1,2.663372457E-1
5.866322496E0,-4.752531648E-1,-3.665191308E-2,2.461786866E-1
5.871267496E0,-3.323107064E-1,1.087340117E-1,2.455678284E-1
5.876212496E0,-2.162462920E-1,2.376265824E-1,2.651155293E-1
5.881157496E0,-1.246165112E-1,3.121521473E-1,2.913827300E-1
5.886102496E0,-6.169738993E-2,3.304781020E-1,3.115412891E-1
5.891047496E0,-2.626720630E-2,2.706133127E-1,3.573561609E-1
5.895991496E0,-2.382374369E-2,1.759291887E-1,3.982841372E-1
5.900936496E0,-4.581489414E-2,6.414084882E-2,4.489859641E-1
5.905881496E0,-8.735372871E-2,-6.597344577E-2,5.057964325E-1
5.910826496E0,-1.521054506E-1,-2.150245607E-1,5.791002512E-1
5.915763957E0,-2.559525371E-1,-4.056145251E-1,6.786713004E-1
5.920708957E0,-3.604104817E-1,-6.041457057E-1,7.849618196E-1
5.925652957E0,-4.935791194E-1,-8.234463334E-1,8.765916228E-1
5.930597957E0,-6.249151230E-1,-1.028086185E0,9.498954415E-1
5.935542957E0,-7.208209634E-1,-1.211956620E0,1.006095052E0
5.940487957E0,-7.623597980E-1,-1.340849161E0,1.074512005E0
5.945432957E0,-7.409795523E-1,-1.434311628E0,1.131322384E0
5.950343611E0,-6.658431292E-1,-1.406211853E0,1.179580808E0
5.955287611E0,-5.143485069E-1,-1.251662850E0,1.186300278E0
5.960232611E0,-2.999348342E-1,-1.007927656E0,1.161865711E0
5.965177611E0,-5.375614017E-2,-7.470881939E-1,1.133154988E0
5.970122611E0,1.435533315E-1,-5.681046844E-1,1.116661668E0
5.975067611E0,2.877175212E-1,-4.520402849E-1,1.099557400E0
5.980012611E0,3.933972120E-1,-3.659082949E-1,1.086729288E0
5.984956611E0,4.416555762E-1,-2.871066630E-1,1.083064079E0
5.989901611E0,5.180137157E-1,-2.223549485E-1,1.054353356E0
5.994846611E0,5.363397002E-1,-1.600466967E-1,1.033583999E0
5.999791611E0,5.277875662E-1,-6.597344577E-2,9.963212013E-1
6.004738611E0,4.764748812E-1,7.024950534E-2,9.682214260E-1
6.009683611E0,4.196644127E-1,2.541199327E-1,9.358455539E-1
6.014628611E0,3.518583775E-1,4.874704778E-1,9.034696817E-1
6.019573611E0,2.663372457E-1,7.336491346E-1,8.570439219E-1
6.024518611E0,1.679879427E-1,9.810495973E-1,8.093964458E-1
6.029462611E0,7.269296050E-2,1.240667343E0,7.764097452E-1
6.034407611E0,2.443460980E-3,1.514945865E0,7.617489696E-1
6.039352611E0,-2.993239649E-2,1.786170006E0,7.574729323E-1
6.044297611E0,-4.642575979E-2,2.045176744E0,7.580837607E-1
6.049242611E0,-6.597344577E-2,2.260201454E0,7.745771408E-1
6.054187611E0,-1.130100712E-1,2.387872219E0,7.898487449E-1
6.059131611E0,-2.064724565E-1,2.394591808E0,7.959573865E-1
6.064076611E0,-3.396410644E-1,2.385428667E0,7.819074988E-1
6.069021611E0,-5.057964325E-1,2.420858860E0,7.666358948E-1
6.073960880E0,-6.688974500E-1,2.509434462E0,7.654141784E-1
6.078905880E0,-8.136724830E-1,2.645046473E0,7.690793276E-1
6.083850880E0,-9.407324791E-1,2.791654110E0,7.648032904E-1
6.088794880E0,-1.036027431E0,2.998126507E0,7.586946487E-1
6.093739880E0,-1.137431145E0,3.084258556E0,7.629706860E-1
6.098684880E0,-1.160643935E0,3.075095654E0,7.782423496E-1
6.103629880E0,-1.143539786E0,2.998737574E0,7.892379165E-1
6.108574880E0,-1.059240341E0,2.870455742E0,8.197811842E-1
6.113519880E0,-9.150761366E-1,2.720793724E0,8.686503768E-1
6.118463880E0,-7.434229851E-1,2.520430088E0,9.077457786E-1
6.123408880E0,-5.919284225E-1,2.280970812E0,9.358455539E-1
6.128350457E0,-5.002986193E-1,2.044565916E0,9.492846131E-1
6.133295457E0,-4.734205604E-1,1.807550311E0,9.498954415E-1
6.138240457E0,-5.076290369E-1,1.582141042E0,9.382890463E-1
6.143185457E0,-5.839871764E-1,1.406822681E0,9.248499870E-1
6.148129457E0,-6.853908300E-1,1.290758252E0,9.059131742E-1
6.153074457E0,-7.812966704E-1,1.218676209E0,8.900306821E-1
6.158019457E0,-8.625417352E-1,1.179580808E0,8.827002645E-1
6.162964457E0,-9.254608750E-1,1.161865711E0,8.723155856E-1
6.167909457E0,-9.694431424E-1,1.154535294E0,8.613200188E-1
6.172854457E0,-9.987646937E-1,1.142928839E0,8.472700715E-1
6.177762073E0,-1.015258074E0,1.116050839E0,8.356636763E-1
6.182707073E0,-1.025642753E0,1.078788042E0,8.252789378E-1
6.187652073E0,-1.034194827E0,1.021366715E0,8.222246170E-1
6.192597073E0,-1.039081812E0,9.896016717E-1,8.228355050E-1
6.197542073E0,-1.037860036E0,9.492846131E-1,8.258898258E-1
6.202487073E0,-1.037249207E0,9.010262489E-1,8.344419003E-1
6.207432073E0,-1.031751394E0,8.527678847E-1,8.381071091E-1
6.212376073E0,-1.023199320E0,7.971791625E-1,8.319984674E-1
6.217321073E0,-1.006705880E0,7.501425147E-1,8.234463334E-1
6.222266073E0,-9.889908433E-1,7.165449262E-1,8.045095205E-1
6.227211073E0,-9.761626720E-1,6.963863969E-1,7.831292152E-1
6.232156073E0,-9.621127844E-1,6.847799420E-1,7.531968355E-1
6.237101073E0,-9.486737251E-1,6.731734872E-1,7.122688890E-1
6.242045073E0,-9.321803451E-1,6.585127115E-1,6.725626588E-1
6.246990073E0,-9.089674950E-1,6.554583907E-1,6.279694438E-1
6.251935073E0,-8.820894361E-1,6.548475623E-1,5.833762884E-1
6.256880073E0,-8.564330935E-1,6.579018831E-1,5.363397002E-1
6.261825073E0,-8.289441466E-1,6.707300544E-1,4.880813360E-1
6.266770073E0,-8.081747293E-1,6.817256212E-1,4.343251884E-1
6.271714073E0,-7.837401032E-1,7.098253965E-1,3.781255782E-1
6.276659073E0,-7.544185519E-1,7.483099103E-1,3.207042515E-1
6.281604073E0,-7.281513810E-1,7.611380816E-1,2.577851415E-1
6.286549073E0,-7.024950385E-1,7.684684992E-1,1.582140923E-1
6.291494073E0,-6.530149579E-1,7.721336484E-1,8.246681094E-2
6.296429957E0,-6.065891981E-1,7.586946487E-1,3.054326167E-3
6.301373957E0,-5.552765131E-1,7.330383062E-1,-8.552113175E-2
6.306318957E0,-4.923573732E-1,6.908885837E-1,-1.808161139E-1
6.311263957E0,-4.208861589E-1,6.389650702E-1,-2.712241709E-1
6.316208957E0,-3.433062732E-1,5.833762884E-1,-3.604104817E-1
6.321153957E0,-2.632829249E-1,5.241223574E-1,-4.398229718E-1
6.326098957E0,-1.912008226E-1,4.697553813E-1,-5.167919993E-1
6.331029957E0,-1.240056455E-1,4.141666293E-1,-5.949827433E-1
6.335974957E0,-5.925392732E-2,3.500257730E-1,-6.860016584E-1
6.340919957E0,-1.832595794E-3,2.791654170E-1,-7.849618196E-1
6.345864957E0,5.131268129E-2,2.174680233E-1,-8.918632865E-1
6.350809957E0,1.111774743E-1,1.722639948E-1,-9.987646937E-1
6.355754957E0,1.881465018E-1,1.337794960E-1,-1.111774802E0
6.360698957E0,2.828305960E-1,9.346238524E-2,-1.238223910E0
6.365643957E0,3.842342496E-1,5.375614017E-2,-1.389718413E0
6.370588957E0,4.819726646E-1,3.909537569E-2,-1.572978020E0
6.375533957E0,5.742133260E-1,4.581489414E-2,-1.784948230E0
6.380478957E0,6.695083380E-1,1.007927656E-1,-2.020742178E0
6.385423957E0,7.409795523E-1,1.606575549E-1,-2.398867846E0
6.390367957E0,8.185594082E-1,2.638937831E-1,-2.652376890E0
6.395312957E0,8.423831463E-1,3.060434759E-1,-2.899166346E0
6.400257957E0,8.332201838E-1,3.139847219E-1,-3.105638981E0
6.405202957E0,8.106181622E-1,3.225368559E-1,-3.288898468E0
6.410147957E0,7.825183868E-1,3.243694305E-1,-3.412904024E0
6.415092957E0,7.605272532E-1,2.926044464E-1,-3.459329844E0
6.420036957E0,7.476990819E-1,2.657263875E-1,-3.470936298E0
6.424981688E0,7.379252315E-1,3.414736688E-1,-3.449556112E0
6.429804688E0,7.257078886E-1,4.685336351E-1,-3.387858629E0
6.434871688E0,7.385360599E-1,6.725626588E-1,-3.290120125E0
6.439816688E0,8.393288255E-1,1.010371089E0,-3.164282084E0
6.444760418E0,8.026769161E-1,1.164919972E0,-3.053104401E0
6.449704418E0,8.295549750E-1,1.212567568E0,-2.902220726E0
6.454649418E0,9.266825914E-1,9.193521738E-1,-2.790432453E0
6.459594418E0,1.048244715E0,4.770857692E-1,-2.632218361E0
6.464539418E0,1.202182770E0,6.536258012E-2,-2.384817839E0
6.469484418E0,1.391551018E0,-2.345722616E-1,-2.136806726E0
6.474429418E0,1.528995752E0,-5.131267905E-1,-1.913229942E0
6.479373418E0,1.629788518E0,-6.236934066E-1,-1.717142224E0
6.484318418E0,1.741576791E0,-4.355469346E-1,-1.477072120E0
6.489256957E0,1.803274155E0,-1.857030392E-1,-1.329853654E0
6.494175188E0,1.861306429E0,4.398229718E-2,-1.175304770E0
6.499120188E0,1.938275456E0,1.887573600E-1,-1.020755768E0
6.504065188E0,2.013411760E0,2.357939780E-1,-8.790351152E-1
6.509009188E0,2.073276758E0,1.850921661E-1,-7.666358948E-1
6.513954188E0,2.128865480E0,8.918632567E-2,-6.407976151E-1
6.518899188E0,2.156354427E0,-2.687807009E-2,-5.375614166E-1
6.523844188E0,2.170404196E0,-2.009746730E-1,-4.331034720E-1
6.528789188E0,2.169182539E0,-3.878994286E-1,-3.762930036E-1
6.533734188E0,2.156965256E0,-5.736024380E-1,-3.316998184E-1
6.538678188E0,2.128865480E0,-7.672467232E-1,-3.090978265E-1
6.543623188E0,2.070833206E0,-9.480628371E-1,-2.871066630E-1
6.548568188E0,2.006081581E0,-1.092837930E0,-2.559525371E-1
6.553513188E0,1.931555867E0,-1.196074128E0,-2.272418737E-1
6.558458188E0,1.849089146E0,-1.273043156E0,-2.138028294E-1
6.563403188E0,1.756237626E0,-1.343292713E0,-2.009746730E-1
6.568347188E0,1.649947047E0,-1.410487890E0,-1.857030392E-1
6.573292188E0,1.539380431E0,-1.476461291E0,-1.637118906E-1
6.578237188E0,1.433089852E0,-1.526552200E0,-1.545489132E-1
6.583182188E0,1.333518863E0,-1.542434692E0,-1.459967941E-1
6.588127188E0,1.178359032E0,-1.608408213E0,-1.441642046E-1
6.593072188E0,1.064127207E0,-1.693929315E0,-1.441642046E-1
6.598016188E0,9.364564419E-1,-1.785559058E0,-1.514945775E-1
6.602961188E0,8.075638413E-1,-1.896125674E0,-1.637118906E-1
6.607906188E0,6.847799420E-1,-2.010357618E0,-1.795943826E-1
6.612851188E0,5.754350424E-1,-2.097711325E0,-1.899790913E-1
6.617796188E0,4.886921942E-1,-2.142304420E0,-1.912008226E-1
6.622741188E0,4.324925840E-1,-2.128865480E0,-1.905899495E-1
6.627685188E0,4.086688459E-1,-2.072054863E0,-1.979203373E-1
6.632630188E0,4.367686510E-1,-1.990809798E0,-2.156354338E-1
6.637575188E0,5.064072609E-1,-1.896736622E0,-2.437352389E-1
6.642495265E0,6.004805565E-1,-1.748296380E0,-2.571742535E-1
6.647440265E0,7.202101350E-1,-1.583973527E0,-2.486221492E-1
6.652385265E0,8.662069440E-1,-1.404990077E0,-2.168571651E-1
6.657329265E0,1.026864529E0,-1.232726097E0,-1.618792862E-1
6.662274265E0,1.177137375E0,-1.082453251E0,-9.712757170E-2
6.667219265E0,1.311527729E0,-9.676105380E-1,-2.565634064E-2
6.672164265E0,1.419650793E0,-8.796459436E-1,5.009094998E-2
6.677109265E0,1.498452425E0,-8.087855577E-1,1.282816976E-1
6.682054265E0,1.544267297E0,-7.336491346E-1,2.406809032E-1
6.686999265E0,1.533271790E0,-6.298020482E-1,3.139847219E-1
6.691943265E0,1.496008992E0,-5.577199459E-1,3.836233616E-1
6.696888265E0,1.423926830E0,-4.917465150E-1,4.489859641E-1
6.701806226E0,1.313971162E0,-4.294382632E-1,5.106833577E-1
6.706751226E0,1.158811331E0,-3.848451078E-1,5.626068711E-1
6.711696226E0,9.572258592E-1,-3.610213697E-1,6.102544069E-1
6.716641226E0,7.134906054E-1,-3.701843321E-1,6.524040699E-1
6.721573572E0,4.349360466E-1,-4.111123085E-1,6.878342628E-1
6.726518572E0,1.374446750E-1,-4.648684561E-1,7.098253965E-1
6.731463572E0,-1.618792862E-1,-5.192354321E-1,7.440338731E-1
6.736408572E0,-4.587597847E-1,-5.766568184E-1,7.721336484E-1
6.741353572E0,-7.086036801E-1,-6.493497491E-1,8.087855577E-1
6.746298572E0,-9.077457786E-1,-7.379252315E-1,8.448266387E-1
6.751242572E0,-1.004873276E0,-8.466592431E-1,8.912523985E-1
6.756187572E0,-1.003040791E0,-9.792169929E-1,9.364564419E-1
6.761132572E0,-8.973610401E-1,-1.140485406E0,9.737191796E-1
6.766077572E0,-7.183775306E-1,-1.320079803E0,9.938777685E-1
6.771022572E0,-5.064072609E-1,-1.491122007E0,9.877691269E-1
6.775967572E0,-2.638937831E-1,-1.651168704E0,9.523389339E-1
6.780789572E0,7.330382615E-2,-1.831984878E0,8.863654733E-1
6.785856572E0,2.761110961E-1,-1.919338584E0,8.332201838E-1
6.790801572E0,4.050036669E-1,-1.900401831E0,7.855727077E-1
6.795746572E0,5.051855445E-1,-1.759902716E0,7.367035151E-1
6.800691572E0,5.485569835E-1,-1.499674201E0,6.853908300E-1
6.805636572E0,5.479460955E-1,-1.149648428E0,6.236934066E-1
6.810580572E0,5.027421117E-1,-7.800748944E-1,5.442809463E-1
6.815525572E0,3.640756905E-1,-3.628539443E-1,4.550946057E-1
6.820470572E0,1.325577646E-1,5.619960278E-2,3.561344445E-1
6.825415572E0,-1.307251602E-1,3.891211748E-1,2.541199327E-1
6.830360572E0,-3.390302062E-1,5.235115290E-1,1.661553532E-1
6.835305572E0,-4.996877611E-1,4.428772926E-1,1.209513173E-1
6.840249572E0,-5.650503635E-1,2.003637999E-1,1.007927656E-1
6.845194572E0,-6.334672570E-1,-8.918632567E-2,1.252273768E-1
6.850139572E0,-6.438519955E-1,-3.268128932E-1,1.789835095E-1
6.855084572E0,-6.707300544E-1,-4.398229718E-1,2.700024247E-1
6.860029572E0,-6.853908300E-1,-4.343251884E-1,4.074471295E-1
6.864974572E0,-6.841690540E-1,-3.323107064E-1,5.589417219E-1
6.869918572E0,-6.756169796E-1,-1.734857261E-1,6.273586154E-1
6.874863572E0,-6.194173694E-1,-4.276056774E-3,6.737843752E-1
6.879808572E0,-5.723807216E-1,9.712757170E-2,7.092145681E-1
6.884753572E0,-4.636467099E-1,5.070181563E-2,7.336491346E-1
6.889576572E0,-4.001167417E-1,-7.330382615E-2,7.434229851E-1
6.894643572E0,-2.742784917E-1,-1.777617931E-1,6.627888083E-1
6.899567341E0,-2.131919712E-1,-3.555235863E-1,5.729916096E-1
6.904512341E0,-1.893682331E-1,-5.650503635E-1,4.373795092E-1
6.909449610E0,-1.521054506E-1,-8.112290502E-1,2.364048511E-1
6.914394610E0,-1.301143020E-1,-1.065959811E0,-9.773843922E-3
6.919339610E0,-7.391469181E-2,-1.289536476E0,-2.608394623E-1
6.924284610E0,-1.832595654E-2,-1.476461291E0,-4.324925840E-1
6.929228610E0,2.748893574E-2,-1.516778350E0,-4.575380683E-1
6.934173610E0,1.832595794E-3,-1.484402537E0,-3.188716471E-1
6.939118303E0,-8.857546002E-2,-1.320690632E0,-8.185594529E-2
6.944063303E0,-2.486221492E-1,-1.028086185E0,1.673770845E-1
6.949008303E0,-4.465425014E-1,-7.055493593E-1,3.549126983E-1
6.953953303E0,-6.377432942E-1,-4.746423066E-1,4.868595898E-1
6.958897303E0,-7.709119320E-1,-3.567453027E-1,5.858197808E-1
6.963842303E0,-9.205739498E-1,-4.489859641E-1,6.670648456E-1
6.968787303E0,-1.007927656E0,-6.572909951E-1,7.458664775E-1
6.973732303E0,-1.048855662E0,-9.529497623E-1,8.362745047E-1
6.978677303E0,-1.050688267E0,-1.273653984E0,9.169087410E-1
6.983622303E0,-9.511171579E-1,-1.750128984E0,1.023810148E0
6.988566303E0,-8.472700715E-1,-2.031126976E0,1.090394497E0
6.993511303E0,-7.177666426E-1,-2.285857677E0,1.156978726E0
6.998456303E0,-5.681046844E-1,-2.528371334E0,1.230893493E0
7.003404303E0,-4.056145251E-1,-2.736065388E0,1.333518863E0
7.008336533E0,-2.199114859E-1,-2.861903667E0,1.453859329E0
7.013281533E0,4.642575979E-2,-2.803871393E0,1.594969153E0
7.018226533E0,3.451388776E-1,-2.616335869E0,1.710422635E0
7.023171533E0,7.507534027E-1,-2.262644768E0,1.808771968E0
7.028116533E0,1.161865711E0,-1.820989251E0,1.901623487E0
7.033061533E0,1.493565559E0,-1.357953429E0,1.982257724E0
7.038005533E0,1.711644411E0,-9.040805697E-1,2.034181356E0
7.042950533E0,1.810604572E0,-5.491678715E-1,2.042733431E0
7.047895533E0,1.725083470E0,-2.987131178E-1,2.056783199E0
7.052840533E0,1.533271790E0,-1.203404516E-1,2.042122602E0
7.057768880E0,1.266934514E0,3.665191587E-3,2.003027201E0
7.062713880E0,9.114109278E-1,2.003637999E-1,1.965764403E0
7.067657880E0,5.656611919E-1,2.394591719E-1,1.879021525E0
7.072602880E0,2.431243658E-1,2.981022298E-1,1.784337401E0
7.077547880E0,-1.466076635E-2,3.634648323E-1,1.683544636E0
7.082492880E0,-2.864958048E-1,6.511823535E-1,1.502117634E0
7.087437880E0,-3.604104817E-1,9.590584636E-1,1.374446750E0
7.092382880E0,-3.805690408E-1,1.357953429E0,1.262658477E0
7.097326880E0,-4.025602043E-1,1.789224267E0,1.141096234E0
7.102271880E0,-4.447098970E-1,2.124589205E0,1.031140566E0
7.107216880E0,-5.051855445E-1,2.294409752E0,9.395107627E-1
7.112161880E0,-5.705481172E-1,2.396424294E0,8.582656980E-1
7.117106880E0,-6.530149579E-1,2.430022001E0,7.837401032E-1
7.122051880E0,-7.269296646E-1,2.442239285E0,7.061602473E-1
7.126995880E0,-7.611380816E-1,2.450180531E0,6.212499738E-1
7.131940880E0,-8.148942590E-1,2.458732605E0,5.296201706E-1
7.136885880E0,-8.478809595E-1,2.464230299E0,4.227187634E-1
7.141803149E0,-8.686503768E-1,2.483167171E0,3.225368559E-1
7.146748149E0,-8.662069440E-1,2.469728231E0,2.406809032E-1
7.151693149E0,-8.429940343E-1,2.448347807E0,1.722639948E-1
7.156637149E0,-8.100073338E-1,2.401922226E0,1.166752651E-1
7.161582149E0,-7.672467232E-1,2.318844557E0,7.147123665E-2
7.166527149E0,-7.122688890E-1,2.194227934E0,4.398229718E-2
7.171472149E0,-6.450737119E-1,2.053117990E0,1.832595654E-2
7.176415649E0,-5.681046844E-1,1.905899525E0,-3.665191587E-3
7.181360649E0,-4.550946057E-1,1.685988069E0,-3.298672289E-2
7.186304649E0,-3.995058835E-1,1.561371565E0,-4.031710699E-2
7.191249649E0,-3.622430861E-1,1.428813815E0,-3.726277873E-2
7.196194649E0,-3.494149148E-1,1.292590857E0,-1.343903504E-2
7.201139649E0,-3.536909819E-1,1.167363524E0,2.504547499E-2
7.206084649E0,-3.738495409E-1,1.061072946E0,6.841690838E-2
7.211029649E0,-4.001167417E-1,9.602801800E-1,1.209513173E-1
7.215973649E0,-4.257730842E-1,8.594874144E-1,1.698205322E-1
7.220918649E0,-4.465425014E-1,7.538077235E-1,2.150245607E-1
7.225863649E0,-4.624249935E-1,6.542366743E-1,2.608394623E-1
7.230808649E0,-4.789183438E-1,5.717698932E-1,3.023782969E-1
7.235753649E0,-4.966334403E-1,5.112941861E-1,3.426954150E-1
7.240677110E0,-5.277875662E-1,4.709770977E-1,3.799581826E-1
7.245621110E0,-5.577199459E-1,4.471533597E-1,4.129449129E-1
7.250566110E0,-5.992587805E-1,4.416555762E-1,4.398229718E-1
7.255511110E0,-6.401867867E-1,4.343251884E-1,4.691445231E-1
7.260456110E0,-6.756169796E-1,4.105014503E-1,5.027421117E-1
7.265401110E0,-7.055493593E-1,3.695734739E-1,5.406157374E-1
7.270346110E0,-7.281513810E-1,3.274237812E-1,5.809328556E-1
7.275290110E0,-7.483099103E-1,2.987131178E-1,6.175847650E-1
7.280235110E0,-7.764097452E-1,2.822197378E-1,6.713408828E-1
7.285180110E0,-7.947356701E-1,2.828305960E-1,7.067710757E-1
7.290125110E0,-8.112290502E-1,2.938261926E-1,7.397578359E-1
7.295070110E0,-8.222246170E-1,3.176499307E-1,7.709119320E-1
7.300015110E0,-8.332201838E-1,3.457497358E-1,7.996225953E-1
7.304959110E0,-8.429940343E-1,3.830125034E-1,8.210029006E-1
7.309904110E0,-8.491026759E-1,4.227187634E-1,8.417723179E-1
7.314849110E0,-8.533787727E-1,4.612032473E-1,8.552113175E-1
7.319794110E0,-8.570439219E-1,5.015203953E-1,8.582656980E-1
7.324739110E0,-8.558222055E-1,5.436700583E-1,8.637634516E-1
7.329684110E0,-8.582656980E-1,5.711590052E-1,8.790351152E-1
7.334628110E0,-8.655960560E-1,6.004805565E-1,8.900306821E-1
7.339573110E0,-8.680394888E-1,6.389650702E-1,8.912523985E-1
7.344518110E0,-8.680394888E-1,6.866125464E-1,8.900306821E-1
7.349463110E0,-8.637634516E-1,7.403686643E-1,8.839219809E-1
7.354408110E0,-8.539896011E-1,8.002334833E-1,8.686503768E-1
7.359353110E0,-8.301658630E-1,8.839219809E-1,8.515461683E-1
7.364295533E0,-7.916813493E-1,9.700540304E-1,8.203920126E-1
7.369240533E0,-7.507534027E-1,1.042747021E0,7.745771408E-1
7.374153918E0,-7.037167549E-1,1.097724795E0,7.079927921E-1
7.379098918E0,-6.493497491E-1,1.128878951E0,5.736024380E-1
7.384040072E0,-5.711590052E-1,1.105055213E0,4.587597847E-1
7.388985072E0,-5.229006410E-1,1.042136073E0,3.262020350E-1
7.393929072E0,-4.807509482E-1,9.602801800E-1,1.863138974E-1
7.398874072E0,-4.447098970E-1,8.759807348E-1,5.070181563E-2
7.403819072E0,-4.062253833E-1,8.161159754E-1,-7.574728876E-2
7.408764072E0,-3.689626157E-1,7.812966704E-1,-1.881465018E-1
7.413709072E0,-3.433062732E-1,7.562511563E-1,-3.054326177E-1
7.418654072E0,-3.207042515E-1,7.519751191E-1,-4.190535545E-1
7.423598072E0,-3.042109013E-1,7.263187766E-1,-5.259549618E-1
7.428543072E0,-2.834414840E-1,6.750060916E-1,-6.310238242E-1
7.433488072E0,-2.498438805E-1,6.126978397E-1,-7.342600226E-1
7.438433072E0,-2.021963894E-1,5.583308339E-1,-8.387179971E-1
7.443378072E0,-1.362229437E-1,5.045747161E-1,-9.498954415E-1
7.448323072E0,-5.253441259E-2,4.575380683E-1,-1.064127207E0
7.453258572E0,4.825835302E-2,4.153883755E-1,-1.197295904E0
7.458203572E0,1.514945775E-1,3.830125034E-1,-1.351844788E0
7.463148572E0,2.730567753E-1,3.769038618E-1,-1.530217409E0
7.468093572E0,4.062253833E-1,3.952298164E-1,-1.733635545E0
7.473038572E0,5.497786999E-1,4.337143302E-1,-2.098322153E0
7.477983572E0,7.012733221E-1,3.940080702E-1,-2.386650562E0
7.482927572E0,8.973610401E-1,2.968805134E-1,-2.695748329E0
7.487872572E0,9.969320893E-1,2.223549485E-1,-3.023782969E0
7.492817572E0,1.054964304E0,2.388483137E-1,-3.341432810E0
7.497762572E0,1.029918790E0,4.911356568E-1,-3.648698092E0
7.502707572E0,9.450085163E-1,9.486737251E-1,-3.913813591E0
7.507652572E0,8.484918475E-1,1.485013366E0,-4.047593117E0
7.512597572E0,7.360926270E-1,2.244929790E0,-4.080579758E0
7.517541572E0,6.633996367E-1,3.092199802E0,-4.055534363E0
7.522486572E0,6.469063163E-1,3.789197206E0,-3.952298164E0
7.527431572E0,7.086036801E-1,4.192368031E0,-3.745214701E0
7.532373033E0,1.048855662E0,3.966347933E0,-3.445280075E0
7.537318033E0,1.503950238E0,3.081815243E0,-3.055547953E0
7.542263033E0,1.893682241E0,1.735468149E0,-2.538145065E0
7.547207033E0,2.063502789E0,3.225368559E-1,-1.907732129E0
7.552152033E0,2.086104870E0,-7.837401032E-1,-1.274264932E0
7.557097033E0,1.954157948E0,-1.341460109E0,-7.147123218E-1
7.562042033E0,1.845423937E0,-1.373225093E0,-3.836233616E-1
7.566987033E0,1.695151091E0,-9.486737251E-1,-2.913827300E-1
7.571932033E0,1.568091035E0,-4.043927789E-1,-2.901609838E-1
7.576876033E0,1.481348276E0,-1.050688252E-1,-4.948008358E-1
7.581821033E0,1.455080986E0,-1.826487035E-1,-5.870414972E-1
7.586766033E0,1.541213036E0,-3.433062732E-1,-6.670648456E-1
7.591711033E0,1.665218711E0,-5.271766782E-1,-7.275404930E-1
7.596656033E0,1.795332909E0,-7.269296646E-1,-7.422012687E-1
7.601601033E0,1.884519339E0,-8.833111525E-1,-7.189884186E-1
7.606545033E0,1.956601381E0,-9.572258592E-1,-6.359107494E-1
7.611490033E0,1.942551494E0,-9.590584636E-1,-5.100724697E-1
7.616435033E0,1.932777643E0,-9.645562172E-1,-4.318817258E-1
7.621380033E0,1.963320851E0,-9.749409556E-1,-3.597996235E-1
7.626325033E0,1.974927306E0,-9.071348906E-1,-3.292563558E-1
7.631270033E0,1.944384098E0,-8.130616546E-1,-2.901609838E-1
7.636214033E0,1.885740995E0,-7.849618196E-1,-2.406809032E-1
7.641144495E0,1.816102386E0,-8.222246170E-1,-1.973094791E-1
7.646089495E0,1.756237626E0,-9.169087410E-1,-1.417207420E-1
7.651034495E0,1.698816299E0,-1.062294602E0,-9.834930301E-2
7.655979495E0,1.637729764E0,-1.229671717E0,-6.719517708E-2
7.660924495E0,1.563204169E0,-1.401324868E0,-3.726277873E-2
7.665868495E0,1.463022232E0,-1.561371565E0,-7.330383174E-3
7.670813495E0,1.350623012E0,-1.645671010E0,3.054326167E-3
7.675758495E0,1.246775985E0,-1.770287514E0,6.108652335E-3
7.680703495E0,1.050077319E0,-1.853365183E0,3.665191587E-3
7.685648495E0,8.991936445E-1,-1.902845263E0,4.886921961E-3
7.690593495E0,7.434229851E-1,-1.931555867E0,-7.330383174E-3
7.695537495E0,5.974262357E-1,-1.952936172E0,-1.527163107E-2
7.700482495E0,4.642575979E-1,-1.966986060E0,-2.809980139E-2
7.705427495E0,3.549126983E-1,-2.001805305E0,-4.459316283E-2
7.710372495E0,2.590068579E-1,-2.021964073E0,-4.520402849E-2
7.715317495E0,1.997529417E-1,-2.031126976E0,-6.169738993E-2
7.720262495E0,1.728748679E-1,-2.021964073E0,-7.819075137E-2
7.725206495E0,1.912008226E-1,-1.993253350E0,-9.162978828E-2
7.730151495E0,2.577851415E-1,-1.929112434E0,-1.099557430E-1
7.735096495E0,3.677408695E-1,-1.823432803E0,-1.069014147E-1
7.740023802E0,5.143485069E-1,-1.679879427E0,-9.651670605E-2
7.744968802E0,6.798930168E-1,-1.503339410E0,-8.918632567E-2
7.749913802E0,8.527678847E-1,-1.299310327E0,-7.024950534E-2
7.754857802E0,1.006705880E0,-1.097724795E0,-5.192354694E-2
7.759802802E0,1.139874578E0,-9.254608750E-1,-2.809980139E-2
7.764747802E0,1.231504321E0,-8.130616546E-1,5.497787148E-3
7.769692802E0,1.291369081E0,-7.428121567E-1,3.970624134E-2
7.774637802E0,1.309084177E0,-6.688974500E-1,1.099557430E-1
7.779582802E0,1.269377947E0,-6.487388611E-1,1.557706445E-1
7.784526802E0,1.215621829E0,-6.493497491E-1,1.997529417E-1
7.789471802E0,1.149648428E0,-6.585127115E-1,2.437352389E-1
7.794416802E0,1.070235968E0,-6.652322412E-1,2.785545588E-1
7.799361802E0,9.810495973E-1,-6.566801667E-1,3.078760803E-1
7.804306802E0,8.790351152E-1,-6.285803318E-1,3.341432810E-1
7.809251802E0,7.794640660E-1,-5.968153477E-1,3.591887653E-1
7.814195802E0,6.750060916E-1,-5.351179838E-1,3.860668242E-1
7.819129302E0,5.784893632E-1,-5.051855445E-1,3.982841372E-1
7.824074302E0,4.911356568E-1,-4.685336351E-1,4.337143302E-1
7.829017033E0,4.172209501E-1,-4.001167417E-1,4.471533597E-1
7.833840033E0,3.457497358E-1,-3.488040566E-1,4.612032473E-1
7.838907033E0,2.785545588E-1,-3.048217595E-1,4.838052690E-1
7.843851033E0,2.058615834E-1,-2.736676335E-1,4.960225821E-1
7.848796033E0,1.252273768E-1,-2.596177161E-1,5.180137157E-1
7.853741033E0,3.481931984E-2,-2.736676335E-1,5.461135507E-1
7.858686033E0,-5.742133409E-2,-3.268128932E-1,5.736024380E-1
7.863631033E0,-1.429424733E-1,-4.172209501E-1,6.078109145E-1
7.868576033E0,-2.003637999E-1,-5.448917747E-1,6.389650702E-1
7.873520033E0,-2.351831198E-1,-7.733554244E-1,6.774495840E-1
7.878465033E0,-2.266310006E-1,-9.364564419E-1,6.927211881E-1
7.883410033E0,-1.728748679E-1,-1.092227101E0,6.927211881E-1
7.888355033E0,-9.590584040E-2,-1.227839112E0,6.884451509E-1
7.893300033E0,-1.221730490E-3,-1.338405728E0,6.731734872E-1
7.898245033E0,9.651670605E-2,-1.417818189E0,6.462954283E-1
7.903189033E0,1.844813079E-1,-1.461800575E0,6.175847650E-1
7.908134033E0,2.663372457E-1,-1.469130874E0,5.827654600E-1
7.913068148E0,3.304781020E-1,-1.426981211E0,5.497786999E-1
7.918013148E0,3.707951903E-1,-1.335351467E0,5.180137157E-1
7.922958148E0,3.933972120E-1,-1.197295904E0,4.801400900E-1
7.927903148E0,3.964515328E-1,-1.021366715E0,4.239404798E-1
7.932847148E0,3.854559660E-1,-8.271115422E-1,3.604104817E-1
7.937792148E0,3.549126983E-1,-6.139195561E-1,3.103195429E-1
7.942737148E0,3.109304011E-1,-3.830125034E-1,2.803871334E-1
7.947682148E0,2.388483137E-1,-1.350012124E-1,2.681698501E-1
7.952627148E0,1.044579595E-1,1.747074574E-1,2.675589919E-1
7.957572148E0,-8.796459436E-2,5.174028873E-1,2.809980214E-1
7.962516148E0,-3.017674387E-1,7.538077235E-1,2.919935882E-1
7.967461148E0,-4.996877611E-1,8.393288255E-1,2.852740586E-1
7.972406148E0,-6.591235995E-1,7.770205736E-1,2.809980214E-1
7.977351148E0,-8.197811842E-1,5.009095073E-1,3.207042515E-1
7.982296148E0,-9.004153609E-1,2.712241709E-1,3.683517575E-1
7.987209917E0,-9.095783234E-1,5.803219974E-2,4.098905921E-1
7.992154917E0,-8.820894361E-1,-5.436700583E-2,4.312708676E-1
7.997098917E0,-8.057312369E-1,-8.857546002E-2,4.355469346E-1
8.002043917E0,-6.768386960E-1,-8.613199741E-2,4.221078753E-1
8.006991917E0,-5.338962078E-1,-6.291911751E-2,4.159992337E-1
8.011935917E0,-3.952298164E-1,-3.726277873E-2,4.043927789E-1
8.016880917E0,-3.139847219E-1,-1.404990070E-2,3.738495409E-1
8.021825917E0,-2.962696552E-1,6.108652451E-4,3.237585723E-1
8.026770917E0,-3.512475193E-1,-1.527163107E-2,2.590068579E-1
8.031715917E0,-4.508185387E-1,-5.192354694E-2,1.924225539E-1
8.036636379E0,-5.803219676E-1,-1.203404516E-1,1.435533315E-1
8.041580379E0,-7.122688890E-1,-2.076941878E-1,1.301143020E-1
8.046525379E0,-8.326093554E-1,-3.078760803E-1,1.508837193E-1
8.051470379E0,-9.217956662E-1,-4.129449129E-1,1.973094791E-1
8.056415379E0,-9.712757468E-1,-5.033529401E-1,2.504547536E-1
8.061360379E0,-9.688322544E-1,-5.497786999E-1,2.999348342E-1
8.066293725E0,-9.224064946E-1,-5.290092826E-1,3.414736688E-1
8.071237725E0,-8.442157507E-1,-4.288274050E-1,3.732386529E-1
8.076182725E0,-6.725626588E-1,-1.576032341E-1,3.750712574E-1
8.081127725E0,-5.400048494E-1,5.742133409E-2,3.622430861E-1
8.086072725E0,-4.202753007E-1,2.577851415E-1,3.353650272E-1
8.091017725E0,-3.170390725E-1,4.477642179E-1,2.858849466E-1
8.095962725E0,-2.089159191E-1,5.876523852E-1,2.302961946E-1
8.100906725E0,-1.062905490E-1,6.407976151E-1,1.795943826E-1
8.105851725E0,-2.687807009E-2,6.487388611E-1,1.631010175E-1
8.110674725E0,2.626720630E-2,5.968153477E-1,1.777617931E-1
8.115619725E0,3.970624134E-2,3.836233616E-1,2.370157093E-1
8.120686725E0,2.504547499E-2,2.901609838E-1,2.620611787E-1
8.125631725E0,-3.115412779E-2,9.040805697E-2,3.200933933E-1
8.130575725E0,-1.386664063E-1,-1.264491081E-1,3.860668242E-1
8.135520725E0,-2.889392674E-1,-3.579670191E-1,4.697553813E-1
8.140465725E0,-4.459316432E-1,-6.102544069E-1,5.736024380E-1
8.145410725E0,-6.096435189E-1,-8.203920126E-1,6.713408828E-1
8.150355725E0,-7.428121567E-1,-1.040303469E0,7.483099103E-1
8.155300725E0,-8.197811842E-1,-1.207069755E0,8.081747293E-1
8.160244725E0,-8.350527883E-1,-1.326799273E0,8.723155856E-1
8.165189725E0,-7.739662528E-1,-1.415374756E0,9.468411207E-1
8.170134725E0,-7.049384713E-1,-1.524108768E0,1.050688267E0
8.175079725E0,-5.393940210E-1,-1.657277465E0,1.094059706E0
8.180024725E0,-4.196644127E-1,-1.713477015E0,1.112385631E0
8.184954725E0,-2.748893499E-1,-1.747685432E0,1.136209369E0
8.189898725E0,-1.099557430E-1,-1.741576791E0,1.152091861E0
8.194826456E0,6.291911751E-2,-1.714698792E0,1.155146122E0
8.199771456E0,2.241875380E-1,-1.674992561E0,1.155146122E0
8.204716456E0,3.891211748E-1,-1.579086661E0,1.138041973E0
8.209661456E0,5.589417219E-1,-1.456302762E0,1.120937705E0
8.214606456E0,7.342600226E-1,-1.246775985E0,1.119716048E0
8.219550456E0,9.040805697E-1,-9.987646937E-1,1.123992085E0
8.224495456E0,1.083064079E0,-7.049384713E-1,1.130100727E0
8.229440456E0,1.216843605E0,-3.799581826E-1,1.123992085E0
8.234385456E0,1.323745012E0,-4.092797264E-2,1.108109593E0
8.239330456E0,1.361007810E0,2.730567753E-1,1.083064079E0
8.244275456E0,1.340238333E0,5.229006410E-1,1.063516378E0
8.249219456E0,1.246775985E0,7.342600226E-1,1.048244715E0
8.254164456E0,1.082453251E0,9.242390990E-1,1.054353356E0
8.259109456E0,8.533787727E-1,1.140485406E0,1.068403363E0
8.264054456E0,5.601634383E-1,1.421483397E0,1.081842303E0
8.268999456E0,2.583959997E-1,1.670716405E0,1.153313637E0
8.273944456E0,-2.058615834E-1,2.131919622E0,1.156367898E0
8.278888456E0,-5.192354321E-1,2.412306786E0,1.109331250E0
8.283833456E0,-7.764097452E-1,2.594955444E0,1.024420977E0
8.288778456E0,-9.517280459E-1,2.693915844E0,9.101892114E-1
8.293723456E0,-1.061072946E0,2.712241650E0,7.977899909E-1
8.298668456E0,-1.103833556E0,2.629774809E0,7.043276429E-1
8.303613456E0,-1.131933331E0,2.582127333E0,6.261368990E-1
8.308558456E0,-1.182024240E0,2.569299221E0,5.589417219E-1
8.313488802E0,-1.235169530E0,2.620001078E0,4.868595898E-1
8.318433802E0,-1.265712738E0,2.663983345E0,4.196644127E-1
8.323378802E0,-1.292590857E0,2.700024366E0,3.714060783E-1
8.328323802E0,-1.312138557E0,2.678033352E0,3.475823104E-1
8.333268802E0,-1.303586483E0,2.570520878E0,3.561344445E-1
8.338213802E0,-1.249830246E0,2.394591808E0,3.940080702E-1
8.343157802E0,-1.161254883E0,2.165517330E0,4.520402849E-1
8.348102802E0,-1.057407737E0,1.955990553E0,5.167919993E-1
8.353047802E0,-9.382890463E-1,1.755626678E0,5.803219676E-1
8.357992802E0,-8.191702962E-1,1.525330544E0,6.273586154E-1
8.362937802E0,-7.086036801E-1,1.281595230E0,6.542366743E-1
8.367882802E0,-6.249151230E-1,1.053131700E0,6.640105247E-1
8.372826802E0,-5.882632136E-1,8.570439219E-1,6.621779203E-1
8.377771802E0,-6.310238242E-1,7.965682745E-1,6.603453159E-1
8.382716802E0,-6.902777553E-1,7.409795523E-1,6.719517708E-1
8.387661802E0,-7.513642311E-1,7.037167549E-1,6.902777553E-1
8.392606802E0,-8.051204085E-1,6.866125464E-1,7.092145681E-1
8.397551802E0,-8.417723179E-1,6.798930168E-1,7.263187766E-1
8.402495802E0,-8.600982428E-1,6.860016584E-1,7.324274182E-1
8.407440802E0,-8.649851680E-1,6.896668673E-1,7.324274182E-1
8.412365494E0,-8.576548100E-1,6.896668673E-1,7.318165898E-1
8.417310494E0,-8.466592431E-1,6.780604124E-1,7.214318514E-1
8.422255494E0,-8.313875794E-1,6.591235995E-1,7.098253965E-1
8.427200494E0,-8.167268038E-1,6.316346526E-1,6.994407177E-1
8.432144494E0,-8.045095205E-1,6.059783101E-1,6.872233748E-1
8.437089494E0,-7.971791625E-1,5.919284225E-1,6.731734872E-1
8.442034494E0,-7.947356701E-1,5.925393105E-1,6.536257863E-1
8.446979494E0,-7.904596329E-1,6.102544069E-1,6.328563690E-1
8.451924494E0,-7.916813493E-1,6.310238242E-1,6.047565937E-1
8.456869494E0,-7.941248417E-1,6.560692787E-1,5.803219676E-1
8.461813494E0,-8.002334833E-1,6.841690540E-1,5.528330207E-1
8.466758494E0,-8.063421249E-1,7.049384713E-1,5.174028873E-1
8.471703494E0,-8.002334833E-1,7.086036801E-1,4.978551865E-1
8.476648494E0,-7.922922373E-1,7.189884186E-1,4.801400900E-1
8.481593494E0,-7.837401032E-1,7.299839854E-1,4.581489265E-1
8.486415494E0,-7.745771408E-1,7.342600226E-1,4.331034720E-1
8.491482494E0,-7.684684992E-1,7.281513810E-1,4.050036669E-1
8.496427494E0,-7.593054771E-1,7.159340382E-1,3.756821156E-1
8.501372494E0,-7.525860071E-1,7.061602473E-1,3.488040566E-1
8.506317494E0,-7.458664775E-1,7.012733221E-1,3.298672438E-1
8.511140494E0,-7.428121567E-1,7.079927921E-1,3.109304011E-1
8.516207494E0,-7.385360599E-1,7.238753438E-1,2.932153046E-1
8.521151494E0,-7.373143435E-1,7.476990819E-1,2.687807083E-1
8.526096494E0,-7.324274182E-1,7.666358948E-1,2.504547536E-1
8.531041494E0,-7.305948138E-1,7.727445364E-1,2.339613885E-1
8.535986494E0,-7.263187766E-1,7.684684992E-1,2.119702399E-1
8.540926571E0,-7.220427394E-1,7.635815740E-1,1.838704348E-1
8.545871571E0,-7.098253965E-1,7.617489696E-1,1.588249654E-1
8.550796071E0,-6.878342628E-1,7.470881939E-1,1.301143020E-1
8.555741071E0,-6.548475623E-1,7.092145681E-1,9.529497474E-2
8.560686071E0,-6.163630486E-1,6.517932415E-1,5.803219974E-2
8.565631071E0,-5.742133260E-1,5.778785348E-1,1.954768784E-2
8.570576071E0,-5.070181489E-1,4.544837475E-1,-4.337143153E-2
8.575521071E0,-4.703662395E-1,3.775147200E-1,-8.429940045E-2
8.580465071E0,-4.428772926E-1,3.188716471E-1,-1.227839142E-1
8.585410071E0,-4.257730842E-1,2.730567753E-1,-1.612684280E-1
8.590355071E0,-4.159992337E-1,2.345722616E-1,-2.021963894E-1
8.595300071E0,-4.086688459E-1,2.156354338E-1,-2.339613885E-1
8.600245071E0,-4.007275999E-1,2.211332172E-1,-2.565633953E-1
8.605190071E0,-3.848451078E-1,2.541199327E-1,-2.797762752E-1
8.610134071E0,-3.481931984E-1,2.932153046E-1,-2.962696552E-1
8.615079071E0,-2.919935882E-1,3.170390725E-1,-3.268128932E-1
8.620024071E0,-2.150245607E-1,3.378084898E-1,-3.738495409E-1
8.624966763E0,-1.252273768E-1,3.469714522E-1,-4.593706727E-1
8.629911763E0,-1.649336144E-2,3.597996235E-1,-5.992587805E-1
8.634734763E0,1.069014147E-1,3.677408695E-1,-9.004153609E-1
8.639800763E0,2.406809032E-1,3.469714522E-1,-1.029307961E0
8.644722648E0,3.756821156E-1,2.700024247E-1,-1.307251573E0
8.649667648E0,5.064072609E-1,1.478293836E-1,-1.610240817E0
8.654612648E0,6.352998614E-1,3.970624134E-2,-1.925447226E0
8.659557648E0,7.782423496E-1,-3.726277873E-2,-2.222938538E0
8.664502648E0,9.114109278E-1,-9.346238524E-2,-2.476447821E0
8.669446648E0,1.071457624E0,-1.459967941E-1,-2.776993513E0
8.674391648E0,1.130100727E0,-1.685988009E-1,-2.918714046E0
8.679331148E0,1.116661668E0,-1.710422635E-1,-3.024393797E0
8.684276148E0,1.070846796E0,-1.105666086E-1,-3.097086906E0
8.689221148E0,9.993755221E-1,1.038470957E-2,-3.139236450E0
8.694166148E0,9.376781583E-1,8.429940045E-2,-3.137403965E0
8.699110148E0,9.144652486E-1,1.850921661E-1,-3.097086906E0
8.704055148E0,8.949176073E-1,3.182607889E-1,-3.044552326E0
8.709000148E0,9.150761366E-1,4.581489265E-1,-2.981633186E0
8.713945148E0,9.908234477E-1,5.510004759E-1,-2.857627630E0
8.718890148E0,1.060462117E0,4.850270152E-1,-2.626109600E0
8.723835148E0,1.113607287E0,1.514945775E-1,-2.239432096E0
8.728779148E0,1.186300278E0,-2.388483137E-1,-1.721418262E0
8.733724148E0,1.221119642E0,-4.874704778E-1,-1.299921274E0
8.738669148E0,1.195463300E0,-5.760459304E-1,-9.425650835E-1
8.743614148E0,1.169196129E0,-5.192354321E-1,-6.841690540E-1
8.748559148E0,1.167974353E0,-3.292563558E-1,-5.485569835E-1
8.753504148E0,1.183246017E0,-1.014036313E-1,-5.192354321E-1
8.758448148E0,1.204626322E0,1.081231460E-1,-5.803219676E-1
8.763393148E0,1.257160664E0,2.119702399E-1,-6.548475623E-1
8.768338148E0,1.404379249E0,1.979203373E-1,-6.896668673E-1
8.773283148E0,1.527773976E0,9.773843735E-2,-6.572909951E-1
8.778228148E0,1.638340592E0,-8.185594529E-2,-6.090326309E-1
8.783173148E0,1.734246373E0,-3.011565804E-1,-5.577199459E-1
8.788117148E0,1.798387289E0,-4.807509482E-1,-5.045747161E-1
8.793062148E0,1.828319669E0,-5.937610269E-1,-4.434881806E-1
8.798007148E0,1.823432803E0,-6.359107494E-1,-3.500257730E-1
8.802952148E0,1.813658953E0,-6.695083380E-1,-2.687807083E-1
8.807897148E0,1.740965962E0,-7.275404930E-1,-2.315179259E-1
8.812842148E0,1.638340592E0,-7.984008789E-1,-2.223549485E-1
8.817787148E0,1.547932506E0,-8.759807348E-1,-2.229658216E-1
8.822731148E0,1.494176388E0,-9.535606503E-1,-2.351831198E-1
8.827676148E0,1.445307136E0,-1.043968678E0,-2.626720667E-1
8.832621148E0,1.410487890E0,-1.178359032E0,-2.700024247E-1
8.837550071E0,1.394605398E0,-1.298088670E0,-2.388483137E-1
8.842495071E0,1.369559884E0,-1.388496757E0,-1.838704348E-1
8.847440071E0,1.328021049E0,-1.442252874E0,-1.514945775E-1
8.852384071E0,1.258993268E0,-1.467298269E0,-1.527163088E-1
8.857329071E0,1.176526427E0,-1.501506805E0,-1.606575549E-1
8.862274071E0,1.075733662E0,-1.531439185E0,-1.747074574E-1
8.867219071E0,8.888089061E-1,-1.566869378E0,-1.820378453E-1
8.872164071E0,7.495316267E-1,-1.581530094E0,-1.966986060E-1
8.877109071E0,6.084218025E-1,-1.585195303E0,-2.083050460E-1
8.882053071E0,4.630358517E-1,-1.578475833E0,-2.254092693E-1
8.886998071E0,3.243694305E-1,-1.556484699E0,-2.455678284E-1
8.891943071E0,2.009746730E-1,-1.521054506E0,-2.583959997E-1
8.896888071E0,1.062905490E-1,-1.470352650E0,-2.718350291E-1
8.901833071E0,5.253441259E-2,-1.411709547E0,-2.791654170E-1
8.906778071E0,4.398229718E-2,-1.344514370E0,-2.864958048E-1
8.911722071E0,8.857546002E-2,-1.262047648E0,-2.907718420E-1
8.916667071E0,1.912008226E-1,-1.170417786E0,-2.938261926E-1
8.921597340E0,3.457497358E-1,-1.061072946E0,-2.968805134E-1
8.926542340E0,5.320636034E-1,-9.450085163E-1,-2.877175212E-1
8.931487340E0,7.373143435E-1,-8.191702962E-1,-2.663372457E-1
8.936432340E0,9.254608750E-1,-7.012733221E-1,-2.437352389E-1
8.941376340E0,1.088561893E0,-6.126978397E-1,-2.162462920E-1
8.946321340E0,1.192408919E0,-5.253441334E-1,-1.875356287E-1
8.951266340E0,1.262047648E0,-4.361577928E-1,-1.606575549E-1
8.956211340E0,1.279151797E0,-3.506366611E-1,-1.276708394E-1
8.961146917E0,1.293812633E0,-2.706133127E-1,-8.368854225E-2
8.966091917E0,1.237612963E0,-1.966986060E-1,-7.330383174E-3
8.971035917E0,1.185078621E0,-1.783726513E-1,4.214970022E-2
8.975980917E0,1.111163855E0,-1.820378453E-1,9.101892263E-2
8.980914301E0,1.018923283E0,-2.083050460E-1,1.307251602E-1
8.985859301E0,9.089674950E-1,-2.480112910E-1,1.631010175E-1
8.990804301E0,7.977899909E-1,-2.700024247E-1,1.771509200E-1
8.995749301E0,6.719517708E-1,-2.864958048E-1,2.052507252E-1
9.000693301E0,5.332853794E-1,-2.822197378E-1,2.217440903E-1
9.005641301E0,4.135557711E-1,-2.565633953E-1,2.315179259E-1
9.010586301E0,2.981022298E-1,-2.089159191E-1,2.449569702E-1
9.015530301E0,1.759291887E-1,-1.777617931E-1,2.608394623E-1
9.020475301E0,6.658431143E-2,-1.392772794E-1,2.730567753E-1
9.025420301E0,-1.771509275E-2,-4.459316283E-2,3.164281845E-1
9.030365301E0,-7.819075137E-2,-2.321287990E-2,3.530801237E-1
9.035310301E0,-1.331686229E-1,-1.111774743E-1,3.799581826E-1
9.040255301E0,-1.740965992E-1,-2.199114859E-1,4.019493461E-1
9.045190570E0,-1.802052408E-1,-3.530801237E-1,4.343251884E-1
9.050135570E0,-1.973094791E-1,-4.752531648E-1,4.630358517E-1
9.055080570E0,-1.765400618E-1,-6.065891981E-1,4.813618064E-1
9.060025570E0,-1.545489132E-1,-7.574729323E-1,4.905247986E-1
9.064970570E0,-1.350012124E-1,-9.431759119E-1,5.027421117E-1
9.069915570E0,-9.285151958E-2,-1.057407737E0,5.106833577E-1
9.074859570E0,-7.147123665E-2,-1.095281363E0,5.009095073E-1
9.079804570E0,-2.626720630E-2,-1.125213742E0,4.929682612E-1
9.084746263E0,-3.054326167E-3,-1.103833556E0,4.819726646E-1
9.089691263E0,2.199114859E-2,-1.048855662E0,4.801400900E-1
9.094636263E0,4.031710699E-2,-9.645562172E-1,4.630358517E-1
9.099581263E0,5.497787148E-2,-8.533787727E-1,4.410447180E-1
9.104525263E0,6.352998316E-2,-7.250970602E-1,4.159992337E-1
9.109470263E0,5.925392732E-2,-5.772676468E-1,3.866777122E-1
9.114415263E0,4.276056588E-2,-4.159992337E-1,3.543018401E-1
9.119360263E0,1.221730467E-2,-2.443460971E-1,3.310889602E-1
9.124305263E0,-2.443460934E-2,-6.047565863E-2,3.066543639E-1
9.129250263E0,-7.024950534E-2,1.362229437E-1,2.852740586E-1
9.134195263E0,-1.227839142E-1,3.475823104E-1,2.730567753E-1
9.139139263E0,-1.808161139E-1,5.607742667E-1,2.657263875E-1
9.144073993E0,-2.406809032E-1,7.556403279E-1,2.626720667E-1
9.149018993E0,-2.877175212E-1,8.979719281E-1,2.522873580E-1
9.153960340E0,-3.213151097E-1,9.712757468E-1,2.309070677E-1
9.158905340E0,-3.445279896E-1,9.865473509E-1,2.113593817E-1
9.163801955E0,-3.634648323E-1,9.236282706E-1,2.125810981E-1
9.168745955E0,-3.848451078E-1,8.252789378E-1,2.388483137E-1
9.173690955E0,-3.921754956E-1,6.701191664E-1,2.822197378E-1
9.178635955E0,-4.001167417E-1,4.960225821E-1,3.335324228E-1
9.183580955E0,-4.129449129E-1,3.591887653E-1,3.921754956E-1
9.188525955E0,-4.300491214E-1,2.755002379E-1,4.434881806E-1
9.193470955E0,-4.440990388E-1,2.315179259E-1,4.758640230E-1
9.198414955E0,-4.453207552E-1,2.150245607E-1,4.789183438E-1
9.203359955E0,-4.367686510E-1,2.138028294E-1,4.495968223E-1
9.208304955E0,-4.196644127E-1,1.740965992E-1,3.842342496E-1
9.213249955E0,-3.982841372E-1,7.696902007E-2,2.895501256E-1
9.218194955E0,-3.714060783E-1,-7.147123665E-2,1.734857261E-1
9.223139955E0,-3.469714522E-1,-2.437352389E-1,5.558873713E-2
9.227961955E0,-3.255911767E-1,-4.728097022E-1,-7.635815442E-2
9.233028955E0,-3.255911767E-1,-5.247332454E-1,-9.712757170E-2
9.237973955E0,-3.433062732E-1,-5.864306092E-1,-7.819075137E-2
9.242918955E0,-3.793473244E-1,-5.986479521E-1,3.665191587E-3
9.247863955E0,-4.306600094E-1,-5.705481172E-1,1.123992056E-1
9.252808955E0,-4.850270152E-1,-5.277875662E-1,2.205223590E-1
9.257752955E0,-5.497786999E-1,-4.758640230E-1,3.152064681E-1
9.262697955E0,-6.126978397E-1,-4.312708676E-1,4.471533597E-1
9.267642955E0,-6.963863969E-1,-4.068362415E-1,5.265658498E-1
9.272587955E0,-7.409795523E-1,-3.604104817E-1,5.943718553E-1
9.277532955E0,-7.751879692E-1,-3.097086847E-1,6.542366743E-1
9.282477955E0,-8.008443117E-1,-2.907718420E-1,7.244861722E-1
9.287421955E0,-8.045095205E-1,-2.785545588E-1,7.965682745E-1
9.292366955E0,-7.867944241E-1,-2.773328125E-1,8.686503768E-1
9.297311955E0,-7.470881939E-1,-2.877175212E-1,9.352346659E-1
9.302256955E0,-6.927211881E-1,-3.213151097E-1,9.883799553E-1
9.307201955E0,-6.291912198E-1,-3.414736688E-1,1.027475357E0
9.312146955E0,-5.571091175E-1,-3.512475193E-1,1.040914416E0
9.317090955E0,-4.728097022E-1,-3.597996235E-1,1.055575132E0
9.322035955E0,-3.732386529E-1,-3.720169365E-1,1.076955438E0
9.326980955E0,-2.767219543E-1,-3.964515328E-1,1.094059706E0
9.331925955E0,-1.826487035E-1,-4.428772926E-1,1.109331250E0
9.336870955E0,-8.979719132E-2,-4.972442985E-1,1.130711555E0
9.341815955E0,-5.497787148E-3,-5.235115290E-1,1.158200502E0
9.346759955E0,9.162978828E-2,-4.783074856E-1,1.149037480E0
9.351704955E0,2.357939780E-1,-3.481931984E-1,1.113607287E0
9.356649955E0,3.964515328E-1,-1.924225539E-1,1.077566266E0
9.361594955E0,4.563163519E-1,-1.887573600E-1,1.023810148E0
9.366539955E0,4.117231667E-1,-3.139847219E-1,9.810495973E-1
9.371484955E0,3.384193480E-1,-4.483750761E-1,9.382890463E-1
9.376428955E0,2.559525371E-1,-5.436700583E-1,8.943067193E-1
9.381373955E0,1.991420686E-1,-5.937610269E-1,8.454375267E-1
9.386318955E0,1.624901593E-1,-6.004805565E-1,8.051204085E-1
9.391263955E0,1.569923609E-1,-5.442809463E-1,7.715228200E-1
9.396208147E0,1.777617931E-1,-4.202753007E-1,7.318165898E-1
9.401138801E0,2.113593817E-1,-2.535090744E-1,7.000515461E-1
9.406082801E0,2.388483137E-1,-6.902777404E-2,6.774495840E-1
9.411027801E0,2.620611787E-1,1.502728462E-1,6.560692787E-1
9.415954493E0,2.608394623E-1,4.379903674E-1,6.194173694E-1
9.420899493E0,2.168571651E-1,7.397578359E-1,5.888741016E-1
9.425844493E0,1.563815027E-1,1.061683774E0,5.827654600E-1
9.430789493E0,5.497787148E-2,1.384831548E0,5.772676468E-1
9.435733493E0,-5.864306539E-2,1.627955914E0,6.029239893E-1
9.440678493E0,-1.447750628E-1,1.790446043E0,6.572909951E-1
9.445623493E0,-2.211332172E-1,1.918727756E0,7.067710757E-1
9.450568493E0,-3.225368559E-1,1.983479500E0,7.348709106E-1
9.455505762E0,-4.520402849E-1,2.014022827E0,7.342600226E-1
9.460450762E0,-6.212499738E-1,1.962710023E0,6.572909951E-1
9.465394762E0,-7.910705209E-1,1.908343077E0,6.084218025E-1
9.470339762E0,-8.429940343E-1,1.963320851E0,5.803219676E-1
9.475284762E0,-8.827002645E-1,2.050063848E0,5.497786999E-1
9.480229762E0,-9.193521738E-1,2.131308794E0,5.271766782E-1
9.485174762E0,-9.584475756E-1,2.188730240E0,5.082398653E-1
9.490119762E0,-9.828822017E-1,2.218662500E0,4.862487316E-1
9.495063762E0,-9.981538057E-1,2.228436470E0,4.844161272E-1
9.500008762E0,-1.012814522E0,2.202169180E0,4.948008358E-1
9.504953762E0,-1.031751394E0,2.142915249E0,5.180137157E-1
9.509898762E0,-1.042136073E0,2.062891960E0,5.522221923E-1
9.514843762E0,-1.047023058E0,1.967597008E0,5.931501389E-1
9.519788762E0,-1.039692640E0,1.852143407E0,6.224716902E-1
9.524732762E0,-9.999864101E-1,1.718974829E0,6.505714655E-1
9.529677762E0,-9.248499870E-1,1.580308437E0,6.841690540E-1
9.534622762E0,-8.100073338E-1,1.447139740E0,7.147123218E-1
9.539567762E0,-6.841690540E-1,1.328631878E0,7.318165898E-1
9.544512762E0,-5.577199459E-1,1.197906733E0,7.373143435E-1
9.549457762E0,-4.550946057E-1,1.069014192E0,7.312057018E-1
9.554279762E0,-3.707951903E-1,9.071348906E-1,7.086036801E-1
9.559346762E0,-3.659082949E-1,8.277224302E-1,6.927211881E-1
9.564291762E0,-4.080579877E-1,7.843509912E-1,6.786713004E-1
9.569236762E0,-4.703662395E-1,7.635815740E-1,6.646214128E-1
9.574181762E0,-5.387831330E-1,7.654141784E-1,6.481280327E-1
9.579126762E0,-6.053674817E-1,7.788531780E-1,6.420193911E-1
9.584070762E0,-6.603453159E-1,8.142833710E-1,6.401867867E-1
9.589015762E0,-7.018841505E-1,8.655960560E-1,6.395758986E-1
9.593960762E0,-7.269296646E-1,9.120218158E-1,6.462954283E-1
9.598905762E0,-7.446447611E-1,9.450085163E-1,6.505714655E-1
9.603850762E0,-7.586946487E-1,9.480628371E-1,6.493497491E-1
9.608795762E0,-7.739662528E-1,9.211847782E-1,6.456845403E-1
9.613740762E0,-7.916813493E-1,8.845328689E-1,6.389650702E-1
9.618684762E0,-8.069530129E-1,8.319984674E-1,6.285803318E-1
9.623629762E0,-8.185594082E-1,7.764097452E-1,6.120869517E-1
9.628574762E0,-8.210029006E-1,7.214318514E-1,5.894849896E-1
9.633519762E0,-8.246681094E-1,7.067710757E-1,5.681046844E-1
9.638464762E0,-8.307767510E-1,7.293730974E-1,5.650503635E-1
9.643409762E0,-8.258898258E-1,7.593054771E-1,5.607742667E-1
9.648353762E0,-8.130616546E-1,7.910705209E-1,5.589417219E-1
9.653289609E0,-7.886270285E-1,8.295549750E-1,5.516113043E-1
9.658234609E0,-7.550294399E-1,8.680394888E-1,5.332853794E-1
9.663179609E0,-6.982190013E-1,9.340129495E-1,5.174028873E-1
9.668098185E0,-6.548475623E-1,9.688322544E-1,4.960225821E-1
9.673043185E0,-6.151412725E-1,9.969320893E-1,4.673119187E-1
9.677987185E0,-5.693264008E-1,1.030529618E0,4.263839424E-1
9.682932185E0,-5.259549618E-1,1.065959811E0,3.732386529E-1
9.687877185E0,-4.838052690E-1,1.106887817E0,3.127630055E-1
9.692812570E0,-4.428772926E-1,1.144761443E0,2.437352389E-1
9.697757570E0,-3.995058835E-1,1.180802464E0,1.710422635E-1
9.702702570E0,-3.573561609E-1,1.202182770E0,9.285151958E-2
9.707646570E0,-3.127630055E-1,1.218676209E0,1.282817032E-2
9.712591570E0,-2.712241709E-1,1.227839112E0,-6.841690838E-2
9.717536570E0,-2.339613885E-1,1.232726097E0,-1.478293836E-1
9.722481570E0,-2.052507252E-1,1.218676209E0,-2.412917763E-1
9.727426570E0,-1.777617931E-1,1.165530920E0,-3.628539443E-1
9.732371570E0,-1.539380401E-1,1.076955438E0,-4.984660447E-1
9.737315570E0,-1.233947799E-1,9.822713137E-1,-6.359107494E-1
9.742260570E0,-8.063421398E-2,9.046914577E-1,-7.751879692E-1
9.747205570E0,-1.527163107E-2,8.582656980E-1,-9.156870246E-1
9.752150570E0,7.452555746E-2,8.283332586E-1,-1.050077319E0
9.757095570E0,1.777617931E-1,8.185594082E-1,-1.262658477E0
9.762040570E0,3.408628106E-1,8.307767510E-1,-1.431257248E0
9.766983416E0,4.355469346E-1,8.301658630E-1,-1.638340592E0
9.771928416E0,5.119050741E-1,8.216137290E-1,-1.887573600E0
9.776864916E0,5.797111392E-1,8.411614299E-1,-2.175291061E0
9.781809916E0,6.609562039E-1,8.509352803E-1,-2.478891134E0
9.786754916E0,7.489207983E-1,8.515461683E-1,-2.764775991E0
9.791699916E0,8.411614299E-1,8.429940343E-1,-3.008511305E0
9.796521916E0,9.193521738E-1,8.436049223E-1,-3.263242245E0
9.801588916E0,9.712757468E-1,8.698720932E-1,-3.468492746E0
9.806533916E0,9.914342761E-1,9.028588533E-1,-3.599828959E0
9.811478916E0,1.010371089E0,9.279043078E-1,-3.656028509E0
9.816423916E0,1.037249207E0,1.004262447E0,-3.613878727E0
9.821368916E0,1.062294602E0,1.209513187E0,-3.507588148E0
9.826312916E0,1.042747021E0,1.461800575E0,-3.376863003E0
9.831257916E0,1.080009699E0,1.797165513E0,-3.245527029E0
9.836202916E0,1.111774802E0,2.096489429E0,-3.109304190E0
9.841147916E0,1.180191636E0,2.302962065E0,-2.982244015E0
9.846092916E0,1.290758252E0,2.081218004E0,-2.837469101E0
9.851036647E0,1.406822681E0,1.374446750E0,-2.633440018E0
9.855980647E0,1.560760736E0,5.705481172E-1,-2.105041742E0
9.860925647E0,1.749518037E0,-4.654793143E-1,-1.642616630E0
9.865870647E0,1.753183246E0,-9.902125597E-1,-1.170417786E0
9.870815647E0,1.726916075E0,-1.215621829E0,-7.886270285E-1
9.875760647E0,1.694540143E0,-1.096503139E0,-5.161811113E-1
9.880705647E0,1.667051196E0,-7.464773059E-1,-3.671300113E-1
9.885649647E0,1.642616630E0,-4.013384581E-1,-3.359758854E-1
9.890594647E0,1.646892667E0,-2.144137025E-1,-3.964515328E-1
9.895539647E0,1.680490255E0,-2.205223590E-1,-4.575380683E-1
9.900484647E0,1.739133358E0,-3.396410644E-1,-4.764748812E-1
