"Time (s)","Gyroscope x (rad/s)","Gyroscope y (rad/s)","Gyroscope z (rad/s)"
1.809692400E-2,-1.739349365E-1,-1.180877686E-1,8.905029297E-2
2.313232400E-2,-1.791534424E-1,-1.191558838E-1,9.117126465E-2
2.816772500E-2,-1.937713623E-1,-1.234130859E-1,8.691406250E-2
3.320312500E-2,-1.989898682E-1,-1.191558838E-1,7.519531250E-2
3.823852500E-2,-1.885528564E-1,-1.042480469E-1,6.347656250E-2
4.330444300E-2,-1.634979248E-1,-8.613586426E-2,4.536437988E-2
4.837036100E-2,-1.290435791E-1,-6.376647949E-2,2.087402344E-2
5.343627900E-2,-8.937072754E-2,-4.884338379E-2,-4.699707031E-3
5.847168000E-2,-5.178833008E-2,-3.500366211E-2,-1.641845703E-2
6.353759800E-2,-1.524353027E-2,-2.647399902E-2,-1.214599609E-2
6.860351600E-2,7.720947266E-3,-2.540588379E-2,-3.631591797E-3
7.366943400E-2,2.337646484E-2,-3.286743164E-2,4.898071289E-3
7.870483400E-2,2.650451660E-2,-4.139709473E-2,5.950927734E-3
8.377075200E-2,1.084899902E-2,-4.777526855E-2,1.234436035E-2
8.883667000E-2,-8.987426758E-3,-5.844116211E-2,2.194213867E-2
9.390258800E-2,-2.882385254E-2,-7.015991211E-2,3.898620605E-2
9.893798800E-2,-4.344177246E-2,-8.825683594E-2,5.175781250E-2
1.040039060E-1,-5.700683594E-2,-1.202239990E-1,6.668090820E-2
1.090698240E-1,-7.162475586E-2,-1.649627686E-1,7.945251465E-2
1.141052250E-1,-8.518981934E-2,-2.129058838E-1,8.479309082E-2
1.191711420E-1,-9.458923340E-2,-2.555084229E-1,8.798217773E-2
1.242370600E-1,-9.980773926E-2,-2.864074707E-1,8.798217773E-2
1.292724610E-1,-1.081542969E-1,-3.045043945E-1,8.479309082E-2
1.343383790E-1,-1.123352051E-1,-3.034515381E-1,7.733154297E-2
1.394042970E-1,-1.123352051E-1,-2.832031250E-1,6.028747559E-2
1.444396970E-1,-1.029357910E-1,-2.512512207E-1,3.898620605E-2
1.495056150E-1,-9.249877930E-2,-2.054443359E-1,1.234436035E-2
1.545715330E-1,-7.788085938E-2,-1.479187012E-1,-5.767822266E-3
1.596374510E-1,-5.909729004E-2,-8.720397949E-2,-1.853942871E-2
1.646728510E-1,-3.298950195E-2,-2.647399902E-2,-2.281188965E-2
1.697387690E-1,-4.806518555E-3,2.465820312E-2,-2.813720703E-2
1.748046870E-1,1.397705078E-2,6.726074219E-2,-3.346252441E-2
1.798706050E-1,2.442932129E-2,1.024169922E-1,-3.558349609E-2
1.849060060E-1,2.024841309E-2,1.183929443E-1,-3.453063965E-2
1.899719240E-1,5.630493164E-3,1.152038574E-1,-3.453063965E-2
1.950378420E-1,-1.107788086E-2,9.495544434E-2,-2.919006348E-2
2.000732420E-1,-2.046203613E-2,6.086730957E-2,-2.600097656E-2
2.051391600E-1,-3.091430664E-2,2.145385742E-2,-2.706909180E-2
2.102050780E-1,-4.238891602E-2,-2.221679688E-2,-2.493286133E-2
2.152404780E-1,-5.387878418E-2,-6.481933594E-2,-3.346252441E-2
2.203063960E-1,-5.178833008E-2,-9.252929688E-2,-4.943847656E-2
2.253723140E-1,-5.596923828E-2,-1.031799316E-1,-6.541442871E-2
2.304382320E-1,-5.387878418E-2,-1.010437012E-1,-7.606506348E-2
2.354736330E-1,-4.029846191E-2,-8.720397949E-2,-7.499694824E-2
2.405395510E-1,-2.151489258E-2,-6.376647949E-2,-7.606506348E-2
2.456054690E-1,-1.678466797E-3,-3.926086426E-2,-7.926940918E-2
2.506713870E-1,1.397705078E-2,-1.049804688E-2,-8.032226562E-2
2.557067870E-1,2.546691895E-2,1.293945312E-2,-8.032226562E-2
2.607727050E-1,3.277587891E-2,2.677917480E-2,-8.032226562E-2
2.658386230E-1,3.277587891E-2,2.891540527E-2,-7.713317871E-2
2.708740230E-1,2.650451660E-2,2.145385742E-2,-7.287597656E-2
2.759399410E-1,1.084899902E-2,4.409790039E-3,-6.327819824E-2
2.810058590E-1,-5.859375000E-3,-7.308959961E-3,-3.878784180E-2
2.860717770E-1,-1.629638672E-2,-1.368713379E-2,-1.109313965E-2
2.911071780E-1,-1.629638672E-2,-4.104614258E-3,1.341247559E-2
2.961730960E-1,-2.716064453E-3,1.933288574E-2,3.259277344E-2
3.012390140E-1,1.502990723E-2,4.916381836E-2,4.324340820E-2
3.062744140E-1,3.277587891E-2,7.791137695E-2,4.856872559E-2
3.113403320E-1,5.261230469E-2,1.056213379E-1,3.898620605E-2
3.164062500E-1,7.453918457E-2,1.386413574E-1,1.980590820E-2
3.214416500E-1,8.706665039E-2,1.780548096E-1,-4.425048828E-4
3.265075680E-1,9.750366211E-2,1.961669922E-1,-1.748657227E-2
3.315734860E-1,9.436035156E-2,1.972351074E-1,-1.960754395E-2
3.366394040E-1,9.019470215E-2,1.855163574E-1,-8.956909180E-3
3.416748050E-1,8.706665039E-2,1.674041748E-1,-4.425048828E-4
3.467407230E-1,7.661437988E-2,1.450347900E-1,6.256103516E-4
3.518066410E-1,6.723022461E-2,1.279907227E-1,-4.699707031E-3
3.568420410E-1,5.470275879E-2,1.056213379E-1,-4.425048828E-4
3.619079590E-1,3.381347656E-2,8.004760742E-2,1.980590820E-2
3.669738770E-1,1.190185547E-2,2.891540527E-2,6.454467773E-2
3.720397950E-1,-1.107788086E-2,-3.179931641E-2,1.242065430E-1
3.770751950E-1,-2.569580078E-2,-1.244812012E-1,2.179412842E-1
3.821411130E-1,-2.255249023E-2,-2.427215576E-1,3.180847168E-1
3.872070310E-1,-2.360534668E-2,-3.396606445E-1,3.745422363E-1
3.922424320E-1,-2.464294434E-2,-3.961181641E-1,3.947753906E-1
3.973083500E-1,-1.733398438E-2,-3.993225098E-1,3.915863037E-1
4.023742670E-1,4.592895508E-3,-3.439331055E-1,3.702697754E-1
4.074401850E-1,4.008483887E-2,-2.512512207E-1,3.298034668E-1
4.124755860E-1,8.706665039E-2,-1.511077881E-1,2.722778320E-1
4.175415040E-1,1.361236572E-1,-6.163024902E-2,2.179412842E-1
4.226074220E-1,1.956329346E-1,1.507568359E-2,1.827850342E-1
4.276428220E-1,2.624511719E-1,8.218383789E-2,1.636199951E-1
4.327087400E-1,3.355255127E-1,1.439666748E-1,1.614837646E-1
4.377746580E-1,4.085998535E-1,1.940307617E-1,1.806640625E-1
4.428405760E-1,4.743652344E-1,2.440948486E-1,2.158203125E-1
4.478759760E-1,5.390930176E-1,3.058929443E-1,2.584228516E-1
4.529418940E-1,5.944213867E-1,3.825836182E-1,3.031616211E-1
4.580078120E-1,6.382751465E-1,4.816589355E-1,3.489685059E-1
4.630432130E-1,6.779327393E-1,6.030883789E-1,4.054260254E-1
4.681091310E-1,7.092590332E-1,7.437133789E-1,4.597625732E-1
4.731750490E-1,7.384948730E-1,8.747406006E-1,5.151519775E-1
4.782409670E-1,7.833862305E-1,9.865875244E-1,5.726776123E-1
4.832763670E-1,8.136596680E-1,1.155960083E0,6.632232666E-1
4.883422850E-1,8.240966797E-1,1.357299805E0,7.527008057E-1
4.934082030E-1,8.345336914E-1,1.560760498E0,8.166198730E-1
4.984741210E-1,8.387145996E-1,1.751449585E0,8.698883057E-1
5.035400390E-1,8.324432373E-1,1.917633057E0,9.231567383E-1
5.085754390E-1,8.199157715E-1,2.060379028E0,9.721527100E-1
5.136413570E-1,7.938232422E-1,2.193527222E0,1.010498047E0
5.186767580E-1,7.562408447E-1,2.314971924E0,1.038192749E0
5.237426760E-1,7.144775391E-1,2.412979126E0,1.056304932E0
5.288085940E-1,6.716766357E-1,2.488616943E0,1.074417114E0
5.338439940E-1,6.236572266E-1,2.556793213E0,1.089324951E0
5.389099120E-1,5.818939209E-1,2.636688232E0,1.090393066E0
5.439758300E-1,5.537109375E-1,2.728302002E0,1.070159912E0
5.490417480E-1,5.380554199E-1,2.827362061E0,1.044586182E0
5.540771480E-1,5.255279541E-1,2.936019897E0,1.026473999E0
5.591430660E-1,5.213470459E-1,3.083023071E0,1.031799316E0
5.642089840E-1,5.213470459E-1,3.281173706E0,1.055236816E0
5.692443850E-1,5.317840576E-1,3.500610352E0,1.102111816E0
5.743103030E-1,5.443115234E-1,3.715789795E0,1.194793701E0
5.793762210E-1,5.641479492E-1,3.905410767E0,1.325820923E0
5.844421390E-1,5.986022949E-1,4.057739258E0,1.478149414E0
5.894775390E-1,6.351318359E-1,4.170669556E0,1.645401001E0
5.945434570E-1,6.810760498E-1,4.252685547E0,1.816909790E0
5.996093750E-1,7.426605225E-1,4.295303345E0,1.987350464E0
6.046447750E-1,8.230438232E-1,4.305953979E0,2.162048340E0
6.097106930E-1,9.295349121E-1,4.312347412E0,2.338882446E0
6.147766110E-1,1.067337036E0,4.333648682E0,2.519973755E0
6.198425290E-1,1.242721558E0,4.356018066E0,2.711730957E0
6.248779300E-1,1.447341919E0,4.352828979E0,2.921585083E0
6.299438480E-1,1.683273315E0,4.374130249E0,3.151687622E0
6.350097660E-1,1.945312500E0,4.448699951E0,3.393493652E0
6.400451660E-1,2.230300903E0,4.580795288E0,3.645965576E0
6.451110840E-1,2.527832031E0,4.715011597E0,3.928253174E0
6.501770020E-1,2.824325562E0,4.852432251E0,4.242507935E0
6.552429200E-1,3.115585327E0,4.989852905E0,4.566360474E0
6.602783200E-1,3.408935547E0,5.119812012E0,4.867828369E0
6.653442380E-1,3.691848755E0,5.229537964E0,5.142654419E0
6.704101560E-1,3.959106445E0,5.325408936E0,5.380218506E0
6.754760740E-1,4.213836670E0,5.375473022E0,5.573028564E0
6.805114750E-1,4.453933716E0,5.374420166E0,5.728561401E0
6.855773920E-1,4.682571411E0,5.369094849E0,5.869171143E0
6.906433100E-1,4.878829956E0,5.357376099E0,6.017242432E0
6.956787110E-1,5.030212402E0,5.289199829E0,6.159988403E0
7.007446290E-1,5.114761353E0,5.095321655E0,6.268646240E0
7.058105470E-1,5.134597778E0,4.815155029E0,6.315521240E0
7.108459470E-1,5.114761353E0,4.523269653E0,6.268646240E0
7.159118650E-1,5.078231812E0,4.270797729E0,6.120574951E0
7.209777830E-1,5.033340454E0,4.053482056E0,5.895797729E0
7.260437010E-1,4.980102539E0,3.823394775E0,5.631622314E0
7.310791010E-1,4.922683716E0,3.561340332E0,5.359970093E0
7.361450190E-1,4.854827881E0,3.288619995E0,5.095794678E0
7.412109370E-1,4.769210815E0,3.004196167E0,4.848648071E0
7.462463380E-1,4.653335571E0,2.685684204E0,4.647308350E0
7.513122560E-1,4.506134033E0,2.383148193E0,4.471542358E0
7.563781740E-1,4.339111328E0,2.169036865E0,4.301101685E0
7.614440920E-1,4.168945312E0,2.064636230E0,4.148773193E0
7.664794920E-1,4.010253906E0,2.048660278E0,4.048629761E0
7.715454100E-1,3.875579834E0,2.071029663E0,4.017745972E0
7.766113280E-1,3.789978027E0,2.120025635E0,4.047576904E0
7.816467280E-1,3.744049072E0,2.177551270E0,4.110427856E0
7.867126460E-1,3.720031738E0,2.207382202E0,4.181793213E0
7.917785640E-1,3.713775635E0,2.211639404E0,4.229736328E0
7.968444820E-1,3.709594727E0,2.207382202E0,4.225463867E0
8.018798830E-1,3.691848755E0,2.181808472E0,4.170074463E0
8.069458010E-1,3.637557983E0,2.118972778E0,4.060348511E0
8.120117190E-1,3.536300659E0,2.015640259E0,3.899505615E0
8.170776370E-1,3.392227173E0,1.906982422E0,3.700286865E0
8.221435550E-1,3.221023560E0,1.862243652E0,3.477645874E0
8.271789550E-1,3.040420532E0,1.889938354E0,3.264602661E0
8.322143550E-1,2.865036011E0,1.948516846E0,3.092025757E0
8.372802730E-1,2.707397461E0,2.016693115E0,2.962066650E0
8.423461910E-1,2.575851440E0,2.082748413E0,2.874710083E0
8.474121090E-1,2.476684570E0,2.113632202E0,2.836364746E0
8.524475100E-1,2.407775879E0,2.080612183E0,2.856597900E0
8.575134280E-1,2.359756470E0,2.001785278E0,2.918395996E0
8.626098630E-1,2.333663940E0,1.897384644E0,2.998291016E0
8.676452640E-1,2.317993164E0,1.768493652E0,3.081375122E0
8.727111820E-1,2.306518555E0,1.609771729E0,3.164459229E0
8.777771000E-1,2.301300049E0,1.429733276E0,3.236907959E0
8.828430170E-1,2.309646606E0,1.288055420E0,3.286972046E0
8.878784180E-1,2.314865112E0,1.219879150E0,3.308273315E0
8.929443360E-1,2.310699463E0,1.203903198E0,3.313598633E0
8.980102540E-1,2.296081543E0,1.266754150E0,3.308273315E0
9.030456540E-1,2.293991089E0,1.427612305E0,3.317871094E0
9.081115720E-1,2.306518555E0,1.651321411E0,3.389236450E0
9.131774900E-1,2.333663940E0,1.888870239E0,3.538375854E0
9.182434080E-1,2.374374390E0,2.091262817E0,3.764205933E0
9.233093260E-1,2.430740356E0,2.244659424E0,4.044372559E0
9.283447260E-1,2.494430542E0,2.342666626E0,4.351165771E0
9.334106440E-1,2.557067871E0,2.388473511E0,4.641983032E0
9.384460450E-1,2.601959229E0,2.362915039E0,4.878479004E0
9.435119630E-1,2.628051758E0,2.263839722E0,5.036132812E0
9.485778810E-1,2.624923706E0,2.116836548E0,5.094726562E0
9.536437990E-1,2.596740723E0,1.937866211E0,5.052108765E0
9.587097170E-1,2.529922485E0,1.615097046E0,4.863555908E0
9.637756350E-1,2.356628418E0,1.035598755E0,4.411895752E0
9.688110350E-1,2.204208374E0,9.642181396E-1,3.905883789E0
9.738769530E-1,2.033004761E0,1.031326294E0,3.459548950E0
9.789428710E-1,1.792892456E0,9.727478027E-1,3.112274170E0
9.839782710E-1,1.561126709E0,1.002563477E0,2.852340698E0
9.890441890E-1,1.358596802E0,1.103775024E0,2.672317505E0
9.941101070E-1,1.180084229E0,1.224136353E0,2.576446533E0
9.991455080E-1,1.016189575E0,1.345581055E0,2.549804688E0
1.004211426E0,8.689880371E-1,1.456375122E0,2.572174072E0
1.009277344E0,7.541503906E-1,1.574615479E0,2.628631592E0
1.014343262E0,6.873321533E-1,1.692855835E0,2.708526611E0
1.019378662E0,6.633300781E-1,1.763168335E0,2.801208496E0
1.024414062E0,6.664581299E-1,1.750381470E0,2.899215698E0
1.029479980E0,6.946411133E-1,1.669418335E0,3.002548218E0
1.034545898E0,7.311859131E-1,1.529876709E0,3.099487305E0
1.039611816E0,7.698059082E-1,1.378601074E0,3.170852661E0
1.044677734E0,7.906951904E-1,1.249710083E0,3.207077026E0
1.049743652E0,7.792053223E-1,1.150634766E0,3.212402344E0
1.054779053E0,7.364044189E-1,1.086730957E0,3.194290161E0
1.059844971E0,6.716766357E-1,1.040924072E0,3.158081055E0
1.064880371E0,5.933837891E-1,1.003631592E0,3.095230103E0
1.069946289E0,5.077819824E-1,9.524993896E-1,3.002548218E0
1.075012207E0,4.190368652E-1,8.608856201E-1,2.860870361E0
1.080078125E0,3.303070068E-1,7.415771484E-1,2.657394409E0
1.085144043E0,1.945800781E-1,6.212005615E-1,2.352737427E0
1.090179443E0,5.630493164E-3,5.945739746E-1,1.973495483E0
1.095245361E0,-1.572265625E-1,7.660827637E-1,1.663513184E0
1.100280762E0,-3.409576416E-1,9.588928223E-1,1.307708740E0
1.105346680E0,-5.883789062E-1,1.060089111E0,9.593658447E-1
1.110412598E0,-7.992553711E-1,1.136795044E0,6.909179688E-1
1.115447998E0,-9.203643799E-1,1.063293457E0,5.045013428E-1
1.120513916E0,-9.965667725E-1,9.205474854E-1,3.660125732E-1
1.125579834E0,-1.064422607E0,8.086853027E-1,2.616271973E-1
1.130645752E0,-1.129150391E0,7.628784180E-1,1.923828125E-1
1.135711670E0,-1.179260254E0,7.511596680E-1,1.721343994E-1
1.140777588E0,-1.195968628E0,7.394409180E-1,1.955718994E-1
1.145812988E0,-1.193878174E0,7.096252441E-1,2.594909668E-1
1.150878906E0,-1.180313110E0,6.691436768E-1,3.532257080E-1
1.155944824E0,-1.173004150E0,6.201324463E-1,4.576263428E-1
1.160980225E0,-1.199096680E0,5.796508789E-1,5.449829102E-1
1.166046142E0,-1.281570435E0,6.009674072E-1,5.950469971E-1
1.171081543E0,-1.419372559E0,6.776580811E-1,6.110229492E-1
1.176147461E0,-1.592666626E0,7.469024658E-1,6.238098145E-1
1.181213379E0,-1.780578613E0,7.714080811E-1,6.589660645E-1
1.186279297E0,-1.892288208E0,6.606140137E-1,7.047729492E-1
1.191345215E0,-1.925689697E0,7.096252441E-1,7.505798340E-1
1.196411133E0,-2.021743774E0,8.161468506E-1,8.102264404E-1
1.201446533E0,-2.067672729E0,8.385162354E-1,8.784027100E-1
1.206512451E0,-2.021743774E0,9.162750244E-1,9.338073730E-1
1.211547851E0,-1.950744629E0,1.056900024E0,9.881286621E-1
1.216613769E0,-1.887069702E0,1.177276611E0,1.045654297E0
1.221679687E0,-1.818161011E0,1.241180420E0,1.081878662E0
1.226745605E0,-1.755523682E0,1.251846313E0,1.083999634E0
1.231781006E0,-1.710632324E0,1.218811035E0,1.047790527E0
1.236816406E0,-1.691848755E0,1.144241333E0,9.785461426E-1
1.241882324E0,-1.689758301E0,1.084594727E0,8.634948730E-1
1.246948242E0,-1.696029663E0,1.037719727E0,7.015686035E-1
1.251983642E0,-1.690795898E0,9.844512939E-1,5.108947754E-1
1.257049560E0,-1.694976807E0,9.226684570E-1,3.052978516E-1
1.262115478E0,-1.706466675E0,8.608856201E-1,1.050262451E-1
1.267181396E0,-1.723159790E0,7.767333984E-1,-6.861877441E-2
1.272247314E0,-1.748214722E0,6.851196289E-1,-2.166900635E-1
1.277313232E0,-1.775360107E0,5.807189941E-1,-3.370513916E-1
1.282348633E0,-1.795196533E0,4.560852051E-1,-4.254760742E-1
1.287414551E0,-1.779541016E0,3.580780029E-1,-4.819335938E-1
1.292449951E0,-1.726303101E0,2.920379639E-1,-5.128326416E-1
1.297515869E0,-1.618774414E0,2.014923096E-1,-5.053710938E-1
1.302551269E0,-1.448608398E0,7.258605957E-2,-4.489135742E-1
1.307617187E0,-1.247116089E0,-8.293151855E-2,-3.626251221E-1
1.312683105E0,-1.061294556E0,-2.469940186E-1,-2.678222656E-1
1.317749023E0,-9.182739258E-1,-4.131622314E-1,-1.730041504E-1
1.322784424E0,-8.347625732E-1,-5.410003662E-1,-9.843444824E-2
1.327850342E0,-8.138732910E-1,-6.187591553E-1,-4.197692871E-2
1.332916260E0,-8.170166016E-1,-6.890716553E-1,1.022338867E-2
1.337982178E0,-8.117828369E-1,-7.593841553E-1,5.708312988E-2
1.343048096E0,-7.888183594E-1,-7.689666748E-1,7.412719727E-2
1.348114014E0,-7.637634277E-1,-6.634979248E-1,6.454467773E-2
1.353179932E0,-7.606353760E-1,-3.663024902E-1,5.815124512E-2
1.358215332E0,-6.969604492E-1,5.530242920E-1,-3.985595703E-2
1.363281250E0,-5.455780029E-1,7.895202637E-1,-1.037597656E-1
1.368347168E0,-3.942108154E-1,2.622070312E-1,6.347656250E-2
1.373413086E0,-3.670654297E-1,-1.266174316E-1,2.360534668E-1
1.378448486E0,-4.453582764E-1,-2.139587402E-1,2.648162842E-1
1.383514404E0,-5.330505371E-1,-9.892272949E-2,1.561584473E-1
1.388549805E0,-5.883789062E-1,1.525878906E-4,-2.067565918E-2
1.393615723E0,-6.186523438E-1,-4.351806641E-2,-2.092285156E-1
1.398681641E0,-6.656341553E-1,-1.756134033E-1,-3.967132568E-1
1.403717041E0,-7.460174561E-1,-3.204956055E-1,-5.767364502E-1
1.408782959E0,-8.462371826E-1,-5.207672119E-1,-7.258758545E-1
1.413848877E0,-9.245300293E-1,-6.976013184E-1,-8.292083740E-1
1.418914795E0,-9.610748291E-1,-7.924041748E-1,-8.963165283E-1
1.423950195E0,-9.642028809E-1,-7.774810791E-1,-9.240264893E-1
1.428985596E0,-9.318389893E-1,-6.240844727E-1,-9.144287109E-1
1.434051514E0,-8.723449707E-1,-3.503112793E-1,-8.728790283E-1
1.439117432E0,-8.107452393E-1,-3.393554688E-2,-8.047027588E-1
1.444183350E0,-7.804718018E-1,2.579498291E-1,-7.322692871E-1
1.449249267E0,-7.877807617E-1,5.572814941E-1,-6.811370850E-1
1.454315185E0,-8.201446533E-1,8.747406006E-1,-6.523742676E-1
1.459381103E0,-8.890380859E-1,1.134658813E0,-6.470489502E-1
1.464447021E0,-1.012222290E0,1.296585083E0,-6.662292480E-1
1.469482422E0,-1.174041748E0,1.379669189E0,-7.077636719E-1
1.474517822E0,-1.314971924E0,1.446777344E0,-7.866058350E-1
1.479583740E0,-1.414154053E0,1.512832642E0,-9.101715088E-1
1.484649658E0,-1.497665405E0,1.432937622E0,-1.050781250E0
1.489715576E0,-1.531082153E0,1.212432861E0,-1.165832520E0
1.494781494E0,-1.526901245E0,1.111221313E0,-1.258514404E0
1.499816894E0,-1.449645996E0,1.061157227E0,-1.308578491E0
1.504852295E0,-1.279479980E0,1.018554688E0,-1.297927856E0
1.509918213E0,-1.076950073E0,1.114425659E0,-1.245727539E0
1.514984131E0,-8.608551025E-1,1.309371948E0,-1.174362183E0
1.520050049E0,-6.437072754E-1,1.504302979E0,-1.085937500E0
1.525115967E0,-4.119567871E-1,1.690734863E0,-9.985809326E-1
1.530151367E0,-1.728820801E-1,1.851577759E0,-9.400024414E-1
1.535217285E0,4.425048828E-2,1.927215576E0,-9.293518066E-1
1.540252685E0,2.071075439E-1,1.894195557E0,-9.826049805E-1
1.545318603E0,2.875061035E-1,1.742919922E0,-1.109375000E0
1.550384521E0,3.031616211E-1,1.489395142E0,-1.272354126E0
1.555419922E0,2.895812988E-1,1.187927246E0,-1.431091309E0
1.560485840E0,2.394714355E-1,8.640899658E-1,-1.541870117E0
1.565551758E0,1.423950195E-1,5.391845703E-1,-1.587677002E0
1.570587158E0,3.277587891E-2,2.984313965E-1,-1.557846069E0
1.575653076E0,-7.266235352E-2,1.620788574E-1,-1.455581665E0
1.580718994E0,-1.551361084E-1,1.205291748E-1,-1.284072876E0
1.585784912E0,-1.885528564E-1,1.855163574E-1,-1.051849365E0
1.590820312E0,-1.499176025E-1,3.197326660E-1,-7.919311523E-1
1.595886230E0,-8.206176758E-2,4.486236572E-1,-5.426483154E-1
1.600952148E0,1.084899902E-2,6.148071289E-1,-3.221435547E-1
1.606018066E0,1.298675537E-1,8.182830811E-1,-1.474456787E-1
1.611083984E0,2.248687744E-1,1.005767822E0,-4.623413086E-2
1.616149902E0,2.739257812E-1,1.135726929E0,-1.428222656E-2
1.621215820E0,2.728881836E-1,1.206039429E0,-5.583190918E-2
1.626251221E0,2.102508545E-1,1.166625977E0,-1.453094482E-1
1.631317139E0,1.027221680E-1,1.026000977E0,-2.667541504E-1
1.636383057E0,-4.551696777E-2,8.353271484E-1,-4.137573242E-1
1.641448975E0,-2.386627197E-1,5.775299072E-1,-5.799407959E-1
1.646484375E0,-4.484863281E-1,3.122711182E-1,-7.588958740E-1
1.651519775E0,-5.737609863E-1,9.390258789E-2,-9.527740479E-1
1.656585693E0,-6.395416260E-1,-2.097015381E-1,-1.109375000E0
1.661651611E0,-6.426696777E-1,-5.356750488E-1,-1.199920654E0
1.666687012E0,-5.727233887E-1,-7.860107422E-1,-1.205245972E0
1.671752930E0,-4.557952881E-1,-9.159698486E-1,-1.129608154E0
1.676818848E0,-2.929382324E-1,-9.042510986E-1,-9.847412109E-1
1.681884766E0,-8.624267578E-2,-7.657775879E-1,-7.834014893E-1
1.686950684E0,1.476135254E-1,-5.463256836E-1,-5.352020264E-1
1.691986084E0,3.866729736E-1,-2.874603271E-1,-2.614288330E-1
1.697052002E0,5.871124268E-1,1.220703125E-3,2.513122559E-2
1.702117920E0,7.374420166E-1,3.208007812E-1,2.999725342E-1
1.707183838E0,8.387145996E-1,6.467742920E-1,5.407257080E-1
1.712249756E0,8.867340088E-1,9.801940918E-1,7.303314209E-1
1.717285156E0,8.825531006E-1,1.286987305E0,8.656311035E-1
1.722351074E0,8.449707031E-1,1.541595459E0,9.412536621E-1
1.727416992E0,8.094787598E-1,1.718429565E0,9.433898926E-1
1.732452392E0,8.199157715E-1,1.781280518E0,8.901214600E-1
1.737518310E0,9.034423828E-1,1.764236450E0,8.006439209E-1
1.742584228E0,1.044372559E0,1.710968018E0,7.037048340E-1
1.747619629E0,1.218704224E0,1.648117065E0,6.056976318E-1
1.752685547E0,1.398269653E0,1.579940796E0,5.119628906E-1
1.757751465E0,1.567398071E0,1.513900757E0,4.267425537E-1
1.762786865E0,1.713546753E0,1.427612305E0,3.628234863E-1
1.767822266E0,1.845092773E0,1.289123535E0,3.361816406E-1
1.772918701E0,1.966186523E0,1.100570679E0,3.436431885E-1
1.777954101E0,2.068496704E0,8.981781006E-1,3.766632080E-1
1.783020019E0,2.148880005E0,7.223968506E-1,4.277954102E-1
1.788085937E0,2.194808960E0,6.148071289E-1,4.863891602E-1
1.793121338E0,2.224044800E0,5.998992920E-1,5.428466797E-1
1.798187256E0,2.241790771E0,6.776580811E-1,6.078338623E-1
1.803253174E0,2.239700317E0,7.873840332E-1,6.930541992E-1
1.808319092E0,2.207336426E0,8.683471680E-1,7.814636230E-1
1.813385010E0,2.156188965E0,9.098968506E-1,8.475189209E-1
1.818450928E0,2.101898193E0,9.216156006E-1,8.656311035E-1
1.823486328E0,2.046569824E0,8.758087158E-1,8.294067383E-1
1.828552246E0,1.998550415E0,7.554321289E-1,7.473754883E-1
1.833587646E0,1.966186523E0,5.540924072E-1,6.472473145E-1
1.838653564E0,1.947387695E0,2.813873291E-1,5.481719971E-1
1.843719482E0,1.924423218E0,-1.263427734E-2,4.618835449E-1
1.848785400E0,1.884750366E0,-2.586975098E-1,3.798675537E-1
1.853820801E0,1.843002319E0,-4.312744141E-1,3.042297363E-1
1.858886719E0,1.824203491E0,-5.218200684E-1,2.530975342E-1
1.863952637E0,1.843002319E0,-5.473937988E-1,2.371215820E-1
1.868988037E0,1.887893677E0,-5.346069336E-1,2.594909668E-1
1.874053955E0,1.938003540E0,-4.493865967E-1,3.127593994E-1
1.879119873E0,1.973495483E0,-2.746887207E-1,3.958435059E-1
1.884155273E0,1.990203857E0,-3.393554688E-2,5.108947754E-1
1.889221191E0,1.993331909E0,2.558135986E-1,6.440429688E-1
1.894287109E0,1.988113403E0,5.679473877E-1,7.654876709E-1
1.899353027E0,1.971405029E0,8.449096680E-1,8.677520752E-1
1.904418945E0,1.952621460E0,1.031326294E0,9.369964600E-1
1.909454346E0,1.942169189E0,1.111221313E0,9.572448730E-1
1.914520264E0,1.949478149E0,1.087783813E0,9.082336426E-1
1.919555664E0,1.965148926E0,1.011093140E0,8.038330078E-1
1.924591064E0,1.976623535E0,8.758087158E-1,6.600341797E-1
1.929656982E0,1.974533081E0,6.712646484E-1,5.023651123E-1
1.934722900E0,1.959915161E0,4.401092529E-1,3.457794189E-1
1.939788818E0,1.947387695E0,1.972351074E-1,2.019653320E-1
1.944824219E0,1.943222046E0,-3.926086426E-2,7.733154297E-2
1.949890137E0,1.951568604E0,-2.320709229E-1,-2.919006348E-2
1.954956055E0,1.988113403E0,-3.567047119E-1,-1.101531982E-1
1.960021973E0,2.048660278E0,-4.206237793E-1,-1.527709961E-1
1.965087891E0,2.118606567E0,-4.142303467E-1,-1.485137939E-1
1.970153809E0,2.179153442E0,-3.130340576E-1,-1.080322266E-1
1.975219726E0,2.228225708E0,-1.425933838E-1,-3.665161133E-2
1.980255127E0,2.247009277E0,3.744506836E-2,4.750061035E-2
1.985321045E0,2.212554932E0,1.844482422E-1,9.970092773E-2
1.990386963E0,2.122772217E0,2.984313965E-1,9.117126465E-2
1.995422363E0,1.942169189E0,3.964385986E-1,7.019042969E-3
2.000457764E0,1.545471191E0,4.891052246E-1,-1.623535156E-1
2.005523682E0,9.692077637E-1,3.996276855E-1,-3.871307373E-1
2.010589600E0,3.689270020E-1,1.397094727E-1,-6.353302002E-1
2.015655517E0,-9.562683105E-2,-2.224884033E-1,-8.430633545E-1
2.020721435E0,-2.543182373E-1,-5.740203857E-1,-9.474487305E-1
2.025787353E0,-9.249877930E-2,-7.732238770E-1,-9.698181152E-1
2.030822754E0,2.112884521E-1,-8.073120117E-1,-9.676971436E-1
2.035888672E0,5.130004883E-1,-7.838745117E-1,-9.442596436E-1
2.040924072E0,7.280578613E-1,-7.274169922E-1,-8.952636719E-1
2.045989990E0,8.439331055E-1,-6.539154053E-1,-8.483886719E-1
2.051055908E0,8.929901123E-1,-5.974578857E-1,-8.015136719E-1
2.056121826E0,9.222259521E-1,-5.505828857E-1,-7.290802002E-1
2.061187744E0,9.639892578E-1,-4.642944336E-1,-6.481170654E-1
2.066253662E0,1.021408081E0,-3.279418945E-1,-5.788726807E-1
2.071289062E0,1.105957031E0,-1.564331055E-1,-4.883270264E-1
2.076354980E0,1.177993774E0,6.086730957E-2,-4.095001221E-1
2.081390381E0,1.209320068E0,2.217254639E-1,-3.604888916E-1
2.086425781E0,1.276123047E0,2.334442139E-1,-2.678222656E-1
2.091491699E0,1.318923950E0,2.068176270E-1,-1.399841309E-1
2.096557617E0,1.243759155E0,2.419738770E-1,-5.795288086E-2
2.101623535E0,1.135192871E0,4.465026855E-1,-2.493286133E-2
2.106689453E0,1.040191650E0,6.318511963E-1,-3.878784180E-2
2.111724853E0,9.556274414E-1,6.723327637E-1,-9.310913086E-2
2.116760254E0,9.128265381E-1,6.350555420E-1,-1.261291504E-1
2.121826172E0,9.107360840E-1,5.988311768E-1,-1.335906982E-1
2.126892090E0,9.086608887E-1,5.722045898E-1,-1.325225830E-1
2.131958008E0,8.710784912E-1,5.604858398E-1,-1.357269287E-1
2.137023926E0,8.032226562E-1,5.562286377E-1,-1.506347656E-1
2.142089844E0,7.322235107E-1,5.668792725E-1,-1.911163330E-1
2.147125244E0,6.706390381E-1,5.849914551E-1,-2.592926025E-1
2.152191162E0,6.246948242E-1,6.009674072E-1,-3.317260742E-1
2.157257080E0,5.912933350E-1,6.180114746E-1,-3.903198242E-1
2.162322998E0,5.474395752E-1,6.265258789E-1,-4.521026611E-1
2.167388916E0,4.785461426E-1,6.233367920E-1,-5.224151611E-1
2.172424316E0,4.044189453E-1,6.318511963E-1,-5.969848633E-1
2.177459717E0,3.428344727E-1,6.606140137E-1,-6.875305176E-1
2.182525635E0,2.937622070E-1,7.042999268E-1,-8.015136719E-1
2.187591553E0,2.572174072E-1,7.010955811E-1,-9.112396240E-1
2.192657471E0,2.415618896E-1,5.966949463E-1,-9.794158936E-1
2.197723389E0,2.499237061E-1,4.869842529E-1,-1.007110596E0
2.202758789E0,2.467803955E-1,4.134826660E-1,-1.046524048E0
2.207794189E0,2.039794922E-1,4.198760986E-1,-1.099792480E0
2.212860107E0,1.413421631E-1,5.146789551E-1,-1.163696289E0
2.217895508E0,9.332275391E-2,5.828552246E-1,-1.205245972E0
2.222961426E0,9.436035156E-2,5.072174072E-1,-1.157318115E0
2.228027344E0,1.486511230E-1,3.421020508E-1,-1.016693115E0
2.233093262E0,2.165069580E-1,2.014923096E-1,-8.845977783E-1
2.238159180E0,2.645263672E-1,1.056213379E-1,-8.228149414E-1
2.243225098E0,2.937622070E-1,2.891540527E-2,-8.313446045E-1
2.248291016E0,3.219451904E-1,-7.228088379E-2,-8.760833740E-1
2.253326416E0,3.584899902E-1,-2.097015381E-1,-9.240264893E-1
2.258392334E0,4.023284912E-1,-3.151702881E-1,-9.581146240E-1
2.263458252E0,4.681091309E-1,-3.236846924E-1,-9.762115479E-1
2.268524170E0,5.495300293E-1,-2.406005859E-1,-9.687652588E-1
2.273559570E0,6.299133301E-1,-2.395324707E-1,-9.304046631E-1
2.278625488E0,6.789855957E-1,-1.319427490E-1,-8.739471436E-1
2.283691406E0,6.748046875E-1,2.040100098E-2,-8.015136719E-1
2.288726807E0,6.226043701E-1,1.684722900E-1,-7.333374023E-1
2.293792725E0,5.432739258E-1,2.941741943E-1,-6.864624023E-1
2.298858642E0,4.138183594E-1,3.943023682E-1,-6.609039307E-1
2.303924560E0,2.499237061E-1,4.795227051E-1,-6.747436523E-1
2.308959961E0,1.037597656E-1,5.445098877E-1,-7.621002197E-1
2.314025879E0,1.449584961E-3,5.402374268E-1,-9.176330566E-1
2.319091797E0,-5.596923828E-2,4.390411377E-1,-1.114700317E0
2.324157715E0,-7.893371582E-2,2.920379639E-1,-1.293670654E0
2.329223633E0,-8.415222168E-2,1.439666748E-1,-1.441741943E0
2.334259033E0,-6.953430176E-2,2.572631836E-2,-1.573837280E0
2.339324951E0,-2.673339844E-2,-7.548522949E-2,-1.699539185E0
2.344390869E0,4.634094238E-2,-2.086334229E-1,-1.800735474E0
2.349426269E0,1.246490479E-1,-3.588409424E-1,-1.864654541E0
2.354461670E0,1.841430664E-1,-4.706878662E-1,-1.897674561E0
2.359527588E0,2.248687744E-1,-5.750885010E-1,-1.897674561E0
2.364593506E0,2.875061035E-1,-7.242279053E-1,-1.850799561E0
2.369659424E0,3.595275879E-1,-8.371429443E-1,-1.780487061E0
2.374725342E0,4.117279053E-1,-8.254241943E-1,-1.702728271E0
2.379760742E0,4.305267334E-1,-7.327423096E-1,-1.594070435E0
2.384796142E0,4.263458252E-1,-6.113128662E-1,-1.459854126E0
2.389862060E0,4.085998535E-1,-4.312744141E-1,-1.327758789E0
2.394927978E0,3.908538818E-1,-2.033081055E-1,-1.180740356E0
2.399993896E0,3.626708984E-1,1.719665527E-2,-1.030548096E0
2.405059814E0,3.637084961E-1,1.780548096E-1,-9.005889893E-1
2.410125732E0,4.127807617E-1,2.717895508E-1,-8.292083740E-1
2.415191650E0,4.524383545E-1,3.389129639E-1,-8.345336914E-1
2.420257568E0,4.399108887E-1,3.943023682E-1,-9.687652588E-1
2.425292969E0,3.292541504E-1,4.156036377E-1,-1.246795654E0
2.430328369E0,1.298675537E-1,3.346405029E-1,-1.666503906E0
2.435394287E0,-1.593170166E-1,1.120147705E-1,-2.295013428E0
2.440460205E0,-4.119567871E-1,-1.617584229E-1,-3.185577393E0
2.445526123E0,-4.599761963E-1,-5.686950684E-1,-3.988784790E0
2.450561523E0,-3.430480957E-1,-1.006515503E0,-3.948303223E0
2.455627441E0,2.833251953E-1,-7.711029053E-1,-2.946960449E0
2.460693359E0,1.012008667E0,-1.361999512E-1,-1.325622559E0
2.465759277E0,7.082214355E-1,3.744506836E-2,2.087402344E-2
2.470794678E0,4.425048828E-2,3.303833008E-1,8.905029297E-2
2.475860596E0,-2.261352539E-1,9.801940918E-1,-2.401123047E-1
2.480926514E0,-3.973388672E-1,1.266754150E0,-3.253479004E-1
2.485961914E0,-4.171752930E-1,1.092056274E0,-2.976379395E-1
2.491027832E0,-3.952484131E-1,9.322662354E-1,-2.582244873E-1
2.496093750E0,-3.555755615E-1,8.438415527E-1,-2.518310547E-1
2.501159668E0,-3.357391357E-1,7.373199463E-1,-2.507781982E-1
2.506195068E0,-3.628845215E-1,6.627502441E-1,-2.177429199E-1
2.511260986E0,-4.286499023E-1,6.776580811E-1,-1.804656982E-1
2.516326904E0,-4.672851562E-1,8.129577637E-1,-1.985778809E-1
2.521362305E0,-4.662322998E-1,1.006835938E0,-2.710113525E-1
2.526428223E0,-4.766845703E-1,1.274215698E0,-3.583679199E-1
2.531463623E0,-4.954681396E-1,1.462768555E0,-4.521026611E-1
2.536529541E0,-5.288696289E-1,1.415893555E0,-5.352020264E-1
2.541595459E0,-5.716857910E-1,1.230529785E0,-6.310729980E-1
2.546661377E0,-6.050872803E-1,1.136795044E0,-7.738189697E-1
2.551727295E0,-6.228332520E-1,9.684753418E-1,-9.112396240E-1
2.556793213E0,-6.009063721E-1,7.745971680E-1,-9.687652588E-1
2.561828613E0,-5.716857910E-1,5.860443115E-1,-9.868774414E-1
2.566894531E0,-5.487060547E-1,3.346405029E-1,-9.922027588E-1
2.571929932E0,-4.693756104E-1,1.556854248E-1,-9.559783936E-1
2.576995850E0,-2.543182373E-1,1.865692139E-1,-8.845977783E-1
2.582061767E0,-7.057189941E-2,2.387695312E-1,-7.716827393E-1
2.587127685E0,5.630493164E-3,2.611389160E-1,-5.820617676E-1
2.592163086E0,8.497619629E-2,2.696685791E-1,-3.306732178E-1
2.597229004E0,1.851959229E-1,3.314514160E-1,-5.795288086E-2
2.602294922E0,2.749786377E-1,4.092102051E-1,1.742706299E-1
2.607360840E0,3.449096680E-1,4.411773682E-1,3.052978516E-1
2.612426758E0,3.908538818E-1,3.825836182E-1,3.596191406E-1
2.617462158E0,4.357452393E-1,2.185363770E-1,3.969116211E-1
2.622528076E0,4.764556885E-1,9.735107422E-3,4.043579102E-1
2.627563476E0,5.161285400E-1,-2.139587402E-1,3.542938232E-1
2.632629394E0,5.662384033E-1,-4.121093750E-1,2.733306885E-1
2.637695312E0,6.152954102E-1,-5.441894531E-1,2.094268799E-1
2.642761230E0,6.706390381E-1,-6.240844727E-1,1.604156494E-1
2.647796631E0,7.290954590E-1,-6.464538574E-1,1.668090820E-1
2.652832031E0,7.802429199E-1,-6.155700684E-1,2.030334473E-1
2.657897949E0,7.896423340E-1,-5.420684814E-1,2.403106689E-1
2.662963867E0,7.677154541E-1,-4.121093750E-1,2.871856689E-1
2.668029785E0,7.259674072E-1,-2.427215576E-1,3.244781494E-1
2.673095703E0,6.685485840E-1,-9.252929688E-2,3.425750732E-1
2.678161621E0,6.111297607E-1,1.507568359E-2,3.138122559E-1
2.683197021E0,4.952545166E-1,6.939697266E-2,2.509613037E-1
2.688262939E0,3.365631104E-1,1.492919922E-1,1.689453125E-1
2.693328857E0,1.569976807E-1,1.833801270E-1,8.479309082E-2
2.698394775E0,-1.733398438E-2,1.801910400E-1,2.761840820E-3
2.703430176E0,-1.770629883E-1,1.737976074E-1,-7.713317871E-2
2.708465576E0,-3.117370605E-1,1.002960205E-1,-1.442413330E-1
2.713531494E0,-4.109039307E-1,-2.540588379E-2,-1.889801025E-1
2.718597412E0,-4.537048340E-1,-1.372680664E-1,-1.879272461E-1
2.723663330E0,-4.223937988E-1,-1.809387207E-1,-1.485137939E-1
2.728729248E0,-3.681030273E-1,-1.702880859E-1,-1.154785156E-1
2.733795166E0,-3.232116699E-1,-1.500549316E-1,-9.738159180E-2
2.738830566E0,-2.647552490E-1,-1.617584229E-1,-9.843444824E-2
2.743896484E0,-1.801910400E-1,-2.160949707E-1,-9.738159180E-2
2.748931885E0,-7.788085938E-2,-2.278137207E-1,-7.606506348E-2
2.753967285E0,-2.360534668E-2,-1.969146729E-1,-3.985595703E-2
2.759033203E0,-2.464294434E-2,-1.489868164E-1,-1.535034180E-2
2.764099121E0,-4.135131836E-2,-1.021118164E-1,-1.109313965E-2
2.769165039E0,-5.596923828E-2,-8.720397949E-2,-2.563476562E-3
2.774230957E0,-8.102416992E-2,-1.095733643E-1,4.898071289E-3
2.779296875E0,-9.458923340E-2,-1.553802490E-1,1.448059082E-2
2.784362793E0,-9.877014160E-2,-2.395324707E-1,4.750061035E-2
2.789428711E0,-1.018981934E-1,-2.448577881E-1,1.124877930E-1
2.794464111E0,-7.475280762E-2,-2.650909424E-1,1.859893799E-1
2.799530029E0,-2.986145020E-2,-3.907928467E-1,2.392425537E-1
2.804565430E0,-1.211547852E-2,-5.143737793E-1,2.573547363E-1
2.809631348E0,-2.716064453E-3,-6.251525879E-1,2.594909668E-1
2.814697266E0,1.815795898E-2,-7.412719727E-1,2.839965820E-1
2.819763184E0,4.530334473E-2,-8.531188965E-1,2.935791016E-1
2.824798584E0,6.930541992E-2,-9.266204834E-1,2.722778320E-1
2.829833984E0,1.016693115E-1,-9.426116943E-1,2.275390625E-1
2.834899902E0,1.235961914E-1,-9.404754639E-1,2.019653320E-1
2.839965820E0,1.716156006E-1,-9.820251465E-1,2.701416016E-1
2.845031738E0,2.238159180E-1,-1.110916138E0,3.873138428E-1
2.850097656E0,2.332153320E-1,-1.219573975E0,4.597625732E-1
2.855163574E0,1.757965088E-1,-1.221710205E0,5.886535645E-1
2.860198975E0,9.750366211E-2,-1.166305542E0,7.729492188E-1
2.865264892E0,1.190185547E-2,-1.098129272E0,8.869323730E-1
2.870330810E0,-8.206176758E-2,-9.713592529E-1,9.615020752E-1
2.875396728E0,-1.467895508E-1,-8.541870117E-1,8.997192383E-1
2.880432129E0,-1.895904541E-1,-8.403320312E-1,7.218170166E-1
2.885467529E0,-2.229919434E-1,-9.234313965E-1,4.533691406E-1
2.890533447E0,-2.083740234E-1,-9.639129639E-1,2.211456299E-1
2.895599365E0,-1.415710449E-1,-1.068298340E0,1.156768799E-1
2.900665283E0,-1.603546143E-1,-1.214248657E0,-5.262756348E-2
2.905731201E0,-2.605743408E-1,-1.155654907E0,-5.157470703E-2
2.910766601E0,-4.328308105E-1,-9.149017334E-1,4.963684082E-2
2.915832519E0,-4.975585938E-1,-7.082519531E-1,-1.548919678E-1
2.920898437E0,-4.223937988E-1,-5.868072510E-1,-4.734191895E-1
2.925933838E0,-3.441009521E-1,-4.792175293E-1,-5.319976807E-1
2.930999756E0,-3.096466064E-1,-2.736206055E-1,-2.944488525E-1
2.936065674E0,-2.825012207E-1,-1.368713379E-2,-2.028350830E-1
2.941131592E0,-2.219543457E-1,2.622070312E-1,-4.062957764E-1
2.946166992E0,-1.269531250E-1,4.145355225E-1,-6.609039307E-1
2.951232910E0,-1.002502441E-2,3.410339355E-1,-8.867340088E-1
2.956298828E0,9.854125977E-2,1.610107422E-1,-1.064636230E0
2.961364746E0,1.361236572E-1,1.612854004E-2,-1.218032837E0
2.966430664E0,9.854125977E-2,-1.042480469E-1,-1.330947876E0
2.971466064E0,1.350860596E-1,-1.031799316E-1,-1.391677856E0
2.976501465E0,1.162872314E-1,-1.372680664E-1,-1.554656982E0
2.981567383E0,5.886840820E-2,-3.322143555E-1,-1.832687378E0
2.986633301E0,3.486633301E-2,-6.432647705E-1,-2.052139282E0
2.991699219E0,7.244873047E-2,-7.593841553E-1,-2.179962158E0
2.996765137E0,2.024841309E-2,-7.732238770E-1,-2.240692139E0
3.001800537E0,-6.408691406E-4,-6.880035400E-1,-2.270507812E0
3.006835937E0,-5.700683594E-2,-5.346069336E-1,-2.247070312E0
3.011901855E0,-1.629638672E-2,-2.938537598E-1,-2.226837158E0
3.016967773E0,1.403045654E-1,-8.825683594E-2,-2.220443726E0
3.022033691E0,3.303070068E-1,-7.548522949E-2,-2.148010254E0
3.027099609E0,5.098571777E-1,-1.862640381E-1,-2.061721802E0
3.032165527E0,6.330566406E-1,-1.830749512E-1,-2.046813965E0
3.037200928E0,6.842041016E-1,-9.252929688E-2,-2.058532715E0
3.042266846E0,7.322235107E-1,-4.139709473E-2,-2.047866821E0
3.047332764E0,7.792053223E-1,-1.795959473E-2,-2.050003052E0
3.052398682E0,7.468414307E-1,3.356933594E-3,-2.047866821E0
3.057434082E0,5.965118408E-1,1.002960205E-1,-2.019104004E0
3.062500000E0,4.242553711E-1,2.366485596E-1,-2.021240234E0
3.067565918E0,2.530517578E-1,3.527526855E-1,-2.051071167E0
3.072601318E0,6.513977051E-2,4.070892334E-1,-2.103271484E0
3.077667236E0,-1.405181885E-1,3.793945312E-1,-2.156524658E0
3.082733154E0,-3.482666016E-1,3.516845703E-1,-2.214050293E0
3.087768555E0,-5.560150146E-1,2.664642334E-1,-2.285430908E0
3.092834473E0,-7.147064209E-1,2.153320312E-1,-2.347213745E0
3.097900391E0,-7.710723877E-1,3.282623291E-1,-2.364257812E0
3.102966309E0,-7.272338867E-1,6.041564941E-1,-2.373840332E0
3.108001709E0,-6.165618896E-1,8.086853027E-1,-2.243881226E0
3.113067627E0,-4.860687256E-1,6.606140137E-1,-2.012725830E0
3.118133545E0,-2.804107666E-1,4.198760986E-1,-1.684616089E0
3.123199463E0,3.381347656E-2,4.326477051E-1,-1.231887817E0
3.128265381E0,3.793640137E-1,5.274658203E-1,-8.015136719E-1
3.133331299E0,6.685485840E-1,5.594177246E-1,-5.607604980E-1
3.138366699E0,8.543701172E-1,6.105499268E-1,-5.256042480E-1
3.143432617E0,9.222259521E-1,7.074890137E-1,-5.863342285E-1
3.148468017E0,9.357910156E-1,8.225402832E-1,-6.406555176E-1
3.153533935E0,9.462432861E-1,8.374481201E-1,-6.289367676E-1
3.158569336E0,9.076080322E-1,7.937774658E-1,-5.032348633E-1
3.163635254E0,7.938232422E-1,8.300018311E-1,-3.562316895E-1
3.168701172E0,6.779327393E-1,9.141540527E-1,-2.720794678E-1
3.173767090E0,5.933837891E-1,9.035034180E-1,-2.198791504E-1
3.178802490E0,5.286560059E-1,8.161468506E-1,-1.868591309E-1
3.183868408E0,4.618377686E-1,7.202758789E-1,-1.559600830E-1
3.188934326E0,3.814544678E-1,6.648864746E-1,-1.335906982E-1
3.193969726E0,2.624511719E-1,6.084136963E-1,-1.282653809E-1
3.199035644E0,1.006317139E-1,5.349121094E-1,-1.069641113E-1
3.204101562E0,-5.387878418E-2,4.869842529E-1,-5.902099609E-2
3.209167480E0,-1.875000000E-1,4.475708008E-1,4.898071289E-3
3.214202881E0,-3.054656982E-1,4.113464355E-1,6.880187988E-2
3.219268799E0,-4.015197754E-1,3.996276855E-1,1.444396973E-1
3.224334717E0,-4.464111328E-1,3.985595703E-1,2.030334473E-1
3.229400635E0,-4.150848389E-1,4.134826660E-1,2.264709473E-1
3.234436035E0,-3.054656982E-1,4.006958008E-1,2.168731689E-1
3.239501953E0,-1.572265625E-1,3.655395508E-1,1.785278320E-1
3.244537353E0,-6.408691406E-4,3.357086182E-1,1.284637451E-1
3.249603271E0,1.256866455E-1,2.962951660E-1,8.584594727E-2
3.254669189E0,2.018890381E-1,2.462310791E-1,6.986999512E-2
3.259735107E0,2.206878662E-1,1.812438965E-1,8.905029297E-2
3.264801025E0,1.893615723E-1,1.077423096E-1,1.220703125E-1
3.269836426E0,1.183776855E-1,2.784729004E-2,1.572265625E-1
3.274902344E0,4.112243652E-2,-3.500366211E-2,1.902465820E-1
3.279937744E0,-2.360534668E-2,-8.186340332E-2,1.945037842E-1
3.284973144E0,-6.849670410E-2,-1.010437012E-1,1.817321777E-1
3.290039062E0,-8.518981934E-2,-1.042480469E-1,1.646881104E-1
3.295104980E0,-9.040832520E-2,-1.468505859E-1,1.625518799E-1
3.300170898E0,-6.640625000E-2,-1.234130859E-1,1.519012451E-1
3.305236816E0,-3.298950195E-2,-9.678649902E-2,1.199340820E-1
3.310302734E0,-1.002502441E-2,-8.399963379E-2,7.945251465E-2
3.315368652E0,2.502441406E-3,-6.056213379E-2,5.496215820E-2
3.320404053E0,-4.656982422E-2,-8.825683594E-2,6.880187988E-2
3.325469971E0,-2.939910889E-1,-3.045043945E-1,8.691406250E-2
3.330535889E0,-7.136535645E-1,-5.527191162E-1,-2.174377441E-2
3.335571289E0,-9.026184082E-1,-3.876037598E-1,-2.039031982E-1
3.340637207E0,-6.990356445E-1,1.365051270E-1,-4.031066895E-1
3.345703125E0,-2.428283691E-1,5.700683594E-1,-6.012420654E-1
3.350769043E0,2.645263672E-1,8.513031006E-1,-6.768798828E-1
3.355804443E0,6.894226074E-1,1.093109131E0,-5.778045654E-1
3.360870361E0,9.159698486E-1,1.392456055E0,-3.572998047E-1
3.365936279E0,1.001571655E0,1.637466431E0,-5.583190918E-2
3.371002197E0,1.172775269E0,1.697128296E0,3.617553711E-1
3.376068115E0,1.552780151E0,1.794067383E0,9.103698730E-1
3.381103516E0,2.214645386E0,2.132812500E0,1.572967529E0
3.386169434E0,2.901580811E0,2.363983154E0,2.078964233E0
3.391204834E0,3.004928589E0,2.116836548E0,1.995864868E0
3.396270752E0,2.235534668E0,1.708831787E0,1.538879395E0
3.401336670E0,1.361740112E0,1.781280518E0,1.275756836E0
3.406372070E0,9.921722412E-1,1.669418335E0,1.264038086E0
3.411437988E0,1.173828125E0,1.219879150E0,1.276809692E0
3.416473389E0,1.769927979E0,1.012161255E0,1.235275269E0
3.421539307E0,1.799148560E0,1.524810791E-1,1.045654297E0
3.426605225E0,1.366958618E0,-2.182312012E-1,6.770782471E-1
3.431671142E0,1.012008667E0,4.465026855E-1,2.115478516E-1
3.436706543E0,6.518402100E-1,2.909698486E-1,-3.551635742E-1
3.441772461E0,2.968902588E-1,9.176635742E-2,-7.525177002E-1
3.446838379E0,-1.420593262E-2,3.239898682E-1,-8.004455566E-1
3.451904297E0,-1.697540283E-1,4.965667725E-1,-7.674255371E-1
3.456970215E0,-8.309936523E-2,5.796508789E-1,-8.345336914E-1
3.462036133E0,1.288146973E-1,6.073608398E-1,-9.389343262E-1
3.467071533E0,3.323822021E-1,6.116180420E-1,-9.911346436E-1
3.472137451E0,5.443115234E-1,7.309265137E-1,-9.421234131E-1
3.477203369E0,7.896423340E-1,9.269409180E-1,-8.110961914E-1
3.482269287E0,9.911346436E-1,1.036651611E0,-6.992492676E-1
3.487304687E0,1.022445679E0,9.706115723E-1,-6.513061523E-1
3.492370605E0,7.718963623E-1,7.106933594E-1,-5.831298828E-1
3.497406006E0,2.290344238E-1,3.282623291E-1,-4.329376221E-1
3.502471924E0,-4.401397705E-1,1.507568359E-2,-3.210754395E-1
3.507537842E0,-1.104095459E0,-2.874603271E-1,-3.008422852E-1
3.512603760E0,-1.715850830E0,-5.250244141E-1,-2.070922852E-1
3.517669678E0,-2.039489746E0,-2.693634033E-1,-4.518127441E-2
3.522705078E0,-1.942398071E0,5.767822266E-2,1.305999756E-1
3.527770996E0,-1.398498535E0,3.421020508E-1,2.190093994E-1
3.532806396E0,-6.019592285E-1,5.455627441E-1,2.285919189E-1
3.537872314E0,-4.829406738E-1,-4.419250488E-1,2.957153320E-1
3.542938232E0,-8.900909424E-1,-1.281356812E0,4.150238037E-1
3.548004150E0,-1.152114868E0,-7.561798096E-1,3.766632080E-1
3.553039551E0,-1.223114014E0,-8.825683594E-2,2.392425537E-1
3.558105469E0,-1.182388306E0,-6.695556641E-2,1.316528320E-1
3.563171387E0,-9.955291748E-1,-1.830749512E-1,6.240844727E-2
3.568206787E0,-6.572875977E-1,-9.892272949E-2,3.152465820E-2
3.573272705E0,-2.219543457E-1,1.641998291E-1,2.406311035E-2
3.578338623E0,2.206878662E-1,4.859161377E-1,3.366088867E-2
3.583374023E0,5.724945068E-1,6.393127441E-1,4.643249512E-2
3.588439941E0,7.311859131E-1,6.254577637E-1,4.963684082E-2
3.593505859E0,7.071685791E-1,5.764617920E-1,4.431152344E-2
3.598571777E0,5.714569092E-1,5.104217529E-1,4.110717773E-2
3.603607178E0,3.825073242E-1,4.582214355E-1,3.791809082E-2
3.608673096E0,2.008514404E-1,4.124145508E-1,4.856872559E-2
3.613739014E0,7.557678223E-2,3.666076660E-1,6.135559082E-2
3.618774414E0,3.277587891E-2,3.410339355E-1,6.028747559E-2
3.623840332E0,5.574035645E-2,3.484954834E-1,5.603027344E-2
3.628906250E0,1.068878174E-1,3.602142334E-1,4.856872559E-2
3.633941650E0,1.538696289E-1,3.527526855E-1,4.750061035E-2
3.639007568E0,1.716156006E-1,3.165435791E-1,5.175781250E-2
3.644073486E0,1.517791748E-1,2.526245117E-1,5.603027344E-2
3.649139404E0,1.048126221E-1,1.823120117E-1,6.240844727E-2
3.654205322E0,5.364990234E-2,1.226654053E-1,6.135559082E-2
3.659271240E0,1.084899902E-2,7.579040527E-2,4.431152344E-2
3.664306641E0,-1.838684082E-2,4.277038574E-2,-7.888793945E-3
3.669372559E0,-4.344177246E-2,3.356933594E-3,-5.262756348E-2
3.674438476E0,-5.804443359E-2,-2.221679688E-2,-8.459472656E-2
3.679473877E0,-3.926086426E-2,-7.308959961E-3,-1.016387939E-1
3.684539795E0,5.630493164E-3,4.595947266E-2,-9.631347656E-2
3.689605713E0,7.035827637E-2,1.237182617E-1,-8.352661133E-2
3.694641113E0,1.194152832E-1,1.759185791E-1,-7.820129395E-2
3.699707031E0,1.215057373E-1,1.982879639E-1,-8.778381348E-2
3.704742432E0,8.914184570E-2,2.014923096E-1,-6.755065918E-2
3.709808350E0,3.486633301E-2,1.929626465E-1,-3.132629395E-2
3.714874267E0,-2.464294434E-2,1.791229248E-1,6.256103516E-4
3.719940185E0,-6.222534180E-2,1.759185791E-1,9.155273438E-3
3.724975586E0,-6.744384766E-2,1.823120117E-1,1.554870605E-2
3.730041504E0,-7.057189941E-2,1.567535400E-1,4.643249512E-2
3.735107422E0,-1.373901367E-1,9.709167480E-2,4.324340820E-2
3.740173340E0,-2.887725830E-1,-6.695556641E-2,-7.180786133E-2
3.745208740E0,-3.420104980E-1,-1.628265381E-1,-1.442413330E-1
3.750274658E0,-2.699737549E-1,-1.607055664E-1,-1.229400635E-1
3.755340576E0,-2.167358398E-1,-1.308746338E-1,-1.453094482E-1
3.760406494E0,-1.833190918E-1,-1.159667969E-1,-1.911163330E-1
3.765441894E0,-1.426086426E-1,-1.830749512E-1,-1.836547852E-1
3.770507812E0,-1.165161133E-1,-2.427215576E-1,-1.271972656E-1
3.775543213E0,-1.614074707E-1,-2.970581055E-1,-6.434631348E-2
3.780609131E0,-2.564086914E-1,-2.981262207E-1,9.155273438E-3
3.785675049E0,-3.712463379E-1,-2.736206055E-1,4.963684082E-2
3.790740967E0,-4.766845703E-1,-2.501831055E-1,2.832031250E-2
3.795806885E0,-5.643768311E-1,-2.469940186E-1,-2.386474609E-2
3.800842285E0,-6.489257812E-1,-1.532440186E-1,-5.795288086E-2
3.805908203E0,-7.345428467E-1,-1.191558838E-1,-7.287597656E-2
3.810943603E0,-8.138732910E-1,-1.447143555E-1,-9.204101562E-2
3.816009521E0,-8.744201660E-1,-1.905212402E-1,-1.271972656E-1
3.821075439E0,-9.182739258E-1,-2.523193359E-1,-1.644897461E-1
3.826141357E0,-9.443664551E-1,-3.236846924E-1,-1.996459961E-1
3.831207275E0,-9.391479492E-1,-4.195556641E-1,-2.305297852E-1
3.836273193E0,-9.078369141E-1,-5.133056641E-1,-2.305297852E-1
3.841308594E0,-9.026184082E-1,-6.336822510E-1,-2.156219482E-1
3.846374512E0,-9.349822998E-1,-7.551116943E-1,-1.975097656E-1
3.851440430E0,-9.903106689E-1,-8.499298096E-1,-2.060241699E-1
3.856475830E0,-1.042510986E0,-9.372711182E-1,-2.699432373E-1
3.861541748E0,-1.090530396E0,-1.005462646E0,-3.551635742E-1
3.866577148E0,-1.135421753E0,-1.065109253E0,-4.712829590E-1
3.871643066E0,-1.168823242E0,-1.147140503E0,-6.395874023E-1
3.876708984E0,-1.222061157E0,-9.905395508E-1,-8.025817871E-1
3.881774902E0,-1.303497314E0,-6.688385010E-1,-8.324127197E-1
3.886810303E0,-1.371353149E0,-8.083801270E-1,-7.461242676E-1
3.891876221E0,-1.382827759E0,-1.134353638E0,-5.916595459E-1
3.896942139E0,-1.334808350E0,-1.154586792E0,-4.744720459E-1
3.901977539E0,-1.221023560E0,-1.036346436E0,-4.169464111E-1
3.907043457E0,-1.057113647E0,-1.015045166E0,-3.679504395E-1
3.912109375E0,-8.702545166E-1,-9.426116943E-1,-2.891235352E-1
3.917175293E0,-6.405792236E-1,-7.796173096E-1,-2.156219482E-1
3.922241211E0,-3.775024414E-1,-5.292816162E-1,-1.868591309E-1
3.927307129E0,-1.290435791E-1,-2.672271729E-1,-1.975097656E-1
3.932342529E0,7.975769043E-2,-2.967834473E-2,-2.646179199E-1
3.937377930E0,2.561798096E-1,1.908416748E-1,-4.116210938E-1
3.942443848E0,3.950347900E-1,3.847198486E-1,-6.023101807E-1
3.947509766E0,4.430541992E-1,4.965667725E-1,-7.035064697E-1
3.952545166E0,4.388732910E-1,5.146789551E-1,-7.610321045E-1
3.957611084E0,4.273834229E-1,5.285186768E-1,-8.260192871E-1
3.962677002E0,4.430541992E-1,5.988311768E-1,-9.165649414E-1
3.967742920E0,4.910736084E-1,6.915130615E-1,-1.031616211E0
3.972778320E0,5.213470459E-1,7.607574463E-1,-1.140274048E0
3.977813721E0,4.889831543E-1,7.682037354E-1,-1.158370972E0
3.982879639E0,4.023284912E-1,7.192077637E-1,-1.111511230E0
3.987945557E0,2.864532471E-1,6.052246094E-1,-1.039062500E0
3.993011475E0,1.747589111E-1,4.347839355E-1,-9.197540283E-1
3.998077392E0,9.019470215E-2,2.899017334E-1,-7.599639893E-1
4.003143310E0,4.008483887E-2,1.748504639E-1,-5.810089111E-1
4.008209228E0,2.650451660E-2,8.857727051E-2,-4.180145264E-1
4.013275146E0,3.172302246E-2,2.784729004E-2,-3.221435547E-1
4.018341064E0,3.903198242E-2,1.187133789E-2,-2.901916504E-1
4.023376465E0,4.425048828E-2,1.187133789E-2,-2.667541504E-1
4.028442383E0,4.948425293E-2,7.614135742E-3,-2.475738525E-1
4.033477783E0,3.695678711E-2,2.891540527E-2,-2.401123047E-1
4.038543701E0,-1.107788086E-2,7.046508789E-2,-2.433166504E-1
4.043579101E0,3.540039062E-3,1.077423096E-1,-2.752685547E-1
4.048645019E0,6.930541992E-2,1.705932617E-1,-3.157501221E-1
4.053710937E0,1.371765137E-1,2.387695312E-1,-3.370513916E-1
4.058776855E0,2.018890381E-1,3.133392334E-1,-3.594360352E-1
4.063842773E0,2.687072754E-1,3.815155029E-1,-3.999023438E-1
4.068908691E0,3.303070068E-1,4.411773682E-1,-4.371948242E-1
4.073944092E0,4.023284912E-1,5.050964355E-1,-4.936523438E-1
4.078979492E0,4.628906250E-1,5.466308594E-1,-5.533142090E-1
4.084045410E0,4.785461426E-1,4.965667725E-1,-5.948486328E-1
4.089111328E0,4.263458252E-1,3.879089355E-1,-6.118927002E-1
4.094177246E0,3.365631104E-1,2.611389160E-1,-5.991210938E-1
4.099212646E0,2.519989014E-1,1.961669922E-1,-5.607604980E-1
4.104278564E0,2.091979980E-1,3.367767334E-1,-5.170898438E-1
4.109344482E0,1.893615723E-1,3.527526855E-1,-4.542388916E-1
4.114410400E0,1.476135254E-1,1.567535400E-1,-3.487701416E-1
4.119476318E0,1.298675537E-1,6.620788574E-2,-2.731475830E-1
4.124511719E0,1.925048828E-1,2.643432617E-1,-2.710113525E-1
4.129577637E0,2.426147461E-1,6.563568115E-1,-2.571563721E-1
4.134643555E0,2.050323486E-1,2.835083008E-1,-1.485137939E-1
4.139678955E0,1.820526123E-1,-1.159667969E-1,-2.067565918E-2
4.144744873E0,2.133789062E-1,-2.256774902E-1,9.011840820E-2
4.149780273E0,2.687072754E-1,-2.214202881E-1,1.614837646E-1
4.154846191E0,3.438720703E-1,-1.884002686E-1,2.041015625E-1
4.159912109E0,4.430541992E-1,-8.720397949E-2,2.371215820E-1
4.164947510E0,5.349121094E-1,6.193542480E-2,2.637481689E-1
4.170013428E0,5.777130127E-1,2.185363770E-1,2.413787842E-1
4.175079346E0,4.367828369E-1,1.961669922E-1,-7.180786133E-2
4.180145264E0,1.935424805E-1,7.258605957E-2,-5.075073242E-1
4.185180664E0,1.919555664E-2,-2.754211426E-2,-4.755401611E-1
4.190246582E0,-8.102416992E-2,-2.895965576E-1,-1.623535156E-1
4.195312500E0,-1.561889648E-1,-6.294097900E-1,6.135559082E-2
4.200378418E0,-2.073364258E-1,-8.339538574E-1,1.625518799E-1
4.205413818E0,-1.655731201E-1,-8.041229248E-1,9.223937988E-2
4.210449219E0,-5.282592773E-2,-6.464538574E-1,-3.878784180E-2
4.215515137E0,1.815795898E-2,-5.718994141E-1,-6.222534180E-2
4.220581055E0,2.650451660E-2,-5.559082031E-1,-4.411315918E-2
4.225646973E0,2.546691895E-2,-5.186309814E-1,-4.411315918E-2
4.230712891E0,3.068542480E-2,-4.866638184E-1,-5.902099609E-2
4.235778809E0,3.172302246E-2,-4.589691162E-1,-6.861877441E-2
4.240844726E0,3.172302246E-2,-4.302062988E-1,-7.394409180E-2
4.245880127E0,2.755737305E-2,-4.152984619E-1,-7.926940918E-2
4.250946045E0,2.859497070E-2,-4.067840576E-1,-8.566284180E-2
4.255981445E0,3.486633301E-2,-3.918609619E-1,-9.310913086E-2
4.261047363E0,4.948425293E-2,-3.748168945E-1,-9.417724609E-2
4.266113281E0,6.201171875E-2,-3.599090576E-1,-9.950256348E-2
4.271179199E0,7.244873047E-2,-3.460540771E-1,-1.037597656E-1
4.276245117E0,7.661437988E-2,-3.300781250E-1,-1.090850830E-1
4.281311035E0,7.975769043E-2,-3.077087402E-1,-1.090850830E-1
4.286346435E0,8.601379395E-2,-2.874603271E-1,-1.058959961E-1
4.291412353E0,9.123229980E-2,-2.768096924E-1,-9.631347656E-2
4.296447754E0,9.645080566E-2,-2.650909424E-1,-9.098815918E-2
4.301513672E0,9.959411621E-2,-2.544403076E-1,-8.352661133E-2
4.306549072E0,1.048126221E-1,-2.406005859E-1,-7.180786133E-2
4.311614990E0,1.131591797E-1,-2.267456055E-1,-6.327819824E-2
4.316680908E0,1.225585938E-1,-2.097015381E-1,-5.795288086E-2
4.321746826E0,1.277770996E-1,-1.937255859E-1,-5.157470703E-2
4.326782226E0,1.329956055E-1,-1.798706055E-1,-4.623413086E-2
4.331848144E0,1.423950195E-1,-1.649627686E-1,-4.090881348E-2
4.336914062E0,1.517791748E-1,-1.436614990E-1,-3.878784180E-2
4.341979980E0,1.559600830E-1,-1.244812012E-1,-3.985595703E-2
4.347045898E0,1.538696289E-1,-1.127624512E-1,-4.304504395E-2
4.352111816E0,1.497039795E-1,-9.997558594E-2,-4.730224609E-2
4.357147217E0,1.465606689E-1,-8.932495117E-2,-5.157470703E-2
4.362213135E0,1.465606689E-1,-8.186340332E-2,-5.476379395E-2
4.367248535E0,1.455230713E-1,-7.228088379E-2,-5.795288086E-2
4.372314453E0,1.486511230E-1,-5.737304688E-2,-6.222534180E-2
4.377380371E0,1.507415771E-1,-4.351806641E-2,-6.222534180E-2
4.382415771E0,1.528320312E-1,-3.179931641E-2,-6.222534180E-2
4.387451172E0,1.517791748E-1,-2.328491211E-2,-6.648254395E-2
4.392517090E0,1.497039795E-1,-1.689147949E-2,-7.073974609E-2
4.397583008E0,1.497039795E-1,-7.308959961E-3,-6.434631348E-2
4.402648926E0,1.497039795E-1,-9.155273438E-4,-6.434631348E-2
4.407714844E0,1.507415771E-1,2.288818359E-3,-7.394409180E-2
4.412780762E0,1.549224854E-1,1.187133789E-2,-7.073974609E-2
4.417846680E0,1.569976807E-1,2.572631836E-2,-6.861877441E-2
4.422882080E0,1.611785889E-1,3.530883789E-2,-6.648254395E-2
4.427947998E0,1.622314453E-1,5.021667480E-2,-6.541442871E-2
4.432983398E0,1.632690430E-1,6.407165527E-2,-6.008911133E-2
4.438049316E0,1.632690430E-1,7.472229004E-2,-5.583190918E-2
4.443115234E0,1.611785889E-1,8.537292480E-2,-5.476379395E-2
4.448181152E0,1.580505371E-1,9.069824219E-2,-4.943847656E-2
4.453247070E0,1.549224854E-1,1.013488770E-1,-3.665161133E-2
4.458312988E0,1.486511230E-1,1.088104248E-1,-2.706909180E-2
4.463348389E0,1.434326172E-1,1.045532227E-1,-3.665161133E-2
4.468414307E0,1.329956055E-1,9.815979004E-2,-4.518127441E-2
4.473449707E0,1.235961914E-1,9.283447266E-2,-3.985595703E-2
4.478515625E0,1.183776855E-1,9.283447266E-2,-3.346252441E-2
4.483551025E0,1.141967773E-1,9.495544434E-2,-2.813720703E-2
4.488616943E0,1.121215820E-1,9.922790527E-2,-1.960754395E-2
4.493682861E0,1.121215820E-1,1.056213379E-1,-1.321411133E-2
4.498748779E0,1.079406738E-1,1.141357422E-1,-1.109313965E-2
4.503784180E0,1.089782715E-1,1.183929443E-1,-5.767822266E-3
4.508850098E0,1.100311279E-1,1.226654053E-1,-4.425048828E-4
4.513916016E0,1.121215820E-1,1.290588379E-1,-4.425048828E-4
4.518981934E0,1.131591797E-1,1.301116943E-1,2.761840820E-3
4.524047851E0,1.131591797E-1,1.333160400E-1,3.829956055E-3
4.529083252E0,1.121215820E-1,1.375732422E-1,3.829956055E-3
4.534149170E0,1.152496338E-1,1.397094727E-1,8.087158203E-3
4.539184570E0,1.215057373E-1,1.514282227E-1,7.019042969E-3
4.544250488E0,1.277770996E-1,1.588745117E-1,3.829956055E-3
4.549316406E0,1.329956055E-1,1.663360596E-1,1.693725586E-3
4.554382324E0,1.340332031E-1,1.759185791E-1,-2.563476562E-3
4.559417725E0,1.340332031E-1,1.876373291E-1,-8.956909180E-3
4.564453125E0,1.361236572E-1,1.993560791E-1,-1.214599609E-2
4.569519043E0,1.392517090E-1,2.132110596E-1,-1.748657227E-2
4.574584961E0,1.413421631E-1,2.313232422E-1,-2.493286133E-2
4.579650879E0,1.413421631E-1,2.504882812E-1,-2.813720703E-2
4.584716797E0,1.392517090E-1,2.654113770E-1,-3.132629395E-2
4.589752197E0,1.382141113E-1,2.803192139E-1,-3.878784180E-2
4.594818115E0,1.361236572E-1,2.984313965E-1,-4.197692871E-2
4.599884033E0,1.350860596E-1,3.154754639E-1,-4.090881348E-2
4.604949951E0,1.361236572E-1,3.250579834E-1,-4.304504395E-2
4.609985351E0,1.371765137E-1,3.314514160E-1,-4.090881348E-2
4.615051269E0,1.413421631E-1,3.367767334E-1,-3.878784180E-2
4.620117187E0,1.444702148E-1,3.367767334E-1,-3.453063965E-2
4.625183105E0,1.507415771E-1,3.335876465E-1,-2.493286133E-2
4.630249023E0,1.476135254E-1,3.282623291E-1,-1.853942871E-2
4.635284424E0,1.465606689E-1,3.197326660E-1,-1.109313965E-2
4.640350342E0,1.455230713E-1,3.122711182E-1,-4.699707031E-3
4.645416260E0,1.455230713E-1,3.101501465E-1,1.693725586E-3
4.650451660E0,1.444702148E-1,3.058929443E-1,1.693725586E-3
4.655517578E0,1.361236572E-1,2.984313965E-1,2.761840820E-3
4.660583496E0,1.256866455E-1,2.856445312E-1,2.761840820E-3
4.665618896E0,1.162872314E-1,2.728576660E-1,1.693725586E-3
4.670684814E0,1.079406738E-1,2.579498291E-1,6.256103516E-4
4.675750732E0,1.016693115E-1,2.472991943E-1,6.256103516E-4
4.680816650E0,9.332275391E-2,2.345123291E-1,-1.495361328E-3
4.685852051E0,8.497619629E-2,2.196044922E-1,-1.495361328E-3
4.690917969E0,7.557678223E-2,2.078857422E-1,1.693725586E-3
4.695983887E0,6.723022461E-2,1.950988770E-1,1.693725586E-3
4.701049805E0,5.783081055E-2,1.791229248E-1,2.761840820E-3
4.706085205E0,5.261230469E-2,1.641998291E-1,4.898071289E-3
4.711151123E0,4.425048828E-2,1.524810791E-1,8.087158203E-3
4.716186523E0,3.799438477E-2,1.428985596E-1,1.341247559E-2
4.721252441E0,3.068542480E-2,1.333160400E-1,1.766967773E-2
4.726318359E0,2.024841309E-2,1.279907227E-1,1.766967773E-2
4.731384277E0,1.815795898E-2,1.205291748E-1,2.194213867E-2
4.736419678E0,1.084899902E-2,1.088104248E-1,2.406311035E-2
4.741485596E0,5.630493164E-3,1.024169922E-1,2.726745605E-2
4.746551514E0,5.630493164E-3,1.024169922E-1,3.259277344E-2
4.751617432E0,5.630493164E-3,1.066741943E-1,3.471374512E-2
4.756683350E0,5.630493164E-3,1.077423096E-1,3.791809082E-2
4.761718750E0,-6.408691406E-4,1.045532227E-1,4.110717773E-2
4.766784668E0,-6.896972656E-3,9.709167480E-2,4.324340820E-2
4.771850586E0,-1.942443848E-2,8.537292480E-2,5.070495605E-2
4.776885986E0,-3.195190430E-2,6.620788574E-2,5.496215820E-2
4.781951904E0,-4.029846191E-2,4.489135742E-2,5.389404297E-2
4.786987305E0,-4.969787598E-2,2.359008789E-2,4.963684082E-2
4.792053223E0,-5.491638184E-2,9.735107422E-3,4.110717773E-2
4.797119141E0,-5.596923828E-2,3.356933594E-3,3.045654297E-2
4.802185059E0,-5.596923828E-2,2.288818359E-3,2.406311035E-2
4.807250976E0,-5.700683594E-2,8.682250977E-3,1.661682129E-2
4.812316894E0,-5.909729004E-2,2.040100098E-2,1.448059082E-2
4.817352295E0,-5.909729004E-2,2.784729004E-2,1.980590820E-2
4.822418213E0,-5.804443359E-2,3.424072266E-2,2.087402344E-2
4.827453613E0,-5.491638184E-2,4.170227051E-2,2.406311035E-2
4.832519531E0,-5.075073242E-2,5.128479004E-2,3.152465820E-2
4.837554932E0,-4.447937012E-2,6.407165527E-2,3.259277344E-2
4.842620850E0,-3.613281250E-2,7.685852051E-2,3.366088867E-2
4.847686767E0,-2.882385254E-2,8.430480957E-2,3.471374512E-2
4.852752685E0,-1.942443848E-2,8.857727051E-2,3.471374512E-2
4.857788086E0,-1.733398438E-2,9.495544434E-2,3.366088867E-2
4.862823486E0,-1.211547852E-2,1.024169922E-1,3.366088867E-2
4.867919922E0,-5.859375000E-3,1.088104248E-1,3.259277344E-2
4.872985840E0,-3.768920898E-3,1.109466553E-1,3.045654297E-2
4.878051758E0,1.449584961E-3,1.152038574E-1,3.152465820E-2
4.883117676E0,-6.408691406E-4,1.120147705E-1,3.152465820E-2
4.888153076E0,-1.002502441E-2,1.109466553E-1,3.578186035E-2
4.893188476E0,-1.629638672E-2,1.077423096E-1,3.898620605E-2
4.898254394E0,-2.464294434E-2,1.066741943E-1,4.003906250E-2
4.903320312E0,-3.717041016E-2,1.088104248E-1,4.324340820E-2
4.908386230E0,-4.969787598E-2,1.056213379E-1,4.431152344E-2
4.913421631E0,-6.013488770E-2,1.088104248E-1,4.110717773E-2
4.918487549E0,-7.057189941E-2,1.109466553E-1,3.898620605E-2
4.923553467E0,-7.371520996E-2,1.109466553E-1,3.791809082E-2
4.928588867E0,-7.684326172E-2,1.077423096E-1,3.684997559E-2
4.933654785E0,-7.684326172E-2,1.034851074E-1,3.791809082E-2
4.938720703E0,-7.580566406E-2,9.815979004E-2,3.471374512E-2
4.943786621E0,-7.162475586E-2,9.390258789E-2,3.578186035E-2
4.948822021E0,-6.744384766E-2,9.390258789E-2,3.578186035E-2
4.953887939E0,-6.640625000E-2,9.283447266E-2,3.471374512E-2
4.958953857E0,-6.118774414E-2,9.709167480E-2,3.366088867E-2
4.963989258E0,-5.804443359E-2,1.024169922E-1,3.366088867E-2
4.969055176E0,-5.387878418E-2,1.045532227E-1,3.259277344E-2
4.974121094E0,-5.178833008E-2,1.077423096E-1,3.152465820E-2
4.979187012E0,-5.700683594E-2,1.056213379E-1,2.832031250E-2
4.984252930E0,-5.596923828E-2,1.066741943E-1,2.619934082E-2
4.989318848E0,-5.804443359E-2,1.045532227E-1,2.619934082E-2
4.994354248E0,-6.118774414E-2,1.034851074E-1,2.194213867E-2
4.999420166E0,-6.535339355E-2,1.013488770E-1,2.299499512E-2
5.004455566E0,-7.162475586E-2,1.002960205E-1,1.766967773E-2
5.009521484E0,-7.475280762E-2,9.709167480E-2,1.554870605E-2
5.014556885E0,-7.475280762E-2,9.283447266E-2,1.873779297E-2
5.019622803E0,-7.371520996E-2,8.430480957E-2,1.661682129E-2
5.024688721E0,-7.475280762E-2,7.685852051E-2,1.661682129E-2
5.029754639E0,-7.580566406E-2,7.153320312E-2,1.980590820E-2
5.034790039E0,-7.997131348E-2,6.193542480E-2,2.299499512E-2
5.039855957E0,-7.788085938E-2,5.342102051E-2,2.299499512E-2
5.044891357E0,-7.475280762E-2,4.595947266E-2,2.194213867E-2
5.049957275E0,-6.744384766E-2,4.489135742E-2,2.299499512E-2
5.055023193E0,-6.535339355E-2,4.277038574E-2,1.980590820E-2
5.060089111E0,-6.431579590E-2,4.170227051E-2,1.448059082E-2
5.065155029E0,-6.222534180E-2,3.956604004E-2,9.155273438E-3
5.070220947E0,-6.118774414E-2,3.956604004E-2,4.898071289E-3
5.075286865E0,-5.909729004E-2,3.849792480E-2,2.761840820E-3
5.080352783E0,-6.013488770E-2,3.317260742E-2,2.761840820E-3
5.085388184E0,-6.222534180E-2,2.784729004E-2,2.761840820E-3
5.090423584E0,-5.909729004E-2,2.252197266E-2,6.256103516E-4
5.095489502E0,-5.491638184E-2,1.933288574E-2,4.898071289E-3
5.100555420E0,-5.075073242E-2,1.826477051E-2,8.087158203E-3
5.105590820E0,-4.551696777E-2,2.040100098E-2,1.127624512E-2
5.110656738E0,-4.344177246E-2,2.145385742E-2,1.127624512E-2
5.115722656E0,-3.717041016E-2,2.359008789E-2,1.022338867E-2
5.120788574E0,-2.882385254E-2,2.998352051E-2,1.127624512E-2
5.125823975E0,-2.046203613E-2,3.637695312E-2,1.022338867E-2
5.130889892E0,-8.987426758E-3,4.595947266E-2,2.761840820E-3
5.135955810E0,-2.716064453E-3,4.916381836E-2,-1.495361328E-3
5.140991211E0,-2.716064453E-3,5.128479004E-2,-8.956909180E-3
5.146057129E0,-1.678466797E-3,5.128479004E-2,-1.109313965E-2
5.151123047E0,-4.806518555E-3,5.021667480E-2,-1.109313965E-2
5.156188965E0,-1.524353027E-2,4.277038574E-2,-1.428222656E-2
5.161254883E0,-2.986145020E-2,3.211975098E-2,-1.428222656E-2
5.166290283E0,-4.135131836E-2,1.719665527E-2,-1.428222656E-2
5.171356201E0,-4.969787598E-2,1.525878906E-4,-1.428222656E-2
5.176422119E0,-6.222534180E-2,-1.902770996E-2,-1.109313965E-2
5.181457519E0,-6.640625000E-2,-3.607177734E-2,-1.428222656E-2
5.186523437E0,-6.849670410E-2,-5.204772949E-2,-1.321411133E-2
5.191558838E0,-6.849670410E-2,-7.228088379E-2,-1.641845703E-2
5.196624756E0,-6.222534180E-2,-8.293151855E-2,-1.428222656E-2
5.201690674E0,-5.596923828E-2,-9.465026855E-2,-2.174377441E-2
5.206756592E0,-5.178833008E-2,-1.042480469E-1,-2.600097656E-2
5.211791992E0,-5.178833008E-2,-1.106262207E-1,-2.706909180E-2
5.216857910E0,-5.387878418E-2,-1.180877686E-1,-3.665161133E-2
5.221923828E0,-4.760742188E-2,-1.234130859E-1,-4.518127441E-2
5.226989746E0,-4.238891602E-2,-1.244812012E-1,-4.943847656E-2
5.232055664E0,-3.613281250E-2,-1.202239990E-1,-5.050659180E-2
5.237121582E0,-2.777099609E-2,-1.202239990E-1,-5.583190918E-2
5.242156982E0,-2.673339844E-2,-1.234130859E-1,-7.180786133E-2
5.247222900E0,-2.777099609E-2,-1.255493164E-1,-7.926940918E-2
5.252288818E0,-2.360534668E-2,-1.255493164E-1,-8.245849609E-2
5.257354736E0,-2.464294434E-2,-1.255493164E-1,-8.671569824E-2
5.262390137E0,-2.569580078E-2,-1.266174316E-1,-9.310913086E-2
5.267425537E0,-2.673339844E-2,-1.308746338E-1,-9.631347656E-2
5.272491455E0,-2.673339844E-2,-1.330108643E-1,-9.417724609E-2
5.277557373E0,-2.673339844E-2,-1.351318359E-1,-9.204101562E-2
5.282592773E0,-2.464294434E-2,-1.468505859E-1,-1.037597656E-1
5.287658691E0,-2.569580078E-2,-1.596374512E-1,-1.144256592E-1
5.292724609E0,-2.673339844E-2,-1.681518555E-1,-1.101531982E-1
5.297790527E0,-2.255249023E-2,-1.766815186E-1,-1.144256592E-1
5.302825928E0,-1.838684082E-2,-1.851959229E-1,-1.261291504E-1
5.307891846E0,-1.942443848E-2,-1.958618164E-1,-1.325225830E-1
5.312957764E0,-2.255249023E-2,-2.033081055E-1,-1.410522461E-1
5.318023682E0,-2.255249023E-2,-2.129058838E-1,-1.495666504E-1
5.323089600E0,-2.464294434E-2,-2.214202881E-1,-1.580963135E-1
5.328125000E0,-2.673339844E-2,-2.299499512E-1,-1.634216309E-1
5.333190918E0,-2.777099609E-2,-2.373962402E-1,-1.698150635E-1
5.338256836E0,-2.464294434E-2,-2.427215576E-1,-1.772613525E-1
5.343292236E0,-1.942443848E-2,-2.501831055E-1,-1.793975830E-1
5.348358154E0,-1.002502441E-2,-2.586975098E-1,-1.826019287E-1
5.353424072E0,1.449584961E-3,-2.661590576E-1,-1.836547852E-1
5.358459473E0,1.815795898E-2,-2.650909424E-1,-1.975097656E-1
5.363525391E0,3.381347656E-2,-2.512512207E-1,-2.102966309E-1
5.368591309E0,3.277587891E-2,-2.533721924E-1,-1.996459961E-1
5.373657226E0,3.590393066E-2,-2.629699707E-1,-1.900482178E-1
5.378723144E0,4.425048828E-2,-2.512512207E-1,-1.953735352E-1
5.383758545E0,5.574035645E-2,-2.373962402E-1,-2.060241699E-1
5.388824463E0,5.992126465E-2,-2.299499512E-1,-2.134857178E-1
5.393890381E0,5.886840820E-2,-2.182312012E-1,-2.273406982E-1
5.398925781E0,5.783081055E-2,-2.022399902E-1,-2.347869873E-1
5.403991699E0,5.470275879E-2,-1.798706055E-1,-2.284088135E-1
5.409057617E0,4.634094238E-2,-1.553802490E-1,-2.262725830E-1
5.414123535E0,3.068542480E-2,-1.191558838E-1,-2.241363525E-1
5.419158935E0,1.293945312E-2,-7.548522949E-2,-2.166900635E-1
5.424224853E0,-7.934570312E-3,-3.179931641E-2,-2.145538330E-1
5.429260254E0,-3.613281250E-2,3.424072266E-2,-2.081604004E-1
5.434326172E0,-5.804443359E-2,1.226654053E-1,-2.017669678E-1
5.439392090E0,-8.102416992E-2,2.217254639E-1,-1.911163330E-1
5.444427490E0,-1.039886475E-1,3.122711182E-1,-1.783294678E-1
5.449493408E0,-1.352996826E-1,3.943023682E-1,-1.591644287E-1
5.454559326E0,-1.728820801E-1,4.710083008E-1,-1.304016113E-1
5.459594726E0,-2.073364258E-1,5.370483398E-1,-9.524536133E-2
5.464660644E0,-2.428283691E-1,5.892486572E-1,-6.434631348E-2
5.469726562E0,-2.762451172E-1,6.297302246E-1,-3.132629395E-2
5.474792480E0,-3.106842041E-1,6.712646484E-1,9.155273438E-3
5.479827881E0,-3.472290039E-1,7.160186768E-1,6.028747559E-2
5.484893799E0,-3.931579590E-1,7.639465332E-1,1.156768799E-1
5.489959717E0,-4.422302246E-1,7.980346680E-1,1.721343994E-1
5.495025635E0,-4.902496338E-1,8.289337158E-1,2.307281494E-1
5.500061035E0,-5.455780029E-1,8.598175049E-1,2.861175537E-1
5.505126953E0,-6.019592285E-1,8.928527832E-1,3.351287842E-1
5.510192871E0,-6.457977295E-1,9.386596680E-1,3.830566406E-1
5.515258789E0,-6.896514893E-1,9.844512939E-1,4.182128906E-1
5.520324707E0,-7.794342041E-1,1.017486572E0,4.437866211E-1
5.525360107E0,-8.890380859E-1,1.007888794E0,4.544372559E-1
5.530395508E0,-9.506378174E-1,9.993743896E-1,4.523010254E-1
5.535461426E0,-9.318389893E-1,1.012161255E0,4.277954102E-1
5.540527344E0,-8.525085449E-1,1.028137207E0,3.841247559E-1
5.545562744E0,-7.366180420E-1,1.024932861E0,3.308563232E-1
5.550628662E0,-6.197052002E-1,9.951171875E-1,2.818603516E-1
5.555694580E0,-5.424499512E-1,9.045715332E-1,2.520294189E-1
5.560760498E0,-5.236511230E-1,7.714080811E-1,2.509613037E-1
5.565826416E0,-5.601959229E-1,6.318511963E-1,2.786712646E-1
5.570892334E0,-6.259613037E-1,4.923095703E-1,3.265991211E-1
5.575927734E0,-6.896514893E-1,3.932342529E-1,3.649444580E-1
5.580993652E0,-7.199249268E-1,3.410339355E-1,3.756103516E-1
5.586059570E0,-7.334899902E-1,3.474273682E-1,3.553619385E-1
5.591125488E0,-7.407989502E-1,3.740692139E-1,3.116912842E-1
5.596160889E0,-7.387084961E-1,4.060211182E-1,2.467041016E-1
5.601226807E0,-7.324523926E-1,4.518280029E-1,1.785278320E-1
5.606292725E0,-7.188720703E-1,4.827117920E-1,1.124877930E-1
5.611328125E0,-7.147064209E-1,5.050964355E-1,5.921936035E-2
5.616394043E0,-7.178344727E-1,5.157470703E-1,1.766967773E-2
5.621429443E0,-7.209625244E-1,5.157470703E-1,-4.699707031E-3
5.626495361E0,-7.355804443E-1,5.136108398E-1,-5.767822266E-3
5.631561279E0,-7.481079102E-1,5.072174072E-1,7.019042969E-3
5.636596680E0,-7.481079102E-1,5.008239746E-1,2.619934082E-2
5.641662598E0,-7.501983643E-1,5.072174072E-1,5.389404297E-2
5.646728516E0,-7.554168701E-1,5.157470703E-1,8.158874512E-2
5.651794434E0,-7.585449219E-1,5.210723877E-1,1.135559082E-1
5.656829834E0,-7.585449219E-1,5.274658203E-1,1.465759277E-1
5.661895752E0,-7.449798584E-1,5.253295898E-1,1.785278320E-1
5.666931152E0,-7.209625244E-1,5.221405029E-1,2.115478516E-1
5.672027588E0,-6.917266846E-1,5.189361572E-1,2.456359863E-1
5.677062988E0,-6.656341553E-1,5.125427246E-1,2.743988037E-1
5.682128906E0,-6.384887695E-1,5.040283203E-1,2.967681885E-1
5.687194824E0,-6.071777344E-1,4.954986572E-1,3.127593994E-1
5.692260742E0,-5.737609863E-1,4.859161377E-1,3.191375732E-1
5.697296142E0,-5.361785889E-1,4.827117920E-1,3.234100342E-1
5.702362060E0,-4.944305420E-1,4.741973877E-1,3.180847168E-1
5.707427978E0,-4.568481445E-1,4.741973877E-1,3.031616211E-1
5.712463379E0,-4.056854248E-1,4.571533203E-1,2.754669189E-1
5.717529297E0,-3.566284180E-1,4.592895508E-1,2.456359863E-1
5.722595215E0,-3.075561523E-1,4.752655029E-1,2.168731689E-1
5.727661133E0,-2.574462891E-1,4.773864746E-1,1.838531494E-1
5.732696533E0,-1.989898682E-1,4.741973877E-1,1.412506104E-1
5.737762451E0,-1.373901367E-1,4.741973877E-1,9.649658203E-2
5.742828369E0,-7.997131348E-2,4.827117920E-1,5.070495605E-2
5.747894287E0,-2.151489258E-2,4.848480225E-1,6.256103516E-4
5.752929687E0,4.112243652E-2,4.944305420E-1,-4.518127441E-2
5.757965088E0,9.541320801E-2,5.146789551E-1,-8.245849609E-2
5.763031006E0,1.392517090E-1,5.306549072E-1,-1.186828613E-1
5.768096924E0,1.726684570E-1,5.423736572E-1,-1.495666504E-1
5.773162842E0,2.029418945E-1,5.359802246E-1,-1.719360352E-1
5.778228760E0,2.227783203E-1,5.200042725E-1,-1.762084961E-1
5.783294678E0,2.363433838E-1,4.976348877E-1,-1.719360352E-1
5.788330078E0,2.405242920E-1,4.699401855E-1,-1.591644287E-1
5.793395996E0,2.363433838E-1,4.454345703E-1,-1.410522461E-1
5.798431396E0,2.353057861E-1,4.305267334E-1,-1.176147461E-1
5.803497314E0,2.321624756E-1,4.337158203E-1,-9.310913086E-2
5.808563232E0,2.206878662E-1,4.422454834E-1,-7.073974609E-2
5.813598633E0,2.175598145E-1,4.528961182E-1,-5.369567871E-2
5.818664551E0,2.165069580E-1,4.571533203E-1,-4.197692871E-2
5.823730469E0,2.175598145E-1,4.614105225E-1,-3.239440918E-2
5.828796387E0,2.259063721E-1,4.624786377E-1,-2.600097656E-2
5.833831787E0,2.384338379E-1,4.656677246E-1,-2.706909180E-2
5.838897705E0,2.551422119E-1,4.635467529E-1,-2.600097656E-2
5.843963623E0,2.739257812E-1,4.571533203E-1,-1.853942871E-2
5.849029541E0,2.885437012E-1,4.560852051E-1,-8.956909180E-3
5.854095459E0,2.947998047E-1,4.603424072E-1,1.693725586E-3
5.859161377E0,2.927246094E-1,4.646148682E-1,1.766967773E-2
5.864196777E0,2.833251953E-1,4.635467529E-1,3.259277344E-2
5.869262695E0,2.760162354E-1,4.603424072E-1,4.750061035E-2
5.874328613E0,2.655792236E-1,4.539642334E-1,5.815124512E-2
5.879364014E0,2.457427979E-1,4.443664551E-1,6.561279297E-2
5.884429932E0,2.248687744E-1,4.305267334E-1,7.412719727E-2
5.889465332E0,2.018890381E-1,4.209289551E-1,9.011840820E-2
5.894531250E0,1.799774170E-1,4.209289551E-1,1.028900146E-1
5.899597168E0,1.528320312E-1,4.283905029E-1,1.167449951E-1
5.904663086E0,1.267242432E-1,4.422454834E-1,1.327209473E-1
5.909729004E0,9.959411621E-2,4.571533203E-1,1.444396973E-1
5.914794922E0,7.348632812E-2,4.720611572E-1,1.519012451E-1
5.919830322E0,4.739379883E-2,4.827117920E-1,1.572265625E-1
5.924896240E0,2.128601074E-2,4.805908203E-1,1.550903320E-1
5.929962158E0,-1.107788086E-2,4.656677246E-1,1.486968994E-1
5.934997559E0,-2.255249023E-2,4.646148682E-1,1.486968994E-1
5.940032959E0,-1.838684082E-2,4.646148682E-1,1.412506104E-1
5.945098877E0,-1.420593262E-2,4.603424072E-1,1.359252930E-1
5.950164795E0,-6.408691406E-4,4.710083008E-1,1.476440430E-1
5.955230713E0,7.720947266E-3,5.093536377E-1,1.444396973E-1
5.960296631E0,-7.934570312E-3,5.466308594E-1,1.156768799E-1
5.965332031E0,-2.777099609E-2,5.817871094E-1,9.544372559E-2
5.970397949E0,-4.344177246E-2,6.148071289E-1,7.733154297E-2
5.975463867E0,-4.344177246E-2,6.435699463E-1,6.668090820E-2
5.980529785E0,-2.986145020E-2,6.648864746E-1,7.200622559E-2
5.985565185E0,-1.420593262E-2,6.712646484E-1,8.798217773E-2
5.990600586E0,6.668090820E-3,6.542205811E-1,1.135559082E-1
5.995666504E0,4.112243652E-2,6.265258789E-1,1.508331299E-1
6.000732422E0,9.123229980E-2,5.871124268E-1,1.945037842E-1
6.005798340E0,1.267242432E-1,5.583496094E-1,2.435150146E-1
6.010833740E0,1.194152832E-1,5.349121094E-1,2.914428711E-1
6.015899658E0,9.959411621E-2,4.944305420E-1,3.202056885E-1
6.020965576E0,1.131591797E-1,4.624786377E-1,3.265991211E-1
6.026000976E0,1.862335205E-1,4.422454834E-1,3.106231689E-1
6.031066894E0,3.083801270E-1,4.219970703E-1,2.701416016E-1
6.036132812E0,4.294738770E-1,3.708648682E-1,2.051544189E-1
6.041198730E0,5.223846436E-1,2.654113770E-1,1.242065430E-1
6.046264648E0,5.620574951E-1,1.034851074E-1,5.496215820E-2
6.051300049E0,5.359649658E-1,-9.039306641E-2,1.554870605E-2
6.056365967E0,4.649658203E-1,-2.928009033E-1,9.155273438E-3
6.061431885E0,3.960723877E-1,-4.898681641E-1,2.513122559E-2
6.066467285E0,3.772735596E-1,-6.741638184E-1,5.496215820E-2
6.071533203E0,4.179992676E-1,-8.563232422E-1,9.011840820E-2
6.076599121E0,4.962921143E-1,-1.045928955E0,1.295318604E-1
6.081665039E0,5.860748291E-1,-1.243011475E0,1.657409668E-1
6.086730957E0,6.570587158E-1,-1.408126831E0,1.849212646E-1
6.091796875E0,6.977691650E-1,-1.523178101E0,2.041015625E-1
6.096832275E0,7.029876709E-1,-1.578567505E0,2.339172363E-1
6.101898193E0,6.685485840E-1,-1.559387207E0,2.616271973E-1
6.106964111E0,5.912933350E-1,-1.478439331E0,2.829284668E-1
6.111999512E0,4.931640625E-1,-1.368713379E0,2.839965820E-1
6.117034912E0,4.075622559E-1,-1.255798340E0,2.669525146E-1
6.122100830E0,3.449096680E-1,-1.155654907E0,2.403106689E-1
6.127166748E0,3.177795410E-1,-1.084289551E0,2.168731689E-1
6.132232666E0,3.229980469E-1,-1.046997070E0,2.019653320E-1
6.137298584E0,3.459625244E-1,-1.032089233E0,1.923828125E-1
6.142364502E0,3.772735596E-1,-1.027832031E0,1.742706299E-1
6.147430420E0,4.096374512E-1,-1.032089233E0,1.455078125E-1
6.152465820E0,4.399108887E-1,-1.043807983E0,1.146087646E-1
6.157531738E0,4.670562744E-1,-1.044876099E0,7.412719727E-2
6.162567139E0,4.900207520E-1,-1.067245483E0,2.726745605E-2
6.167633057E0,4.962921143E-1,-1.134353638E0,-2.600097656E-2
6.172698975E0,4.921112061E-1,-1.235549927E0,-7.820129395E-2
6.177734375E0,4.879455566E-1,-1.321838379E0,-1.282653809E-1
6.182800293E0,5.056915283E-1,-1.363388062E0,-1.772613525E-1
6.187835693E0,5.443115234E-1,-1.378295898E0,-2.113647461E-1
6.192901611E0,5.986022949E-1,-1.374038696E0,-2.284088135E-1
6.197937012E0,6.570587158E-1,-1.348464966E0,-2.262725830E-1
6.203002930E0,7.050781250E-1,-1.311187744E0,-1.964416504E-1
6.208068848E0,7.353515625E-1,-1.281356812E0,-1.474456787E-1
6.213134766E0,7.353515625E-1,-1.246200562E0,-8.992004395E-2
6.218200684E0,7.061309814E-1,-1.231292725E0,-2.174377441E-2
6.223266601E0,6.445312500E-1,-1.230224609E0,5.175781250E-2
6.228332519E0,5.578918457E-1,-1.221710205E0,1.220703125E-1
6.233367920E0,4.681091309E-1,-1.189743042E0,1.817321777E-1
6.238403320E0,3.877258301E-1,-1.145004272E0,2.285919189E-1
6.243469238E0,3.261260986E-1,-1.108779907E0,2.584228516E-1
6.248535156E0,2.843627930E-1,-1.060852051E0,2.733306885E-1
6.253601074E0,2.697448730E-1,-9.980010986E-1,2.818603516E-1
6.258666992E0,2.749786377E-1,-9.362182617E-1,2.754669189E-1
6.263732910E0,2.895812988E-1,-8.968048096E-1,2.520294189E-1
6.268798828E0,3.135986328E-1,-8.403320312E-1,2.328643799E-1
6.273834228E0,3.574371338E-1,-7.881469727E-1,2.190093994E-1
6.278900146E0,4.096374512E-1,-7.370147705E-1,2.168731689E-1
6.283935547E0,4.670562744E-1,-6.741638184E-1,2.232666016E-1
6.289001465E0,5.171661377E-1,-6.390075684E-1,2.435150146E-1
6.294067383E0,5.589294434E-1,-6.294097900E-1,2.690734863E-1
6.299133301E0,5.881652832E-1,-6.390075684E-1,2.967681885E-1
6.304168701E0,5.965118408E-1,-6.752166748E-1,3.191375732E-1
6.309234619E0,5.798034668E-1,-7.252960205E-1,3.393859863E-1
6.314300537E0,5.432739258E-1,-7.540588379E-1,3.617553711E-1
6.319366455E0,4.994201660E-1,-7.881469727E-1,3.798675537E-1
6.324401855E0,4.482727051E-1,-8.382110596E-1,3.851928711E-1
6.329467773E0,3.981628418E-1,-8.659057617E-1,3.883819580E-1
6.334533691E0,3.584899902E-1,-8.680419922E-1,3.798675537E-1
6.339569092E0,3.250885010E-1,-8.360748291E-1,3.479003906E-1
6.344604492E0,2.979431152E-1,-7.891998291E-1,2.914428711E-1
6.349670410E0,2.822723389E-1,-7.284851074E-1,2.168731689E-1
6.354736328E0,2.728881836E-1,-6.667022705E-1,1.220703125E-1
6.359771728E0,2.676696777E-1,-6.017150879E-1,3.259277344E-2
6.364837646E0,2.613983154E-1,-5.441894531E-1,-5.050659180E-2
6.369903564E0,2.718353271E-1,-4.983825684E-1,-1.325225830E-1
6.374938965E0,2.916717529E-1,-4.706878662E-1,-2.039031982E-1
6.380004883E0,3.167266846E-1,-4.547119141E-1,-2.571563721E-1
6.385070801E0,3.459625244E-1,-4.493865967E-1,-2.944488525E-1
6.390136719E0,3.804168701E-1,-4.504547119E-1,-3.242797852E-1
6.395202637E0,4.169464111E-1,-4.547119141E-1,-3.413238525E-1
6.400268555E0,4.555816650E-1,-4.568481445E-1,-3.498382568E-1
6.405303955E0,4.921112061E-1,-4.621734619E-1,-3.572998047E-1
6.410369873E0,5.286560059E-1,-4.749603271E-1,-3.615570068E-1
6.415405273E0,5.599670410E-1,-4.866638184E-1,-3.668823242E-1
6.420471191E0,5.923309326E-1,-4.962615967E-1,-3.775329590E-1
6.425537109E0,6.121673584E-1,-5.037231445E-1,-3.807373047E-1
6.430572510E0,6.121673584E-1,-5.090484619E-1,-3.924560547E-1
6.435638428E0,5.923309326E-1,-5.228881836E-1,-4.073638916E-1
6.440704346E0,5.558013916E-1,-5.356750488E-1,-4.265441895E-1
6.445770264E0,5.098571777E-1,-5.303497314E-1,-4.510345459E-1
6.450836182E0,4.660186768E-1,-5.079803467E-1,-4.723510742E-1
6.455902100E0,4.179992676E-1,-5.037231445E-1,-4.830017090E-1
6.460937500E0,3.689270020E-1,-5.175628662E-1,-4.947204590E-1
6.466003418E0,3.282165527E-1,-5.175628662E-1,-4.968414307E-1
6.471038818E0,2.958526611E-1,-5.122375488E-1,-4.925842285E-1
6.476104736E0,2.739257812E-1,-5.037231445E-1,-4.883270264E-1
6.481170654E0,2.478332520E-1,-4.866638184E-1,-4.723510742E-1
6.486206055E0,2.499237061E-1,-4.760131836E-1,-4.435882568E-1
6.491271973E0,2.394714355E-1,-4.664306641E-1,-4.190826416E-1
6.496337891E0,2.290344238E-1,-4.781494141E-1,-3.839263916E-1
6.501403809E0,2.185974121E-1,-5.154266357E-1,-3.477172852E-1
6.506439209E0,1.956329346E-1,-5.569763184E-1,-3.157501221E-1
6.511505127E0,1.601409912E-1,-6.081085205E-1,-2.837982178E-1
6.516571045E0,1.455230713E-1,-6.421966553E-1,-2.305297852E-1
6.521636963E0,1.497039795E-1,-6.741638184E-1,-1.644897461E-1
6.526672363E0,1.549224854E-1,-6.773529053E-1,-1.122894287E-1
6.531738281E0,1.674499512E-1,-6.698913574E-1,-6.008911133E-2
6.536804199E0,1.810150146E-1,-6.805419922E-1,-7.888793945E-3
6.541839600E0,1.789245605E-1,-7.050476074E-1,3.578186035E-2
6.546905517E0,1.643066406E-1,-7.231597900E-1,7.412719727E-2
6.551971435E0,1.507415771E-1,-7.348785400E-1,9.756469727E-2
6.557037353E0,1.371765137E-1,-7.444610596E-1,1.028900146E-1
6.562072754E0,1.215057373E-1,-7.476654053E-1,9.649658203E-2
6.567138672E0,1.089782715E-1,-7.455291748E-1,8.372497559E-2
6.572204590E0,9.959411621E-2,-7.263488770E-1,6.880187988E-2
6.577270508E0,9.332275391E-2,-6.954650879E-1,5.603027344E-2
6.582336426E0,8.914184570E-2,-6.539154053E-1,4.110717773E-2
6.587402344E0,8.392333984E-2,-5.814819336E-1,1.980590820E-2
6.592437744E0,6.304931641E-2,-4.813385010E-1,1.873779297E-2
6.597473144E0,2.964782715E-2,-3.833465576E-1,3.471374512E-2
6.602539062E0,-1.316833496E-2,-2.949218750E-1,5.070495605E-2
6.607604980E0,-6.118774414E-2,-2.310028076E-1,6.986999512E-2
6.612670898E0,-1.217346191E-1,-2.033081055E-1,9.544372559E-2
6.617736816E0,-1.937713623E-1,-1.649627686E-1,1.252593994E-1
6.622772217E0,-2.741546631E-1,-1.063690186E-1,1.476440430E-1
6.627838135E0,-3.618469238E-1,-3.073120117E-2,1.806640625E-1
6.632904053E0,-4.537048340E-1,8.325195312E-2,2.190093994E-1
6.637908935E0,-5.570678711E-1,2.025604248E-1,2.584228516E-1
6.642974853E0,-6.687622070E-1,2.952270508E-1,3.010406494E-1
6.648040771E0,-7.888183594E-1,3.719329834E-1,3.404541016E-1
6.653106689E0,-9.078369141E-1,4.582214355E-1,3.734741211E-1
6.658172607E0,-1.012222290E0,5.476989746E-1,3.990325928E-1
6.663238525E0,-1.104095459E0,6.499633789E-1,4.214172363E-1
6.668273926E0,-1.202224731E0,7.767333984E-1,4.405822754E-1
6.673339844E0,-1.307662964E0,9.013671875E-1,4.480438232E-1
6.678405762E0,-1.426681519E0,1.018554688E0,4.373931885E-1
6.683471680E0,-1.539428711E0,1.209228516E0,4.150238037E-1
6.688537598E0,-1.606246948E0,1.419082642E0,3.702697754E-1
6.693572998E0,-1.609375000E0,1.562896729E0,3.074340820E-1
6.698638916E0,-1.555084229E0,1.685409546E0,2.328643799E-1
6.703704834E0,-1.448608398E0,1.781280518E0,1.668090820E-1
6.708770752E0,-1.302444458E0,1.828155518E0,1.082153320E-1
6.713806152E0,-1.128112793E0,1.816436768E0,6.454467773E-2
6.718841553E0,-9.589843750E-1,1.745056152E0,3.366088867E-2
6.723907471E0,-8.180541992E-1,1.591659546E0,1.127624512E-2
6.728973389E0,-7.470703125E-1,1.364761353E0,9.155273438E-3
6.734039307E0,-7.470703125E-1,1.102706909E0,3.684997559E-2
6.739105225E0,-7.909088135E-1,8.544921875E-1,8.798217773E-2
6.744171142E0,-8.765106201E-1,6.339874268E-1,1.508331299E-1
6.749206543E0,-9.934387207E-1,4.401092529E-1,2.158203125E-1
6.754272461E0,-1.115585327E0,2.856445312E-1,2.733306885E-1
6.759338379E0,-1.218933105E0,1.716613770E-1,3.180847168E-1
6.764404297E0,-1.299316406E0,1.056213379E-1,3.425750732E-1
6.769439697E0,-1.335861206E0,5.661010742E-2,3.542938232E-1
6.774505615E0,-1.324371338E0,7.153320312E-2,3.606872559E-1
6.779541016E0,-1.274261475E0,1.599426270E-1,3.564300537E-1
6.784606934E0,-1.198059082E0,2.899017334E-1,3.351287842E-1
6.789672851E0,-1.109313965E0,4.656677246E-1,2.914428711E-1
6.794738769E0,-1.007003784E0,6.680755615E-1,2.424468994E-1
6.799804687E0,-9.078369141E-1,8.811340332E-1,1.870574951E-1
6.804840088E0,-8.190917969E-1,1.076065063E0,1.263275146E-1
6.809875488E0,-7.324523926E-1,1.236923218E0,7.626342773E-2
6.814941406E0,-6.593780518E-1,1.364761353E0,5.070495605E-2
6.819976807E0,-5.998687744E-1,1.459564209E0,3.471374512E-2
6.825042725E0,-5.560150146E-1,1.529876709E0,2.938842773E-2
6.830108642E0,-5.299224854E-1,1.587402344E0,3.259277344E-2
6.835174560E0,-5.163421631E-1,1.610839844E0,5.175781250E-2
6.840240478E0,-5.079956055E-1,1.608703613E0,6.774902344E-2
6.845275879E0,-5.069580078E-1,1.599121094E0,8.052062988E-2
6.850341797E0,-5.027770996E-1,1.561828613E0,9.011840820E-2
6.855407715E0,-4.996490479E-1,1.502182007E0,9.970092773E-2
6.860473633E0,-4.965209961E-1,1.419082642E0,1.092834473E-1
6.865509033E0,-4.944305420E-1,1.324279785E0,1.135559082E-1
6.870574951E0,-4.965209961E-1,1.244384766E0,1.114196777E-1
6.875640869E0,-4.996490479E-1,1.178329468E0,1.050262451E-1
6.880706787E0,-4.944305420E-1,1.124008179E0,9.011840820E-2
6.885772705E0,-4.777221680E-1,1.076065063E0,6.561279297E-2
6.890808105E0,-4.557952881E-1,1.039855957E0,3.366088867E-2
6.895874023E0,-4.297027588E-1,1.010025024E0,5.950927734E-3
6.900909424E0,-3.942108154E-1,9.855194092E-1,-2.281188965E-2
6.905944824E0,-3.472290039E-1,9.578247070E-1,-4.837036133E-2
6.911010742E0,-2.877197266E-1,9.333190918E-1,-7.287597656E-2
6.916076660E0,-2.115173340E-1,9.152221680E-1,-9.524536133E-2
6.921142578E0,-1.248626709E-1,9.066925049E-1,-1.165466309E-1
6.926208496E0,-3.195190430E-2,9.013671875E-1,-1.357269287E-1
6.931274414E0,6.826782227E-2,8.896484375E-1,-1.538391113E-1
6.936340332E0,1.695251465E-1,8.736724854E-1,-1.687469482E-1
6.941406250E0,2.697448730E-1,8.662109375E-1,-1.698150635E-1
6.946441650E0,3.647460938E-1,8.363800049E-1,-1.730041504E-1
6.951477051E0,4.628906250E-1,7.937774658E-1,-1.772613525E-1
6.956542969E0,5.641479492E-1,7.447814941E-1,-1.804656982E-1
6.961608887E0,6.622772217E-1,6.925811768E-1,-1.847229004E-1
6.966674805E0,7.562408447E-1,6.275939941E-1,-1.847229004E-1
6.971740723E0,8.480987549E-1,5.636749268E-1,-1.815338135E-1
6.976776123E0,9.274444580E-1,5.061492920E-1,-1.730041504E-1
6.981842041E0,9.879913330E-1,4.496917725E-1,-1.612854004E-1
6.986907959E0,1.032882690E0,3.921661377E-1,-1.431732178E-1
6.991943359E0,1.063156128E0,3.378448486E-1,-1.229400635E-1
6.996978760E0,1.082992554E0,2.867126465E-1,-1.037597656E-1
7.002044678E0,1.086120605E0,2.504882812E-1,-8.032226562E-2
7.007110596E0,1.071517944E0,2.334442139E-1,-5.369567871E-2
7.012176514E0,1.034973145E0,2.398376465E-1,-2.493286133E-2
7.017242432E0,9.692077637E-1,2.643432617E-1,6.256103516E-4
7.022277832E0,8.668975830E-1,3.037567139E-1,3.366088867E-2
7.027343750E0,7.290954590E-1,3.538208008E-1,7.200622559E-2
7.032409668E0,5.620574951E-1,3.879089355E-1,1.103515625E-1
7.037445068E0,3.845825195E-1,4.038848877E-1,1.540222168E-1
7.042510986E0,2.060699463E-1,4.145355225E-1,1.987762451E-1
7.047576904E0,3.590393066E-2,4.198760986E-1,2.456359863E-1
7.052642822E0,-1.238250732E-1,4.124145508E-1,2.946472168E-1
7.057708740E0,-2.616271973E-1,3.953704834E-1,3.415222168E-1
7.062774658E0,-3.701934814E-1,3.719329834E-1,3.841247559E-1
7.067810059E0,-4.495391846E-1,3.474273682E-1,4.214172363E-1
7.072845459E0,-5.121765137E-1,3.239898682E-1,4.469757080E-1
7.077911377E0,-5.539245605E-1,2.867126465E-1,4.661560059E-1
7.082977295E0,-5.727233887E-1,2.259979248E-1,4.757385254E-1
7.088043213E0,-5.601959229E-1,1.780548096E-1,4.725494385E-1
7.093109131E0,-5.236511230E-1,1.503601074E-1,4.576263428E-1
7.098175049E0,-4.662322998E-1,1.397094727E-1,4.405822754E-1
7.103240967E0,-4.015197754E-1,1.524810791E-1,4.160766602E-1
7.108276367E0,-3.482666016E-1,1.769866943E-1,3.894500732E-1
7.113342285E0,-3.013000488E-1,2.462310791E-1,3.777313232E-1
7.118408203E0,-2.678833008E-1,3.495635986E-1,3.574981689E-1
7.123443603E0,-2.511901855E-1,4.635467529E-1,3.127593994E-1
7.128509521E0,-2.313537598E-1,5.732727051E-1,2.573547363E-1
7.133575439E0,-1.948089600E-1,6.648864746E-1,2.019653320E-1
7.138610840E0,-1.478271484E-1,7.032318115E-1,1.582946777E-1
7.143646240E0,-1.300811768E-1,7.021636963E-1,1.359252930E-1
7.148712158E0,-1.739349365E-1,6.584930420E-1,1.327209473E-1
7.153778076E0,-2.229919434E-1,5.615539551E-1,1.369781494E-1
7.158813476E0,-2.209014893E-1,4.156036377E-1,1.710662842E-1
7.163879394E0,-1.760253906E-1,2.632751465E-1,2.339172363E-1
7.168945312E0,-1.144256592E-1,1.652679443E-1,3.031616211E-1
7.173980713E0,-5.178833008E-2,8.430480957E-2,3.756103516E-1
7.179046631E0,-2.569580078E-2,-4.884338379E-2,4.597625732E-1
7.184112549E0,-3.091430664E-2,-2.629699707E-1,5.343322754E-1
7.189178467E0,-6.535339355E-2,-5.537872314E-1,5.822601318E-1
7.194244385E0,-7.893371582E-2,-8.946685791E-1,6.035766602E-1
7.199279785E0,-3.404235840E-2,-1.191879272E0,5.716094971E-1
7.204345703E0,1.016693115E-1,-1.363388062E0,4.725494385E-1
7.209411621E0,3.396911621E-1,-1.443283081E0,3.202056885E-1
7.214447021E0,6.393127441E-1,-1.452865601E0,1.210021973E-1
7.219512939E0,8.992614746E-1,-1.388946533E0,-9.310913086E-2
7.224548340E0,9.953002930E-1,-1.214248657E0,-2.550354004E-1
7.229644775E0,8.762969971E-1,-9.276885986E-1,-3.200073242E-1
7.234710693E0,6.100769043E-1,-6.805419922E-1,-3.114929199E-1
7.239776611E0,3.000335693E-1,-5.410003662E-1,-2.528991699E-1
7.244812012E0,5.992126465E-2,-4.920043945E-1,-1.634216309E-1
7.249877930E0,-6.640625000E-2,-5.410003662E-1,-7.499694824E-2
7.254943848E0,-1.227722168E-1,-6.443328857E-1,3.829956055E-3
7.259979248E0,-1.624450684E-1,-7.838745117E-1,6.668090820E-2
7.265045166E0,-1.812438965E-1,-9.553833008E-1,8.372497559E-2
7.270111084E0,-1.749725342E-1,-1.129028320E0,5.921936035E-2
7.275177002E0,-1.342620850E-1,-1.253662109E0,2.194213867E-2
7.280212402E0,-5.804443359E-2,-1.333557129E0,-1.321411133E-2
7.285278320E0,5.052185059E-2,-1.376159668E0,-5.476379395E-2
7.290344238E0,1.757965088E-1,-1.395339966E0,-9.738159180E-2
7.295379639E0,3.000335693E-1,-1.419845581E0,-1.346588135E-1
7.300445557E0,4.211273193E-1,-1.434753418E0,-1.730041504E-1
7.305511475E0,5.244750977E-1,-1.453933716E0,-2.156219482E-1
7.310577392E0,6.163482666E-1,-1.494415283E0,-2.710113525E-1
7.315612793E0,7.092590332E-1,-1.545547485E0,-3.391876221E-1
7.320678711E0,7.969512939E-1,-1.524246216E0,-3.977813721E-1
7.325744629E0,8.616790771E-1,-1.447540283E0,-4.180145264E-1
7.330780029E0,8.877716064E-1,-1.412384033E0,-3.871307373E-1
7.335845947E0,8.773345947E-1,-1.427307129E0,-3.093566895E-1
7.340911865E0,8.334960938E-1,-1.474166870E0,-1.975097656E-1
7.345947266E0,7.614593506E-1,-1.517852783E0,-7.926940918E-2
7.350982666E0,6.633300781E-1,-1.544479370E0,4.536437988E-2
7.356048584E0,5.620574951E-1,-1.554061890E0,1.732025146E-1
7.361114502E0,4.649658203E-1,-1.550872803E0,2.925109863E-1
7.366180420E0,3.877258301E-1,-1.534896851E0,3.969116211E-1
7.371246338E0,3.365631104E-1,-1.512527466E0,4.832000732E-1
7.376312256E0,2.916717529E-1,-1.468841553E0,5.652160645E-1
7.381378174E0,2.561798096E-1,-1.424102783E0,6.184844971E-1
7.386413574E0,2.530517578E-1,-1.380432129E0,6.312713623E-1
7.391479492E0,2.739257812E-1,-1.344207764E0,6.014404297E-1
7.396545410E0,3.062896729E-1,-1.310119629E0,5.460510254E-1
7.401580810E0,3.605804443E-1,-1.267517090E0,4.832000732E-1
7.406646728E0,4.378356934E-1,-1.203598022E0,4.160766602E-1
7.411712646E0,5.234375000E-1,-1.105590820E0,3.479003906E-1
7.416778564E0,6.080017090E-1,-1.000122070E0,2.797241211E-1
7.421813965E0,6.779327393E-1,-9.138488770E-1,2.062225342E-1
7.426849365E0,7.322235107E-1,-8.456726074E-1,1.284637451E-1
7.431915283E0,7.593688965E-1,-7.955932617E-1,5.282592773E-2
7.436981201E0,7.624969482E-1,-7.647094727E-1,-4.699707031E-3
7.442047119E0,7.593688965E-1,-7.561798096E-1,-4.943847656E-2
7.447113037E0,7.447509766E-1,-7.678985596E-1,-1.080322266E-1
7.452178955E0,7.134399414E-1,-7.796173096E-1,-1.783294678E-1
7.457214355E0,6.768951416E-1,-7.615051270E-1,-2.454528809E-1
7.462280273E0,6.320037842E-1,-7.263488770E-1,-3.104248047E-1
7.467346191E0,5.829467773E-1,-7.114410400E-1,-3.626251221E-1
7.472412109E0,5.286560059E-1,-7.189025879E-1,-4.031066895E-1
7.477447510E0,4.827270508E-1,-7.316894531E-1,-4.489135742E-1
7.482513428E0,4.493103027E-1,-7.551116943E-1,-4.904632568E-1
7.487548828E0,4.346923828E-1,-7.987976074E-1,-5.352020264E-1
7.492584228E0,4.440917969E-1,-8.254241943E-1,-5.884552002E-1
7.497650146E0,4.691467285E-1,-8.264923096E-1,-6.449127197E-1
7.502716064E0,5.015106201E-1,-8.169097900E-1,-6.992492676E-1
7.507781982E0,5.276031494E-1,-8.179626465E-1,-7.344055176E-1
7.512817383E0,5.526580811E-1,-8.286285400E-1,-7.375946045E-1
7.517883301E0,5.651855469E-1,-8.382110596E-1,-7.333374023E-1
7.522949219E0,5.672760010E-1,-8.296813965E-1,-7.280120850E-1
7.527984619E0,5.422210693E-1,-7.998657227E-1,-7.312011719E-1
7.533050537E0,4.994201660E-1,-7.700347900E-1,-7.429199219E-1
7.538116455E0,4.493103027E-1,-7.327423096E-1,-7.567749023E-1
7.543182373E0,4.002532959E-1,-6.976013184E-1,-7.770080566E-1
7.548217773E0,3.668365479E-1,-6.634979248E-1,-7.972564697E-1
7.553283691E0,3.438720703E-1,-6.304779053E-1,-8.132324219E-1
7.558349609E0,3.271636963E-1,-5.942687988E-1,-8.313446045E-1
7.563415527E0,3.156890869E-1,-6.049194336E-1,-8.206939697E-1
7.568481445E0,3.104705811E-1,-6.294097900E-1,-7.929992676E-1
7.573516846E0,3.083801270E-1,-6.443328857E-1,-7.621002197E-1
7.578582764E0,3.167266846E-1,-6.656341553E-1,-7.184295654E-1
7.583648682E0,3.261260986E-1,-7.018585205E-1,-6.640930176E-1
7.588684082E0,3.271636963E-1,-7.327423096E-1,-6.044464111E-1
7.593719482E0,3.177795410E-1,-7.359466553E-1,-5.458526611E-1
7.598785400E0,3.104705811E-1,-7.114410400E-1,-4.915161133E-1
7.603851318E0,3.156890869E-1,-6.698913574E-1,-4.318695068E-1
7.608917236E0,3.292541504E-1,-6.262207031E-1,-3.647613525E-1
7.613983154E0,3.501434326E-1,-5.718994141E-1,-2.955169678E-1
7.619049072E0,3.720550537E-1,-5.133056641E-1,-2.369232178E-1
7.624114990E0,3.814544678E-1,-4.642944336E-1,-1.900482178E-1
7.629150391E0,3.877258301E-1,-4.280853271E-1,-1.591644287E-1
7.634216309E0,3.898010254E-1,-3.939971924E-1,-1.389160156E-1
7.639282226E0,3.699798584E-1,-3.609771729E-1,-1.240081787E-1
7.644317627E0,3.313446045E-1,-3.322143555E-1,-1.101531982E-1
7.649383545E0,2.812347412E-1,-3.162231445E-1,-1.005706787E-1
7.654449463E0,2.279968262E-1,-3.077087402E-1,-8.992004395E-2
7.659515381E0,1.945800781E-1,-3.066406250E-1,-6.648254395E-2
7.664581299E0,1.831054688E-1,-2.917327881E-1,-3.239440918E-2
7.669616699E0,1.601409912E-1,-2.619018555E-1,1.766967773E-2
7.674682617E0,1.110687256E-1,-2.288818359E-1,7.093811035E-2
7.679718017E0,3.277587891E-2,-2.118377686E-1,1.252593994E-1
7.684783935E0,-6.013488770E-2,-2.192840576E-1,1.817321777E-1
7.689849853E0,-1.687164307E-1,-2.086334229E-1,2.211456299E-1
7.694915771E0,-2.845916748E-1,-1.617584229E-1,2.509613037E-1
7.699951172E0,-4.088287354E-1,-2.435302734E-2,2.733306885E-1
7.705017090E0,-5.633239746E-1,1.365051270E-1,2.967681885E-1
7.710083008E0,-7.428894043E-1,2.909698486E-1,3.255310059E-1
7.715118408E0,-9.443664551E-1,4.230651855E-1,3.596191406E-1
7.720184326E0,-1.146896362E0,5.413055420E-1,3.979797363E-1
7.725250244E0,-1.348388672E0,6.702117920E-1,4.363250732E-1
7.730316162E0,-1.530029297E0,8.076324463E-1,4.714813232E-1
7.735351562E0,-1.657394409E0,9.535675049E-1,4.981079102E-1
7.740417480E0,-1.715850830E0,1.160232544E0,5.215454102E-1
7.745483398E0,-1.682449341E0,1.421218872E0,5.364532471E-1
7.750518799E0,-1.579101562E0,1.649185181E0,5.247344971E-1
7.755584717E0,-1.439208984E0,1.778076172E0,5.002441406E-1
7.760650635E0,-1.297225952E0,1.780212402E0,4.757385254E-1
7.765686035E0,-1.178222656E0,1.683273315E0,4.586944580E-1
7.770751953E0,-1.074859619E0,1.544784546E0,4.469757080E-1
7.775817871E0,-9.809112549E-1,1.392456055E0,4.309997559E-1
7.780883789E0,-9.026184082E-1,1.227340698E0,4.192810059E-1
7.785949707E0,-8.545989990E-1,1.066482544E0,4.139556885E-1
7.790985107E0,-8.535461426E-1,9.333190918E-1,4.171447754E-1
7.796051025E0,-8.869476318E-1,8.086853027E-1,4.427185059E-1
7.801116943E0,-9.475097656E-1,6.797943115E-1,4.757385254E-1
7.806152344E0,-1.023712158E0,5.487670898E-1,5.012969971E-1
7.811218262E0,-1.105148315E0,4.166717529E-1,5.162200928E-1
7.816284180E0,-1.200149536E0,2.632751465E-1,5.279388428E-1
7.821319580E0,-1.285751343E0,1.002960205E-1,5.417785645E-1
7.826385498E0,-1.337951660E0,-2.435302734E-2,5.598907471E-1
7.831451416E0,-1.352554321E0,-8.932495117E-2,5.737457275E-1
7.836517334E0,-1.336898804E0,-7.015991211E-2,5.758666992E-1
7.841552734E0,-1.294097900E0,4.916381836E-2,5.705413818E-1
7.846618652E0,-1.231460571E0,2.867126465E-1,5.609588623E-1
7.851684570E0,-1.152114868E0,5.956420898E-1,5.417785645E-1
7.856750488E0,-1.049804688E0,9.024353027E-1,5.012969971E-1
7.861785889E0,-9.485473633E-1,1.183670044E0,4.469757080E-1
7.866851807E0,-8.545989990E-1,1.408432007E0,3.947753906E-1
7.871917725E0,-7.752532959E-1,1.594848633E0,3.457794189E-1
7.876953125E0,-7.126159668E-1,1.730148315E0,3.042297363E-1
7.882019043E0,-6.791992188E-1,1.807907104E0,2.648162842E-1
7.887084961E0,-6.750335693E-1,1.857971191E0,2.211456299E-1
7.892150879E0,-6.750335693E-1,1.902709961E0,1.859893799E-1
7.897186279E0,-6.708526611E-1,1.941070557E0,1.540222168E-1
7.902252197E0,-6.426696777E-1,1.970886230E0,1.188812256E-1
7.907318115E0,-5.915069580E-1,1.983673096E0,8.584594727E-2
7.912353516E0,-5.309600830E-1,1.950653076E0,5.175781250E-2
7.917419434E0,-4.787597656E-1,1.863296509E0,1.980590820E-2
7.922485351E0,-4.526672363E-1,1.731216431E0,-8.956909180E-3
7.927551269E0,-4.464111328E-1,1.570358276E0,-4.197692871E-2
7.932586670E0,-4.631042480E-1,1.412689209E0,-7.394409180E-2
7.937652588E0,-4.871215820E-1,1.257171631E0,-1.090850830E-1
7.942718506E0,-5.132141113E-1,1.121871948E0,-1.442413330E-1
7.947753906E0,-5.361785889E-1,1.018554688E0,-1.730041504E-1
7.952819824E0,-5.487060547E-1,9.514312744E-1,-1.953735352E-1
7.957885742E0,-5.528869629E-1,9.045715332E-1,-2.188110352E-1
7.962921142E0,-5.393218994E-1,8.811340332E-1,-2.411804199E-1
7.967987060E0,-5.017395020E-1,8.843231201E-1,-2.550354004E-1
7.973052978E0,-4.401397705E-1,9.077606201E-1,-2.667541504E-1
7.978118896E0,-3.524475098E-1,9.514312744E-1,-2.763366699E-1
7.983154297E0,-2.449188232E-1,1.007888794E0,-2.880554199E-1
7.988220215E0,-1.238250732E-1,1.065414429E0,-3.008422852E-1
7.993286133E0,2.502441406E-3,1.126144409E0,-3.061676025E-1
7.998321533E0,1.235961914E-1,1.178329468E0,-3.040313721E-1
8.003387451E0,2.488708496E-1,1.201766968E0,-2.944488525E-1
8.008453369E0,3.731079102E-1,1.211364746E0,-2.859191895E-1
8.013519287E0,4.921112061E-1,1.209228516E0,-2.774047852E-1
8.018554687E0,6.100769043E-1,1.186859131E0,-2.678222656E-1
8.023620605E0,7.217864990E-1,1.133590698E0,-2.443847656E-1
8.028686523E0,8.251342773E-1,1.054763794E0,-2.166900635E-1
8.033721924E0,9.211883545E-1,9.567565918E-1,-1.815338135E-1
8.038787842E0,1.006790161E0,8.523712158E-1,-1.453094482E-1
8.043853760E0,1.075683594E0,7.490386963E-1,-1.069641113E-1
8.048919678E0,1.119537354E0,6.510314941E-1,-7.073974609E-2
8.053955078E0,1.140411377E0,5.668792725E-1,-3.132629395E-2
8.059020996E0,1.142501831E0,4.965667725E-1,1.127624512E-2
8.064086914E0,1.122665405E0,4.401092529E-1,4.217529297E-2
8.069122314E0,1.087173462E0,4.028167725E-1,6.668090820E-2
8.074188232E0,1.039154053E0,3.783264160E-1,9.117126465E-2
8.079254150E0,9.890441895E-1,3.815155029E-1,1.156768799E-1
8.084320068E0,9.232635498E-1,3.985595703E-1,1.369781494E-1
8.089355469E0,8.408050537E-1,4.315795898E-1,1.550903320E-1
8.094421387E0,7.332763672E-1,4.923095703E-1,1.838531494E-1
8.099487305E0,6.006927490E-1,5.679473877E-1,2.168731689E-1
8.104522705E0,4.399108887E-1,6.286621094E-1,2.477722168E-1
8.109588623E0,2.603607178E-1,6.680755615E-1,2.829284668E-1
8.114654541E0,6.826782227E-2,6.915130615E-1,3.223419189E-1
8.119720459E0,-1.018981934E-1,6.883087158E-1,3.542938232E-1
8.124755859E0,-2.438812256E-1,6.670074463E-1,3.787994385E-1
8.129821777E0,-3.639373779E-1,6.244049072E-1,4.054260254E-1
8.134887695E0,-4.464111328E-1,5.476989746E-1,4.363250732E-1
8.139923096E0,-4.912872314E-1,4.422454834E-1,4.757385254E-1
8.144989014E0,-5.017395020E-1,3.335876465E-1,5.055694580E-1
8.150054932E0,-4.735412598E-1,2.430419922E-1,5.183563232E-1
8.155120850E0,-4.056854248E-1,1.855163574E-1,5.140838623E-1
8.160156250E0,-3.106842041E-1,1.503601074E-1,4.863891602E-1
8.165222168E0,-2.198638916E-1,1.546173096E-1,4.405822754E-1
8.170288086E0,-1.394805908E-1,2.100067139E-1,3.745422363E-1
8.175323486E0,-7.684326172E-2,2.984313965E-1,2.935791016E-1
8.180389404E0,-4.344177246E-2,4.134826660E-1,2.072906494E-1
8.185455322E0,-6.222534180E-2,5.487670898E-1,1.103515625E-1
8.190521240E0,-1.405181885E-1,6.467742920E-1,-5.767822266E-3
8.195556641E0,-2.229919434E-1,6.446380615E-1,-1.229400635E-1
8.200622559E0,-2.490997314E-1,5.647430420E-1,-2.017669678E-1
8.205688476E0,-2.062988281E-1,4.699401855E-1,-2.347869873E-1
8.210754394E0,-1.645355225E-1,3.559570312E-1,-2.433166504E-1
8.215789795E0,-1.645355225E-1,2.366485596E-1,-2.294616699E-1
8.220855713E0,-1.989898682E-1,1.194610596E-1,-1.964416504E-1
8.225921631E0,-2.480468750E-1,9.735107422E-3,-1.453094482E-1
8.230957031E0,-2.877197266E-1,-1.383361816E-1,-7.713317871E-2
8.236022949E0,-3.315734863E-1,-3.620300293E-1,-4.425048828E-4
8.241088867E0,-3.712463379E-1,-6.507263184E-1,7.519531250E-2
8.246124267E0,-3.764648438E-1,-9.234313965E-1,1.391143799E-1
8.251190185E0,-3.065185547E-1,-1.129028320E0,1.870574951E-1
8.256256103E0,-1.624450684E-1,-1.252593994E0,2.083587646E-1
8.261322021E0,1.919555664E-2,-1.276031494E0,1.678771973E-1
8.266357422E0,2.029418945E-1,-1.215316772E0,8.905029297E-2
8.271423340E0,3.532714844E-1,-1.078964233E0,1.127624512E-2
8.276489258E0,4.242553711E-1,-8.861389160E-1,-5.262756348E-2
8.281524658E0,4.273834229E-1,-7.082519531E-1,-9.417724609E-2
8.286590576E0,3.783264160E-1,-6.070404053E-1,-1.058959961E-1
8.291656494E0,3.083801270E-1,-5.612335205E-1,-7.926940918E-2
8.296722412E0,2.499237061E-1,-5.378112793E-1,-3.878784180E-2
8.301757812E0,2.029418945E-1,-5.463256836E-1,6.256103516E-4
8.306823730E0,1.653594971E-1,-5.995941162E-1,3.366088867E-2
8.311889648E0,1.329956055E-1,-6.912078857E-1,6.135559082E-2
8.316925049E0,1.089782715E-1,-7.849426270E-1,7.412719727E-2
8.321990967E0,1.006317139E-1,-8.690948486E-1,7.839965820E-2
8.327056885E0,1.079406738E-1,-9.351501465E-1,6.454467773E-2
8.332122803E0,1.392517090E-1,-9.798889160E-1,3.684997559E-2
8.337188721E0,1.966705322E-1,-1.016113281E0,8.087158203E-3
8.342224121E0,2.781066895E-1,-1.051254272E0,-1.748657227E-2
8.347290039E0,3.668365479E-1,-1.086410522E0,-3.346252441E-2
8.352325439E0,4.576721191E-1,-1.114105225E0,-5.583190918E-2
8.357391357E0,5.484924316E-1,-1.133285522E0,-9.631347656E-2
8.362457275E0,6.340942383E-1,-1.148193359E0,-1.485137939E-1
8.367523193E0,7.165679932E-1,-1.160980225E0,-2.017669678E-1
8.372558594E0,7.875518799E-1,-1.167373657E0,-2.475738525E-1
8.377624512E0,8.387145996E-1,-1.167373657E0,-2.827301025E-1
8.382690430E0,8.700256348E-1,-1.163116455E0,-3.061676025E-1
8.387725830E0,8.731536865E-1,-1.158859253E0,-3.050994873E-1
8.392791748E0,8.460235596E-1,-1.164184570E0,-2.816619873E-1
8.397857666E0,7.927703857E-1,-1.180160522E0,-2.369232178E-1
8.402923584E0,7.092590332E-1,-1.207855225E0,-1.772613525E-1
8.407958984E0,6.152954102E-1,-1.248336792E0,-1.080322266E-1
8.413024902E0,5.192565918E-1,-1.301605225E0,-3.453063965E-2
8.418090820E0,4.273834229E-1,-1.358062744E0,4.643249512E-2
8.423156738E0,3.417816162E-1,-1.421966553E0,1.242065430E-1
8.428195356E0,2.822723389E-1,-1.466720581E0,1.891784668E-1
8.433261274E0,2.530517578E-1,-1.478439331E0,2.435150146E-1
8.438327192E0,2.488708496E-1,-1.455001831E0,2.882537842E-1
8.443362592E0,2.634887695E-1,-1.419845581E0,3.170166016E-1
8.448428510E0,2.906341553E-1,-1.386825562E0,3.319244385E-1
8.453494428E0,3.219451904E-1,-1.353790283E0,3.319244385E-1
8.458529828E0,3.605804443E-1,-1.304794312E0,3.170166016E-1
8.463595746E0,4.127807617E-1,-1.264312744E0,2.925109863E-1
8.468661664E0,4.733276367E-1,-1.220642090E0,2.680053711E-1
8.473727582E0,5.453643799E-1,-1.156723022E0,2.456359863E-1
8.478762983E0,6.152954102E-1,-1.087478638E0,2.168731689E-1
8.483828901E0,6.789855957E-1,-1.028884888E0,1.795959473E-1
8.488894818E0,7.228240967E-1,-9.692382812E-1,1.359252930E-1
8.493930219E0,7.520599365E-1,-9.212951660E-1,8.479309082E-2
8.498996137E0,7.624969482E-1,-8.840179443E-1,2.832031250E-2
8.504062055E0,7.541503906E-1,-8.467254639E-1,-4.197692871E-2
8.509127973E0,7.301330566E-1,-8.254241943E-1,-1.122894287E-1
8.514193891E0,6.831665039E-1,-8.158416748E-1,-1.857910156E-1
8.519229291E0,6.080017090E-1,-8.094482422E-1,-2.518310547E-1
8.524295209E0,5.286560059E-1,-8.105163574E-1,-3.157501221E-1
8.529361127E0,4.503631592E-1,-8.041229248E-1,-3.775329590E-1
8.534396527E0,3.762359619E-1,-8.073120117E-1,-4.297332764E-1
8.539462445E0,3.177795410E-1,-8.222351074E-1,-4.755401611E-1
8.544528363E0,2.916717529E-1,-8.169097900E-1,-5.181579590E-1
8.549563764E0,2.979431152E-1,-7.987976074E-1,-5.639648438E-1
8.554629682E0,3.209075928E-1,-7.774810791E-1,-6.214904785E-1
8.559695600E0,3.459625244E-1,-7.721557617E-1,-6.619567871E-1
8.564761518E0,3.637084961E-1,-7.828216553E-1,-6.896667480E-1
8.569796918E0,3.783264160E-1,-8.083801270E-1,-7.035064697E-1
8.574862836E0,3.877258301E-1,-8.424682617E-1,-7.035064697E-1
8.579928754E0,3.877258301E-1,-8.616485596E-1,-6.949920654E-1
8.584964154E0,3.678894043E-1,-8.446044922E-1,-6.885986328E-1
8.590030072E0,3.376159668E-1,-8.051910400E-1,-6.907196045E-1
8.595095990E0,3.041992188E-1,-7.561798096E-1,-6.992492676E-1
8.600161908E0,2.770538330E-1,-7.039794922E-1,-7.088317871E-1
8.605197309E0,2.551422119E-1,-6.517944336E-1,-7.162933350E-1
8.610263227E0,2.467803955E-1,-6.049194336E-1,-7.194824219E-1
8.615329145E0,2.509613037E-1,-5.708312988E-1,-7.162933350E-1
8.620364545E0,2.478332520E-1,-5.441894531E-1,-7.045745850E-1
8.625430463E0,2.499237061E-1,-5.218200684E-1,-6.790008545E-1
8.630496381E0,2.540893555E-1,-4.898681641E-1,-6.417236328E-1
8.635531781E0,2.624511719E-1,-4.845428467E-1,-5.969848633E-1
8.640597699E0,2.666168213E-1,-5.090484619E-1,-5.426483154E-1
8.645663617E0,2.666168213E-1,-5.612335205E-1,-4.808654785E-1
8.650729535E0,2.613983154E-1,-6.123657227E-1,-4.286651611E-1
8.655795453E0,2.426147461E-1,-6.560516357E-1,-3.892517090E-1
8.660830854E0,2.154693604E-1,-7.007904053E-1,-3.530426025E-1
8.665896772E0,1.831054688E-1,-7.402038574E-1,-3.136291504E-1
8.670932172E0,1.528320312E-1,-7.711029053E-1,-2.752685547E-1
8.675998090E0,1.288146973E-1,-7.860107422E-1,-2.433166504E-1
8.681064008E0,1.194152832E-1,-7.785491943E-1,-2.156219482E-1
8.686129926E0,1.183776855E-1,-7.657775879E-1,-1.900482178E-1
8.691165326E0,1.246490479E-1,-7.487335205E-1,-1.655578613E-1
8.696231244E0,1.465606689E-1,-7.146453857E-1,-1.314697266E-1
8.701297162E0,1.663970947E-1,-6.539154053E-1,-8.885192871E-2
8.706332563E0,1.768341064E-1,-5.452575684E-1,-4.090881348E-2
8.711398481E0,1.872863770E-1,-4.163665771E-1,2.619934082E-2
8.716464399E0,1.945800781E-1,-2.991790771E-1,1.007690430E-1
8.721530317E0,1.977233887E-1,-1.607055664E-1,1.774597168E-1
8.726565717E0,1.998138428E-1,-1.902770996E-2,2.658843994E-1
8.731631635E0,1.914520264E-1,1.088104248E-1,3.585662842E-1
8.736697553E0,1.643066406E-1,2.440948486E-1,4.523010254E-1
8.741732953E0,9.019470215E-2,4.102783203E-1,5.407257080E-1
8.746798871E0,-4.344177246E-2,5.775299072E-1,6.142272949E-1
8.751864789E0,-2.125549316E-1,7.437133789E-1,6.813354492E-1
8.756930707E0,-4.077758789E-1,9.077606201E-1,7.292785645E-1
8.761966108E0,-6.165618896E-1,1.047302246E0,7.569732666E-1
8.767032026E0,-8.274536133E-1,1.141052246E0,7.708129883E-1
8.772097943E0,-1.026840210E0,1.186859131E0,7.686920166E-1
8.777163861E0,-1.200149536E0,1.242248535E0,7.697448730E-1
8.782199262E0,-1.335861206E0,1.329605103E0,7.633666992E-1
8.787265180E0,-1.417282104E0,1.426544189E0,7.377929688E-1
8.792331098E0,-1.442337036E0,1.522415161E0,6.962432861E-1
8.797397016E0,-1.417282104E0,1.596984863E0,6.429901123E-1
8.802432416E0,-1.360916138E0,1.640655518E0,5.780029297E-1
8.807498334E0,-1.282608032E0,1.653442383E0,5.087585449E-1
8.812564252E0,-1.187622070E0,1.624679565E0,4.448394775E-1
8.817599652E0,-1.087402344E0,1.542663574E0,3.894500732E-1
8.822665570E0,-9.903106689E-1,1.409500122E0,3.468475342E-1
8.827731488E0,-9.151458740E-1,1.226272583E0,3.148803711E-1
8.832766889E0,-8.754730225E-1,1.017486572E0,2.989044189E-1
8.837832807E0,-8.796539307E-1,8.044281006E-1,3.063659668E-1
8.842898725E0,-9.308013916E-1,6.084136963E-1,3.425750732E-1
8.847964643E0,-1.015365601E0,4.230651855E-1,3.969116211E-1
8.853000043E0,-1.117675781E0,2.504882812E-1,4.533691406E-1
8.858065961E0,-1.224151611E0,1.088104248E-1,4.970397949E-1
8.863131879E0,-1.325424194E0,-6.240844727E-3,5.215454102E-1
8.868197797E0,-1.405807495E0,-8.613586426E-2,5.375213623E-1
8.873233197E0,-1.450698853E0,-1.191558838E-1,5.513763428E-1
8.878299115E0,-1.449645996E0,-1.095733643E-1,5.567016602E-1
8.883365033E0,-1.399536133E0,-3.819274902E-2,5.417785645E-1
8.888400434E0,-1.321243286E0,1.002960205E-1,4.949188232E-1
8.893466352E0,-1.225204468E0,3.090820312E-1,4.267425537E-1
8.898532270E0,-1.127059937E0,5.711364746E-1,3.479003906E-1
8.903567670E0,-1.032058716E0,8.385162354E-1,2.637481689E-1
8.908633588E0,-9.433288574E-1,1.076065063E0,1.763916016E-1
8.913699506E0,-8.587646484E-1,1.272079468E0,9.649658203E-2
8.918765424E0,-7.794342041E-1,1.446777344E0,3.578186035E-2
8.923800824E0,-6.979980469E-1,1.587402344E0,8.087158203E-3
8.928866742E0,-6.259613037E-1,1.681137085E0,-5.767822266E-3
8.933932660E0,-5.821228027E-1,1.713104248E0,-6.820678711E-3
8.938968061E0,-5.476684570E-1,1.709899902E0,7.019042969E-3
8.944033979E0,-5.309600830E-1,1.700317383E0,2.299499512E-2
8.949099897E0,-5.278320312E-1,1.680068970E0,4.110717773E-2
8.954135297E0,-5.341033936E-1,1.655578613E0,5.708312988E-2
8.959201215E0,-5.476684570E-1,1.636398315E0,6.028747559E-2
8.964267133E0,-5.570678711E-1,1.612960815E0,5.815124512E-2
8.969333051E0,-5.549774170E-1,1.561828613E0,4.431152344E-2
8.974398969E0,-5.539245605E-1,1.491531372E0,2.832031250E-2
8.979434369E0,-5.539245605E-1,1.397781372E0,9.155273438E-3
8.984500287E0,-5.601959229E-1,1.306167603E0,-5.767822266E-3
8.989566205E0,-5.560150146E-1,1.218811035E0,-2.706909180E-2
8.994601606E0,-5.466308594E-1,1.135726929E0,-4.943847656E-2
8.999667524E0,-5.288696289E-1,1.067550659E0,-7.287597656E-2
9.004733442E0,-4.892120361E-1,1.013214111E0,-9.950256348E-2
9.009768842E0,-4.317932129E-1,9.844512939E-1,-1.271972656E-1
9.014834760E0,-3.597564697E-1,9.684753418E-1,-1.495666504E-1
9.019900678E0,-2.626647949E-1,9.695434570E-1,-1.772613525E-1
9.024966596E0,-1.603546143E-1,9.983062744E-1,-2.070922852E-1
9.030001996E0,-5.387878418E-2,1.022811890E0,-2.390594482E-1
9.035067914E0,6.095886230E-2,1.047302246E0,-2.635498047E-1
9.040133832E0,1.768341064E-1,1.075012207E0,-2.774047852E-1
9.045169233E0,3.031616211E-1,1.096313477E0,-2.827301025E-1
9.050235151E0,4.388732910E-1,1.105895996E0,-2.805938721E-1
9.055301068E0,5.599670410E-1,1.092056274E0,-2.784729004E-1
9.060366986E0,6.695861816E-1,1.081390381E0,-2.699432373E-1
9.065402387E0,7.729339600E-1,1.059020996E0,-2.550354004E-1
9.070468305E0,8.606262207E-1,1.027069092E0,-2.315979004E-1
9.075534223E0,9.347534180E-1,9.706115723E-1,-2.028350830E-1
9.080569623E0,9.942626953E-1,9.002990723E-1,-1.655578613E-1
9.085635541E0,1.038101196E0,8.172149658E-1,-1.133575439E-1
9.090701459E0,1.050628662E0,7.373199463E-1,-5.262756348E-2
9.095767377E0,1.043319702E0,6.776580811E-1,7.019042969E-3
9.100802777E0,1.017227173E0,6.446380615E-1,5.921936035E-2
9.105868695E0,9.733734131E-1,6.233367920E-1,9.970092773E-2
9.110934613E0,9.149169922E-1,6.169433594E-1,1.455078125E-1
9.115970014E0,8.480987549E-1,6.148071289E-1,1.902465820E-1
9.121035932E0,7.739868164E-1,6.275939941E-1,2.296600342E-1
9.126101850E0,7.029876709E-1,6.702117920E-1,2.605590820E-1
9.131167768E0,6.320037842E-1,7.330627441E-1,2.893218994E-1
9.136203168E0,5.547485352E-1,8.140106201E-1,3.127593994E-1
9.141269086E0,4.754180908E-1,9.109497070E-1,3.329925537E-1
9.146335004E0,3.981628418E-1,1.006835938E0,3.511047363E-1
9.151370404E0,3.125610352E-1,1.081390381E0,3.542938232E-1
9.156436322E0,2.071075439E-1,1.131469727E0,3.542938232E-1
9.161502240E0,8.288574219E-2,1.148513794E0,3.617553711E-1
9.166568158E0,-4.551696777E-2,1.126144409E0,3.745422363E-1
9.171603559E0,-1.749725342E-1,1.075012207E0,3.915863037E-1
9.176669477E0,-2.814636230E-1,9.972381592E-1,4.107513428E-1
9.181735395E0,-3.534851074E-1,9.013671875E-1,4.331207275E-1
9.186770795E0,-3.733215332E-1,8.012390137E-1,4.405822754E-1
9.191836713E0,-3.367919922E-1,7.245330811E-1,4.331207275E-1
9.196902631E0,-2.459564209E-1,6.808624268E-1,4.064941406E-1
9.201968549E0,-1.321716309E-1,6.691436768E-1,3.574981689E-1
9.207003949E0,-1.420593262E-2,6.723327637E-1,2.957153320E-1
9.212069867E0,8.601379395E-2,6.680755615E-1,2.264709473E-1
9.217135785E0,1.569976807E-1,6.734008789E-1,1.625518799E-1
9.222171186E0,1.517791748E-1,7.138824463E-1,9.330749512E-2
9.227237104E0,5.574035645E-2,7.160186768E-1,-1.321411133E-2
9.232303022E0,-6.222534180E-2,6.275939941E-1,-1.218719482E-1
9.237368940E0,-1.321716309E-1,5.189361572E-1,-1.826019287E-1
9.242404340E0,-1.321716309E-1,4.305267334E-1,-2.017669678E-1
9.247470258E0,-1.154632568E-1,3.239898682E-1,-2.070922852E-1
9.252536176E0,-1.248626709E-1,1.887054443E-1,-2.028350830E-1
9.257571576E0,-1.781005859E-1,6.620788574E-2,-1.772613525E-1
9.262637494E0,-2.689361572E-1,-1.902770996E-2,-1.367950439E-1
9.267703412E0,-3.785400391E-1,-1.234130859E-1,-9.950256348E-2
9.272769330E0,-4.589385986E-1,-2.928009033E-1,-6.967163086E-2
9.277804731E0,-4.829406738E-1,-5.505828857E-1,-3.771972656E-2
9.282870649E0,-4.557952881E-1,-8.115844727E-1,3.829956055E-3
9.287936567E0,-3.879394531E-1,-9.969329834E-1,5.603027344E-2
9.292971967E0,-2.804107666E-1,-1.089614868E0,9.756469727E-2
9.298037885E0,-1.561889648E-1,-1.097061157E0,8.584594727E-2
9.303103803E0,-3.822326660E-2,-1.045928955E0,4.963684082E-2
9.308169721E0,4.843139648E-2,-9.276885986E-1,2.406311035E-2
9.313205121E0,7.975769043E-2,-8.083801270E-1,1.022338867E-2
9.318271039E0,6.513977051E-2,-7.359466553E-1,7.019042969E-3
9.323336957E0,4.217529297E-2,-6.922607422E-1,1.980590820E-2
9.328372358E0,2.964782715E-2,-6.634979248E-1,3.684997559E-2
9.333438276E0,2.128601074E-2,-6.432647705E-1,5.175781250E-2
9.338504193E0,9.811401367E-3,-6.475219727E-1,6.135559082E-2
9.343570111E0,1.449584961E-3,-6.880035400E-1,6.135559082E-2
9.348605512E0,1.190185547E-2,-7.593841553E-1,5.921936035E-2
9.353671430E0,4.634094238E-2,-8.541870117E-1,5.070495605E-2
9.358737348E0,9.750366211E-2,-9.596557617E-1,3.791809082E-2
9.363772748E0,1.695251465E-1,-1.053390503E0,2.299499512E-2
9.368838666E0,2.499237061E-1,-1.132217407E0,1.022338867E-2
9.373904584E0,3.240356445E-1,-1.189743042E0,4.898071289E-3
9.378970502E0,3.845825195E-1,-1.234481812E0,3.829956055E-3
9.384005902E0,4.294738770E-1,-1.267517090E0,6.256103516E-4
9.389071820E0,4.806365967E-1,-1.282424927E0,-4.699707031E-3
9.394137738E0,5.296936035E-1,-1.278167725E0,-1.109313965E-2
9.399173139E0,5.818939209E-1,-1.258987427E0,-2.600097656E-2
9.404239057E0,6.340942383E-1,-1.225967407E0,-4.090881348E-2
9.409304975E0,6.748046875E-1,-1.188674927E0,-5.690002441E-2
9.414370893E0,7.092590332E-1,-1.157791138E0,-8.245849609E-2
9.419406293E0,7.364044189E-1,-1.141815186E0,-1.048278809E-1
9.424472211E0,7.562408447E-1,-1.153533936E0,-1.208038330E-1
9.429538129E0,7.645874023E-1,-1.187622070E0,-1.357269287E-1
9.434573529E0,7.635498047E-1,-1.232360840E0,-1.378479004E-1
9.439639447E0,7.593688965E-1,-1.279220581E0,-1.240081787E-1
9.444705365E0,7.364044189E-1,-1.343139648E0,-1.144256592E-1
9.449771283E0,6.915130615E-1,-1.420913696E0,-1.027069092E-1
9.454806684E0,6.403503418E-1,-1.494415283E0,-8.352661133E-2
9.459872602E0,5.892028809E-1,-1.561523438E0,-6.008911133E-2
9.464938520E0,5.370025635E-1,-1.626510620E0,-2.919006348E-2
9.469973920E0,4.900207520E-1,-1.688293457E0,4.898071289E-3
9.475039838E0,4.576721191E-1,-1.721313477E0,2.832031250E-2
9.480105756E0,4.357452393E-1,-1.727706909E0,4.963684082E-2
9.485171674E0,4.179992676E-1,-1.712783813E0,5.921936035E-2
9.490207074E0,4.138183594E-1,-1.677642822E0,6.135559082E-2
9.495272992E0,4.211273193E-1,-1.630767822E0,5.921936035E-2
9.500338910E0,4.493103027E-1,-1.575378418E0,5.815124512E-2
9.505374311E0,4.962921143E-1,-1.530624390E0,5.496215820E-2
9.510440229E0,5.422210693E-1,-1.500808716E0,5.282592773E-2
9.515506147E0,5.881652832E-1,-1.461395264E0,5.389404297E-2
9.520572065E0,6.382751465E-1,-1.435821533E0,6.028747559E-2
9.525607465E0,6.831665039E-1,-1.420913696E0,6.347656250E-2
9.530673383E0,7.144775391E-1,-1.403869629E0,6.240844727E-2
9.535739301E0,7.468414307E-1,-1.393218994E0,5.389404297E-2
9.540774701E0,7.687683105E-1,-1.372970581E0,4.003906250E-2
9.545840619E0,7.833862305E-1,-1.339950562E0,1.661682129E-2
9.550906537E0,7.948608398E-1,-1.305862427E0,-1.428222656E-2
9.555972455E0,8.032226562E-1,-1.268569946E0,-5.369567871E-2
9.561007856E0,8.084411621E-1,-1.230224609E0,-9.843444824E-2
9.566073774E0,8.000793457E-1,-1.183349609E0,-1.495666504E-1
9.571139692E0,7.729339600E-1,-1.137542725E0,-2.017669678E-1
9.576175092E0,7.259674072E-1,-1.084289551E0,-2.667541504E-1
9.581241010E0,6.685485840E-1,-1.027832031E0,-3.232116699E-1
9.586306928E0,5.975494385E-1,-9.862823486E-1,-3.754119873E-1
9.591372846E0,5.244750977E-1,-9.596557617E-1,-4.265441895E-1
9.596408246E0,4.764556885E-1,-9.287567139E-1,-4.776763916E-1
9.601474164E0,4.524383545E-1,-8.914794922E-1,-5.298767090E-1
9.606540082E0,4.409637451E-1,-8.403320312E-1,-5.714111328E-1
9.611606000E0,4.357452393E-1,-7.785491943E-1,-6.182861328E-1
9.616641401E0,4.388732910E-1,-7.263488770E-1,-6.459808350E-1
9.621707318E0,4.514007568E-1,-6.698913574E-1,-6.619567871E-1
9.626773236E0,4.701995850E-1,-6.177062988E-1,-6.811370850E-1
9.631808637E0,4.931640625E-1,-5.718994141E-1,-6.949920654E-1
9.636874555E0,5.161285400E-1,-5.271453857E-1,-7.120361328E-1
9.641940473E0,5.328369141E-1,-4.930572510E-1,-7.312011719E-1
9.646975873E0,5.411834717E-1,-4.696197510E-1,-7.482452393E-1
9.652041791E0,5.432739258E-1,-4.632415771E-1,-7.610321045E-1
9.657107709E0,5.401306152E-1,-4.685668945E-1,-7.695617676E-1
9.662173627E0,5.213470459E-1,-4.802856445E-1,-7.727508545E-1
9.667209027E0,4.816741943E-1,-5.015869141E-1,-7.684936523E-1
9.672274945E0,4.346923828E-1,-5.335388184E-1,-7.599639893E-1
9.677340863E0,3.898010254E-1,-5.761566162E-1,-7.418518066E-1
9.682376264E0,3.501434326E-1,-6.123657227E-1,-7.184295654E-1
9.687442182E0,3.177795410E-1,-6.464538574E-1,-6.939239502E-1
9.692508100E0,2.947998047E-1,-6.837463379E-1,-6.619567871E-1
9.697574018E0,2.812347412E-1,-7.156982422E-1,-6.214904785E-1
9.702609418E0,2.676696777E-1,-7.487335205E-1,-5.724792480E-1
9.707675336E0,2.603607178E-1,-7.711029053E-1,-5.160217285E-1
9.712741254E0,2.572174072E-1,-7.891998291E-1,-4.595642090E-1
9.717776654E0,2.593078613E-1,-8.062438965E-1,-4.031066895E-1
9.722842572E0,2.687072754E-1,-8.211669922E-1,-3.466491699E-1
9.727908490E0,2.833251953E-1,-8.318176270E-1,-3.029632568E-1
9.732974408E0,2.947998047E-1,-8.328857422E-1,-2.731475830E-1
9.738009809E0,3.073272705E-1,-8.286285400E-1,-2.561035156E-1
9.743075727E0,3.177795410E-1,-8.126373291E-1,-2.550354004E-1
9.748141645E0,3.261260986E-1,-7.924041748E-1,-2.635498047E-1
9.753177045E0,3.292541504E-1,-7.711029053E-1,-2.827301025E-1
9.758242963E0,3.282165527E-1,-7.497863770E-1,-2.987060547E-1
9.763308881E0,3.188171387E-1,-7.316894531E-1,-3.157501221E-1
9.768374799E0,3.135986328E-1,-7.103729248E-1,-3.221435547E-1
9.773410199E0,3.135986328E-1,-6.677703857E-1,-3.093566895E-1
9.778476117E0,3.115081787E-1,-5.963897705E-1,-2.880554199E-1
9.783542035E0,3.041992188E-1,-4.930572510E-1,-2.454528809E-1
9.788577436E0,2.937622070E-1,-3.673553467E-1,-1.857910156E-1
9.793643354E0,2.833251953E-1,-2.203521729E-1,-1.144256592E-1
9.798709272E0,2.718353271E-1,-5.416870117E-2,-3.025817871E-2
9.803775190E0,2.488708496E-1,7.472229004E-2,7.200622559E-2
9.808810590E0,1.987609863E-1,1.631469727E-1,1.689453125E-1
9.813876508E0,1.298675537E-1,2.291870117E-1,2.594909668E-1
9.818942426E0,5.364990234E-2,2.994995117E-1,3.361816406E-1
9.823977826E0,-2.360534668E-2,4.219970703E-1,3.926544189E-1
9.829043744E0,-1.060791016E-1,5.626068115E-1,4.331207275E-1
9.834109662E0,-1.906280518E-1,6.712646484E-1,4.736022949E-1
9.839175580E0,-2.877197266E-1,7.394409180E-1,5.247344971E-1
9.844210981E0,-3.921203613E-1,8.236083984E-1,5.694885254E-1
9.849276899E0,-4.850311279E-1,9.205474854E-1,6.014404297E-1
9.854342817E0,-5.706329346E-1,9.929809570E-1,6.238098145E-1
9.859408734E0,-6.666717529E-1,1.045181274E0,6.429901123E-1
9.864444135E0,-7.877807617E-1,1.083526611E0,6.536407471E-1
9.869510053E0,-9.339294434E-1,1.110153198E0,6.600341797E-1
9.874575971E0,-1.092620850E0,1.138916016E0,6.536407471E-1
9.879611371E0,-1.246078491E0,1.194320679E0,6.440429688E-1
9.884677289E0,-1.366134644E0,1.286987305E0,6.227416992E-1
9.889743207E0,-1.418334961E0,1.411636353E0,5.854644775E-1
9.894778608E0,-1.392227173E0,1.534133911E0,5.354003906E-1
9.899844526E0,-1.308715820E0,1.614028931E0,4.821319580E-1
9.904910443E0,-1.205368042E0,1.631072998E0,4.395141602E-1
9.909976361E0,-1.107223511E0,1.584197998E0,4.033050537E-1
9.915011762E0,-1.027893066E0,1.472351074E0,3.756103516E-1
9.920077680E0,-9.631652832E-1,1.306167603E0,3.638916016E-1
9.925143598E0,-9.318389893E-1,1.094177246E0,3.670806885E-1
9.930209516E0,-9.318389893E-1,8.534240723E-1,3.702697754E-1
9.935244916E0,-9.610748291E-1,6.105499268E-1,3.862609863E-1
9.940310834E0,-1.015365601E0,3.921661377E-1,4.118194580E-1
9.945376752E0,-1.078002930E0,2.078857422E-1,4.373931885E-1
9.950442670E0,-1.134368896E0,6.086730957E-2,4.480438232E-1
9.955478070E0,-1.184478760E0,-5.844116211E-2,4.501647949E-1
9.960543988E0,-1.221023560E0,-1.372680664E-1,4.555053711E-1
9.965609906E0,-1.247116089E0,-1.724243164E-1,4.746704102E-1
9.970645307E0,-1.241897583E0,-1.649627686E-1,4.970397949E-1
9.975711225E0,-1.202224731E0,-1.116943359E-1,5.076904297E-1
9.980777143E0,-1.130203247E0,-1.049804688E-2,5.162200928E-1
9.985812543E0,-1.048767090E0,1.333160400E-1,5.130157471E-1
9.990878461E0,-9.683837891E-1,3.165435791E-1,4.927825928E-1
9.995944379E0,-9.015655518E-1,5.221405029E-1,4.757385254E-1
1.000097978E1,-8.514556885E-1,7.351837158E-1,4.629516602E-1
1.000604570E1,-8.076171875E-1,9.386596680E-1,4.395141602E-1
1.001111162E1,-7.742004395E-1,1.133590698E0,4.011688232E-1
1.001617753E1,-7.481079102E-1,1.310424805E0,3.649444580E-1
1.002121293E1,-7.209625244E-1,1.459564209E0,3.329925537E-1
1.002627885E1,-6.990356445E-1,1.579940796E0,3.042297363E-1
1.003134477E1,-6.708526611E-1,1.679016113E0,2.743988037E-1
1.003638017E1,-6.395416260E-1,1.763168335E0,2.403106689E-1
1.004144609E1,-6.134338379E-1,1.840927124E0,2.136840820E-1
1.004651201E1,-5.810699463E-1,1.905914307E0,1.891784668E-1
1.005157792E1,-5.549774170E-1,1.942138672E0,1.763916016E-1
1.005661332E1,-5.299224854E-1,1.935745239E0,1.636199951E-1
1.006167924E1,-4.954681396E-1,1.912307739E0,1.497650146E-1
1.006674516E1,-4.495391846E-1,1.884613037E0,1.316528320E-1
1.007181108E1,-4.109039307E-1,1.856903076E0,1.039581299E-1
1.007684648E1,-3.900299072E-1,1.808975220E0,7.519531250E-2
1.008191240E1,-3.827209473E-1,1.749313354E0,5.496215820E-2
1.008697832E1,-3.795928955E-1,1.680068970E0,4.003906250E-2
1.009201372E1,-3.931579590E-1,1.591659546E0,2.726745605E-2
1.009707963E1,-4.088287354E-1,1.495788574E0,1.554870605E-2
1.010214555E1,-4.213562012E-1,1.399917603E0,2.761840820E-3
1.010721147E1,-4.234313965E-1,1.313629150E0,-1.428222656E-2
1.011224687E1,-4.067382812E-1,1.242248535E0,-3.558349609E-2
1.011731279E1,-3.691558838E-1,1.191116333E0,-5.902099609E-2
1.012237871E1,-3.211212158E-1,1.155960083E0,-8.245849609E-2
1.012741411E1,-2.584838867E-1,1.125076294E0,-1.048278809E-1
1.013248002E1,-1.927185059E-1,1.097381592E0,-1.208038330E-1
1.013754594E1,-1.248626709E-1,1.067550659E0,-1.367950439E-1
1.014258134E1,-5.282592773E-2,1.030258179E0,-1.442413330E-1
