"Time (s)","Gyroscope x (rad/s)","Gyroscope y (rad/s)","Gyroscope z (rad/s)"
1.321890600E-2,-4.622218311E-1,-5.298864562E-3,-2.784816027E-1
1.567036400E-2,-4.622218311E-1,-5.298864562E-3,-2.784816027E-1
1.813578100E-2,-4.622218311E-1,-5.298864562E-3,-2.784816027E-1
2.060765600E-2,-4.622218311E-1,-5.298864562E-3,-2.784816027E-1
2.308317700E-2,-4.622218311E-1,-5.298864562E-3,-2.784816027E-1
2.556020800E-2,-4.622218311E-1,-5.298864562E-3,-2.784816027E-1
2.803776000E-2,-4.622218311E-1,-5.298864562E-3,-2.784816027E-1
3.051546800E-2,-4.622218311E-1,-5.298864562E-3,-2.784816027E-1
3.299338500E-2,-4.622218311E-1,-5.298864562E-3,-2.784816027E-1
3.547156200E-2,-4.622218311E-1,-5.298864562E-3,-2.784816027E-1
3.794989500E-2,-4.622218311E-1,-5.298864562E-3,-2.784816027E-1
4.042822900E-2,-4.622218311E-1,-5.298864562E-3,-2.784816027E-1
4.290661400E-2,-4.622218311E-1,-5.298864562E-3,-2.784816027E-1
4.538510400E-2,-4.622218311E-1,-5.298864562E-3,-2.784816027E-1
4.786364500E-2,-4.622218311E-1,-5.298864562E-3,-2.784816027E-1
5.034218700E-2,-4.622218311E-1,-5.298864562E-3,-2.784816027E-1
5.282078100E-2,-4.622218311E-1,-5.298864562E-3,-2.784816027E-1
5.529942700E-2,-4.622218311E-1,-5.298864562E-3,-2.784816027E-1
5.777807300E-2,-4.622218311E-1,-5.298864562E-3,-2.784816027E-1
6.025671800E-2,-4.622218311E-1,-5.298864562E-3,-2.784816027E-1
6.273536400E-2,-4.622218311E-1,-5.298864562E-3,-2.784816027E-1
6.521406200E-2,-4.622218311E-1,-5.298864562E-3,-2.784816027E-1
6.769276000E-2,-4.622218311E-1,-5.298864562E-3,-2.784816027E-1
7.017145800E-2,-4.622218311E-1,-5.298864562E-3,-2.784816027E-1
7.265015600E-2,-4.622218311E-1,-5.298864562E-3,-2.784816027E-1
7.512890600E-2,-4.622218311E-1,-5.298864562E-3,-2.784816027E-1
7.760765600E-2,-3.088947833E-1,-1.732866615E-1,-3.432332575E-1
8.008640600E-2,-3.290533125E-1,-1.616802216E-1,-3.517853618E-1
8.256515600E-2,-3.522661626E-1,-1.445760131E-1,-3.591157496E-1
8.504395800E-2,-3.760899007E-1,-1.354130507E-1,-3.695004582E-1
8.752276000E-2,-3.980810344E-1,-1.293043941E-1,-3.756090999E-1
9.000156200E-2,-4.176287055E-1,-1.238066256E-1,-3.798851371E-1
9.248036400E-2,-4.365654886E-1,-1.213631630E-1,-3.829394579E-1
9.495921800E-2,-4.500045478E-1,-1.244174913E-1,-3.841612041E-1
9.743807300E-2,-4.603892267E-1,-1.268609464E-1,-3.817177415E-1
9.991692700E-2,-4.664978683E-1,-1.299152672E-1,-3.743873537E-1
1.023957810E-1,-4.658870399E-1,-1.409108341E-1,-3.615592122E-1
1.048746870E-1,-4.646652639E-1,-1.506846696E-1,-3.511745036E-1
1.073535930E-1,-4.518370926E-1,-1.635128260E-1,-3.359028995E-1
1.098325000E-1,-4.371763766E-1,-1.745083928E-1,-3.206312656E-1
1.123114060E-1,-4.176287055E-1,-1.910017282E-1,-2.998618782E-1
1.147903640E-1,-3.962484300E-1,-2.044407576E-1,-2.864228487E-1
1.172693230E-1,-3.718138337E-1,-2.209341079E-1,-2.729838192E-1
1.197482810E-1,-3.431032002E-1,-2.392600477E-1,-2.601556778E-1
1.222272390E-1,-3.137817085E-1,-2.643055022E-1,-2.497709841E-1
1.247062500E-1,-2.807950079E-1,-2.899618149E-1,-2.393862754E-1
1.271852600E-1,-2.514734864E-1,-3.198941946E-1,-2.381645441E-1
1.296642700E-1,-2.221519947E-1,-3.351657987E-1,-2.393862754E-1
1.321432810E-1,-1.940522194E-1,-3.315006196E-1,-2.406080067E-1
1.346223430E-1,-1.635089815E-1,-3.253919780E-1,-2.418297380E-1
1.371014060E-1,-1.378526539E-1,-3.266136944E-1,-2.424405962E-1
1.395804680E-1,-1.091420203E-1,-3.400527239E-1,-2.406080067E-1
1.420595310E-1,-9.142693877E-2,-3.553243577E-1,-2.387754172E-1
1.445385930E-1,-7.371185720E-2,-3.828132451E-1,-2.387754172E-1
1.470176560E-1,-6.332716346E-2,-3.931979537E-1,-2.406080067E-1
1.494967180E-1,-6.271629035E-2,-3.950305581E-1,-2.412188649E-1
1.519757810E-1,-7.187926769E-2,-3.999174833E-1,-2.399971336E-1
1.544548430E-1,-9.264867008E-2,-3.980848789E-1,-2.387754172E-1
1.569339060E-1,-1.195267141E-1,-3.870893121E-1,-2.406080067E-1
1.593822910E-1,-1.537351310E-1,-3.742611408E-1,-2.448840588E-1
1.618129680E-1,-1.983282566E-1,-3.608221412E-1,-2.467166483E-1
1.642444790E-1,-2.581930161E-1,-3.528808951E-1,-2.687077820E-1
1.666751040E-1,-3.192794919E-1,-3.534917533E-1,-2.882554531E-1
1.691049480E-1,-3.760899007E-1,-3.565460742E-1,-3.004727364E-1
1.715356770E-1,-4.371763766E-1,-3.492156863E-1,-3.139117658E-1
1.739671350E-1,-4.909324944E-1,-3.376092613E-1,-3.273507953E-1
1.763978640E-1,-5.483537912E-1,-3.296680152E-1,-3.377354741E-1
1.788276560E-1,-5.996663570E-1,-3.333332241E-1,-3.530071080E-1
1.812583850E-1,-6.485356092E-1,-3.449396491E-1,-3.682787120E-1
1.836898950E-1,-7.077894211E-1,-3.644873202E-1,-3.762199581E-1
1.861205200E-1,-7.548260689E-1,-3.852567077E-1,-3.866046667E-1
1.885503640E-1,-8.036952019E-1,-4.048043787E-1,-3.914915621E-1
1.909810930E-1,-8.482882977E-1,-4.292389750E-1,-3.914915621E-1
1.934126040E-1,-8.824967146E-1,-4.622256756E-1,-3.859938085E-1
1.958432290E-1,-9.112074375E-1,-5.007101893E-1,-3.768308163E-1
1.982730730E-1,-9.313658476E-1,-5.367512107E-1,-3.652243912E-1
2.007038020E-1,-9.478592873E-1,-5.795117021E-1,-3.481201828E-1
2.031352600E-1,-9.588547945E-1,-6.253265738E-1,-3.291833699E-1
2.055659890E-1,-9.600765705E-1,-6.729740500E-1,-3.065813780E-1
2.079957810E-1,-9.619091749E-1,-7.181780338E-1,-2.797033191E-1
2.104265100E-1,-9.509135485E-1,-7.749884129E-1,-2.534361482E-1
2.128579680E-1,-9.429723024E-1,-8.360748887E-1,-2.259472460E-1
2.152886450E-1,-9.240355492E-1,-9.008265734E-1,-2.015126646E-1
2.177184890E-1,-9.063204527E-1,-9.655782580E-1,-1.764672101E-1
2.201492180E-1,-8.776098490E-1,-1.027275562E0,-1.593630016E-1
2.225806770E-1,-8.488992453E-1,-1.082864285E0,-1.416479200E-1
2.250114060E-1,-8.238537312E-1,-1.129900813E0,-1.263763011E-1
2.274411980E-1,-7.920887470E-1,-1.173272252E0,-1.221002415E-1
2.298719270E-1,-7.615455389E-1,-1.212367535E0,-1.190459207E-1
2.323033850E-1,-7.395544052E-1,-1.253295541E0,-1.166024581E-1
2.347341140E-1,-7.163414955E-1,-1.289947391E0,-1.221002415E-1
2.371639060E-1,-6.931287050E-1,-1.316214561E0,-1.306523532E-1
2.395946350E-1,-6.790788174E-1,-1.342481732E0,-1.410370618E-1
2.420261450E-1,-6.656397581E-1,-1.359586000E0,-1.526434869E-1
2.444568230E-1,-6.619745493E-1,-1.378522754E0,-1.618064493E-1
2.468866140E-1,-6.613637209E-1,-1.407233477E0,-1.752454787E-1
2.493173430E-1,-6.631963253E-1,-1.423115849E0,-1.837975830E-1
2.517488020E-1,-6.699157953E-1,-1.444496155E0,-1.929605603E-1
2.541794790E-1,-6.815222502E-1,-1.456713438E0,-1.947931498E-1
2.566093230E-1,-6.919069290E-1,-1.470152497E0,-1.905170977E-1
2.590400520E-1,-7.157306671E-1,-1.471374273E0,-1.856301874E-1
2.614715100E-1,-7.365000248E-1,-1.465265632E0,-1.734128892E-1
2.639021870E-1,-7.682650089E-1,-1.454270005E0,-1.575303972E-1
2.663320310E-1,-8.067495823E-1,-1.442052722E0,-1.361501366E-1
2.687627600E-1,-8.458448648E-1,-1.432278872E0,-1.123264059E-1
2.711942180E-1,-8.843293190E-1,-1.418228984E0,-8.667008579E-2
2.736248950E-1,-9.258681536E-1,-1.393183589E0,-7.017674297E-2
2.760547390E-1,-9.612982273E-1,-1.378522754E0,-6.528982520E-2
2.784854680E-1,-9.881763458E-1,-1.377301097E0,-6.956587732E-2
2.809169270E-1,-1.016276121E0,-1.376079321E0,-7.689625025E-2
2.833476040E-1,-1.035823822E0,-1.391350985E0,-9.461133182E-2
2.857774480E-1,-1.055982351E0,-1.414563775E0,-1.104938164E-1
2.882081770E-1,-1.072475672E0,-1.446939588E0,-1.288197637E-1
2.906396350E-1,-1.084692955E0,-1.488478422E0,-1.471457034E-1
2.930703120E-1,-1.091412425E0,-1.549564958E0,-1.715802997E-1
2.955001560E-1,-1.093245029E0,-1.617981791E0,-1.911279708E-1
2.979308850E-1,-1.095688462E0,-1.676624775E0,-2.131190896E-1
3.003623430E-1,-1.095688462E0,-1.732213497E0,-2.332776338E-1
3.027930200E-1,-1.095077634E0,-1.788413048E0,-2.564904690E-1
3.052228640E-1,-1.093245029E0,-1.843390822E0,-2.748164237E-1
3.076535930E-1,-1.092634201E0,-1.897146940E0,-2.894771695E-1
3.100851040E-1,-1.091412425E0,-1.944794416E0,-2.998618782E-1
3.125157290E-1,-1.096910238E0,-2.004048109E0,-3.023053408E-1
3.149455730E-1,-1.094466805E0,-2.054139137E0,-3.078031242E-1
3.173763020E-1,-1.093855858E0,-2.109727859E0,-3.096356988E-1
3.198077600E-1,-1.098742843E0,-2.150044918E0,-3.090248406E-1
3.222384370E-1,-1.101797104E0,-2.195248842E0,-3.071922362E-1
3.246682810E-1,-1.095688462E0,-2.228846550E0,-3.108574450E-1
3.270990100E-1,-1.093855858E0,-2.260000467E0,-3.157443404E-1
3.295304680E-1,-1.082860351E0,-2.288100243E0,-3.218530118E-1
3.319611450E-1,-1.066977859E0,-2.314367533E0,-3.340702951E-1
3.343909890E-1,-1.043154120E0,-2.340023756E0,-3.517853618E-1
3.368217180E-1,-1.016886950E0,-2.358349800E0,-3.731656373E-1
3.392531770E-1,-9.857329130E-1,-2.385838747E0,-3.976002336E-1
3.416838540E-1,-9.521353245E-1,-2.410884142E0,-4.281434715E-1
3.441136980E-1,-9.099856615E-1,-2.431653500E0,-4.605192840E-1
3.465444270E-1,-8.733338118E-1,-2.452422857E0,-5.002254844E-1
3.489758850E-1,-8.287405968E-1,-2.467694521E0,-5.405426025E-1
3.514065620E-1,-7.872018814E-1,-2.467694521E0,-5.808596611E-1
3.538364060E-1,-7.456630468E-1,-2.451201200E0,-6.230093241E-1
3.562671350E-1,-7.096220255E-1,-2.422490597E0,-6.614938378E-1
3.586985930E-1,-6.717483997E-1,-2.390114784E0,-6.987565756E-1
3.611292700E-1,-6.454812288E-1,-2.330860853E0,-7.341867089E-1
3.635591140E-1,-6.204358339E-1,-2.276494026E0,-7.604538798E-1
3.659898430E-1,-5.892816782E-1,-2.222126961E0,-7.922188640E-1
3.684213020E-1,-5.611819029E-1,-2.171425104E0,-8.154317141E-1
3.708519790E-1,-5.245300531E-1,-2.135384083E0,-8.362011313E-1
3.732818230E-1,-4.878781140E-1,-2.095677853E0,-8.581922650E-1
3.757125520E-1,-4.555023015E-1,-2.051695824E0,-8.722421527E-1
3.781440100E-1,-4.176287055E-1,-2.004659176E0,-8.881246448E-1
3.805746870E-1,-3.834202588E-1,-1.952735662E0,-8.991202116E-1
3.830045310E-1,-3.486009836E-1,-1.890427470E0,-9.088940024E-1
3.854352600E-1,-3.003426790E-1,-1.826286674E0,-9.205004573E-1
3.878667180E-1,-2.539169490E-1,-1.760924101E0,-9.223330617E-1
3.902973950E-1,-2.007717192E-1,-1.687620282E0,-9.180570245E-1
3.927272390E-1,-1.537351310E-1,-1.597212315E0,-9.009527564E-1
3.951579680E-1,-1.042550951E-1,-1.500084877E0,-8.783507943E-1
3.975894270E-1,-5.416418612E-2,-1.400513887E0,-8.392554522E-1
4.000201040E-1,-8.960202336E-3,-1.293001771E0,-7.940514684E-1
4.024499480E-1,4.174157232E-2,-1.188543797E0,-7.433496714E-1
4.048806770E-1,8.938901871E-2,-1.086529493E0,-6.902044415E-1
4.073121350E-1,1.400907934E-1,-9.869585037E-1,-6.333940625E-1
4.097428120E-1,1.944577545E-1,-8.928853273E-1,-5.753619075E-1
4.121726560E-1,2.494355738E-1,-8.263010979E-1,-5.161080360E-1
4.146033850E-1,3.019699454E-1,-7.786536217E-1,-4.605192840E-1
4.170348430E-1,3.496173918E-1,-7.560516596E-1,-4.055414796E-1
4.194655200E-1,3.972648382E-1,-7.450560927E-1,-3.450658619E-1
4.218953640E-1,4.455231428E-1,-7.273409963E-1,-2.852011025E-1
4.243260930E-1,4.931705892E-1,-7.175671458E-1,-2.228929251E-1
4.267575520E-1,5.426506400E-1,-7.096258998E-1,-1.618064493E-1
4.291882290E-1,5.982393026E-1,-6.625893116E-1,-9.644392133E-2
4.316180730E-1,6.574932337E-1,-6.247157454E-1,-3.841177747E-2
4.340488020E-1,7.100275755E-1,-6.027246118E-1,1.595518179E-2
4.364802600E-1,7.619510889E-1,-5.831769109E-1,6.604608893E-2
4.389109370E-1,8.004355431E-1,-5.562988520E-1,1.124718115E-1
4.413407810E-1,8.242592812E-1,-5.324751139E-1,1.509562880E-1
4.437715100E-1,8.376983404E-1,-5.147600770E-1,1.723365486E-1
4.462029680E-1,8.328113556E-1,-5.037645102E-1,1.900516301E-1
4.486336450E-1,8.175398111E-1,-4.933797717E-1,1.998254508E-1
4.510634890E-1,7.937160730E-1,-4.884928465E-1,2.034906447E-1
4.534942180E-1,7.595076561E-1,-5.196470022E-1,1.918842196E-1
4.559256770E-1,7.124710083E-1,-5.740139484E-1,1.698930860E-1
4.583563540E-1,6.348912716E-1,-6.308243871E-1,1.393498480E-1
4.607861980E-1,5.420397520E-1,-7.035172582E-1,9.597846121E-2
4.632169270E-1,4.345275760E-1,-7.878165841E-1,3.367026150E-2
4.656483850E-1,3.044134080E-1,-8.598986268E-1,-3.657918423E-2
4.680790620E-1,1.571950018E-1,-9.069352150E-1,-1.178241894E-1
4.705089060E-1,-4.080906510E-4,-9.264829159E-1,-1.996800750E-1
4.729396350E-1,-1.696176231E-1,-9.020482898E-1,-2.827576697E-1
4.753710930E-1,-3.388271630E-1,-8.330205679E-1,-3.627809286E-1
4.778017700E-1,-4.976519644E-1,-7.413908839E-1,-4.318086505E-1
4.802316140E-1,-6.473138332E-1,-6.326569319E-1,-4.904516637E-1
4.826623430E-1,-7.841475010E-1,-5.184252262E-1,-5.374882817E-1
4.850938020E-1,-9.063204527E-1,-4.072478414E-1,-5.692532659E-1
4.875244790E-1,-1.009556532E0,-3.027899861E-1,-5.826922655E-1
4.899543230E-1,-1.100575447E0,-2.099385411E-1,-5.820813775E-1
4.923850520E-1,-1.175100923E0,-1.140327901E-1,-5.735293031E-1
4.948165100E-1,-1.224581003E0,-2.362480573E-2,-5.594794154E-1
4.972471870E-1,-1.260622025E0,4.479204491E-2,-5.423752069E-1
4.996770310E-1,-1.270395875E0,8.816343546E-2,-5.258818269E-1
5.021077600E-1,-1.269784927E0,1.406978071E-1,-5.167188644E-1
5.045392180E-1,-1.253902435E0,2.194993645E-1,-5.045015812E-1
5.069698950E-1,-1.229467869E0,2.683685422E-1,-4.873973429E-1
5.093997390E-1,-1.200757265E0,2.695902586E-1,-4.660170674E-1
5.118304680E-1,-1.164716244E0,2.683685422E-1,-4.391390383E-1
5.142619270E-1,-1.125620842E0,2.866944671E-1,-4.030980170E-1
5.166926040E-1,-1.079805970E0,2.952465713E-1,-3.652243912E-1
5.191224480E-1,-1.030936837E0,2.799749672E-1,-3.242964447E-1
5.215531770E-1,-9.704612494E-1,2.433230877E-1,-2.821467817E-1
5.239846350E-1,-9.142616987E-1,1.981190890E-1,-2.406080067E-1
5.264153120E-1,-8.598947525E-1,1.999516934E-1,-1.978474706E-1
5.288451560E-1,-8.055278063E-1,2.207210809E-1,-1.556978077E-1
5.312758850E-1,-7.572695017E-1,2.427122146E-1,-1.159915924E-1
5.337073430E-1,-7.047351599E-1,2.561512291E-1,-8.544836193E-2
5.361380200E-1,-6.552550793E-1,2.720337212E-1,-6.040290743E-2
5.385678640E-1,-6.033315659E-1,2.518751919E-1,-4.085523635E-2
5.409985930E-1,-5.538514853E-1,2.457665503E-1,-2.619448304E-2
5.434300520E-1,-4.952085316E-1,2.408796251E-1,-1.947497204E-2
5.458607290E-1,-4.438959062E-1,2.451556772E-1,-1.580978185E-2
5.482905730E-1,-3.883071840E-1,2.384361625E-1,-2.252929471E-2
5.507213020E-1,-3.376054168E-1,2.243862748E-1,-2.802707814E-2
5.531527600E-1,-2.856819332E-1,2.109472454E-1,-3.963350505E-2
5.555834370E-1,-2.410888076E-1,2.152233124E-1,-4.879647493E-2
5.580132810E-1,-2.019934654E-1,2.268297374E-1,-5.734858662E-2
5.604440100E-1,-1.653415710E-1,2.402687520E-1,-6.651155651E-2
5.628754680E-1,-1.299114078E-1,2.494317293E-1,-7.506366074E-2
5.653061450E-1,-9.692472219E-2,2.579838336E-1,-7.995057851E-2
5.677359890E-1,-6.210543215E-2,2.683685422E-1,-8.178316802E-2
5.701667180E-1,-3.705997765E-2,2.824184299E-1,-7.995057851E-2
5.725981770E-1,-9.571060538E-3,2.976900339E-1,-7.506366074E-2
5.750288540E-1,1.425265893E-2,3.044095635E-1,-6.773328036E-2
5.774586980E-1,3.196773678E-2,3.013552427E-1,-5.795944482E-2
5.798894270E-1,5.151540786E-2,2.946357131E-1,-5.307252705E-2
5.823208850E-1,6.373269856E-2,2.744771838E-1,-4.757475108E-2
5.847515620E-1,7.167394459E-2,2.494317293E-1,-4.390955716E-2
5.871814060E-1,6.739789248E-2,2.256080061E-1,-4.207696766E-2
5.896121350E-1,5.090454221E-2,2.182776332E-1,-4.329869151E-2
5.920435930E-1,2.769168466E-2,2.164450288E-1,-4.329869151E-2
5.944742700E-1,-2.851553261E-3,2.201102227E-1,-3.841177747E-2
5.969041140E-1,-4.377949238E-2,2.207210809E-1,-2.802707814E-2
5.993348430E-1,-8.776174486E-2,2.207210809E-1,-1.764237694E-2
6.017663020E-1,-1.354091913E-1,2.329383790E-1,1.905294135E-3
6.041969790E-1,-1.909978986E-1,2.500425875E-1,1.534431800E-2
6.066268230E-1,-2.490300238E-1,2.714228630E-1,3.122680075E-2
6.090575520E-1,-3.058404624E-1,2.903596759E-1,4.344409704E-2
6.114890100E-1,-3.571530879E-1,3.154051304E-1,5.260706693E-2
6.139196870E-1,-4.011353552E-1,3.465592265E-1,5.627225339E-2
6.163494790E-1,-4.377872050E-1,3.868762851E-1,5.932658166E-2
6.187802080E-1,-4.683304727E-1,4.345237315E-1,6.115917116E-2
6.212117180E-1,-4.915433228E-1,4.760625362E-1,5.932658166E-2
6.236423950E-1,-5.117018223E-1,5.279859900E-1,6.421349943E-2
6.260721870E-1,-5.312495232E-1,6.019006371E-1,8.376117051E-2
6.285029160E-1,-5.404125452E-1,6.819239259E-1,1.081957594E-1
6.309344270E-1,-5.550732613E-1,7.613363266E-1,1.430150419E-1
6.333651040E-1,-5.666797161E-1,8.554095030E-1,1.894407570E-1
6.357948950E-1,-5.721775293E-1,9.843019843E-1,2.413642555E-1
6.382256770E-1,-5.819512606E-1,1.137018085E0,2.908443213E-1
6.406571350E-1,-5.929468870E-1,1.300729871E0,3.482655883E-1
6.430878120E-1,-6.033315659E-1,1.473604560E0,4.075194895E-1
6.455176040E-1,-6.149380207E-1,1.647090197E0,4.643298984E-1
6.479483330E-1,-6.332639456E-1,1.828516960E0,5.309141278E-1
6.503798430E-1,-6.485356092E-1,1.998337507E0,5.944440365E-1
6.528105200E-1,-6.693049669E-1,2.152275324E0,6.622500420E-1
6.552403120E-1,-6.937395334E-1,2.309267521E0,7.196713090E-1
6.576710410E-1,-7.163414955E-1,2.490083456E0,7.709839344E-1
6.601025000E-1,-7.365000248E-1,2.640356302E0,8.198531270E-1
6.625331770E-1,-7.609347105E-1,2.758253098E0,8.644462824E-1
6.649630200E-1,-7.835366726E-1,2.857824087E0,9.023198485E-1
6.673937500E-1,-8.110256195E-1,2.941512585E0,9.487456083E-1
6.698252080E-1,-8.397362232E-1,3.003820658E0,9.902843833E-1
6.722558850E-1,-8.641707897E-1,3.037418365E0,1.031212330E0
6.746857290E-1,-8.892163038E-1,3.045970440E0,1.071529508E0
6.771164580E-1,-9.112074375E-1,3.008707762E0,1.105737925E0
6.795479160E-1,-9.325876236E-1,2.937847376E0,1.139335394E0
6.819785930E-1,-9.454157352E-1,2.846828461E0,1.163159132E0
6.844084370E-1,-9.564113617E-1,2.746646643E0,1.183928609E0
6.868391660E-1,-9.643526077E-1,2.629971504E0,1.196145892E0
6.892706250E-1,-9.692394733E-1,2.509020329E0,1.203476191E0
6.917013020E-1,-9.619091749E-1,2.399675608E0,1.203476191E0
6.941311450E-1,-9.503027201E-1,2.276891708E0,1.199200153E0
6.965618750E-1,-9.405288696E-1,2.158994913E0,1.191869855E0
6.989933330E-1,-9.215921164E-1,2.024604559E0,1.174765587E0
7.014240100E-1,-9.002118111E-1,1.894490361E0,1.155217886E0
7.038538540E-1,-8.763880730E-1,1.761321902E0,1.125896454E0
7.062845830E-1,-8.415688276E-1,1.632429481E0,1.087412000E0
7.087160410E-1,-8.085820675E-1,1.506591320E0,1.042818785E0
7.111467180E-1,-7.676541805E-1,1.408242106E0,9.976148009E-1
7.135765620E-1,-7.334457636E-1,1.342879534E0,9.536325336E-1
7.160072910E-1,-6.943503618E-1,1.279960513E0,9.120936990E-1
7.184387500E-1,-6.515898705E-1,1.209100127E0,8.687223196E-1
7.208694270E-1,-6.027207375E-1,1.112583518E0,8.216857314E-1
7.232992700E-1,-5.501863956E-1,9.873563051E-1,7.764817476E-1
7.257300000E-1,-5.068149567E-1,8.932831287E-1,7.434950471E-1
7.281614580E-1,-4.726065099E-1,8.596855402E-1,7.245582342E-1
7.305921350E-1,-4.304568470E-1,8.456356525E-1,7.062323093E-1
7.330219790E-1,-3.870854676E-1,8.144815564E-1,6.940150261E-1
7.354527080E-1,-3.449358046E-1,7.650015354E-1,6.805759668E-1
7.378841660E-1,-3.003426790E-1,7.356800437E-1,6.701912880E-1
7.403148430E-1,-2.569712698E-1,7.075802684E-1,6.622500420E-1
7.427446870E-1,-2.135998905E-1,6.892542839E-1,6.543087959E-1
7.451754160E-1,-1.683958918E-1,6.782587171E-1,6.488110423E-1
7.476068750E-1,-1.250244975E-1,6.446611881E-1,6.396480203E-1
7.500375520E-1,-8.409656584E-2,6.257243752E-1,6.268199086E-1
7.524673950E-1,-4.744467884E-2,6.141179204E-1,6.139917374E-1
7.548981250E-1,-1.140365750E-2,5.988463163E-1,5.987201333E-1
7.573295830E-1,2.158303559E-2,5.707465410E-1,5.810050368E-1
7.597602600E-1,5.518059433E-2,5.347055197E-1,5.626791120E-1
7.621901040E-1,7.717172801E-2,4.907232821E-1,5.449640155E-1
7.646208330E-1,1.016063169E-1,4.455192983E-1,5.254163146E-1
7.670522910E-1,1.235974431E-1,3.813785017E-1,5.083121061E-1
7.694829680E-1,1.443668455E-1,3.117399216E-1,4.905970991E-1
7.719128120E-1,1.584167331E-1,2.366035730E-1,4.857101738E-1
7.743435410E-1,1.773535311E-1,1.602454782E-1,4.765471816E-1
7.767750000E-1,1.914034188E-1,9.366121888E-2,4.753254652E-1
7.792056770E-1,1.987338066E-1,2.642376814E-3,4.710493982E-1
7.816355200E-1,2.011772692E-1,-1.042589545E-1,4.612755775E-1
7.840662500E-1,1.993446648E-1,-2.081059515E-1,4.594429731E-1
7.864977080E-1,1.932360232E-1,-3.186724484E-1,4.527234733E-1
7.889283850E-1,1.828513145E-1,-4.219085872E-1,4.478365481E-1
7.913581770E-1,1.749100834E-1,-5.281990767E-1,4.453930855E-1
7.937889580E-1,1.657471061E-1,-6.088332534E-1,4.472256899E-1
7.962204160E-1,1.565841436E-1,-6.534263492E-1,4.539451897E-1
7.986510930E-1,1.498646289E-1,-6.858021617E-1,4.698276818E-1
8.010808850E-1,1.492537558E-1,-7.139019370E-1,4.936514199E-1
8.035116140E-1,1.449777186E-1,-7.542190552E-1,5.223619938E-1
8.059431250E-1,1.388690621E-1,-8.049207926E-1,5.614573359E-1
8.083738020E-1,1.419233829E-1,-8.586769104E-1,5.999418497E-1
8.108035930E-1,1.419233829E-1,-9.307589531E-1,6.445349455E-1
8.132343230E-1,1.541406810E-1,-1.005895257E0,6.927932501E-1
8.156658330E-1,1.339821517E-1,-1.049877524E0,7.514362931E-1
8.180964580E-1,1.138236076E-1,-1.087751150E0,8.167988062E-1
8.205263020E-1,9.977371991E-2,-1.128068209E0,8.748309612E-1
8.229570310E-1,9.488680214E-2,-1.185489535E0,9.230892658E-1
8.253884890E-1,9.366507828E-2,-1.256960750E0,9.676824212E-1
8.278191660E-1,9.488680214E-2,-1.321101546E0,1.006777763E0
8.302490100E-1,1.016063169E-1,-1.398681283E0,1.044040561E0
8.326797390E-1,1.077149659E-1,-1.459156871E0,1.078248978E0
8.351111980E-1,1.052715033E-1,-1.516578197E0,1.107570529E0
8.375418750E-1,9.305420518E-2,-1.553230047E0,1.124674678E0
8.399717180E-1,8.022604883E-2,-1.586216807E0,1.131394148E0
8.424024480E-1,5.395886675E-2,-1.611262202E0,1.122231245E0
8.448339060E-1,2.830255032E-2,-1.631420732E0,1.110624790E0
8.472645830E-1,2.646230161E-3,-1.643027186E0,1.086190224E0
8.496944270E-1,-1.018192619E-2,-1.643638015E0,1.050149202E0
8.521251560E-1,-2.972959727E-2,-1.650968432E0,9.994474053E-1
8.545566140E-1,-3.644911200E-2,-1.672348738E0,9.536325336E-1
8.569872910E-1,-3.034046292E-2,-1.698615909E0,9.017090201E-1
8.594171350E-1,-1.629057527E-2,-1.730380893E0,8.442877531E-1
8.618478640E-1,9.365744889E-3,-1.771308780E0,7.856447101E-1
8.642793230E-1,5.212627351E-2,-1.819567084E0,7.270017266E-1
8.667100000E-1,9.488680214E-2,-1.869047165E0,6.732456088E-1
8.691398430E-1,1.498646289E-1,-1.936853170E0,6.115482450E-1
8.715705730E-1,2.103402317E-1,-2.004659176E0,5.498509407E-1
8.740020310E-1,2.763136327E-1,-2.068189144E0,4.893753529E-1
8.764327080E-1,3.398435414E-1,-2.130497217E0,4.337866604E-1
8.788625520E-1,4.052060843E-1,-2.186085939E0,3.824740350E-1
8.812932810E-1,4.791207016E-1,-2.251448393E0,3.354374468E-1
8.837247390E-1,5.542570353E-1,-2.324141264E0,2.877900004E-1
8.861554160E-1,6.355021000E-1,-2.403553724E0,2.499163598E-1
8.885852600E-1,7.185796499E-1,-2.468916416E0,2.108210176E-1
8.910159890E-1,8.114311695E-1,-2.540387392E0,1.784451902E-1
8.934474480E-1,9.048933983E-1,-2.597808838E0,1.497345567E-1
8.958781250E-1,9.953013659E-1,-2.640569210E0,1.320194751E-1
8.983079680E-1,1.102813601E0,-2.693103552E0,1.136935428E-1
9.007386980E-1,1.207271457E0,-2.727312088E0,1.051414311E-1
9.031701560E-1,1.311729312E0,-2.765796661E0,1.081957594E-1
9.056008330E-1,1.400915623E0,-2.828104734E0,1.081957594E-1
9.080306250E-1,1.486436725E0,-2.890413046E0,1.228565052E-1
9.104614060E-1,1.565238237E0,-2.965549231E0,1.521780044E-1
9.128928640E-1,1.628157258E0,-3.035187960E0,2.010471821E-1
9.153235410E-1,1.677637339E0,-3.101772070E0,2.676314712E-1
9.177533330E-1,1.724673867E0,-3.157971621E0,3.439895511E-1
9.201840620E-1,1.753995419E0,-3.220279932E0,4.313431978E-1
9.226155730E-1,1.782095194E0,-3.299692392E0,5.296924114E-1
9.250462500E-1,1.800421119E0,-3.384602547E0,6.231546998E-1
9.274760410E-1,1.801642895E0,-3.456684589E0,7.123409510E-1
9.299067700E-1,1.800421119E0,-3.527544975E0,7.972511649E-1
9.323382290E-1,1.796755910E0,-3.587409496E0,8.699440360E-1
9.347689060E-1,1.771099687E0,-3.639944077E0,9.255327582E-1
9.371987500E-1,1.739334702E0,-3.673541546E0,9.750127792E-1
9.396294790E-1,1.699017644E0,-3.685758829E0,1.003723502E0
9.420609370E-1,1.642818093E0,-3.686980486E0,1.022660255E0
9.444916140E-1,1.575622916E0,-3.668043852E0,1.034266710E0
9.469214580E-1,1.501708269E0,-3.636889696E0,1.039764524E0
9.493521870E-1,1.418019772E0,-3.577635765E0,1.039153576E0
9.517836450E-1,1.327611804E0,-3.516549349E0,1.034877539E0
9.542143230E-1,1.229262590E0,-3.442634583E0,1.027547240E0
9.566441660E-1,1.122972131E0,-3.361389637E0,1.017162442E0
9.590748950E-1,1.027066350E0,-3.292361975E0,1.012275577E0
9.615063540E-1,9.311605692E-1,-3.226999521E0,1.011053801E0
9.639370310E-1,8.511372805E-1,-3.175686836E0,1.028158069E0
9.663668750E-1,7.741683722E-1,-3.135980606E0,1.050149202E0
9.687976040E-1,7.234666348E-1,-3.099328756E0,1.073362112E0
9.712290620E-1,6.929233074E-1,-3.082224607E0,1.112457395E0
9.736597390E-1,6.782625914E-1,-3.089554787E0,1.163770080E0
9.760895830E-1,6.819278002E-1,-3.106048107E0,1.222413063E0
9.785203120E-1,7.020863295E-1,-3.146365404E0,1.289608121E0
9.809517700E-1,7.314078808E-1,-3.203175783E0,1.362911940E0
9.833824480E-1,7.778335810E-1,-3.277701139E0,1.441713452E0
9.858122910E-1,8.285353184E-1,-3.358946323E0,1.521736741E0
9.882430200E-1,8.798480034E-1,-3.459128141E0,1.604203463E0
9.906744790E-1,9.305497408E-1,-3.577024937E0,1.681783319E0
9.931051560E-1,9.849166870E-1,-3.708360910E0,1.753865361E0
9.955350000E-1,1.046003222E0,-3.857411861E0,1.821671367E0
9.979657290E-1,1.111365676E0,-4.024177551E0,1.876649141E0
1.000397187E0,1.175506473E0,-4.219654560E0,1.924296618E0
1.002827864E0,1.238425612E0,-4.407800674E0,1.968889713E0
1.005257708E0,1.311118484E0,-4.617938042E0,2.008595705E0
1.007688437E0,1.380146265E0,-4.819523335E0,2.043415070E0
1.010119895E0,1.463834643E0,-5.018665314E0,2.073958397E0
1.012550573E0,1.526142836E0,-5.172603130E0,2.100225449E0
1.014980416E0,1.542636275E0,-5.243463516E0,2.119773149E0
1.017411093E0,1.543857932E0,-5.260567665E0,2.124660015E0
1.019842604E0,1.527364612E0,-5.248961449E0,2.128936291E0
1.022273281E0,1.526753783E0,-5.288667679E0,2.130768776E0
1.024703073E0,1.557296991E0,-5.359528065E0,2.136266470E0
1.027133802E0,1.603722692E0,-5.449935913E0,2.148483753E0
1.029565312E0,1.667863488E0,-5.541565418E0,2.153370857E0
1.031995989E0,1.717343569E0,-5.603262901E0,2.162533760E0
1.034425781E0,1.760104060E0,-5.664349556E0,2.169253349E0
1.036856510E0,1.793090701E0,-5.710164070E0,2.167420626E0
1.039287968E0,1.818136215E0,-5.741318226E0,2.161312103E0
1.041718645E0,1.850512028E0,-5.758422375E0,2.155814171E0
1.044148489E0,1.860285878E0,-5.771250725E0,2.149705648E0
1.046579218E0,1.895716071E0,-5.796296120E0,2.155814171E0
1.049010677E0,1.923204899E0,-5.797517776E0,2.146040440E0
1.051441354E0,1.944585204E0,-5.788965702E0,2.146651268E0
1.053871198E0,1.961689472E0,-5.752924919E0,2.150927305E0
1.056301927E0,1.989178300E0,-5.715051174E0,2.155203342E0
1.058733385E0,1.994065285E0,-5.671069145E0,2.158257723E0
1.061164062E0,2.012391090E0,-5.640525818E0,2.165588140E0
1.063593906E0,2.031327963E0,-5.627697468E0,2.180248737E0
1.066024635E0,2.066758156E0,-5.635027885E0,2.193687916E0
1.068456093E0,2.101577282E0,-5.647856236E0,2.205294371E0
1.070886770E0,2.127844572E0,-5.636249542E0,2.202850819E0
1.073316614E0,2.158387661E0,-5.629529953E0,2.198574781E0
1.075747343E0,2.179768085E0,-5.623421669E0,2.182081461E0
1.078178802E0,2.204202652E0,-5.624643326E0,2.147872925E0
1.080609479E0,2.232913256E0,-5.635638714E0,2.098392963E0
1.083039323E0,2.238410950E0,-5.639914989E0,2.025700092E0
1.085470052E0,2.233524084E0,-5.646023273E0,1.937124729E0
1.087901510E0,2.221306801E0,-5.677788258E0,1.832666874E0
1.090332187E0,2.197483063E0,-5.711386204E0,1.719656944E0
1.092762031E0,2.163885593E0,-5.744372845E0,1.596262217E0
1.095192760E0,2.132731438E0,-5.774304867E0,1.472256660E0
1.097624218E0,2.094246864E0,-5.807902813E0,1.348862052E0
1.100054895E0,2.059427738E0,-5.829893589E0,1.224856496E0
1.102484739E0,2.029495239E0,-5.859215260E0,1.117344260E0
1.104915416E0,2.000784636E0,-5.883649826E0,1.018384218E0
1.107346927E0,1.986124039E0,-5.906862736E0,9.334739447E-1
1.109777604E0,1.978182793E0,-5.929464817E0,8.601701856E-1
1.112207395E0,1.981237054E0,-5.934962273E0,7.978619933E-1
1.114638125E0,1.991010904E0,-5.923356056E0,7.471602559E-1
1.117069583E0,2.006282568E0,-5.894645214E0,7.007344961E-1
1.119500312E0,2.020943165E0,-5.857382774E0,6.714130044E-1
1.121930104E0,2.031327963E0,-5.806680679E0,6.384263039E-1
1.124360833E0,2.036825657E0,-5.763920307E0,6.029961705E-1
1.126792291E0,2.031938791E0,-5.728490353E0,5.651225448E-1
1.129222968E0,2.014223814E0,-5.689394951E0,5.248054862E-1
1.131652812E0,1.989178300E0,-5.659462452E0,4.887644947E-1
1.134083541E0,1.956802487E0,-5.630140781E0,4.545560479E-1
1.136515000E0,1.926870108E0,-5.616702080E0,4.252345562E-1
1.138945677E0,1.893883467E0,-5.612425804E0,3.989673853E-1
1.141375520E0,1.857231498E0,-5.612425804E0,3.775871098E-1
1.143806250E0,1.823634028E0,-5.611204147E0,3.580394387E-1
1.146237708E0,1.804086328E0,-5.630140781E0,3.452112675E-1
1.148668385E0,1.776597381E0,-5.644190788E0,3.549851179E-1
1.151098229E0,1.761936665E0,-5.665571213E0,3.794197142E-1
1.153528958E0,1.752773643E0,-5.687562466E0,4.172933102E-1
1.155960416E0,1.742999792E0,-5.688784122E0,4.692168236E-1
1.158391093E0,1.736280322E0,-5.667403698E0,5.358010530E-1
1.160820937E0,1.731393456E0,-5.616702080E0,6.048287749E-1
1.163251666E0,1.724673867E0,-5.539732933E0,6.824085712E-1
1.165683125E0,1.721619606E0,-5.440773010E0,7.679296136E-1
1.168113802E0,1.716732621E0,-5.324708462E0,8.565050364E-1
1.170543645E0,1.716121793E0,-5.182988167E0,9.517999291E-1
1.172974375E0,1.714289188E0,-5.029050350E0,1.047094822E0
1.175405833E0,1.718565226E0,-4.866559982E0,1.128950715E0
1.177836510E0,1.722841263E0,-4.699182987E0,1.200421929E0
1.180266302E0,1.726506472E0,-4.529362679E0,1.259064913E0
1.182697083E0,1.722841263E0,-4.344270706E0,1.318318844E0
1.185128541E0,1.725895643E0,-4.183002472E0,1.365355372E0
1.187559218E0,1.722230434E0,-4.029064655E0,1.395287752E0
1.189989010E0,1.715510964E0,-3.884900808E0,1.416668057E0
1.192419739E0,1.711234927E0,-3.748677969E0,1.419722319E0
1.194851198E0,1.703904510E0,-3.622228861E0,1.406894207E0
1.197281875E0,1.691076398E0,-3.490282059E0,1.380016088E0
1.199711718E0,1.672139525E0,-3.371163607E0,1.337866426E0
1.202142448E0,1.640985489E0,-3.244714499E0,1.278612614E0
1.204573906E0,1.609220505E0,-3.129871845E0,1.204087138E0
1.207004583E0,1.567070842E0,-2.996092558E0,1.119787812E0
1.209434427E0,1.508427739E0,-2.857426167E0,1.029379845E0
1.211865156E0,1.447341323E0,-2.721203327E0,9.304196239E-1
1.214296614E0,1.369150639E0,-2.583758831E0,8.381790519E-1
1.216727291E0,1.280575275E0,-2.442038298E0,7.465493679E-1
1.219157135E0,1.171230435E0,-2.294819832E0,6.543087959E-1
1.221587864E0,1.037451029E0,-2.135384083E0,5.730637908E-1
1.224019323E0,8.688523769E-1,-1.982057095E0,5.003708601E-1
1.226450000E0,6.758191586E-1,-1.815291047E0,4.411170483E-1
1.228879843E0,4.607947767E-1,-1.638140321E0,3.977456391E-1
1.231310573E0,2.384400070E-1,-1.448161364E0,3.537633717E-1
1.233742031E0,3.135687113E-2,-1.252684593E0,3.116137087E-1
1.236172708E0,-1.928304732E-1,-1.045601487E0,2.725183666E-1
1.238602552E0,-4.005244970E-1,-8.275228143E-1,2.438077182E-1
1.241033281E0,-5.843948126E-1,-6.289917827E-1,2.352556139E-1
1.243464739E0,-7.774280310E-1,-4.267955124E-1,2.486946434E-1
1.245895416E0,-9.625200033E-1,-2.465904206E-1,2.798487544E-1
1.248325208E0,-1.101797104E0,-1.225848943E-1,3.177223504E-1
1.250755937E0,-1.275893569E0,3.074215539E-2,3.739219308E-1
1.253187448E0,-1.387071013E0,1.248153225E-1,4.246236980E-1
1.255618125E0,-1.456709504E0,2.072820663E-1,4.667733610E-1
1.258047916E0,-1.537954569E0,3.013552427E-1,5.052577853E-1
1.260478645E0,-1.596597552E0,4.339128733E-1,5.290815234E-1
1.262910156E0,-1.631416917E0,5.365381241E-1,5.437422991E-1
1.265340781E0,-1.649131894E0,6.495481133E-1,5.382444859E-1
1.267770625E0,-1.686394691E0,7.540059686E-1,5.241945982E-1
1.270201354E0,-1.704109788E0,8.883962035E-1,4.875427485E-1
1.272632812E0,-1.721824884E0,9.812476635E-1,4.453930855E-1
1.275063489E0,-1.708385825E0,1.113805294E0,3.855283558E-1
1.277493333E0,-1.691892505E0,1.228647828E0,3.329939842E-1
1.279924062E0,-1.665625334E0,1.325164437E0,2.859573960E-1
1.282355520E0,-1.632027745E0,1.435730934E0,2.529706955E-1
1.284786198E0,-1.629584312E0,1.547519207E0,2.248709053E-1
1.287216041E0,-1.569108725E0,1.640981555E0,2.132644802E-1
1.289646770E0,-1.511687398E0,1.710009217E0,2.144862115E-1
1.292078229E0,-1.484809279E0,1.775371790E0,2.242600471E-1
1.294508906E0,-1.407840371E0,1.832792997E0,2.376990765E-1
1.296938750E0,-1.341256142E0,1.879218817E0,2.554141581E-1
1.299369479E0,-1.252069831E0,1.857227683E0,2.719075084E-1
1.301800937E0,-1.189150810E0,1.843788624E0,2.896225750E-1
1.304231614E0,-1.108516693E0,1.785145640E0,3.006181419E-1
1.306661458E0,-1.015665174E0,1.720393896E0,3.091702461E-1
1.309092187E0,-9.038770199E-1,1.620823026E0,3.116137087E-1
1.311523645E0,-7.878127098E-1,1.474826336E0,3.067268133E-1
1.313954323E0,-6.460920572E-1,1.305005908E0,2.969529629E-1
1.316384114E0,-5.263626575E-1,1.177335262E0,2.780161500E-1
1.318814843E0,-3.840311468E-1,1.000795364E0,2.627445459E-1
1.321246354E0,-2.624690533E-1,8.462465405E-1,2.493055016E-1
1.323676979E0,-1.409069747E-1,6.825348139E-1,2.346447408E-1
1.326106823E0,-3.828170896E-2,5.194339156E-1,2.340338826E-1
1.328537552E0,1.486352459E-2,3.606091142E-1,2.474728972E-1
1.330969010E0,5.640232563E-2,2.011734098E-1,2.639662623E-1
1.333399687E0,6.678702682E-2,-1.324010640E-2,2.908443213E-1
1.335829531E0,9.794113040E-2,-1.897800118E-1,3.213875592E-1
1.338260260E0,1.590276062E-1,-3.791480660E-1,3.458221555E-1
1.340691718E0,2.585985661E-1,-5.562988520E-1,3.568176925E-1
1.343122395E0,3.483956754E-1,-7.285627127E-1,3.580394387E-1
1.345552239E0,4.467448890E-1,-8.715050817E-1,3.433786929E-1
1.347982968E0,5.426506400E-1,-9.857367873E-1,3.336048424E-1
1.350414427E0,6.226738691E-1,-1.125624776E0,3.219984174E-1
1.352845104E0,6.794843674E-1,-1.253295541E0,3.256635964E-1
1.355274948E0,7.118601799E-1,-1.369970679E0,3.391026258E-1
1.357705677E0,7.533990145E-1,-1.455491781E0,3.421569467E-1
1.360137135E0,7.637836933E-1,-1.496419668E0,3.476547301E-1
1.362567812E0,8.279244900E-1,-1.570945144E0,3.592611551E-1
1.364997656E0,8.963413239E-1,-1.576442957E0,3.775871098E-1
1.367428385E0,9.659799337E-1,-1.595990658E0,3.873609304E-1
1.369859843E0,9.830840826E-1,-1.597212315E0,4.142389894E-1
1.372290520E0,1.005075216E0,-1.582551599E0,4.392844439E-1
1.374720312E0,9.904145002E-1,-1.533682466E0,4.698276818E-1
1.377151041E0,9.458214045E-1,-1.453659177E0,4.936514199E-1
1.379582552E0,8.902326822E-1,-1.341260076E0,5.077012777E-1
1.382013229E0,8.413635492E-1,-1.224584818E0,5.144207478E-1
1.384443020E0,8.138746023E-1,-1.123181343E0,5.095338821E-1
1.386873750E0,8.193724155E-1,-1.036438584E0,4.997600615E-1
1.389305208E0,8.028789759E-1,-9.160981774E-1,4.850992858E-1
1.391735885E0,8.132637739E-1,-8.501247764E-1,4.673842192E-1
1.394165729E0,7.912726402E-1,-7.731558681E-1,4.563886523E-1
1.396596458E0,7.943269014E-1,-7.230649590E-1,4.618864357E-1
1.399027916E0,7.888290882E-1,-6.741957664E-1,4.857101738E-1
1.401458593E0,7.766118050E-1,-6.118875742E-1,5.199185610E-1
1.403888437E0,7.637836933E-1,-5.385838151E-1,5.608465075E-1
1.406319166E0,7.204122543E-1,-4.322932959E-1,6.280416250E-1
1.408750625E0,6.855930090E-1,-3.345549405E-1,6.921824217E-1
1.411181302E0,6.263390779E-1,-2.166580558E-1,7.673187852E-1
1.413611145E0,5.799133778E-1,-1.213631630E-1,8.320704103E-1
1.416041875E0,5.261572599E-1,9.361889213E-3,8.644462824E-1
1.418473333E0,4.778989851E-1,9.610467404E-2,8.571158648E-1
1.420904010E0,4.302515388E-1,2.091146559E-1,8.106901646E-1
1.423333802E0,3.587803543E-1,3.276224136E-1,7.673187852E-1
1.425764531E0,3.422870040E-1,3.911523521E-1,7.386081219E-1
1.428196041E0,2.622637153E-1,5.298185945E-1,7.453276515E-1
1.430626718E0,1.920142919E-1,6.336656213E-1,7.263908386E-1
1.433056510E0,1.321495473E-1,7.094128132E-1,7.007344961E-1
1.435487239E0,7.533913106E-2,7.472864389E-1,6.653043628E-1
1.437918698E0,4.357416555E-2,7.643906474E-1,6.188786626E-1
1.440349375E0,7.594999671E-2,7.485081553E-1,5.565704703E-1
1.442779218E0,8.083691448E-2,7.246844769E-1,4.912079275E-1
1.445209948E0,9.549766779E-2,7.088019848E-1,4.227910936E-1
1.447641406E0,1.297060847E-1,6.697066426E-1,3.647589386E-1
1.450072083E0,1.559732854E-1,6.293895841E-1,3.250527382E-1
1.452501927E0,1.822404563E-1,5.664705038E-1,3.048942089E-1
1.454932656E0,1.969012022E-1,5.035514235E-1,3.030616045E-1
1.457364114E0,2.304987758E-1,4.394106567E-1,3.085593879E-1
1.459794791E0,2.457703948E-1,3.917632103E-1,3.195549548E-1
1.462224635E0,2.903635204E-1,3.111290634E-1,3.268853426E-1
1.464655364E0,3.025808036E-1,2.494317293E-1,3.470438719E-1
1.467086823E0,3.135763705E-1,1.767388284E-1,3.653698266E-1
1.469517500E0,3.404544294E-1,9.182862192E-2,3.885826766E-1
1.471947343E0,3.667216003E-1,1.241621189E-2,4.246236980E-1
1.474378073E0,3.942105174E-1,-6.394188106E-2,4.716602862E-1
1.476809531E0,4.027626216E-1,-1.409108341E-1,5.278598070E-1
1.479240208E0,4.155907929E-1,-1.818387657E-1,5.944440365E-1
1.481670000E0,4.363601804E-1,-2.349839956E-1,6.689695716E-1
1.484100729E0,4.235320091E-1,-2.685815394E-1,7.447167635E-1
1.486532187E0,4.174233675E-1,-2.911835611E-1,8.192422986E-1
1.488962864E0,3.758845627E-1,-2.942378819E-1,8.888808489E-1
1.491392708E0,3.538934588E-1,-3.021791279E-1,9.591302872E-1
1.493823437E0,3.154089749E-1,-2.954595983E-1,1.033044934E0
1.496254895E0,2.714267075E-1,-2.826314569E-1,1.104516149E0
1.498685573E0,2.500464320E-1,-2.753010690E-1,1.179041624E0
1.501115416E0,1.938468814E-1,-2.588077188E-1,1.265173554E0
1.503546145E0,1.510863602E-1,-2.441469729E-1,1.349472880E0
1.505977604E0,1.193213910E-1,-2.410926372E-1,1.428274512E0
1.508408281E0,6.861962378E-2,-2.319296747E-1,1.505243421E0
1.510838125E0,3.318946809E-2,-2.221558392E-1,1.568773389E0
1.513268854E0,-9.571060538E-3,-2.136037350E-1,1.619475126E0
1.515700312E0,-4.316862673E-2,-2.062733471E-1,1.644520521E0
1.518130989E0,-7.432273030E-2,-1.818387657E-1,1.646964073E0
1.520560833E0,-1.164723933E-1,-1.421325505E-1,1.639022827E0
1.522991510E0,-1.494590789E-1,-9.876117110E-2,1.610312104E0
1.525423020E0,-1.745045483E-1,-4.805939272E-2,1.568162441E0
1.527853698E0,-1.934413314E-1,1.180534624E-2,1.514406323E0
1.530283489E0,-2.099346817E-1,7.105921954E-2,1.449043870E0
1.532714218E0,-2.264280319E-1,1.327565610E-1,1.380627036E0
1.535145677E0,-2.404779196E-1,1.907887161E-1,1.312210202E0
1.537576354E0,-2.496409118E-1,2.286623269E-1,1.249902010E0
1.540006198E0,-2.600255907E-1,2.604272962E-1,1.186982870E0
1.542436927E0,-2.643016577E-1,2.793641090E-1,1.124063849E0
1.544868385E0,-2.667451203E-1,2.928031385E-1,1.064199090E0
1.547299062E0,-2.673559785E-1,2.983008921E-1,1.003723502E0
1.549728906E0,-2.643016577E-1,2.989117801E-1,9.499673247E-1
1.552159635E0,-2.520843446E-1,2.940248549E-1,8.974329829E-1
1.554591093E0,-2.380344570E-1,2.793641090E-1,8.534507155E-1
1.557021770E0,-2.178759277E-1,2.592055500E-1,8.088575602E-1
1.559451614E0,-1.940522194E-1,2.304949164E-1,7.660970688E-1
1.561882343E0,-1.647306979E-1,2.060603350E-1,7.276125550E-1
1.564313802E0,-1.366309226E-1,1.797931492E-1,6.970693469E-1
1.566744479E0,-1.048659682E-1,1.455847323E-1,6.787433624E-1
1.569174270E0,-6.638148427E-2,1.180958077E-1,6.573631167E-1
1.571605052E0,-2.850787342E-2,1.022133231E-1,6.329285502E-1
1.574036510E0,1.180920005E-2,9.366121888E-2,6.078830957E-1
1.576467135E0,4.723935574E-2,9.854813665E-2,5.797833204E-1
1.578896979E0,8.511296660E-2,1.248153225E-1,5.455749035E-1
1.581327708E0,1.205431223E-1,1.687975824E-1,5.156425238E-1
1.583759166E0,1.608601958E-1,2.103363872E-1,4.936514199E-1
1.586189843E0,1.987338066E-1,2.445448041E-1,4.808232486E-1
1.588619687E0,2.378291488E-1,2.732554674E-1,4.753254652E-1
1.591050416E0,2.750918865E-1,2.995226383E-1,4.789906442E-1
1.593481875E0,3.093003035E-1,3.239572346E-1,4.881536067E-1
1.595912552E0,3.355675042E-1,3.496135473E-1,4.985383451E-1
1.598342395E0,3.483956754E-1,3.746590018E-1,5.150316358E-1
1.600773125E0,3.630564213E-1,4.027587771E-1,5.284706354E-1
1.603204583E0,3.661107421E-1,4.351346195E-1,5.339684486E-1
1.605635260E0,3.703867793E-1,4.846146405E-1,5.345793366E-1
1.608065104E0,3.673324585E-1,5.566966534E-1,5.351901650E-1
1.610495833E0,3.569477797E-1,6.464937925E-1,5.351901650E-1
1.612927291E0,3.386218250E-1,7.613363266E-1,5.358010530E-1
1.615357968E0,3.264045417E-1,8.651833534E-1,5.400770903E-1
1.617787760E0,3.074677289E-1,9.647542834E-1,5.461857319E-1
1.620218489E0,2.946395874E-1,1.048442721E0,5.553486943E-1
1.622649948E0,2.818114161E-1,1.116248727E0,5.608465075E-1
1.625080625E0,2.726484537E-1,1.171226621E0,5.712311864E-1
1.627510468E0,2.732592821E-1,1.203602433E0,5.724529028E-1
1.629941198E0,2.695941329E-1,1.232313037E0,5.748963952E-1
1.632372656E0,2.702049613E-1,1.262856245E0,5.657334328E-1
1.634803333E0,2.695941329E-1,1.288512588E0,5.602356195E-1
1.637233177E0,2.689832449E-1,1.306227684E0,5.614573359E-1
1.639663906E0,2.695941329E-1,1.319055796E0,5.584030151E-1
1.642095364E0,2.653180659E-1,1.341657877E0,5.486292243E-1
1.644526041E0,2.616528869E-1,1.367314100E0,5.272489190E-1
1.646955885E0,2.689832449E-1,1.419848561E0,5.052577853E-1
1.649386614E0,2.695941329E-1,1.494984865E0,4.826558530E-1
1.651818073E0,2.818114161E-1,1.581116796E0,4.484474063E-1
1.654248750E0,3.050242662E-1,1.664805293E0,4.105738103E-1
1.656678593E0,3.270153999E-1,1.736276388E0,3.727001846E-1
1.659109270E0,3.575586379E-1,1.790643334E0,3.360483050E-1
1.661540781E0,3.795497715E-1,1.833403945E0,2.981746793E-1
1.663971458E0,3.905453384E-1,1.884716511E0,2.572467625E-1
1.666401250E0,3.954322338E-1,1.937861800E0,2.175405324E-1
1.668831979E0,4.125364721E-1,1.975735426E0,1.790560633E-1
1.671263437E0,4.394145012E-1,2.011776447E0,1.417933106E-1
1.673694114E0,4.791207016E-1,2.036821842E0,9.964365512E-2
1.676123958E0,5.218812227E-1,2.053315163E0,5.993744731E-2
1.678554687E0,5.829677582E-1,2.077138901E0,3.367026150E-2
1.680986145E0,6.416107416E-1,2.089967012E0,1.656604744E-2
1.683416823E0,6.959776878E-1,2.092410564E0,6.835646927E-4
1.685846666E0,7.442359924E-1,2.104627848E0,-1.580978185E-2
1.688277395E0,7.784444094E-1,2.120510340E0,-3.535745293E-2
1.690708854E0,8.114311695E-1,2.130284071E0,-4.757475108E-2
1.693139531E0,8.389199972E-1,2.118677855E0,-3.963350505E-2
1.695569375E0,8.804588318E-1,2.126619101E0,-2.130756527E-2
1.698000052E0,8.902326822E-1,2.137003660E0,1.294429414E-3
1.700431562E0,8.938978910E-1,2.171212196E0,3.183766454E-2
1.702862187E0,8.951195478E-1,2.219470501E0,6.848955154E-2
1.705292031E0,9.128346443E-1,2.244515896E0,1.130826771E-1
1.707722760E0,9.134454727E-1,2.282389402E0,1.546214670E-1
1.710154270E0,9.268845320E-1,2.339810848E0,1.869972944E-1
1.712584895E0,9.201650620E-1,2.441214323E0,1.906624883E-1
1.715014739E0,8.859566450E-1,2.603704453E0,1.839429736E-1
1.717445468E0,8.041007519E-1,2.799791813E0,1.814995110E-1
1.719876927E0,7.088057995E-1,3.008096695E0,1.698930860E-1
1.722307604E0,5.286007524E-1,3.276877165E0,1.705039591E-1
1.724737448E0,3.209067583E-1,3.576200962E0,1.814995110E-1
1.727168177E0,1.620819271E-1,3.805275202E0,2.059341073E-1
1.729599635E0,1.126018763E-1,3.919507027E0,2.425860018E-1
1.732030312E0,1.620819271E-1,3.969597816E0,2.914551795E-1
1.734460156E0,2.940286994E-1,3.924393892E0,3.348265886E-1
1.736890885E0,4.424688220E-1,3.896294117E0,3.592611551E-1
1.739322343E0,5.854111910E-1,3.849868298E0,3.403243721E-1
1.741753020E0,6.770409346E-1,3.828488111E0,2.926768959E-1
1.744182812E0,7.485120296E-1,3.795501471E0,2.279252410E-1
1.746613541E0,8.041007519E-1,3.764347315E0,1.527888775E-1
1.749045000E0,8.804588318E-1,3.723419428E0,7.215473801E-2
1.751475677E0,9.781972170E-1,3.731971502E0,-2.252929471E-2
1.753905520E0,1.179782629E0,3.779618979E0,-1.007199809E-1
1.756336250E0,1.376481056E0,3.729527950E0,-1.709694266E-1
1.758767708E0,1.474219322E0,3.655002594E0,-2.674860358E-1
1.761198385E0,1.541414499E0,3.535273075E0,-3.853829205E-1
1.763628229E0,1.534695029E0,3.374615669E0,-5.014472604E-1
1.766058958E0,1.531029820E0,3.239003658E0,-6.101811528E-1
1.768490416E0,1.502930045E0,3.146763086E0,-7.170825005E-1
1.770921093E0,1.493767023E0,3.096061230E0,-8.148208857E-1
1.773350937E0,1.451617360E0,3.093007088E0,-8.887354732E-1
1.775781614E0,1.365485430E0,3.136989355E0,-9.369937778E-1
1.778213125E0,1.267747045E0,3.247555733E0,-9.467676282E-1
1.780643802E0,1.168176174E0,3.322081327E0,-9.486002326E-1
1.783073593E0,1.081433415E0,3.417987108E0,-9.437133074E-1
1.785504323E0,9.794188738E-1,3.501675367E0,-9.259982109E-1
1.787935781E0,9.525408745E-1,3.554820776E0,-9.052288532E-1
1.790366458E0,8.786262274E-1,3.624459267E0,-8.801833987E-1
1.792796302E0,8.590785265E-1,3.694708824E0,-8.618574142E-1
1.795227031E0,8.322005272E-1,3.756406069E0,-8.374228477E-1
1.797658489E0,8.230375051E-1,3.840705395E0,-8.081013560E-1
1.800089166E0,7.937160730E-1,3.933556795E0,-7.738929391E-1
1.802519010E0,7.497338057E-1,4.068558216E0,-7.286889553E-1
1.804949739E0,7.246882915E-1,4.185844421E0,-6.743219495E-1
1.807381198E0,6.935342550E-1,4.302519321E0,-6.266745329E-1
1.809811875E0,6.599366665E-1,4.437520504E0,-5.570359230E-1
1.812241666E0,7.876074314E-1,4.587182522E0,-4.928951263E-1
1.814672395E0,9.458214045E-1,4.775939465E0,-4.073740542E-1
1.817103906E0,1.041116238E0,4.848632336E0,-3.090248406E-1
1.819534531E0,1.007518649E0,4.840080261E0,-2.461057901E-1
1.821964375E0,8.645763397E-1,4.844967365E0,-1.917388290E-1
1.824395104E0,6.837604046E-1,4.893836498E0,-1.526434869E-1
1.826826562E0,5.176051855E-1,4.993407249E0,-1.086612195E-1
1.829257239E0,3.630564213E-1,5.030059338E0,-6.590069085E-2
1.831687083E0,2.219466716E-1,5.091145515E0,-9.701135568E-3
1.834117812E0,1.284843683E-1,5.144290924E0,3.855717927E-2
1.836549270E0,2.891341224E-2,5.248748779E0,7.032214850E-2
1.838979948E0,-7.249012589E-2,5.340378761E0,8.498289436E-2
1.841409791E0,-1.543460041E-1,5.386804104E0,9.170240909E-2
1.843840520E0,-2.441431284E-1,5.428954124E0,8.376117051E-2
1.846271979E0,-2.930122912E-1,5.361147881E0,7.154387236E-2
1.848702656E0,-3.174468875E-1,5.265852928E0,5.566138774E-2
1.851132448E0,-3.064513206E-1,5.162616730E0,3.305939585E-2
1.853563177E0,-3.021752536E-1,5.068543911E0,1.294429414E-3
1.855994635E0,-2.722429037E-1,4.956755638E0,-2.558361739E-2
1.858425312E0,-2.337584198E-1,4.824197769E0,-5.368339270E-2
1.860855156E0,-1.983282566E-1,4.673924923E0,-7.323106378E-2
1.863285885E0,-1.531242728E-1,4.545032501E0,-1.031634361E-1
1.865717343E0,-1.189158559E-1,4.409420490E0,-1.196567863E-1
1.868148020E0,-1.005899012E-1,4.274419785E0,-1.440913826E-1
1.870577864E0,-1.170832515E-1,4.177291870E0,-1.764672101E-1
1.873008593E0,-1.311331391E-1,4.076499462E0,-2.070104480E-1
1.875440052E0,-1.439613104E-1,3.926226377E0,-2.399971336E-1
1.877870729E0,-1.714502126E-1,3.841316223E0,-2.589339316E-1
1.880300520E0,-2.221519947E-1,3.810162067E0,-2.766489983E-1
1.882731302E0,-2.936231494E-1,3.730749846E0,-2.974184155E-1
1.885162708E0,-3.718138337E-1,3.664776325E0,-3.187986612E-1
1.887593385E0,-4.732173979E-1,3.609187603E0,-3.401789367E-1
1.890023229E0,-5.343039036E-1,3.566427231E0,-3.517853618E-1
1.892453958E0,-5.788969994E-1,3.490069151E0,-3.591157496E-1
1.894885416E0,-6.363183260E-1,3.503508091E0,-3.633917868E-1
1.897316093E0,-7.090111971E-1,3.549933672E0,-3.817177415E-1
1.899745937E0,-7.792606354E-1,3.605522394E0,-4.079849124E-1
1.902176666E0,-8.696686029E-1,3.645228624E0,-4.428042173E-1
1.904608125E0,-9.936741590E-1,3.788781881E0,-4.898408055E-1
1.907038802E0,-1.175711751E0,4.057562828E0,-5.619228482E-1
1.909468645E0,-1.438383579E0,4.491887569E0,-6.657698750E-1
1.911899375E0,-1.816508889E0,5.127186775E0,-8.117665648E-1
1.914330833E0,-2.253277302E0,5.903595924E0,-9.736456871E-1
1.916761510E0,-2.675995588E0,6.638465881E0,-1.048781991E0
1.919191302E0,-2.978373766E0,7.216343880E0,-1.029234290E0
1.921622031E0,-3.205004454E0,7.620736599E0,-9.455459118E-1
1.924053489E0,-3.344892502E0,7.872412682E0,-8.276489973E-1
1.926484166E0,-3.385209560E0,8.017187119E0,-7.066978216E-1
1.928914010E0,-3.380322695E0,8.059336662E0,-5.997964740E-1
1.931344739E0,-3.304575443E0,8.022073746E0,-5.216057897E-1
1.933776198E0,-3.165298223E0,7.941440582E0,-4.660170674E-1
1.936206875E0,-2.974708557E0,7.848588943E0,-4.464693964E-1
1.938636718E0,-2.727919102E0,7.757570267E0,-4.556323588E-1
1.941067448E0,-2.428595543E0,7.682434082E0,-4.770126343E-1
1.943498906E0,-2.087733030E0,7.598134518E0,-5.106102228E-1
1.945929583E0,-1.710218430E0,7.507115841E0,-5.564250946E-1
1.948359427E0,-1.320486784E0,7.361730099E0,-6.052942872E-1
1.950790156E0,-9.173160791E-1,7.205959320E0,-6.480547786E-1
1.953221614E0,-5.080367327E-1,7.014758587E0,-6.810414791E-1
1.955652291E0,-1.378526539E-1,6.764914989E0,-6.999782920E-1
1.958082083E0,1.810187250E-1,6.449708939E0,-7.018108964E-1
1.960512812E0,4.583513141E-1,6.113122463E0,-6.957022548E-1
1.962944270E0,6.904798746E-1,5.792418480E0,-6.902044415E-1
1.965374948E0,8.884000778E-1,5.481488228E0,-6.987565756E-1
1.967804791E0,1.050890088E0,5.219427109E0,-7.231911421E-1
1.970235520E0,1.175506473E0,4.994628906E0,-7.598430514E-1
1.972666979E0,1.258584142E0,4.791211128E0,-8.038253188E-1
1.975097656E0,1.301955581E0,4.601842880E0,-8.490293026E-1
1.977527500E0,1.294625163E0,4.451570511E0,-8.917897940E-1
1.979958229E0,1.276910067E0,4.326953888E0,-9.406589866E-1
1.982389687E0,1.228040934E0,4.210889816E0,-9.736456871E-1
1.984820364E0,1.160845757E0,4.123536110E0,-1.007854104E0
1.987250208E0,1.075935602E0,4.096657753E0,-1.045116782E0
1.989680937E0,9.922471046E-1,4.114373207E0,-1.081157804E0
1.992112395E0,8.981739283E-1,4.185844421E0,-1.111090183E0
1.994543073E0,8.169288635E-1,4.308628082E0,-1.133081317E0
1.996972864E0,7.460685968E-1,4.450348854E0,-1.145909429E0
1.999403593E0,6.886472702E-1,4.587793350E0,-1.129416108E0
2.001835052E0,6.422215700E-1,4.696527004E0,-1.093375087E0
2.004265729E0,5.841894150E-1,4.759446144E0,-1.053058028E0
2.006695573E0,5.224921107E-1,4.791211128E0,-1.019460440E0
2.009126302E0,4.644599557E-1,4.822976112E0,-9.828086495E-1
2.011557760E0,4.308623970E-1,4.892004013E0,-9.418807030E-1
2.013988437E0,4.314732552E-1,4.981190205E0,-8.905680776E-1
2.016418281E0,4.510209262E-1,5.076485157E0,-8.313142061E-1
2.018849010E0,4.895054102E-1,5.156508446E0,-7.696168423E-1
2.021280468E0,5.371528864E-1,5.218816280E0,-7.018108964E-1
2.023711145E0,5.848003626E-1,5.273183346E0,-6.388918161E-1
2.026140989E0,6.428325176E-1,5.314722061E0,-5.747510195E-1
2.028571666E0,7.051407099E-1,5.345876217E0,-5.130537152E-1
2.031003177E0,7.680597305E-1,5.372143269E0,-4.568541050E-1
2.033433854E0,8.334223032E-1,5.402075768E0,-4.067631960E-1
2.035863645E0,8.902326822E-1,5.428954124E0,-3.560614288E-1
2.038294375E0,9.403235912E-1,5.457053661E0,-3.120791614E-1
2.040725833E0,9.818624258E-1,5.480266571E0,-2.711512148E-1
2.043156510E0,1.017292500E0,5.490651131E0,-2.351102233E-1
2.045586354E0,1.048446655E0,5.498592377E0,-2.070104480E-1
2.048017083E0,1.064329147E0,5.517529488E0,-1.844084561E-1
2.050448541E0,1.066772580E0,5.562733173E0,-1.685259640E-1
2.052879218E0,1.068605185E0,5.604271889E0,-1.575303972E-1
2.055309062E0,1.055776954E0,5.639702320E0,-1.459239721E-1
2.057739791E0,1.040505409E0,5.669023514E0,-1.355392784E-1
2.060171250E0,1.010573030E0,5.674521446E0,-1.251545697E-1
2.062601927E0,9.745320082E-1,5.658638954E0,-1.172133237E-1
2.065031770E0,9.232193232E-1,5.624430656E0,-1.214893758E-1
2.067462500E0,8.670197725E-1,5.560900688E0,-1.312632114E-1
2.069893958E0,8.065441847E-1,5.473546982E0,-1.459239721E-1
2.072324583E0,7.399599552E-1,5.379473686E0,-1.520326287E-1
2.074754427E0,6.904798746E-1,5.262187958E0,-1.489782929E-1
2.077185156E0,6.422215700E-1,5.130851746E0,-1.495891660E-1
2.079616614E0,5.939632654E-1,4.993407249E0,-1.575303972E-1
2.082047291E0,5.646417737E-1,4.841912746E0,-1.654716432E-1
2.084477135E0,5.408180356E-1,4.692862034E0,-1.807432622E-1
2.086907864E0,5.304333568E-1,4.549919605E0,-1.990692019E-1
2.089339323E0,5.169943571E-1,4.406366348E0,-2.112865001E-1
2.091770000E0,5.114965439E-1,4.255482674E0,-2.308341712E-1
2.094199843E0,5.139399767E-1,4.092381954E0,-2.503818274E-1
2.096630573E0,5.157725811E-1,3.928059101E0,-2.668751776E-1
2.099062031E0,5.169943571E-1,3.761292934E0,-2.864228487E-1
2.101492708E0,5.145508647E-1,3.597581148E0,-3.016944528E-1
2.103922500E0,5.084422231E-1,3.444864988E0,-3.175769448E-1
2.106353229E0,4.943923354E-1,3.306198835E0,-3.249073327E-1
2.108784739E0,4.803424478E-1,3.193188906E0,-3.267399073E-1
2.111215364E0,4.491883516E-1,3.090563536E0,-3.230747283E-1
2.113645208E0,4.162016511E-1,2.996490240E0,-3.120791614E-1
2.116075937E0,3.746628463E-1,2.909136772E0,-3.053596616E-1
2.118507395E0,3.270153999E-1,2.836443901E0,-2.913097739E-1
2.120938073E0,2.750918865E-1,2.777189970E0,-2.748164237E-1
2.123367916E0,2.274444401E-1,2.725877285E0,-2.522144318E-1
2.125798645E0,1.773535311E-1,2.698999166E0,-2.259472460E-1
2.128230104E0,1.315386891E-1,2.687392712E0,-1.935714185E-1
2.130660781E0,8.816729486E-2,2.681284189E0,-1.544760764E-1
2.133090625E0,4.357416555E-2,2.679451466E0,-1.129372716E-1
2.135521354E0,1.242006570E-2,2.683727503E0,-4.818560928E-2
2.137952812E0,-1.812317222E-2,2.700221062E0,-1.031200029E-2
2.140383489E0,-2.850787342E-2,2.711216450E0,3.122680075E-2
2.142813281E0,-4.500121623E-2,2.734429359E0,4.466582835E-2
2.145244010E0,-4.866640270E-2,2.730764151E0,4.833101481E-2
2.147675468E0,-4.500121623E-2,2.735651016E0,6.604608893E-2
2.150106145E0,-3.705997765E-2,2.722212076E0,6.787868589E-2
2.152535989E0,-3.156219423E-2,2.710605621E0,5.199620128E-2
2.154966718E0,-2.423182130E-2,2.711216450E0,3.183766454E-2
2.157398177E0,-1.262538880E-2,2.697166681E0,2.756161056E-2
2.159828854E0,-2.240687609E-3,2.705107927E0,4.038976878E-2
2.162258698E0,1.608525217E-2,2.705107927E0,3.183766454E-2
2.164689427E0,3.807638586E-2,2.709383965E0,2.817247622E-2
2.167120885E0,3.318946809E-2,2.741759777E0,1.290085912E-2
2.169551562E0,4.357416555E-2,2.755809546E0,-2.130756527E-2
2.171981406E0,4.113070667E-2,2.770470381E0,-6.528982520E-2
2.174412135E0,3.013514355E-2,2.794904947E0,-1.147698686E-1
2.176843593E0,2.463736013E-2,2.801624537E0,-1.556978077E-1
2.179274270E0,1.669611782E-2,2.808954954E0,-2.009017915E-1
2.181704062E0,1.547439024E-2,2.791850567E0,-2.424405962E-1
2.184134791E0,1.730698347E-2,2.776579142E0,-2.674860358E-1
2.186566250E0,1.547439024E-2,2.758863926E0,-3.059705198E-1
2.188996927E0,1.486352459E-2,2.733207703E0,-3.523962200E-1
2.191426770E0,3.990897909E-2,2.720379591E0,-3.866046667E-1
2.193857500E0,6.312184036E-2,2.714881659E0,-4.128718376E-1
2.196288958E0,1.040497720E-1,2.694723129E0,-4.434150755E-1
2.198719635E0,1.614710540E-1,2.690447092E0,-4.580758214E-1
2.201149479E0,2.250009924E-1,2.692890644E0,-4.941168427E-1
2.203580208E0,2.909743786E-1,2.697777510E0,-5.435969234E-1
2.206011666E0,3.545043170E-1,2.716103554E0,-5.826922655E-1
2.208442343E0,4.137581885E-1,2.728931665E0,-6.083486080E-1
2.210872135E0,4.626273513E-1,2.736872911E0,-6.040725112E-1
2.213302864E0,5.053879023E-1,2.752144575E0,-5.906335115E-1
2.215734323E0,5.402071476E-1,2.776579142E0,-5.790270567E-1
2.218165000E0,5.738047361E-1,2.814452648E0,-5.704749823E-1
2.220594843E0,5.982393026E-1,2.845606804E0,-5.747510195E-1
2.223025573E0,6.147326231E-1,2.878593445E0,-5.881900191E-1
2.225457031E0,6.293934584E-1,2.898751974E0,-6.065160036E-1
2.227887708E0,6.342803240E-1,2.920132160E0,-6.156789660E-1
2.230317552E0,6.452759504E-1,2.926240921E0,-6.254528165E-1
2.232748281E0,6.568824053E-1,2.932960510E0,-6.346157789E-1
2.235179739E0,6.703213453E-1,2.936014652E0,-6.486656666E-1
2.237610416E0,6.862038374E-1,2.933571339E0,-6.627155542E-1
2.240040260E0,7.179688215E-1,2.928684473E0,-6.724894047E-1
2.242470937E0,7.521772385E-1,2.909747601E0,-6.767654419E-1
2.244902448E0,7.766118050E-1,2.882258654E0,-6.895936131E-1
2.247333125E0,7.955486774E-1,2.845606804E0,-7.152498960E-1
2.249762916E0,8.034899235E-1,2.821783066E0,-7.519018054E-1
2.252193645E0,8.053225279E-1,2.793683290E0,-7.916079760E-1
2.254625104E0,8.065441847E-1,2.774746418E0,-8.258164525E-1
2.257055781E0,8.047115803E-1,2.757031441E0,-8.520836234E-1
2.259485625E0,8.157072067E-1,2.753977060E0,-8.789616823E-1
2.261916354E0,8.175398111E-1,2.747257471E0,-9.101157784E-1
2.264347812E0,8.114311695E-1,2.750922680E0,-9.278308153E-1
2.266778489E0,8.010463715E-1,2.751533508E0,-9.363829494E-1
2.269208333E0,7.766118050E-1,2.748479366E0,-9.327177405E-1
2.271639062E0,7.521772385E-1,2.742981434E0,-9.143918157E-1
2.274070520E0,7.332404852E-1,2.728320837E0,-8.869028687E-1
2.276501198E0,7.130819559E-1,2.701442719E0,-8.471966982E-1
2.278930989E0,7.130819559E-1,2.646464825E0,-8.056578636E-1
2.281361718E0,7.198014259E-1,2.588432789E0,-7.610647678E-1
2.283793177E0,7.387381792E-1,2.522459269E0,-7.146390676E-1
2.286223854E0,7.540098429E-1,2.461983681E0,-6.694350839E-1
2.288653698E0,7.674489021E-1,2.412503719E0,-6.236202121E-1
2.291084427E0,7.772227526E-1,2.361801863E0,-5.759727359E-1
2.293515885E0,7.814987898E-1,2.309878349E0,-5.228275061E-1
2.295946562E0,7.766118050E-1,2.256122351E0,-4.660170674E-1
2.298376406E0,7.674489021E-1,2.204198837E0,-4.098175168E-1
2.300807135E0,7.479012012E-1,2.160216570E0,-3.505636454E-1
2.303238593E0,7.289643288E-1,2.115012646E0,-2.961966693E-1
2.305669270E0,7.069731951E-1,2.075917244E0,-2.558796108E-1
2.308099114E0,6.813169718E-1,2.035600185E0,-2.173951417E-1
2.310529843E0,6.550498009E-1,2.006889582E0,-1.886845082E-1
2.312961302E0,6.391673088E-1,1.981844068E0,-1.715802997E-1
2.315391979E0,6.183978319E-1,1.969626784E0,-1.520326287E-1
2.317821770E0,6.116783619E-1,1.960463762E0,-1.343175471E-1
2.320252500E0,6.012936831E-1,1.965961576E0,-1.202676520E-1
2.322683958E0,5.939632654E-1,1.969626784E0,-1.098829508E-1
2.325114635E0,5.902980566E-1,1.965961576E0,-1.037743017E-1
2.327544479E0,5.823568106E-1,1.973291993E0,-9.583305568E-2
2.329975208E0,5.676960945E-1,1.982454896E0,-9.338960052E-2
2.332406666E0,5.573114157E-1,1.990396142E0,-8.789181709E-2
2.334837343E0,5.457049608E-1,1.986120105E0,-8.056144416E-2
2.337267187E0,5.414289236E-1,1.970237613E0,-7.139847428E-2
2.339697916E0,5.310442448E-1,1.953133464E0,-6.284636259E-2
2.342129375E0,5.286007524E-1,1.911594629E0,-5.979204178E-2
2.344560052E0,5.206595063E-1,1.876775265E0,-5.979204178E-2
2.346989843E0,5.218812227E-1,1.812023640E0,-6.040290743E-2
2.349420573E0,4.980575144E-1,1.766208768E0,-6.101377308E-2
2.351852031E0,5.047770739E-1,1.689850688E0,-6.406809390E-2
2.354282708E0,4.882836938E-1,1.633040309E0,-6.528982520E-2
2.356712552E0,4.791207016E-1,1.569510341E0,-7.139847428E-2
2.359143281E0,4.705685973E-1,1.519419432E0,-7.872884721E-2
2.361574739E0,4.687360227E-1,1.476048112E0,-9.094614536E-2
2.364005416E0,4.565187097E-1,1.437563539E0,-1.001091152E-1
2.366435260E0,4.473557472E-1,1.411907315E0,-1.080503538E-1
2.368865989E0,4.375819266E-1,1.393581271E0,-1.190459207E-1
2.371297448E0,4.168125093E-1,1.378920555E0,-1.300414950E-1
2.373728125E0,4.021517634E-1,1.355707765E0,-1.483674347E-1
2.376157968E0,3.697759211E-1,1.356318593E0,-1.630281806E-1
2.378588645E0,3.490065336E-1,1.356929421E0,-1.813541204E-1
2.381020156E0,3.184632957E-1,1.381974936E0,-1.972366124E-1
2.383450833E0,2.976939082E-1,1.388083577E0,-2.100647688E-1
2.385880625E0,2.726484537E-1,1.396635652E0,-2.222820669E-1
2.388311354E0,2.396617383E-1,1.409463763E0,-2.296124399E-1
2.390742812E0,2.213357985E-1,1.401522517E0,-2.357210815E-1
2.393173489E0,1.877382398E-1,1.400911689E0,-2.326667607E-1
2.395603333E0,1.675797105E-1,1.386861801E0,-2.247255296E-1
2.398034062E0,1.590276062E-1,1.362427235E0,-2.131190896E-1
2.400465520E0,1.584167331E-1,1.341046929E0,-1.947931498E-1
2.402896198E0,1.608601958E-1,1.319055796E0,-1.746346205E-1
2.405326041E0,1.669688374E-1,1.287901759E0,-1.471457034E-1
2.407756770E0,1.651362479E-1,1.250028133E0,-1.196567863E-1
2.410188229E0,1.718557477E-1,1.215208769E0,-9.461133182E-2
2.412618906E0,1.724666208E-1,1.187108994E0,-7.139847428E-2
2.415048698E0,1.657471061E-1,1.149846315E0,-6.101377308E-2
2.417479427E0,1.565841436E-1,1.112583518E0,-4.329869151E-2
2.419910885E0,1.388690621E-1,1.074709892E0,-3.291399777E-2
2.422341562E0,1.223757118E-1,1.031949401E0,-2.069669962E-2
2.424771406E0,1.083258241E-1,9.989627600E-1,-1.519891806E-2
2.427202135E0,9.061075002E-2,9.720846415E-1,-1.764237694E-2
2.429633593E0,6.800875813E-2,9.458174706E-1,-2.680534683E-2
2.432064270E0,4.785022140E-2,9.238263369E-1,-3.474658728E-2
2.434494114E0,3.013514355E-2,8.993917704E-1,-5.307252705E-2
2.436924843E0,1.303093135E-2,8.755680323E-1,-6.223550439E-2
2.439356302E0,6.311416626E-3,8.566312194E-1,-6.895501167E-2
2.441786979E0,-1.079279184E-2,8.083729148E-1,-6.467895955E-2
2.444216770E0,4.478827119E-3,7.802731395E-1,-3.780091554E-2
2.446647500E0,3.563292325E-2,8.016533852E-1,-3.169226646E-2
2.449078958E0,3.807638586E-2,7.888252735E-1,-5.062907189E-2
2.451509635E0,4.357416555E-2,7.546167970E-1,-5.551598966E-2
2.453939479E0,5.334800109E-2,7.191866636E-1,-6.284636259E-2
2.456370208E0,5.395886675E-2,7.216301560E-1,-6.895501167E-2
2.458801666E0,4.846108332E-2,7.246844769E-1,-8.972441405E-2
2.461232343E0,2.341563255E-2,7.210192680E-1,-1.135481372E-1
2.463662187E0,-5.295008421E-3,7.210192680E-1,-1.318740845E-1
2.466092916E0,-3.950343281E-2,7.289605141E-1,-1.349284053E-1
2.468524375E0,-6.210543215E-2,7.417886853E-1,-1.300414950E-1
2.470955052E0,-7.737705112E-2,7.466756105E-1,-1.275980324E-1
2.473384895E0,-8.531829715E-2,7.472864389E-1,-1.269871593E-1
2.475815573E0,-8.959434927E-2,7.314039469E-1,-1.208785102E-1
2.478247083E0,-7.187926769E-2,7.228518724E-1,-9.522219747E-2
2.480677708E0,-5.355332792E-2,7.650015354E-1,-9.766565263E-2
2.483107552E0,-4.866640270E-2,7.686666846E-1,-1.141590029E-1
2.485538281E0,-5.355332792E-2,7.540059686E-1,-1.056068912E-1
2.487969739E0,-5.538591743E-2,7.601146102E-1,-1.086612195E-1
2.490400416E0,-7.371185720E-2,7.711101770E-1,-1.153807268E-1
2.492830260E0,-1.066985577E-1,7.576711178E-1,-1.202676520E-1
2.495260989E0,-1.366309226E-1,7.204083800E-1,-1.135481372E-1
2.497692448E0,-1.592329144E-1,6.819239259E-1,-1.086612195E-1
2.500123125E0,-1.653415710E-1,6.428285837E-1,-1.049960330E-1
2.502552968E0,-1.665633023E-1,6.037332416E-1,-1.098829508E-1
2.504983698E0,-1.641198397E-1,5.707465410E-1,-1.257654279E-1
2.507415156E0,-1.586220562E-1,5.493662953E-1,-1.392044574E-1
2.509845833E0,-1.409069747E-1,5.108817816E-1,-1.343175471E-1
2.512275625E0,-1.347983330E-1,5.249316692E-1,-1.398153305E-1
2.514706354E0,-1.286896914E-1,5.499771237E-1,-1.666933745E-1
2.517137812E0,-1.299114078E-1,5.542532206E-1,-1.886845082E-1
2.519568489E0,-1.293005496E-1,5.670813322E-1,-2.283907086E-1
2.521998333E0,-1.464047581E-1,5.976245999E-1,-2.705403566E-1
2.524429062E0,-1.525134146E-1,6.061766744E-1,-3.084139824E-1
2.526860520E0,-1.702284813E-1,6.159505248E-1,-3.175769448E-1
2.529291198E0,-1.861109734E-1,6.202265620E-1,-3.126900196E-1
2.531721041E0,-1.958847940E-1,6.251134872E-1,-3.078031242E-1
2.534151770E0,-2.038260400E-1,6.275569797E-1,-3.102465570E-1
2.536583229E0,-2.062695026E-1,6.324439049E-1,-3.212421238E-1
2.539013854E0,-2.074912488E-1,6.306113005E-1,-3.389572203E-1
2.541443698E0,-2.062695026E-1,6.257243752E-1,-3.511745036E-1
2.543874427E0,-2.081021070E-1,6.086201668E-1,-3.505636454E-1
2.546305885E0,-2.135998905E-1,5.792986751E-1,-3.395680785E-1
2.548736562E0,-2.203193903E-1,5.548640490E-1,-3.096356988E-1
2.551166406E0,-2.160433531E-1,5.133252740E-1,-2.503818274E-1
2.553597135E0,-2.032151818E-1,4.986645281E-1,-2.082321793E-1
2.556028593E0,-1.971065402E-1,4.858363867E-1,-2.033452541E-1
2.558459270E0,-2.142107487E-1,4.620126486E-1,-2.009017915E-1
2.560889114E0,-2.068803608E-1,4.107000232E-1,-1.789106727E-1
2.563319843E0,-1.928304732E-1,3.972609937E-1,-1.703585684E-1
2.565751302E0,-1.848892272E-1,3.917632103E-1,-1.752454787E-1
2.568181979E0,-1.806131899E-1,3.826002479E-1,-1.782997996E-1
2.570611770E0,-1.757262647E-1,3.709938228E-1,-1.715802997E-1
2.573042500E0,-1.732828021E-1,3.771024644E-1,-1.636390537E-1
2.575473958E0,-1.622872502E-1,3.929849267E-1,-1.550869495E-1
2.577904635E0,-1.580111980E-1,4.259716272E-1,-1.520326287E-1
2.580334479E0,-1.494590789E-1,4.485736191E-1,-1.532543451E-1
2.582765208E0,-1.482373625E-1,4.864472449E-1,-1.575303972E-1
2.585196666E0,-1.354091913E-1,4.962210953E-1,-1.691368371E-1
2.587627343E0,-1.372417957E-1,5.127143860E-1,-1.825758517E-1
2.590057187E0,-1.323548704E-1,5.249316692E-1,-1.990692019E-1
2.592487916E0,-1.286896914E-1,5.573075414E-1,-2.186168730E-1
2.594919375E0,-1.195267141E-1,5.957919955E-1,-2.430514693E-1
2.597350052E0,-1.073094159E-1,6.464937925E-1,-2.693186402E-1
2.599779843E0,-9.997904301E-2,6.941412091E-1,-2.943640947E-1
2.602210573E0,-9.753558040E-2,7.460647225E-1,-3.175769448E-1
2.604642031E0,-1.042550951E-1,7.967665195E-1,-3.377354741E-1
2.607072708E0,-9.997904301E-2,8.407487273E-1,-3.566722870E-1
2.609502552E0,-9.753558040E-2,8.761789203E-1,-3.768308163E-1
2.611933281E0,-9.631384909E-2,9.061113000E-1,-3.988219500E-1
2.614364739E0,-9.692472219E-2,9.256589413E-1,-4.214239419E-1
2.616795416E0,-9.631384909E-2,9.342110753E-1,-4.415824711E-1
2.619225260E0,-9.264867008E-2,9.232155085E-1,-4.611301422E-1
2.621655989E0,-8.470742404E-2,8.981700540E-1,-4.776234925E-1
2.624087448E0,-7.615531981E-2,8.676267862E-1,-4.831212759E-1
2.626518125E0,-6.638148427E-2,8.389161825E-1,-4.812887013E-1
2.628947968E0,-5.599677563E-2,8.059294820E-1,-4.776234925E-1
2.631378645E0,-4.561208189E-2,7.527842522E-1,-4.672388136E-1
2.633810104E0,-4.194689542E-2,6.935303807E-1,-4.483020008E-1
2.636240781E0,-3.828170896E-2,6.532132626E-1,-4.220348001E-1
2.638670625E0,-4.133602977E-2,6.458829045E-1,-3.908807039E-1
2.641101354E0,-3.461651504E-2,6.678740382E-1,-3.401789367E-1
2.643532812E0,-3.767084330E-2,5.951811075E-1,-2.864228487E-1
2.645963489E0,-3.339479119E-2,4.742299616E-1,-2.436623275E-1
2.648393333E0,-2.423182130E-2,2.781423628E-1,-2.204494625E-1
2.650824062E0,-1.995576173E-2,1.303131133E-1,-2.137299627E-1
2.653255520E0,-1.629057527E-2,8.097826503E-4,-2.118973583E-1
2.655686198E0,-1.445798576E-2,-1.561824381E-1,-1.844084561E-1
2.658115989E0,1.058746874E-2,-2.807988524E-1,-1.324849427E-1
2.660546718E0,5.518059433E-2,-3.253919780E-1,-1.074394882E-1
2.662978229E0,6.984134763E-2,-3.424961865E-1,-1.025525704E-1
2.665408854E0,7.106307894E-2,-3.901436329E-1,-1.068286225E-1
2.667838698E0,7.228481025E-2,-4.493975043E-1,-1.043851674E-1
2.670269427E0,7.289567590E-2,-5.037645102E-1,-1.007199809E-1
2.672700885E0,7.411739975E-2,-5.581314564E-1,-1.001091152E-1
2.675131562E0,7.228481025E-2,-6.015028358E-1,-1.056068912E-1
2.677561406E0,7.533913106E-2,-6.436524987E-1,-1.233219728E-1
2.679992135E0,7.472826540E-2,-6.906890869E-1,-1.416479200E-1
2.682423593E0,8.266951144E-2,-7.297844291E-1,-1.611955911E-1
2.684854270E0,1.009954512E-1,-7.584950924E-1,-1.764672101E-1
2.687284114E0,1.187105253E-1,-7.707123756E-1,-1.929605603E-1
2.689714791E0,1.425342560E-1,-7.554407716E-1,-2.088430375E-1
2.692146302E0,1.663579792E-1,-7.059607506E-1,-2.283907086E-1
2.694576927E0,1.871273816E-1,-6.326569319E-1,-2.528252900E-1
2.697006770E0,1.883490980E-1,-6.131092906E-1,-2.583230734E-1
2.699437500E0,2.286661714E-1,-6.033354402E-1,-2.228929251E-1
2.701868958E0,2.775353491E-1,-5.165926814E-1,-2.332776338E-1
2.704299635E0,3.117437959E-1,-3.944196999E-1,-2.839793861E-1
2.706729479E0,3.367892206E-1,-2.062733471E-1,-3.572831452E-1
2.709160208E0,3.355675042E-1,-1.219740286E-1,-4.220348001E-1
2.711591666E0,3.282371163E-1,-4.744852707E-2,-4.641844928E-1
2.714022343E0,3.349566460E-1,-3.034431860E-2,-4.873973429E-1
2.716452187E0,3.294588625E-1,-7.066138834E-2,-5.057232976E-1
2.718882916E0,3.294588625E-1,-6.516360492E-2,-5.228275061E-1
2.721314375E0,3.196850419E-1,-6.516360492E-2,-5.466512442E-1
2.723745000E0,3.141872287E-1,-7.677003741E-2,-5.680314898E-1
2.726174843E0,3.221284747E-1,-1.030372232E-1,-5.790270567E-1
2.728605573E0,3.453413248E-1,-1.396891028E-1,-5.814705491E-1
2.731037031E0,3.569477797E-1,-1.775627136E-1,-5.869683027E-1
2.733467708E0,3.691650629E-1,-2.319296747E-1,-5.961312652E-1
2.735897552E0,3.807714880E-1,-2.887400985E-1,-6.040725112E-1
2.738328281E0,3.990974426E-1,-3.339440823E-1,-6.144572496E-1
2.740759739E0,3.948213756E-1,-3.596003950E-1,-6.162897944E-1
2.743190416E0,3.948213756E-1,-3.541026115E-1,-5.967421532E-1
2.745620208E0,3.984865844E-1,-3.217267990E-1,-5.655880570E-1
2.748050937E0,3.905453384E-1,-3.058443069E-1,-5.344339609E-1
2.750482448E0,3.661107421E-1,-3.082877696E-1,-5.002254844E-1
2.752913073E0,3.471739292E-1,-3.058443069E-1,-4.623518884E-1
2.755342916E0,3.422870040E-1,-3.223376572E-1,-4.391390383E-1
2.757773645E0,3.233501911E-1,-3.687633574E-1,-4.226456881E-1
2.760205104E0,3.251827955E-1,-4.035826623E-1,-4.055414796E-1
2.762635781E0,3.233501911E-1,-4.164108038E-1,-3.914915621E-1
2.765065625E0,3.178524375E-1,-4.371802211E-1,-3.817177415E-1
2.767496354E0,3.050242662E-1,-4.542844296E-1,-3.676678538E-1
2.769927812E0,2.787570953E-1,-4.719994962E-1,-3.536179662E-1
2.772358489E0,2.457703948E-1,-5.068188310E-1,-3.334594369E-1
2.774788281E0,1.993446648E-1,-5.117057562E-1,-3.145226240E-1
2.777219010E0,1.565841436E-1,-4.909363091E-1,-2.937532365E-1
2.779650520E0,1.071040928E-1,-4.774972796E-1,-2.662643194E-1
2.782081198E0,5.823491886E-2,-4.622256756E-1,-2.406080067E-1
2.784510989E0,1.486352459E-2,-4.591713548E-1,-2.210603356E-1
2.786941718E0,-3.522738069E-2,-4.610039294E-1,-2.015126646E-1
2.789373177E0,-6.821407378E-2,-4.603930712E-1,-1.941822916E-1
2.791803854E0,-1.158615202E-1,-4.622256756E-1,-1.911279708E-1
2.794233698E0,-1.561785936E-1,-4.622256756E-1,-1.984583437E-1
2.796664427E0,-1.989391148E-1,-4.616148174E-1,-2.118973583E-1
2.799095885E0,-2.484191656E-1,-4.524518251E-1,-2.326667607E-1
2.801526562E0,-2.954557538E-1,-4.536735713E-1,-2.497709841E-1
2.803956406E0,-3.400488794E-1,-4.561170340E-1,-2.729838192E-1
2.806387083E0,-3.809768260E-1,-4.756647050E-1,-2.980292737E-1
2.808818593E0,-4.316785634E-1,-4.701669216E-1,-3.279616535E-1
2.811249218E0,-4.878781140E-1,-4.432888627E-1,-3.548396826E-1
2.813679062E0,-5.514080524E-1,-4.298498333E-1,-3.780525625E-1
2.816109791E0,-6.112728119E-1,-4.151890874E-1,-4.024871290E-1
2.818541250E0,-6.693049669E-1,-3.834241331E-1,-4.244782627E-1
2.820971927E0,-7.102328539E-1,-3.760937452E-1,-4.531889260E-1
2.823401770E0,-7.462738752E-1,-3.565460742E-1,-4.806778133E-1
2.825832500E0,-7.804822922E-1,-3.479939699E-1,-5.136645436E-1
2.828263958E0,-8.122472763E-1,-3.400527239E-1,-5.521490574E-1
2.830694635E0,-8.336275816E-1,-3.357766867E-1,-5.900226235E-1
2.833124479E0,-8.605055809E-1,-3.119529486E-1,-6.285071373E-1
2.835555156E0,-8.782206774E-1,-2.777445316E-1,-6.614938378E-1
2.837986614E0,-8.910489082E-1,-2.435360998E-1,-6.926479340E-1
2.840417291E0,-9.026552439E-1,-3.400950506E-2,-7.286889553E-1
2.842847135E0,-9.338093996E-1,2.042277455E-1,-7.598430514E-1
2.845277864E0,-9.667960405E-1,3.465592265E-1,-7.977166176E-1
2.847709323E0,-9.869545698E-1,4.687321782E-1,-8.410880566E-1
2.850140000E0,-9.936741590E-1,5.841855407E-1,-8.814051151E-1
2.852569843E0,-9.839003086E-1,6.941412091E-1,-9.363829494E-1
2.855000573E0,-9.722938538E-1,7.753862143E-1,-9.962477088E-1
2.857432031E0,-9.564113617E-1,8.364726901E-1,-1.063442707E0
2.859862708E0,-9.515243769E-1,8.694593906E-1,-1.131859541E0
2.862292552E0,-9.338093996E-1,9.183285832E-1,-1.214326382E0
2.864723229E0,-9.228137732E-1,9.867454171E-1,-1.299847364E0
2.867154739E0,-9.167051315E-1,1.055773139E0,-1.392698884E0
2.869585364E0,-8.996009827E-1,1.123579144E0,-1.492880583E0
2.872015208E0,-8.959357738E-1,1.211543679E0,-1.593062401E0
2.874445937E0,-8.806641102E-1,1.298286438E0,-1.701185465E0
2.876877395E0,-8.653925657E-1,1.368535876E0,-1.803810835E0
2.879308073E0,-8.592839241E-1,1.454056978E0,-1.908879519E0
2.881737916E0,-8.458448648E-1,1.524306417E0,-2.005396128E0
2.884168645E0,-8.317949772E-1,1.595166683E0,-2.103745461E0
2.886600104E0,-7.872018814E-1,1.650144458E0,-2.200262070E0
2.889030781E0,-7.548260689E-1,1.703900576E0,-2.294335365E0
2.891460573E0,-7.145090103E-1,1.732000351E0,-2.380467176E0
2.893891302E0,-6.491464376E-1,1.706954956E0,-2.453770876E0
2.896322760E0,-6.082184315E-1,1.653809667E0,-2.502029181E0
2.898753437E0,-5.788969994E-1,1.549351811E0,-2.532572508E0
2.901183281E0,-5.727883577E-1,1.353875160E0,-2.525242090E0
2.903614010E0,-5.605710745E-1,1.099144578E0,-2.494087934E0
2.906045468E0,-5.489646196E-1,8.016533852E-1,-2.445829630E0
2.908476145E0,-5.202540159E-1,5.053840280E-1,-2.385354042E0
2.910905989E0,-4.726065099E-1,2.188884914E-1,-2.318769932E0
2.913336718E0,-4.060222805E-1,-5.477890745E-2,-2.252796412E0
2.915768177E0,-3.125599623E-1,-2.832423151E-1,-2.184379578E0
2.918198854E0,-2.087129653E-1,-4.585604966E-1,-2.121460438E0
2.920628645E0,-1.060876846E-1,-5.709596276E-1,-2.066482782E0
2.923059375E0,-1.140365750E-2,-6.448742747E-1,-2.012726545E0
2.925490833E0,8.694556355E-2,-7.041281462E-1,-1.966300845E0
2.927921510E0,1.694123000E-1,-7.426126003E-1,-1.929648876E0
2.930351354E0,2.366074175E-1,-7.823188305E-1,-1.883834004E0
2.932782083E0,2.915852368E-1,-8.201924562E-1,-1.839851856E0
2.935213541E0,3.374001086E-1,-8.403509855E-1,-1.798313022E0
2.937644218E0,3.807714880E-1,-8.464596272E-1,-1.755552411E0
2.940074062E0,4.424688220E-1,-8.928853273E-1,-1.723176599E0
2.942504791E0,4.998901188E-1,-9.069352150E-1,-1.687746525E0
2.944936250E0,5.505918860E-1,-8.757811189E-1,-1.655370712E0
2.947366927E0,5.909090042E-1,-8.177489638E-1,-1.622383952E0
2.949796718E0,6.287825108E-1,-7.536081672E-1,-1.585121155E0
2.952227448E0,6.587148905E-1,-6.912999749E-1,-1.544193268E0
2.954658906E0,6.776517630E-1,-6.289917827E-1,-1.502043605E0
2.957089583E0,6.880364418E-1,-5.672944188E-1,-1.465391755E0
2.959519427E0,6.892582178E-1,-5.123165846E-1,-1.427518129E0
2.961950156E0,6.831495762E-1,-4.506192505E-1,-1.390866280E0
2.964381614E0,6.715431213E-1,-3.931979537E-1,-1.349938273E0
2.966812291E0,6.599366665E-1,-3.308897614E-1,-1.305345178E0
2.969242135E0,6.428325176E-1,-2.545316815E-1,-1.259530306E0
2.971672864E0,6.238956451E-1,-1.616802216E-1,-1.217991471E0
2.974104323E0,5.964066982E-1,-6.516360492E-2,-1.179507017E0
2.976535000E0,5.725830197E-1,3.074215539E-2,-1.139189959E0
2.978964791E0,5.499809980E-1,1.205392703E-1,-1.110479355E0
2.981395520E0,5.267681479E-1,2.140015811E-1,-1.082990408E0
2.983826979E0,5.157725811E-1,2.946357131E-1,-1.065886140E0
2.986257656E0,5.127182603E-1,3.661068976E-1,-1.047560215E0
2.988687500E0,5.133291483E-1,4.363563359E-1,-1.034121275E0
2.991118229E0,5.304333568E-1,5.004971027E-1,-1.018238783E0
2.993549687E0,5.603656769E-1,5.652487874E-1,-1.001745462E0
2.995980364E0,5.896872282E-1,6.232808828E-1,-9.773108959E-1
2.998410208E0,6.373347044E-1,6.794804335E-1,-9.553197622E-1
3.000840937E0,6.788734198E-1,7.307931185E-1,-9.259982109E-1
3.003272395E0,7.283535004E-1,7.814948559E-1,-8.850703239E-1
3.005703020E0,7.760009766E-1,8.193684816E-1,-8.398663402E-1
3.008132864E0,8.230375051E-1,8.633507490E-1,-7.909971476E-1
3.010563593E0,8.670197725E-1,8.951157331E-1,-7.366302013E-1
3.012995052E0,9.091694355E-1,9.250480533E-1,-6.798197627E-1
3.015425729E0,9.464322329E-1,9.678086042E-1,-6.248419285E-1
3.017855573E0,9.843058586E-1,1.013012648E0,-5.649771690E-1
3.020286302E0,1.017903447E0,1.066768646E0,-5.038906932E-1
3.022717760E0,1.050279260E0,1.130909443E0,-4.354738295E-1
3.025148437E0,1.087542057E0,1.197493792E0,-3.603374660E-1
3.027578281E0,1.118085265E0,1.264078021E0,-2.797033191E-1
3.030008958E0,1.145574212E0,1.333105683E0,-1.862410456E-1
3.032440468E0,1.174284816E0,1.397857428E0,-8.361576498E-2
3.034871093E0,1.193832517E0,1.446726561E0,3.550285101E-2
3.037300937E0,1.195665002E0,1.436341882E0,1.417933106E-1
3.039731666E0,1.187112927E0,1.363038063E0,2.132644802E-1
3.042163125E0,1.175506473E0,1.284847379E0,2.920660377E-1
3.044593802E0,1.172452211E0,1.193828583E0,3.672024012E-1
3.047023645E0,1.160845757E0,1.101588011E0,4.484474063E-1
3.049454375E0,1.154126287E0,9.965192080E-1,5.254163146E-1
3.051885833E0,1.140687227E0,8.737354279E-1,5.865027905E-1
3.054316510E0,1.121139526E0,7.369017601E-1,6.225438118E-1
3.056746302E0,1.099759340E0,6.086201668E-1,6.414806247E-1
3.059177031E0,1.080822468E0,4.797277153E-1,6.653043628E-1
3.061608489E0,1.063718200E0,3.661068976E-1,6.824085712E-1
3.064039166E0,1.016681671E0,2.708120048E-1,7.037888169E-1
3.066469010E0,9.788080454E-1,1.810148805E-1,7.153952718E-1
3.068899739E0,9.342149496E-1,1.009915918E-1,7.306668758E-1
3.071331198E0,8.841240406E-1,2.768783085E-2,7.324994802E-1
3.073761875E0,8.267027140E-1,-3.278777748E-2,7.422733307E-1
3.076191718E0,7.680597305E-1,-8.715473861E-2,7.447167635E-1
3.078622448E0,7.045297623E-1,-1.274718046E-1,7.477710843E-1
3.081053906E0,6.385563612E-1,-1.580150425E-1,7.441059351E-1
3.083484583E0,5.707504153E-1,-1.885582805E-1,7.379972339E-1
3.085914375E0,5.005009770E-1,-1.940560639E-1,7.318885922E-1
3.088345104E0,4.216994345E-1,-1.922234595E-1,7.221148014E-1
3.090776562E0,3.441196084E-1,-1.683997363E-1,7.135626674E-1
3.093207239E0,2.604311407E-1,-1.372456402E-1,7.037888169E-1
3.095637083E0,1.816295981E-1,-1.152545139E-1,6.909607053E-1
3.098067812E0,9.366507828E-2,-9.387425333E-2,6.830194592E-1
3.100499270E0,1.913957670E-2,-6.333101541E-2,6.726347208E-1
3.102929948E0,-4.866640270E-2,-3.400950506E-2,6.646934748E-1
3.105359791E0,-1.164723933E-1,-6.520594005E-3,6.628609300E-1
3.107790468E0,-1.702284813E-1,1.241621189E-2,6.634717584E-1
3.110221979E0,-2.178759277E-1,1.852485910E-2,6.701912880E-1
3.112652604E0,-2.551386952E-1,2.524437197E-2,6.787433624E-1
3.115082448E0,-2.832384706E-1,2.829869278E-2,6.866846085E-1
3.117513177E0,-3.046187162E-1,2.829869278E-2,6.897389293E-1
3.119944635E0,-3.192794919E-1,3.135301918E-2,6.995127797E-1
3.122375312E0,-3.321076334E-1,2.341177687E-2,7.123409510E-1
3.124805156E0,-3.351619542E-1,1.241621189E-2,7.239473462E-1
3.127235885E0,-3.449358046E-1,7.529294584E-3,7.392190099E-1
3.129667343E0,-3.510444462E-1,-1.079664752E-2,7.630426884E-1
3.132098020E0,-3.565422297E-1,-3.400950506E-2,7.868664265E-1
3.134527864E0,-3.650943339E-1,-5.538976938E-2,8.125227690E-1
3.136958541E0,-3.699812591E-1,-8.165695518E-2,8.381790519E-1
3.139390052E0,-3.834202588E-1,-1.048698202E-1,8.693332076E-1
3.141820677E0,-3.950267136E-1,-1.195305660E-1,8.937677741E-1
3.144250520E0,-3.962484300E-1,-1.372456402E-1,9.243109822E-1
3.146681250E0,-4.170178473E-1,-1.433542818E-1,9.469130039E-1
3.149112708E0,-4.286242425E-1,-1.543498486E-1,9.701258540E-1
3.151543385E0,-4.383980930E-1,-1.665671468E-1,9.884517789E-1
3.153973229E0,-4.518370926E-1,-1.745083928E-1,9.982256293E-1
3.156403958E0,-4.658870399E-1,-1.781735718E-1,9.994474053E-1
3.158835416E0,-4.640544355E-1,-1.867256761E-1,9.939495921E-1
3.161266093E0,-4.634435475E-1,-2.056624889E-1,9.713475704E-1
3.163695885E0,-4.671087563E-1,-2.465904206E-1,9.334739447E-1
3.166126614E0,-4.640544355E-1,-3.015682399E-1,8.833830953E-1
3.168558073E0,-4.610001147E-1,-3.583786786E-1,8.229074478E-1
3.170988750E0,-4.561131895E-1,-4.212977290E-1,7.489928007E-1
3.173418593E0,-4.548914731E-1,-4.903254509E-1,6.714130044E-1
3.175849323E0,-4.567240179E-1,-5.349186063E-1,5.956657529E-1
3.178280781E0,-4.622218311E-1,-5.703487396E-1,5.223619938E-1
3.180711458E0,-4.658870399E-1,-5.905072689E-1,4.533343315E-1
3.183141302E0,-4.713847935E-1,-5.911181569E-1,3.800305724E-1
3.185571979E0,-4.884890020E-1,-5.843986273E-1,3.146680295E-1
3.188003489E0,-4.988736808E-1,-5.746248364E-1,2.450294346E-1
3.190434114E0,-5.068149567E-1,-5.465250611E-1,1.827212423E-1
3.192863958E0,-5.251408815E-1,-4.976558387E-1,1.252999604E-1
3.195294687E0,-5.330821276E-1,-4.432888627E-1,6.543522328E-2
3.197726145E0,-5.452994108E-1,-3.773154616E-1,1.962037198E-2
3.200156823E0,-5.428559780E-1,-2.997356653E-1,-3.230313212E-2
3.202586666E0,-5.489646196E-1,-2.172689140E-1,-7.811798155E-2
3.205017395E0,-5.422451496E-1,-1.293043941E-1,-1.269871593E-1
3.207448854E0,-5.300277472E-1,-5.172458291E-2,-1.844084561E-1
3.209879531E0,-5.025389194E-1,9.361889213E-3,-2.418297380E-1
3.212309323E0,-4.677195847E-1,5.884193256E-2,-2.974184155E-1
3.214740052E0,-4.231264889E-1,9.549381584E-2,-3.523962200E-1
3.217171562E0,-3.803659379E-1,1.297022402E-1,-3.994328082E-1
3.219602187E0,-3.296641707E-1,1.571911573E-1,-4.366955757E-1
3.222032031E0,-2.728537619E-1,1.865126640E-1,-4.684605300E-1
3.224462760E0,-2.123781443E-1,2.158341706E-1,-4.904516637E-1
3.226894218E0,-1.519025415E-1,2.469882667E-1,-5.020580888E-1
3.229324895E0,-8.898347616E-2,2.756989002E-1,-5.069450140E-1
3.231754739E0,-1.506884396E-2,2.964683175E-1,-5.045015812E-1
3.234185468E0,4.479589686E-2,3.196811676E-1,-4.922842681E-1
3.236616927E0,1.126018763E-1,3.392288387E-1,-4.727365971E-1
3.239047604E0,1.730774939E-1,3.416723013E-1,-4.507454634E-1
3.241477395E0,2.353856862E-1,3.569439352E-1,-4.330303669E-1
3.243908125E0,2.934178412E-1,3.483918011E-1,-4.122609794E-1
3.246339583E0,3.410652876E-1,3.306767344E-1,-3.859938085E-1
3.248770260E0,3.850475550E-1,2.964683175E-1,-3.633917868E-1
3.251200104E0,4.284189343E-1,2.659250796E-1,-3.414006829E-1
3.253630833E0,4.534643888E-1,2.421013564E-1,-3.304051161E-1
3.256062291E0,4.870619476E-1,2.066711932E-1,-3.291833699E-1
3.258492968E0,5.072205067E-1,1.761279702E-1,-3.352920115E-1
3.260922812E0,5.267681479E-1,1.431412697E-1,-3.462875783E-1
3.263353489E0,5.414289236E-1,1.034350544E-1,-3.603374660E-1
3.265785000E0,5.444832444E-1,9.121775627E-2,-3.768308163E-1
3.268215625E0,5.615874529E-1,9.671553969E-2,-4.012654126E-1
3.270645468E0,5.676960945E-1,1.358108968E-1,-4.373064339E-1
3.273076198E0,5.707504153E-1,1.871235222E-1,-4.782343805E-1
3.275507656E0,5.713613033E-1,2.286623269E-1,-5.185514688E-1
3.277938333E0,5.640308857E-1,2.402687520E-1,-5.619228482E-1
3.280368177E0,5.395963192E-1,2.256080061E-1,-5.918552279E-1
3.282798906E0,5.145508647E-1,1.810148805E-1,-6.199550033E-1
3.285230364E0,4.785098433E-1,1.242044494E-1,-6.401135325E-1
3.287661041E0,4.326950014E-1,5.395501480E-2,-6.608829498E-1
3.290090833E0,3.874910176E-1,-1.018578187E-2,-6.859284043E-1
3.292521562E0,3.374001086E-1,-4.744852707E-2,-7.060869336E-1
3.294953020E0,2.818114161E-1,-8.165695518E-2,-7.256346345E-1
3.297383698E0,2.213357985E-1,-9.692857414E-2,-7.421279550E-1
3.299813541E0,1.663579792E-1,-8.898733556E-2,-7.537344098E-1
3.302244270E0,1.083258241E-1,-7.310485095E-2,-7.586212754E-1
3.304675729E0,5.640232563E-2,-4.256160930E-2,-7.506800890E-1
3.307106406E0,9.976610541E-3,-8.353188634E-3,-7.372410297E-1
3.309536250E0,-3.400565684E-2,3.440734372E-2,-7.115847468E-1
3.311966979E0,-7.004667819E-2,7.167008519E-2,-6.773762703E-1
3.314398437E0,-9.264867008E-2,1.071002409E-1,-6.382809281E-1
3.316829114E0,-1.115854681E-1,1.443630010E-1,-5.912443995E-1
3.319258906E0,-1.201375723E-1,1.681867242E-1,-5.509272814E-1
3.321689635E0,-1.183049828E-1,1.779605597E-1,-5.063341856E-1
3.324121093E0,-1.183049828E-1,1.785714179E-1,-4.629627466E-1
3.326551770E0,-1.079202890E-1,1.718519032E-1,-4.183696210E-1
3.328981614E0,-9.142693877E-2,1.620780677E-1,-3.792742789E-1
3.331412343E0,-7.249012589E-2,1.510825157E-1,-3.352920115E-1
3.333843802E0,-5.355332792E-2,1.498607844E-1,-2.937532365E-1
3.336274479E0,-2.789700776E-2,1.578020155E-1,-2.571013570E-1
3.338704323E0,-9.571060538E-3,1.645215303E-1,-2.143408209E-1
3.341135000E0,1.364179701E-2,1.718519032E-1,-1.734128892E-1
3.343566458E0,2.708081901E-2,1.797931492E-1,-1.355392784E-1
3.345997135E0,3.990897909E-2,1.846800745E-1,-1.031634361E-1
3.348426979E0,4.846108332E-2,1.767388284E-1,-7.384192944E-2
3.350857708E0,4.785022140E-2,1.730736345E-1,-5.062907189E-2
3.353289166E0,3.929811344E-2,1.645215303E-1,-2.741621248E-2
3.355719843E0,2.524822578E-2,1.571911573E-1,-9.701135568E-3
3.358149687E0,2.035364509E-3,1.468064487E-1,5.570482463E-3
3.360580416E0,-2.423182130E-2,1.364217550E-1,1.351172291E-2
3.363011875E0,-5.477505922E-2,1.144306213E-1,2.023123577E-2
3.365442552E0,-8.715088665E-2,8.694170415E-2,1.534431800E-2
3.367872343E0,-1.134180725E-1,5.090069026E-2,7.269997150E-5
3.370303073E0,-1.415178478E-1,1.180534624E-2,-1.825324073E-2
3.372734531E0,-1.726719439E-1,-3.462037072E-2,-4.390955716E-2
3.375165208E0,-1.983282566E-1,-8.959820122E-2,-7.200933993E-2
3.377595052E0,-2.203193903E-1,-1.409108341E-1,-9.766565263E-2
3.380025781E0,-2.410888076E-1,-1.690106094E-1,-1.019417048E-1
3.382457239E0,-2.630799115E-1,-1.720649302E-1,-9.094614536E-2
3.384887916E0,-2.832384706E-1,-1.635128260E-1,-6.406809390E-2
3.387317760E0,-3.082839251E-1,-1.451868862E-1,-2.924880572E-2
3.389748489E0,-3.284424543E-1,-1.305261254E-1,-1.759894192E-3
3.392179948E0,-3.516553044E-1,-1.225848943E-1,2.023123577E-2
3.394610625E0,-3.687595129E-1,-1.122001931E-1,4.283323139E-2
3.397040416E0,-3.870854676E-1,-9.998289496E-2,7.154387236E-2
3.399471145E0,-3.950267136E-1,-8.715473861E-2,9.658932686E-2
3.401902604E0,-4.048005342E-1,-7.677003741E-2,1.283542812E-1
3.404333281E0,-3.999136090E-1,-8.654387295E-2,1.558431983E-1
3.406763125E0,-3.809768260E-1,-1.164762452E-1,1.918842196E-1
3.409193854E0,-3.339402378E-1,-1.738975197E-1,2.303686887E-1
3.411625312E0,-2.649125159E-1,-2.374274582E-1,2.627445459E-1
3.414055989E0,-1.745045483E-1,-2.972922027E-1,2.792378962E-1
3.416485833E0,-7.187926769E-2,-3.302789032E-1,2.767944336E-1
3.418916510E0,2.341563255E-2,-3.205050528E-1,2.535815537E-1
3.421348020E0,1.138236076E-1,-2.753010690E-1,2.322012931E-1
3.423778698E0,1.712448895E-1,-1.531281173E-1,2.065449655E-1
3.426208489E0,2.133945525E-1,-2.667913027E-2,1.796669215E-1
3.428639218E0,2.482138425E-1,7.655700296E-2,1.607301086E-1
3.431070677E0,2.799788117E-1,1.694084555E-1,1.405715793E-1
3.433501354E0,3.031916618E-1,2.280514687E-1,1.259108335E-1
3.435931198E0,3.319023252E-1,2.756989002E-1,1.118609458E-1
3.438361927E0,3.441196084E-1,3.264006972E-1,1.008653790E-1
3.440793385E0,3.551151752E-1,3.557221889E-1,1.063631624E-1
3.443224062E0,3.465630710E-1,3.984827101E-1,1.069740281E-1
3.445653906E0,3.404544294E-1,4.302476943E-1,1.045305654E-1
3.448084583E0,3.172415495E-1,4.607909322E-1,1.033088416E-1
3.450516093E0,2.897526622E-1,4.827820659E-1,1.069740281E-1
3.452946718E0,2.647072077E-1,5.029405355E-1,1.014762446E-1
3.455376562E0,2.243901193E-1,5.261534452E-1,9.292414039E-2
3.457807291E0,1.895708442E-1,5.518097281E-1,9.231327474E-2
3.460238750E0,1.547515392E-1,5.915159583E-1,9.231327474E-2
3.462669427E0,1.144344732E-1,6.318330169E-1,9.231327474E-2
3.465099270E0,6.739789248E-2,6.764261127E-1,9.964365512E-2
3.467530000E0,1.975044236E-2,7.332365513E-1,9.414587170E-2
3.469961458E0,-3.767084330E-2,7.943230271E-1,9.048067778E-2
3.472392135E0,-9.814645350E-2,8.560203910E-1,8.315030485E-2
3.474821927E0,-1.604546458E-1,9.195502996E-1,6.971128285E-2
3.477252656E0,-2.160433531E-1,9.739172459E-1,5.871571600E-2
3.479684114E0,-2.685776949E-1,1.017288685E0,5.138533562E-2
3.482114791E0,-3.076730371E-1,1.042334080E0,4.772014916E-2
3.484544635E0,-3.547096252E-1,1.065546989E0,4.344409704E-2
3.486975364E0,-3.938049674E-1,1.077764273E0,3.428112715E-2
3.489406823E0,-4.432850182E-1,1.094257593E0,2.878334187E-2
3.491837500E0,-4.793260396E-1,1.093646765E0,2.572901733E-2
3.494267343E0,-5.220866203E-1,1.105864048E0,2.267469279E-2
3.496698073E0,-5.617927313E-1,1.096701026E0,1.228999533E-2
3.499129531E0,-5.874490738E-1,1.083872914E0,5.570482463E-3
3.501560156E0,-6.302095652E-1,1.063714385E0,-5.381647497E-4
3.503990000E0,-6.515898705E-1,1.020342946E0,6.835646927E-4
3.506420729E0,-6.766353846E-1,9.751389623E-1,1.351172291E-2
3.508852187E0,-6.974047422E-1,9.366545081E-1,3.672458231E-2
3.511282864E0,-7.120654583E-1,8.896179199E-1,5.566138774E-2
3.513712708E0,-7.261153460E-1,8.309749365E-1,7.154387236E-2
3.516143437E0,-7.377218008E-1,7.741644979E-1,8.925895393E-2
3.518574895E0,-7.591021061E-1,7.277387977E-1,1.112500802E-1
3.521005573E0,-7.627673149E-1,6.776478887E-1,1.314086169E-1
3.523435416E0,-7.688759565E-1,6.141179204E-1,1.570649296E-1
3.525866145E0,-7.700976133E-1,5.402033329E-1,1.668387651E-1
3.528297604E0,-7.664324045E-1,4.656778276E-1,1.711148173E-1
3.530728281E0,-7.627673149E-1,4.021479189E-1,1.863864362E-1
3.533158073E0,-7.316131592E-1,3.276224136E-1,2.071558386E-1
3.535588802E0,-7.132872343E-1,3.068530262E-1,2.322012931E-1
3.538020260E0,-6.686941385E-1,2.750880420E-1,2.395316660E-1
3.540450937E0,-6.375399828E-1,2.494317293E-1,2.376990765E-1
3.542880781E0,-6.222684383E-1,2.585946918E-1,2.193731219E-1
3.545311510E0,-6.094402075E-1,2.359926999E-1,1.766126007E-1
3.547742968E0,-5.972229242E-1,1.968973577E-1,1.259108335E-1
3.550173645E0,-6.033315659E-1,1.510825157E-1,7.704165578E-2
3.552603437E0,-5.691231489E-1,5.823106691E-2,2.633988298E-2
3.555034218E0,-5.306386948E-1,-3.462037072E-2,-2.863794193E-2
3.557465677E0,-4.927650392E-1,-8.471128345E-2,-7.933971286E-2
3.559896302E0,-4.353437722E-1,-1.665671468E-1,-1.318740845E-1
3.562326145E0,-3.925832510E-1,-2.044407576E-1,-1.789106727E-1
3.564756875E0,-3.540987670E-1,-2.331514060E-1,-2.296124399E-1
3.567188333E0,-2.924014330E-1,-2.691924274E-1,-2.827576697E-1
3.569619010E0,-2.331475616E-1,-3.205050528E-1,-3.334594369E-1
3.572048854E0,-1.726719439E-1,-3.644873202E-1,-3.731656373E-1
3.574479583E0,-1.830566525E-1,-3.797589242E-1,-3.951567709E-1
3.576911041E0,-1.512916833E-1,-4.481757879E-1,-4.257000089E-1
3.579341718E0,-1.659524292E-1,-4.463431835E-1,-4.452476799E-1
3.581771562E0,-1.641198397E-1,-4.903254509E-1,-4.690713882E-1
3.584202239E0,-1.855001152E-1,-5.049862266E-1,-4.904516637E-1
3.586633750E0,-1.793914437E-1,-5.404163599E-1,-5.258818269E-1
3.589064375E0,-1.586220562E-1,-5.856204033E-1,-5.680314898E-1
3.591494218E0,-1.848892272E-1,-6.210505366E-1,-5.961312652E-1
3.593924948E0,-2.184867859E-1,-6.265482903E-1,-6.132354736E-1
3.596356406E0,-2.594147325E-1,-5.990594029E-1,-6.169006824E-1
3.598787083E0,-3.143925667E-1,-6.448742747E-1,-6.260636449E-1
3.601216927E0,-3.076730371E-1,-6.564806700E-1,-6.242310405E-1
3.603647656E0,-3.620400131E-1,-6.619784832E-1,-6.217876077E-1
3.606079114E0,-4.121309221E-1,-6.809152961E-1,-6.211767197E-1
3.608509791E0,-4.555023015E-1,-7.114585042E-1,-6.358374953E-1
3.610939635E0,-4.866563976E-1,-7.047389746E-1,-6.413352489E-1
3.613370312E0,-5.391907692E-1,-6.949651837E-1,-6.388918161E-1
3.615801823E0,-5.795078278E-1,-6.876347661E-1,-6.370592117E-1
3.618232448E0,-6.076076031E-1,-6.668654084E-1,-6.352266073E-1
3.620662291E0,-6.784679890E-1,-6.253265738E-1,-6.297288537E-1
3.623093020E0,-7.224501371E-1,-6.198288202E-1,-6.370592117E-1
3.625524479E0,-7.389435768E-1,-6.332678199E-1,-6.443896294E-1
3.627955156E0,-7.676541805E-1,-6.002811193E-1,-6.572177410E-1
3.630385000E0,-8.183559179E-1,-5.825660229E-1,-6.578286290E-1
3.632815729E0,-8.122472763E-1,-5.996702909E-1,-6.596612334E-1
3.635247187E0,-8.745554686E-1,-5.782899857E-1,-6.596612334E-1
3.637677864E0,-8.751664162E-1,-5.837877989E-1,-6.761545539E-1
3.640107656E0,-9.087638855E-1,-5.905072689E-1,-7.103629708E-1
3.642538385E0,-9.203703403E-1,-6.033354402E-1,-7.519018054E-1
3.644969843E0,-9.515243769E-1,-6.399873495E-1,-7.873319387E-1
3.647400520E0,-9.912306070E-1,-6.668654084E-1,-8.264272809E-1
3.649830364E0,-1.006502271E0,-7.029064298E-1,-8.679661155E-1
3.652261093E0,-1.084082127E0,-7.297844291E-1,-9.021745324E-1
3.654692552E0,-1.149444580E0,-7.481104136E-1,-9.235547781E-1
3.657123229E0,-1.168992281E0,-8.153055310E-1,-9.559305906E-1
3.659553073E0,-1.202589869E0,-8.403509855E-1,-9.993020296E-1
3.661983802E0,-1.292386889E0,-8.953287601E-1,-1.026180029E0
3.664415260E0,-1.345532179E0,-9.380893111E-1,-1.051225424E0
3.666845937E0,-1.435329318E0,-9.832932949E-1,-1.089099050E0
3.669275729E0,-1.489085436E0,-1.066981792E0,-1.140411735E0
3.671706458E0,-1.539787173E0,-1.177548289E0,-1.190502644E0
3.674137968E0,-1.591710687E0,-1.179991722E0,-1.230208755E0
3.676568593E0,-1.627751708E0,-1.149448514E0,-1.255254269E0
3.678998437E0,-1.658294916E0,-1.168996215E0,-1.264417291E0
3.681429166E0,-1.753589869E0,-1.218476176E0,-1.260141134E0
3.683860625E0,-1.755422354E0,-1.275286674E0,-1.270525932E0
3.686291302E0,-1.753589869E0,-1.322323203E0,-1.261973739E0
3.688721145E0,-1.766417980E0,-1.378522754E0,-1.266249776E0
3.691151875E0,-1.736485600E0,-1.456102610E0,-1.278467178E0
3.693583333E0,-1.706553221E0,-1.509247780E0,-1.302290797E0
3.696014010E0,-1.704109788E0,-1.566058278E0,-1.332223177E0
3.698443854E0,-1.712051034E0,-1.633253336E0,-1.371318579E0
3.700874531E0,-1.679064274E0,-1.679679036E0,-1.425685525E0
3.703305989E0,-1.646688461E0,-1.726715684E0,-1.468446016E0
3.705736666E0,-1.616756082E0,-1.781082630E0,-1.500821829E0
3.708166510E0,-1.589878082E0,-1.807960629E0,-1.525256515E0
3.710597239E0,-1.562999964E0,-1.771308780E0,-1.535030246E0
3.713028698E0,-1.514741659E0,-1.685787678E0,-1.530754209E0
3.715459375E0,-1.468926907E0,-1.583162427E0,-1.534419417E0
3.717889218E0,-1.434107542E0,-1.448161364E0,-1.552745342E0
3.720319948E0,-1.341256142E0,-1.367527246E0,-1.582677722E0
3.722751406E0,-1.272228360E0,-1.257571578E0,-1.601614594E0
3.725182083E0,-1.230689645E0,-1.140285492E0,-1.609555840E0
3.727611875E0,-1.121955633E0,-1.117683530E0,-1.596116781E0
3.730042604E0,-1.086525559E0,-1.058429718E0,-1.558243155E0
3.732474114E0,-1.061480045E0,-9.674108028E-1,-1.526478171E0
3.734904791E0,-1.004669666E0,-9.222068191E-1,-1.498378396E0
3.737334583E0,-9.600765705E-1,-8.501247764E-1,-1.460504770E0
3.739765312E0,-9.527461529E-1,-7.841514349E-1,-1.414079070E0
3.742196770E0,-9.496918917E-1,-7.316170335E-1,-1.372540236E0
3.744627448E0,-9.368636608E-1,-7.358930707E-1,-1.318784237E0
3.747057291E0,-9.564113617E-1,-7.505538464E-1,-1.255865097E0
3.749488020E0,-9.466375113E-1,-8.061425686E-1,-1.210050225E0
3.751919479E0,-9.368636608E-1,-8.403509855E-1,-1.146520376E0
3.754350156E0,-9.496918917E-1,-8.562334180E-1,-1.082990408E0
3.756780000E0,-9.399180412E-1,-8.916636109E-1,-1.009686708E0
3.759210677E0,-9.167051315E-1,-8.934962153E-1,-9.455459118E-1
3.761642187E0,-9.215921164E-1,-9.118221402E-1,-8.759073019E-1
3.764072812E0,-8.916597366E-1,-9.026591778E-1,-8.135991096E-1
3.766502656E0,-8.647816181E-1,-8.965505362E-1,-7.415170670E-1
3.768933385E0,-8.317949772E-1,-8.916636109E-1,-6.712676287E-1
3.771364843E0,-7.804822922E-1,-8.550117016E-1,-5.930769444E-1
3.773795520E0,-7.303913832E-1,-7.939252257E-1,-5.038906932E-1
3.776225364E0,-6.974047422E-1,-7.261192799E-1,-4.171479046E-1
3.778656093E0,-6.631963253E-1,-6.522046328E-1,-3.322376907E-1
3.781087552E0,-6.460920572E-1,-5.898964405E-1,-2.528252900E-1
3.783518229E0,-6.424269676E-1,-5.373620391E-1,-1.911279708E-1
3.785948073E0,-6.216574907E-1,-5.196470022E-1,-1.404261887E-1
3.788378802E0,-6.021097898E-1,-4.897145927E-1,-1.007199809E-1
3.790810260E0,-5.947794914E-1,-4.756647050E-1,-6.406809390E-2
3.793240937E0,-5.917251110E-1,-4.726103842E-1,-3.719004989E-2
3.795670729E0,-5.764535666E-1,-4.487866461E-1,-1.519891806E-2
3.798101458E0,-5.550732613E-1,-4.316824377E-1,7.403077558E-3
3.800532916E0,-5.477428436E-1,-4.115239084E-1,3.977891058E-2
3.802963593E0,-5.202540159E-1,-3.724285662E-1,6.360263377E-2
3.805393437E0,-4.793260396E-1,-3.376092613E-1,8.437203616E-2
3.807824166E0,-4.500045478E-1,-2.985139191E-1,1.033088416E-1
3.810255625E0,-4.200721681E-1,-2.594185770E-1,1.014762446E-1
3.812686302E0,-3.870854676E-1,-2.123820037E-1,1.008653790E-1
3.815116145E0,-3.486009836E-1,-1.751192510E-1,9.597846121E-2
3.817546875E0,-3.211120665E-1,-1.293043941E-1,9.597846121E-2
3.819978333E0,-2.911796868E-1,-9.387425333E-2,9.720019251E-2
3.822409010E0,-2.649125159E-1,-7.066138834E-2,8.803722262E-2
3.824838854E0,-2.368127406E-1,-5.172458291E-2,8.437203616E-2
3.827269531E0,-2.190976739E-1,-2.301394194E-2,7.093300670E-2
3.829700989E0,-2.001608610E-1,7.529294584E-3,6.054831296E-2
3.832131666E0,-1.842783689E-1,3.623993695E-2,4.405496269E-2
3.834561510E0,-1.677850336E-1,5.212242156E-2,3.122680075E-2
3.836992239E0,-1.653415710E-1,6.556144357E-2,1.412258856E-2
3.839423698E0,-1.500699520E-1,7.289181650E-2,-3.592488356E-3
3.841854375E0,-1.384635270E-1,6.006366387E-2,-8.479406126E-3
3.844284218E0,-1.323548704E-1,4.295944795E-2,6.835646927E-4
3.846714948E0,-1.274679601E-1,2.280091308E-2,6.181346253E-3
3.849146406E0,-1.531242728E-1,1.608140022E-2,8.624805138E-3
3.851577083E0,-1.855001152E-1,6.918429863E-3,2.084209956E-2
3.854006927E0,-2.081021070E-1,-2.855405677E-3,4.466582835E-2
3.856437656E0,-2.319258153E-1,-5.909729283E-3,6.421349943E-2
3.858869114E0,-2.496409118E-1,-1.140751131E-2,8.498289436E-2
3.861299791E0,-2.661342323E-1,-1.018578187E-2,9.414587170E-2
3.863729583E0,-2.783515453E-1,-8.964052424E-3,9.658932686E-2
3.866160312E0,-2.771297991E-1,-7.742323447E-3,9.720019251E-2
3.868591770E0,-2.801841497E-1,5.085835699E-3,8.986981958E-2
3.871022448E0,-2.691885829E-1,5.334414914E-2,8.742635697E-2
3.873452291E0,-2.478083074E-1,1.205392703E-1,9.170240909E-2
3.875883020E0,-2.398670614E-1,1.608563513E-1,1.020871103E-1
3.878314479E0,-2.288714945E-1,1.834583431E-1,1.240782365E-1
3.880745156E0,-2.135998905E-1,1.962864995E-1,1.326303333E-1
3.883175000E0,-1.903870106E-1,2.146124393E-1,1.466802210E-1
3.885605729E0,-1.769480109E-1,2.097255290E-1,1.668387651E-1
3.888037187E0,-1.714502126E-1,1.956756413E-1,1.692822278E-1
3.890467864E0,-1.561785936E-1,1.785714179E-1,1.582866609E-1
3.892897656E0,-1.451830268E-1,1.687975824E-1,1.362955272E-1
3.895328437E0,-1.341874599E-1,1.920104474E-1,1.057522967E-1
3.897759895E0,-1.305222809E-1,1.846800745E-1,7.276560366E-2
3.900190520E0,-1.378526539E-1,1.706301868E-1,4.405496269E-2
3.902620364E0,-1.500699520E-1,1.614672095E-1,3.122680075E-2
3.905051093E0,-1.702284813E-1,1.578020155E-1,4.710928351E-2
3.907482552E0,-2.209302485E-1,1.907887161E-1,1.338520646E-1
3.909913229E0,-2.930122912E-1,2.188884914E-1,2.645771205E-1
3.912343073E0,-3.626508713E-1,2.482100129E-1,4.026325643E-1
3.914773802E0,-3.944158256E-1,2.848618925E-1,5.028143525E-1
3.917205260E0,-4.109091759E-1,3.300658762E-1,5.504617691E-1
3.919635937E0,-4.249590933E-1,3.795459270E-1,5.669551492E-1
3.922065781E0,-4.310677350E-1,4.113108814E-1,5.669551492E-1
3.924496510E0,-4.463393390E-1,4.430758357E-1,5.315250158E-1
3.926927968E0,-4.982628524E-1,4.723973572E-1,4.771580696E-1
3.929358645E0,-5.294169188E-1,4.895015657E-1,3.995782435E-1
3.931788489E0,-5.923360586E-1,5.292077661E-1,2.853465378E-1
3.934219166E0,-6.265444756E-1,5.212665200E-1,1.967711300E-1
3.936650677E0,-6.509790421E-1,5.194339156E-1,1.240782365E-1
3.939081302E0,-6.949613094E-1,5.566966534E-1,2.145296521E-2
3.941511145E0,-6.815222502E-1,5.738008618E-1,-2.497275360E-2
3.943941875E0,-6.760244370E-1,6.257243752E-1,-9.338960052E-2
3.946373333E0,-6.980155706E-1,7.057476640E-1,-1.544760764E-1
3.948804010E0,-6.723592281E-1,7.619472146E-1,-1.935714185E-1
3.951233854E0,-6.503682137E-1,8.260880113E-1,-2.204494625E-1
3.953664583E0,-6.277661324E-1,8.725137115E-1,-2.351102233E-1
3.956096041E0,-6.149380207E-1,9.048895240E-1,-2.662643194E-1
3.958526718E0,-6.039423943E-1,9.036678076E-1,-2.980292737E-1
3.960956562E0,-5.856164694E-1,8.871744871E-1,-3.511745036E-1
3.963387291E0,-5.788969994E-1,8.627398610E-1,-4.202022254E-1
3.965818750E0,-5.660687685E-1,8.486899734E-1,-4.892299473E-1
3.968249427E0,-5.831730366E-1,8.456356525E-1,-5.686423779E-1
3.970679270E0,-5.886708498E-1,8.260880113E-1,-6.303397417E-1
3.973109948E0,-5.434668064E-1,7.882143855E-1,-6.614938378E-1
3.975541458E0,-5.404125452E-1,7.973773479E-1,-7.073086500E-1
3.977972135E0,-5.507972240E-1,8.181467652E-1,-7.207477093E-1
3.980401927E0,-5.343039036E-1,8.438030481E-1,-7.299106717E-1
3.982832656E0,-5.343039036E-1,8.645724654E-1,-7.567887306E-1
3.985264114E0,-5.239191055E-1,8.535768986E-1,-8.007709980E-1
3.987694791E0,-4.463393390E-1,7.650015354E-1,-8.704095483E-1
3.990124635E0,-4.274025261E-1,7.063584924E-1,-9.095048904E-1
3.992555364E0,-3.693703711E-1,6.122853160E-1,-9.602066875E-1
3.994986823E0,-3.027861416E-1,5.334838033E-1,-1.016406178E0
3.997417500E0,-2.612473369E-1,4.827820659E-1,-1.062831879E0
3.999847343E0,-2.374235988E-1,4.632343948E-1,-1.089099050E0
4.002278073E0,-2.209302485E-1,4.607909322E-1,-1.107424974E0
4.004709531E0,-2.221519947E-1,4.858363867E-1,-1.093986034E0
4.007140208E0,-2.154324651E-1,5.102709532E-1,-1.051836252E0
4.009570052E0,-2.074912488E-1,5.542532206E-1,-9.785326123E-1
4.012000781E0,-2.209302485E-1,5.866290331E-1,-9.192787409E-1
4.014432239E0,-2.398670614E-1,6.141179204E-1,-8.728529811E-1
4.016862916E0,-2.710211575E-1,6.642088294E-1,-8.282598853E-1
4.019292708E0,-2.820167243E-1,7.002498507E-1,-7.702277303E-1
4.021723437E0,-3.272207081E-1,7.271279097E-1,-7.183042169E-1
4.024154895E0,-3.223338127E-1,6.843673587E-1,-6.792088747E-1
4.026585573E0,-3.192794919E-1,6.128962040E-1,-6.474439502E-1
4.029015416E0,-2.991209328E-1,5.347055197E-1,-6.395027041E-1
4.031446145E0,-3.626508713E-1,4.888907075E-1,-6.376700997E-1
4.033877604E0,-3.357728124E-1,4.223064482E-1,-6.492764950E-1
4.036308281E0,-3.217229247E-1,3.606091142E-1,-6.608829498E-1
4.038738125E0,-3.253881335E-1,2.952465713E-1,-6.663807034E-1
4.041168854E0,-3.266098499E-1,2.390470356E-1,-6.902044415E-1
4.043600312E0,-3.846420050E-1,2.524860501E-1,-7.091412544E-1
4.046030989E0,-3.852528632E-1,2.873053551E-1,-7.390736341E-1
4.048460833E0,-4.390089810E-1,3.294550180E-1,-7.586212754E-1
4.050891562E0,-4.286242425E-1,3.337310553E-1,-7.836667299E-1
4.053323020E0,-4.121309221E-1,3.141833842E-1,-8.300924897E-1
4.055753698E0,-4.225156009E-1,3.044095635E-1,-8.740747571E-1
4.058183489E0,-4.402306974E-1,2.775315046E-1,-9.205004573E-1
4.060614218E0,-4.322894514E-1,2.341601104E-1,-9.754782915E-1
4.063045729E0,-4.267916977E-1,1.913995743E-1,-1.042062521E0
4.065476354E0,-4.243482053E-1,1.235935912E-1,-1.116587996E0
4.067906198E0,-4.121309221E-1,3.929426149E-2,-1.209439397E0
4.070336927E0,-4.054113925E-1,-7.799176872E-2,-1.316951632E0
4.072768385E0,-4.561131895E-1,-1.702323407E-1,-1.415300846E0
4.075199062E0,-4.396198094E-1,-2.465904206E-1,-1.511817455E0
4.077628906E0,-4.090766013E-1,-3.027899861E-1,-1.609555840E0
4.080059635E0,-3.767007589E-1,-3.541026115E-1,-1.705461621E0
4.082491093E0,-3.345510960E-1,-3.883110285E-1,-1.794647813E0
4.084921770E0,-3.205012083E-1,-4.176325500E-1,-1.874671102E0
4.087351614E0,-3.064513206E-1,-4.384019375E-1,-1.955305219E0
4.089782343E0,-2.972883582E-1,-4.267955124E-1,-2.037772179E0
4.092213802E0,-3.107273579E-1,-3.547134697E-1,-2.124514818E0
4.094644479E0,-3.064513206E-1,-2.948487401E-1,-2.201483727E0
4.097074323E0,-2.991209328E-1,-2.398709059E-1,-2.265013695E0
4.099505000E0,-3.015643954E-1,-2.038298994E-1,-2.330376387E0
4.101936510E0,-2.948448956E-1,-1.916126013E-1,-2.412232161E0
4.104367187E0,-2.856819332E-1,-2.007755637E-1,-2.516690016E0
4.106796979E0,-2.636907995E-1,-2.294862121E-1,-2.639473915E0
4.109227708E0,-2.502517700E-1,-2.575860023E-1,-2.768366337E0
4.111659166E0,-2.313149571E-1,-2.753010690E-1,-2.922914982E0
4.114089843E0,-1.696176231E-1,-2.893509567E-1,-3.094568014E0
4.116519687E0,-7.615531981E-2,-2.997356653E-1,-3.257058144E0
4.118950416E0,1.303093135E-2,-3.253919780E-1,-3.413439512E0
4.121381875E0,3.868724778E-2,-4.451214671E-1,-3.597920656E0
4.123812552E0,8.266951144E-2,-6.503720284E-1,-3.847153425E0
4.126242395E0,1.541406810E-1,-8.708941936E-1,-4.078060150E0
4.128673125E0,2.390508801E-1,-1.079809904E0,-4.291252136E0
4.131104583E0,3.038025498E-1,-1.370581508E0,-4.506276608E0
4.133535260E0,3.667216003E-1,-1.606375337E0,-4.690757751E0
4.135965104E0,4.968357980E-1,-1.800630331E0,-4.858134270E0
4.138395833E0,6.342803240E-1,-1.943572640E0,-4.984583378E0
4.140827291E0,7.491229773E-1,-2.129275560E0,-5.063995838E0
4.143257968E0,8.627437353E-1,-2.209909678E0,-5.059720039E0
4.145687812E0,9.464322329E-1,-2.308258772E0,-5.018180847E0
4.148118541E0,9.965231419E-1,-2.418825388E0,-4.921053410E0
4.150550000E0,1.020957708E0,-2.498848677E0,-4.783608913E0
4.152980677E0,1.024012089E0,-2.566654682E0,-4.653494835E0
4.155410468E0,9.922471046E-1,-2.649121284E0,-4.487339497E0
4.157841198E0,9.653689861E-1,-2.663782120E0,-4.327903748E0
4.160272656E0,9.256628752E-1,-2.693714619E0,-4.200844288E0
4.162703333E0,8.810696602E-1,-2.642401934E0,-4.072562695E0
4.165133177E0,8.871783018E-1,-2.449979544E0,-3.960774183E0
4.167563906E0,9.647581577E-1,-2.054749966E0,-3.771406174E0
4.169995364E0,1.045392275E0,-1.657077074E0,-3.530725479E0
4.172426041E0,1.097315788E0,-1.345536113E0,-3.288823128E0
4.174855885E0,1.116252661E0,-1.092638135E0,-3.037757635E0
4.177286614E0,1.100980997E0,-8.977722526E-1,-2.773253202E0
4.179718073E0,1.079600811E0,-7.218431830E-1,-2.486757755E0
4.182148750E0,1.035007596E0,-5.593531728E-1,-2.187433958E0
4.184578593E0,9.788080454E-1,-4.597822130E-1,-1.922318578E0
4.187009323E0,9.329931736E-1,-3.534917533E-1,-1.679805279E0
4.189440781E0,8.902326822E-1,-2.490338832E-1,-1.481885076E0
4.191871458E0,8.615220785E-1,-1.781735718E-1,-1.305345178E0
4.194301302E0,8.291461468E-1,-1.647345573E-1,-1.152629018E0
4.196732031E0,7.906616926E-1,-1.683997363E-1,-1.008464932E0
4.199163489E0,7.631728649E-1,-1.616802216E-1,-8.484184146E-1
4.201594166E0,7.283535004E-1,-1.824496239E-1,-6.755437255E-1
4.204023958E0,6.947559118E-1,-2.026081681E-1,-5.368773937E-1
4.206454687E0,6.568824053E-1,-2.423143685E-1,-4.079849124E-1
4.208886198E0,6.025153399E-1,-3.070660233E-1,-2.742055357E-1
4.211316823E0,5.243247151E-1,-4.054152668E-1,-1.355392784E-1
4.213746666E0,4.412471056E-1,-5.208687186E-1,-2.436188981E-2
4.216177395E0,3.679433465E-1,-6.271591783E-1,4.038976878E-2
4.218608854E0,3.013590574E-1,-6.961869001E-1,6.360263377E-2
4.221039531E0,2.549333572E-1,-7.322279215E-1,4.283323139E-2
4.223469375E0,2.292770445E-1,-7.371148467E-1,-5.425082520E-3
4.225900104E0,2.030098587E-1,-7.371148467E-1,-4.818560928E-2
4.228331562E0,1.559732854E-1,-7.426126003E-1,-4.818560928E-2
4.230762239E0,8.266951144E-2,-7.835405469E-1,8.013941348E-3
4.233192083E0,-2.606441081E-2,-8.568443060E-1,1.075848937E-1
4.235622812E0,-1.567894667E-1,-9.252611399E-1,2.175405324E-1
4.238054270E0,-2.697994411E-1,-9.472522736E-1,3.116137087E-1
4.240484948E0,-3.589856923E-1,-9.173198938E-1,3.965239227E-1
4.242914791E0,-4.249590933E-1,-8.574551940E-1,4.722711444E-1
4.245345520E0,-4.817694724E-1,-7.786536217E-1,5.333575606E-1
4.247776979E0,-5.312495232E-1,-6.992412210E-1,6.011635661E-1
4.250207656E0,-6.118836403E-1,-6.265482903E-1,7.905316353E-1
4.252637500E0,-8.324058056E-1,-7.920926213E-1,1.065420866E0
4.255068177E0,-8.568404913E-1,-7.902600765E-1,1.106959581E0
4.257499687E0,-7.511608601E-1,-6.503720284E-1,8.253509402E-1
4.259930364E0,-6.418160200E-1,-5.624074936E-1,5.131990314E-1
4.262360156E0,-5.068149567E-1,-4.860493839E-1,2.969529629E-1
4.264790885E0,-3.595965505E-1,-4.170216918E-1,1.533997357E-1
4.267222343E0,-2.294823527E-1,-3.901436329E-1,2.145296521E-2
4.269653020E0,-1.164723933E-1,-3.956414163E-1,-9.461133182E-2
4.272082864E0,-7.127605379E-3,-4.194651544E-1,-1.666933745E-1
4.274513593E0,9.794113040E-2,-4.597822130E-1,-1.575303972E-1
4.276945052E0,1.791861355E-1,-4.756647050E-1,-8.728095144E-2
4.279375729E0,2.353856862E-1,-4.548952878E-1,-4.203353077E-3
4.281805573E0,2.744810283E-1,-4.054152668E-1,7.032214850E-2
4.284236302E0,3.025808036E-1,-3.553243577E-1,1.332412064E-1
4.286667760E0,3.013590574E-1,-2.997356653E-1,1.888298988E-1
4.289098437E0,2.866983414E-1,-2.600294352E-1,2.401425391E-1
4.291528281E0,2.573768198E-1,-2.307079434E-1,2.810704708E-1
4.293959010E0,2.036207169E-1,-2.001647055E-1,3.189440966E-1
4.296390468E0,1.455885768E-1,-1.830604970E-1,3.519307971E-1
4.298821145E0,8.205864578E-2,-1.738975197E-1,3.794197142E-1
4.301250989E0,1.852871478E-2,-1.867256761E-1,4.038542807E-1
4.303681718E0,-4.500121623E-2,-2.087168097E-1,4.282888770E-1
4.306113177E0,-9.631384909E-2,-2.563642561E-1,4.527234733E-1
4.308543854E0,-1.506808102E-1,-3.046225607E-1,4.826558530E-1
4.310973698E0,-1.995500028E-1,-3.644873202E-1,5.193076730E-1
4.313404375E0,-2.319258153E-1,-4.329041541E-1,5.516835451E-1
4.315835885E0,-2.636907995E-1,-4.994884133E-1,5.877245665E-1
4.318266562E0,-2.887362540E-1,-5.575205684E-1,6.286524534E-1
4.320696354E0,-3.052295744E-1,-6.167744994E-1,6.628609300E-1
4.323127083E0,-3.198903501E-1,-6.680871248E-1,6.970693469E-1
4.325558541E0,-3.211120665E-1,-7.212323546E-1,7.257799506E-1
4.327989218E0,-3.247772753E-1,-7.615494132E-1,7.483819723E-1
4.330419062E0,-3.107273579E-1,-7.896491885E-1,7.691513896E-1
4.332849791E0,-2.875145078E-1,-8.000338674E-1,7.801469564E-1
4.335281250E0,-2.655233741E-1,-8.018664718E-1,7.862555981E-1
4.337711927E0,-2.282606363E-1,-7.933143973E-1,7.777034640E-1
4.340141770E0,-1.812240481E-1,-7.823188305E-1,7.575449347E-1
4.342572500E0,-1.219701767E-1,-7.664363384E-1,7.251691222E-1
4.345003958E0,-6.760321558E-2,-7.542190552E-1,6.817976832E-1
4.347434635E0,-1.873403788E-2,-7.407799959E-1,6.255981326E-1
4.349864479E0,3.013514355E-2,-7.322279215E-1,5.669551492E-1
4.352295208E0,7.106307894E-2,-7.297844291E-1,5.174750686E-1
4.354726666E0,1.095475554E-1,-7.193997502E-1,4.802123904E-1
4.357157343E0,1.364255995E-1,-7.206214666E-1,4.484474063E-1
4.359587187E0,1.663579792E-1,-7.169563174E-1,4.258454144E-1
4.362017916E0,1.950686276E-1,-7.151237130E-1,4.007999599E-1
4.364449375E0,2.347748280E-1,-7.108476162E-1,3.714784682E-1
4.366880052E0,2.628746033E-1,-6.961869001E-1,3.500981927E-1
4.369309895E0,3.044134080E-1,-6.760283709E-1,3.317722380E-1
4.371740573E0,3.392326832E-1,-6.693088412E-1,3.158897758E-1
4.374172083E0,3.740519881E-1,-6.509829164E-1,3.189440966E-1
4.376602760E0,4.155907929E-1,-6.296026111E-1,3.287179172E-1
4.379032552E0,4.479666054E-1,-5.972267985E-1,3.287179172E-1
4.381463281E0,4.687360227E-1,-5.544662476E-1,3.079485297E-1
4.383894791E0,4.687360227E-1,-5.312533975E-1,2.609119415E-1
4.386325416E0,4.516318142E-1,-4.982666969E-1,1.973820031E-1
4.388755260E0,4.302515388E-1,-4.555061460E-1,1.265216917E-1
4.391185989E0,3.972648382E-1,-4.127456248E-1,5.810485035E-2
4.393617448E0,3.642781377E-1,-3.883110285E-1,3.127023578E-3
4.396048125E0,3.227393627E-1,-3.589895368E-1,-2.191843092E-2
4.398477968E0,2.897526622E-1,-3.247811198E-1,-2.252929471E-2
4.400908698E0,2.659289241E-1,-2.936269939E-1,6.835646927E-4
4.403340156E0,2.512681782E-1,-2.557533979E-1,3.733544797E-2
4.405770833E0,2.482138425E-1,-2.252101600E-1,7.704165578E-2
4.408200677E0,2.537116408E-1,-2.038298994E-1,1.222456470E-1
4.410631406E0,2.653180659E-1,-1.836713552E-1,1.601192504E-1
4.413062864E0,2.836440206E-1,-1.855039597E-1,1.924950778E-1
4.415493541E0,3.019699454E-1,-1.934451908E-1,2.169296741E-1
4.417923385E0,3.239610791E-1,-2.068842202E-1,2.322012931E-1
4.420354114E0,3.325131834E-1,-2.300970703E-1,2.444185764E-1
4.422785573E0,3.428978920E-1,-2.545316815E-1,2.486946434E-1
4.425216250E0,3.483956754E-1,-2.777445316E-1,2.535815537E-1
4.427646093E0,3.606129587E-1,-2.832423151E-1,2.590793371E-1
4.430076823E0,3.752737045E-1,-2.679706812E-1,2.743509710E-1
4.432508281E0,3.942105174E-1,-2.484230250E-1,2.926768959E-1
4.434938958E0,4.229211509E-1,-2.313188016E-1,3.097811341E-1
4.437368802E0,4.491883516E-1,-2.172689140E-1,3.268853426E-1
4.439799479E0,4.766772687E-1,-2.044407576E-1,3.446004093E-1
4.442230989E0,5.059987307E-1,-1.940560639E-1,3.574285805E-1
4.444661666E0,5.395963192E-1,-1.842822284E-1,3.641480803E-1
4.447091458E0,5.676960945E-1,-1.708431989E-1,3.708675802E-1
4.449522187E0,5.945740938E-1,-1.555715799E-1,3.745327890E-1
4.451953645E0,6.251174212E-1,-1.317478567E-1,3.733110428E-1
4.454384323E0,6.495519876E-1,-1.097567305E-1,3.708675802E-1
4.456814166E0,6.703213453E-1,-8.348955214E-2,3.665915430E-1
4.459244895E0,6.868146658E-1,-5.661150068E-2,3.610937595E-1
4.461676354E0,6.965885162E-1,-3.400950506E-2,3.525416553E-1
4.464107031E0,7.075841427E-1,-1.934875362E-2,3.433786929E-1
4.466536875E0,7.075841427E-1,8.097826503E-4,3.354374468E-1
4.468967604E0,7.167470455E-1,1.058361866E-2,3.256635964E-1
4.471399062E0,7.198014259E-1,1.852485910E-2,3.152789176E-1
4.473829739E0,7.143036127E-1,3.135301918E-2,3.061159253E-1
4.476259583E0,7.063623667E-1,4.051599279E-2,2.957312465E-1
4.478690312E0,6.996428967E-1,4.540291056E-2,2.859573960E-1
4.481121770E0,6.892582178E-1,5.395501480E-2,2.780161500E-1
4.483552448E0,6.709322929E-1,6.067452952E-2,2.712966502E-1
4.485982291E0,6.489411592E-1,7.472441345E-2,2.645771205E-1
4.488413020E0,6.251174212E-1,8.571998030E-2,2.578576207E-1
4.490844479E0,5.939632654E-1,9.427208453E-2,2.535815537E-1
4.493275156E0,5.591440201E-1,1.071002409E-1,2.444185764E-1
4.495704948E0,5.249356031E-1,1.077111065E-1,2.376990765E-1
4.498135677E0,4.846184850E-1,1.040459201E-1,2.346447408E-1
4.500567187E0,4.412471056E-1,9.976986796E-2,2.303686887E-1
4.502997864E0,3.935996592E-1,9.915900230E-2,2.273143679E-1
4.505427656E0,3.374001086E-1,9.915900230E-2,2.242600471E-1
4.507858385E0,2.824222744E-1,9.854813665E-2,2.193731219E-1
4.510289895E0,2.195032090E-1,9.243948758E-2,2.193731219E-1
4.512720520E0,1.608601958E-1,8.816343546E-2,2.120427489E-1
4.515150364E0,1.040497720E-1,8.327651769E-2,2.114318907E-1
4.517581093E0,4.907194898E-2,7.594614476E-2,2.053232342E-1
4.520012552E0,-1.384712011E-2,7.655700296E-2,2.010471821E-1
4.522443229E0,-6.577062607E-2,7.777873427E-2,2.010471821E-1
4.524873073E0,-1.170832515E-1,6.983749568E-2,2.004363239E-1
4.527303802E0,-1.702284813E-1,6.922663003E-2,1.992145926E-1
4.529735260E0,-2.245954573E-1,6.617230922E-2,2.010471821E-1
4.532165937E0,-2.752972245E-1,6.250711530E-2,1.998254508E-1
4.534595781E0,-3.223338127E-1,6.495057791E-2,2.041015178E-1
4.537026510E0,-3.718138337E-1,7.044836134E-2,2.028797865E-1
4.539457968E0,-4.164069593E-1,6.983749568E-2,2.077666968E-1
4.541888645E0,-4.616109431E-1,7.228095084E-2,2.083775699E-1
4.544318489E0,-5.086475611E-1,6.922663003E-2,2.095993012E-1
4.546749218E0,-5.569058657E-1,7.289181650E-2,2.102101594E-1
4.549180677E0,-6.008881330E-1,7.350268215E-2,2.120427489E-1
4.551611354E0,-6.479246616E-1,8.205478638E-2,2.132644802E-1
4.554041198E0,-6.967939138E-1,9.427208453E-2,2.108210176E-1
4.556471927E0,-7.426087856E-1,1.144306213E-1,2.102101594E-1
4.558903385E0,-7.859801054E-1,1.315348446E-1,2.065449655E-1
4.561334062E0,-8.275189400E-1,1.523042321E-1,2.041015178E-1
4.563763906E0,-8.653925657E-1,1.785714179E-1,1.992145926E-1
4.566194635E0,-9.026552439E-1,2.066711932E-1,1.967711300E-1
4.568626093E0,-9.295333624E-1,2.304949164E-1,1.912733465E-1
4.571056770E0,-9.558005333E-1,2.671467960E-1,1.876081675E-1
4.573486562E0,-9.735155106E-1,2.909705341E-1,1.772234589E-1
4.575917291E0,-9.948958158E-1,3.172377050E-1,1.766126007E-1
4.578348750E0,-1.006502271E0,3.428940177E-1,1.705039591E-1
4.580779427E0,-1.013832688E0,3.599982560E-1,1.680604964E-1
4.583209270E0,-1.016276121E0,3.752698600E-1,1.631735712E-1
4.585640000E0,-1.010167480E0,3.929849267E-1,1.637844443E-1
4.588071458E0,-9.997828007E-1,4.088674188E-1,1.601192504E-1
4.590502135E0,-9.790133238E-1,4.308585525E-1,1.607301086E-1
4.592931979E0,-9.478592873E-1,4.559040070E-1,1.588975191E-1
4.595362708E0,-9.160943031E-1,4.766733944E-1,1.607301086E-1
4.597794166E0,-8.806641102E-1,4.846146405E-1,1.680604964E-1
4.600224843E0,-8.470666409E-1,4.809494615E-1,1.717256755E-1
4.602654687E0,-8.098038435E-1,4.675104320E-1,1.753908694E-1
4.605085416E0,-7.768172026E-1,4.473519027E-1,1.808886528E-1
4.607516875E0,-7.365000248E-1,4.223064482E-1,1.863864362E-1
4.609947552E0,-7.035133839E-1,4.021479189E-1,1.863864362E-1
4.612377395E0,-6.625854969E-1,3.777133226E-1,1.845538467E-1
4.614808125E0,-6.259335279E-1,3.593873680E-1,1.839429736E-1
4.617239583E0,-5.801186562E-1,3.398396969E-1,1.808886528E-1
4.619670260E0,-5.391907692E-1,3.184594512E-1,1.729474068E-1
4.622100104E0,-4.958193600E-1,3.007443547E-1,1.662278920E-1
4.624530833E0,-4.500045478E-1,2.873053551E-1,1.576757878E-1
4.626962291E0,-4.072439969E-1,2.628707588E-1,1.497345567E-1
4.629392968E0,-3.644834757E-1,2.402687520E-1,1.417933106E-1
4.631822760E0,-3.223338127E-1,2.140015811E-1,1.338520646E-1
4.634253489E0,-2.746863663E-1,1.791822910E-1,1.277434230E-1
4.636685000E0,-2.270388901E-1,1.419195384E-1,1.222456470E-1
4.639115677E0,-1.781697273E-1,9.732640535E-2,1.173587218E-1
4.641545468E0,-1.286896914E-1,5.395501480E-2,1.136935428E-1
4.643976198E0,-7.676617801E-2,9.972753003E-3,1.069740281E-1
4.646407656E0,-3.095132858E-2,-3.400950506E-2,1.051414311E-1
4.648838333E0,2.097216994E-2,-7.432658225E-2,1.002545133E-1
4.651268177E0,6.251097471E-2,-1.109784618E-1,9.048067778E-2
4.653698906E0,1.058823690E-1,-1.384673715E-1,8.376117051E-2
4.656130364E0,1.449777186E-1,-1.586259007E-1,7.215473801E-2
4.658561041E0,1.755209565E-1,-1.671780050E-1,5.321793258E-2
4.660990885E0,2.042315900E-1,-1.793953031E-1,3.855717927E-2
4.663421614E0,2.311096340E-1,-1.787844449E-1,1.900950633E-2
4.665853073E0,2.518790364E-1,-1.708431989E-1,1.905294135E-3
4.668283750E0,2.683723867E-1,-1.561824381E-1,-1.580978185E-2
4.670713593E0,2.854765952E-1,-1.433542818E-1,-3.169226646E-2
4.673144323E0,2.976939082E-1,-1.293043941E-1,-4.268783331E-2
4.675575781E0,3.135763705E-1,-1.115893275E-1,-5.551598966E-2
4.678006458E0,3.245719373E-1,-1.005937606E-1,-5.795944482E-2
4.680436302E0,3.380109668E-1,-8.959820122E-2,-6.101377308E-2
4.682867031E0,3.441196084E-1,-7.615917176E-2,-5.918117613E-2
4.685298489E0,3.477847874E-1,-6.516360492E-2,-6.284636259E-2
4.687729166E0,3.435087502E-1,-5.172458291E-2,-5.979204178E-2
4.690159010E0,3.294588625E-1,-4.133988172E-2,-6.040290743E-2
4.692589739E0,3.111329079E-1,-2.912258916E-2,-6.162463874E-2
4.695021198E0,2.842548490E-1,-1.995961741E-2,-6.467895955E-2
4.697451875E0,2.518790364E-1,-1.568356529E-2,-7.017674297E-2
4.699881666E0,2.133945525E-1,-1.140751131E-2,-7.567452639E-2
4.702312395E0,1.681905687E-1,-5.298864562E-3,-8.789181709E-2
4.704743906E0,1.187105253E-1,-4.119467922E-4,-9.766565263E-2
4.707174531E0,6.923048198E-2,9.361889213E-3,-1.080503538E-1
4.709604375E0,1.852871478E-2,1.547053643E-2,-1.159915924E-1
4.712035104E0,-3.644911200E-2,1.913572289E-2,-1.208785102E-1
4.714466562E0,-8.959434927E-2,2.646609955E-2,-1.221002415E-1
4.716897239E0,-1.451830268E-1,2.768783085E-2,-1.190459207E-1
4.719327083E0,-1.946630776E-1,3.196388483E-2,-1.129372716E-1
4.721757812E0,-2.416996658E-1,3.135301918E-2,-1.013308391E-1
4.724189270E0,-2.844601870E-1,2.402264066E-2,-8.728095144E-2
4.726619948E0,-3.229446709E-1,1.302707754E-2,-7.445279509E-2
4.729049791E0,-3.583748341E-1,-4.687999841E-3,-5.795944482E-2
4.731480520E0,-3.938049674E-1,-1.873788796E-2,-4.085523635E-2
4.733911979E0,-4.206830263E-1,-4.072901607E-2,-2.558361739E-2
4.736342656E0,-4.426741302E-1,-5.844409391E-2,-8.479406126E-3
4.738772500E0,-4.646652639E-1,-7.310485095E-2,8.013941348E-3
4.741203229E0,-4.811586440E-1,-8.165695518E-2,1.962037198E-2
4.743634687E0,-4.970411360E-1,-9.204165637E-2,2.756161056E-2
4.746065364E0,-5.092583895E-1,-9.815030545E-2,3.916804492E-2
4.748495208E0,-5.171996355E-1,-1.024263576E-1,4.955274612E-2
4.750925937E0,-5.226974487E-1,-1.073132753E-1,5.505052954E-2
4.753357395E0,-5.220866203E-1,-1.097567305E-1,6.665695459E-2
4.755788073E0,-5.239191055E-1,-1.128110588E-1,7.276560366E-2
4.758217864E0,-5.171996355E-1,-1.201414317E-1,8.315030485E-2
4.760648593E0,-5.074257851E-1,-1.286935359E-1,8.986981958E-2
4.763080104E0,-5.000954866E-1,-1.372456402E-1,1.002545133E-1
4.765510781E0,-4.842129648E-1,-1.457977444E-1,1.100283489E-1
4.767940573E0,-4.707739055E-1,-1.543498486E-1,1.198021844E-1
4.770371302E0,-4.487827718E-1,-1.683997363E-1,1.271325499E-1
4.772802760E0,-4.255699217E-1,-1.818387657E-1,1.326303333E-1
4.775233437E0,-4.005244970E-1,-1.855039597E-1,1.393498480E-1
4.777663281E0,-3.712029755E-1,-1.897800118E-1,1.417933106E-1
4.780094010E0,-3.486009836E-1,-1.891691387E-1,1.442367733E-1
4.782525468E0,-3.229446709E-1,-1.842822284E-1,1.460693628E-1
4.784956145E0,-2.985100746E-1,-1.720649302E-1,1.448476315E-1
4.787385989E0,-2.746863663E-1,-1.574041694E-1,1.417933106E-1
4.789816718E0,-2.545278072E-1,-1.457977444E-1,1.375172585E-1
4.792248177E0,-2.307040989E-1,-1.348021775E-1,1.332412064E-1
4.794678854E0,-2.081021070E-1,-1.231957600E-1,1.210239157E-1
4.797108698E0,-1.873326898E-1,-1.176979765E-1,1.118609458E-1
4.799539427E0,-1.671741605E-1,-1.152545139E-1,1.002545133E-1
4.801970885E0,-1.421287060E-1,-1.189197078E-1,8.559376001E-2
4.804401562E0,-1.280788183E-1,-1.244174913E-1,7.215473801E-2
4.806831406E0,-1.073094159E-1,-1.402999610E-1,5.321793258E-2
4.809262135E0,-9.997904301E-2,-1.549607217E-1,3.794631362E-2
4.811693593E0,-8.837261796E-2,-1.842822284E-1,2.023123577E-2
4.814124270E0,-8.409656584E-2,-2.074950784E-1,3.127023578E-3
4.816554114E0,-7.798790932E-2,-2.374274582E-1,-1.947497204E-2
4.818984791E0,-8.104223013E-2,-2.630837858E-1,-4.085523635E-2
4.821416302E0,-7.798790932E-2,-2.960704565E-1,-6.284636259E-2
4.823846979E0,-8.592915535E-2,-3.192833364E-1,-8.239403367E-2
4.826276770E0,-9.081606567E-2,-3.528808951E-1,-1.019417048E-1
4.828707500E0,-1.012007743E-1,-3.773154616E-1,-1.196567863E-1
4.831139010E0,-1.121963412E-1,-4.054152668E-1,-1.385935992E-1
4.833569687E0,-1.250244975E-1,-4.310715795E-1,-1.569195390E-1
4.835999479E0,-1.354091913E-1,-4.561170340E-1,-1.740237474E-1
4.838430208E0,-1.488482207E-1,-4.756647050E-1,-1.892953664E-1
4.840861666E0,-1.683958918E-1,-4.952123761E-1,-2.015126646E-1
4.843292343E0,-1.793914437E-1,-5.159817934E-1,-2.137299627E-1
4.845722187E0,-1.964956820E-1,-5.343077183E-1,-2.210603356E-1
4.848152916E0,-2.105455697E-1,-5.465250611E-1,-2.302233130E-1
4.850584375E0,-2.215411365E-1,-5.611857772E-1,-2.351102233E-1
4.853015052E0,-2.416996658E-1,-5.648509860E-1,-2.393862754E-1
4.855444895E0,-2.520843446E-1,-5.697379112E-1,-2.436623275E-1
4.857875625E0,-2.697994411E-1,-5.740139484E-1,-2.442732006E-1
4.860307083E0,-2.869036496E-1,-5.758465528E-1,-2.412188649E-1
4.862737760E0,-3.003426790E-1,-5.746248364E-1,-2.412188649E-1
