"Time (s)","Gyroscope x (rad/s)","Gyroscope y (rad/s)","Gyroscope z (rad/s)"
2.261352500E-2,-1.176162720E0,-1.103500366E0,6.163024902E-2
2.752685500E-2,-1.180419922E0,-1.131195068E0,5.097961426E-2
3.247070300E-2,-1.178283691E0,-1.184448242E0,4.244995117E-2
3.738403300E-2,-1.180419922E0,-1.239852905E0,2.221679688E-2
4.229736300E-2,-1.190002441E0,-1.286712646E0,-1.080322266E-2
4.724121100E-2,-1.197463989E0,-1.348510742E0,-5.342102051E-2
5.215454100E-2,-1.203857422E0,-1.426269531E0,-1.013488770E-1
5.706787100E-2,-1.217697144E0,-1.497650146E0,-1.514282227E-1
6.201171900E-2,-1.242202759E0,-1.535995483E0,-1.791229248E-1
6.692504900E-2,-1.270965576E0,-1.520019531E0,-1.833801270E-1
7.183837900E-2,-1.300796509E0,-1.433731079E0,-1.247863770E-1
7.678222600E-2,-1.299728394E0,-1.333587646E0,-1.506042480E-2
8.169555700E-2,-1.243270874E0,-1.229202271E0,6.269836426E-2
8.663940400E-2,-1.118637085E0,-1.094970703E0,1.085052490E-1
9.155273400E-2,-9.556427002E-1,-9.351806641E-1,1.447296143E-1
9.646606400E-2,-7.724151611E-1,-7.487640381E-1,1.734771729E-1
1.013793940E-1,-5.689544678E-1,-5.314483643E-1,2.011871338E-1
1.063232420E-1,-3.388519287E-1,-2.938995361E-1,2.342071533E-1
1.112365720E-1,-1.172790527E-1,-5.847167969E-2,2.512512207E-1
1.161499020E-1,9.896850586E-2,1.417999268E-1,2.746887207E-1
1.210632320E-1,2.747344971E-1,2.973327637E-1,2.981262207E-1
1.260070800E-1,3.812561035E-1,3.953247070E-1,3.183593750E-1
1.309204100E-1,4.430389404E-1,4.294281006E-1,3.439331055E-1
1.358337400E-1,4.686126709E-1,4.262237549E-1,3.620300293E-1
1.407775880E-1,4.526367188E-1,3.974609375E-1,3.684234619E-1
1.456909180E-1,3.983001709E-1,3.527221680E-1,3.535156250E-1
1.506042480E-1,3.216094971E-1,2.621765137E-1,3.268890381E-1
1.555175780E-1,2.363891602E-1,1.151733398E-1,2.970581055E-1
1.604614260E-1,1.266632080E-1,-8.407592773E-3,2.533721924E-1
1.653747560E-1,2.865600586E-2,-9.895324707E-2,2.288818359E-1
1.703186030E-1,-6.295776367E-2,-1.522064209E-1,2.139587402E-1
1.752319340E-1,-1.588287354E-1,-1.862945557E-1,1.777496338E-1
1.801452640E-1,-2.674865723E-1,-1.873626709E-1,1.191558838E-1
1.850585940E-1,-3.335266113E-1,-2.140045166E-1,8.613586426E-2
1.900024410E-1,-3.601684570E-1,-2.864379883E-1,1.095733643E-1
1.949157710E-1,-4.027709961E-1,-3.769836426E-1,1.628265381E-1
1.998291010E-1,-4.709472656E-1,-4.707336426E-1,2.555084229E-1
2.047424320E-1,-5.550994873E-1,-5.548858643E-1,4.003906250E-1
2.096862790E-1,-6.168975830E-1,-6.731262207E-1,5.772247314E-1
2.145996090E-1,-6.339416504E-1,-7.743225098E-1,7.700347900E-1
2.195129390E-1,-6.019744873E-1,-7.988281250E-1,9.553833008E-1
2.244567870E-1,-5.508422852E-1,-7.764587402E-1,1.113052368E0
2.293701170E-1,-4.975891113E-1,-7.583465576E-1,1.231292725E0
2.342834470E-1,-4.581604004E-1,-7.434387207E-1,1.290939331E0
2.391967770E-1,-4.049072266E-1,-7.146759033E-1,1.305862427E0
2.441406250E-1,-3.495178223E-1,-6.241302490E-1,1.287750244E0
2.490539550E-1,-2.845306396E-1,-5.058746338E-1,1.286682129E0
2.539672850E-1,-2.057037354E-1,-3.833770752E-1,1.296279907E0
2.588806150E-1,-1.471099854E-1,-2.587432861E-1,1.304794312E0
2.638244630E-1,-1.151580811E-1,-1.575469971E-1,1.304794312E0
2.687377930E-1,-1.087646484E-1,-8.616638184E-2,1.296279907E0
2.736511230E-1,-1.279296875E-1,-4.135131836E-3,1.295211792E0
2.785949710E-1,-1.694793701E-1,6.936645508E-2,1.315444946E0
2.835083010E-1,-1.865234375E-1,9.173583984E-2,1.364456177E0
2.884216310E-1,-1.918487549E-1,1.141052246E-1,1.400665283E0
2.933349610E-1,-1.822662354E-1,1.449890137E-1,1.410263062E0
2.982788090E-1,-1.662902832E-1,1.865386963E-1,1.402801514E0
3.031921390E-1,-1.630859375E-1,2.462005615E-1,1.376174927E0
3.081054690E-1,-1.716156006E-1,2.984008789E-1,1.319702148E0
3.130493160E-1,-1.726837158E-1,3.154449463E-1,1.262191772E0
3.179626460E-1,-1.364593506E-1,2.600402832E-1,1.292007446E0
3.228759760E-1,-5.656433105E-2,1.417999268E-1,1.408126831E0
3.277893070E-1,-1.182556152E-2,2.781677246E-2,1.503997803E0
3.327026370E-1,9.613037109E-4,-5.421447754E-2,1.587097168E0
3.376464840E-1,1.374816895E-2,-1.000213623E-1,1.673370361E0
3.425598140E-1,1.693725586E-2,-1.639251709E-1,1.741546631E0
3.475036620E-1,-9.689331055E-3,-2.182617188E-1,1.774581909E0
3.524169920E-1,-5.335998535E-2,-2.438201904E-1,1.774581909E0
3.573303220E-1,-1.130218506E-1,-2.630004883E-1,1.758590698E0
3.622436520E-1,-1.854553223E-1,-3.077392578E-1,1.722381592E0
3.671875000E-1,-2.738800049E-1,-3.311767578E-1,1.659530640E0
3.721008300E-1,-3.676147461E-1,-3.205261230E-1,1.605194092E0
3.770141600E-1,-4.571075439E-1,-3.109436035E-1,1.540222168E0
3.819580080E-1,-5.316772461E-1,-2.800445557E-1,1.470977783E0
3.868713380E-1,-6.030426025E-1,-2.342376709E-1,1.402801514E0
3.917846680E-1,-6.829376221E-1,-2.033538818E-1,1.336746216E0
3.966979980E-1,-7.639007568E-1,-1.681976318E-1,1.280288696E0
4.016113280E-1,-8.342132568E-1,-1.309051514E-1,1.233428955E0
4.065551760E-1,-9.109039307E-1,-1.724548340E-1,1.209991455E0
4.114685060E-1,-1.025955200E0,-2.598114014E-1,1.195068359E0
4.164123530E-1,-1.178283691E0,-3.397064209E-1,1.184417725E0
4.213256840E-1,-1.347656250E0,-4.014892578E-1,1.182296753E0
4.262390140E-1,-1.508514404E0,-4.824523926E-1,1.189743042E0
4.311523440E-1,-1.657653809E0,-5.495605469E-1,1.195068359E0
4.360656740E-1,-1.776962280E0,-5.697937012E-1,1.200393677E0
4.410095210E-1,-1.854736328E0,-5.666046143E-1,1.215316772E0
4.459533690E-1,-1.913314819E0,-5.612792969E-1,1.228103638E0
4.508666990E-1,-1.949539185E0,-5.442352295E-1,1.230224609E0
4.557800290E-1,-1.963378906E0,-4.984283447E-1,1.232360840E0
4.606933590E-1,-1.965515137E0,-4.291839600E-1,1.246200562E0
4.656066890E-1,-1.943145752E0,-3.588714600E-1,1.254730225E0
4.705200190E-1,-1.895202637E0,-2.747192383E-1,1.256851196E0
4.754638670E-1,-1.835556030E0,-1.852416992E-1,1.260055542E0
4.804077150E-1,-1.771636963E0,-1.053466797E-1,1.263244629E0
4.853210450E-1,-1.709854126E0,-1.905822754E-2,1.264312744E0
4.902343750E-1,-1.649139404E0,5.337524414E-2,1.257919312E0
4.951477050E-1,-1.579895020E0,1.077117920E-1,1.233428955E0
5.000915530E-1,-1.510650635E0,1.449890137E-1,1.188674927E0
5.050048830E-1,-1.469100952E0,1.663055420E-1,1.149261475E0
5.099182130E-1,-1.437149048E0,1.673583984E-1,1.125823975E0
5.148315430E-1,-1.398803711E0,1.556549072E-1,1.075759888E0
5.197753910E-1,-1.343399048E0,1.673583984E-1,1.018234253E0
5.246887210E-1,-1.283752441E0,2.035827637E-1,9.447326660E-1
5.296020510E-1,-1.231552124E0,2.706909180E-1,8.936004639E-1
5.345458980E-1,-1.202789307E0,3.665771484E-1,8.488616943E-1
5.394592280E-1,-1.175094604E0,4.571228027E-1,7.689666748E-1
5.443725590E-1,-1.156982422E0,5.508575439E-1,6.848144531E-1
5.492858890E-1,-1.142074585E0,6.541900635E-1,5.899963379E-1
5.541992190E-1,-1.138870239E0,7.745666504E-1,4.962615967E-1
5.591430660E-1,-1.171890259E0,8.683166504E-1,4.099731445E-1
5.640563960E-1,-1.205978394E0,9.407501221E-1,3.194274902E-1
5.690002440E-1,-1.260314941E0,1.023834229E0,2.267456055E-1
5.739135740E-1,-1.313568115E0,1.096282959E0,1.351318359E-1
5.788574220E-1,-1.368972778E0,1.164459229E0,5.311584473E-2
5.837707520E-1,-1.395599365E0,1.233688354E0,-5.448913574E-2
5.886840820E-1,-1.403060913E0,1.346618652E0,-1.407623291E-1
5.935974120E-1,-1.398803711E0,1.468048096E0,-2.313232422E-1
5.985107420E-1,-1.389205933E0,1.606536865E0,-3.165435791E-1
6.034545900E-1,-1.394531250E0,1.722656250E0,-3.612823486E-1
6.083679200E-1,-1.438217163E0,1.778045654E0,-3.261260986E-1
6.132812500E-1,-1.459518433E0,1.873916626E0,-4.038848877E-1
6.182250980E-1,-1.450988770E0,1.994293213E0,-5.807189941E-1
6.231384280E-1,-1.443542480E0,2.003875732E0,-7.341156006E-1
6.280517580E-1,-1.438217163E0,1.921859741E0,-8.757934570E-1
6.329650880E-1,-1.412643433E0,1.864334106E0,-1.045181274E0
6.379089350E-1,-1.337005615E0,1.887771606E0,-1.223083496E0
6.428222660E-1,-1.234741211E0,1.976181030E0,-1.373275757E0
6.477355960E-1,-1.114364624E0,2.067794800E0,-1.511764526E0
6.526794430E-1,-9.790802002E-1,2.135971069E0,-1.670486450E0
6.575927730E-1,-8.331451416E-1,2.207351685E0,-1.854782104E0
6.625061030E-1,-6.882629395E-1,2.297897339E0,-2.019897461E0
6.674194340E-1,-5.593719482E-1,2.410812378E0,-2.134948730E0
6.723632810E-1,-4.741516113E-1,2.538650513E0,-2.207382202E0
6.772766110E-1,-4.219512939E-1,2.655822754E0,-2.247863770E0
6.821899410E-1,-3.889312744E-1,2.734649658E0,-2.279815674E0
6.871337890E-1,-3.718872070E-1,2.776199341E0,-2.289413452E0
6.920471190E-1,-3.516387939E-1,2.772994995E0,-2.251052856E0
6.969604490E-1,-3.260803223E-1,2.730392456E0,-2.186080933E0
7.019042970E-1,-3.100891113E-1,2.645172119E0,-2.138137817E0
7.068176270E-1,-2.728118896E-1,2.488571167E0,-2.111511230E0
7.117309570E-1,-2.163543701E-1,2.289367676E0,-2.112579346E0
7.166748050E-1,-1.471099854E-1,2.102951050E0,-2.134948730E0
7.215881350E-1,-4.484558105E-2,1.916534424E0,-2.142395020E0
7.265014650E-1,8.724975586E-2,1.697082520E0,-2.164764404E0
7.314147950E-1,1.895141602E-1,1.508529663E0,-2.205245972E0
7.363281250E-1,2.331848145E-1,1.381759644E0,-2.238281250E0
7.412719730E-1,2.342529297E-1,1.275238037E0,-2.258514404E0
7.461853030E-1,2.044219971E-1,1.146347046E0,-2.286209106E0
7.510986330E-1,1.479644775E-1,9.929504395E-1,-2.319229126E0
7.560424800E-1,7.020568848E-2,8.214416504E-1,-2.358642578E0
7.609558100E-1,-2.461242676E-2,6.339569092E-1,-2.402328491E0
7.658691410E-1,-1.172790527E-1,4.326171875E-1,-2.447067261E0
7.708129880E-1,-2.035675049E-1,2.185058594E-1,-2.489669800E0
7.757263180E-1,-2.877197266E-1,3.953552246E-2,-2.529098511E0
7.806396480E-1,-3.750762939E-1,-6.486511230E-2,-2.567443848E0
7.855834960E-1,-4.592285156E-1,-9.469604492E-2,-2.622833252E0
7.904968260E-1,-5.103607178E-1,-1.159667969E-2,-2.672897339E0
7.954101560E-1,-4.997100830E-1,1.684265137E-1,-2.691009521E0
8.003234860E-1,-4.262084961E-1,4.070434570E-1,-2.684616089E0
8.052673340E-1,-3.122253418E-1,6.744384766E-1,-2.665451050E0
8.101806640E-1,-1.865234375E-1,9.375457764E-1,-2.652664185E0
8.150939940E-1,-7.360839844E-2,1.156997681E0,-2.660125732E0
8.200378420E-1,1.693725586E-2,1.331695557E0,-2.691009521E0
8.249511720E-1,1.021575928E-1,1.459533691E0,-2.703796387E0
8.298645020E-1,1.714019775E-1,1.480834961E0,-2.702728271E0
8.348083500E-1,1.948394775E-1,1.413726807E0,-2.716583252E0
8.397216800E-1,1.532897949E-1,1.301879883E0,-2.741073608E0
8.446350100E-1,6.062316895E-2,1.186828613E0,-2.776229858E0
8.495483400E-1,-7.147216797E-2,1.149536133E0,-2.796478271E0
8.544921870E-1,-2.301940918E-1,1.228363037E0,-2.814575195E0
8.594055180E-1,-4.080963135E-1,1.407333374E0,-2.860382080E0
8.643188480E-1,-6.009063721E-1,1.677917480E0,-2.953063965E0
8.692321780E-1,-7.915954590E-1,2.043289185E0,-3.087295532E0
8.741760250E-1,-9.769439697E-1,2.467269897E0,-3.241760254E0
8.790893550E-1,-1.143127441E0,2.917877197E0,-3.389831543E0
8.840026850E-1,-1.282684326E0,3.372741699E0,-3.521911621E0
8.889465330E-1,-1.390274048E0,3.821228027E0,-3.645492554E0
8.938598630E-1,-1.470169067E0,4.242004395E0,-3.771194458E0
8.987731930E-1,-1.511718750E0,4.615905762E0,-3.886245728E0
9.037170410E-1,-1.504257202E0,4.925903320E0,-3.969329834E0
9.086303710E-1,-1.455261230E0,5.161331177E0,-4.002349854E0
9.135742190E-1,-1.371093750E0,5.289154053E0,-3.984237671E0
9.184875490E-1,-1.260314941E0,5.281707764E0,-3.916061401E0
9.234008790E-1,-1.139938354E0,5.150665283E0,-3.801010132E0
9.283142090E-1,-1.017425537E0,4.908859253E0,-3.649749756E0
9.332275390E-1,-9.013214111E-1,4.518966675E0,-3.464385986E0
9.381713870E-1,-8.011779785E-1,3.941604614E0,-3.233230591E0
9.430847170E-1,-7.287445068E-1,3.250244141E0,-2.969039917E0
9.479980470E-1,-6.882629395E-1,2.554626465E0,-2.701660156E0
9.529113770E-1,-6.797485352E-1,1.958068848E0,-2.453460693E0
9.578552250E-1,-6.893310547E-1,1.511734009E0,-2.252120972E0
9.627685550E-1,-7.042388916E-1,1.195343018E0,-2.105117798E0
9.676818850E-1,-7.095642090E-1,9.844207764E-1,-2.001785278E0
9.726257320E-1,-7.074432373E-1,8.704376221E-1,-1.943191528E0
9.775390620E-1,-7.031860352E-1,8.672485352E-1,-1.899520874E0
9.824523930E-1,-7.010498047E-1,9.897460938E-1,-1.830276489E0
9.873657230E-1,-6.989135742E-1,1.187881470E0,-1.724822998E0
9.923095700E-1,-6.935882568E-1,1.383895874E0,-1.612960815E0
9.972229000E-1,-6.786804199E-1,1.545822144E0,-1.512832642E0
1.002136230E0,-6.627044678E-1,1.675781250E0,-1.432937622E0
1.007080078E0,-6.595001221E-1,1.787628174E0,-1.365829468E0
1.011993408E0,-6.712188721E-1,1.880310059E0,-1.295516968E0
1.016906738E0,-7.106323242E-1,1.941024780E0,-1.229461670E0
1.021820068E0,-7.777404785E-1,1.950622559E0,-1.177276611E0
1.026763916E0,-8.619079590E-1,1.920791626E0,-1.139984131E0
1.031677246E0,-9.609680176E-1,1.861129761E0,-1.116546631E0
1.036590576E0,-1.079223633E0,1.784439087E0,-1.100570679E0
1.041534424E0,-1.208114624E0,1.701339722E0,-1.101638794E0
1.046447754E0,-1.347656250E0,1.591629028E0,-1.104827881E0
1.051361084E0,-1.505325317E0,1.355133057E0,-1.104827881E0
1.056304932E0,-1.680023193E0,1.033432007E0,-1.056900024E0
1.061218262E0,-1.812118530E0,6.936035156E-1,-9.024353027E-1
1.066131592E0,-1.865386963E0,2.738952637E-1,-6.936340332E-1
1.071044922E0,-1.839813232E0,-2.651367188E-1,-4.369049072E-1
1.075988769E0,-1.743942261E0,-1.094970703E0,-9.176635742E-2
1.080902100E0,-1.524490356E0,-2.168762207E0,3.364715576E-1
1.085815430E0,-1.166564941E0,-3.014572144E0,7.924041748E-1
1.090759277E0,-7.500457764E-1,-3.355468750E0,1.190811157E0
1.095672607E0,-3.910522461E-1,-3.308593750E0,1.444351196E0
1.100585937E0,-1.662902832E-1,-3.088088989E0,1.531692505E0
1.105499268E0,-1.183471680E-1,-2.795135498E0,1.481628418E0
1.110443115E0,-2.653503418E-1,-2.422286987E0,1.329299927E0
1.115356445E0,-5.487213135E-1,-1.965286255E0,1.117309570E0
1.120269775E0,-8.310089111E-1,-1.488052368E0,8.701629639E-1
1.125183105E0,-1.023818970E0,-1.092849731E0,5.942687988E-1
1.130126953E0,-1.100524902E0,-8.627471924E-1,3.545837402E-1
1.135040283E0,-1.077087402E0,-8.329162598E-1,1.809387207E-1
1.139984131E0,-9.950561523E-1,-9.266662598E-1,1.063690186E-1
1.144897461E0,-9.172973633E-1,-1.084320068E0,9.892272949E-2
1.149810791E0,-8.874664307E-1,-1.281387329E0,1.063690186E-1
1.154724121E0,-8.981170654E-1,-1.490188599E0,1.116943359E-1
1.159667969E0,-9.290161133E-1,-1.672348022E0,1.234130859E-1
1.164581299E0,-9.652404785E-1,-1.804443359E0,1.340637207E-1
1.169494629E0,-9.929351807E-1,-1.820419312E0,1.489868164E-1
1.174438476E0,-1.020629883E0,-1.662765503E0,1.713562012E-1
1.179351807E0,-1.030212402E0,-1.379394531E0,2.022399902E-1
1.184265137E0,-1.003585815E0,-1.065139771E0,2.416687012E-1
1.189178467E0,-9.545745850E-1,-8.084106445E-1,2.800140381E-1
1.194122314E0,-9.066467285E-1,-6.496887207E-1,3.013153076E-1
1.199035644E0,-8.896026611E-1,-5.921630859E-1,2.991790771E-1
1.203979492E0,-9.215545654E-1,-5.847167969E-1,2.587127686E-1
1.208892822E0,-9.833374023E-1,-5.793914795E-1,1.681518555E-1
1.213806152E0,-1.031280518E0,-4.994964600E-1,3.819274902E-2
1.218719482E0,-1.061111450E0,-3.098754883E-1,-1.492919922E-1
1.223632812E0,-1.093063354E0,-2.331542969E-2,-3.144073486E-1
1.228576660E0,-9.343414307E-1,3.761596680E-1,-2.686004639E-1
1.233489990E0,-6.744232178E-1,6.968078613E-1,-8.323669434E-2
1.238403320E0,-5.891876221E-1,5.529937744E-1,-9.922790527E-2
1.243347168E0,-5.572357178E-1,2.770843506E-1,-3.048248291E-1
1.248260498E0,-4.272766113E-1,4.560546875E-1,-4.784545898E-1
1.253173828E0,-3.473815918E-1,8.512725830E-1,-4.496917725E-1
1.258117676E0,-4.826660156E-1,8.512725830E-1,-4.914855957E-2
1.263031006E0,-6.808013916E-1,3.441925049E-1,2.832031250E-1
1.267944336E0,-8.278198242E-1,-3.620758057E-1,3.119659424E-1
1.272857666E0,-9.503173828E-1,-9.628753662E-1,1.894683838E-1
1.277801514E0,-1.054718018E0,-1.198303223E0,4.351806641E-2
1.282714844E0,-1.180419922E0,-1.052368164E0,-8.323669434E-2
1.287628174E0,-1.343399048E0,-7.615509033E-1,-1.418304443E-1
1.292572021E0,-1.500000000E0,-5.367736816E-1,-1.279907227E-1
1.297485351E0,-1.556457520E0,-3.908386230E-1,-9.495544434E-2
1.302398682E0,-1.520233154E0,-4.206542969E-1,-9.495544434E-2
1.307312012E0,-1.468032837E0,-5.474243164E-1,-1.205291748E-1
1.312255859E0,-1.479751587E0,-6.592864990E-1,-2.110748291E-1
1.317169189E0,-1.505325317E0,-7.104187012E-1,-3.516845703E-1
1.322082519E0,-1.479751587E0,-5.793914795E-1,-4.006958008E-1
1.327026367E0,-1.417968750E0,-4.281158447E-1,-3.112182617E-1
1.331939697E0,-1.315704346E0,-4.696655273E-1,-1.727294922E-1
1.336853027E0,-1.183609009E0,-6.550140381E-1,-5.342102051E-2
1.341766357E0,-1.015304565E0,-8.819122314E-1,1.010437012E-1
1.346710205E0,-8.128967285E-1,-1.100296021E0,2.246246338E-1
1.351623535E0,-6.339416504E-1,-1.172729492E0,2.139587402E-1
1.356536865E0,-5.604400635E-1,-9.671478271E-1,1.276855469E-1
1.361480713E0,-6.041107178E-1,-6.230621338E-1,1.223449707E-1
1.366394043E0,-7.148895264E-1,-4.739227295E-1,1.180877686E-1
1.371307373E0,-8.054504395E-1,-5.410308838E-1,1.361999512E-1
1.376251221E0,-8.650970459E-1,-6.571502686E-1,1.681518555E-1
1.381164551E0,-8.778839111E-1,-7.200012207E-1,1.585693359E-1
1.386077881E0,-8.107757568E-1,-7.018890381E-1,1.287384033E-1
1.390991211E0,-6.776123047E-1,-6.294555664E-1,9.039306641E-2
1.395935059E0,-5.359344482E-1,-5.974884033E-1,8.187866211E-2
1.400848389E0,-3.772125244E-1,-6.198577881E-1,9.892272949E-2
1.405761719E0,-2.057037354E-1,-7.242584229E-1,1.532440186E-1
1.410705566E0,-4.058837891E-2,-8.819122314E-1,2.544403076E-1
1.415618896E0,5.635070801E-2,-9.873809814E-1,3.364715576E-1
1.420532226E0,4.783630371E-2,-1.044906616E0,3.939971924E-1
1.425445557E0,-8.639526367E-2,-1.049163818E0,4.216918945E-1
1.430389404E0,-3.111572266E-1,-1.027862549E0,4.355468750E-1
1.435302734E0,-5.732116699E-1,-1.017211914E0,4.568481445E-1
1.440216064E0,-8.459167480E-1,-9.692687988E-1,4.920043945E-1
1.445159912E0,-1.107986450E0,-8.670043945E-1,5.282135010E-1
1.450073242E0,-1.322097778E0,-7.828521729E-1,5.601806641E-1
1.454986572E0,-1.465911865E0,-7.200012207E-1,5.782775879E-1
1.459930420E0,-1.497863770E0,-6.731262207E-1,5.985260010E-1
1.464843750E0,-1.472305298E0,-7.008209229E-1,6.315460205E-1
1.469757080E0,-1.464843750E0,-7.466278076E-1,6.411285400E-1
1.474670410E0,-1.421173096E0,-7.327880859E-1,5.729522705E-1
1.479614258E0,-1.346603394E0,-6.614074707E-1,4.621734619E-1
1.484527588E0,-1.285873413E0,-5.154724121E-1,3.492584229E-1
1.489440918E0,-1.254989624E0,-3.205261230E-1,2.448577881E-1
1.494384766E0,-1.231552124E0,-1.064147949E-1,1.777496338E-1
1.499298096E0,-1.233673096E0,5.551147461E-2,1.479187012E-1
1.504211426E0,-1.258178711E0,1.130371094E-1,9.892272949E-2
1.509155273E0,-1.258178711E0,1.300811768E-1,1.263427734E-2
1.514068603E0,-1.228347778E0,1.226196289E-1,-5.128479004E-2
1.518981934E0,-1.220901489E0,4.486083984E-2,-6.086730957E-2
1.523895264E0,-1.234741211E0,-4.356384277E-2,-3.530883789E-2
1.528808594E0,-1.234741211E0,-3.289794922E-2,-1.933288574E-2
1.533752441E0,-1.240066528E0,3.846740723E-2,-1.293945312E-2
1.538696289E0,-1.282684326E0,1.449890137E-1,1.049804688E-2
1.543609619E0,-1.352996826E0,2.738952637E-1,5.311584473E-2
1.548522949E0,-1.459518433E0,3.569793701E-1,8.506774902E-2
1.553436279E0,-1.594802856E0,4.219665527E-1,4.458618164E-2
1.558349609E0,-1.621429443E0,7.021331787E-1,-8.750915527E-2
1.563293457E0,-1.600128174E0,9.055938721E-1,-3.637695312E-2
1.568206787E0,-1.605453491E0,8.629760742E-1,1.425933838E-1
1.573120117E0,-1.546875000E0,6.925354004E-1,1.415252686E-1
1.578063965E0,-1.449935913E0,5.423431396E-1,7.015991211E-2
1.582977295E0,-1.371093750E0,4.880065918E-1,1.902770996E-2
1.587890625E0,-1.299728394E0,5.007934570E-1,-2.252197266E-2
1.592803955E0,-1.230484009E0,5.380706787E-1,-5.981445312E-2
1.597747803E0,-1.180419922E0,5.785522461E-1,-8.218383789E-2
1.602661133E0,-1.154846191E0,6.094512939E-1,-8.537292480E-2
1.607574463E0,-1.146331787E0,6.009216309E-1,-8.644104004E-2
1.612518310E0,-1.152725220E0,5.466003418E-1,-8.323669434E-2
1.617431641E0,-1.163375854E0,4.858856201E-1,-7.365417480E-2
1.622344971E0,-1.177215576E0,4.379425049E-1,-6.619262695E-2
1.627258301E0,-1.208114624E0,3.942718506E-1,-5.981445312E-2
1.632202148E0,-1.231552124E0,3.697662354E-1,-3.849792480E-2
1.637115478E0,-1.242202759E0,3.580474854E-1,-7.614135742E-3
1.642028809E0,-1.237945557E0,3.559112549E-1,1.475524902E-2
1.646972656E0,-1.223022461E0,3.516540527E-1,9.155273438E-4
1.651885986E0,-1.177215576E0,3.857421875E-1,-1.525878906E-4
1.656799316E0,-1.131408691E0,4.113159180E-1,2.328491211E-2
1.661712646E0,-1.109039307E0,3.686981201E-1,9.155273438E-4
1.666656494E0,-1.080276489E0,3.143768311E-1,-4.809570312E-2
1.671569824E0,-1.040863037E0,2.536468506E-1,-9.390258789E-2
1.676483154E0,-1.017425537E0,1.673583984E-1,-1.588745117E-1
1.681427002E0,-9.929351807E-1,1.130371094E-1,-2.323760986E-1
1.686340332E0,-9.620361328E-1,8.534240723E-2,-2.962951660E-1
1.691253662E0,-9.151611328E-1,5.447387695E-3,-3.293151855E-1
1.696166992E0,-8.501892090E-1,-9.788513184E-2,-3.122711182E-1
1.701110840E0,-7.979888916E-1,-1.809692383E-1,-2.568817139E-1
1.706024170E0,-7.532501221E-1,-2.470245361E-1,-2.025604248E-1
1.710937500E0,-7.159576416E-1,-2.736511230E-1,-1.599426270E-1
1.715881348E0,-6.861267090E-1,-2.725830078E-1,-1.322479248E-1
1.720794678E0,-6.669616699E-1,-2.619323730E-1,-1.205291748E-1
1.725708008E0,-6.584320068E-1,-2.438201904E-1,-1.301116943E-1
1.730651855E0,-6.573791504E-1,-2.225189209E-1,-1.588745117E-1
1.735565185E0,-6.648254395E-1,-2.076110840E-1,-1.972351074E-1
1.740509033E0,-6.840057373E-1,-2.076110840E-1,-2.409057617E-1
1.745422363E0,-7.159576416E-1,-2.353057861E-1,-2.867126465E-1
1.750335693E0,-7.404632568E-1,-2.736511230E-1,-3.303833008E-1
1.755249023E0,-7.564392090E-1,-3.215942383E-1,-3.666076660E-1
1.760162353E0,-7.947845459E-1,-3.759155273E-1,-3.900451660E-1
1.765106201E0,-8.427276611E-1,-4.419708252E-1,-3.974914551E-1
1.770019531E0,-8.896026611E-1,-5.069427490E-1,-3.868408203E-1
1.774932861E0,-9.343414307E-1,-5.644683838E-1,-3.623504639E-1
1.779846191E0,-9.364776611E-1,-5.484924316E-1,-3.314514160E-1
1.784790039E0,-8.885345459E-1,-4.472961426E-1,-2.803192139E-1
1.789703369E0,-8.352661133E-1,-3.705902100E-1,-2.472991943E-1
1.794616699E0,-7.692260742E-1,-3.258514404E-1,-2.377014160E-1
1.799560547E0,-6.680297852E-1,-2.725830078E-1,-2.483673096E-1
1.804473877E0,-5.284729004E-1,-2.342376709E-1,-2.835083008E-1
1.809387207E0,-3.942565918E-1,-2.246551514E-1,-3.367767334E-1
1.814331055E0,-2.887878418E-1,-2.619323730E-1,-4.049530029E-1
1.819244385E0,-1.865234375E-1,-3.311767578E-1,-4.805908203E-1
1.824157715E0,-1.501464844E-2,-4.163970947E-1,-5.317230225E-1
1.829071045E0,1.458435059E-1,-5.026855469E-1,-5.679321289E-1
1.834014893E0,1.852569580E-1,-5.729980469E-1,-6.126861572E-1
1.838928223E0,1.618194580E-1,-6.230621338E-1,-6.297302246E-1
1.843841553E0,1.703338623E-1,-6.550140381E-1,-5.977630615E-1
1.848785400E0,1.703338623E-1,-6.944274902E-1,-5.679321289E-1
1.853698730E0,1.053619385E-1,-7.285156250E-1,-5.615539551E-1
1.858612060E0,-7.568359375E-3,-7.136077881E-1,-5.668792725E-1
1.863525391E0,-8.532714844E-2,-5.740509033E-1,-5.604858398E-1
1.868469238E0,-1.140899658E-1,-3.791198730E-1,-5.402374268E-1
1.873382568E0,-1.385955811E-1,-2.267761230E-1,-5.338439941E-1
1.878295898E0,-1.502990723E-1,-1.436920166E-1,-5.402374268E-1
1.883239746E0,-1.045074463E-1,-1.298370361E-1,-5.253295898E-1
1.888153076E0,-2.886962891E-2,-1.618041992E-1,-4.965667725E-1
1.893066406E0,3.823852539E-2,-1.809692383E-1,-4.752655029E-1
1.897979736E0,5.955505371E-2,-1.841735840E-1,-4.699401855E-1
1.902923584E0,5.848693848E-2,-1.788482666E-1,-4.709930420E-1
1.907836914E0,2.865600586E-2,-1.564788818E-1,-4.731292725E-1
1.912750244E0,-2.886962891E-2,-1.117401123E-1,-4.550170898E-1
1.917694092E0,-6.614685059E-2,-8.084106445E-2,-4.198608398E-1
1.922607422E0,-1.289367676E-2,-1.170654297E-1,-3.591461182E-1
1.927520752E0,6.488037109E-2,-1.841735840E-1,-2.899017334E-1
1.932464600E0,6.700134277E-2,-2.587432861E-1,-2.622070312E-1
1.937377930E0,-7.568359375E-3,-2.832336426E-1,-2.835083008E-1
1.942291260E0,-9.384155273E-2,-2.587432861E-1,-3.186645508E-1
1.947235107E0,-1.535034180E-1,-2.459564209E-1,-3.367767334E-1
1.952148437E0,-1.833343506E-1,-2.576751709E-1,-3.399658203E-1
1.957061768E0,-2.035675049E-1,-2.896270752E-1,-3.314514160E-1
1.961975098E0,-2.120971680E-1,-3.205261230E-1,-3.165435791E-1
1.966918945E0,-2.142181396E-1,-3.546142578E-1,-2.952270508E-1
1.971832275E0,-2.067718506E-1,-3.844451904E-1,-2.728576660E-1
1.976745605E0,-2.035675049E-1,-3.844451904E-1,-2.472991943E-1
1.981689453E0,-2.067718506E-1,-3.535461426E-1,-2.025604248E-1
1.986602783E0,-2.035675049E-1,-3.205261230E-1,-1.407623291E-1
1.991516113E0,-2.301940918E-1,-2.331695557E-1,-1.088104248E-1
1.996429443E0,-2.674865723E-1,-1.117401123E-1,-8.323669434E-2
2.001373291E0,-2.685546875E-1,-2.014160156E-3,-3.105163574E-2
2.006286621E0,-2.301940918E-1,1.066436768E-1,4.032897949E-2
2.011169434E0,-1.737365723E-1,1.929321289E-1,1.457824707E-1
2.016113281E0,-1.481781006E-1,2.675018311E-1,3.034515381E-1
2.021057129E0,-2.163543701E-1,3.793487549E-1,5.196990967E-1
2.025970459E0,-3.740081787E-1,5.849456787E-1,7.125091553E-1
2.030883789E0,-5.785369873E-1,9.279632568E-1,6.230316162E-1
2.035827637E0,-7.862701416E-1,1.178298950E0,1.756134033E-1
2.040740967E0,-1.001449585E0,1.159133911E0,-1.748504639E-1
2.045654297E0,-1.169769287E0,1.101608276E0,-3.879089355E-1
2.050598144E0,-1.101593018E0,1.086685181E0,-5.157470703E-1
2.055511475E0,-7.947845459E-1,1.115447998E0,-5.029602051E-1
2.060424805E0,-3.761444092E-1,1.179367065E0,-4.188079834E-1
2.065338135E0,4.890441895E-2,1.218780518E0,-3.314514160E-1
2.070281982E0,3.184051514E-1,1.207061768E0,-3.026885986E-1
2.075195312E0,4.015045166E-1,1.105865479E0,-3.378448486E-1
2.080108643E0,4.270629883E-1,1.006790161E0,-3.793945312E-1
2.085052490E0,4.505004883E-1,9.237060547E-1,-4.092102051E-1
2.089965820E0,4.355926514E-1,8.352813721E-1,-4.475708008E-1
2.094879150E0,4.217376709E-1,6.914825439E-1,-4.837799072E-1
2.099822998E0,4.132232666E-1,5.402069092E-1,-5.061492920E-1
2.104705810E0,3.812561035E-1,4.177093506E-1,-5.221405029E-1
2.109649658E0,3.524932861E-1,3.101043701E-1,-5.200042725E-1
2.114562988E0,3.109588623E-1,2.057189941E-1,-5.093536377E-1
2.119506836E0,2.427825928E-1,9.599304199E-2,-4.987030029E-1
2.124420166E0,1.905822754E-1,-5.203247070E-3,-4.688720703E-1
2.129333496E0,1.373138428E-1,-9.362792969E-2,-4.177398682E-1
2.134277344E0,5.741882324E-2,-1.660614014E-1,-3.634033203E-1
2.139190674E0,-2.886962891E-2,-2.097320557E-1,-3.048248291E-1
2.144104004E0,-8.851623535E-2,-2.384948730E-1,-2.707366943E-1
2.149017334E0,-1.098327637E-1,-2.672576904E-1,-2.568817139E-1
2.153961182E0,-9.704589844E-2,-2.853698730E-1,-2.494201660E-1
2.158874512E0,-6.402587891E-2,-3.045501709E-1,-2.579498291E-1
2.163787842E0,-1.289367676E-2,-3.045501709E-1,-2.867126465E-1
2.168731689E0,6.381225586E-2,-3.024139404E-1,-3.463592529E-1
2.173645019E0,1.522216797E-1,-3.588714600E-1,-4.177398682E-1
2.178558350E0,2.502288818E-1,-4.472961426E-1,-4.987030029E-1
2.183471680E0,3.503723145E-1,-5.910949707E-1,-5.732727051E-1
2.188415527E0,4.409179688E-1,-8.211975098E-1,-6.244049072E-1
2.193328857E0,5.250701904E-1,-1.050231934E0,-6.435699463E-1
2.198242187E0,5.975036621E-1,-1.260086060E0,-6.350555420E-1
2.203186035E0,6.593017578E-1,-1.445449829E0,-6.201324463E-1
2.208099365E0,7.200164795E-1,-1.548782349E0,-6.094818115E-1
2.213012695E0,7.658233643E-1,-1.554107666E0,-5.849761963E-1
2.217926025E0,7.583618164E-1,-1.541320801E0,-4.816589355E-1
2.222869873E0,7.114868164E-1,-1.514694214E0,-4.113464355E-1
2.227783203E0,7.359924316E-1,-1.431594849E0,-2.899017334E-1
2.232696533E0,7.562408447E-1,-1.246246338E0,-1.343841553E-1
2.237640381E0,6.997680664E-1,-9.852447510E-1,-4.063415527E-2
2.242553711E0,6.763458252E-1,-8.382415771E-1,5.204772949E-2
2.247467041E0,7.125549316E-1,-6.134796143E-1,1.372680664E-1
2.252380371E0,7.860565186E-1,-4.185333252E-1,2.118377686E-1
2.257324219E0,8.787384033E-1,-2.395629883E-1,2.480468750E-1
2.262237549E0,9.916534424E-1,-2.608642578E-1,1.851959229E-1
2.267150879E0,1.116287231E0,-3.205261230E-1,8.932495117E-2
2.272094726E0,1.202575684E0,-1.681976318E-1,6.163024902E-2
2.277008057E0,1.219619751E0,-8.616638184E-2,4.104614258E-3
2.281921387E0,1.173812866E0,-1.351623535E-1,-1.226654053E-1
2.286865234E0,1.061965942E0,-2.970886230E-2,-2.472991943E-1
2.291778564E0,9.138946533E-1,3.569793701E-1,-3.570098877E-1
2.296691894E0,7.477111816E-1,6.712341309E-1,-3.996276855E-1
2.301605225E0,4.995117188E-1,7.969360352E-1,-3.634033203E-1
2.306549072E0,2.001647949E-1,8.161163330E-1,-3.186645508E-1
2.311462402E0,-1.119537354E-1,7.159729004E-1,-2.451629639E-1
2.316375732E0,-4.027709961E-1,5.934753418E-1,-1.418304443E-1
2.321319580E0,-6.424560547E-1,4.794921875E-1,-2.359008789E-2
2.326232910E0,-8.437957764E-1,3.037261963E-1,9.997558594E-2
2.331146240E0,-9.961242676E-1,8.001708984E-2,2.395324707E-1
2.336059570E0,-1.117568970E0,-2.321014404E-1,3.971862793E-1
2.341003418E0,-1.252853394E0,-5.165405273E-1,5.292816162E-1
2.345916748E0,-1.403060913E0,-7.295837402E-1,6.283569336E-1
2.350860596E0,-1.535156250E0,-9.021606445E-1,7.210235596E-1
2.355773926E0,-1.640609741E0,-1.116271973E0,8.190307617E-1
2.360687256E0,-1.755661011E0,-1.361282349E0,9.266204834E-1
2.365600586E0,-1.853668213E0,-1.508300781E0,1.004394531E0
2.370513916E0,-1.943145752E0,-1.686187744E0,1.024627686E0
2.375457764E0,-2.065658569E0,-1.768218994E0,9.884185791E-1
2.380371094E0,-2.180694580E0,-1.698974609E0,8.989257812E-1
2.385284424E0,-2.276580811E0,-1.524276733E0,7.423400879E-1
2.390228271E0,-2.331970215E0,-1.304824829E0,5.473937988E-1
2.395141601E0,-2.340484619E0,-1.109893799E0,3.354034424E-1
2.400054932E0,-2.295745850E0,-1.023605347E0,1.010437012E-1
2.404998779E0,-2.176437378E0,-1.085388184E0,-1.311798096E-1
2.409912109E0,-1.987884521E0,-1.173797607E0,-3.303833008E-1
2.414825439E0,-1.743942261E0,-1.231323242E0,-4.731292725E-1
2.419738769E0,-1.472305298E0,-1.205764771E0,-5.498352051E-1
2.424682617E0,-1.185745239E0,-9.799194336E-1,-5.626068115E-1
2.429595947E0,-8.757476807E-1,-5.889739990E-1,-5.413055420E-1
2.434509277E0,-5.508422852E-1,-2.576751709E-1,-5.104217529E-1
2.439453125E0,-2.365875244E-1,-8.935546875E-2,-4.709930420E-1
2.444366455E0,4.037475586E-2,-2.864074707E-2,-4.145355225E-1
2.449279785E0,2.587585449E-1,-1.692199707E-2,-3.506317139E-1
2.454193115E0,4.046936035E-1,-2.012634277E-2,-2.760620117E-1
2.459106445E0,4.760742188E-1,-3.610229492E-2,-2.004241943E-1
2.464050293E0,4.728698730E-1,-6.379699707E-2,-1.397094727E-1
2.468963623E0,4.100189209E-1,-1.000213623E-1,-1.002960205E-1
2.473907471E0,3.173522949E-1,-1.234588623E-1,-7.153320312E-2
2.478820801E0,2.044219971E-1,-1.287841797E-1,-4.702758789E-2
2.483734131E0,8.937072754E-2,-1.351623535E-1,-1.612854004E-2
2.488647461E0,-1.075744629E-2,-1.266479492E-1,2.114868164E-2
2.493591309E0,-8.639526367E-2,-1.159973145E-1,5.949401855E-2
2.498504639E0,-1.215515137E-1,-1.127929688E-1,8.399963379E-2
2.503417969E0,-1.215515137E-1,-1.000213623E-1,1.010437012E-1
2.508361816E0,-9.278869629E-2,-6.593322754E-2,1.127624512E-1
2.513275146E0,-4.591369629E-2,-3.289794922E-2,1.159667969E-1
2.518188476E0,2.029418945E-3,-1.905822754E-2,1.223449707E-1
2.523132324E0,6.062316895E-2,1.220703125E-4,1.319427490E-1
2.528045654E0,1.192016602E-1,4.167175293E-2,1.383361816E-1
2.532958984E0,1.714019775E-1,8.746337891E-2,1.415252686E-1
2.537902832E0,2.566223145E-1,8.746337891E-2,1.628265381E-1
2.542816162E0,4.238739014E-1,2.249145508E-2,2.406005859E-1
2.547729492E0,6.071014404E-1,6.515502930E-3,3.279418945E-1
2.552642822E0,7.285308838E-1,5.976867676E-2,4.025115967E-1
2.557556152E0,7.764739990E-1,1.300811768E-1,4.653625488E-1
2.562500000E0,8.031005859E-1,1.769561768E-1,5.452575684E-1
2.567413330E0,8.212127686E-1,2.163696289E-1,6.187591553E-1
2.572326660E0,8.329315186E-1,2.781524658E-1,6.848144531E-1
2.577270508E0,8.446502686E-1,3.388671875E-1,7.529907227E-1
2.582183838E0,8.627624512E-1,3.772277832E-1,8.051910400E-1
2.587097168E0,8.702239990E-1,4.091796875E-1,8.414001465E-1
2.592041016E0,8.435821533E-1,4.177093506E-1,8.584442139E-1
2.596954346E0,7.775421143E-1,3.910675049E-1,8.435363770E-1
2.601867676E0,6.710052490E-1,3.452606201E-1,7.966613770E-1
2.606781006E0,5.250701904E-1,3.047790527E-1,7.114410400E-1
2.611724853E0,3.205413818E-1,2.706909180E-1,5.761566162E-1
2.616638184E0,6.806945801E-2,2.270202637E-1,3.833465576E-1
2.621551514E0,-1.822662354E-1,1.663055420E-1,1.670989990E-1
2.626495361E0,-3.750762939E-1,9.492492676E-2,-4.063415527E-2
2.631408691E0,-4.997100830E-1,3.100585938E-2,-2.068176270E-1
2.636322021E0,-5.742797852E-1,-4.782104492E-2,-2.973632812E-1
2.641235351E0,-6.083679199E-1,-1.479492188E-1,-3.218688965E-1
2.646179199E0,-6.030426025E-1,-2.789764404E-1,-3.037567139E-1
2.651092529E0,-5.636291504E-1,-4.196014404E-1,-2.686004639E-1
2.656036377E0,-4.943847656E-1,-5.080108643E-1,-2.281188965E-1
2.660949707E0,-4.038391113E-1,-5.378417969E-1,-1.780548096E-1
2.665863037E0,-3.047637939E-1,-5.325164795E-1,-1.311798096E-1
2.670776367E0,-2.024993896E-1,-5.335845947E-1,-9.602355957E-2
2.675720215E0,-1.055603027E-1,-5.580749512E-1,-8.430480957E-2
2.680633545E0,-2.247619629E-2,-5.921630859E-1,-9.815979004E-2
2.685546875E0,4.144287109E-2,-6.124114990E-1,-1.343841553E-1
2.690460205E0,9.364318848E-2,-5.708618164E-1,-1.663360596E-1
2.695404053E0,1.373138428E-1,-4.558105469E-1,-1.982879639E-1
2.700317383E0,1.714019775E-1,-3.844451904E-1,-2.377014160E-1
2.705230713E0,1.895141602E-1,-4.046783447E-1,-2.845764160E-1
2.710174560E0,2.001647949E-1,-4.451599121E-1,-3.303833008E-1
2.715087891E0,1.937713623E-1,-4.909667969E-1,-3.602142334E-1
2.720001221E0,1.703338623E-1,-5.335845947E-1,-3.687286377E-1
2.724945068E0,1.394500732E-1,-5.602111816E-1,-3.527526855E-1
2.729858398E0,8.404541016E-2,-5.666046143E-1,-3.335876465E-1
2.734771728E0,-8.621215820E-3,-5.602111816E-1,-3.122711182E-1
2.739685059E0,-1.300659180E-1,-5.420989990E-1,-2.824554443E-1
2.744628906E0,-2.387237549E-1,-5.420989990E-1,-2.472991943E-1
2.749542236E0,-2.887878418E-1,-5.719299316E-1,-2.153320312E-1
2.754455566E0,-2.834625244E-1,-6.688690186E-1,-1.855163574E-1
2.759399414E0,-2.451171875E-1,-8.180084229E-1,-1.546173096E-1
2.764312744E0,-1.939849854E-1,-9.607543945E-1,-1.205291748E-1
2.769226074E0,-1.524353027E-1,-1.035324097E0,-9.069824219E-2
2.774139404E0,-1.428527832E-1,-1.025726318E0,-6.939697266E-2
2.779083252E0,-1.492462158E-1,-9.628753662E-1,-4.809570312E-2
2.783996582E0,-1.694793701E-1,-8.957672119E-1,-2.998352051E-2
2.788909912E0,-2.046356201E-1,-8.861846924E-1,-3.424072266E-2
2.793853760E0,-2.270050049E-1,-9.298553467E-1,-5.661010742E-2
2.798767090E0,-2.738800049E-1,-1.055557251E0,-8.750915527E-2
2.803680420E0,-3.047637939E-1,-1.184448242E0,-1.088104248E-1
2.808624268E0,-2.834625244E-1,-1.218536377E0,-1.183929443E-1
2.813537598E0,-2.408599854E-1,-1.140777588E0,-1.247863770E-1
2.818450928E0,-2.067718506E-1,-1.085388184E0,-1.567535400E-1
2.823364258E0,-2.067718506E-1,-1.200439453E0,-2.142791748E-1
2.828277588E0,-2.259368896E-1,-1.318679810E0,-2.962951660E-1
2.833221435E0,-2.696228027E-1,-1.333587646E0,-3.953704834E-1
2.838134766E0,-3.154296875E-1,-1.313354492E0,-5.157470703E-1
2.843078613E0,-3.633575439E-1,-1.303771973E0,-6.606140137E-1
2.847991943E0,-4.113006592E-1,-1.371948242E0,-8.129577637E-1
2.852905273E0,-4.400634766E-1,-1.456100464E0,-9.205474854E-1
2.857818603E0,-4.389953613E-1,-1.409225464E0,-9.706115723E-1
2.862762451E0,-4.070281982E-1,-1.321868896E0,-9.887237549E-1
2.867675781E0,-3.804016113E-1,-1.359161377E0,-1.038787842E0
2.872589111E0,-3.676147461E-1,-1.442245483E0,-1.094177246E0
2.877532959E0,-3.452453613E-1,-1.446502686E0,-1.088851929E0
2.882446289E0,-2.642822266E-1,-1.386856079E0,-1.068618774E0
2.887359619E0,-1.194152832E-1,-1.451843262E0,-1.135726929E0
2.892272949E0,8.937072754E-2,-1.738388062E0,-1.372207642E0
2.897216797E0,3.045654297E-1,-1.997253418E0,-1.725875854E0
2.902130127E0,4.132232666E-1,-2.045181274E0,-2.022018433E0
2.907043457E0,3.493041992E-1,-1.834259033E0,-2.133880615E0
2.911987305E0,1.319885254E-1,-1.351699829E0,-2.010314941E0
2.916900635E0,-1.417846680E-1,-7.125396729E-1,-1.653442383E0
2.921813965E0,-3.250122070E-1,-1.596679688E-1,-1.251846313E0
2.926727295E0,-4.091644287E-1,1.545867920E-1,-9.588928223E-1
2.931671143E0,-4.549713135E-1,2.600402832E-1,-8.331909180E-1
2.936584473E0,-4.869232178E-1,2.738952637E-1,-8.331909180E-1
2.941497803E0,-5.263519287E-1,2.994537354E-1,-8.960418701E-1
2.946441650E0,-5.678863525E-1,3.868103027E-1,-9.461059570E-1
2.951354980E0,-6.009063721E-1,5.402069092E-1,-9.514312744E-1
2.956268310E0,-6.296691895E-1,7.362213135E-1,-9.162750244E-1
2.961212158E0,-6.467132568E-1,9.588623047E-1,-8.289337158E-1
2.966125488E0,-6.563110352E-1,1.139953613E0,-7.128143311E-1
2.971038818E0,-6.690826416E-1,1.295486450E0,-6.169433594E-1
2.975952148E0,-6.840057373E-1,1.410522461E0,-5.594177246E-1
2.980895996E0,-6.744232178E-1,1.464859009E0,-5.381164551E-1
2.985809326E0,-6.616363525E-1,1.437164307E0,-5.445098877E-1
2.990722656E0,-6.744232178E-1,1.285888672E0,-5.753936768E-1
2.995666504E0,-7.202301025E-1,1.055801392E0,-6.318511963E-1
3.000579834E0,-7.617645264E-1,8.182373047E-1,-6.840515137E-1
3.005493164E0,-7.777404785E-1,5.966644287E-1,-7.234649658E-1
3.010406494E0,-7.660217285E-1,3.804168701E-1,-7.479705811E-1
3.015350342E0,-7.457885742E-1,1.737518311E-1,-7.469024658E-1
3.020263672E0,-7.223510742E-1,2.674865723E-2,-7.245330811E-1
3.025177002E0,-7.191619873E-1,-9.895324707E-2,-6.872558594E-1
3.030120850E0,-7.212829590E-1,-1.873626709E-1,-6.435699463E-1
3.035034180E0,-7.042388916E-1,-2.054748535E-1,-5.860443115E-1
3.039947510E0,-6.584320068E-1,-1.788482666E-1,-5.146789551E-1
3.044891357E0,-5.678863525E-1,-1.383666992E-1,-4.283905029E-1
3.049804687E0,-4.304656982E-1,-5.633544922E-2,-3.250579834E-1
3.054718018E0,-2.568359375E-1,4.272460938E-2,-2.121429443E-1
3.059631348E0,-4.270935059E-2,1.609802246E-1,-9.815979004E-2
3.064575195E0,1.809844971E-1,2.824096680E-1,2.435302734E-2
3.069488525E0,3.184051514E-1,3.601837158E-1,8.613586426E-2
3.074401855E0,3.120117188E-1,3.516540527E-1,7.015991211E-2
3.079345703E0,2.033691406E-1,2.909393311E-1,3.074645996E-2
3.084259033E0,6.488037109E-2,2.174377441E-1,1.156616211E-2
3.089172363E0,-8.106994629E-2,1.417999268E-1,2.967834473E-2
3.094085693E0,-2.163543701E-1,5.337524414E-2,8.293151855E-2
3.099029541E0,-3.441772461E-1,-7.444763184E-2,1.862640381E-1
3.103942871E0,-4.965209961E-1,-2.416992188E-1,3.279418945E-1
3.108856201E0,-5.817413330E-1,-2.640686035E-1,3.748168945E-1
3.113800049E0,-5.561676025E-1,-1.223907471E-1,3.162231445E-1
3.118713379E0,-4.496459961E-1,8.108520508E-2,2.246246338E-1
3.123626709E0,-2.951812744E-1,2.941284180E-1,1.543121338E-1
3.128570557E0,-1.737365723E-1,4.933319092E-1,1.393890381E-1
3.133483887E0,4.890441895E-2,6.105194092E-1,9.892272949E-2
3.138397217E0,2.406463623E-1,4.720306396E-1,1.582336426E-2
3.143310547E0,1.820526123E-1,1.769561768E-1,-3.424072266E-2
3.148254394E0,3.079223633E-2,-6.166076660E-2,-2.252197266E-2
3.153167725E0,-1.183471680E-1,-1.948242188E-1,1.689147949E-2
3.158081055E0,-2.195434570E-1,-2.363739014E-1,5.416870117E-2
3.163024902E0,-2.674865723E-1,-2.097320557E-1,8.081054688E-2
3.167938232E0,-2.781372070E-1,-1.394348145E-1,9.997558594E-2
3.172851562E0,-2.664184570E-1,-7.125854492E-2,1.223449707E-1
3.177764893E0,-2.472381592E-1,-2.438354492E-2,1.340637207E-1
3.182708740E0,-2.333984375E-1,1.190185547E-3,1.330108643E-1
3.187622070E0,-2.344665527E-1,7.583618164E-3,1.244812012E-1
3.192535400E0,-2.632293701E-1,1.290893555E-2,1.234130859E-1
3.197479248E0,-3.100891113E-1,2.355957031E-2,1.383361816E-1
3.202392578E0,-3.750762939E-1,5.018615723E-2,1.713562012E-1
3.207305908E0,-4.475097656E-1,8.746337891E-2,2.235565186E-1
3.212249756E0,-5.050354004E-1,1.258239746E-1,2.906646729E-1
3.217163086E0,-5.423278809E-1,1.354064941E-1,3.641662598E-1
3.222076416E0,-5.497741699E-1,1.013183594E-1,4.280853271E-1
3.226989746E0,-5.252838135E-1,3.527832031E-2,4.770812988E-1
3.231933594E0,-4.858703613E-1,-4.568481445E-2,5.079803467E-1
3.236846924E0,-4.421844482E-1,-1.330413818E-1,5.175628662E-1
3.241760254E0,-4.017028809E-1,-2.097320557E-1,5.090484619E-1
3.246704101E0,-3.665618896E-1,-2.704620361E-1,4.973297119E-1
3.251617432E0,-3.314056396E-1,-2.960205078E-1,4.951934814E-1
3.256530762E0,-2.983856201E-1,-3.002929688E-1,4.834747314E-1
3.261444092E0,-2.674865723E-1,-2.853698730E-1,4.824066162E-1
3.266387939E0,-2.546997070E-1,-2.566070557E-1,5.154418945E-1
3.271301269E0,-2.568359375E-1,-2.235870361E-1,5.463256836E-1
3.276214600E0,-2.451171875E-1,-1.958923340E-1,5.484619141E-1
3.281158447E0,-2.163543701E-1,-1.862945557E-1,5.388641357E-1
3.286071777E0,-1.833343506E-1,-2.097320557E-1,5.505828857E-1
3.290985107E0,-1.502990723E-1,-2.651367188E-1,5.729522705E-1
3.295898437E0,-1.215515137E-1,-3.397064209E-1,5.868072510E-1
3.300811768E0,-1.002349854E-1,-3.865661621E-1,5.718994141E-1
3.305755615E0,-1.002349854E-1,-3.972167969E-1,5.324859619E-1
3.310668945E0,-1.556396484E-1,-4.376983643E-1,5.591125488E-1
3.315612793E0,-2.493743896E-1,-4.462280273E-1,5.910644531E-1
3.320526123E0,-3.612213135E-1,-3.940277100E-1,6.123809814E-1
3.325439453E0,-4.815979004E-1,-3.098754883E-1,6.326141357E-1
3.330352783E0,-5.796051025E-1,-2.076110840E-1,6.400756836E-1
3.335296631E0,-6.413879395E-1,-1.032104492E-1,6.081085205E-1
3.340209961E0,-6.690826416E-1,-2.545166016E-2,4.973297119E-1
3.345123291E0,-6.712188721E-1,2.568054199E-2,3.854675293E-1
3.350067139E0,-6.499176025E-1,6.297302246E-2,3.258209229E-1
3.354980469E0,-5.764160156E-1,6.616210938E-2,3.183593750E-1
3.359893799E0,-4.613647461E-1,4.699707031E-2,3.332672119E-1
3.364837646E0,-3.516387939E-1,3.100585938E-2,3.396606445E-1
3.369750976E0,-2.823944092E-1,2.142333984E-2,3.354034424E-1
3.374664307E0,-2.749481201E-1,1.502990723E-2,3.567047119E-1
3.379608154E0,-2.962493896E-1,-9.460449219E-4,4.078369141E-1
3.384521484E0,-3.463134766E-1,-3.503417969E-2,4.653625488E-1
3.389434814E0,-4.240722656E-1,-4.142761230E-2,4.888000488E-1
3.394348144E0,-4.997100830E-1,1.190185547E-3,4.483184814E-1
3.399291992E0,-5.529785156E-1,8.108520508E-2,3.812103271E-1
3.404205322E0,-5.678863525E-1,1.620330811E-1,3.077087402E-1
3.409118652E0,-5.604400635E-1,2.216949463E-1,2.192840576E-1
3.414031982E0,-5.529785156E-1,2.621765137E-1,1.468505859E-1
3.418975830E0,-5.657653809E-1,2.920074463E-1,1.053009033E-1
3.423889160E0,-5.870666504E-1,2.941284180E-1,8.506774902E-2
3.428802490E0,-5.817413330E-1,2.781524658E-1,1.021118164E-1
3.433746338E0,-5.742797852E-1,2.557830811E-1,8.720397949E-2
3.438659668E0,-5.380554199E-1,2.600402832E-1,5.311584473E-2
3.443572998E0,-4.411163330E-1,2.589721680E-1,4.991149902E-2
3.448486328E0,-3.825378418E-1,2.238311768E-1,3.179931641E-2
3.453430176E0,-3.324737549E-1,1.609802246E-1,7.308959961E-3
3.458343506E0,-2.674865723E-1,8.427429199E-2,6.240844727E-3
3.463256836E0,-2.088928223E-1,2.035522461E-2,5.172729492E-3
3.468200684E0,-1.769409180E-1,-4.568481445E-2,-8.682250977E-3
3.473114014E0,-1.652221680E-1,-1.149291992E-1,-2.784729004E-2
3.478027344E0,-1.513671875E-1,-1.522064209E-1,-5.128479004E-2
3.482940674E0,-1.364593506E-1,-1.522064209E-1,-8.004760742E-2
3.487884521E0,-1.588287354E-1,-1.372985840E-1,-1.002960205E-1
3.492797851E0,-2.163543701E-1,-1.074676514E-1,-8.963012695E-2
3.497711182E0,-2.685546875E-1,-3.929138184E-2,-6.513977051E-2
3.502655029E0,-3.026428223E-1,4.379272461E-3,-6.619262695E-2
3.507568359E0,-3.154296875E-1,1.396179199E-2,-8.750915527E-2
3.512481689E0,-3.079681396E-1,2.243041992E-3,-1.152038574E-1
3.517425537E0,-2.792053223E-1,-3.717041016E-2,-1.631317139E-1
3.522338867E0,-2.568359375E-1,-8.935546875E-2,-2.313232422E-1
3.527252197E0,-2.301940918E-1,-1.309051514E-1,-2.909698486E-1
3.532165527E0,-2.238159180E-1,-1.522064209E-1,-3.421020508E-1
3.537109375E0,-2.397918701E-1,-1.468811035E-1,-3.889770508E-1
3.542022705E0,-2.291412354E-1,-1.202545166E-1,-4.219970703E-1
3.546936035E0,-2.419128418E-1,-1.106719971E-1,-4.230651855E-1
3.551879883E0,-2.845306396E-1,-1.223907471E-1,-4.006958008E-1
3.556793213E0,-3.100891113E-1,-1.415557861E-1,-3.847198486E-1
3.561706543E0,-3.218078613E-1,-1.596679688E-1,-3.889770508E-1
3.566650391E0,-3.228759766E-1,-1.735229492E-1,-4.198608398E-1
3.571563721E0,-3.324737549E-1,-1.799163818E-1,-4.592895508E-1
3.576477051E0,-3.314056396E-1,-1.756439209E-1,-4.741973877E-1
3.581390381E0,-3.282012939E-1,-1.820373535E-1,-4.646148682E-1
3.586334228E0,-3.239440918E-1,-2.054748535E-1,-4.560852051E-1
3.591247559E0,-3.292694092E-1,-2.342376709E-1,-4.347839355E-1
3.596160889E0,-3.345947266E-1,-2.821807861E-1,-4.156036377E-1
3.601074219E0,-3.676147461E-1,-3.801727295E-1,-4.283905029E-1
3.606018066E0,-3.569641113E-1,-4.323730469E-1,-4.507598877E-1
3.610931396E0,-3.026428223E-1,-4.259796143E-1,-4.976348877E-1
3.615844726E0,-2.174224854E-1,-3.950958252E-1,-5.327911377E-1
3.620788574E0,-1.801300049E-1,-4.174652100E-1,-5.562286377E-1
3.625701904E0,-1.726837158E-1,-4.994964600E-1,-5.849761963E-1
3.630615234E0,-1.833343506E-1,-5.783233643E-1,-6.148071289E-1
3.635559082E0,-1.907806396E-1,-6.028137207E-1,-6.371765137E-1
3.640472412E0,-1.790618896E-1,-5.879058838E-1,-6.350555420E-1
3.645385742E0,-2.003784180E-1,-5.708618164E-1,-6.201324463E-1
3.650299072E0,-2.174224854E-1,-5.506286621E-1,-6.030883789E-1
3.655242920E0,-2.078247070E-1,-5.229187012E-1,-5.860443115E-1
3.660156250E0,-1.801300049E-1,-4.856414795E-1,-5.700683594E-1
3.665069580E0,-1.748046875E-1,-4.824523926E-1,-5.498352051E-1
3.670013428E0,-1.748046875E-1,-4.931030273E-1,-5.242614746E-1
3.674926758E0,-1.353912354E-1,-4.622039795E-1,-5.008239746E-1
3.679840088E0,-1.226043701E-1,-4.717864990E-1,-4.709930420E-1
3.684753418E0,-9.384155273E-2,-4.643402100E-1,-4.475708008E-1
3.689697266E0,-8.425903320E-2,-4.451599121E-1,-4.060211182E-1
3.694610596E0,-5.017089844E-2,-4.014892578E-1,-3.687286377E-1
3.699554443E0,-1.821899414E-2,-3.705902100E-1,-3.378448486E-1
3.704467773E0,-2.566528320E-2,-3.844451904E-1,-2.931060791E-1
3.709381103E0,1.693725586E-2,-3.514251709E-1,-2.547454834E-1
3.714294434E0,7.232666016E-2,-3.141326904E-1,-2.419738770E-1
3.719238281E0,1.149444580E-1,-3.162689209E-1,-2.387695312E-1
3.724151611E0,1.309204102E-1,-3.439636230E-1,-2.259826660E-1
3.729064941E0,1.479644775E-1,-3.567504883E-1,-2.014923096E-1
3.734008789E0,1.692657471E-1,-3.460845947E-1,-1.833801270E-1
3.738922119E0,1.863098145E-1,-3.258514404E-1,-1.705932617E-1
3.743835449E0,2.097473145E-1,-3.098754883E-1,-1.695251465E-1
3.748748779E0,2.353210449E-1,-3.119964600E-1,-1.823120117E-1
3.753692627E0,2.598266602E-1,-3.141326904E-1,-1.972351074E-1
3.758605957E0,2.928466797E-1,-3.088073730E-1,-2.110748291E-1
3.763519287E0,3.205413818E-1,-2.992248535E-1,-2.281188965E-1
3.768432617E0,3.567657471E-1,-2.779083252E-1,-2.590179443E-1
3.773376465E0,3.897857666E-1,-2.630004883E-1,-3.122711182E-1
3.778289795E0,4.174804688E-1,-2.502136230E-1,-3.761901855E-1
3.783233643E0,4.462432861E-1,-2.395629883E-1,-4.443664551E-1
3.788146973E0,4.750061035E-1,-2.353057861E-1,-5.167999268E-1
3.793060303E0,5.122833252E-1,-2.257232666E-1,-5.828552246E-1
3.797973633E0,5.485076904E-1,-2.129364014E-1,-6.414489746E-1
3.802917480E0,5.751342773E-1,-2.086791992E-1,-6.734008789E-1
3.807830810E0,5.911102295E-1,-2.076110840E-1,-6.893768311E-1
3.812744141E0,5.868530273E-1,-2.140045166E-1,-6.861877441E-1
3.817657471E0,5.644836426E-1,-2.448883057E-1,-6.574249268E-1
3.822601318E0,5.325317383E-1,-2.832336426E-1,-6.020355225E-1
3.827514648E0,4.931182861E-1,-2.885742188E-1,-5.231933594E-1
3.832427978E0,4.632873535E-1,-2.353057861E-1,-4.358520508E-1
3.837371826E0,4.238739014E-1,-1.500854492E-1,-3.506317139E-1
3.842285156E0,3.833923340E-1,-7.019042969E-2,-2.579498291E-1
3.847198486E0,3.684844971E-1,-1.905822754E-2,-1.556854248E-1
3.852142334E0,3.716735840E-1,-3.717041016E-2,-7.791137695E-2
3.857055664E0,4.025726318E-1,-7.765197754E-2,-2.252197266E-2
3.861968994E0,4.345245361E-1,-1.255798340E-1,-1.220703125E-3
3.866912842E0,4.494323730E-1,-1.703186035E-1,-5.477905273E-3
3.871826172E0,4.579620361E-1,-1.862945557E-1,-1.400756836E-2
3.876739502E0,4.568939209E-1,-1.767120361E-1,-1.933288574E-2
3.881652832E0,4.547576904E-1,-1.479492188E-1,-3.530883789E-2
3.886596680E0,4.473114014E-1,-1.170654297E-1,-1.130676270E-1
3.891510010E0,3.993682861E-1,-1.096038818E-1,-2.419738770E-1
3.896423340E0,3.280029297E-1,-1.234588623E-1,-3.431701660E-1
3.901367187E0,2.502288818E-1,-1.351623535E-1,-3.900451660E-1
3.906280518E0,1.799316406E-1,-1.255798340E-1,-4.038848877E-1
3.911193848E0,1.341247559E-1,-9.255981445E-2,-3.974914551E-1
3.916107178E0,1.021575928E-1,-6.060791016E-2,-3.761901855E-1
3.921051025E0,7.127380371E-2,-5.101013184E-2,-3.484954834E-1
3.925964355E0,4.463195801E-2,-5.740356445E-2,-3.271942139E-1
3.930877685E0,1.586914062E-2,-7.765197754E-2,-3.058776855E-1
3.935821533E0,-8.621215820E-3,-8.723449707E-2,-2.984313965E-1
3.940734863E0,-1.715087891E-2,-7.977294922E-2,-3.101501465E-1
3.945648193E0,-1.394653320E-2,-8.403015137E-2,-3.325195312E-1
3.950561523E0,-2.033996582E-2,-1.341094971E-1,-3.474273682E-1
3.955505371E0,-6.402587891E-2,-2.523498535E-1,-3.016204834E-1
3.960418701E0,-1.087646484E-1,-3.439636230E-1,-2.164001465E-1
3.965332031E0,-1.108856201E-1,-3.418273926E-1,-1.279907227E-1
3.970275879E0,-8.425903320E-2,-2.938995361E-1,-4.489135742E-2
3.975189209E0,-5.017089844E-2,-2.608642578E-1,2.328491211E-2
3.980102539E0,-1.182556152E-2,-2.544860840E-1,6.056213379E-2
3.985046387E0,1.693725586E-2,-2.683258057E-1,6.483459473E-2
3.989959717E0,2.226257324E-2,-2.917633057E-1,4.779052734E-2
3.994873047E0,1.800537109E-2,-2.938995361E-1,2.647399902E-2
3.999786377E0,1.054382324E-2,-2.725830078E-1,9.429931641E-3
4.004730225E0,-1.068115234E-4,-2.374420166E-1,-2.288818359E-3
4.009643555E0,-1.075744629E-2,-2.086791992E-1,-1.080322266E-2
4.014556885E0,-2.461242676E-2,-1.852416992E-1,-1.719665527E-2
4.019500732E0,-3.419494629E-2,-1.692504883E-1,-2.252197266E-2
4.024414062E0,-4.270935059E-2,-1.554107666E-1,-2.784729004E-2
4.029327393E0,-4.270935059E-2,-1.383666992E-1,-3.210449219E-2
4.034240723E0,-4.058837891E-2,-1.255798340E-1,-4.170227051E-2
4.039154053E0,-3.631591797E-2,-1.149291992E-1,-5.128479004E-2
4.044097900E0,-3.419494629E-2,-1.149291992E-1,-5.874633789E-2
4.049011230E0,-3.419494629E-2,-1.245117188E-1,-6.193542480E-2
4.053924560E0,-3.099060059E-2,-1.266479492E-1,-6.407165527E-2
4.058868408E0,-3.845214844E-2,-1.479492188E-1,-6.407165527E-2
4.063781738E0,-4.484558105E-2,-1.703186035E-1,-6.619262695E-2
4.068695068E0,-4.910278320E-2,-1.735229492E-1,-6.939697266E-2
4.073638916E0,-5.017089844E-2,-1.756439209E-1,-6.619262695E-2
4.078552246E0,-4.910278320E-2,-1.767120361E-1,-6.407165527E-2
4.083465576E0,-5.123901367E-2,-1.820373535E-1,-5.874633789E-2
4.088378906E0,-5.656433105E-2,-1.958923340E-1,-4.595947266E-2
4.093322754E0,-7.147216797E-2,-2.097320557E-1,-3.637695312E-2
4.098236084E0,-8.958435059E-2,-2.225189209E-1,-2.572631836E-2
4.103179932E0,-1.013031006E-1,-2.108001709E-1,-1.400756836E-2
4.108093262E0,-1.066284180E-1,-1.873626709E-1,-1.220703125E-3
4.113006592E0,-1.183471680E-1,-1.767120361E-1,6.240844727E-3
4.117919922E0,-1.204833984E-1,-1.479492188E-1,2.221679688E-2
4.122833252E0,-1.076965332E-1,-1.032104492E-1,4.032897949E-2
4.127777100E0,-1.023712158E-1,-7.870483398E-2,5.630493164E-2
4.132690430E0,-9.916687012E-2,-6.166076660E-2,7.121276855E-2
4.137603760E0,-8.744812012E-2,-3.503417969E-2,8.613586426E-2
4.142547607E0,-7.040405273E-2,-1.480102539E-2,8.932495117E-2
4.147460937E0,-5.442810059E-2,-9.475708008E-3,8.081054688E-2
4.152404785E0,-4.698181152E-2,-1.052856445E-2,7.015991211E-2
4.157318115E0,-4.803466797E-2,-1.373291016E-2,5.949401855E-2
4.162231445E0,-4.803466797E-2,-6.271362305E-3,5.204772949E-2
4.167144775E0,-5.123901367E-2,6.515502930E-3,4.779052734E-2
4.172058105E0,-6.295776367E-2,1.396179199E-2,4.458618164E-2
4.177001953E0,-7.360839844E-2,2.674865723E-2,4.032897949E-2
4.181915283E0,-7.147216797E-2,3.953552246E-2,4.139709473E-2
4.186828613E0,-5.442810059E-2,5.871582031E-2,4.458618164E-2
4.191772461E0,-3.631591797E-2,7.469177246E-2,4.565429688E-2
4.196685791E0,-2.673339844E-2,7.469177246E-2,4.672241211E-2
4.201599121E0,-2.354431152E-2,7.148742676E-2,4.032897949E-2
4.206512451E0,-2.566528320E-2,8.001708984E-2,3.712463379E-2
4.211456299E0,-2.886962891E-2,8.853149414E-2,4.032897949E-2
4.216369629E0,-3.419494629E-2,9.173583984E-2,4.458618164E-2
4.221282959E0,-3.631591797E-2,9.599304199E-2,4.779052734E-2
4.226226807E0,-3.952026367E-2,1.055755615E-1,5.097961426E-2
4.231140137E0,-3.952026367E-2,1.130371094E-1,4.884338379E-2
4.236053467E0,-3.952026367E-2,1.226196289E-1,4.565429688E-2
4.240966797E0,-3.526306152E-2,1.322174072E-1,4.458618164E-2
4.245910644E0,-3.099060059E-2,1.407318115E-1,4.351806641E-2
4.250823975E0,-2.566528320E-2,1.471252441E-1,4.032897949E-2
4.255737305E0,-2.461242676E-2,1.545867920E-1,3.819274902E-2
4.260681152E0,-2.461242676E-2,1.609802246E-1,3.607177734E-2
4.265594482E0,-2.566528320E-2,1.652374268E-1,3.926086426E-2
4.270507812E0,-2.886962891E-2,1.705627441E-1,4.244995117E-2
4.275451660E0,-3.205871582E-2,1.748199463E-1,4.351806641E-2
4.280364990E0,-3.312683105E-2,1.748199463E-1,4.458618164E-2
4.285278320E0,-3.312683105E-2,1.758880615E-1,4.565429688E-2
4.290191650E0,-3.205871582E-2,1.716308594E-1,4.672241211E-2
4.295135498E0,-2.993774414E-2,1.663055420E-1,4.779052734E-2
4.300048828E0,-2.673339844E-2,1.631011963E-1,4.884338379E-2
4.304962158E0,-2.673339844E-2,1.620330811E-1,5.097961426E-2
4.309906006E0,-2.780151367E-2,1.599121094E-1,5.311584473E-2
4.314819336E0,-2.780151367E-2,1.588439941E-1,5.523681641E-2
4.319732666E0,-2.673339844E-2,1.588439941E-1,5.630493164E-2
4.324645996E0,-2.780151367E-2,1.599121094E-1,5.737304688E-2
4.329589844E0,-2.886962891E-2,1.599121094E-1,5.949401855E-2
4.334503174E0,-2.993774414E-2,1.620330811E-1,5.949401855E-2
4.339447021E0,-2.673339844E-2,1.620330811E-1,5.630493164E-2
4.344360351E0,-2.566528320E-2,1.588439941E-1,5.523681641E-2
4.349273682E0,-2.140808105E-2,1.535186768E-1,5.416870117E-2
4.354187012E0,-1.715087891E-2,1.492614746E-1,5.311584473E-2
4.359100342E0,-1.289367676E-2,1.460571289E-1,4.991149902E-2
4.364044189E0,-4.364013672E-3,1.417999268E-1,4.565429688E-2
4.368957519E0,3.097534180E-3,1.375427246E-1,4.565429688E-2
4.373870850E0,5.218505859E-3,1.322174072E-1,4.458618164E-2
4.378814697E0,9.490966797E-3,1.300811768E-1,4.244995117E-2
4.383728027E0,1.586914062E-2,1.258239746E-1,4.244995117E-2
4.388641357E0,2.014160156E-2,1.183624268E-1,3.926086426E-2
4.393585205E0,1.907348633E-2,1.162261963E-1,3.819274902E-2
4.398498535E0,2.119445801E-2,1.151733398E-1,3.607177734E-2
4.403411865E0,2.119445801E-2,1.130371094E-1,3.179931641E-2
4.408325195E0,2.119445801E-2,1.119689941E-1,2.647399902E-2
4.413269043E0,1.907348633E-2,1.098480225E-1,2.221679688E-2
4.418182373E0,1.800537109E-2,1.087799072E-1,2.008056641E-2
4.423095703E0,2.119445801E-2,1.066436768E-1,1.370239258E-2
4.428039551E0,2.439880371E-2,1.023864746E-1,7.308959961E-3
4.432952881E0,2.226257324E-2,9.812927246E-2,5.172729492E-3
4.437866211E0,2.119445801E-2,9.280395508E-2,1.983642578E-3
4.442779541E0,2.333068848E-2,9.066772461E-2,-3.356933594E-3
4.447723389E0,2.653503418E-2,8.534240723E-2,-6.546020508E-3
4.452636719E0,2.972412109E-2,8.108520508E-2,-7.614135742E-3
4.457550049E0,3.186035156E-2,8.108520508E-2,-9.735107422E-3
4.462493896E0,3.291320801E-2,8.213806152E-2,-7.614135742E-3
4.467407226E0,3.398132324E-2,8.320617676E-2,-5.477905273E-3
4.472320557E0,3.504943848E-2,8.853149414E-2,-3.356933594E-3
4.477264404E0,3.291320801E-2,9.280395508E-2,9.155273438E-4
4.482177734E0,3.079223633E-2,9.280395508E-2,3.036499023E-3
4.487091064E0,2.972412109E-2,9.385681152E-2,5.172729492E-3
4.492004394E0,2.865600586E-2,9.599304199E-2,6.240844727E-3
4.496948242E0,2.758789062E-2,9.599304199E-2,8.361816406E-3
4.501861572E0,2.653503418E-2,9.599304199E-2,1.156616211E-2
4.506774902E0,2.439880371E-2,9.280395508E-2,1.263427734E-2
4.511718750E0,1.907348633E-2,8.746337891E-2,1.475524902E-2
4.516632080E0,1.693725586E-2,8.108520508E-2,1.370239258E-2
4.521545410E0,1.374816895E-2,7.894897461E-2,1.156616211E-2
4.526458740E0,1.161193848E-2,7.469177246E-2,1.263427734E-2
4.531402588E0,9.490966797E-3,6.936645508E-2,1.263427734E-2
4.536315918E0,4.150390625E-3,6.723022461E-2,1.370239258E-2
4.541229248E0,3.097534180E-3,6.509399414E-2,1.475524902E-2
4.546173096E0,3.097534180E-3,6.297302246E-2,1.475524902E-2
4.551086426E0,4.150390625E-3,6.083679199E-2,1.263427734E-2
4.555999756E0,6.286621094E-3,5.976867676E-2,9.429931641E-3
4.560913086E0,1.268005371E-2,5.657958984E-2,1.156616211E-2
4.565856934E0,9.490966797E-3,5.657958984E-2,7.308959961E-3
4.570770264E0,1.268005371E-2,5.657958984E-2,5.172729492E-3
4.575683594E0,1.054382324E-2,5.657958984E-2,7.308959961E-3
4.580627441E0,9.490966797E-3,5.976867676E-2,5.172729492E-3
4.585540771E0,8.422851562E-3,6.404113770E-2,6.240844727E-3
4.590454101E0,4.150390625E-3,6.404113770E-2,7.308959961E-3
4.595367432E0,2.029418945E-3,6.297302246E-2,6.240844727E-3
4.600311279E0,-3.295898438E-3,6.190490723E-2,7.308959961E-3
4.605224609E0,-7.568359375E-3,5.871582031E-2,7.308959961E-3
4.610137939E0,-1.182556152E-2,5.764770508E-2,6.240844727E-3
4.615081787E0,-1.394653320E-2,5.551147461E-2,6.240844727E-3
4.619995117E0,-1.289367676E-2,5.337524414E-2,6.240844727E-3
4.624908447E0,-1.289367676E-2,4.911804199E-2,4.104614258E-3
4.629852295E0,-8.621215820E-3,4.592895508E-2,9.155273438E-4
4.634765625E0,-4.364013672E-3,4.272460938E-2,9.155273438E-4
4.639678955E0,-4.364013672E-3,3.739929199E-2,-3.356933594E-3
4.644592285E0,2.029418945E-3,2.995300293E-2,-1.187133789E-2
4.649536133E0,2.029418945E-3,2.249145508E-2,-1.400756836E-2
4.654449463E0,2.029418945E-3,1.716613770E-2,-1.506042480E-2
4.659362793E0,2.029418945E-3,1.609802246E-2,-1.826477051E-2
4.664306641E0,-3.295898438E-3,2.035522461E-2,-2.252197266E-2
4.669219971E0,-5.432128906E-3,2.142333984E-2,-2.359008789E-2
4.674133301E0,-5.432128906E-3,2.462768555E-2,-2.465820312E-2
4.679046631E0,-6.500244141E-3,2.462768555E-2,-2.252197266E-2
4.683990478E0,-9.689331055E-3,2.674865723E-2,-2.252197266E-2
4.688903809E0,-9.689331055E-3,2.674865723E-2,-2.465820312E-2
4.693817139E0,-5.432128906E-3,2.462768555E-2,-2.465820312E-2
4.698760986E0,-6.500244141E-3,2.249145508E-2,-2.359008789E-2
4.703674316E0,-7.568359375E-3,2.142333984E-2,-2.145385742E-2
4.708618164E0,-7.568359375E-3,1.928710938E-2,-1.719665527E-2
4.713531494E0,-5.432128906E-3,1.609802246E-2,-1.612854004E-2
4.718444824E0,-4.364013672E-3,1.396179199E-2,-1.506042480E-2
4.723358154E0,-2.227783203E-3,1.077270508E-2,-1.293945312E-2
4.728271484E0,2.029418945E-3,8.636474609E-3,-1.080322266E-2
4.733215332E0,5.218505859E-3,2.243041992E-3,-8.682250977E-3
4.738128662E0,9.490966797E-3,-9.460449219E-4,-6.546020508E-3
4.743041992E0,9.490966797E-3,-5.203247070E-3,-6.546020508E-3
4.747985840E0,9.490966797E-3,-7.339477539E-3,-6.546020508E-3
4.752899170E0,9.490966797E-3,-7.339477539E-3,-7.614135742E-3
4.757812500E0,1.054382324E-2,-9.475708008E-3,-7.614135742E-3
4.762725830E0,1.054382324E-2,-1.052856445E-2,-5.477905273E-3
4.767669678E0,1.161193848E-2,-1.052856445E-2,-8.682250977E-3
4.772583008E0,1.161193848E-2,-1.159667969E-2,-1.080322266E-2
4.777496338E0,1.161193848E-2,-1.266479492E-2,-1.293945312E-2
4.782440185E0,1.586914062E-2,-1.480102539E-2,-1.506042480E-2
4.787353516E0,1.374816895E-2,-1.905822754E-2,-1.719665527E-2
4.792266846E0,1.161193848E-2,-2.117919922E-2,-1.933288574E-2
4.797210693E0,1.161193848E-2,-2.438354492E-2,-1.719665527E-2
4.802124023E0,1.268005371E-2,-2.331542969E-2,-1.826477051E-2
4.807037353E0,9.490966797E-3,-2.012634277E-2,-1.933288574E-2
4.811950684E0,8.422851562E-3,-2.012634277E-2,-2.040100098E-2
4.816864014E0,8.422851562E-3,-2.012634277E-2,-1.826477051E-2
4.821807861E0,9.490966797E-3,-2.012634277E-2,-1.933288574E-2
4.826721191E0,9.490966797E-3,-2.117919922E-2,-1.933288574E-2
4.831665039E0,8.422851562E-3,-2.117919922E-2,-1.612854004E-2
4.836578369E0,1.161193848E-2,-2.117919922E-2,-1.612854004E-2
4.841491699E0,1.374816895E-2,-2.012634277E-2,-1.612854004E-2
4.846435547E0,1.481628418E-2,-2.224731445E-2,-1.293945312E-2
4.851348877E0,1.481628418E-2,-1.905822754E-2,-9.735107422E-3
4.856262207E0,1.374816895E-2,-1.373291016E-2,-9.735107422E-3
4.861175537E0,1.054382324E-2,-9.475708008E-3,-7.614135742E-3
4.866119385E0,1.054382324E-2,-3.082275391E-3,-7.614135742E-3
4.871032715E0,1.054382324E-2,4.379272461E-3,-8.682250977E-3
4.875946045E0,8.422851562E-3,7.583618164E-3,-7.614135742E-3
4.880859375E0,8.422851562E-3,7.583618164E-3,-7.614135742E-3
4.885803223E0,7.354736328E-3,6.515502930E-3,-1.080322266E-2
4.890716553E0,8.422851562E-3,4.379272461E-3,-1.187133789E-2
4.895629883E0,9.490966797E-3,1.220703125E-4,-1.400756836E-2
4.900573730E0,9.490966797E-3,-3.082275391E-3,-1.400756836E-2
4.905487060E0,6.286621094E-3,-5.203247070E-3,-1.506042480E-2
4.910400391E0,6.286621094E-3,-7.339477539E-3,-1.400756836E-2
4.915344238E0,6.286621094E-3,-4.135131836E-3,-1.293945312E-2
4.920257568E0,8.422851562E-3,-6.271362305E-3,-1.400756836E-2
4.925170898E0,5.218505859E-3,-6.271362305E-3,-1.400756836E-2
4.930084228E0,3.097534180E-3,-4.135131836E-3,-1.187133789E-2
4.935028076E0,4.150390625E-3,-3.082275391E-3,-1.080322266E-2
4.939941406E0,6.286621094E-3,-3.082275391E-3,-1.293945312E-2
4.944854736E0,7.354736328E-3,-3.082275391E-3,-1.187133789E-2
4.949798584E0,8.422851562E-3,-2.014160156E-3,-8.682250977E-3
4.954711914E0,7.354736328E-3,-5.203247070E-3,-9.735107422E-3
4.959625244E0,5.218505859E-3,-5.203247070E-3,-7.614135742E-3
4.964538574E0,4.150390625E-3,-9.475708008E-3,-6.546020508E-3
4.969482422E0,5.218505859E-3,-1.159667969E-2,-4.409790039E-3
4.974395752E0,2.029418945E-3,-1.373291016E-2,-3.356933594E-3
4.979309082E0,2.029418945E-3,-1.373291016E-2,-2.288818359E-3
4.984252930E0,2.029418945E-3,-1.692199707E-2,-2.288818359E-3
4.989166260E0,-1.068115234E-4,-2.117919922E-2,-1.220703125E-3
4.994079590E0,-1.174926758E-3,-2.438354492E-2,-1.525878906E-4
4.998992920E0,2.029418945E-3,-2.438354492E-2,-1.525878906E-4
5.003936768E0,-1.068115234E-4,-2.545166016E-2,-1.220703125E-3
5.008850098E0,9.613037109E-4,-2.651977539E-2,9.155273438E-4
5.013763428E0,4.150390625E-3,-2.864074707E-2,-1.525878906E-4
5.018676758E0,3.097534180E-3,-3.077697754E-2,-1.220703125E-3
5.023620605E0,1.161193848E-2,-2.970886230E-2,-1.220703125E-3
5.028564453E0,1.268005371E-2,-2.864074707E-2,-1.220703125E-3
5.033477783E0,1.161193848E-2,-2.651977539E-2,-1.220703125E-3
5.038391113E0,1.481628418E-2,-2.545166016E-2,-4.409790039E-3
5.043304443E0,1.800537109E-2,-2.757263184E-2,-4.409790039E-3
5.048217773E0,1.800537109E-2,-2.757263184E-2,-7.614135742E-3
5.053161621E0,1.907348633E-2,-2.545166016E-2,-8.682250977E-3
5.058074951E0,2.014160156E-2,-2.757263184E-2,-7.614135742E-3
5.062988281E0,2.119445801E-2,-3.184509277E-2,-8.682250977E-3
5.067932129E0,2.014160156E-2,-3.289794922E-2,-1.080322266E-2
5.072845459E0,2.226257324E-2,-3.289794922E-2,-1.293945312E-2
5.077758789E0,2.226257324E-2,-3.396606445E-2,-1.400756836E-2
5.082702637E0,2.119445801E-2,-3.289794922E-2,-1.506042480E-2
5.087615967E0,1.907348633E-2,-2.970886230E-2,-1.612854004E-2
5.092529297E0,1.693725586E-2,-2.970886230E-2,-1.719665527E-2
5.097442627E0,1.586914062E-2,-2.651977539E-2,-1.933288574E-2
5.102386475E0,1.268005371E-2,-2.545166016E-2,-1.826477051E-2
5.107299805E0,1.161193848E-2,-2.757263184E-2,-1.612854004E-2
5.112213135E0,1.161193848E-2,-2.864074707E-2,-1.826477051E-2
5.117156982E0,1.268005371E-2,-2.970886230E-2,-1.719665527E-2
5.122070312E0,1.054382324E-2,-3.077697754E-2,-1.612854004E-2
5.126983643E0,7.354736328E-3,-3.184509277E-2,-1.719665527E-2
5.131896973E0,7.354736328E-3,-3.717041016E-2,-1.719665527E-2
5.136840820E0,8.422851562E-3,-4.035949707E-2,-1.400756836E-2
5.141754150E0,8.422851562E-3,-4.356384277E-2,-1.400756836E-2
5.146667480E0,6.286621094E-3,-4.568481445E-2,-1.187133789E-2
5.151611328E0,5.218505859E-3,-4.356384277E-2,-9.735107422E-3
5.156524658E0,4.150390625E-3,-4.249572754E-2,-8.682250977E-3
5.161437988E0,4.150390625E-3,-4.142761230E-2,-1.187133789E-2
5.166381836E0,4.150390625E-3,-4.035949707E-2,-1.506042480E-2
5.171295166E0,3.097534180E-3,-4.142761230E-2,-1.293945312E-2
5.176208496E0,6.286621094E-3,-3.610229492E-2,-1.187133789E-2
5.181121826E0,6.286621094E-3,-3.077697754E-2,-1.400756836E-2
5.186065674E0,7.354736328E-3,-2.757263184E-2,-1.400756836E-2
5.190979004E0,8.422851562E-3,-2.012634277E-2,-1.080322266E-2
5.195892334E0,1.054382324E-2,-1.159667969E-2,-8.682250977E-3
5.200836182E0,1.374816895E-2,-2.014160156E-3,-7.614135742E-3
5.205749512E0,1.161193848E-2,6.515502930E-3,-4.409790039E-3
5.210662842E0,1.268005371E-2,1.609802246E-2,-3.356933594E-3
5.215576172E0,1.481628418E-2,2.781677246E-2,-2.288818359E-3
5.220520019E0,1.586914062E-2,3.846740723E-2,-1.525878906E-4
5.225433350E0,1.693725586E-2,4.804992676E-2,9.155273438E-4
5.230346680E0,1.907348633E-2,6.083679199E-2,9.155273438E-4
5.235290527E0,2.014160156E-2,7.255554199E-2,1.983642578E-3
5.240203857E0,2.226257324E-2,8.746337891E-2,1.983642578E-3
5.245117187E0,2.546691895E-2,1.023864746E-1,3.036499023E-3
5.250061035E0,2.758789062E-2,1.141052246E-1,4.104614258E-3
5.254974365E0,2.972412109E-2,1.268920898E-1,5.172729492E-3
5.259887695E0,3.504943848E-2,1.407318115E-1,5.172729492E-3
5.264801025E0,3.823852539E-2,1.535186768E-1,6.240844727E-3
5.269744873E0,4.144287109E-2,1.631011963E-1,8.361816406E-3
5.274658203E0,4.463195801E-2,1.748199463E-1,1.475524902E-2
5.279571533E0,4.676818848E-2,1.865386963E-1,1.689147949E-2
5.284484863E0,4.890441895E-2,1.982574463E-1,1.582336426E-2
5.289428711E0,4.783630371E-2,2.099761963E-1,1.689147949E-2
5.294342041E0,5.102539062E-2,2.227630615E-1,1.902770996E-2
5.299255371E0,5.209350586E-2,2.344818115E-1,1.902770996E-2
5.304199219E0,5.422973633E-2,2.387390137E-1,1.582336426E-2
5.309112549E0,5.316162109E-2,2.483215332E-1,1.263427734E-2
5.314025879E0,5.422973633E-2,2.536468506E-1,1.475524902E-2
5.318939209E0,5.528259277E-2,2.579193115E-1,1.370239258E-2
5.323883057E0,5.741882324E-2,2.642974854E-1,1.263427734E-2
5.328796387E0,5.741882324E-2,2.685699463E-1,1.263427734E-2
5.333709717E0,5.741882324E-2,2.770843506E-1,8.361816406E-3
5.338653564E0,6.167602539E-2,2.813415527E-1,5.172729492E-3
5.343566894E0,6.488037109E-2,2.845458984E-1,4.104614258E-3
5.348480225E0,6.488037109E-2,2.898712158E-1,6.240844727E-3
5.353424072E0,6.594848633E-2,2.941284180E-1,7.308959961E-3
5.358337402E0,7.232666016E-2,2.951965332E-1,7.308959961E-3
5.363250732E0,7.766723633E-2,2.920074463E-1,1.475524902E-2
5.368194580E0,7.766723633E-2,2.920074463E-1,1.475524902E-2
5.373107910E0,7.659912109E-2,2.909393311E-1,1.475524902E-2
5.378021240E0,7.872009277E-2,2.898712158E-1,1.902770996E-2
5.382934570E0,8.085632324E-2,2.866821289E-1,2.328491211E-2
5.387878418E0,8.299255371E-2,2.845458984E-1,2.754211426E-2
5.392791748E0,8.511352539E-2,2.792205811E-1,2.861022949E-2
5.397705078E0,8.618164062E-2,2.738952637E-1,3.500366211E-2
5.402648926E0,8.724975586E-2,2.696380615E-1,4.032897949E-2
5.407562256E0,8.618164062E-2,2.600402832E-1,3.819274902E-2
5.412475586E0,8.831787109E-2,2.493896484E-1,3.819274902E-2
5.417388916E0,8.831787109E-2,2.398071289E-1,4.351806641E-2
5.422332764E0,8.724975586E-2,2.312774658E-1,4.672241211E-2
5.427246094E0,8.724975586E-2,2.259521484E-1,4.458618164E-2
5.432159424E0,8.724975586E-2,2.238311768E-1,4.032897949E-2
5.437103271E0,8.724975586E-2,2.227630615E-1,4.032897949E-2
5.442016601E0,9.043884277E-2,2.302093506E-1,4.244995117E-2
5.446929932E0,9.257507324E-2,2.323455811E-1,3.926086426E-2
5.451873779E0,9.364318848E-2,2.366027832E-1,4.139709473E-2
5.456787109E0,9.790039062E-2,2.408752441E-1,4.032897949E-2
5.461700439E0,1.010894775E-1,2.398071289E-1,4.139709473E-2
5.466613769E0,1.085510254E-1,2.408752441E-1,4.032897949E-2
5.471557617E0,1.149444580E-1,2.408752441E-1,4.244995117E-2
5.476470947E0,1.149444580E-1,2.387390137E-1,4.565429688E-2
5.481384277E0,1.192016602E-1,2.429962158E-1,4.458618164E-2
5.486328125E0,1.255950928E-1,2.493896484E-1,4.458618164E-2
5.491241455E0,1.287994385E-1,2.525939941E-1,4.672241211E-2
5.496154785E0,1.330566406E-1,2.525939941E-1,4.884338379E-2
5.501068115E0,1.351776123E-1,2.536468506E-1,5.311584473E-2
5.506011963E0,1.394500732E-1,2.579193115E-1,5.523681641E-2
5.510925293E0,1.394500732E-1,2.642974854E-1,5.844116211E-2
5.515838623E0,1.405181885E-1,2.728271484E-1,6.269836426E-2
5.520782471E0,1.383819580E-1,2.813415527E-1,6.163024902E-2
5.525695801E0,1.362457275E-1,2.877349854E-1,6.588745117E-2
5.530609131E0,1.341247559E-1,2.898712158E-1,6.588745117E-2
5.535552978E0,1.362457275E-1,2.888031006E-1,6.483459473E-2
5.540466309E0,1.394500732E-1,2.824096680E-1,6.376647949E-2
5.545379639E0,1.415710449E-1,2.717590332E-1,6.056213379E-2
5.550292969E0,1.426391602E-1,2.642974854E-1,5.844116211E-2
5.555236816E0,1.437072754E-1,2.547149658E-1,5.523681641E-2
5.560150146E0,1.415710449E-1,2.419281006E-1,5.311584473E-2
5.565063476E0,1.394500732E-1,2.270202637E-1,4.991149902E-2
5.570007324E0,1.383819580E-1,2.185058594E-1,5.204772949E-2
5.574920654E0,1.319885254E-1,2.089080811E-1,5.523681641E-2
5.579833984E0,1.287994385E-1,1.961212158E-1,5.630493164E-2
5.584747314E0,1.266632080E-1,1.844024658E-1,5.523681641E-2
5.589691162E0,1.245269775E-1,1.737518311E-1,5.844116211E-2
5.594604492E0,1.202697754E-1,1.609802246E-1,6.269836426E-2
5.599517822E0,1.149444580E-1,1.481933594E-1,6.163024902E-2
5.604461670E0,1.149444580E-1,1.343383789E-1,5.416870117E-2
5.609375000E0,1.128082275E-1,1.247558594E-1,4.884338379E-2
5.614288330E0,1.096191406E-1,1.258239746E-1,4.884338379E-2
5.619201660E0,1.074829102E-1,1.236877441E-1,4.884338379E-2
5.624145508E0,1.021575928E-1,1.236877441E-1,4.139709473E-2
5.629058838E0,1.032257080E-1,1.215667725E-1,1.156616211E-2
5.633972168E0,1.074829102E-1,1.300811768E-1,-1.293945312E-2
5.638885498E0,1.149444580E-1,1.620330811E-1,-1.187133789E-2
5.643829346E0,1.117553711E-1,1.631011963E-1,-1.612854004E-2
5.648742676E0,1.032257080E-1,1.354064941E-1,-2.784729004E-2
5.653656006E0,9.896850586E-2,1.194305420E-1,-2.572631836E-2
5.658599853E0,1.010894775E-1,1.141052246E-1,-2.145385742E-2
5.663513184E0,1.032257080E-1,9.492492676E-2,-2.784729004E-2
5.668426514E0,1.021575928E-1,6.404113770E-2,-4.063415527E-2
5.673339844E0,1.096191406E-1,3.527832031E-2,-5.874633789E-2
5.678283691E0,1.106872559E-1,1.716613770E-2,-7.153320312E-2
5.683197021E0,1.106872559E-1,-9.460449219E-4,-7.579040527E-2
5.688140869E0,1.106872559E-1,-2.545166016E-2,-7.579040527E-2
5.693054199E0,1.117553711E-1,-5.633544922E-2,-7.258605957E-2
5.697967529E0,1.106872559E-1,-9.574890137E-2,-7.472229004E-2
5.702880859E0,1.106872559E-1,-1.277160645E-1,-7.046508789E-2
5.707824707E0,1.138763428E-1,-1.543426514E-1,-7.046508789E-2
5.712738037E0,1.213378906E-1,-1.735229492E-1,-7.365417480E-2
5.717651367E0,1.213378906E-1,-1.862945557E-1,-6.300354004E-2
5.722564697E0,1.128082275E-1,-1.873626709E-1,-3.637695312E-2
5.727508545E0,9.790039062E-2,-1.809692383E-1,-8.682250977E-3
5.732421875E0,8.192443848E-2,-1.799163818E-1,1.582336426E-2
5.737335205E0,7.127380371E-2,-1.799163818E-1,2.540588379E-2
5.742248535E0,7.127380371E-2,-1.735229492E-1,2.221679688E-2
5.747192383E0,7.339477539E-2,-1.660614014E-1,1.475524902E-2
5.752105713E0,7.339477539E-2,-1.618041992E-1,1.689147949E-2
5.757019043E0,7.127380371E-2,-1.735229492E-1,2.008056641E-2
5.761962891E0,7.659912109E-2,-1.873626709E-1,1.582336426E-2
5.766876221E0,8.404541016E-2,-1.884307861E-1,7.308959961E-3
5.771789551E0,8.511352539E-2,-1.926879883E-1,3.036499023E-3
5.776733398E0,8.085632324E-2,-2.001495361E-1,7.308959961E-3
5.781646728E0,7.766723633E-2,-2.054748535E-1,1.263427734E-2
5.786560059E0,6.806945801E-2,-2.129364014E-1,-4.409790039E-3
5.791473389E0,4.783630371E-2,-2.171936035E-1,-1.187133789E-2
5.796417236E0,3.186035156E-2,-2.267761230E-1,-2.359008789E-2
5.801330566E0,2.546691895E-2,-2.267761230E-1,-4.382324219E-2
5.806243896E0,2.865600586E-2,-2.140045166E-1,-4.170227051E-2
5.811187744E0,2.226257324E-2,-1.926879883E-1,-2.359008789E-2
5.816101074E0,-2.227783203E-3,-1.639251709E-1,-5.477905273E-3
5.821014404E0,-1.821899414E-2,-1.671295166E-1,-2.252197266E-2
5.825927734E0,-6.500244141E-3,-1.756439209E-1,-4.809570312E-2
5.830871582E0,1.800537109E-2,-1.575469971E-1,-5.874633789E-2
5.835784912E0,3.186035156E-2,-1.436920166E-1,-6.086730957E-2
5.840698242E0,3.823852539E-2,-1.585998535E-1,-7.365417480E-2
5.845642090E0,4.676818848E-2,-1.703186035E-1,-9.390258789E-2
5.850555420E0,6.700134277E-2,-1.543426514E-1,-1.013488770E-1
5.855468750E0,8.618164062E-2,-1.319732666E-1,-9.176635742E-2
5.860412598E0,9.043884277E-2,-1.383666992E-1,-8.644104004E-2
5.865325928E0,7.872009277E-2,-1.820373535E-1,-9.176635742E-2
5.870239258E0,8.085632324E-2,-1.862945557E-1,-1.119995117E-1
5.875152588E0,9.150695801E-2,-1.681976318E-1,-1.269226074E-1
5.880096435E0,1.000366211E-1,-1.628723145E-1,-1.333160400E-1
5.885009766E0,1.085510254E-1,-1.585998535E-1,-1.258544922E-1
5.889923096E0,1.106872559E-1,-1.585998535E-1,-1.045532227E-1
5.894836426E0,1.064300537E-1,-1.724548340E-1,-9.390258789E-2
5.899749756E0,1.053619385E-1,-1.862945557E-1,-9.176635742E-2
5.904693603E0,1.106872559E-1,-1.926879883E-1,-1.141357422E-1
5.909637451E0,1.213378906E-1,-1.916351318E-1,-1.407623291E-1
5.914550781E0,1.277313232E-1,-1.937561035E-1,-1.514282227E-1
5.919464111E0,1.181335449E-1,-1.958923340E-1,-1.418304443E-1
5.924377441E0,9.683227539E-2,-2.033538818E-1,-1.322479248E-1
5.929290771E0,7.978820801E-2,-2.161254883E-1,-1.450347900E-1
5.934204101E0,6.700134277E-2,-2.289123535E-1,-1.599426270E-1
5.939117432E0,6.062316895E-2,-2.353057861E-1,-1.503601074E-1
5.944061279E0,4.570007324E-2,-2.214508057E-1,-1.119995117E-1
5.949005127E0,2.333068848E-2,-1.916351318E-1,-4.702758789E-2
5.953918457E0,8.422851562E-3,-1.660614014E-1,-6.546020508E-3
5.958831787E0,-1.068115234E-4,-1.618041992E-1,5.172729492E-3
5.963745117E0,9.613037109E-4,-1.809692383E-1,-3.356933594E-3
5.968688965E0,1.586914062E-2,-2.001495361E-1,-6.546020508E-3
5.973602295E0,4.144287109E-2,-2.065429688E-1,-9.735107422E-3
5.978546143E0,6.381225586E-2,-1.990814209E-1,-1.080322266E-2
5.983459473E0,7.232666016E-2,-1.884307861E-1,-1.080322266E-2
5.988372803E0,7.232666016E-2,-1.799163818E-1,-1.826477051E-2
5.993286133E0,7.978820801E-2,-1.554107666E-1,-1.400756836E-2
5.998229980E0,8.831787109E-2,-1.383666992E-1,-8.682250977E-3
6.003143310E0,8.937072754E-2,-1.298370361E-1,-4.409790039E-3
6.008056641E0,8.831787109E-2,-1.202545166E-1,-1.525878906E-4
6.013000488E0,9.043884277E-2,-1.042785645E-1,5.172729492E-3
6.017913818E0,9.790039062E-2,-8.935546875E-2,1.156616211E-2
6.022827148E0,1.032257080E-1,-8.830261230E-2,1.689147949E-2
6.027770996E0,1.117553711E-1,-8.084106445E-2,2.435302734E-2
6.032684326E0,1.117553711E-1,-7.658386230E-2,2.861022949E-2
6.037597656E0,1.096191406E-1,-8.297729492E-2,3.074645996E-2
6.042510986E0,1.064300537E-1,-8.723449707E-2,3.074645996E-2
6.047454834E0,1.074829102E-1,-9.042358398E-2,2.967834473E-2
6.052368164E0,1.021575928E-1,-9.255981445E-2,3.074645996E-2
6.057281494E0,9.576416016E-2,-9.469604492E-2,3.500366211E-2
6.062225342E0,8.831787109E-2,-9.469604492E-2,3.819274902E-2
6.067138672E0,8.404541016E-2,-1.000213623E-1,3.393554688E-2
6.072052002E0,8.085632324E-2,-1.074676514E-1,2.647399902E-2
6.076965332E0,8.192443848E-2,-1.096038818E-1,1.689147949E-2
6.081909180E0,8.085632324E-2,-1.096038818E-1,7.308959961E-3
6.086822510E0,7.872009277E-2,-1.106719971E-1,-2.288818359E-3
6.091735840E0,7.872009277E-2,-1.138610840E-1,-1.293945312E-2
6.096679687E0,7.659912109E-2,-1.170654297E-1,-2.465820312E-2
6.101593018E0,7.446289062E-2,-1.191864014E-1,-3.530883789E-2
6.106506348E0,6.700134277E-2,-1.149291992E-1,-4.382324219E-2
6.111419678E0,6.062316895E-2,-1.053466797E-1,-5.235290527E-2
6.116363525E0,5.528259277E-2,-8.935546875E-2,-5.661010742E-2
6.121276855E0,4.995727539E-2,-7.125854492E-2,-5.767822266E-2
6.126190185E0,4.676818848E-2,-5.207824707E-2,-5.661010742E-2
6.131134033E0,3.930664062E-2,-3.184509277E-2,-5.235290527E-2
6.136047363E0,3.504943848E-2,-1.266479492E-2,-4.809570312E-2
6.140960693E0,3.186035156E-2,3.311157227E-3,-4.063415527E-2
6.145904541E0,2.865600586E-2,2.035522461E-2,-3.105163574E-2
6.150817871E0,2.439880371E-2,3.207397461E-2,-2.998352051E-2
6.155731201E0,2.014160156E-2,4.486083984E-2,-2.359008789E-2
6.160644531E0,1.481628418E-2,5.125427246E-2,-1.826477051E-2
6.165588379E0,1.161193848E-2,6.404113770E-2,-1.400756836E-2
6.170501709E0,6.286621094E-3,7.255554199E-2,-3.356933594E-3
6.175415039E0,-1.068115234E-4,7.362365723E-2,7.308959961E-3
6.180358887E0,-9.689331055E-3,7.681274414E-2,1.370239258E-2
6.185272217E0,-1.289367676E-2,7.469177246E-2,2.328491211E-2
6.190185547E0,-2.033996582E-2,6.616210938E-2,3.500366211E-2
6.195098877E0,-2.780151367E-2,5.976867676E-2,4.244995117E-2
6.200042725E0,-3.312683105E-2,5.337524414E-2,5.097961426E-2
6.204956055E0,-3.845214844E-2,4.699707031E-2,6.163024902E-2
6.209869385E0,-4.591369629E-2,4.486083984E-2,6.909179688E-2
6.214813232E0,-5.442810059E-2,4.379272461E-2,7.653808594E-2
6.219726562E0,-5.975341797E-2,4.167175293E-2,7.867431641E-2
6.224639893E0,-6.082153320E-2,4.272460938E-2,7.334899902E-2
6.229553223E0,-5.870056152E-2,4.699707031E-2,7.121276855E-2
6.234497070E0,-5.549621582E-2,5.018615723E-2,6.695556641E-2
6.239440918E0,-5.123901367E-2,5.551147461E-2,6.376647949E-2
6.244354248E0,-5.017089844E-2,5.871582031E-2,5.949401855E-2
6.249267578E0,-4.698181152E-2,6.829833984E-2,4.991149902E-2
6.254211426E0,-5.017089844E-2,7.469177246E-2,3.926086426E-2
6.259124756E0,-5.335998535E-2,7.469177246E-2,2.754211426E-2
6.264038086E0,-5.230712891E-2,7.788085938E-2,1.902770996E-2
6.268951416E0,-5.549621582E-2,8.534240723E-2,1.795959473E-2
6.273864746E0,-5.975341797E-2,9.492492676E-2,1.795959473E-2
6.278778076E0,-6.295776367E-2,1.013183594E-1,2.114868164E-2
6.283721924E0,-6.828308105E-2,1.045227051E-1,2.221679688E-2
6.288635254E0,-6.935119629E-2,1.087799072E-1,1.263427734E-2
6.293548584E0,-6.828308105E-2,1.109008789E-1,1.983642578E-3
6.298492432E0,-6.507873535E-2,1.109008789E-1,-3.356933594E-3
6.303405762E0,-6.082153320E-2,1.151733398E-1,-4.409790039E-3
6.308319092E0,-5.549621582E-2,1.204986572E-1,-7.614135742E-3
6.313232422E0,-5.230712891E-2,1.236877441E-1,-8.682250977E-3
6.318176269E0,-5.230712891E-2,1.258239746E-1,-5.477905273E-3
6.323089600E0,-5.123901367E-2,1.311492920E-1,3.036499023E-3
6.328033447E0,-5.549621582E-2,1.354064941E-1,1.156616211E-2
6.332946777E0,-6.721496582E-2,1.375427246E-1,2.221679688E-2
6.337860107E0,-7.786560059E-2,1.290130615E-1,2.114868164E-2
6.342773437E0,-8.532714844E-2,1.130371094E-1,1.370239258E-2
6.347717285E0,-9.065246582E-2,1.013183594E-1,4.104614258E-3
6.352630615E0,-8.958435059E-2,8.641052246E-2,-8.682250977E-3
6.357543945E0,-9.278869629E-2,6.723022461E-2,-1.612854004E-2
6.362487793E0,-9.065246582E-2,4.060363770E-2,-2.465820312E-2
6.367401123E0,-9.172058105E-2,1.609802246E-2,-2.784729004E-2
6.372314453E0,-9.065246582E-2,-9.460449219E-4,-2.465820312E-2
6.377227783E0,-8.744812012E-2,-1.799011230E-2,-2.677917480E-2
6.382171631E0,-8.532714844E-2,-3.503417969E-2,-2.891540527E-2
6.387084961E0,-8.106994629E-2,-4.142761230E-2,-3.105163574E-2
6.391998291E0,-7.467651367E-2,-4.356384277E-2,-2.252197266E-2
6.396942139E0,-6.828308105E-2,-4.782104492E-2,-1.293945312E-2
6.401855469E0,-6.828308105E-2,-5.421447754E-2,-5.477905273E-3
6.406768799E0,-6.188964844E-2,-6.272888184E-2,1.983642578E-3
6.411682129E0,-5.230712891E-2,-7.019042969E-2,7.308959961E-3
6.416625976E0,-4.270935059E-2,-6.912231445E-2,1.795959473E-2
6.421539307E0,-3.845214844E-2,-7.551574707E-2,2.221679688E-2
6.426452637E0,-3.419494629E-2,-7.551574707E-2,2.328491211E-2
6.431396484E0,-2.993774414E-2,-6.912231445E-2,2.435302734E-2
6.436309814E0,-2.780151367E-2,-6.060791016E-2,2.861022949E-2
6.441223144E0,-2.780151367E-2,-5.314636230E-2,3.926086426E-2
6.446136475E0,-2.566528320E-2,-4.568481445E-2,4.672241211E-2
6.451080322E0,-2.461242676E-2,-4.142761230E-2,4.458618164E-2
6.455993652E0,-1.927185059E-2,-3.077697754E-2,4.672241211E-2
6.460906982E0,-1.289367676E-2,-1.692199707E-2,4.458618164E-2
6.465850830E0,-5.432128906E-3,-1.373291016E-2,4.779052734E-2
6.470764160E0,3.097534180E-3,-1.480102539E-2,4.672241211E-2
6.475677490E0,-1.174926758E-3,-1.266479492E-2,4.991149902E-2
6.480621338E0,-7.568359375E-3,-7.339477539E-3,5.844116211E-2
6.485534668E0,-1.182556152E-2,-4.135131836E-3,5.097961426E-2
6.490447998E0,-1.715087891E-2,6.515502930E-3,4.139709473E-2
6.495361328E0,-2.247619629E-2,2.035522461E-2,3.286743164E-2
6.500305176E0,-2.461242676E-2,2.888488770E-2,2.328491211E-2
6.505218506E0,-2.566528320E-2,3.421020508E-2,2.221679688E-2
6.510131836E0,-2.461242676E-2,2.781677246E-2,1.795959473E-2
6.515075684E0,-2.140808105E-2,1.716613770E-2,1.263427734E-2
6.519989014E0,-1.394653320E-2,8.636474609E-3,9.429931641E-3
6.524902344E0,-8.621215820E-3,3.311157227E-3,4.104614258E-3
6.529815674E0,-7.568359375E-3,-2.014160156E-3,-1.525878906E-4
6.534759521E0,-5.432128906E-3,-2.014160156E-3,-1.220703125E-3
6.539672851E0,-4.364013672E-3,6.515502930E-3,-1.525878906E-4
6.544586182E0,-8.621215820E-3,1.077270508E-2,1.983642578E-3
6.549530029E0,-1.289367676E-2,1.928710938E-2,6.240844727E-3
6.554443359E0,-1.394653320E-2,2.355957031E-2,8.361816406E-3
6.559356689E0,-1.394653320E-2,2.462768555E-2,9.429931641E-3
6.564270019E0,-1.182556152E-2,2.249145508E-2,1.049804688E-2
6.569213867E0,-6.500244141E-3,1.396179199E-2,1.049804688E-2
6.574127197E0,-3.295898438E-3,2.243041992E-3,6.240844727E-3
6.579040527E0,-1.174926758E-3,-1.266479492E-2,5.172729492E-3
6.583984375E0,2.029418945E-3,-2.224731445E-2,3.036499023E-3
6.588897705E0,2.029418945E-3,-3.184509277E-2,1.983642578E-3
6.593788941E0,-1.068115234E-4,-4.142761230E-2,9.155273438E-4
6.598732789E0,-2.227783203E-3,-4.994201660E-2,1.983642578E-3
6.603646119E0,-3.295898438E-3,-5.953979492E-2,1.983642578E-3
6.608559449E0,-3.295898438E-3,-7.019042969E-2,9.155273438E-4
6.613472779E0,-5.432128906E-3,-7.765197754E-2,-1.525878906E-4
6.618416627E0,-9.689331055E-3,-8.723449707E-2,-3.356933594E-3
6.623329957E0,-1.501464844E-2,-9.681701660E-2,-5.477905273E-3
6.628243287E0,-1.821899414E-2,-1.021423340E-1,-6.546020508E-3
6.633156617E0,-1.821899414E-2,-1.042785645E-1,-1.080322266E-2
6.638100465E0,-2.140808105E-2,-1.042785645E-1,-1.187133789E-2
6.643013795E0,-2.354431152E-2,-1.021423340E-1,-1.187133789E-2
6.647927125E0,-2.247619629E-2,-9.895324707E-2,-8.682250977E-3
6.652870972E0,-2.354431152E-2,-9.255981445E-2,-5.477905273E-3
6.657784302E0,-2.673339844E-2,-8.723449707E-2,-1.220703125E-3
6.662697632E0,-2.780151367E-2,-7.765197754E-2,9.155273438E-4
6.667610963E0,-2.780151367E-2,-6.698608398E-2,-1.525878906E-4
6.672554810E0,-2.673339844E-2,-5.740356445E-2,4.104614258E-3
6.677468140E0,-2.780151367E-2,-4.675292969E-2,4.104614258E-3
6.682381470E0,-2.886962891E-2,-4.142761230E-2,4.104614258E-3
6.687325318E0,-2.780151367E-2,-3.717041016E-2,6.240844727E-3
6.692238648E0,-2.461242676E-2,-3.184509277E-2,4.104614258E-3
6.697151978E0,-2.140808105E-2,-2.970886230E-2,1.983642578E-3
6.702095826E0,-1.927185059E-2,-2.757263184E-2,-1.220703125E-3
6.707009156E0,-1.608276367E-2,-2.545166016E-2,-4.409790039E-3
6.711922486E0,-1.075744629E-2,-2.438354492E-2,-4.409790039E-3
6.716835816E0,-9.689331055E-3,-2.438354492E-2,-3.356933594E-3
6.721779664E0,-6.500244141E-3,-2.651977539E-2,-5.477905273E-3
6.726692994E0,-6.500244141E-3,-2.651977539E-2,-6.546020508E-3
6.731606324E0,-7.568359375E-3,-2.651977539E-2,-8.682250977E-3
6.736550172E0,-6.500244141E-3,-2.651977539E-2,-1.080322266E-2
6.741463502E0,-6.500244141E-3,-2.864074707E-2,-1.506042480E-2
6.746376832E0,-8.621215820E-3,-2.970886230E-2,-1.826477051E-2
6.751290162E0,-9.689331055E-3,-3.077697754E-2,-1.719665527E-2
6.756234009E0,-1.394653320E-2,-3.503417969E-2,-1.612854004E-2
6.761147340E0,-1.608276367E-2,-4.142761230E-2,-1.933288574E-2
6.766060670E0,-1.821899414E-2,-4.461669922E-2,-1.826477051E-2
6.771004517E0,-2.140808105E-2,-4.782104492E-2,-2.145385742E-2
6.775917847E0,-2.247619629E-2,-5.101013184E-2,-2.465820312E-2
6.780831177E0,-2.566528320E-2,-5.421447754E-2,-2.677917480E-2
6.785744507E0,-2.673339844E-2,-5.740356445E-2,-2.998352051E-2
6.790688355E0,-2.354431152E-2,-5.633544922E-2,-3.530883789E-2
6.795601685E0,-2.140808105E-2,-5.740356445E-2,-3.956604004E-2
6.800515015E0,-1.715087891E-2,-5.421447754E-2,-4.277038574E-2
6.805458863E0,-1.075744629E-2,-5.421447754E-2,-4.595947266E-2
6.810372193E0,-4.364013672E-3,-4.782104492E-2,-4.595947266E-2
6.815285523E0,-1.068115234E-4,-4.142761230E-2,-4.914855957E-2
6.820229371E0,6.286621094E-3,-3.822326660E-2,-5.448913574E-2
6.825142701E0,8.422851562E-3,-3.184509277E-2,-5.767822266E-2
6.830056031E0,1.374816895E-2,-3.289794922E-2,-5.981445312E-2
6.834969361E0,1.586914062E-2,-3.396606445E-2,-6.300354004E-2
6.839913209E0,1.693725586E-2,-3.822326660E-2,-6.407165527E-2
6.844826539E0,1.800537109E-2,-4.142761230E-2,-6.832885742E-2
6.849739869E0,1.586914062E-2,-4.782104492E-2,-7.046508789E-2
6.854683716E0,1.586914062E-2,-5.101013184E-2,-7.046508789E-2
6.859597047E0,1.586914062E-2,-5.421447754E-2,-6.832885742E-2
6.864510377E0,1.586914062E-2,-6.166076660E-2,-6.726074219E-2
6.869423707E0,1.586914062E-2,-6.486511230E-2,-6.513977051E-2
6.874367554E0,1.586914062E-2,-7.231140137E-2,-6.300354004E-2
6.879280884E0,1.800537109E-2,-7.551574707E-2,-6.086730957E-2
6.884194215E0,2.014160156E-2,-7.870483398E-2,-5.767822266E-2
6.889138062E0,2.119445801E-2,-8.297729492E-2,-5.448913574E-2
6.894051392E0,2.333068848E-2,-8.509826660E-2,-5.021667480E-2
6.898964722E0,2.226257324E-2,-8.723449707E-2,-4.914855957E-2
6.903908570E0,2.333068848E-2,-8.616638184E-2,-4.702758789E-2
6.908821900E0,2.226257324E-2,-8.935546875E-2,-4.595947266E-2
6.913735230E0,1.693725586E-2,-9.255981445E-2,-4.277038574E-2
6.918648560E0,1.374816895E-2,-9.895324707E-2,-4.382324219E-2
6.923592408E0,9.490966797E-3,-1.106719971E-1,-5.021667480E-2
6.928505738E0,4.150390625E-3,-1.202545166E-1,-5.128479004E-2
6.933419068E0,-1.068115234E-4,-1.255798340E-1,-4.382324219E-2
6.938362916E0,-9.689331055E-3,-1.319732666E-1,-4.063415527E-2
6.943276246E0,-1.501464844E-2,-1.405029297E-1,-4.170227051E-2
6.948189576E0,-1.501464844E-2,-1.479492188E-1,-4.170227051E-2
6.953102906E0,-1.608276367E-2,-1.500854492E-1,-3.744506836E-2
6.958016236E0,-1.394653320E-2,-1.415557861E-1,-3.105163574E-2
6.962960084E0,-1.289367676E-2,-1.351623535E-1,-2.572631836E-2
6.967873414E0,-1.182556152E-2,-1.287841797E-1,-2.359008789E-2
6.972817261E0,-1.289367676E-2,-1.223907471E-1,-2.465820312E-2
6.977730591E0,-1.075744629E-2,-1.181182861E-1,-1.933288574E-2
6.982643922E0,-8.621215820E-3,-1.127929688E-1,-1.400756836E-2
6.987557252E0,-8.621215820E-3,-1.074676514E-1,-1.293945312E-2
6.992470582E0,-4.364013672E-3,-1.085357666E-1,-1.400756836E-2
6.997414429E0,-2.227783203E-3,-1.191864014E-1,-1.826477051E-2
7.002327759E0,-1.068115234E-4,-1.255798340E-1,-1.826477051E-2
7.007271607E0,6.286621094E-3,-1.266479492E-1,-1.612854004E-2
7.012184937E0,1.161193848E-2,-1.266479492E-1,-1.506042480E-2
7.017098267E0,1.907348633E-2,-1.351623535E-1,-1.187133789E-2
7.022042115E0,2.758789062E-2,-1.415557861E-1,-7.614135742E-3
7.026955445E0,3.398132324E-2,-1.490173340E-1,-6.546020508E-3
7.031868775E0,4.037475586E-2,-1.564788818E-1,-6.546020508E-3
7.036782105E0,4.570007324E-2,-1.628723145E-1,-4.409790039E-3
7.041695435E0,4.783630371E-2,-1.649932861E-1,-6.546020508E-3
7.046639283E0,4.890441895E-2,-1.618041992E-1,-9.735107422E-3
7.051552613E0,4.995727539E-2,-1.575469971E-1,-1.080322266E-2
7.056465943E0,4.463195801E-2,-1.522064209E-1,-1.612854004E-2
7.061409791E0,4.463195801E-2,-1.426239014E-1,-2.145385742E-2
7.066323121E0,4.144287109E-2,-1.309051514E-1,-2.572631836E-2
7.071266968E0,3.823852539E-2,-1.149291992E-1,-2.998352051E-2
7.076180299E0,3.611755371E-2,-1.010742188E-1,-3.637695312E-2
7.081093629E0,3.398132324E-2,-8.935546875E-2,-3.849792480E-2
7.086006959E0,3.398132324E-2,-7.658386230E-2,-4.170227051E-2
7.090950806E0,3.291320801E-2,-5.847167969E-2,-4.277038574E-2
7.095864136E0,3.291320801E-2,-4.249572754E-2,-4.382324219E-2
7.100777466E0,3.291320801E-2,-2.757263184E-2,-4.277038574E-2
7.105721314E0,3.398132324E-2,-1.585388184E-2,-4.063415527E-2
7.110634644E0,3.611755371E-2,-5.203247070E-3,-3.637695312E-2
7.115547974E0,3.611755371E-2,5.447387695E-3,-3.210449219E-2
7.120461304E0,3.718566895E-2,1.609802246E-2,-2.784729004E-2
7.125405152E0,3.398132324E-2,2.674865723E-2,-2.252197266E-2
7.130318482E0,2.972412109E-2,3.739929199E-2,-1.826477051E-2
7.135231812E0,2.865600586E-2,4.486083984E-2,-1.400756836E-2
7.140175660E0,2.333068848E-2,4.592895508E-2,-1.080322266E-2
7.145088990E0,1.800537109E-2,5.018615723E-2,9.155273438E-4
7.150002320E0,2.119445801E-2,5.976867676E-2,1.689147949E-2
7.154915650E0,2.014160156E-2,5.657958984E-2,3.074645996E-2
7.159859498E0,1.907348633E-2,5.125427246E-2,3.926086426E-2
7.164772828E0,2.119445801E-2,5.232238770E-2,3.926086426E-2
7.169686158E0,1.800537109E-2,5.232238770E-2,3.607177734E-2
7.174630006E0,1.374816895E-2,5.125427246E-2,2.754211426E-2
7.179543336E0,7.354736328E-3,4.699707031E-2,2.008056641E-2
7.184456666E0,3.097534180E-3,4.486083984E-2,1.795959473E-2
7.189400513E0,-4.364013672E-3,4.592895508E-2,1.475524902E-2
7.194313843E0,-8.621215820E-3,4.272460938E-2,1.582336426E-2
7.199227174E0,-1.182556152E-2,4.060363770E-2,1.795959473E-2
7.204140504E0,-1.501464844E-2,4.272460938E-2,2.008056641E-2
7.209084351E0,-1.289367676E-2,4.486083984E-2,2.114868164E-2
7.213997681E0,-1.289367676E-2,4.699707031E-2,2.328491211E-2
7.218911011E0,-1.289367676E-2,4.804992676E-2,2.540588379E-2
7.223824341E0,-8.621215820E-3,4.592895508E-2,2.328491211E-2
7.228768189E0,-3.295898438E-3,4.272460938E-2,1.795959473E-2
7.233681519E0,-2.227783203E-3,3.527832031E-2,1.582336426E-2
7.238594849E0,-1.068115234E-4,2.995300293E-2,1.475524902E-2
7.243538697E0,4.150390625E-3,2.674865723E-2,1.689147949E-2
7.248452027E0,6.286621094E-3,2.355957031E-2,2.008056641E-2
7.253365357E0,9.490966797E-3,1.928710938E-2,2.221679688E-2
7.258309205E0,1.268005371E-2,1.609802246E-2,2.221679688E-2
7.263222535E0,9.490966797E-3,1.502990723E-2,1.902770996E-2
7.268135865E0,9.490966797E-3,1.184082031E-2,1.582336426E-2
7.273049195E0,9.490966797E-3,1.077270508E-2,1.156616211E-2
7.277993043E0,6.286621094E-3,9.704589844E-3,7.308959961E-3
7.282906373E0,5.218505859E-3,8.636474609E-3,7.308959961E-3
7.287819703E0,2.029418945E-3,7.583618164E-3,5.172729492E-3
7.292733033E0,9.613037109E-4,7.583618164E-3,9.155273438E-4
7.297676881E0,3.097534180E-3,8.636474609E-3,-1.525878906E-4
7.302590211E0,2.029418945E-3,8.636474609E-3,9.155273438E-4
7.307503541E0,2.029418945E-3,5.447387695E-3,9.155273438E-4
7.312447388E0,2.029418945E-3,3.311157227E-3,1.983642578E-3
7.317360718E0,3.097534180E-3,-9.460449219E-4,-3.356933594E-3
7.322274049E0,2.029418945E-3,-8.407592773E-3,-1.187133789E-2
7.327217896E0,9.613037109E-4,-1.692199707E-2,-1.826477051E-2
7.332131226E0,-1.068115234E-4,-2.331542969E-2,-2.252197266E-2
7.337044556E0,-1.174926758E-3,-2.970886230E-2,-2.040100098E-2
7.341957886E0,-1.174926758E-3,-3.822326660E-2,-2.145385742E-2
7.346901734E0,-1.174926758E-3,-4.249572754E-2,-2.252197266E-2
7.351815064E0,-1.174926758E-3,-4.782104492E-2,-2.572631836E-2
7.356728394E0,-2.227783203E-3,-5.101013184E-2,-2.784729004E-2
7.361672242E0,-4.364013672E-3,-5.207824707E-2,-3.317260742E-2
7.366585572E0,-8.621215820E-3,-5.633544922E-2,-4.063415527E-2
7.371498902E0,-1.927185059E-2,-5.421447754E-2,-4.063415527E-2
7.376442750E0,-2.673339844E-2,-4.461669922E-2,-3.210449219E-2
7.381356080E0,-3.205871582E-2,-4.249572754E-2,-1.933288574E-2
7.386269410E0,-3.205871582E-2,-4.142761230E-2,-5.477905273E-3
7.391182740E0,-2.780151367E-2,-5.101013184E-2,-7.614135742E-3
7.396126588E0,-2.354431152E-2,-4.994201660E-2,-8.682250977E-3
7.401039918E0,-1.715087891E-2,-4.356384277E-2,-8.682250977E-3
7.405953248E0,-1.715087891E-2,-3.929138184E-2,-1.080322266E-2
7.410897095E0,-2.140808105E-2,-3.929138184E-2,-1.080322266E-2
7.415810425E0,-2.247619629E-2,-3.503417969E-2,-1.080322266E-2
7.420723756E0,-2.033996582E-2,-3.717041016E-2,-1.080322266E-2
7.425637086E0,-1.927185059E-2,-3.929138184E-2,-1.080322266E-2
7.430580933E0,-2.033996582E-2,-4.356384277E-2,-1.293945312E-2
7.435494263E0,-1.927185059E-2,-4.994201660E-2,-1.293945312E-2
7.440407593E0,-1.821899414E-2,-5.740356445E-2,-1.400756836E-2
7.445320924E0,-1.501464844E-2,-6.272888184E-2,-1.612854004E-2
7.450264771E0,-1.075744629E-2,-6.698608398E-2,-1.612854004E-2
7.455178101E0,-5.432128906E-3,-7.231140137E-2,-1.612854004E-2
7.460091431E0,-1.174926758E-3,-7.658386230E-2,-1.612854004E-2
7.465035279E0,2.029418945E-3,-8.297729492E-2,-1.826477051E-2
7.469948609E0,7.354736328E-3,-8.830261230E-2,-2.252197266E-2
7.474892457E0,1.586914062E-2,-9.149169922E-2,-2.572631836E-2
7.479805787E0,1.800537109E-2,-9.681701660E-2,-2.465820312E-2
7.484719117E0,1.693725586E-2,-1.021423340E-1,-2.145385742E-2
7.489632447E0,2.014160156E-2,-1.074676514E-1,-1.933288574E-2
7.494576295E0,1.586914062E-2,-1.106719971E-1,-1.719665527E-2
7.499489625E0,1.693725586E-2,-1.159973145E-1,-1.400756836E-2
7.504402955E0,1.374816895E-2,-1.191864014E-1,-1.187133789E-2
7.509316285E0,1.054382324E-2,-1.202545166E-1,-9.735107422E-3
7.514260132E0,7.354736328E-3,-1.213226318E-1,-6.546020508E-3
7.519173463E0,7.354736328E-3,-1.202545166E-1,-6.546020508E-3
7.524086793E0,6.286621094E-3,-1.181182861E-1,-5.477905273E-3
7.529000123E0,3.097534180E-3,-1.149291992E-1,-4.409790039E-3
7.533943970E0,3.097534180E-3,-1.127929688E-1,-3.356933594E-3
7.538857300E0,9.613037109E-4,-1.085357666E-1,-2.288818359E-3
7.543770631E0,-1.174926758E-3,-1.042785645E-1,-5.477905273E-3
7.548714478E0,-6.500244141E-3,-1.000213623E-1,-5.477905273E-3
7.553627808E0,-9.689331055E-3,-8.723449707E-2,-5.477905273E-3
7.558541138E0,-1.182556152E-2,-7.765197754E-2,-2.288818359E-3
7.563484986E0,-1.501464844E-2,-6.698608398E-2,-1.220703125E-3
7.568398316E0,-1.394653320E-2,-5.633544922E-2,-1.525878906E-4
7.573311646E0,-1.394653320E-2,-4.461669922E-2,-1.525878906E-4
7.578224976E0,-1.608276367E-2,-3.503417969E-2,1.983642578E-3
7.583168824E0,-1.608276367E-2,-2.970886230E-2,1.983642578E-3
7.588082154E0,-1.394653320E-2,-2.224731445E-2,-1.525878906E-4
7.592995484E0,-1.501464844E-2,-1.266479492E-2,-2.288818359E-3
7.597939332E0,-1.715087891E-2,-2.014160156E-3,-1.220703125E-3
7.602852662E0,-1.394653320E-2,5.447387695E-3,-4.409790039E-3
7.607796509E0,-1.394653320E-2,1.396179199E-2,-5.477905273E-3
7.612709840E0,-1.501464844E-2,2.355957031E-2,-5.477905273E-3
7.617623170E0,-1.289367676E-2,2.781677246E-2,-6.546020508E-3
7.622536500E0,-9.689331055E-3,3.421020508E-2,-5.477905273E-3
7.627449830E0,-5.432128906E-3,3.846740723E-2,-3.356933594E-3
7.632393677E0,-3.295898438E-3,4.592895508E-2,-1.220703125E-3
7.637307007E0,-1.068115234E-4,5.657958984E-2,3.036499023E-3
7.642220338E0,3.097534180E-3,7.362365723E-2,8.361816406E-3
7.647164185E0,7.354736328E-3,8.853149414E-2,1.475524902E-2
7.652077515E0,1.054382324E-2,1.002502441E-1,2.114868164E-2
7.656990845E0,1.268005371E-2,1.098480225E-1,2.754211426E-2
7.661904175E0,1.586914062E-2,1.141052246E-1,3.286743164E-2
7.666848023E0,1.374816895E-2,1.130371094E-1,3.712463379E-2
7.671761353E0,9.490966797E-3,1.109008789E-1,3.500366211E-2
7.676674683E0,5.218505859E-3,1.119689941E-1,3.393554688E-2
7.681618531E0,-1.174926758E-3,1.194305420E-1,3.179931641E-2
7.686531861E0,-4.364013672E-3,1.279449463E-1,2.967834473E-2
7.691445191E0,-1.075744629E-2,1.375427246E-1,2.647399902E-2
7.696389039E0,-1.927185059E-2,1.503143311E-1,2.008056641E-2
7.701302369E0,-2.993774414E-2,1.663055420E-1,2.008056641E-2
7.706215699E0,-3.738403320E-2,1.801452637E-1,1.689147949E-2
7.711129029E0,-4.270935059E-2,1.940002441E-1,1.156616211E-2
7.716072877E0,-4.803466797E-2,2.078399658E-1,7.308959961E-3
7.720986207E0,-4.910278320E-2,2.206268311E-1,-1.525878906E-4
7.725899537E0,-4.910278320E-2,2.291564941E-1,-4.409790039E-3
7.730843384E0,-5.230712891E-2,2.355499268E-1,-7.614135742E-3
7.735756715E0,-4.910278320E-2,2.398071289E-1,-1.080322266E-2
7.740670045E0,-4.698181152E-2,2.419281006E-1,-1.506042480E-2
7.745583375E0,-4.591369629E-2,2.376708984E-1,-1.719665527E-2
7.750527222E0,-4.270935059E-2,2.323455811E-1,-1.826477051E-2
7.755440552E0,-3.631591797E-2,2.174377441E-1,-1.719665527E-2
7.760353882E0,-3.205871582E-2,2.046508789E-1,-1.612854004E-2
7.765297730E0,-2.993774414E-2,1.918640137E-1,-1.506042480E-2
7.770211060E0,-2.886962891E-2,1.737518311E-1,-1.506042480E-2
7.775124390E0,-2.566528320E-2,1.545867920E-1,-1.293945312E-2
7.780037720E0,-2.566528320E-2,1.354064941E-1,-6.546020508E-3
7.784981568E0,-2.780151367E-2,1.183624268E-1,-1.220703125E-3
7.789894898E0,-2.566528320E-2,1.023864746E-1,9.155273438E-4
7.794838746E0,-2.566528320E-2,8.534240723E-2,8.361816406E-3
7.799752076E0,-2.247619629E-2,7.041931152E-2,1.156616211E-2
7.804665406E0,-2.033996582E-2,5.976867676E-2,1.263427734E-2
7.809578736E0,-1.821899414E-2,4.486083984E-2,1.156616211E-2
7.814522584E0,-1.501464844E-2,3.100585938E-2,1.049804688E-2
7.819435914E0,-1.289367676E-2,1.716613770E-2,7.308959961E-3
7.824349244E0,-8.621215820E-3,5.447387695E-3,6.240844727E-3
7.829262574E0,-2.227783203E-3,-8.407592773E-3,6.240844727E-3
7.834206422E0,-2.227783203E-3,-1.799011230E-2,6.240844727E-3
7.839119752E0,2.029418945E-3,-2.757263184E-2,5.172729492E-3
7.844033082E0,4.150390625E-3,-3.396606445E-2,4.104614258E-3
7.848976929E0,3.097534180E-3,-3.822326660E-2,4.104614258E-3
7.853890259E0,4.150390625E-3,-4.142761230E-2,1.983642578E-3
7.858803590E0,4.150390625E-3,-4.461669922E-2,9.155273438E-4
7.863716920E0,9.613037109E-4,-4.461669922E-2,-1.525878906E-4
7.868660767E0,-2.227783203E-3,-4.675292969E-2,-2.288818359E-3
7.873574097E0,-4.364013672E-3,-5.101013184E-2,-4.409790039E-3
7.878487427E0,-3.295898438E-3,-5.207824707E-2,-4.409790039E-3
7.883431275E0,-7.568359375E-3,-5.421447754E-2,-7.614135742E-3
7.888344605E0,-1.182556152E-2,-5.740356445E-2,-1.080322266E-2
7.893257935E0,-1.394653320E-2,-6.272888184E-2,-1.506042480E-2
7.898201783E0,-1.715087891E-2,-6.486511230E-2,-1.826477051E-2
7.903115113E0,-1.715087891E-2,-6.698608398E-2,-2.145385742E-2
7.908028443E0,-1.821899414E-2,-6.912231445E-2,-2.677917480E-2
7.912972291E0,-2.140808105E-2,-7.019042969E-2,-3.210449219E-2
7.917885621E0,-2.247619629E-2,-6.912231445E-2,-3.637695312E-2
7.922798951E0,-1.927185059E-2,-6.593322754E-2,-3.637695312E-2
7.927712281E0,-1.821899414E-2,-6.486511230E-2,-3.849792480E-2
7.932656129E0,-1.821899414E-2,-6.486511230E-2,-4.063415527E-2
7.937569459E0,-1.821899414E-2,-5.953979492E-2,-4.063415527E-2
7.942482789E0,-1.715087891E-2,-5.740356445E-2,-4.063415527E-2
7.947396119E0,-1.821899414E-2,-5.526733398E-2,-4.170227051E-2
7.952339966E0,-1.927185059E-2,-5.421447754E-2,-3.956604004E-2
7.957253297E0,-2.140808105E-2,-5.101013184E-2,-3.637695312E-2
7.962166627E0,-2.354431152E-2,-4.888916016E-2,-3.424072266E-2
7.967110474E0,-2.354431152E-2,-4.675292969E-2,-3.317260742E-2
7.972023804E0,-2.780151367E-2,-4.675292969E-2,-3.210449219E-2
7.976937134E0,-2.993774414E-2,-4.782104492E-2,-2.998352051E-2
7.981850465E0,-3.099060059E-2,-4.888916016E-2,-2.677917480E-2
7.986794312E0,-3.312683105E-2,-4.888916016E-2,-2.465820312E-2
7.991707642E0,-3.526306152E-2,-4.994201660E-2,-2.252197266E-2
7.996620972E0,-3.631591797E-2,-5.207824707E-2,-2.145385742E-2
8.001564820E0,-3.738403320E-2,-5.633544922E-2,-2.040100098E-2
8.006478150E0,-3.526306152E-2,-5.953979492E-2,-1.612854004E-2
8.011391480E0,-3.419494629E-2,-6.060791016E-2,-1.506042480E-2
8.016335328E0,-3.312683105E-2,-6.272888184E-2,-1.187133789E-2
8.021248658E0,-2.673339844E-2,-6.379699707E-2,-8.682250977E-3
8.026161988E0,-2.673339844E-2,-6.805419922E-2,-5.477905273E-3
8.031075318E0,-2.354431152E-2,-6.912231445E-2,-1.220703125E-3
8.036019166E0,-1.927185059E-2,-6.912231445E-2,-1.525878906E-4
8.040932496E0,-1.821899414E-2,-6.698608398E-2,9.155273438E-4
8.045845826E0,-1.608276367E-2,-6.272888184E-2,4.104614258E-3
8.050789674E0,-1.501464844E-2,-6.379699707E-2,9.155273438E-4
8.055703004E0,-1.182556152E-2,-6.379699707E-2,9.155273438E-4
8.060616334E0,-7.568359375E-3,-6.272888184E-2,9.155273438E-4
8.065529664E0,-5.432128906E-3,-6.060791016E-2,-1.525878906E-4
8.070473511E0,-4.364013672E-3,-5.740356445E-2,-2.288818359E-3
8.075386841E0,-1.068115234E-4,-5.421447754E-2,-7.614135742E-3
8.080300172E0,9.613037109E-4,-4.888916016E-2,-1.400756836E-2
8.085244019E0,2.029418945E-3,-4.356384277E-2,-2.040100098E-2
8.090157349E0,5.218505859E-3,-3.929138184E-2,-2.145385742E-2
8.095070679E0,4.150390625E-3,-3.396606445E-2,-2.359008789E-2
8.099984009E0,5.218505859E-3,-3.184509277E-2,-2.784729004E-2
8.104897340E0,9.613037109E-4,-2.757263184E-2,-3.210449219E-2
8.109841187E0,9.613037109E-4,-2.117919922E-2,-3.317260742E-2
8.114754517E0,3.097534180E-3,-1.585388184E-2,-3.424072266E-2
8.119698365E0,4.150390625E-3,-1.159667969E-2,-3.105163574E-2
8.124611695E0,7.354736328E-3,-1.159667969E-2,-2.998352051E-2
8.129525025E0,8.422851562E-3,-8.407592773E-3,-2.891540527E-2
8.134468873E0,9.490966797E-3,-7.339477539E-3,-2.891540527E-2
8.139382203E0,1.268005371E-2,-7.339477539E-3,-2.677917480E-2
8.144326050E0,1.586914062E-2,-9.475708008E-3,-2.677917480E-2
8.149239381E0,1.907348633E-2,-1.052856445E-2,-2.359008789E-2
8.154152711E0,2.014160156E-2,-1.480102539E-2,-2.252197266E-2
8.159066041E0,1.907348633E-2,-1.799011230E-2,-2.784729004E-2
8.163979371E0,2.014160156E-2,-2.224731445E-2,-2.998352051E-2
8.168923218E0,2.014160156E-2,-2.438354492E-2,-3.105163574E-2
8.173836549E0,2.014160156E-2,-2.331542969E-2,-3.317260742E-2
8.178749879E0,2.119445801E-2,-2.651977539E-2,-3.317260742E-2
8.183693726E0,2.014160156E-2,-2.757263184E-2,-3.849792480E-2
8.188607056E0,2.226257324E-2,-2.651977539E-2,-4.170227051E-2
8.193520386E0,2.546691895E-2,-2.224731445E-2,-4.063415527E-2
8.198433716E0,2.653503418E-2,-2.117919922E-2,-4.063415527E-2
8.203377564E0,2.653503418E-2,-2.224731445E-2,-4.277038574E-2
8.208290894E0,2.865600586E-2,-1.799011230E-2,-3.956604004E-2
8.213204224E0,2.758789062E-2,-1.799011230E-2,-3.530883789E-2
8.218117554E0,2.865600586E-2,-2.117919922E-2,-3.105163574E-2
8.223061402E0,2.546691895E-2,-2.331542969E-2,-2.465820312E-2
8.227974732E0,2.226257324E-2,-2.970886230E-2,-2.252197266E-2
8.232888062E0,2.014160156E-2,-3.289794922E-2,-1.826477051E-2
8.237831910E0,1.693725586E-2,-3.822326660E-2,-1.400756836E-2
8.242745240E0,1.481628418E-2,-4.461669922E-2,-1.080322266E-2
8.247658570E0,9.490966797E-3,-5.101013184E-2,-8.682250977E-3
8.252571900E0,9.490966797E-3,-5.740356445E-2,-3.356933594E-3
8.257515748E0,8.422851562E-3,-6.166076660E-2,-4.409790039E-3
8.262429078E0,3.097534180E-3,-6.486511230E-2,-3.356933594E-3
8.267342408E0,3.097534180E-3,-6.593322754E-2,-1.525878906E-4
8.272286256E0,3.097534180E-3,-6.272888184E-2,9.155273438E-4
8.277199586E0,3.097534180E-3,-5.847167969E-2,-1.220703125E-3
8.282112916E0,9.613037109E-4,-5.207824707E-2,-3.356933594E-3
8.287026246E0,-2.227783203E-3,-4.249572754E-2,-3.356933594E-3
8.291970093E0,-5.432128906E-3,-3.610229492E-2,-3.356933594E-3
8.296883424E0,-5.432128906E-3,-3.077697754E-2,-5.477905273E-3
8.301796754E0,-7.568359375E-3,-2.757263184E-2,-7.614135742E-3
8.306740601E0,-1.289367676E-2,-2.012634277E-2,-8.682250977E-3
8.311653931E0,-1.715087891E-2,-1.373291016E-2,-1.293945312E-2
8.316567261E0,-2.140808105E-2,-1.159667969E-2,-1.506042480E-2
8.321511109E0,-2.673339844E-2,-9.475708008E-3,-1.826477051E-2
8.326424439E0,-3.099060059E-2,-4.135131836E-3,-2.252197266E-2
8.331337769E0,-2.780151367E-2,4.379272461E-3,-1.933288574E-2
8.336251099E0,-2.354431152E-2,6.515502930E-3,-1.400756836E-2
8.341194947E0,-2.033996582E-2,3.311157227E-3,-1.080322266E-2
8.346108277E0,-1.608276367E-2,1.220703125E-4,-1.293945312E-2
8.351021607E0,-1.182556152E-2,1.190185547E-3,-1.400756836E-2
8.355965455E0,-7.568359375E-3,2.243041992E-3,-1.612854004E-2
8.360878785E0,-2.227783203E-3,-9.460449219E-4,-1.826477051E-2
8.365792115E0,-1.174926758E-3,-3.082275391E-3,-1.933288574E-2
8.370705445E0,2.029418945E-3,-9.460449219E-4,-1.612854004E-2
8.375649293E0,4.150390625E-3,-5.203247070E-3,-1.187133789E-2
8.380562623E0,7.354736328E-3,-1.052856445E-2,-1.293945312E-2
8.385506470E0,9.490966797E-3,-2.331542969E-2,-1.933288574E-2
8.390419800E0,8.422851562E-3,-3.077697754E-2,-2.040100098E-2
8.395333131E0,9.490966797E-3,-3.717041016E-2,-2.465820312E-2
8.400246461E0,1.054382324E-2,-4.142761230E-2,-2.784729004E-2
8.405190308E0,6.286621094E-3,-4.142761230E-2,-2.677917480E-2
8.410103638E0,7.354736328E-3,-4.568481445E-2,-2.465820312E-2
8.415016968E0,8.422851562E-3,-4.568481445E-2,-2.465820312E-2
8.419930299E0,8.422851562E-3,-4.461669922E-2,-2.040100098E-2
8.424874146E0,1.054382324E-2,-4.356384277E-2,-1.933288574E-2
8.429787476E0,1.374816895E-2,-4.356384277E-2,-1.719665527E-2
8.434700806E0,1.161193848E-2,-4.356384277E-2,-1.293945312E-2
8.439644654E0,1.374816895E-2,-3.929138184E-2,-9.735107422E-3
8.444557984E0,1.693725586E-2,-3.289794922E-2,-4.409790039E-3
8.449471314E0,2.546691895E-2,-2.651977539E-2,5.172729492E-3
8.454384644E0,3.186035156E-2,-2.117919922E-2,1.156616211E-2
8.459328492E0,3.398132324E-2,-1.799011230E-2,1.902770996E-2
8.464241822E0,3.504943848E-2,-1.480102539E-2,2.967834473E-2
8.469155152E0,3.186035156E-2,-1.159667969E-2,3.712463379E-2
8.474099000E0,2.865600586E-2,-4.135131836E-3,4.351806641E-2
8.479012330E0,2.546691895E-2,4.379272461E-3,4.779052734E-2
8.483925660E0,2.226257324E-2,1.077270508E-2,5.204772949E-2
8.488869507E0,2.014160156E-2,1.502990723E-2,5.097961426E-2
8.493782838E0,2.014160156E-2,1.823425293E-2,4.779052734E-2
8.498696168E0,9.490966797E-3,1.290893555E-2,3.393554688E-2
8.503609498E0,-9.689331055E-3,1.220703125E-4,2.114868164E-2
8.508553345E0,-1.821899414E-2,2.462768555E-2,1.370239258E-2
8.513466675E0,-1.394653320E-2,5.657958984E-2,8.361816406E-3
8.518380006E0,-1.182556152E-2,6.936645508E-2,4.104614258E-3
8.523323853E0,-1.182556152E-2,7.575988770E-2,-1.525878906E-4
8.528237183E0,-7.568359375E-3,8.641052246E-2,-1.220703125E-3
8.533150513E0,-1.068115234E-4,9.492492676E-2,-4.409790039E-3
8.538063843E0,9.613037109E-4,9.706115723E-2,-4.409790039E-3
8.543007691E0,4.150390625E-3,9.706115723E-2,-4.409790039E-3
8.547921021E0,5.218505859E-3,9.280395508E-2,-4.409790039E-3
8.552834351E0,3.097534180E-3,8.427429199E-2,-2.288818359E-3
8.557778199E0,-1.174926758E-3,7.681274414E-2,-3.356933594E-3
8.562691529E0,-1.174926758E-3,6.723022461E-2,-3.356933594E-3
8.567604859E0,-6.500244141E-3,5.657958984E-2,-3.356933594E-3
8.572518189E0,-9.689331055E-3,4.486083984E-2,-3.356933594E-3
8.577462037E0,-1.501464844E-2,3.739929199E-2,-5.477905273E-3
8.582375367E0,-2.140808105E-2,2.674865723E-2,-4.409790039E-3
8.587288697E0,-2.461242676E-2,1.823425293E-2,-4.409790039E-3
8.592232545E0,-2.566528320E-2,1.609802246E-2,-5.477905273E-3
8.597145875E0,-2.886962891E-2,1.396179199E-2,-6.546020508E-3
8.602059205E0,-2.673339844E-2,1.609802246E-2,-8.682250977E-3
8.606972535E0,-2.461242676E-2,1.716613770E-2,-9.735107422E-3
8.611916382E0,-2.140808105E-2,1.609802246E-2,-7.614135742E-3
8.616829713E0,-1.608276367E-2,1.502990723E-2,-7.614135742E-3
8.621743043E0,-6.500244141E-3,9.704589844E-3,-4.409790039E-3
8.626686890E0,-1.174926758E-3,6.515502930E-3,-2.288818359E-3
8.631600220E0,3.097534180E-3,4.379272461E-3,-1.220703125E-3
8.636513550E0,8.422851562E-3,1.220703125E-4,4.104614258E-3
8.641457398E0,1.161193848E-2,-2.014160156E-3,9.429931641E-3
8.646370728E0,1.268005371E-2,-6.271362305E-3,1.263427734E-2
8.651284058E0,1.374816895E-2,-1.159667969E-2,1.156616211E-2
8.656197388E0,1.586914062E-2,-1.905822754E-2,1.475524902E-2
8.661141236E0,1.481628418E-2,-2.757263184E-2,1.689147949E-2
8.666054566E0,1.374816895E-2,-4.035949707E-2,1.689147949E-2
8.670967896E0,1.161193848E-2,-5.633544922E-2,1.689147949E-2
8.675911744E0,6.286621094E-3,-8.084106445E-2,1.263427734E-2
8.680825074E0,-1.068115234E-4,-9.788513184E-2,9.429931641E-3
8.685738404E0,-1.068115234E-4,-1.042785645E-1,1.263427734E-2
8.690651734E0,-2.227783203E-3,-1.138610840E-1,1.370239258E-2
8.695595582E0,-7.568359375E-3,-1.245117188E-1,1.475524902E-2
8.700508912E0,-6.500244141E-3,-1.330413818E-1,2.114868164E-2
8.705422242E0,-9.689331055E-3,-1.309051514E-1,2.435302734E-2
8.710366090E0,-1.182556152E-2,-1.277160645E-1,2.540588379E-2
8.715279420E0,-1.289367676E-2,-1.255798340E-1,2.540588379E-2
8.720192750E0,-1.394653320E-2,-1.213226318E-1,2.540588379E-2
8.725136597E0,-1.927185059E-2,-1.149291992E-1,2.435302734E-2
8.730049927E0,-2.566528320E-2,-1.064147949E-1,2.754211426E-2
8.734963257E0,-3.205871582E-2,-1.021423340E-1,2.861022949E-2
8.739876588E0,-3.845214844E-2,-1.032104492E-1,2.861022949E-2
8.744820435E0,-4.377746582E-2,-1.042785645E-1,2.754211426E-2
8.749733765E0,-5.017089844E-2,-1.074676514E-1,3.179931641E-2
8.754647095E0,-5.975341797E-2,-1.106719971E-1,3.500366211E-2
8.759590943E0,-5.656433105E-2,-1.096038818E-1,1.902770996E-2
8.764504273E0,-4.910278320E-2,-1.223907471E-1,-4.409790039E-3
8.769417603E0,-4.058837891E-2,-1.287841797E-1,-2.465820312E-2
8.774330933E0,-4.165649414E-2,-1.330413818E-1,-3.210449219E-2
8.779274781E0,-4.803466797E-2,-1.490173340E-1,-4.063415527E-2
8.784188111E0,-5.335998535E-2,-1.745910645E-1,-4.382324219E-2
8.789101441E0,-5.870056152E-2,-1.990814209E-1,-4.489135742E-2
8.794045289E0,-6.507873535E-2,-2.257232666E-1,-4.595947266E-2
8.798958619E0,-7.040405273E-2,-2.555389404E-1,-4.170227051E-2
8.803871949E0,-7.360839844E-2,-2.768554688E-1,-3.956604004E-2
8.808785279E0,-7.147216797E-2,-3.002929688E-1,-3.637695312E-2
8.813729127E0,-6.935119629E-2,-3.258514404E-1,-3.105163574E-2
8.818642457E0,-7.147216797E-2,-3.535461426E-1,-2.572631836E-2
8.823555787E0,-7.467651367E-2,-3.844451904E-1,-1.826477051E-2
8.828499634E0,-7.254028320E-2,-4.110717773E-1,-8.682250977E-3
8.833412965E0,-7.893371582E-2,-4.345092773E-1,-6.546020508E-3
8.838326295E0,-8.319091797E-2,-4.568786621E-1,-1.525878906E-4
8.843270142E0,-8.744812012E-2,-4.803161621E-1,3.036499023E-3
8.848183472E0,-8.958435059E-2,-5.037536621E-1,4.104614258E-3
8.853096802E0,-8.958435059E-2,-5.282592773E-1,6.240844727E-3
8.858010132E0,-9.065246582E-2,-5.474243164E-1,1.049804688E-2
8.862953980E0,-8.851623535E-2,-5.644683838E-1,1.689147949E-2
8.867867310E0,-8.639526367E-2,-5.783233643E-1,2.221679688E-2
8.872780640E0,-8.425903320E-2,-5.942993164E-1,2.967834473E-2
8.877724488E0,-8.319091797E-2,-6.081542969E-1,3.500366211E-2
8.882637818E0,-8.319091797E-2,-6.198577881E-1,3.819274902E-2
8.887581666E0,-8.639526367E-2,-6.273193359E-1,4.458618164E-2
8.892494996E0,-8.744812012E-2,-6.326446533E-1,5.097961426E-2
8.897438843E0,-9.172058105E-2,-6.379699707E-1,5.311584473E-2
8.902352174E0,-9.490966797E-2,-6.432952881E-1,5.097961426E-2
8.907265504E0,-9.704589844E-2,-6.475677490E-1,4.884338379E-2
8.912178834E0,-1.002349854E-1,-6.571502686E-1,4.565429688E-2
8.917092164E0,-1.055603027E-1,-6.731262207E-1,4.672241211E-2
8.922005494E0,-1.119537354E-1,-6.933746338E-1,4.351806641E-2
8.926949341E0,-1.140899658E-1,-6.997528076E-1,3.393554688E-2
8.931862672E0,-1.076965332E-1,-7.018890381E-1,2.435302734E-2
8.936776002E0,-9.811401367E-2,-7.040252686E-1,1.475524902E-2
8.941689332E0,-9.278869629E-2,-7.114715576E-1,-2.288818359E-3
8.946633179E0,-8.744812012E-2,-7.157440186E-1,-2.040100098E-2
8.951546509E0,-8.212280273E-2,-7.093505859E-1,-3.530883789E-2
8.956459840E0,-7.040405273E-2,-6.986999512E-1,-5.021667480E-2
8.961403687E0,-5.975341797E-2,-6.816558838E-1,-6.086730957E-2
8.966317017E0,-5.230712891E-2,-6.646118164E-1,-6.832885742E-2
8.971230347E0,-5.017089844E-2,-6.411743164E-1,-7.258605957E-2
8.976143677E0,-4.377746582E-2,-6.124114990E-1,-7.153320312E-2
8.981087525E0,-4.165649414E-2,-5.889739990E-1,-6.300354004E-2
8.986000855E0,-4.270935059E-2,-5.772552490E-1,-5.342102051E-2
8.990914185E0,-4.698181152E-2,-5.697937012E-1,-4.063415527E-2
8.995858033E0,-4.698181152E-2,-5.644683838E-1,-2.359008789E-2
9.000771363E0,-4.591369629E-2,-5.591430664E-1,-1.187133789E-2
9.005684693E0,-5.230712891E-2,-5.559539795E-1,-3.356933594E-3
9.010628541E0,-5.975341797E-2,-5.474243164E-1,4.104614258E-3
9.015541871E0,-7.040405273E-2,-5.346374512E-1,1.049804688E-2
9.020455201E0,-8.744812012E-2,-5.175933838E-1,1.156616211E-2
9.025368531E0,-1.045074463E-1,-4.952239990E-1,8.361816406E-3
9.030312379E0,-1.204833984E-1,-4.707336426E-1,9.429931641E-3
9.035225709E0,-1.353912354E-1,-4.419708252E-1,1.049804688E-2
9.040139039E0,-1.460418701E-1,-4.153289795E-1,9.429931641E-3
9.045052369E0,-1.471099854E-1,-3.940277100E-1,1.475524902E-2
9.049996216E0,-1.492462158E-1,-3.727264404E-1,1.582336426E-2
9.054909547E0,-1.481781006E-1,-3.471527100E-1,1.156616211E-2
9.059822877E0,-1.502990723E-1,-3.183898926E-1,1.049804688E-2
9.064766724E0,-1.524353027E-1,-2.864379883E-1,8.361816406E-3
9.069680054E0,-1.513671875E-1,-2.566070557E-1,4.104614258E-3
9.074593384E0,-1.502990723E-1,-2.331695557E-1,-2.288818359E-3
9.079506715E0,-1.481781006E-1,-2.086791992E-1,-6.546020508E-3
9.084450562E0,-1.481781006E-1,-1.852416992E-1,-5.477905273E-3
9.089363892E0,-1.481781006E-1,-1.692504883E-1,-7.614135742E-3
9.094277222E0,-1.449737549E-1,-1.575469971E-1,-7.614135742E-3
9.099190552E0,-1.439208984E-1,-1.554107666E-1,-6.546020508E-3
9.104134400E0,-1.460418701E-1,-1.532745361E-1,-8.682250977E-3
9.109047730E0,-1.471099854E-1,-1.490173340E-1,-1.080322266E-2
9.113961060E0,-1.204833984E-1,-9.895324707E-2,-5.477905273E-3
9.118904908E0,1.884460449E-1,3.431396484E-1,-6.546020508E-3
9.123818238E0,2.438354492E-1,2.866821289E-1,-7.258605957E-2
9.128731568E0,-7.786560059E-2,-2.693939209E-1,-1.237182617E-1
9.133675416E0,-2.142181396E-1,-3.375701904E-1,-1.045532227E-1
9.138588746E0,-1.822662354E-1,-1.213226318E-1,-6.193542480E-2
9.143502076E0,-1.375274658E-1,-4.035949707E-2,-3.105163574E-2
9.148445924E0,-1.172790527E-1,-8.403015137E-2,-2.145385742E-2
9.153359254E0,-7.574462891E-2,-5.526733398E-2,-4.170227051E-2
9.158272584E0,5.218505859E-3,6.936645508E-2,-8.644104004E-2
9.163216431E0,5.955505371E-2,2.025146484E-1,-8.644104004E-2
9.168129761E0,5.955505371E-2,2.525939941E-1,-4.063415527E-2
9.173043091E0,6.286621094E-3,1.886749268E-1,-1.220703125E-3
9.177956422E0,-7.679748535E-2,7.894897461E-2,1.370239258E-2
9.182900269E0,-1.566925049E-1,2.674865723E-2,-1.612854004E-2
9.187813599E0,-1.822662354E-1,6.404113770E-2,-6.619262695E-2
9.192726929E0,-1.471099854E-1,1.087799072E-1,-9.815979004E-2
9.197670777E0,-9.278869629E-2,9.385681152E-2,-1.141357422E-1
9.202584107E0,-4.698181152E-2,2.142333984E-2,-1.173400879E-1
9.207497437E0,-1.501464844E-2,-5.633544922E-2,-1.109466553E-1
9.212441285E0,4.150390625E-3,-1.053466797E-1,-8.430480957E-2
9.217354615E0,1.693725586E-2,-1.245117188E-1,-5.021667480E-2
9.222267945E0,1.907348633E-2,-1.245117188E-1,-1.933288574E-2
9.227181275E0,1.374816895E-2,-9.788513184E-2,4.104614258E-3
9.232125123E0,-1.174926758E-3,-4.035949707E-2,1.795959473E-2
9.237038453E0,-1.715087891E-2,2.781677246E-2,2.221679688E-2
9.241951783E0,-2.886962891E-2,8.959960938E-2,1.475524902E-2
9.246895631E0,-2.886962891E-2,1.535186768E-1,1.156616211E-2
9.251808961E0,-3.419494629E-2,2.035827637E-1,7.308959961E-3
9.256722291E0,-3.952026367E-2,2.429962158E-1,9.155273438E-4
9.261635621E0,-4.058837891E-2,2.866821289E-1,-5.477905273E-3
9.266579468E0,-3.631591797E-2,3.314208984E-1,-1.506042480E-2
9.271492799E0,-2.886962891E-2,3.729553223E-1,-1.612854004E-2
9.276406129E0,-1.821899414E-2,4.017181396E-1,-2.252197266E-2
9.281349976E0,-5.432128906E-3,4.102478027E-1,-3.744506836E-2
9.286263306E0,1.054382324E-2,3.953247070E-1,-3.744506836E-2
9.291176636E0,2.972412109E-2,3.899993896E-1,-3.317260742E-2
9.296089966E0,4.463195801E-2,3.729553223E-1,-3.210449219E-2
9.301003297E0,5.422973633E-2,3.463287354E-1,-2.891540527E-2
9.305947144E0,6.062316895E-2,3.324890137E-1,-2.572631836E-2
9.310860474E0,6.167602539E-2,3.239593506E-1,-1.400756836E-2
9.315804322E0,6.062316895E-2,3.250274658E-1,3.036499023E-3
9.320717652E0,6.381225586E-2,3.441925049E-1,1.475524902E-2
9.325630982E0,6.062316895E-2,3.484649658E-1,2.754211426E-2
9.330544312E0,5.102539062E-2,3.495330811E-1,3.179931641E-2
9.335488160E0,4.144287109E-2,3.591156006E-1,3.607177734E-2
9.340401490E0,3.291320801E-2,3.516540527E-1,4.351806641E-2
9.345314820E0,2.226257324E-2,3.324890137E-1,4.672241211E-2
9.350258668E0,6.286621094E-3,3.133087158E-1,5.204772949E-2
9.355171998E0,-1.501464844E-2,2.930603027E-1,6.483459473E-2
9.360085328E0,-3.312683105E-2,2.792205811E-1,6.802368164E-2
9.364998658E0,-5.230712891E-2,2.579193115E-1,7.121276855E-2
9.369942506E0,-7.574462891E-2,2.302093506E-1,7.441711426E-2
9.374855836E0,-9.811401367E-2,1.993255615E-1,7.334899902E-2
9.379769166E0,-1.076965332E-1,1.918640137E-1,7.228088379E-2
9.384713013E0,-1.034393311E-1,1.971893311E-1,6.588745117E-2
9.389626343E0,-8.319091797E-2,2.089080811E-1,6.588745117E-2
9.394539674E0,-5.017089844E-2,2.291564941E-1,7.441711426E-2
9.399453004E0,-2.780151367E-2,2.238311768E-1,7.015991211E-2
9.404396851E0,-2.033996582E-2,2.110443115E-1,6.163024902E-2
9.409310181E0,-1.182556152E-2,2.131652832E-1,5.630493164E-2
9.414223511E0,2.029418945E-3,2.185058594E-1,5.949401855E-2
9.419167359E0,3.097534180E-3,2.078399658E-1,4.884338379E-2
9.424080689E0,9.613037109E-4,1.940002441E-1,4.139709473E-2
9.428994019E0,9.613037109E-4,1.886749268E-1,3.393554688E-2
9.433937867E0,2.029418945E-3,1.876068115E-1,2.967834473E-2
9.438851197E0,4.150390625E-3,1.833496094E-1,2.754211426E-2
9.443764527E0,1.054382324E-2,1.822814941E-1,2.861022949E-2
9.448708375E0,1.374816895E-2,1.801452637E-1,3.074645996E-2
9.453621705E0,1.161193848E-2,1.812133789E-1,3.286743164E-2
9.458535035E0,2.014160156E-2,1.950683594E-1,3.926086426E-2
9.463448365E0,2.653503418E-2,2.153015137E-1,4.565429688E-2
9.468392213E0,3.291320801E-2,2.302093506E-1,5.311584473E-2
9.473305543E0,4.676818848E-2,2.440643311E-1,6.056213379E-2
9.478218873E0,5.848693848E-2,2.600402832E-1,6.376647949E-2
9.483162720E0,6.806945801E-2,2.685699463E-1,6.588745117E-2
9.488076050E0,7.446289062E-2,2.792205811E-1,6.269836426E-2
9.492989381E0,7.339477539E-2,2.824096680E-1,5.311584473E-2
9.497902711E0,6.594848633E-2,2.813415527E-1,4.565429688E-2
9.502846558E0,5.955505371E-2,2.909393311E-1,3.712463379E-2
9.507759888E0,4.890441895E-2,2.962646484E-1,3.500366211E-2
9.512673218E0,4.037475586E-2,2.984008789E-1,3.607177734E-2
9.517617066E0,3.291320801E-2,2.962646484E-1,3.393554688E-2
9.522530396E0,2.758789062E-2,2.909393311E-1,3.286743164E-2
9.527443726E0,2.119445801E-2,2.845458984E-1,3.393554688E-2
9.532357056E0,1.907348633E-2,2.781524658E-1,3.926086426E-2
9.537300904E0,2.226257324E-2,2.738952637E-1,4.458618164E-2
9.542214234E0,2.546691895E-2,2.611083984E-1,5.204772949E-2
9.547127564E0,2.758789062E-2,2.472534180E-1,6.269836426E-2
9.552071412E0,2.972412109E-2,2.440643311E-1,7.015991211E-2
9.556984742E0,3.079223633E-2,2.472534180E-1,7.228088379E-2
9.561898072E0,2.226257324E-2,2.472534180E-1,7.334899902E-2
9.566811402E0,1.586914062E-2,2.525939941E-1,7.441711426E-2
9.571755250E0,9.490966797E-3,2.621765137E-1,7.121276855E-2
9.576668580E0,-2.227783203E-3,2.632446289E-1,6.695556641E-2
9.581581910E0,-1.394653320E-2,2.675018311E-1,6.376647949E-2
9.586525757E0,-2.140808105E-2,2.685699463E-1,6.588745117E-2
9.591439088E0,-4.165649414E-2,2.408752441E-1,8.293151855E-2
9.596352418E0,-5.870056152E-2,2.344818115E-1,9.358215332E-2
9.601296265E0,-6.721496582E-2,2.323455811E-1,9.358215332E-2
9.606209595E0,-6.935119629E-2,2.334136963E-1,9.571838379E-2
9.611122925E0,-7.360839844E-2,2.344818115E-1,1.021118164E-1
9.616036256E0,-1.204833984E-1,1.929321289E-1,1.255493164E-1
9.620980103E0,-1.886596680E-1,1.609802246E-1,1.351318359E-1
9.625893433E0,-2.163543701E-1,1.897430420E-1,1.319427490E-1
9.630806763E0,-2.227478027E-1,2.227630615E-1,1.180877686E-1
9.635750611E0,-2.333984375E-1,2.366027832E-1,1.031799316E-1
9.640663941E0,-2.440490723E-1,2.334136963E-1,8.081054688E-2
9.645577271E0,-2.568359375E-1,2.142333984E-1,5.523681641E-2
9.650490601E0,-2.653503418E-1,1.918640137E-1,2.435302734E-2
9.655434449E0,-2.717437744E-1,1.449890137E-1,-1.506042480E-2
9.660347779E0,-2.941131592E-1,5.444335938E-2,-8.004760742E-2
9.665261109E0,-3.473815918E-1,-6.486511230E-2,-1.450347900E-1
9.670204957E0,-3.974456787E-1,-1.564788818E-1,-1.855163574E-1
9.675118287E0,-4.123687744E-1,-1.799163818E-1,-2.174682617E-1
9.680031617E0,-3.921203613E-1,-1.575469971E-1,-2.323760986E-1
9.684944947E0,-3.601684570E-1,-1.479492188E-1,-2.164001465E-1
9.689888795E0,-3.164825439E-1,-1.490173340E-1,-1.695251465E-1
9.694802125E0,-2.749481201E-1,-1.511535645E-1,-9.390258789E-2
9.699715455E0,-2.451171875E-1,-1.490173340E-1,-1.293945312E-2
9.704659302E0,-2.227478027E-1,-1.405029297E-1,7.015991211E-2
9.709572632E0,-2.046356201E-1,-1.127929688E-1,1.585693359E-1
9.714485963E0,-1.907806396E-1,-6.379699707E-2,2.182312012E-1
9.719429810E0,-1.886596680E-1,-2.331542969E-2,2.416687012E-1
9.724343140E0,-1.939849854E-1,1.928710938E-2,2.459259033E-1
9.729256470E0,-1.993103027E-1,6.829833984E-2,2.448577881E-1
9.734169800E0,-1.993103027E-1,1.236877441E-1,2.448577881E-1
9.739113648E0,-1.886596680E-1,1.769561768E-1,2.395324707E-1
9.744026978E0,-1.758728027E-1,2.238311768E-1,2.331390381E-1
9.748940308E0,-1.630859375E-1,2.525939941E-1,2.267456055E-1
9.753884156E0,-1.566925049E-1,2.557830811E-1,2.160949707E-1
9.758797486E0,-1.535034180E-1,2.472534180E-1,2.065124512E-1
