"Time (s)","Gyroscope x (rad/s)","Gyroscope y (rad/s)","Gyroscope z (rad/s)"
6.837322900E-2,-1.573526382E0,1.220236659E0,1.628336310E-2
7.077307300E-2,-1.663934350E0,1.233675599E0,2.850065753E-2
7.317213600E-2,-1.751898885E0,1.253223300E0,3.583103418E-2
7.557036500E-2,-1.837419868E0,1.277657866E0,3.949622065E-2
7.796947900E-2,-1.919275761E0,1.308201194E0,3.583103418E-2
8.036932300E-2,-1.996244669E0,1.343631268E0,2.850065753E-2
8.276838600E-2,-2.071992159E0,1.375396252E0,1.994855143E-2
8.516661500E-2,-2.142852306E0,1.405939460E0,7.731257007E-3
8.756572900E-2,-2.212491035E0,1.435261011E0,-8.151225746E-3
8.996557300E-2,-2.282129526E0,1.454808712E0,-2.769889869E-2
9.236463600E-2,-2.345659494E0,1.465804219E0,-4.480310902E-2
9.476286500E-2,-2.406745911E0,1.469469428E0,-6.801597774E-2
9.716197900E-2,-2.462945461E0,1.456030369E0,-9.733748436E-2
9.956182300E-2,-2.516701698E0,1.432817578E0,-1.376545578E-1
1.019608860E-1,-2.565570831E0,1.391278744E0,-1.730847061E-1
1.043591150E-1,-2.608331203E0,1.272771001E0,-1.865237355E-1
1.067582290E-1,-2.642539740E0,1.090733290E0,-1.828585416E-1
1.091580210E-1,-2.674304724E0,9.086956978E-1,-1.791933477E-1
1.115571360E-1,-2.702404499E0,7.352101207E-1,-1.743064374E-1
1.139553130E-1,-2.728060722E0,5.727201104E-1,-1.694195122E-1
1.163544270E-1,-2.745164871E0,4.114517272E-1,-1.596456766E-1
1.187542710E-1,-2.757382393E0,2.514051795E-1,-1.474283934E-1
1.211533340E-1,-2.762269258E0,8.647172153E-2,-1.278807223E-1
1.235515630E-1,-2.758604050E0,-8.212694526E-2,-1.046678573E-1
1.259506770E-1,-2.743943214E0,-2.604994476E-1,-7.901152968E-2
1.283505210E-1,-2.718286991E0,-4.437588751E-1,-4.724657163E-2
1.307495840E-1,-2.684078455E0,-6.245747805E-1,-1.670333184E-2
1.331478130E-1,-2.646204948E0,-7.992820740E-1,1.872682199E-2
1.355469270E-1,-2.602222681E0,-9.678807259E-1,5.293524638E-2
1.379467710E-1,-2.555796862E0,-1.118153572E0,8.836539090E-2
1.403458340E-1,-2.510592937E0,-1.254987240E0,1.225738227E-1
1.427440630E-1,-2.461723804E0,-1.382047057E0,1.543387920E-1
1.451431770E-1,-2.411632776E0,-1.509106994E0,1.824385673E-1
1.475430210E-1,-2.360320330E0,-1.626392961E0,2.093166113E-1
1.499420840E-1,-2.311450958E0,-1.736348629E0,2.325294763E-1
1.523403130E-1,-2.262581825E0,-1.837752223E0,2.545205951E-1
1.547394270E-1,-2.216156244E0,-1.926938415E0,2.691813707E-1
1.571392710E-1,-2.177060843E0,-2.000242233E0,2.801769376E-1
1.595383340E-1,-2.136743784E0,-2.061328888E0,2.838421166E-1
1.619365630E-1,-2.100091934E0,-2.112641335E0,2.826204002E-1
1.643356770E-1,-2.062218189E0,-2.160288811E0,2.752900124E-1
1.667355210E-1,-2.021901131E0,-2.205492735E0,2.606292665E-1
1.691345840E-1,-1.979140520E0,-2.248253345E0,2.410815805E-1
1.715328130E-1,-1.940045118E0,-2.292235613E0,2.190904468E-1
1.739319270E-1,-1.894841194E0,-2.332552671E0,1.922124028E-1
1.763317710E-1,-1.847193718E0,-2.369204521E0,1.604474336E-1
1.787308340E-1,-1.800768018E0,-2.393639088E0,1.274607331E-1
1.811290630E-1,-1.750677109E0,-2.407078266E0,8.958712220E-2
1.835281770E-1,-1.698142767E0,-2.407078266E0,4.682659730E-2
1.859280210E-1,-1.643164873E0,-2.394860983E0,1.622609561E-3
1.883270840E-1,-1.586965322E0,-2.375313282E0,-4.724657163E-2
1.907253130E-1,-1.525878906E0,-2.344769955E0,-9.489402175E-2
1.931244270E-1,-1.459905505E0,-2.302009583E0,-1.486501247E-1
1.955242190E-1,-1.387823462E0,-2.247031689E0,-2.011844814E-1
1.979232820E-1,-1.298637271E0,-2.155401945E0,-2.549405694E-1
2.003215110E-1,-1.181351185E0,-1.969698906E0,-3.099184036E-1
2.027206250E-1,-1.044517517E0,-1.658157945E0,-3.575658500E-1
2.051204690E-1,-9.064621925E-1,-1.250100255E0,-3.929959834E-1
2.075195320E-1,-7.732936740E-1,-8.078342080E-1,-4.174305797E-1
2.099177610E-1,-6.474555135E-1,-3.924462497E-1,-4.333130717E-1
2.123168750E-1,-5.326129794E-1,-2.837084793E-2,-4.455303550E-1
2.147167190E-1,-4.275442362E-1,2.917222381E-1,-4.504172802E-1
2.171157820E-1,-3.408014476E-1,5.763852596E-1,-4.504172802E-1
2.195140110E-1,-2.650542259E-1,8.317267299E-1,-4.479738176E-1
2.219131250E-1,-2.076329142E-1,1.058968306E0,-4.418651760E-1
2.243129690E-1,-1.550985426E-1,1.260553718E0,-4.320913255E-1
2.267120320E-1,-1.098945588E-1,1.438926220E0,-4.223175049E-1
2.291102610E-1,-7.202094793E-2,1.595307589E0,-4.113219380E-1
2.315093750E-1,-3.903425485E-2,1.737028241E0,-3.954394460E-1
2.339092190E-1,-1.215620805E-2,1.867753267E0,-3.783352375E-1
2.363082820E-1,1.227838174E-2,1.983817458E0,-3.587875664E-1
2.387065110E-1,3.426950797E-2,2.086442709E0,-3.319095075E-1
2.411056250E-1,5.626064166E-2,2.179294109E0,-3.013662696E-1
2.435054690E-1,8.313868940E-2,2.257484913E0,-2.671578526E-1
2.459045320E-1,1.112384647E-1,2.310019255E0,-2.256190777E-1
2.483027610E-1,1.442251652E-1,2.335675478E0,-1.840802729E-1
2.507018750E-1,1.772118658E-1,2.330788612E0,-1.388762742E-1
2.531017190E-1,2.126420140E-1,2.297801971E0,-9.489402175E-2
2.555007820E-1,2.505156100E-1,2.242824078E0,-5.335521325E-2
2.578990110E-1,2.871674895E-1,2.163411617E0,-1.425987296E-2
2.602981250E-1,3.225976527E-1,2.054677725E0,1.994855143E-2
2.626979690E-1,3.555843234E-1,1.928839684E0,5.293524638E-2
2.650970320E-1,3.873493075E-1,1.782232165E0,8.347848058E-2
2.674952610E-1,4.191142619E-1,1.639289856E0,1.164651811E-1
2.698943750E-1,4.447705746E-1,1.535442829E0,1.531170607E-1
2.722942190E-1,4.667617083E-1,1.437704444E0,1.909906715E-1
2.746932820E-1,4.887528419E-1,1.325305343E0,2.325294763E-1
2.770915110E-1,5.046353340E-1,1.190915108E0,2.716248333E-1
2.794906250E-1,5.144091845E-1,1.038198948E0,3.131636381E-1
2.818904170E-1,5.217395425E-1,8.757089972E-1,3.547024131E-1
2.842894790E-1,5.266264677E-1,7.119972110E-1,3.974629641E-1
2.866877090E-1,5.351785421E-1,5.214074254E-1,4.499973357E-1
2.890868230E-1,5.535045266E-1,2.746180296E-1,5.147489905E-1
2.914866670E-1,5.681652427E-1,6.936750561E-2,5.807223916E-1
2.938857290E-1,5.730521679E-1,-9.190078080E-2,6.466957927E-1
2.962839590E-1,5.803825259E-1,-2.495038807E-1,7.077822089E-1
2.986830730E-1,5.901563764E-1,-4.376502335E-1,7.676469684E-1
3.010829170E-1,6.121475101E-1,-6.490093470E-1,8.226248026E-1
3.034819790E-1,6.378038526E-1,-8.554816246E-1,8.727157116E-1
3.058802090E-1,6.671253443E-1,-1.059510469E0,9.142544866E-1
3.082793230E-1,7.001120448E-1,-1.261095881E0,9.472411871E-1
3.106791670E-1,7.306552529E-1,-1.432137966E0,9.655671716E-1
3.130782290E-1,7.514246702E-1,-1.560419559E0,9.704540968E-1
3.154764590E-1,7.734158039E-1,-1.678927302E0,9.667888880E-1
3.178755730E-1,7.978503704E-1,-1.810874104E0,9.570150375E-1
3.202754170E-1,8.247284293E-1,-1.942820907E0,9.362456203E-1
3.226744790E-1,8.564934134E-1,-2.063772202E0,9.142544866E-1
3.250727090E-1,8.943670392E-1,-2.187166929E0,8.898199201E-1
3.274718230E-1,9.371275306E-1,-2.310561657E0,8.629418612E-1
3.298716670E-1,9.847750068E-1,-2.418073654E0,8.348420858E-1
3.322707290E-1,1.038531184E0,-2.499929667E0,8.018553853E-1
3.346689590E-1,1.094730735E0,-2.559794426E0,7.676469684E-1
3.370680730E-1,1.159482479E0,-2.604998350E0,7.285516262E-1
3.394679170E-1,1.230342746E0,-2.633098125E0,6.906780005E-1
3.418669790E-1,1.308533430E0,-2.651424170E0,6.528044343E-1
3.442652090E-1,1.396497965E0,-2.666084766E0,6.149308085E-1
3.466643230E-1,1.491792798E0,-2.677080393E0,5.770571828E-1
3.490641670E-1,1.591974616E0,-2.667306662E0,5.330749154E-1
3.514631770E-1,1.693378210E0,-2.647758961E0,4.842057526E-1
3.538614070E-1,1.791116595E0,-2.606220007E0,4.292279184E-1
3.562605210E-1,1.882746220E0,-2.546355247E0,3.669197261E-1
3.586603650E-1,1.964602113E0,-2.468164682E0,2.936159670E-1
3.610594270E-1,2.028131962E0,-2.374091625E0,2.154252529E-1
3.634576570E-1,2.075779438E0,-2.276353121E0,1.299041957E-1
3.658567710E-1,2.100214005E0,-2.179836512E0,4.193967953E-2
3.682566150E-1,2.108766079E0,-2.133410692E0,-4.113792256E-2
3.706556770E-1,2.089218378E0,-2.188388586E0,-1.095547676E-1
3.730539070E-1,2.048901320E0,-2.221375227E0,-1.804150790E-1
3.754530210E-1,1.989036679E0,-2.222597122E0,-2.524971068E-1
3.778528650E-1,1.909624338E0,-2.244588137E0,-3.196922243E-1
3.802519270E-1,1.811885953E0,-2.309339762E0,-3.820004165E-1
3.826501570E-1,1.705595493E0,-2.371648073E0,-4.455303550E-1
3.850492710E-1,1.593196392E0,-2.414408684E0,-5.102820396E-1
3.874491150E-1,1.477132082E0,-2.462055922E0,-5.738119483E-1
3.898481770E-1,1.365954757E0,-2.497486115E0,-6.385636330E-1
3.922464070E-1,1.262107730E0,-2.514590502E0,-7.008718252E-1
3.946455210E-1,1.161925912E0,-2.551242352E0,-7.582930923E-1
3.970453650E-1,1.071517944E0,-2.581785440E0,-8.120492101E-1
3.994444270E-1,9.872184396E-1,-2.603776693E0,-8.596966267E-1
4.018426570E-1,9.090277553E-1,-2.624546051E0,-9.049006104E-1
4.042417710E-1,8.369457126E-1,-2.645315409E0,-9.439959526E-1
4.066416150E-1,7.721940875E-1,-2.663641453E0,-9.769826531E-1
4.090406770E-1,7.123293281E-1,-2.684410810E0,-1.006304145E0
4.114389070E-1,6.597949862E-1,-2.702736616E0,-1.025851846E0
4.138380210E-1,6.121475101E-1,-2.694184542E0,-1.039290905E0
4.162378650E-1,5.706087351E-1,-2.626989603E0,-1.046621203E0
4.186369270E-1,5.302916169E-1,-2.513368607E0,-1.044177771E0
4.210351570E-1,4.973049760E-1,-2.355765581E0,-1.035625696E0
4.234342710E-1,4.643182456E-1,-2.179836512E0,-1.014856219E0
4.258341150E-1,4.362184703E-1,-2.018568277E0,-9.867565036E-1
4.282331250E-1,4.093404412E-1,-1.868295431E0,-9.501045942E-1
4.306313540E-1,3.739102781E-1,-1.692366362E0,-9.036788940E-1
4.330304690E-1,3.287062943E-1,-1.471233368E0,-8.511445522E-1
4.354303130E-1,2.847240269E-1,-1.241548181E0,-7.851711512E-1
4.378293750E-1,2.529590726E-1,-1.068062663E0,-6.996501088E-1
4.402276040E-1,2.444069982E-1,-9.813197851E-1,-5.982465148E-1
4.426267190E-1,2.651763558E-1,-9.568851590E-1,-4.919560552E-1
4.450265630E-1,3.152672648E-1,-9.519982338E-1,-3.746700585E-1
4.474256250E-1,3.873493075E-1,-9.617720842E-1,-2.500536442E-1
4.498238540E-1,4.740920961E-1,-9.739893675E-1,-1.119982302E-1
4.522229690E-1,5.669435263E-1,-9.874284267E-1,3.583103418E-2
4.546228130E-1,6.549080610E-1,-1.009419560E0,1.970993131E-1
4.570218750E-1,7.367638946E-1,-1.039962888E0,3.632545471E-1
4.594201040E-1,8.088459373E-1,-1.087610245E0,5.306314826E-1
4.618192190E-1,8.687106967E-1,-1.160914063E0,6.992301345E-1
4.642190630E-1,9.163581729E-1,-1.237882972E0,8.629418612E-1
4.666181250E-1,9.517883062E-1,-1.308743358E0,1.019323230E0
4.690163540E-1,9.798880816E-1,-1.362499356E0,1.165930748E0
4.714154690E-1,9.969924092E-1,-1.407703400E0,1.299099326E0
4.738153130E-1,1.006766200E0,-1.448020458E0,1.416385293E0
4.762143750E-1,1.006766200E0,-1.490780950E0,1.516567111E0
4.786126040E-1,9.957705736E-1,-1.534763217E0,1.599644780E0
4.810117190E-1,9.774446487E-1,-1.581189036E0,1.672948480E0
4.834115630E-1,9.505665898E-1,-1.626392961E0,1.736478448E0
4.858106250E-1,9.163581729E-1,-1.680149078E0,1.792677999E0
4.882088540E-1,8.772628307E-1,-1.736348629E0,1.845212340E0
4.906079690E-1,8.345022798E-1,-1.799878597E0,1.894081473E0
4.930077610E-1,7.929635048E-1,-1.867073655E0,1.938063741E0
4.954068230E-1,7.502029538E-1,-1.939155698E0,1.974715710E0
4.978050520E-1,7.074424028E-1,-2.013681173E0,2.008924246E0
5.002041670E-1,6.646819115E-1,-2.097980738E0,2.037024021E0
5.026040110E-1,6.268082857E-1,-2.181058168E0,2.057793379E0
5.050030730E-1,5.864912271E-1,-2.259248972E0,2.070010662E0
5.074013020E-1,5.473958850E-1,-2.338661432E0,2.076119423E0
5.098004170E-1,5.119656920E-1,-2.426625967E0,2.073675871E0
5.122002610E-1,4.814224541E-1,-2.514590502E0,2.062680244E0
5.145993230E-1,4.533226788E-1,-2.604998350E0,2.044354439E0
5.169975520E-1,4.288881123E-1,-2.683189154E0,2.018697977E0
5.193966670E-1,4.081186950E-1,-2.750384092E0,1.990598202E0
5.217965110E-1,3.910144866E-1,-2.810248852E0,1.953946233E0
5.241955730E-1,3.812406659E-1,-2.856674671E0,1.911185741E0
5.265938020E-1,3.775754571E-1,-2.876222372E0,1.864760041E0
5.289929170E-1,3.763537407E-1,-2.865226746E0,1.823221207E0
5.313927610E-1,3.824623823E-1,-2.846900702E0,1.779238939E0
5.337918230E-1,3.983448744E-1,-2.846900702E0,1.730369806E0
5.361900520E-1,4.203360081E-1,-2.837126970E0,1.688830972E0
5.385891670E-1,4.423271120E-1,-2.822466135E0,1.653400779E0
5.409890110E-1,4.679834545E-1,-2.816357613E0,1.624079347E0
5.433880730E-1,4.985266924E-1,-2.821244478E0,1.598423004E0
5.457863020E-1,5.327351093E-1,-2.837126970E0,1.572766662E0
5.481854170E-1,5.681652427E-1,-2.867670298E0,1.545888662E0
5.505852610E-1,6.060388684E-1,-2.915317774E0,1.520232320E0
5.529843230E-1,6.487994194E-1,-2.986177921E0,1.494575977E0
5.553825520E-1,6.940034032E-1,-3.063146830E0,1.470141411E0
5.577816670E-1,7.416508198E-1,-3.146224499E0,1.443263412E0
5.601814590E-1,7.905200124E-1,-3.230523825E0,1.416385293E0
5.625805210E-1,8.418326378E-1,-3.322153568E0,1.389507294E0
5.649787500E-1,9.004756808E-1,-3.418670177E0,1.368737817E0
5.673778650E-1,9.578969479E-1,-3.522517204E0,1.350411892E0
5.697777090E-1,1.021427035E0,-3.637359858E0,1.334529400E0
5.721767710E-1,1.087400436E0,-3.747315407E0,1.317425251E0
5.745750000E-1,1.155817270E0,-3.841388464E0,1.303986192E0
5.769741150E-1,1.219347119E0,-3.917135715E0,1.295434117E0
5.793739590E-1,1.277990222E0,-3.963561535E0,1.292990685E0
5.817730210E-1,1.325637579E0,-3.983109236E0,1.297877550E0
5.841712500E-1,1.362289548E0,-3.980665684E0,1.308873177E0
5.865703650E-1,1.384280682E0,-3.955009460E0,1.325977325E0
5.889702090E-1,1.392832756E0,-3.907361984E0,1.352855325E0
5.913692710E-1,1.385502338E0,-3.842610359E0,1.385842085E0
5.937675000E-1,1.363511205E0,-3.763197899E0,1.423715711E0
5.961666150E-1,1.329302788E0,-3.677676916E0,1.465254545E0
5.985664590E-1,1.284098864E0,-3.587268829E0,1.510458469E0
6.009655210E-1,1.230342746E0,-3.500525951E0,1.558105946E0
6.033637500E-1,1.168034554E0,-3.411339760E0,1.609418511E0
6.057628650E-1,1.099617720E0,-3.330705643E0,1.666839838E0
6.081627090E-1,1.025092244E0,-3.254958391E0,1.727926373E0
6.105617710E-1,9.469013810E-1,-3.174324274E0,1.792677999E0
6.129600000E-1,8.662672639E-1,-3.093690157E0,1.861094832E0
6.153591150E-1,7.831896544E-1,-3.011834383E0,1.929511666E0
6.177589590E-1,7.062206864E-1,-2.931200027E0,1.999150276E0
6.201580210E-1,6.304734349E-1,-2.860339880E0,2.072454214E0
6.225561980E-1,5.596131682E-1,-2.804140329E0,2.145757914E0
6.249553130E-1,4.924180508E-1,-2.763823271E0,2.223948479E0
6.273551570E-1,4.374402165E-1,-2.740610361E0,2.304582834E0
6.297542190E-1,3.885710239E-1,-2.733279943E0,2.386438608E0
6.321524480E-1,3.506974280E-1,-2.738166809E0,2.470737934E0
6.345515630E-1,3.213759065E-1,-2.762601376E0,2.558702469E0
6.369514070E-1,3.018282354E-1,-2.800475121E0,2.646667004E0
6.393504690E-1,2.883892059E-1,-2.856674671E0,2.732187986E0
6.417486980E-1,2.871674895E-1,-2.925091505E0,2.818930864E0
6.441478130E-1,2.908326685E-1,-3.003282070E0,2.908117056E0
6.465476570E-1,3.067151606E-1,-3.094911814E0,2.998525143E0
6.489467190E-1,3.335931897E-1,-3.198758841E0,3.093819857E0
6.513449480E-1,3.690233529E-1,-3.297719002E0,3.192780018E0
6.537440630E-1,4.154490829E-1,-3.391792059E0,3.289296627E0
6.561439070E-1,4.704269171E-1,-3.490752220E0,3.385813236E0
6.585429690E-1,5.351785421E-1,-3.590934038E0,3.485995054E0
6.609411980E-1,6.219213605E-1,-3.638581514E0,3.581290007E0
6.633403130E-1,7.208814621E-1,-3.681342125E0,3.674141407E0
6.657401570E-1,8.173980713E-1,-3.791297674E0,3.762105942E0
6.681392190E-1,9.090277553E-1,-3.896366358E0,3.837853193E0
6.705374480E-1,9.994358420E-1,-3.967226744E0,3.896496296E0
6.729365630E-1,1.088622093E0,-4.080847263E0,3.949030638E0
6.753364070E-1,1.160704136E0,-4.249445915E0,3.995456219E0
6.777354690E-1,1.225455761E0,-4.364288330E0,4.023555756E0
6.801336980E-1,1.287764072E0,-4.477909565E0,4.054099083E0
6.825328130E-1,1.336633205E0,-4.679494858E0,4.093194485E0
6.849326040E-1,1.375728488E0,-4.855423927E0,4.123737812E0
6.873316670E-1,1.405050039E0,-5.036239624E0,4.164054871E0
6.897298960E-1,1.434371591E0,-5.263481617E0,4.223919392E0
6.921290110E-1,1.468580008E0,-5.457736492E0,4.296001434E0
6.945288540E-1,1.510118723E0,-5.595791817E0,4.374192238E0
6.969279170E-1,1.541883707E0,-5.704525948E0,4.456048012E0
6.993261460E-1,1.569983482E0,-5.793712139E0,4.534238815E0
7.017252610E-1,1.585865974E0,-5.864572525E0,4.609985828E0
7.041251040E-1,1.593196392E0,-5.909776211E0,4.684511662E0
7.065241670E-1,1.591974616E0,-5.937876225E0,4.755371571E0
7.089223960E-1,1.585865974E0,-5.954980373E0,4.825010300E0
7.113215110E-1,1.577313900E0,-5.963532448E0,4.892205238E0
7.137213540E-1,1.565096617E0,-5.956202030E0,4.958178997E0
7.161204170E-1,1.549214125E0,-5.941541195E0,5.020486832E0
7.185186460E-1,1.530888200E0,-5.910997868E0,5.084016800E0
7.209177610E-1,1.508897066E0,-5.882898331E0,5.145103455E0
7.233176040E-1,1.479575515E0,-5.857242107E0,5.201303005E0
7.257166670E-1,1.452697515E0,-5.818146706E0,5.257502556E0
7.281148960E-1,1.424597740E0,-5.769277573E0,5.314923763E0
7.305140110E-1,1.398941398E0,-5.716742992E0,5.369901657E0
7.329138540E-1,1.372063398E0,-5.658100128E0,5.422436237E0
7.353129170E-1,1.347628713E0,-5.590904713E0,5.472527027E0
7.377111460E-1,1.321972489E0,-5.518822670E0,5.512844086E0
7.401102610E-1,1.302424788E0,-5.436966896E0,5.548274040E0
7.425100520E-1,1.288985729E0,-5.349002361E0,5.577595711E0
7.449091150E-1,1.279211879E0,-5.251264095E0,5.598365307E0
7.473073440E-1,1.271881580E0,-5.151082516E0,5.614247322E0
7.497064590E-1,1.273103237E0,-5.052122116E0,5.624021530E0
7.521063020E-1,1.273103237E0,-4.947053432E0,5.625243187E0
7.545053650E-1,1.274325013E0,-4.838319778E0,5.625243187E0
7.569035940E-1,1.281655431E0,-4.727142334E0,5.619134426E0
7.593027090E-1,1.290207505E0,-4.618408203E0,5.603251934E0
7.617025520E-1,1.302424788E0,-4.514561176E0,5.582482815E0
7.641016150E-1,1.314642072E0,-4.413157940E0,5.554382801E0
7.664998440E-1,1.328081131E0,-4.314197540E0,5.520174503E0
7.688989590E-1,1.335411429E0,-4.218902588E0,5.477413654E0
7.712988020E-1,1.341520071E0,-4.123607635E0,5.428544521E0
7.736978650E-1,1.340298414E0,-4.030756474E0,5.379675388E0
7.760960940E-1,1.334189773E0,-3.926909685E0,5.323475838E0
7.784952090E-1,1.317085505E0,-3.818175793E0,5.267276287E0
7.808950520E-1,1.293872714E0,-3.696002722E0,5.208633423E0
7.832941150E-1,1.260885954E0,-3.565277815E0,5.152433872E0
7.856923440E-1,1.220568895E0,-3.421113729E0,5.095012665E0
7.880914590E-1,1.176586628E0,-3.268397570E0,5.040034771E0
7.904913020E-1,1.128939152E0,-3.098577023E0,4.987500191E0
7.928903650E-1,1.078848243E0,-2.916539431E0,4.936187744E0
7.952885940E-1,1.028757334E0,-2.725949526E0,4.887318611E0
7.976877090E-1,9.762228727E-1,-2.537803173E0,4.837227821E0
8.000875520E-1,9.212450385E-1,-2.355765581E0,4.788358688E0
8.024865630E-1,8.650454879E-1,-2.171284437E0,4.740711212E0
8.048847920E-1,8.161763549E-1,-1.979472756E0,4.690619946E0
8.072839070E-1,7.746375203E-1,-1.783996105E0,4.639307499E0
8.096837500E-1,7.428725958E-1,-1.581189036E0,4.589216709E0
8.120828130E-1,7.172162533E-1,-1.382047057E0,4.537903786E0
8.144810420E-1,6.976685524E-1,-1.189013839E0,4.485369682E0
8.168801570E-1,6.805643439E-1,-9.959805012E-1,4.429170132E0
8.192800000E-1,6.622384191E-1,-8.139428496E-1,4.371748924E0
8.216790630E-1,6.402472854E-1,-6.331268549E-1,4.309440613E0
8.240772920E-1,6.145910025E-1,-4.596413672E-1,4.247132301E0
8.264764070E-1,5.864912271E-1,-2.959296107E-1,4.182380676E0
8.288762500E-1,5.522827506E-1,-1.432134211E-1,4.113963604E0
8.312753130E-1,5.131874084E-1,-2.714530099E-3,4.044325352E0
8.336735420E-1,4.679834545E-1,1.353408992E-1,3.974686861E0
8.360726570E-1,4.203360081E-1,2.697311342E-1,3.898939610E0
8.384725000E-1,3.714668155E-1,4.077865481E-1,3.824414253E0
8.408715630E-1,3.213759065E-1,5.470637679E-1,3.747445107E0
8.432697920E-1,2.749502063E-1,6.863409281E-1,3.672919750E0
8.456689070E-1,2.321896851E-1,8.256180882E-1,3.600837708E0
8.480687500E-1,1.918726265E-1,9.661169648E-1,3.529977322E0
8.504677610E-1,1.539990008E-1,1.099285364E0,3.460338831E0
8.528659900E-1,1.210123152E-1,1.226345301E0,3.389478445E0
8.552651040E-1,8.924733102E-2,1.355848551E0,3.324726820E0
8.576649480E-1,5.381717905E-2,1.484130144E0,3.264862061E0
8.600640110E-1,2.205221727E-2,1.603859663E0,3.204997301E0
8.624622400E-1,-1.093447860E-2,1.715037107E0,3.151241302E0
8.648613540E-1,-4.392117634E-2,1.815218806E0,3.104815483E0
8.672611980E-1,-7.568614185E-2,1.901961684E0,3.057168007E0
8.696602610E-1,-1.098945588E-1,1.971600175E0,3.009520531E0
8.720584900E-1,-1.453247070E-1,2.029021502E0,2.964316607E0
8.744576040E-1,-1.819765866E-1,2.068116665E0,2.919112682E0
8.768574480E-1,-2.235153913E-1,2.101103544E0,2.881238937E0
8.792565110E-1,-2.674976885E-1,2.129203320E0,2.842143774E0
8.816547400E-1,-3.114799261E-1,2.148750782E0,2.805491924E0
8.840538540E-1,-3.591274023E-1,2.171963692E0,2.768839836E0
8.864536980E-1,-4.043313861E-1,2.190289736E0,2.738296747E0
8.888527610E-1,-4.519788325E-1,2.204950333E0,2.712640285E0
8.912509900E-1,-5.008479953E-1,2.219611168E0,2.690649271E0
8.936501040E-1,-5.509389043E-1,2.230606794E0,2.674766779E0
8.960499480E-1,-5.985863805E-1,2.236715317E0,2.660105944E0
8.984490110E-1,-6.425686479E-1,2.234272003E0,2.652775526E0
9.008472400E-1,-6.853291392E-1,2.229385138E0,2.646667004E0
9.032463540E-1,-7.244244814E-1,2.213502645E0,2.645445347E0
9.056461460E-1,-7.586328983E-1,2.193954945E0,2.646667004E0
9.080452090E-1,-7.879544497E-1,2.167076826E0,2.649110556E0
9.104434380E-1,-8.148324490E-1,2.132868290E0,2.652775526E0
9.128425520E-1,-8.392670751E-1,2.091329575E0,2.660105944E0
9.152423960E-1,-8.563712835E-1,2.041238785E0,2.667436361E0
9.176414590E-1,-8.698102832E-1,1.981374145E0,2.683318853E0
9.200396880E-1,-8.722537756E-1,1.921509385E0,2.696757793E0
9.224388020E-1,-8.637016416E-1,1.861644626E0,2.701644897E0
9.248386460E-1,-8.453757167E-1,1.800558090E0,2.704088211E0
9.272377090E-1,-8.184976578E-1,1.733363032E0,2.696757793E0
9.296359380E-1,-7.806240320E-1,1.662502646E0,2.684540510E0
9.320350520E-1,-7.366417646E-1,1.585533738E0,2.664992809E0
9.344348960E-1,-6.853291392E-1,1.503677845E0,2.638114929E0
9.368339590E-1,-6.327947974E-1,1.416935086E0,2.606349945E0
9.392321880E-1,-5.802603960E-1,1.324083686E0,2.572141409E0
9.416313020E-1,-5.277260542E-1,1.231232166E0,2.539154768E0
9.440311460E-1,-4.751916826E-1,1.137158990E0,2.503724575E0
9.464302090E-1,-4.238790572E-1,1.044307590E0,2.467072725E0
9.488284380E-1,-3.762316108E-1,9.563431144E-1,2.430420876E0
9.512275520E-1,-3.285841644E-1,8.732655048E-1,2.394990683E0
9.536273960E-1,-2.821584344E-1,7.975183129E-1,2.360782385E0
9.560264070E-1,-2.381761372E-1,7.291014791E-1,2.327795506E0
9.584246360E-1,-1.978590786E-1,6.667932272E-1,2.298474073E0
9.608237500E-1,-1.538768113E-1,6.130371690E-1,2.270374298E0
9.632235940E-1,-1.123380214E-1,5.641679764E-1,2.244718075E0
9.656226570E-1,-7.079921663E-2,5.250726342E-1,2.216618299E0
9.680208860E-1,-3.170387819E-2,4.871989489E-1,2.188518524E0
9.704200000E-1,6.169733591E-3,4.529905319E-1,2.159196854E0
9.728198440E-1,4.037815705E-2,4.285559356E-1,2.129875422E0
9.752189070E-1,7.580831647E-2,4.090082645E-1,2.099332094E0
9.776171360E-1,1.063515395E-1,3.980126977E-1,2.066345453E0
9.800162500E-1,1.283426881E-1,3.894605935E-1,2.026028395E0
9.824160940E-1,1.454468966E-1,3.870171607E-1,1.983267784E0
9.848151570E-1,1.588859260E-1,3.870171607E-1,1.931955099E0
9.872133860E-1,1.662162989E-1,3.955692649E-1,1.875755548E0
9.896125000E-1,1.662162989E-1,4.114517272E-1,1.815890789E0
9.920123440E-1,1.649945676E-1,4.322211444E-1,1.749917507E0
9.944114070E-1,1.588859260E-1,4.505470693E-1,1.679057121E0
9.968096360E-1,1.539990008E-1,4.554339945E-1,1.600866437E0
9.992087500E-1,1.442251652E-1,4.114517272E-1,1.511680245E0
1.001608542E0,1.417817175E-1,3.919040561E-1,1.417607069E0
1.004007604E0,1.356730610E-1,3.821302354E-1,1.322312117E0
1.006405834E0,1.173471063E-1,3.589173555E-1,1.233125925E0
1.008804948E0,1.026863605E-1,3.515869975E-1,1.142717957E0
1.011204792E0,9.291252494E-2,3.576956391E-1,1.049866438E0
1.013603854E0,9.657770395E-2,3.784650564E-1,9.545716047E-1
1.016002084E0,1.075732708E-1,4.077865481E-1,8.543897867E-1
1.018401198E0,1.246774942E-1,4.554339945E-1,7.493210435E-1
1.020801042E0,1.466686279E-1,5.165205002E-1,6.405870914E-1
1.023200104E0,1.723249555E-1,5.873808265E-1,5.318531990E-1
1.025598334E0,2.004247308E-1,6.655715108E-1,4.206758142E-1
1.027997448E0,2.309679687E-1,7.535360456E-1,3.119418919E-1
1.030397292E0,2.663980722E-1,8.634917140E-1,2.093166113E-1
1.032796354E0,3.030499816E-1,9.795560241E-1,1.066913456E-1
1.035194584E0,3.372583985E-1,1.054081440E0,1.622609561E-3
1.037593698E0,3.653581738E-1,1.096841931E0,-1.010026634E-1
1.039993542E0,3.836840987E-1,1.107837558E0,-2.011844814E-1
1.042392604E0,4.007883370E-1,1.093176723E0,-2.977010906E-1
1.044790834E0,4.130056202E-1,1.063855290E0,-3.856656253E-1
1.047189948E0,4.215577245E-1,1.016207814E0,-4.662997723E-1
1.049589740E0,4.313315749E-1,9.624517560E-1,-5.371600389E-1
1.051988802E0,4.423271120E-1,9.111391306E-1,-6.019117236E-1
1.054387032E0,4.533226788E-1,8.610482216E-1,-6.568895578E-1
1.056786146E0,4.667617083E-1,8.182876706E-1,-7.033152580E-1
1.059185990E0,4.826442003E-1,7.853010297E-1,-7.448540926E-1
1.061585052E0,4.997484088E-1,7.584229708E-1,-7.827276587E-1
1.063983282E0,5.217395425E-1,7.315449119E-1,-8.169361353E-1
1.066382396E0,5.473958850E-1,6.948930025E-1,-8.462576270E-1
1.068782240E0,5.816043019E-1,6.362500191E-1,-8.719139099E-1
1.071181302E0,6.145910025E-1,5.531724095E-1,-8.902398944E-1
1.073579532E0,6.549080610E-1,4.481036067E-1,-9.012354612E-1
1.075978646E0,6.927816868E-1,3.149351180E-1,-9.049006104E-1
1.078378490E0,7.294335365E-1,1.548885703E-1,-8.975702524E-1
1.080777552E0,7.611985207E-1,-2.714911848E-2,-8.829094768E-1
1.083175782E0,7.905200124E-1,-2.189606428E-1,-8.596966267E-1
1.085574896E0,8.186197877E-1,-3.985548913E-1,-8.364837766E-1
1.087974688E0,8.479412794E-1,-5.463840961E-1,-8.218230009E-1
1.090373802E0,8.735976219E-1,-6.538962722E-1,-8.132709265E-1
1.092771979E0,8.907018304E-1,-7.272000313E-1,-8.096057177E-1
1.095171094E0,8.980321884E-1,-7.833995819E-1,-8.083840013E-1
1.097570938E0,9.004756808E-1,-8.652554750E-1,-8.157143593E-1
1.099970000E0,9.139146805E-1,-9.238984585E-1,-8.352620602E-1
1.102368229E0,9.346840978E-1,-9.141246676E-1,-8.487010598E-1
1.104767344E0,9.517883062E-1,-8.823596835E-1,-8.548097014E-1
1.107167188E0,9.701142311E-1,-8.823596835E-1,-8.658052683E-1
1.109566250E0,9.969924092E-1,-8.884683251E-1,-8.743574023E-1
1.111964479E0,1.028757334E0,-8.945769668E-1,-8.853529692E-1
1.114363594E0,1.062965751E0,-9.080160260E-1,-9.000136852E-1
1.116763438E0,1.097174168E0,-9.373375177E-1,-9.207831025E-1
1.119162500E0,1.132604361E0,-9.764328599E-1,-9.452177286E-1
1.121560729E0,1.172921419E0,-1.022858620E0,-9.659870863E-1
1.123959844E0,1.214460254E0,-1.072949529E0,-9.843130112E-1
1.126359688E0,1.260885954E0,-1.127927303E0,-9.989738464E-1
1.128758750E0,1.308533430E0,-1.181683421E0,-1.009969354E0
1.131156979E0,1.361067772E0,-1.231774330E0,-1.018521428E0
1.133556094E0,1.422154307E0,-1.283087015E0,-1.027073622E0
1.135955886E0,1.488127589E0,-1.340508342E0,-1.039290905E0
1.138354948E0,1.556544542E0,-1.401594758E0,-1.052729845E0
1.140753177E0,1.632291675E0,-1.468789935E0,-1.069834113E0
1.143152292E0,1.716591001E0,-1.545758843E0,-1.089381814E0
1.145552136E0,1.800890326E0,-1.628836393E0,-1.107707739E0
1.147951198E0,1.888854861E0,-1.718022704E0,-1.124811888E0
1.150349427E0,1.971932530E0,-1.815761089E0,-1.148024797E0
1.152748542E0,2.044014454E0,-1.915942907E0,-1.166350722E0
1.155148386E0,2.092883587E0,-2.016124725E0,-1.181011438E0
1.157547448E0,2.111209631E0,-2.104089260E0,-1.184676647E0
1.159945677E0,2.072114229E0,-2.145628214E0,-1.172459364E0
1.162344792E0,1.954828262E0,-2.121193409E0,-1.132142305E0
1.164744636E0,1.758129835E0,-2.033229113E0,-1.062503695E0
1.167143698E0,1.495458007E0,-1.906169057E0,-9.745392203E-1
1.169541927E0,1.197355986E0,-1.755896330E0,-8.792443275E-1
1.171941042E0,8.968104720E-1,-1.598293185E0,-7.937232256E-1
1.174340886E0,6.402472854E-1,-1.481007218E0,-7.363019586E-1
1.176739948E0,4.301098287E-1,-1.406481624E0,-7.082021832E-1
1.179138177E0,2.725067437E-1,-1.360055923E0,-7.143108249E-1
1.181537240E0,1.552207321E-1,-1.339286566E0,-7.521844506E-1
1.183937084E0,7.947349548E-2,-1.350282073E0,-8.181578517E-1
1.186336146E0,4.159988835E-2,-1.393042684E0,-9.024571776E-1
1.188734375E0,2.571740374E-2,-1.466346383E0,-9.940868616E-1
1.191133490E0,4.404334351E-2,-1.553089261E0,-1.105264306E0
1.193533334E0,7.947349548E-2,-1.647162318E0,-1.227437258E0
1.195932396E0,1.307861507E-1,-1.746122479E0,-1.355718732E0
1.198330625E0,1.820987761E-1,-1.831643462E0,-1.492552519E0
1.200729740E0,2.419635355E-1,-1.931825280E0,-1.631829619E0
1.203129584E0,2.981630564E-1,-2.041781187E0,-1.777215481E0
1.205528646E0,3.494756818E-1,-2.157845497E0,-1.944592357E0
1.207926875E0,4.044535160E-1,-2.293457270E0,-2.133960247E0
1.210325990E0,4.447705746E-1,-2.443730116E0,-2.322106600E0
1.212725834E0,4.643182456E-1,-2.583007336E0,-2.498035669E0
1.215124896E0,4.716486335E-1,-2.741832018E0,-2.686182022E0
1.217523125E0,4.740920961E-1,-2.962965012E0,-2.885324001E0
1.219922240E0,4.692051709E-1,-3.132785559E0,-3.060031176E0
1.222322032E0,4.349967539E-1,-3.248849869E0,-3.180982351E0
1.224721094E0,3.641364276E-1,-3.268397570E0,-3.249399424E0
1.227119323E0,2.737284601E-1,-3.206089258E0,-3.267725229E0
1.229518438E0,1.820987761E-1,-3.107129097E0,-3.251842737E0
1.231918282E0,1.014646292E-1,-2.967852116E0,-3.228629827E0
1.234317344E0,5.015199259E-2,-2.839570522E0,-3.228629827E0
1.236715573E0,1.960875839E-2,-2.761379719E0,-3.251842737E0
1.239114688E0,-6.047560833E-3,-2.733279943E0,-3.289716482E0
1.241514532E0,-2.437350154E-2,-2.774818659E0,-3.336142063E0
1.243913594E0,-3.903425485E-2,-2.859117985E0,-3.366685390E0
1.246311823E0,-4.636463150E-2,-2.972738981E0,-3.377681017E0
1.248710938E0,-4.269944504E-2,-3.069255590E0,-3.389898300E0
1.251110782E0,-3.536906838E-2,-3.120568275E0,-3.409445763E0
1.253509844E0,-3.170387819E-2,-3.130342007E0,-3.425328255E0
1.255908073E0,-9.712749161E-3,-3.114459515E0,-3.427771807E0
1.258307188E0,2.938259020E-2,-3.087581396E0,-3.408224106E0
1.260707032E0,8.680386841E-2,-3.043599129E0,-3.370350599E0
1.263106094E0,1.405599862E-1,-2.992286682E0,-3.305598974E0
1.265504323E0,1.918726265E-1,-2.945860863E0,-3.216412544E0
1.267903438E0,2.260810435E-1,-2.899435282E0,-3.112565517E0
1.270303229E0,2.554025054E-1,-2.860339880E0,-3.006275177E0
1.272702292E0,2.676198184E-1,-2.838348627E0,-2.892654419E0
1.275100521E0,2.761719227E-1,-2.839570522E0,-2.777811766E0
1.277499636E0,2.981630564E-1,-2.835905313E0,-2.669077873E0
1.279899479E0,3.274845481E-1,-2.806583643E0,-2.567674398E0
1.282298542E0,3.568060696E-1,-2.763823271E0,-2.469935894E0
1.284696771E0,3.910144866E-1,-2.714954138E0,-2.375862837E0
1.287095886E0,4.276663661E-1,-2.653867483E0,-2.295228720E0
1.289495729E0,4.838659167E-1,-2.597667933E0,-2.202377081E0
1.291894792E0,5.583914518E-1,-2.553685665E0,-2.091199875E0
1.294293021E0,6.426907778E-1,-2.513368607E0,-1.975135565E0
1.296692136E0,7.147728205E-1,-2.490155697E0,-1.861514807E0
1.299091979E0,7.868548036E-1,-2.485268831E0,-1.752780914E0
1.301491042E0,8.430543542E-1,-2.490155697E0,-1.652599096E0
1.303889271E0,8.870366216E-1,-2.497486115E0,-1.557304144E0
1.306288334E0,9.090277553E-1,-2.497486115E0,-1.466896176E0
1.308688177E0,9.212450385E-1,-2.462055922E0,-1.382596850E0
1.311087240E0,9.200233221E-1,-2.391195774E0,-1.304406166E0
1.313485469E0,9.139146805E-1,-2.289792299E0,-1.229880691E0
1.315884584E0,8.955887556E-1,-2.176171303E0,-1.162685513E0
1.318284427E0,8.613803387E-1,-2.055220127E0,-1.108929396E0
1.320683490E0,8.173980713E-1,-1.925716639E0,-1.066168904E0
1.323081719E0,7.538681030E-1,-1.807208896E0,-1.060060263E0
1.325480573E0,6.903381944E-1,-1.682592511E0,-1.040512562E0
1.327880677E0,6.280300021E-1,-1.553089261E0,-1.005082488E0
1.330279740E0,5.571696758E-1,-1.424807668E0,-9.586567283E-1
1.332677969E0,4.789790213E-1,-1.291639090E0,-9.012354612E-1
1.335077084E0,4.215577245E-1,-1.163357496E0,-8.340403438E-1
1.337476927E0,3.568060696E-1,-1.039962888E0,-7.570713758E-1
1.339875990E0,2.944978476E-1,-9.190115929E-1,-6.874327660E-1
1.342274219E0,2.285245061E-1,-8.017255664E-1,-6.202376485E-1
1.344673334E0,1.588859260E-1,-6.954351068E-1,-5.518208146E-1
1.347073125E0,9.413425624E-2,-6.038053632E-1,-4.846256971E-1
1.349472188E0,2.816086262E-2,-5.353885293E-1,-4.186522961E-1
1.351870417E0,-3.536906838E-2,-4.804107547E-1,-3.539006412E-1
1.354269532E0,-9.523381293E-2,-4.229894876E-1,-2.903707027E-1
1.356669375E0,-1.550985426E-1,-3.716768324E-1,-2.182886899E-1
1.359068438E0,-1.905286908E-1,-3.081468940E-1,-1.510935724E-1
1.361466667E0,-2.345109582E-1,-2.604994476E-1,-9.122882783E-2
1.363865782E0,-2.723845840E-1,-2.201823741E-1,-2.525543608E-2
1.366265625E0,-3.029278219E-1,-1.786435694E-1,4.804832861E-2
1.368664688E0,-3.200320601E-1,-1.407699585E-1,1.262390167E-1
1.371062917E0,-3.285841644E-1,-1.016746163E-1,2.093166113E-1
1.373462032E0,-3.285841644E-1,-6.135754287E-2,2.948376834E-1
1.375861875E0,-3.310276270E-1,-3.325776756E-2,3.681414425E-1
1.378260938E0,-3.212537766E-1,-1.248836517E-2,4.170106351E-1
1.380659167E0,-3.090364933E-1,2.294179052E-2,4.646580815E-1
1.383058282E0,-2.992626429E-1,7.303269207E-2,5.220793486E-1
1.385458125E0,-2.955974638E-1,1.328974366E-1,5.892744660E-1
1.387857136E0,-3.004843891E-1,1.915404499E-1,6.625782251E-1
1.390255365E0,-3.151451349E-1,2.538486421E-1,7.407689095E-1
1.392654479E0,-3.420231640E-1,3.332610428E-1,8.201813698E-1
1.395054323E0,-3.823402524E-1,4.138951898E-1,9.020372033E-1
1.397453386E0,-4.348746240E-1,4.994162619E-1,9.875583053E-1
1.399851615E0,-4.947393537E-1,5.873808265E-1,1.070635915E0
1.402250729E0,-5.619344711E-1,6.765670776E-1,1.150048256E0
1.404650573E0,-6.327947974E-1,7.620881200E-1,1.224573731E0
1.407049636E0,-7.085419893E-1,8.427222967E-1,1.289325476E0
1.409447865E0,-7.855109572E-1,9.196912646E-1,1.338194609E0
1.411846979E0,-8.563712835E-1,9.710038900E-1,1.371181369E0
1.414246823E0,-9.199011922E-1,1.033311963E0,1.387063861E0
1.416645886E0,-9.675486684E-1,1.104172349E0,1.382176876E0
1.419044115E0,-1.012752533E0,1.124941707E0,1.361407518E0
1.421443229E0,-1.038408875E0,1.151819825E0,1.332085967E0
1.423843073E0,-1.062843442E0,1.157928467E0,1.297877550E0
1.426242084E0,-1.078725934E0,1.146932840E0,1.260003924E0
1.428640313E0,-1.089721441E0,1.121276498E0,1.218465090E0
1.431039427E0,-1.099495292E0,1.093176723E0,1.176926374E0
1.433439271E0,-1.109269142E0,1.056524873E0,1.126835465E0
1.435838334E0,-1.120264769E0,1.021094680E0,1.076744556E0
1.438236563E0,-1.142255902E0,9.441258311E-1,1.038870931E0
1.440635677E0,-1.159360051E0,7.938531041E-1,1.019323230E0
1.443035521E0,-1.183794618E0,6.814540029E-1,9.961103797E-1
1.445434584E0,-1.215559602E0,6.399152279E-1,9.704540968E-1
1.447832813E0,-1.248546362E0,6.472455859E-1,9.447977543E-1
1.450231927E0,-1.287641644E0,6.680150032E-1,9.179196954E-1
1.452631771E0,-1.329180479E0,6.924495697E-1,8.947068453E-1
1.455030834E0,-1.375606179E0,7.217710614E-1,8.751591444E-1
1.457429063E0,-1.424475312E0,7.645316124E-1,8.629418612E-1
1.459828177E0,-1.469679356E0,8.158442378E-1,8.568332195E-1
1.462228021E0,-1.518548489E0,8.781524301E-1,8.543897867E-1
1.464627032E0,-1.555200338E0,9.746690392E-1,8.531680107E-1
1.467025261E0,-1.591852307E0,1.051638007E0,8.531680107E-1
1.469424375E0,-1.618730307E0,1.122498274E0,8.580549359E-1
1.471824219E0,-1.639499784E0,1.171367407E0,8.617201447E-1
1.474223282E0,-1.657825708E0,1.209241033E0,8.702722788E-1
1.476621511E0,-1.671264648E0,1.239784241E0,8.812678456E-1
1.479020625E0,-1.679816842E0,1.261775374E0,8.995937705E-1
1.481420469E0,-1.684703708E0,1.273992777E0,9.166979790E-1
1.483819532E0,-1.682260275E0,1.289875150E0,9.350239038E-1
1.486217761E0,-1.673708200E0,1.304535985E0,9.545716047E-1
1.488616875E0,-1.661490798E0,1.321640134E0,9.728975296E-1
1.491016719E0,-1.638278008E0,1.338744402E0,9.900017381E-1
1.493415782E0,-1.608956456E0,1.327748775E0,1.004662514E0
1.495814011E0,-1.577191472E0,1.284988284E0,1.020545006E0
1.498213125E0,-1.536874413E0,1.215349674E0,1.040092587E0
1.500612917E0,-1.494113922E0,1.126163483E0,1.064527273E0
1.503012032E0,-1.444023013E0,1.029646873E0,1.087740064E0
1.505410209E0,-1.386601686E0,9.221346974E-1,1.118283272E0
1.507809323E0,-1.320628285E0,8.060703874E-1,1.156156898E0
1.510209167E0,-1.250989795E0,6.851192117E-1,1.195252299E0
1.512608229E0,-1.171577334E0,5.568376184E-1,1.238012791E0
1.515006459E0,-1.083612800E0,4.175603986E-1,1.284438491E0
1.517405573E0,-9.846528769E-1,2.795049548E-1,1.325977325E0
1.519805417E0,-8.869144917E-1,1.561103016E-1,1.361407518E0
1.522204479E0,-7.806240320E-1,1.561141014E-2,1.401724577E0
1.524602709E0,-6.670032144E-1,-1.383264959E-1,1.445706844E0
1.527001823E0,-5.582692623E-1,-2.776036561E-1,1.484802127E0
1.529401667E0,-4.470919073E-1,-4.107721746E-1,1.528784394E0
1.531800729E0,-3.359145224E-1,-5.647100210E-1,1.577653646E0
1.534198959E0,-2.296240330E-1,-7.125393152E-1,1.624079347E0
1.536598073E0,-1.257770509E-1,-8.518164754E-1,1.671726823E0
1.538997865E0,-2.803869173E-2,-9.874284267E-1,1.718152523E0
1.541396927E0,6.847792864E-2,-1.110823154E0,1.768243432E0
1.543795157E0,1.564424634E-1,-1.250100255E0,1.820777774E0
1.546194271E0,2.395200729E-1,-1.391820908E0,1.875755548E0
1.548594115E0,3.128238022E-1,-1.517659068E0,1.927068233E0
1.550993177E0,3.763537407E-1,-1.623949528E0,1.980824351E0
1.553391407E0,4.325532913E-1,-1.715579271E0,2.037024021E0
1.555790521E0,4.826442003E-1,-1.808430672E0,2.094445229E0
1.558190365E0,5.266264677E-1,-1.884177923E0,2.151866674E0
1.560589427E0,5.608348846E-1,-1.946486115E0,2.209287882E0
1.562987657E0,5.877129436E-1,-1.996577024E0,2.269152641E0
1.565386771E0,6.133692265E-1,-2.043002844E0,2.333904266E0
1.567786615E0,6.316952109E-1,-2.089428663E0,2.397434235E0
1.570185677E0,6.426907778E-1,-2.139519453E0,2.468294382E0
1.572583907E0,6.549080610E-1,-2.190832138E0,2.542819977E0
1.574983021E0,6.634601355E-1,-2.256805420E0,2.617345572E0
1.577382813E0,6.683470607E-1,-2.319113731E0,2.701644897E0
1.579781875E0,6.707905531E-1,-2.385087013E0,2.792052746E0
1.582180104E0,6.732339859E-1,-2.453503847E0,2.883682489E0
1.584579219E0,6.695687771E-1,-2.521920681E0,2.980199099E0
1.586979063E0,6.646819115E-1,-2.591559410E0,3.085267782E0
1.589378125E0,6.610167027E-1,-2.663641453E0,3.195223570E0
1.591776354E0,6.573514938E-1,-2.745497227E0,3.311287880E0
1.594175469E0,6.610167027E-1,-2.823688030E0,3.434682369E0
1.596575313E0,6.597949862E-1,-2.890882969E0,3.560520649E0
1.598974375E0,6.597949862E-1,-2.940973997E0,3.692467451E0
1.601372604E0,6.561297774E-1,-2.898213387E0,3.819527149E0
1.603771719E0,6.206996441E-1,-2.639206886E0,3.935591459E0
1.606171563E0,5.632783175E-1,-2.206714630E0,4.038216591E0
1.608570573E0,5.009701252E-1,-1.694809794E0,4.126181126E0
1.610968854E0,4.362184703E-1,-1.138922930E0,4.206815243E0
1.613367917E0,3.751319945E-1,-5.537144542E-1,4.283784389E0
1.615767761E0,3.250410855E-1,2.538524568E-2,4.357088089E0
1.618166823E0,2.871674895E-1,5.592810512E-1,4.426726341E0
1.620565052E0,2.627328932E-1,1.028425097E0,4.485369682E0
1.622964167E0,2.505156100E-1,1.441369653E0,4.531795502E0
1.625364011E0,2.492938787E-1,1.792006016E0,4.570890427E0
1.627763073E0,2.602894306E-1,2.080333948E0,4.598990440E0
1.630161302E0,2.847240269E-1,2.306354046E0,4.620981693E0
1.632560417E0,3.177107275E-1,2.466400623E0,4.638085842E0
1.634960261E0,3.616929948E-1,2.558030367E0,4.650302887E0
1.637359323E0,4.178925455E-1,2.588573456E0,4.660077095E0
1.639757552E0,4.814224541E-1,2.559252024E0,4.664963722E0
1.642156667E0,5.535045266E-1,2.477396011E0,4.666185379E0
1.644556459E0,6.280300021E-1,2.349114418E0,4.662520409E0
1.646955521E0,7.111076117E-1,2.189067841E0,4.657633305E0
1.649353750E0,7.990721464E-1,1.999699950E0,4.651524544E0
1.651752865E0,8.845931888E-1,1.789562583E0,4.638085842E0
1.654152709E0,9.774446487E-1,1.567207813E0,4.623425007E0
1.656551771E0,1.065409303E0,1.330192327E0,4.603877544E0
1.658950000E0,1.153373837E0,1.089511633E0,4.579442501E0
1.661349115E0,1.240116596E0,8.463875055E-1,4.548899651E0
1.663748959E0,1.324415922E0,6.044850349E-1,4.513469219E0
1.666148021E0,1.402606606E0,3.576956391E-1,4.464600086E0
1.668546250E0,1.464914799E0,9.258036315E-2,4.392518044E0
1.670945365E0,1.507675290E0,-1.920825988E-1,4.293558121E0
1.673345209E0,1.528444767E0,-4.987367094E-1,4.164054871E0
1.675744219E0,1.533331633E0,-8.163862824E-1,3.996678114E0
1.678142500E0,1.519892573E0,-1.134036064E0,3.812196970E0
1.680541563E0,1.505231857E0,-1.426029325E0,3.616720200E0
1.682941407E0,1.490571141E0,-1.675262094E0,3.424908638E0
1.685340469E0,1.479575515E0,-1.878069282E0,3.247757912E0
1.687738698E0,1.478353858E0,-2.013681173E0,3.093819857E0
1.690137813E0,1.489349365E0,-2.088206768E0,2.964316607E0
1.692537657E0,1.513783932E0,-2.100424051E0,2.864134789E0
1.694936719E0,1.549214125E0,-2.055220127E0,2.792052746E0
1.697334948E0,1.594418168E0,-1.958703399E0,2.739518404E0
1.699734063E0,1.649395943E0,-1.821869731E0,2.708975077E0
1.702133907E0,1.714147568E0,-1.645940661E0,2.694314480E0
1.704532969E0,1.782564402E0,-1.454129100E0,2.685762405E0
1.706931198E0,1.842429161E0,-1.273313165E0,2.684540510E0
1.709330313E0,1.898628712E0,-1.121818662E0,2.688205719E0
1.711730104E0,1.957271695E0,-9.739893675E-1,2.696757793E0
1.714129167E0,2.018357992E0,-8.359339833E-1,2.713862181E0
1.716527396E0,2.079444647E0,-7.064306140E-1,2.735853195E0
1.718926511E0,2.140531063E0,-5.818142295E-1,2.761509657E0
1.721326354E0,2.205282688E0,-4.608630836E-1,2.790831089E0
1.723725417E0,2.268812656E0,-3.411335945E-1,2.827482939E0
1.726123646E0,2.332342625E0,-2.177389115E-1,2.873908758E0
1.728522761E0,2.397094250E0,-9.800942242E-2,2.923999548E0
1.730922604E0,2.455737352E0,2.905043587E-2,2.975312233E0
1.733321667E0,2.511936903E0,1.500016451E-1,3.024181366E0
1.735719896E0,2.560806036E0,2.746180296E-1,3.075494051E0
1.738119011E0,2.607231617E0,3.992344439E-1,3.124363184E0
1.740518854E0,2.646327019E0,5.275160670E-1,3.173232317E0
1.742917917E0,2.678092003E0,6.570194364E-1,3.219658136E0
1.745316146E0,2.707413435E0,7.865227461E-1,3.264862061E0
1.747715209E0,2.730626345E0,9.135826230E-1,3.307622671E0
1.750115052E0,2.755060911E0,1.046751022E0,3.344274521E0
1.752514115E0,2.772165060E0,1.193358541E0,3.376039505E0
1.754912344E0,2.792934656E0,1.348518252E0,3.400474072E0
1.757311459E0,2.811260462E0,1.523225546E0,3.426130295E0
1.759711302E0,2.792934656E0,1.717480540E0,3.450564861E0
1.762110365E0,2.689087629E0,1.931283116E0,3.472556114E0
1.764508594E0,2.500941277E0,2.142642260E0,3.494547129E0
1.766907709E0,2.259038925E0,2.329566956E0,3.512873173E0
1.769307552E0,2.012249470E0,2.478617907E0,3.532420874E0
1.771706615E0,1.794781685E0,2.570247650E0,3.553190231E0
1.774104844E0,1.590752959E0,2.626447201E0,3.580068350E0
1.776503959E0,1.379393697E0,2.664320707E0,3.604502916E0
1.778903750E0,1.137491345E0,2.683868408E0,3.630159140E0
1.781302813E0,8.638237715E-1,2.680203199E0,3.649706841E0
1.783701042E0,5.706087351E-1,2.628890514E0,3.658258915E0
1.786100157E0,2.969413102E-1,2.517713070E0,3.661924124E0
1.788500000E0,5.381717905E-2,2.346671104E0,3.655815601E0
1.790899063E0,-1.379943341E-1,2.142642260E0,3.643598318E0
1.793297292E0,-2.833801508E-1,1.904405117E0,3.624050617E0
1.795696407E0,-3.884488940E-1,1.640511513E0,3.597172499E0
1.798096250E0,-4.751916826E-1,1.377839684E0,3.564185858E0
1.800495313E0,-5.594910383E-1,1.113946199E0,3.528755665E0
1.802893542E0,-6.437903643E-1,8.219528794E-1,3.478664637E0
1.805292657E0,-7.036550641E-1,4.920858741E-1,3.415134907E0
1.807692500E0,-7.232027650E-1,1.121280342E-1,3.349161386E0
1.810091511E0,-7.183158398E-1,-3.130338192E-1,3.285631418E0
1.812489792E0,-6.926594973E-1,-7.858430743E-1,3.225766659E0
1.814888854E0,-6.523424387E-1,-1.294082522E0,3.165901899E0
1.817288698E0,-6.083601713E-1,-1.836530447E0,3.108480692E0
1.819687761E0,-5.631561875E-1,-2.386308908E0,3.057168007E0
1.822085990E0,-5.179522038E-1,-2.937308788E0,3.010742426E0
1.824485104E0,-4.678612947E-1,-3.468761206E0,2.966760159E0
1.826884948E0,-4.263225198E-1,-3.975778818E0,2.926443100E0
1.829284011E0,-3.835619688E-1,-4.457139969E0,2.891012907E0
1.831682240E0,-3.481318355E-1,-4.906736374E0,2.862913132E0
1.834081354E0,-3.175885975E-1,-5.320902824E0,2.839700222E0
1.836481198E0,-2.919322848E-1,-5.687421322E0,2.825039387E0
1.838880261E0,-2.687194049E-1,-5.987967014E0,2.827482939E0
1.841278490E0,-2.455065250E-1,-6.199326038E0,2.848252296E0
1.843677552E0,-2.210719287E-1,-6.320277214E0,2.882460833E0
1.846077396E0,-1.978590786E-1,-6.356929302E0,2.917891026E0
1.848476459E0,-1.685375720E-1,-6.301951408E0,2.945990801E0
1.850874688E0,-1.404377818E-1,-6.163896084E0,2.967981815E0
1.853273802E0,-1.147814840E-1,-5.941541195E0,2.980199099E0
1.855673646E0,-8.790344000E-2,-5.648326397E0,2.975312233E0
1.858072709E0,-5.980365723E-2,-5.296468258E0,2.948434114E0
1.860470938E0,-3.536906838E-2,-4.893297195E0,2.898343325E0
1.862870052E0,-2.315177396E-2,-4.436370373E0,2.822596073E0
1.865269896E0,-2.315177396E-2,-3.944013834E0,2.728522778E0
1.867668959E0,-4.147771373E-2,-3.428443909E0,2.623454094E0
1.870067188E0,-7.202094793E-2,-2.904322147E0,2.511054993E0
1.872466302E0,-1.111162901E-1,-2.387530565E0,2.397434235E0
1.874866094E0,-1.550985426E-1,-1.897616863E0,2.283813238E0
1.877265157E0,-1.966373473E-1,-1.444355249E0,2.175079346E0
1.879663386E0,-2.393978685E-1,-1.035075903E0,2.070010662E0
1.882062500E0,-2.711628675E-1,-6.856612563E-1,1.969828725E0
1.884462344E0,-2.919322848E-1,-3.900027871E-1,1.878199100E0
1.886861407E0,-3.090364933E-1,-1.358830482E-1,1.790234566E0
1.889259636E0,-3.200320601E-1,7.791961730E-2,1.703491688E0
1.891658750E0,-3.273624182E-1,2.489617169E-1,1.611862063E0
1.894058594E0,-3.334710598E-1,3.857954144E-1,1.517788887E0
1.896457657E0,-3.359145224E-1,4.896424413E-1,1.423715711E0
1.898855886E0,-3.346928060E-1,5.678331852E-1,1.327199101E0
1.901255000E0,-3.346928060E-1,6.228110194E-1,1.228238940E0
1.903654844E0,-3.322493434E-1,6.557976604E-1,1.128057122E0
1.906053854E0,-3.212537766E-1,6.716801524E-1,1.029097080E0
1.908452084E0,-3.065930307E-1,6.680150032E-1,9.301369786E-1
1.910851198E0,-2.846018970E-1,6.496890187E-1,8.348420858E-1
1.913251042E0,-2.565021217E-1,6.179240942E-1,7.371037602E-1
1.915650104E0,-2.235153913E-1,5.727201104E-1,6.381436586E-1
1.918048334E0,-1.868635118E-1,5.189639926E-1,5.391835570E-1
1.920447448E0,-1.465464383E-1,4.603209198E-1,4.353365600E-1
1.922847292E0,-1.062293798E-1,4.004561603E-1,3.339330256E-1
1.925246354E0,-6.102538481E-2,3.430348933E-1,2.276425511E-1
1.927644584E0,-2.193004265E-2,2.868353426E-1,1.225738227E-1
1.930043698E0,1.472184062E-2,2.404096276E-1,1.506163366E-2
1.932443542E0,4.770853370E-2,2.062012106E-1,-9.367229044E-2
1.934842604E0,8.069522679E-2,1.866535395E-1,-1.962975711E-1
1.937240782E0,1.100167334E-1,1.756579727E-1,-2.940359116E-1
1.939639896E0,1.344513297E-1,1.744362414E-1,-3.807787001E-1
1.942039740E0,1.515555531E-1,1.781014353E-1,-4.565259218E-1
1.944438802E0,1.649945676E-1,1.903187186E-1,-5.212776065E-1
1.946837032E0,1.674380302E-1,2.049794793E-1,-5.725902319E-1
1.949236146E0,1.625511050E-1,2.281923443E-1,-6.092420816E-1
1.951635990E0,1.491120905E-1,2.501834631E-1,-6.300114989E-1
1.954035052E0,1.271209568E-1,2.660659254E-1,-6.397853494E-1
1.956433282E0,1.002428979E-1,2.843918800E-1,-6.336767077E-1
1.958832396E0,6.725619733E-2,2.953874469E-1,-6.141290069E-1
1.961232240E0,2.938259020E-2,3.051612675E-1,-5.811423063E-1
1.963631250E0,-9.712749161E-3,3.076047301E-1,-5.408252478E-1
1.966029479E0,-4.514290392E-2,3.051612675E-1,-4.931778312E-1
1.968428594E0,-8.423824608E-2,2.953874469E-1,-4.418651760E-1
1.970828438E0,-1.221118569E-1,2.782832384E-1,-3.905525208E-1
1.973227500E0,-1.526550800E-1,2.562921047E-1,-3.367964327E-1
1.975625729E0,-1.819765866E-1,2.269705981E-1,-2.867055237E-1
1.978024844E0,-2.027459890E-1,1.927621812E-1,-2.390580922E-1
1.980424688E0,-2.174067497E-1,1.524451077E-1,-1.975192875E-1
1.982823750E0,-2.235153913E-1,1.023541987E-1,-1.596456766E-1
1.985221979E0,-2.210719287E-1,5.104156584E-2,-1.254372597E-1
1.987621094E0,-2.125198245E-1,-6.379718427E-3,-9.611575305E-2
1.990020938E0,-1.954156160E-1,-6.624446064E-2,-6.557251513E-2
1.992420000E0,-1.746462137E-1,-1.248874739E-1,-4.358138144E-2
1.994818177E0,-1.489899009E-1,-1.810870320E-1,-2.403370850E-2
1.997217292E0,-1.172249466E-1,-2.299562097E-1,-1.181641407E-2
1.999617136E0,-8.668170869E-2,-2.751602232E-1,-4.486037418E-3
2.002016198E0,-5.491673946E-2,-3.154772818E-1,-2.042578766E-3
2.004414427E0,-2.070831507E-2,-3.423553407E-1,-4.486037418E-3
2.006813542E0,1.350010931E-2,-3.594595492E-1,-1.181641407E-2
2.009213386E0,4.282161593E-2,-3.692333698E-1,-2.036851831E-2
2.011612448E0,6.603448093E-2,-3.704551160E-1,-3.014235385E-2
2.014010677E0,8.802559972E-2,-3.667899072E-1,-4.113792256E-2
2.016409792E0,1.100167334E-1,-3.594595492E-1,-5.091175810E-2
2.018809636E0,1.283426881E-1,-3.496856987E-1,-6.312904507E-2
2.021208698E0,1.417817175E-1,-3.338032365E-1,-7.168115675E-2
2.023606927E0,1.527772844E-1,-3.154772818E-1,-8.023326099E-2
2.026005990E0,1.588859260E-1,-2.910426855E-1,-9.245055914E-2
2.028405834E0,1.649945676E-1,-2.678298354E-1,-9.855920076E-2
2.030804896E0,1.674380302E-1,-2.446169555E-1,-1.046678573E-1
2.033203125E0,1.674380302E-1,-2.201823741E-1,-1.095547676E-1
2.035602240E0,1.662162989E-1,-1.908608675E-1,-1.144416928E-1
2.038002084E0,1.613293886E-1,-1.664262712E-1,-1.144416928E-1
2.040401146E0,1.527772844E-1,-1.419916898E-1,-1.168851554E-1
2.042799375E0,1.466686279E-1,-1.163353696E-1,-1.181068867E-1
2.045198490E0,1.393382549E-1,-9.190078080E-2,-1.181068867E-1
2.047598334E0,1.307861507E-1,-6.990964711E-2,-1.144416928E-1
2.049997396E0,1.246774942E-1,-5.158370733E-2,-1.168851554E-1
2.052395573E0,1.197905689E-1,-3.447949886E-2,-1.156634241E-1
2.054794688E0,1.149036586E-1,-2.470565960E-2,-1.144416928E-1
2.057194532E0,1.124601960E-1,-2.348393016E-2,-1.144416928E-1
2.059593594E0,1.136819273E-1,-2.714911848E-2,-1.119982302E-1
2.061991823E0,1.161253750E-1,-4.425333440E-2,-1.095547676E-1
2.064390938E0,1.197905689E-1,-6.502272934E-2,-1.083330363E-1
2.066790782E0,1.246774942E-1,-8.823558688E-2,-1.071113199E-1
2.069189844E0,1.307861507E-1,-1.126701832E-1,-1.107764989E-1
2.071588073E0,1.381165236E-1,-1.419916898E-1,-1.156634241E-1
2.073987188E0,1.454468966E-1,-1.700914651E-1,-1.205503345E-1
2.076387032E0,1.552207321E-1,-2.006347030E-1,-1.266589910E-1
2.078786094E0,1.625511050E-1,-2.287344784E-1,-1.339893639E-1
2.081184323E0,1.698814929E-1,-2.568342686E-1,-1.413197368E-1
2.083583438E0,1.784335971E-1,-2.873775065E-1,-1.510935724E-1
2.085983229E0,1.918726265E-1,-3.191424608E-1,-1.620891392E-1
2.088382292E0,2.065333724E-1,-3.570160866E-1,-1.743064374E-1
2.090780521E0,2.224158496E-1,-3.936679661E-1,-1.914106458E-1
2.093179636E0,2.358548790E-1,-4.242112041E-1,-2.072931379E-1
2.095579479E0,2.444069982E-1,-4.400936961E-1,-2.219538838E-1
2.097978542E0,2.505156100E-1,-4.388719499E-1,-2.341711819E-1
2.100376771E0,2.529590726E-1,-4.217677414E-1,-2.439450175E-1
2.102775886E0,2.492938787E-1,-3.851158619E-1,-2.512753606E-1
2.105175729E0,2.419635355E-1,-3.338032365E-1,-2.573840320E-1
2.107574792E0,2.309679687E-1,-2.666080892E-1,-2.610492110E-1
2.109973021E0,2.150854766E-1,-1.835304946E-1,-2.634926736E-1
2.112372136E0,1.992029995E-1,-9.067904949E-2,-2.622709274E-1
2.114771927E0,1.796553284E-1,1.438968256E-2,-2.586057484E-1
2.117170990E0,1.564424634E-1,1.243453324E-1,-2.573840320E-1
2.119569219E0,1.356730610E-1,2.440748066E-1,-2.549405694E-1
2.121968334E0,1.124601960E-1,3.638042808E-1,-2.537188232E-1
2.124368177E0,8.924733102E-2,4.871989489E-1,-2.549405694E-1
2.126767240E0,6.481274962E-2,6.093719602E-1,-2.561622858E-1
2.129165469E0,3.915642574E-2,7.291014791E-1,-2.561622858E-1
2.131564584E0,1.350010931E-2,8.439440131E-1,-2.610492110E-1
2.133964427E0,-1.215620805E-2,9.514561892E-1,-2.647143900E-1
2.136363490E0,-3.781252727E-2,1.045529366E0,-2.696013153E-1
2.138761719E0,-6.346884370E-2,1.126163483E0,-2.744882405E-1
2.141160782E0,-8.545997739E-2,1.192136884E0,-2.769317031E-1
2.143560625E0,-1.037859172E-1,1.245893002E0,-2.769317031E-1
2.145959688E0,-1.172249466E-1,1.283766508E0,-2.769317031E-1
2.148357917E0,-1.294422299E-1,1.308201194E0,-2.757099569E-1
2.150757032E0,-1.318856925E-1,1.319196701E0,-2.732664943E-1
2.153156875E0,-1.318856925E-1,1.314309835E0,-2.708230615E-1
2.155555938E0,-1.294422299E-1,1.308201194E0,-2.683795989E-1
2.157954167E0,-1.282205135E-1,1.299649000E0,-2.732664943E-1
2.160353282E0,-1.257770509E-1,1.283766508E0,-2.781534195E-1
2.162753125E0,-1.257770509E-1,1.261775374E0,-2.769317031E-1
2.165152188E0,-1.294422299E-1,1.250779867E0,-2.683795989E-1
2.167550417E0,-1.331074089E-1,1.247114658E0,-2.524971068E-1
2.169949479E0,-1.343291402E-1,1.232453942E0,-2.268408090E-1
2.172349323E0,-1.233335882E-1,1.201910734E0,-1.914106458E-1
2.174748386E0,-1.050076485E-1,1.153041482E0,-1.547587663E-1
2.177146615E0,-8.423824608E-2,1.090733290E0,-1.156634241E-1
2.179545729E0,-6.102538481E-2,1.013764381E0,-8.023326099E-2
2.181945573E0,-3.781252727E-2,9.221346974E-1,-5.457694456E-2
2.184344636E0,-2.315177396E-2,8.268398046E-1,-4.235965386E-2
2.186742865E0,-1.337793749E-2,7.278797030E-1,-3.869446367E-2
2.189141979E0,-1.160643063E-3,6.289196610E-1,-1.792506129E-2
2.191541823E0,1.472184062E-2,5.336247683E-1,1.383990422E-2
2.193940886E0,3.182605281E-2,4.529905319E-1,4.560486600E-2
2.196339115E0,4.404334351E-2,3.772433102E-1,7.248291373E-2
2.198738177E0,5.137372389E-2,3.088264763E-1,9.447404742E-2
2.201138021E0,4.893026128E-2,2.575138211E-1,1.115782559E-1
2.203537084E0,3.671297058E-2,2.330792397E-1,1.237955540E-1
2.205935313E0,1.716529950E-2,2.343009859E-1,1.299041957E-1
2.208334427E0,-4.825831391E-3,2.587355673E-1,1.286824644E-1
2.210734271E0,-1.948658377E-2,2.905005217E-1,1.225738227E-1
2.213133334E0,-2.559523284E-2,3.137133718E-1,1.250172853E-1
2.215531563E0,-2.803869173E-2,3.418131471E-1,1.372345686E-1
2.217930677E0,-2.437350154E-2,3.723563850E-1,1.494518667E-1
2.220330521E0,-1.459966693E-2,3.931258023E-1,1.604474336E-1
2.222729584E0,-1.160643063E-3,4.004561603E-1,1.677778065E-1
2.225127813E0,1.838702708E-2,4.016779065E-1,1.726647317E-1
2.227526875E0,3.915642574E-2,3.992344439E-1,1.775516421E-1
2.229926719E0,6.236929074E-2,3.967909813E-1,1.812168360E-1
2.232325782E0,8.436042070E-2,3.943475187E-1,1.787733734E-1
2.234724011E0,1.087950021E-1,3.894605935E-1,1.763299108E-1
2.237123125E0,1.344513297E-1,3.821302354E-1,1.677778065E-1
2.239522969E0,1.613293886E-1,3.735781312E-1,1.580039710E-1
2.241922032E0,1.869857013E-1,3.589173555E-1,1.470084041E-1
2.244320261E0,2.126420140E-1,3.418131471E-1,1.335693896E-1
2.246719375E0,2.358548790E-1,3.222654760E-1,1.213520914E-1
2.249119219E0,2.578459680E-1,3.051612675E-1,1.054696143E-1
2.251518229E0,2.761719227E-1,2.905005217E-1,9.447404742E-2
2.253916459E0,2.908326685E-1,2.782832384E-1,8.470021188E-2
2.256315573E0,3.030499816E-1,2.697311342E-1,7.492637634E-2
2.258715417E0,3.116020858E-1,2.636224627E-1,6.759600341E-2
2.261114479E0,3.164889812E-1,2.587355673E-1,6.148734689E-2
2.263512709E0,3.201541901E-1,2.562921047E-1,5.660043284E-2
2.265911823E0,3.225976527E-1,2.538486421E-1,5.171351507E-2
2.268311667E0,3.262628317E-1,2.465182692E-1,4.560486600E-2
2.270710729E0,3.287062943E-1,2.404096276E-1,4.071795195E-2
2.273108959E0,3.311497569E-1,2.294140607E-1,3.460930288E-2
2.275508073E0,3.360366523E-1,2.184184939E-1,3.094411828E-2
2.277907917E0,3.397018611E-1,2.049794793E-1,2.727892809E-2
2.280306927E0,3.433670402E-1,1.915404499E-1,2.483546920E-2
2.282705157E0,3.506974280E-1,1.781014353E-1,1.994855143E-2
2.285104271E0,3.555843234E-1,1.634406745E-1,1.872682199E-2
2.287504115E0,3.616929948E-1,1.487799138E-1,1.750509255E-2
2.289903177E0,3.690233529E-1,1.353408992E-1,1.628336310E-2
2.292301407E0,3.739102781E-1,1.219018698E-1,1.506163366E-2
2.294700521E0,3.800189197E-1,1.157932281E-1,1.628336310E-2
2.297100365E0,3.885710239E-1,1.072411239E-1,1.750509255E-2
2.299499427E0,3.934579492E-1,1.011324748E-1,1.750509255E-2
2.301897657E0,4.007883370E-1,9.868901223E-2,1.628336310E-2
2.304296771E0,4.068969786E-1,9.746728837E-2,1.750509255E-2
2.306696615E0,4.130056202E-1,9.991074353E-2,1.994855143E-2
2.309095625E0,4.178925455E-1,1.047976613E-1,1.750509255E-2
2.311493854E0,4.240011871E-1,1.145714968E-1,1.872682199E-2
2.313892969E0,4.301098287E-1,1.243453324E-1,2.117028087E-2
2.316292813E0,4.362184703E-1,1.402278095E-1,2.239201032E-2
2.318691875E0,4.423271120E-1,1.609972119E-1,2.361373976E-2
2.321090104E0,4.496574998E-1,1.854318082E-1,2.361373976E-2
2.323489219E0,4.569878876E-1,2.123098522E-1,2.605719864E-2
2.325889063E0,4.655399919E-1,2.404096276E-1,2.727892809E-2
2.328288125E0,4.728703499E-1,2.733963132E-1,2.850065753E-2
2.330686354E0,4.838659167E-1,3.063830137E-1,2.972238697E-2
2.333085469E0,4.948614836E-1,3.430348933E-1,3.338757157E-2
2.335485261E0,5.058570504E-1,3.796867728E-1,3.338757157E-2
2.337884323E0,5.180743337E-1,4.163386524E-1,3.827448934E-2
2.340282552E0,5.302916169E-1,4.542122781E-1,4.193967953E-2
2.342681667E0,5.412871838E-1,4.896424413E-1,4.438313842E-2
2.345081511E0,5.522827506E-1,5.238509178E-1,4.560486600E-2
2.347480573E0,5.657218099E-1,5.592810512E-1,4.804832861E-2
2.349878802E0,5.754956603E-1,5.910460353E-1,5.171351507E-2
2.352277917E0,5.852694511E-1,6.240327358E-1,5.537870154E-2
2.354677761E0,5.950433016E-1,6.484673023E-1,6.148734689E-2
2.357076823E0,6.023736596E-1,6.729018688E-1,6.515254080E-2
2.359475052E0,6.097040772E-1,6.924495697E-1,7.126118243E-2
2.361874115E0,6.158127189E-1,7.095537782E-1,7.614810765E-2
2.364273959E0,6.170344353E-1,7.205493450E-1,8.347848058E-2
2.366673021E0,6.182561517E-1,7.303231955E-1,8.836539090E-2
2.369071250E0,6.182561517E-1,7.376535535E-1,9.813922644E-2
2.371470365E0,6.158127189E-1,7.437621951E-1,1.054696143E-1
2.373870209E0,6.109257936E-1,7.449839115E-1,1.152434498E-1
2.376269271E0,6.048171520E-1,7.462056875E-1,1.237955540E-1
2.378667500E0,5.987085104E-1,7.437621951E-1,1.335693896E-1
2.381066615E0,5.913780928E-1,7.400969863E-1,1.433432251E-1
2.383466459E0,5.816043019E-1,7.339883447E-1,1.531170607E-1
2.385865521E0,5.693869591E-1,7.278797030E-1,1.616691649E-1
2.388263750E0,5.571696758E-1,7.193276286E-1,1.702212691E-1
2.390662813E0,5.437306762E-1,7.083320618E-1,1.799951047E-1
2.393062657E0,5.278481841E-1,6.985582113E-1,1.909906715E-1
2.395461719E0,5.131874084E-1,6.887843609E-1,1.995427758E-1
2.397859948E0,4.997484088E-1,6.765670776E-1,2.093166113E-1
2.400259063E0,4.850876629E-1,6.667932272E-1,2.190904468E-1
2.402658907E0,4.692051709E-1,6.582411528E-1,2.276425511E-1
2.405057969E0,4.508792162E-1,6.472455859E-1,2.386381179E-1
2.407456198E0,4.374402165E-1,6.411369443E-1,2.484119534E-1
2.409855313E0,4.215577245E-1,6.362500191E-1,2.594075203E-1
2.412255157E0,4.081186950E-1,6.289196610E-1,2.716248333E-1
2.414654219E0,3.946796656E-1,6.252544522E-1,2.813986540E-1
2.417052448E0,3.812406659E-1,6.240327358E-1,2.948376834E-1
2.419451511E0,3.702450991E-1,6.228110194E-1,3.070549667E-1
2.421851354E0,3.604712486E-1,6.228110194E-1,3.192722797E-1
2.424250417E0,3.494756818E-1,6.240327358E-1,3.314895630E-1
2.426648646E0,3.397018611E-1,6.264761686E-1,3.437068760E-1
2.429047761E0,3.299280107E-1,6.289196610E-1,3.534806967E-1
2.431447604E0,3.189324439E-1,6.325848103E-1,3.620328009E-1
2.433846667E0,3.079368770E-1,6.411369443E-1,3.742501140E-1
2.436244896E0,2.969413102E-1,6.460238695E-1,3.864673972E-1
2.438644011E0,2.847240269E-1,6.533542275E-1,3.937977552E-1
2.441043854E0,2.725067437E-1,6.594628692E-1,4.023498893E-1
2.443442917E0,2.590677142E-1,6.680150032E-1,4.096802473E-1
2.445841146E0,2.444069982E-1,6.790105700E-1,4.157888889E-1
2.448240209E0,2.309679687E-1,6.900061369E-1,4.206758142E-1
2.450640052E0,2.175289392E-1,7.022234201E-1,4.231192768E-1
2.453039115E0,2.016464472E-1,7.144407034E-1,4.255627394E-1
2.455437344E0,1.882074326E-1,7.291014791E-1,4.255627394E-1
2.457836459E0,1.735466719E-1,7.449839115E-1,4.280062020E-1
2.460236302E0,1.613293886E-1,7.620881200E-1,4.292279184E-1
2.462635365E0,1.454468966E-1,7.767488956E-1,4.267844558E-1
2.465033594E0,1.320078820E-1,7.926313877E-1,4.255627394E-1
2.467432709E0,1.185688376E-1,8.085138798E-1,4.231192768E-1
2.469832552E0,1.063515395E-1,8.243963718E-1,4.194540977E-1
2.472231615E0,9.291252494E-2,8.390570879E-1,4.157888889E-1
2.474629792E0,8.191695809E-2,8.524961472E-1,4.060150683E-1
2.477028907E0,7.092139125E-2,8.647134304E-1,3.974629641E-1
2.479428750E0,5.870409682E-2,8.696003556E-1,3.852456510E-1
2.481827813E0,4.770853370E-2,8.757089972E-1,3.754718304E-1
2.484226042E0,3.915642574E-2,8.769307137E-1,3.632545471E-1
2.486625157E0,2.816086262E-2,8.769307137E-1,3.473720551E-1
2.489025000E0,1.838702708E-2,8.757089972E-1,3.327113092E-1
2.491424063E0,1.350010931E-2,8.757089972E-1,3.180505335E-1
2.493822292E0,4.948004149E-3,8.732655048E-1,3.021680713E-1
2.496221407E0,1.282815821E-3,8.720437884E-1,2.875072956E-1
2.498621250E0,-6.047560833E-3,8.708220720E-1,2.704030871E-1
2.501020261E0,-8.491019718E-3,8.683785796E-1,2.520771623E-1
2.503418490E0,-9.712749161E-3,8.647134304E-1,2.337511927E-1
2.505817604E0,-1.093447860E-2,8.622699380E-1,2.117600739E-1
2.508217448E0,-1.093447860E-2,8.610482216E-1,1.909906715E-1
2.510616511E0,-9.712749161E-3,8.634917140E-1,1.665560752E-1
2.513014740E0,-8.491019718E-3,8.683785796E-1,1.433432251E-1
2.515413854E0,-4.825831391E-3,8.720437884E-1,1.189086288E-1
2.517813698E0,-1.160643063E-3,8.757089972E-1,9.203058481E-2
2.520212761E0,6.108637899E-5,8.781524301E-1,6.515254080E-2
2.522610990E0,-1.160643063E-3,8.793741465E-1,3.827448934E-2
2.525010104E0,-4.825831391E-3,8.781524301E-1,1.750509255E-2
2.527409948E0,-1.093447860E-2,8.769307137E-1,-4.486037418E-3
2.529808959E0,-1.826485619E-2,8.744872808E-1,-1.792506129E-2
2.532207188E0,-3.048215061E-2,8.708220720E-1,-3.014235385E-2
2.534606302E0,-4.514290392E-2,8.634917140E-1,-3.991619125E-2
2.537006146E0,-6.224711612E-2,8.524961472E-1,-4.480310902E-2
2.539405209E0,-8.057305217E-2,8.439440131E-1,-4.480310902E-2
2.541803438E0,-1.025641859E-1,8.292832375E-1,-4.358138144E-2
2.544202552E0,-1.257770509E-1,8.158442378E-1,-4.113792256E-2
2.546602396E0,-1.502116323E-1,7.987400293E-1,-3.747273609E-2
2.549001459E0,-1.770896763E-1,7.840792537E-1,-3.014235385E-2
2.551399688E0,-2.039677203E-1,7.681968212E-1,-1.670333184E-2
2.553798802E0,-2.357326895E-1,7.486491203E-1,-2.042578766E-3
2.556198594E0,-2.699411511E-1,7.229927778E-1,1.261817478E-2
2.558597657E0,-3.041495681E-1,6.985582113E-1,2.972238697E-2
2.560995886E0,-3.408014476E-1,6.680150032E-1,4.560486600E-2
2.563395000E0,-3.774533272E-1,6.350283027E-1,6.515254080E-2
2.565794844E0,-4.141052067E-1,5.947111845E-1,8.347848058E-2
2.568193907E0,-4.532005489E-1,5.507289767E-1,1.030261517E-1
2.570592136E0,-4.910741746E-1,5.018597841E-1,1.225738227E-1
2.572991250E0,-5.313912630E-1,4.517688155E-1,1.433432251E-1
2.575391094E0,-5.753735304E-1,4.004561603E-1,1.616691649E-1
2.577790157E0,-6.205775142E-1,3.442566097E-1,1.812168360E-1
2.580188386E0,-6.682249308E-1,2.892788053E-1,2.007645071E-1
2.582587500E0,-7.183158398E-1,2.330792397E-1,2.203121781E-1
2.584987292E0,-7.684067488E-1,1.707710475E-1,2.374163866E-1
2.587386354E0,-8.221628666E-1,1.133497655E-1,2.532988787E-1
2.589784584E0,-8.759189248E-1,5.470675230E-2,2.667379081E-1
2.592183698E0,-9.296750426E-1,2.172387671E-3,2.789551914E-1
2.594583542E0,-9.822093844E-1,-4.791852087E-2,2.862855792E-1
2.596982604E0,-1.038408875E0,-9.556596726E-2,2.887290418E-1
2.599380834E0,-1.087278008E0,-1.358830482E-1,2.899507582E-1
2.601779948E0,-1.134925485E0,-1.713131964E-1,2.875072956E-1
2.604179792E0,-1.182572961E0,-2.006347030E-1,2.777334750E-1
2.606578854E0,-1.224111676E0,-2.275127470E-1,2.594075203E-1
2.608977084E0,-1.263207078E0,-2.507255971E-1,2.349729240E-1
2.611376198E0,-1.299858928E0,-2.678298354E-1,2.032079548E-1
2.613775990E0,-1.330402136E0,-2.824905813E-1,1.641126126E-1
2.616175052E0,-1.359723687E0,-2.971513271E-1,1.152434498E-1
2.618573282E0,-1.384158254E0,-3.118121028E-1,6.148734689E-2
2.620972396E0,-1.403705955E0,-3.215859234E-1,1.622609561E-3
2.623372240E0,-1.422031879E0,-3.276945651E-1,-5.946386233E-2
2.625771302E0,-1.439136147E0,-3.301380277E-1,-1.156634241E-1
2.628169532E0,-1.458683729E0,-3.276945651E-1,-1.645326018E-1
2.630568646E0,-1.478231430E0,-3.191424608E-1,-2.024062127E-1
2.632968490E0,-1.500222564E0,-3.044817150E-1,-2.280625254E-1
2.635367552E0,-1.523435473E0,-2.910426855E-1,-2.451667339E-1
2.637765782E0,-1.550313473E0,-2.751602232E-1,-2.549405694E-1
2.640164896E0,-1.577191472E0,-2.604994476E-1,-2.561622858E-1
2.642564688E0,-1.606513023E0,-2.470604181E-1,-2.549405694E-1
2.644963750E0,-1.634612799E0,-2.348431200E-1,-2.500536442E-1
2.647361979E0,-1.666377783E0,-2.262910157E-1,-2.451667339E-1
2.649761094E0,-1.696920991E0,-2.189606428E-1,-2.390580922E-1
2.652160938E0,-1.728685975E0,-2.128519863E-1,-2.329494506E-1
2.654560000E0,-1.760450959E0,-2.079650760E-1,-2.280625254E-1
2.656958229E0,-1.793437600E0,-2.006347030E-1,-2.256190777E-1
2.659357344E0,-1.828867793E0,-1.896391362E-1,-2.243973464E-1
2.661757188E0,-1.863076210E0,-1.774218380E-1,-2.256190777E-1
2.664156250E0,-1.894841194E0,-1.578741670E-1,-2.305059880E-1
2.666554479E0,-1.926606178E0,-1.334395856E-1,-2.366146296E-1
2.668953542E0,-1.955927610E0,-1.053398028E-1,-2.439450175E-1
2.671353386E0,-1.985249162E0,-7.113137841E-2,-2.537188232E-1
2.673752448E0,-2.013349056E0,-3.325776756E-2,-2.659361362E-1
2.676150677E0,-2.039005280E0,9.502764791E-3,-2.793751657E-1
2.678549792E0,-2.064661741E0,5.470675230E-2,-2.928141654E-1
2.680949636E0,-2.089096308E0,1.047976613E-1,-3.086966574E-1
2.683348698E0,-2.111087322E0,1.597754806E-1,-3.221356869E-1
2.685746927E0,-2.130635023E0,2.123098522E-1,-3.380181789E-1
2.688146042E0,-2.146517515E0,2.636224627E-1,-3.526789248E-1
2.690545886E0,-2.158734798E0,3.124916553E-1,-3.648962080E-1
2.692944948E0,-2.169730425E0,3.576956391E-1,-3.795569539E-1
2.695343177E0,-2.175839186E0,3.955692649E-1,-3.929959834E-1
2.697742240E0,-2.178282499E0,4.248907566E-1,-4.027698338E-1
2.700142084E0,-2.177060843E0,4.493253529E-1,-4.101001918E-1
2.702541146E0,-2.172173977E0,4.639860988E-1,-4.149871171E-1
2.704939375E0,-2.164843559E0,4.700947404E-1,-4.186522961E-1
2.707338490E0,-2.150182724E0,4.639860988E-1,-4.162088633E-1
2.709738334E0,-2.131856918E0,4.529905319E-1,-4.076567292E-1
2.712137396E0,-2.112309217E0,4.371080399E-1,-3.942177296E-1
2.714535625E0,-2.087874651E0,4.138951898E-1,-3.771135211E-1
2.716934740E0,-2.060996532E0,3.906823397E-1,-3.539006412E-1
2.719334584E0,-2.030453205E0,3.638042808E-1,-3.258008659E-1
2.721733646E0,-1.997466445E0,3.381479681E-1,-2.964793742E-1
2.724131875E0,-1.962036252E0,3.112699091E-1,-2.647143900E-1
2.726530938E0,-1.922940969E0,2.795049548E-1,-2.341711819E-1
2.728930782E0,-1.880180478E0,2.489617169E-1,-2.048496753E-1
2.731329844E0,-1.834976435E0,2.147533149E-1,-1.755281687E-1
2.733728073E0,-1.789772391E0,1.793231517E-1,-1.462066621E-1
2.736127188E0,-1.743346691E0,1.451147348E-1,-1.229937971E-1
2.738527032E0,-1.693255782E0,1.096845716E-1,-1.022243947E-1
2.740926094E0,-1.648051858E0,7.425442338E-2,-8.389845490E-2
2.743324323E0,-1.602847815E0,3.638081253E-2,-6.557251513E-2
2.745723438E0,-1.557643890E0,-2.714530099E-3,-5.457694456E-2
2.748123282E0,-1.519770265E0,-4.303160310E-2,-4.846829921E-2
2.750522344E0,-1.488005280E0,-8.457040042E-2,-4.724657163E-2
2.752920573E0,-1.463570714E0,-1.273309290E-1,-4.969002679E-2
2.755319636E0,-1.442801237E0,-1.737566441E-1,-5.824213848E-2
2.757719479E0,-1.431805730E0,-2.262910157E-1,-7.168115675E-2
2.760118542E0,-1.425697088E0,-2.800471187E-1,-9.122882783E-2
2.762516771E0,-1.422031879E0,-3.350249529E-1,-1.144416928E-1
2.764915886E0,-1.420810103E0,-3.826723993E-1,-1.388762742E-1
2.767315729E0,-1.420810103E0,-4.352067709E-1,-1.669760644E-1
2.769714792E0,-1.418366671E0,-5.024018288E-1,-1.987410188E-1
2.772113021E0,-1.412258029E0,-5.781490803E-1,-2.366146296E-1
2.774512136E0,-1.401262522E0,-6.526745558E-1,-2.757099569E-1
2.776911979E0,-1.386601686E0,-7.284217477E-1,-3.172487617E-1
2.779311042E0,-1.368275762E0,-7.956168652E-1,-3.612310290E-1
2.781709271E0,-1.346284628E0,-8.493729830E-1,-4.052132964E-1
2.784108334E0,-1.320628285E0,-8.957986832E-1,-4.443086386E-1
2.786508177E0,-1.292528510E0,-9.361158013E-1,-4.809605181E-1
2.788907240E0,-1.264428735E0,-9.691025019E-1,-5.139471889E-1
2.791305469E0,-1.238772511E0,-9.886501431E-1,-5.420469642E-1
2.793704584E0,-1.211894393E0,-9.935370684E-1,-5.615946651E-1
2.796104427E0,-1.186238050E0,-9.898718596E-1,-5.750336647E-1
2.798503490E0,-1.159360051E0,-9.727676511E-1,-5.848075151E-1
2.800901719E0,-1.127595067E0,-9.434461594E-1,-5.860292315E-1
2.803300834E0,-1.098273635E0,-9.031291008E-1,-5.860292315E-1
2.805700677E0,-1.062843442E0,-8.505946994E-1,-5.799205899E-1
2.808099740E0,-1.028635025E0,-7.821778655E-1,-5.677033067E-1
2.810497969E0,-9.932049513E-1,-7.076523900E-1,-5.542643070E-1
2.812897032E0,-9.541096091E-1,-6.245747805E-1,-5.396035314E-1
2.815296875E0,-9.137925506E-1,-5.378319621E-1,-5.273862481E-1
2.817695938E0,-8.734754920E-1,-4.498675168E-1,-5.151689053E-1
2.820094167E0,-8.294932246E-1,-3.631247282E-1,-5.078385472E-1
2.822493282E0,-7.867326736E-1,-2.824905813E-1,-5.029516220E-1
2.824893125E0,-7.427504063E-1,-2.116302699E-1,-5.017299056E-1
2.827292188E0,-7.036550641E-1,-1.505437940E-1,-5.041733980E-1
2.829690417E0,-6.682249308E-1,-1.077832580E-1,-5.078385472E-1
2.832089532E0,-6.401251554E-1,-7.968348265E-2,-5.163906813E-1
2.834489375E0,-6.193557382E-1,-6.868792325E-2,-5.273862481E-1
2.836888438E0,-6.108036637E-1,-7.601829618E-2,-5.432687402E-1
2.839286667E0,-6.144688129E-1,-1.102267206E-1,-5.591511726E-1
2.841685782E0,-6.266861558E-1,-1.615393609E-1,-5.738119483E-1
2.844085573E0,-6.523424387E-1,-2.299562097E-1,-5.872509480E-1
2.846484636E0,-6.841074228E-1,-3.142555654E-1,-5.982465148E-1
2.848882865E0,-7.232027650E-1,-4.156590998E-1,-6.055769324E-1
2.851281979E0,-7.671850324E-1,-5.268363953E-1,-6.116855741E-1
2.853681823E0,-8.184976578E-1,-6.490093470E-1,-6.165724993E-1
2.856080886E0,-8.685885668E-1,-7.687388659E-1,-6.202376485E-1
2.858479115E0,-9.174577594E-1,-8.811379671E-1,-6.214594245E-1
2.860878229E0,-9.651051760E-1,-9.813197851E-1,-6.251245737E-1
2.863278073E0,-1.009087324E0,-1.061954021E0,-6.300114989E-1
2.865677136E0,-1.048182726E0,-1.129149079E0,-6.336767077E-1
2.868075365E0,-1.081169367E0,-1.169466138E0,-6.410070658E-1
2.870474427E0,-1.109269142E0,-1.190235615E0,-6.532243490E-1
2.872874271E0,-1.130038500E0,-1.186570406E0,-6.654416323E-1
2.875273334E0,-1.141034126E0,-1.164579272E0,-6.837676167E-1
2.877671563E0,-1.147142768E0,-1.123040438E0,-6.996501088E-1
2.880070677E0,-1.145920992E0,-1.070506096E0,-7.167543173E-1
2.882470521E0,-1.138590693E0,-1.002089143E0,-7.350802422E-1
2.884869584E0,-1.125151634E0,-9.300071597E-1,-7.546278834E-1
2.887267813E0,-1.106825709E0,-8.493729830E-1,-7.717320919E-1
2.889666927E0,-1.078725934E0,-7.687388659E-1,-7.851711512E-1
2.892066771E0,-1.051847816E0,-6.868829727E-1,-7.986101508E-1
2.894465834E0,-1.020082951E0,-6.074705720E-1,-8.108274341E-1
2.896864063E0,-9.834311604E-1,-5.305016041E-1,-8.230447769E-1
2.899263177E0,-9.455575347E-1,-4.535326958E-1,-8.315968513E-1
2.901662969E0,-9.076839089E-1,-3.851158619E-1,-8.401489854E-1
2.904062032E0,-8.685885668E-1,-3.203642070E-1,-8.487010598E-1
2.906460261E0,-8.282715082E-1,-2.678298354E-1,-8.548097014E-1
2.908859375E0,-7.891761661E-1,-2.250692844E-1,-8.572531939E-1
2.911259219E0,-7.513025403E-1,-1.920825988E-1,-8.572531939E-1
2.913658282E0,-7.146506310E-1,-1.688697338E-1,-8.535879850E-1
2.916056511E0,-6.804422140E-1,-1.517655253E-1,-8.499227762E-1
2.918455625E0,-6.486772895E-1,-1.407699585E-1,-8.450359106E-1
2.920855469E0,-6.193557382E-1,-1.395482272E-1,-8.401489854E-1
2.923254532E0,-5.912559628E-1,-1.468786001E-1,-8.340403438E-1
2.925652761E0,-5.680431128E-1,-1.627610922E-1,-8.267099261E-1
2.928051875E0,-5.472736955E-1,-1.798653007E-1,-8.181578517E-1
2.930451667E0,-5.301694870E-1,-2.042998821E-1,-8.071622849E-1
2.932850729E0,-5.142870545E-1,-2.336213887E-1,-7.949450016E-1
2.935248959E0,-4.996262789E-1,-2.714950144E-1,-7.815059423E-1
2.937648073E0,-4.898524284E-1,-3.142555654E-1,-7.680669427E-1
2.940047917E0,-4.800786078E-1,-3.606812656E-1,-7.558496594E-1
2.942446979E0,-4.715265036E-1,-4.083287120E-1,-7.448540926E-1
2.944845209E0,-4.641961157E-1,-4.559761584E-1,-7.326367497E-1
2.947244323E0,-4.629743993E-1,-5.097322464E-1,-7.216411829E-1
2.949644167E0,-4.605309367E-1,-5.659317374E-1,-7.130891085E-1
2.952043229E0,-4.593091905E-1,-6.270182133E-1,-7.069804668E-1
2.954441459E0,-4.593091905E-1,-6.893264055E-1,-7.008718252E-1
2.956840573E0,-4.593091905E-1,-7.516346574E-1,-6.984283328E-1
2.959240417E0,-4.568657577E-1,-8.176079988E-1,-6.972066164E-1
2.961639427E0,-4.556440115E-1,-8.786944747E-1,-6.959849000E-1
2.964037657E0,-4.519788325E-1,-9.385592341E-1,-6.947631836E-1
2.966436771E0,-4.495353699E-1,-9.996457100E-1,-6.910979748E-1
2.968836615E0,-4.434267282E-1,-1.053401828E0,-6.874327660E-1
2.971235677E0,-4.360963404E-1,-1.107157946E0,-6.837676167E-1
2.973633907E0,-4.275442362E-1,-1.160914063E0,-6.788806915E-1
2.976033021E0,-4.226573110E-1,-1.213448405E0,-6.703285575E-1
2.978432865E0,-4.153269529E-1,-1.265982747E0,-6.642199159E-1
2.980831927E0,-4.079965651E-1,-1.313630223E0,-6.556678414E-1
2.983230157E0,-4.006661773E-1,-1.356390715E0,-6.471157074E-1
2.985629271E0,-3.957792819E-1,-1.393042684E0,-6.373418570E-1
2.988029115E0,-3.884488940E-1,-1.426029325E0,-6.287897825E-1
2.990428125E0,-3.823402524E-1,-1.451685667E0,-6.226811409E-1
2.992826354E0,-3.762316108E-1,-1.468789935E0,-6.190159321E-1
2.995225469E0,-3.713446856E-1,-1.478563666E0,-6.141290069E-1
2.997625313E0,-3.627925813E-1,-1.479785442E0,-6.129072905E-1
3.000024375E0,-3.566839397E-1,-1.473676801E0,-6.129072905E-1
3.002422604E0,-3.505752683E-1,-1.461459517E0,-6.153507233E-1
3.004821719E0,-3.444666266E-1,-1.444355249E0,-6.177942157E-1
3.007221563E0,-3.359145224E-1,-1.421142459E0,-6.214594245E-1
3.009620625E0,-3.273624182E-1,-1.393042684E0,-6.251245737E-1
3.012018854E0,-3.188103139E-1,-1.358834267E0,-6.275680661E-1
3.014417969E0,-3.102582097E-1,-1.320960641E0,-6.300114989E-1
3.016817813E0,-2.980409265E-1,-1.279421806E0,-6.312332153E-1
3.019216875E0,-2.846018970E-1,-1.236661315E0,-6.312332153E-1
3.021615052E0,-2.699411511E-1,-1.190235615E0,-6.336767077E-1
3.024014167E0,-2.516151667E-1,-1.142588139E0,-6.336767077E-1
3.026414011E0,-2.320674956E-1,-1.087610245E0,-6.336767077E-1
3.028813073E0,-2.100763619E-1,-1.031410694E0,-6.324549913E-1
3.031211302E0,-1.856417805E-1,-9.752111435E-1,-6.275680661E-1
3.033610417E0,-1.599854529E-1,-9.116811752E-1,-6.226811409E-1
3.036010261E0,-1.331074089E-1,-8.457077742E-1,-6.190159321E-1
3.038409323E0,-1.050076485E-1,-7.772909403E-1,-6.153507233E-1
3.040807552E0,-7.324267924E-2,-7.076523900E-1,-6.104638577E-1
3.043206667E0,-4.269944504E-2,-6.343486309E-1,-6.055769324E-1
3.045606511E0,-1.337793749E-2,-5.598230958E-1,-6.006900072E-1
3.048005573E0,1.838702708E-2,-4.840759337E-1,-5.945813656E-1
3.050403802E0,5.259545147E-2,-4.107721746E-1,-5.909161568E-1
3.052802865E0,8.436042070E-2,-3.386901319E-1,-5.872509480E-1
3.055202709E0,1.149036586E-1,-2.702732980E-1,-5.823640823E-1
3.057601771E0,1.442251652E-1,-2.079650760E-1,-5.786988735E-1
3.060000000E0,1.723249555E-1,-1.542089731E-1,-5.774771571E-1
3.062399115E0,1.955378056E-1,-1.090049893E-1,-5.762553811E-1
3.064798959E0,2.187506706E-1,-7.357484102E-2,-5.762553811E-1
3.067198021E0,2.382983416E-1,-4.303160310E-2,-5.750336647E-1
3.069596250E0,2.554025054E-1,-1.981874183E-2,-5.725902319E-1
3.071995365E0,2.700632811E-1,-2.714530099E-3,-5.725902319E-1
3.074395209E0,2.786153853E-1,9.502764791E-3,-5.750336647E-1
3.076794271E0,2.871674895E-1,1.194622368E-2,-5.799205899E-1
3.079192500E0,2.969413102E-1,1.316795498E-2,-5.823640823E-1
3.081591615E0,3.054934144E-1,1.072449237E-2,-5.835857987E-1
3.083991407E0,3.103803396E-1,2.172387671E-3,-5.848075151E-1
3.086390469E0,3.152672648E-1,-8.823176846E-3,-5.872509480E-1
3.088788698E0,3.177107275E-1,-3.081430681E-2,-5.896944404E-1
3.091187813E0,3.213759065E-1,-5.891408771E-2,-5.884727240E-1
3.093587657E0,3.225976527E-1,-9.067904949E-2,-5.896944404E-1
3.095986719E0,3.250410855E-1,-1.273309290E-1,-5.860292315E-1
3.098384948E0,3.274845481E-1,-1.688697338E-1,-5.835857987E-1
3.100784063E0,3.287062943E-1,-2.104085386E-1,-5.774771571E-1
3.103183907E0,3.311497569E-1,-2.592777312E-1,-5.689250231E-1
3.105582969E0,3.323714733E-1,-3.105903566E-1,-5.567077398E-1
3.107981198E0,3.311497569E-1,-3.619030118E-1,-5.408252478E-1
3.110380313E0,3.287062943E-1,-4.132156372E-1,-5.237210393E-1
3.112780157E0,3.250410855E-1,-4.706369340E-1,-5.053951144E-1
3.115179167E0,3.189324439E-1,-5.305016041E-1,-4.834039807E-1
3.117577396E0,3.103803396E-1,-5.952532887E-1,-4.589693844E-1
3.119976511E0,3.006065190E-1,-6.600049138E-1,-4.333130717E-1
3.122376354E0,2.896109521E-1,-7.284217477E-1,-4.039915502E-1
3.124775417E0,2.798371017E-1,-7.956168652E-1,-3.746700585E-1
3.127173646E0,2.688415349E-1,-8.628119826E-1,-3.453485370E-1
3.129572761E0,2.578459680E-1,-9.263419509E-1,-3.184705079E-1
3.131972604E0,2.480721623E-1,-9.813197851E-1,-2.915924489E-1
3.134371667E0,2.444069982E-1,-1.026523829E0,-2.634926736E-1
3.136769896E0,2.419635355E-1,-1.061954021E0,-2.317277193E-1
3.139169011E0,2.382983416E-1,-1.088832021E0,-2.036279440E-1
3.141568854E0,2.334114164E-1,-1.119375229E0,-1.779716164E-1
3.143967917E0,2.321896851E-1,-1.145031571E0,-1.523153037E-1
3.146366094E0,2.260810435E-1,-1.164579272E0,-1.339893639E-1
3.148765209E0,2.224158496E-1,-1.175574780E0,-1.181068867E-1
3.151165052E0,2.175289392E-1,-1.184126973E0,-1.046678573E-1
3.153564115E0,2.150854766E-1,-1.180461764E0,-9.245055914E-2
3.155962344E0,2.138637453E-1,-1.170687914E0,-8.512018621E-2
3.158361459E0,2.126420140E-1,-1.152361989E0,-7.656808197E-2
3.160761302E0,2.138637453E-1,-1.130370855E0,-7.045942545E-2
3.163160365E0,2.175289392E-1,-1.104714513E0,-6.435077637E-2
3.165558594E0,2.187506706E-1,-1.072949529E0,-5.946386233E-2
3.167957709E0,2.248593122E-1,-1.036297679E0,-5.457694456E-2
3.170357552E0,2.309679687E-1,-9.972022772E-1,-4.969002679E-2
3.172756615E0,2.370766103E-1,-9.532200098E-1,-4.602484033E-2
3.175154792E0,2.456287146E-1,-9.104594588E-1,-4.358138144E-2
3.177553959E0,2.505156100E-1,-8.676989079E-1,-4.480310902E-2
3.179953750E0,2.590677142E-1,-8.151645660E-1,-4.113792256E-2
3.182352813E0,2.688415349E-1,-7.565215230E-1,-3.380754590E-2
3.184751042E0,2.773936391E-1,-6.954351068E-1,-2.159024961E-2
3.187150157E0,2.859457433E-1,-6.331268549E-1,-1.059468463E-2
3.189550000E0,2.957195938E-1,-5.720403790E-1,-8.208493236E-4
3.191949063E0,3.030499816E-1,-5.097322464E-1,8.952986449E-3
3.194347292E0,3.116020858E-1,-4.486458004E-1,1.628336310E-2
3.196746407E0,3.189324439E-1,-3.863375783E-1,2.361373976E-2
3.199146250E0,3.323714733E-1,-3.215859234E-1,2.972238697E-2
3.201545313E0,3.458105028E-1,-2.580559850E-1,3.460930288E-2
3.203943542E0,3.592495322E-1,-1.981912404E-1,3.949622065E-2
3.206342657E0,3.751319945E-1,-1.395482272E-1,4.438313842E-2
3.208742448E0,3.910144866E-1,-8.457040042E-2,5.171351507E-2
3.211141511E0,4.081186950E-1,-3.570122644E-2,6.026561558E-2
3.213539740E0,4.301098287E-1,7.059305441E-3,6.759600341E-2
3.215938854E0,4.508792162E-1,4.493291676E-2,7.859155536E-2
3.218338698E0,4.740920961E-1,7.914134115E-2,8.836539090E-2
3.220737761E0,4.997484088E-1,1.084628552E-1,9.936095774E-2
3.223135990E0,5.254047513E-1,1.304539740E-1,1.103565246E-1
3.225535104E0,5.535045266E-1,1.524451077E-1,1.250172853E-1
3.227934948E0,5.803825259E-1,1.683275849E-1,1.360128522E-1
3.230334011E0,6.097040772E-1,1.805448830E-1,1.494518667E-1
3.232732240E0,6.414690018E-1,1.927621812E-1,1.641126126E-1
3.235131354E0,6.720122695E-1,2.000925541E-1,1.787733734E-1
3.237531198E0,7.037772536E-1,2.049794793E-1,1.922124028E-1
3.239930209E0,7.355421782E-1,2.110881209E-1,2.056514174E-1
3.242328438E0,7.673071623E-1,2.171967775E-1,2.203121781E-1
3.244727552E0,8.002938628E-1,2.269705981E-1,2.337511927E-1
3.247127396E0,8.332805634E-1,2.367444485E-1,2.471902221E-1
3.249526459E0,8.650454879E-1,2.489617169E-1,2.606292665E-1
3.251924688E0,8.968104720E-1,2.648442090E-1,2.728465497E-1
3.254323802E0,9.261319637E-1,2.807266712E-1,2.838421166E-1
3.256723646E0,9.517883062E-1,2.953874469E-1,2.936159670E-1
3.259122709E0,9.774446487E-1,3.100481927E-1,3.021680713E-1
3.261520938E0,1.000657558E0,3.222654760E-1,3.107201755E-1
3.263920052E0,1.021427035E0,3.357045054E-1,3.192722797E-1
3.266319896E0,1.038531184E0,3.467000723E-1,3.241592050E-1
3.268718959E0,1.053192019E0,3.552521765E-1,3.278243840E-1
3.271117188E0,1.065409303E0,3.625825644E-1,3.302678466E-1
3.273516250E0,1.075183153E0,3.686912060E-1,3.302678466E-1
3.275916094E0,1.082513452E0,3.723563850E-1,3.290461004E-1
3.278315157E0,1.088622093E0,3.772433102E-1,3.266026378E-1
3.280713386E0,1.091065526E0,3.796867728E-1,3.253809214E-1
3.283112500E0,1.092287302E0,3.833519518E-1,3.217157423E-1
3.285512344E0,1.091065526E0,3.894605935E-1,3.229374588E-1
3.287911407E0,1.092287302E0,3.943475187E-1,3.229374588E-1
3.290309636E0,1.093509078E0,4.004561603E-1,3.290461004E-1
3.292708750E0,1.094730735E0,4.077865481E-1,3.388199508E-1
3.295108594E0,1.097174168E0,4.175603986E-1,3.485937715E-1
3.297507657E0,1.102061152E0,4.297776818E-1,3.656979799E-1
3.299905886E0,1.106948018E0,4.432167113E-1,3.828022182E-1
3.302305000E0,1.109391570E0,4.529905319E-1,4.035716057E-1
3.304704844E0,1.114278436E0,4.664295614E-1,4.255627394E-1
3.307103854E0,1.121608853E0,4.774251282E-1,4.463321269E-1
3.309502084E0,1.125274062E0,4.859772325E-1,4.671015441E-1
3.311901198E0,1.127717495E0,4.957510829E-1,4.866492152E-1
3.314301042E0,1.130160928E0,5.055249333E-1,5.074186325E-1
3.316700104E0,1.130160928E0,5.177422762E-1,5.220793486E-1
3.319098334E0,1.128939152E0,5.324029922E-1,5.367401242E-1
3.321497448E0,1.120387077E0,5.507289767E-1,5.452921987E-1
3.323897292E0,1.109391570E0,5.751635432E-1,5.526226163E-1
3.326296354E0,1.091065526E0,6.081502438E-1,5.575095415E-1
3.328694584E0,1.065409303E0,6.484673023E-1,5.550660491E-1
3.331093698E0,1.037309527E0,6.985582113E-1,5.477356911E-1
3.333493542E0,1.001879334E0,7.486491203E-1,5.391835570E-1
3.335892604E0,9.640055895E-1,8.036269546E-1,5.257445574E-1
3.338290834E0,9.236885309E-1,8.610482216E-1,5.123055577E-1
3.340689896E0,8.833714724E-1,9.148043394E-1,4.964230359E-1
3.343089740E0,8.381674886E-1,9.673386812E-1,4.805405736E-1
3.345488802E0,7.917417288E-1,1.014986038E0,4.609929025E-1
3.347887032E0,7.440943122E-1,1.055303097E0,4.402234852E-1
3.350286146E0,6.952251196E-1,1.084624648E0,4.182323515E-1
3.352685990E0,6.463559270E-1,1.102950573E0,3.974629641E-1
3.355085052E0,5.950433016E-1,1.107837558E0,3.754718304E-1
3.357483282E0,5.473958850E-1,1.101728916E0,3.559241593E-1
3.359882396E0,5.034136176E-1,1.083402872E0,3.375982046E-1
3.362282240E0,4.655399919E-1,1.052859664E0,3.229374588E-1
3.364681302E0,4.362184703E-1,1.016207814E0,3.107201755E-1
3.367079532E0,4.142273366E-1,9.746690392E-1,3.009463251E-1
3.369478646E0,4.007883370E-1,9.306868315E-1,2.936159670E-1
3.371878490E0,4.007883370E-1,8.867045641E-1,2.875072956E-1
3.374277500E0,4.154490829E-1,8.427222967E-1,2.826204002E-1
3.376675729E0,4.423271120E-1,7.938531041E-1,2.789551914E-1
3.379074844E0,4.802007377E-1,7.388752699E-1,2.777334750E-1
3.381474688E0,5.327351093E-1,6.802322865E-1,2.765117288E-1
3.383873750E0,5.913780928E-1,6.130371690E-1,2.752900124E-1
3.386271979E0,6.561297774E-1,5.385116339E-1,2.752900124E-1
3.388671094E0,7.269901037E-1,4.517688155E-1,2.765117288E-1
3.391070938E0,7.978503704E-1,3.601391017E-1,2.789551914E-1
3.393470000E0,8.699324131E-1,2.648442090E-1,2.826204002E-1
3.395868229E0,9.371275306E-1,1.695493162E-1,2.875072956E-1
3.398267344E0,9.994358420E-1,7.547615469E-2,2.899507582E-1
3.400667188E0,1.051970243E0,-1.981874183E-2,2.899507582E-1
3.403066250E0,1.092287302E0,-1.138919070E-1,2.862855792E-1
3.405464427E0,1.121608853E0,-2.018564343E-1,2.777334750E-1
3.407863542E0,1.135047793E0,-2.800471187E-1,2.630727291E-1
3.410263386E0,1.130160928E0,-3.447988033E-1,2.459684908E-1
3.412662448E0,1.115500212E0,-3.973331451E-1,2.288642824E-1
3.415060677E0,1.082513452E0,-4.388719499E-1,2.117600739E-1
3.417459792E0,1.038531184E0,-4.669717252E-1,1.946558505E-1
3.419859636E0,9.835532904E-1,-4.804107547E-1,1.836602837E-1
3.422258698E0,9.200233221E-1,-4.828542173E-1,1.751081795E-1
3.424656927E0,8.552716970E-1,-4.730803668E-1,1.677778065E-1
3.427056042E0,7.856330872E-1,-4.547544420E-1,1.641126126E-1
3.429455886E0,7.159945369E-1,-4.364284873E-1,1.641126126E-1
3.431854948E0,6.439124942E-1,-4.181025624E-1,1.714430004E-1
3.434253177E0,5.754956603E-1,-4.046635330E-1,1.848820150E-1
3.436652292E0,5.070787668E-1,-3.973331451E-1,2.032079548E-1
3.439052084E0,4.435488582E-1,-4.022200704E-1,2.227556258E-1
3.441451146E0,3.861275613E-1,-4.217677414E-1,2.471902221E-1
3.443849375E0,3.372583985E-1,-4.547544420E-1,2.704030871E-1
3.446248490E0,2.957195938E-1,-5.036235452E-1,2.948376834E-1
3.448648334E0,2.676198184E-1,-5.683752298E-1,3.192722797E-1
3.451047396E0,2.480721623E-1,-6.441224217E-1,3.412634134E-1
3.453445625E0,2.395200729E-1,-7.247565985E-1,3.608110845E-1
3.455844740E0,2.395200729E-1,-8.102776408E-1,3.766935468E-1
3.458244584E0,2.456287146E-1,-8.848031163E-1,3.925760388E-1
3.460643646E0,2.541807890E-1,-9.483330846E-1,4.047933221E-1
3.463041875E0,2.651763558E-1,-9.935370684E-1,4.170106351E-1
3.465440990E0,2.761719227E-1,-1.024080396E0,4.280062020E-1
3.467840834E0,2.859457433E-1,-1.039962888E0,4.353365600E-1
3.470239844E0,2.944978476E-1,-1.044849753E0,4.426669478E-1
3.472638073E0,3.006065190E-1,-1.037519336E0,4.487755895E-1
3.475037188E0,3.054934144E-1,-1.017971635E0,4.536625147E-1
3.477437032E0,3.128238022E-1,-9.898718596E-1,4.548842311E-1
3.479836094E0,3.189324439E-1,-9.507765174E-1,4.536625147E-1
3.482234323E0,3.262628317E-1,-9.043508172E-1,4.512190521E-1
3.484633438E0,3.421453238E-1,-8.505946994E-1,4.463321269E-1
3.487033282E0,3.555843234E-1,-7.919517159E-1,4.377800226E-1
3.489432344E0,3.763537407E-1,-7.296435237E-1,4.292279184E-1
3.491830573E0,3.995665908E-1,-6.624484062E-1,4.194540977E-1
3.494229688E0,4.325532913E-1,-5.891446471E-1,4.096802473E-1
3.496629532E0,4.667617083E-1,-5.109539628E-1,3.999064267E-1
3.499028594E0,5.107439756E-1,-4.266546667E-1,3.876891136E-1
3.501426823E0,5.559479594E-1,-3.374684155E-1,3.730283678E-1
3.503825938E0,6.072605848E-1,-2.421735078E-1,3.559241593E-1
3.506225729E0,6.597949862E-1,-1.395482272E-1,3.375982046E-1
3.508624792E0,7.111076117E-1,-3.325776756E-2,3.180505335E-1
3.511023021E0,7.636419535E-1,7.058923692E-2,2.972811460E-1
3.513422136E0,8.137328625E-1,1.695493162E-1,2.765117288E-1
3.515821979E0,8.601586223E-1,2.624007463E-1,2.557423413E-1
3.518221042E0,9.029191136E-1,3.442566097E-1,2.313077450E-1
3.520619271E0,9.407927394E-1,4.212255776E-1,2.068731487E-1
3.523018386E0,9.676707983E-1,4.859772325E-1,1.799951047E-1
3.525418229E0,9.896619320E-1,5.409551263E-1,1.506735981E-1
3.527817292E0,1.004322767E0,5.873808265E-1,1.225738227E-1
3.530215521E0,1.010431409E0,6.276978850E-1,9.203058481E-2
3.532614636E0,1.005544543E0,6.570194364E-1,5.904389173E-2
3.535014479E0,9.945487976E-1,6.741236448E-1,2.727892809E-2
3.537413490E0,9.713359475E-1,6.826757193E-1,-3.264308209E-3
3.539811719E0,9.407927394E-1,6.814540029E-1,-3.258581832E-2
3.542210834E0,9.016973972E-1,6.716801524E-1,-6.068559363E-2
3.544610677E0,8.552716970E-1,6.582411528E-1,-8.756364882E-2
3.547009740E0,8.039590120E-1,6.435803771E-1,-1.119982302E-1
3.549407969E0,7.502029538E-1,6.203675270E-1,-1.327676326E-1
3.551807084E0,6.903381944E-1,5.983763933E-1,-1.510935724E-1
3.554206927E0,6.316952109E-1,5.727201104E-1,-1.608674079E-1
3.556605990E0,5.730521679E-1,5.409551263E-1,-1.657543331E-1
3.559004219E0,5.192960501E-1,5.043032169E-1,-1.620891392E-1
3.561403334E0,4.667617083E-1,4.554339945E-1,-1.486501247E-1
3.563803177E0,4.166707993E-1,3.955692649E-1,-1.266589910E-1
3.566202240E0,3.702450991E-1,3.357045054E-1,-9.611575305E-2
3.568600469E0,3.335931897E-1,2.795049548E-1,-6.312904507E-2
3.570999584E0,2.993847728E-1,2.245271504E-1,-2.647716738E-2
3.573399375E0,2.737284601E-1,1.671058685E-1,1.261817478E-2
3.575798438E0,2.529590726E-1,1.109063029E-1,5.537870154E-2
3.578196667E0,2.370766103E-1,5.348502100E-2,1.005826890E-1
3.580595782E0,2.273027748E-1,-2.710712142E-4,1.445649415E-1
3.582995625E0,2.187506706E-1,-5.158370733E-2,1.885472089E-1
3.585394688E0,2.138637453E-1,-9.312251210E-2,2.313077450E-1
3.587792917E0,2.138637453E-1,-1.273309290E-1,2.704030871E-1
3.590192032E0,2.138637453E-1,-1.542089731E-1,3.070549667E-1
3.592591875E0,2.126420140E-1,-1.725349277E-1,3.400416672E-1
3.594990938E0,2.138637453E-1,-1.847522110E-1,3.718066514E-1
3.597389167E0,2.138637453E-1,-1.908608675E-1,4.035716057E-1
3.599788282E0,2.138637453E-1,-1.933043152E-1,4.328930974E-1
3.602188125E0,2.138637453E-1,-1.859739423E-1,4.585494399E-1
3.604587188E0,2.150854766E-1,-1.737566441E-1,4.817622900E-1
3.606985365E0,2.175289392E-1,-1.529872566E-1,5.025317073E-1
3.609384479E0,2.211941183E-1,-1.297743917E-1,5.196359158E-1
3.611784323E0,2.273027748E-1,-1.028963476E-1,5.330749154E-1
3.614183386E0,2.321896851E-1,-7.235310972E-2,5.477356911E-1
3.616581615E0,2.419635355E-1,-4.180987179E-2,5.538443327E-1
3.618980729E0,2.529590726E-1,-1.248836517E-2,5.611746907E-1
3.621380573E0,2.676198184E-1,1.561141014E-2,5.636181831E-1
3.623779636E0,2.835023105E-1,3.760254383E-2,5.623964071E-1
3.626177865E0,3.018282354E-1,5.470675230E-2,5.623964071E-1
3.628576979E0,3.238193691E-1,6.325885653E-2,5.587312579E-1
3.630976823E0,3.470322192E-1,7.303269207E-2,5.550660491E-1
3.633375886E0,3.702450991E-1,7.547615469E-2,5.489574075E-1
3.635774115E0,3.946796656E-1,7.669788599E-2,5.416270494E-1
3.638173229E0,4.178925455E-1,7.181096822E-2,5.318531990E-1
3.640573073E0,4.386619329E-1,5.837194622E-2,5.233010650E-1
3.642972084E0,4.582096040E-1,3.760254383E-2,5.147489905E-1
3.645370313E0,4.777572751E-1,1.561141014E-2,5.074186325E-1
3.647769427E0,4.960832000E-1,-1.248836517E-2,4.976447523E-1
3.650169271E0,5.095222592E-1,-4.180987179E-2,4.890926778E-1
3.652568334E0,5.217395425E-1,-7.357484102E-2,4.805405736E-1
3.654966563E0,5.302916169E-1,-1.053398028E-1,4.707667232E-1
3.657365677E0,5.376220345E-1,-1.358830482E-1,4.609929025E-1
3.659765521E0,5.425089598E-1,-1.652045399E-1,4.512190521E-1
3.662164584E0,5.412871838E-1,-1.920825988E-1,4.402234852E-1
3.664562813E0,5.425089598E-1,-2.152954489E-1,4.316713810E-1
3.666961927E0,5.388437510E-1,-2.385083139E-1,4.206758142E-1
3.669361771E0,5.327351093E-1,-2.580559850E-1,4.109019935E-1
3.671760834E0,5.229612589E-1,-2.751602232E-1,4.023498893E-1
3.674159063E0,5.119656920E-1,-2.922644317E-1,3.913543224E-1
3.676558125E0,4.985266924E-1,-3.081468940E-1,3.803587556E-1
3.678957969E0,4.899745584E-1,-3.240293860E-1,3.718066514E-1
3.681357032E0,4.789790213E-1,-3.423553407E-1,3.620328009E-1
3.683755261E0,4.704269171E-1,-3.582378030E-1,3.522589803E-1
3.686154375E0,4.643182456E-1,-3.753420115E-1,3.424851298E-1
3.688554219E0,4.618747830E-1,-3.838941455E-1,3.314895630E-1
3.690953282E0,4.630965292E-1,-3.936679661E-1,3.192722797E-1
3.693351511E0,4.704269171E-1,-3.961114287E-1,3.107201755E-1
3.695750625E0,4.789790213E-1,-3.985548913E-1,3.033897877E-1
3.698150469E0,4.911963046E-1,-3.973331451E-1,2.960594296E-1
3.700549532E0,5.058570504E-1,-3.924462497E-1,2.911725044E-1
3.702947761E0,5.192960501E-1,-3.863375783E-1,2.887290418E-1
3.705346875E0,5.376220345E-1,-3.753420115E-1,2.887290418E-1
3.707746719E0,5.547262430E-1,-3.594595492E-1,2.862855792E-1
3.710145729E0,5.742738843E-1,-3.435770571E-1,2.850638628E-1
3.712543959E0,5.950433016E-1,-3.240293860E-1,2.826204002E-1
3.714943073E0,6.158127189E-1,-3.008165359E-1,2.801769376E-1
3.717342917E0,6.341386437E-1,-2.788254023E-1,2.789551914E-1
3.719741979E0,6.536863446E-1,-2.568342686E-1,2.752900124E-1
3.722140209E0,6.707905531E-1,-2.323996574E-1,2.691813707E-1
3.724539323E0,6.866729856E-1,-2.079650760E-1,2.667379081E-1
3.726939167E0,7.025554776E-1,-1.871956736E-1,2.618509829E-1
3.729338229E0,7.123293281E-1,-1.652045399E-1,2.545205951E-1
3.731736459E0,7.221031785E-1,-1.407699585E-1,2.508554161E-1
3.734135573E0,7.282118201E-1,-1.151136383E-1,2.484119534E-1
3.736535417E0,7.355421782E-1,-8.945731819E-2,2.435250282E-1
3.738934479E0,7.367638946E-1,-6.013581157E-2,2.410815805E-1
3.741332709E0,7.392073870E-1,-2.592738904E-2,2.398598492E-1
3.743731823E0,7.379856706E-1,5.837575998E-3,2.410815805E-1
3.746131667E0,7.379856706E-1,4.126773030E-2,2.398598492E-1
3.748530677E0,7.343204618E-1,7.914134115E-2,2.435250282E-1
3.750928907E0,7.330987453E-1,1.170149595E-1,2.459684908E-1
3.753328021E0,7.294335365E-1,1.561103016E-1,2.496336997E-1
3.755727865E0,7.282118201E-1,1.952056438E-1,2.532988787E-1
3.758126927E0,7.257683277E-1,2.318575233E-1,2.545205951E-1
3.760525157E0,7.245466113E-1,2.636224627E-1,2.594075203E-1
3.762924271E0,7.233248949E-1,2.917222381E-1,2.655161917E-1
3.765324115E0,7.245466113E-1,3.149351180E-1,2.704030871E-1
3.767723177E0,7.269901037E-1,3.332610428E-1,2.740682960E-1
3.770121407E0,7.306552529E-1,3.503652513E-1,2.777334750E-1
3.772520521E0,7.367638946E-1,3.613608181E-1,2.850638628E-1
3.774920365E0,7.416508198E-1,3.699129224E-1,2.887290418E-1
3.777319375E0,7.502029538E-1,3.747998476E-1,2.948376834E-1
3.779717657E0,7.599768043E-1,3.747998476E-1,2.985028625E-1
3.782116719E0,7.721940875E-1,3.760215938E-1,3.021680713E-1
3.784516563E0,7.856330872E-1,3.747998476E-1,3.058332503E-1
3.786915625E0,7.990721464E-1,3.711346686E-1,3.094984293E-1
3.789313854E0,8.161763549E-1,3.674694896E-1,3.119418919E-1
3.791712969E0,8.345022798E-1,3.601391017E-1,3.131636381E-1
3.794112813E0,8.552716970E-1,3.528087139E-1,3.143853545E-1
3.796511875E0,8.748193383E-1,3.467000723E-1,3.156070709E-1
3.798910104E0,8.980321884E-1,3.430348933E-1,3.143853545E-1
3.801309219E0,9.212450385E-1,3.430348933E-1,3.156070709E-1
3.803709063E0,9.444579482E-1,3.430348933E-1,3.192722797E-1
3.806108125E0,9.725577235E-1,3.442566097E-1,3.229374588E-1
3.808506354E0,9.982140660E-1,3.515869975E-1,3.302678466E-1
3.810905469E0,1.022648692E0,3.601391017E-1,3.400416672E-1
3.813305261E0,1.044639826E0,3.723563850E-1,3.534806967E-1
3.815704323E0,1.066630960E0,3.845736980E-1,3.693631887E-1
3.818102552E0,1.083735228E0,4.041213691E-1,3.901325762E-1
3.820501667E0,1.095952511E0,4.273342192E-1,4.096802473E-1
3.822901511E0,1.104504585E0,4.566557407E-1,4.365583062E-1
3.825300573E0,1.106948018E0,4.908641577E-1,4.646580815E-1
3.827698802E0,1.103282928E0,5.287378430E-1,4.939795732E-1
3.830097917E0,1.092287302E0,5.714983344E-1,5.257445574E-1
3.832497761E0,1.075183153E0,6.154806018E-1,5.575095415E-1
3.834896823E0,1.049526811E0,6.643497944E-1,5.917179585E-1
3.837295052E0,1.015318394E0,7.132189870E-1,6.247046590E-1
3.839694167E0,9.737794399E-1,7.657533288E-1,6.576913595E-1
3.842094011E0,9.236885309E-1,8.207311630E-1,6.894562840E-1
3.844493073E0,8.650454879E-1,8.720437884E-1,7.187777758E-1
3.846891250E0,7.978503704E-1,9.233564138E-1,7.480993271E-1
3.849290417E0,7.221031785E-1,9.722256064E-1,7.749773264E-1
3.851690209E0,6.390255690E-1,1.019873023E0,7.969684601E-1
3.854089271E0,5.547262430E-1,1.062633514E0,8.165161610E-1
3.856487500E0,4.618747830E-1,1.099285364E0,8.336203694E-1
3.858886615E0,3.653581738E-1,1.128606915E0,8.482811451E-1
3.861286459E0,2.676198184E-1,1.151819825E0,8.592767119E-1
3.863685521E0,1.698814929E-1,1.168923974E0,8.666070700E-1
3.866083750E0,7.458658516E-2,1.178697824E0,8.690505028E-1
3.868482865E0,-2.070831507E-2,1.181141257E0,8.702722788E-1
3.870882709E0,-1.123380214E-1,1.179919600E0,8.678287864E-1
3.873281771E0,-2.027459890E-1,1.171367407E0,8.617201447E-1
3.875680000E0,-2.870453596E-1,1.154263258E0,8.519462943E-1
3.878079115E0,-3.713446856E-1,1.135937333E0,8.397290111E-1
3.880478959E0,-4.483136535E-1,1.107837558E0,8.226248026E-1
3.882878021E0,-5.216174126E-1,1.071185589E0,8.042988777E-1
3.885276250E0,-5.875908136E-1,1.028425097E0,7.823077440E-1
3.887675313E0,-6.486772895E-1,9.819994569E-1,7.566514015E-1
3.890075157E0,-7.048768401E-1,9.270216227E-1,7.297733426E-1
3.892474219E0,-7.537459731E-1,8.647134304E-1,7.028953433E-1
3.894872448E0,-7.977282405E-1,7.938531041E-1,6.760172844E-1
3.897271563E0,-8.368235826E-1,7.156624198E-1,6.491392255E-1
3.899671407E0,-8.734754920E-1,6.325848103E-1,6.222611666E-1
3.902070469E0,-9.101273417E-1,5.409551263E-1,5.941613913E-1
3.904468698E0,-9.480009675E-1,4.432167113E-1,5.660616159E-1
3.906867813E0,-9.870963097E-1,3.405914307E-1,5.367401242E-1
3.909267657E0,-1.032300234E0,2.306358069E-1,5.061969161E-1
3.911666719E0,-1.081169367E0,1.206801385E-1,4.744319022E-1
3.914064948E0,-1.134925485E0,8.281035349E-3,4.426669478E-1
3.916464011E0,-1.189903259E0,-1.053398028E-1,4.060150683E-1
3.918863854E0,-1.247324586E0,-2.226258367E-1,3.681414425E-1
3.921262917E0,-1.303524137E0,-3.399118781E-1,3.253809214E-1
3.923661146E0,-1.356058478E0,-4.547544420E-1,2.789551914E-1
3.926060261E0,-1.402484179E0,-5.708186626E-1,2.264208198E-1
3.928460104E0,-1.445244789E0,-6.832177639E-1,1.653343439E-1
3.930859167E0,-1.481896639E0,-7.895082235E-1,9.691751003E-2
3.933257396E0,-1.507552981E0,-8.835813999E-1,1.994855143E-2
3.935656511E0,-1.527100563E0,-9.691025019E-1,-6.679424644E-2
3.938056354E0,-1.542983055E0,-1.046071529E0,-1.645326018E-1
3.940455417E0,-1.558865547E0,-1.114488363E0,-2.732664943E-1
3.942853646E0,-1.575969815E0,-1.173131347E0,-3.929959834E-1
3.945252761E0,-1.593073964E0,-1.220778823E0,-5.212776065E-1
3.947652604E0,-1.613843441E0,-1.253765464E0,-6.507809162E-1
3.950051667E0,-1.639499784E0,-1.267204523E0,-7.741755843E-1
3.952449896E0,-1.672486424E0,-1.264761090E0,-8.853529692E-1
3.954848959E0,-1.710360050E0,-1.243991613E0,-9.782043695E-1
3.957248802E0,-1.754342318E0,-1.206117988E0,-1.050286412E0
3.959647865E0,-1.806876659E0,-1.152361989E0,-1.104042530E0
3.962046094E0,-1.864297986E0,-1.087610245E0,-1.144359589E0
3.964445209E0,-1.922940969E0,-1.016749978E0,-1.170015931E0
3.966845052E0,-1.987692595E0,-9.397809505E-1,-1.187120080E0
3.969244115E0,-2.053666115E0,-8.615902662E-1,-1.195672274E0
3.971642344E0,-2.120861292E0,-7.797344327E-1,-1.199337363E0
3.974041459E0,-2.191721439E0,-6.954351068E-1,-1.200559139E0
3.976441302E0,-2.265025377E0,-6.111357212E-1,-1.198115706E0
3.978840365E0,-2.338329077E0,-5.231712461E-1,-1.195672274E0
3.981238594E0,-2.409189463E0,-4.315415919E-1,-1.193228722E0
3.983637709E0,-2.483714819E0,-3.374684155E-1,-1.190785289E0
3.986037552E0,-2.560683727E0,-2.458386868E-1,-1.189563632E0
3.988436563E0,-2.636430979E0,-1.554307044E-1,-1.188341856E0
3.990834792E0,-2.707291365E0,-6.380100548E-2,-1.189563632E0
3.993233907E0,-2.775708199E0,2.172005922E-2,-1.194450498E0
3.995633750E0,-2.842903376E0,1.109063029E-1,-1.200559139E0
3.998032813E0,-2.906433344E0,1.964273751E-1,-1.212776423E0
4.000431042E0,-2.961410999E0,2.831701338E-1,-1.224993706E0
4.002830157E0,-3.011502028E0,3.674694896E-1,-1.238432765E0
4.005230000E0,-3.055484295E0,4.456601739E-1,-1.250650048E0
4.007629063E0,-3.089692593E0,5.189639926E-1,-1.262867332E0
4.010027292E0,-3.115349054E0,5.849373937E-1,-1.273862958E0
4.012426407E0,-3.127566338E0,6.374717355E-1,-1.279971600E0
4.014826250E0,-3.131231546E0,6.741236448E-1,-1.282415032E0
4.017225313E0,-3.117792368E0,6.973364949E-1,-1.278749824E0
4.019623542E0,-3.095801353E0,7.144407034E-1,-1.271419406E0
4.022022604E0,-3.061592817E0,7.266579866E-1,-1.259202123E0
4.024422448E0,-3.010280371E0,7.388752699E-1,-1.245763183E0
4.026821511E0,-2.951637268E0,7.486491203E-1,-1.229880691E0
4.029219740E0,-2.879555225E0,7.498708367E-1,-1.211554766E0
4.031618854E0,-2.796477556E0,7.474274039E-1,-1.189563632E0
4.034018698E0,-2.706069708E0,7.364318371E-1,-1.162685513E0
4.036417761E0,-2.608331203E0,7.193276286E-1,-1.132142305E0
4.038815990E0,-2.500819206E0,6.936712861E-1,-1.101599097E0
4.041215104E0,-2.388420105E0,6.570194364E-1,-1.069834113E0
4.043614948E0,-2.273577452E0,6.118154526E-1,-1.031960487E0
4.046014011E0,-2.156291485E0,5.629462600E-1,-9.879782200E-1
4.048412240E0,-2.043892384E0,5.116336346E-1,-9.403308034E-1
4.050811354E0,-1.935158253E0,4.627643824E-1,-8.902398944E-1
4.053211198E0,-1.833754659E0,4.077865481E-1,-8.389272094E-1
4.055610261E0,-1.740903258E0,3.418131471E-1,-7.900580764E-1
4.058008490E0,-1.656603932E0,2.624007463E-1,-7.448540926E-1
4.060407552E0,-1.578413248E0,1.597754806E-1,-7.045369744E-1
4.062807396E0,-1.506331205E0,3.149389476E-2,-6.703285575E-1
4.065206459E0,-1.431805730E0,-1.175570935E-1,-6.446722746E-1
4.067604688E0,-1.362167120E0,-2.873775065E-1,-6.214594245E-1
4.070003802E0,-1.290085077E0,-4.828542173E-1,-6.067986488E-1
4.072403646E0,-1.216781378E0,-6.954351068E-1,-5.921378732E-1
4.074802709E0,-1.147142768E0,-9.165681005E-1,-5.762553811E-1
4.077200938E0,-1.078725934E0,-1.141366363E0,-5.591511726E-1
4.079600052E0,-1.015195966E0,-1.367386341E0,-5.383818150E-1
4.081999896E0,-9.577748179E-1,-1.586075902E0,-5.115037560E-1
4.084398959E0,-9.089056253E-1,-1.802322030E0,-4.711866677E-1
4.086797188E0,-8.637016416E-1,-1.999020457E0,-4.198740423E-1
4.089196302E0,-8.258280158E-1,-2.168840885E0,-3.575658500E-1
4.091596094E0,-7.879544497E-1,-2.309339762E0,-2.915924489E-1
4.093995157E0,-7.488591075E-1,-2.415630341E0,-2.243973464E-1
4.096393386E0,-7.036550641E-1,-2.482825518E0,-1.559804976E-1
4.098792500E0,-6.547859311E-1,-2.513368607E0,-8.756364882E-2
4.101192344E0,-6.034733057E-1,-2.497486115E0,-2.036851831E-2
4.103591407E0,-5.484954715E-1,-2.440064907E0,4.316140711E-2
4.105989636E0,-4.971828163E-1,-2.344769955E0,9.813922644E-2
4.108388750E0,-4.556440115E-1,-2.211601496E0,1.470084041E-1
4.110788594E0,-4.397615194E-1,-2.044224501E0,1.799951047E-1
4.113187657E0,-4.409832656E-1,-1.845082521E0,1.958775818E-1
4.115585886E0,-4.727482200E-1,-1.625171304E0,1.922124028E-1
4.117985000E0,-5.277260542E-1,-1.393042684E0,1.714430004E-1
4.120384844E0,-6.083601713E-1,-1.156027198E0,1.323476583E-1
4.122783907E0,-7.024333477E-1,-9.324505925E-1,8.103501797E-2
4.125182136E0,-8.062803745E-1,-7.247565985E-1,2.117028087E-2
4.127581250E0,-9.113491178E-1,-5.427188873E-1,-4.969002679E-2
4.129981042E0,-1.012752533E0,-3.936679661E-1,-1.229937971E-1
4.132380104E0,-1.110490918E0,-2.824905813E-1,-1.975192875E-1
4.134778334E0,-1.198455453E0,-2.140737176E-1,-2.671578526E-1
4.137177448E0,-1.277867794E0,-1.908608675E-1,-3.343529701E-1
4.139577292E0,-1.343841195E0,-2.006347030E-1,-3.954394460E-1
4.141976354E0,-1.396375537E0,-2.433952242E-1,-4.504172802E-1
4.144374584E0,-1.434249163E0,-3.093686402E-1,-4.968429804E-1
4.146773698E0,-1.458683729E0,-3.924462497E-1,-5.334948897E-1
4.149173542E0,-1.469679356E0,-4.914063215E-1,-5.640380979E-1
4.151572604E0,-1.468457580E0,-5.989184380E-1,-5.909161568E-1
4.153970834E0,-1.457462072E0,-7.137610316E-1,-6.116855741E-1
4.156369948E0,-1.437914371E0,-8.261601329E-1,-6.263462901E-1
4.158769792E0,-1.411036372E0,-9.348940253E-1,-6.336767077E-1
4.161168802E0,-1.380493045E0,-1.030189037E0,-6.397853494E-1
4.163567032E0,-1.343841195E0,-1.113266587E0,-6.373418570E-1
4.165966146E0,-1.308411002E0,-1.178018212E0,-6.287897825E-1
4.168365990E0,-1.271759152E0,-1.219557047E0,-6.177942157E-1
4.170765052E0,-1.237550735E0,-1.239104748E0,-6.006900072E-1
4.173163282E0,-1.202120543E0,-1.235439539E0,-5.811423063E-1
4.175562396E0,-1.171577334E0,-1.214670181E0,-5.615946651E-1
4.177962240E0,-1.139812350E0,-1.164579272E0,-5.371600389E-1
4.180361302E0,-1.110490918E0,-1.093718886E0,-5.151689053E-1
4.182759532E0,-1.079947591E0,-1.010641336E0,-4.895126224E-1
4.185158646E0,-1.051847816E0,-9.238984585E-1,-4.662997723E-1
4.187558490E0,-1.027413249E0,-8.408209085E-1,-4.455303550E-1
4.189957552E0,-9.993135929E-1,-7.516346574E-1,-4.284261465E-1
4.192355729E0,-9.687703848E-1,-6.600049138E-1,-4.198740423E-1
4.194754896E0,-9.382271171E-1,-5.683752298E-1,-4.198740423E-1
4.197154688E0,-9.052404761E-1,-4.730803668E-1,-4.345347881E-1
4.199553750E0,-8.698102832E-1,-3.777854741E-1,-4.577476382E-1
4.201951979E0,-8.319366574E-1,-2.763819396E-1,-4.907343388E-1
4.204351094E0,-7.903978825E-1,-1.798653007E-1,-5.298296809E-1
4.206750938E0,-7.488591075E-1,-8.457040042E-2,-5.713685155E-1
4.209150000E0,-7.036550641E-1,8.281035349E-3,-6.153507233E-1
4.211548229E0,-6.584510803E-1,9.624555707E-2,-6.581112742E-1
4.213947344E0,-6.095819473E-1,1.781014353E-1,-6.996501088E-1
4.216347188E0,-5.619344711E-1,2.538486421E-1,-7.375236750E-1
4.218746250E0,-5.130652785E-1,3.271524012E-1,-7.705103755E-1
4.221144479E0,-4.629743993E-1,3.955692649E-1,-8.010536432E-1
4.223543594E0,-4.104400277E-1,4.639860988E-1,-8.242664933E-1
4.225943438E0,-3.627925813E-1,5.250726342E-1,-8.438141346E-1
4.228342448E0,-3.114799261E-1,5.849373937E-1,-8.572531939E-1
4.230740677E0,-2.613890469E-1,6.399152279E-1,-8.658052683E-1
4.233139792E0,-2.137415558E-1,6.875626445E-1,-8.706921935E-1
4.235539636E0,-1.697593033E-1,7.266579866E-1,-8.780225515E-1
4.237938698E0,-1.282205135E-1,7.559794784E-1,-8.804660439E-1
4.240336927E0,-8.790344000E-2,7.767488956E-1,-8.816877604E-1
4.242736042E0,-4.758636281E-2,7.865227461E-1,-8.792443275E-1
4.245135886E0,-1.337793749E-2,7.804141045E-1,-8.768008351E-1
4.247534948E0,1.838702708E-2,7.633098960E-1,-8.743574023E-1
4.249933177E0,4.893026128E-2,7.327666283E-1,-8.706921935E-1
4.252332292E0,7.580831647E-2,6.912278533E-1,-8.658052683E-1
4.254732136E0,1.002428979E-1,6.350283027E-1,-8.584749103E-1
4.257131198E0,1.210123152E-1,5.653896928E-1,-8.499227762E-1
4.259529427E0,1.368947923E-1,4.835337996E-1,-8.413707018E-1
4.261928542E0,1.503338218E-1,3.894605935E-1,-8.279316425E-1
4.264328334E0,1.601076573E-1,2.843918800E-1,-8.108274341E-1
4.266727396E0,1.637728363E-1,1.695493162E-1,-7.949450016E-1
4.269125625E0,1.637728363E-1,4.371118546E-2,-7.778407931E-1
4.271524740E0,1.625511050E-1,-8.701386303E-2,-7.570713758E-1
4.273924584E0,1.564424634E-1,-2.226258367E-1,-7.363019586E-1
4.276323646E0,1.478903592E-1,-3.582378030E-1,-7.143108249E-1
4.278721875E0,1.393382549E-1,-4.938497841E-1,-6.923196912E-1
4.281120990E0,1.283426881E-1,-6.270182133E-1,-6.715502739E-1
4.283520834E0,1.197905689E-1,-7.528563738E-1,-6.495591998E-1
4.285919896E0,1.112384647E-1,-8.664771914E-1,-6.300114989E-1
4.288318125E0,1.075732708E-1,-9.691025019E-1,-6.129072905E-1
4.290717240E0,1.063515395E-1,-1.057067037E0,-5.994682908E-1
4.293117084E0,1.026863605E-1,-1.127927303E0,-5.860292315E-1
4.295516146E0,1.051298231E-1,-1.186570406E0,-5.750336647E-1
4.297914323E0,1.075732708E-1,-1.224444032E0,-5.652598143E-1
4.300313438E0,1.124601960E-1,-1.253765464E0,-5.554860234E-1
4.302713282E0,1.197905689E-1,-1.269647956E0,-5.493773818E-1
4.305112344E0,1.283426881E-1,-1.272091389E0,-5.432687402E-1
4.307510573E0,1.393382549E-1,-1.264761090E0,-5.408252478E-1
4.309909688E0,1.503338218E-1,-1.246435165E0,-5.408252478E-1
4.312309532E0,1.613293886E-1,-1.219557047E0,-5.432687402E-1
4.314708594E0,1.747684032E-1,-1.179239988E0,-5.481556058E-1
4.317106823E0,1.930943429E-1,-1.126705647E0,-5.505990982E-1
4.319505938E0,2.126420140E-1,-1.065619111E0,-5.505990982E-1
4.321905782E0,2.358548790E-1,-9.898718596E-1,-5.505990982E-1
4.324304844E0,2.590677142E-1,-9.080160260E-1,-5.481556058E-1
4.326703073E0,2.859457433E-1,-8.200514913E-1,-5.432687402E-1
4.329102188E0,3.116020858E-1,-7.247565985E-1,-5.371600389E-1
4.331501979E0,3.421453238E-1,-6.270182133E-1,-5.286079645E-1
4.333901042E0,3.726885319E-1,-5.256146789E-1,-5.176123977E-1
4.336299271E0,4.032317698E-1,-4.266546667E-1,-5.066168308E-1
4.338698386E0,4.325532913E-1,-3.289163113E-1,-5.005081892E-1
4.341098229E0,4.594313502E-1,-2.299562097E-1,-4.931778312E-1
4.343497292E0,4.887528419E-1,-1.346613169E-1,-4.834039807E-1
4.345895521E0,5.180743337E-1,-4.180987179E-2,-4.724084139E-1
4.348294636E0,5.437306762E-1,4.737637937E-2,-4.626345634E-1
4.350694479E0,5.681652427E-1,1.316757053E-1,-4.504172802E-1
4.353093542E0,5.925998688E-1,2.110881209E-1,-4.381999671E-1
4.355491771E0,6.158127189E-1,2.880570590E-1,-4.259826839E-1
4.357890886E0,6.365821362E-1,3.589173555E-1,-4.137654006E-1
4.360290729E0,6.573514938E-1,4.224472940E-1,-4.027698338E-1
4.362689740E0,6.768991947E-1,4.774251282E-1,-3.905525208E-1
4.365088021E0,6.952251196E-1,5.262943506E-1,-3.807787001E-1
4.367487084E0,7.159945369E-1,5.678331852E-1,-3.697831333E-1
4.369886927E0,7.379856706E-1,6.020416021E-1,-3.612310290E-1
4.372285990E0,7.575333118E-1,6.215892434E-1,-3.539006412E-1
4.374684219E0,7.795244455E-1,6.350283027E-1,-3.465702832E-1
4.377083334E0,7.990721464E-1,6.374717355E-1,-3.380181789E-1
4.379483177E0,8.198415041E-1,6.325848103E-1,-3.270226121E-1
4.381882240E0,8.369457126E-1,6.191458106E-1,-3.160270452E-1
4.384280469E0,8.528282046E-1,5.995981097E-1,-3.062531948E-1
4.386679584E0,8.662672639E-1,5.714983344E-1,-2.891489863E-1
4.389079427E0,8.809279799E-1,5.311812758E-1,-2.720447779E-1
4.391478490E0,8.943670392E-1,4.835337996E-1,-2.476101965E-1
4.393876719E0,9.041408300E-1,4.224472940E-1,-2.207321525E-1
4.396275834E0,9.102494717E-1,3.540304601E-1,-1.938541085E-1
4.398675625E0,9.114712477E-1,2.758397758E-1,-1.633108705E-1
4.401074688E0,9.114712477E-1,1.890969872E-1,-1.315459013E-1
4.403472917E0,9.053626060E-1,9.991074353E-2,-9.855920076E-2
4.405872032E0,9.004756808E-1,4.615846556E-3,-6.190732494E-2
4.408271875E0,8.931452632E-1,-8.823558688E-2,-2.525543608E-2
4.410670938E0,8.870366216E-1,-1.823087633E-1,1.261817478E-2
4.413069167E0,8.821496964E-1,-2.666080892E-1,4.927005619E-2
4.415468282E0,8.748193383E-1,-3.496856987E-1,8.714367449E-2
4.417868125E0,8.613803387E-1,-4.229894876E-1,1.225738227E-1
4.420267188E0,8.540499210E-1,-4.828542173E-1,1.567822397E-1
4.422665417E0,8.418326378E-1,-5.329450369E-1,1.897689402E-1
4.425064532E0,8.271719217E-1,-5.757055879E-1,2.215339094E-1
4.427464375E0,8.112894297E-1,-6.148009300E-1,2.508554161E-1
4.429863386E0,7.929635048E-1,-6.477876306E-1,2.789551914E-1
4.432261615E0,7.734158039E-1,-6.734439731E-1,3.046115339E-1
4.434660729E0,7.526463866E-1,-6.954351068E-1,3.266026378E-1
4.437060573E0,7.294335365E-1,-7.125393152E-1,3.437068760E-1
4.439459636E0,7.049989700E-1,-7.272000313E-1,3.583676219E-1
4.441857865E0,6.817861199E-1,-7.479694486E-1,3.693631887E-1
4.444256979E0,6.536863446E-1,-7.748475075E-1,3.754718304E-1
4.446656823E0,6.243647933E-1,-8.041689992E-1,3.791370094E-1
4.449055886E0,5.974867344E-1,-8.188297749E-1,3.791370094E-1
4.451454115E0,5.754956603E-1,-8.273818493E-1,3.779152930E-1
4.453853229E0,5.583914518E-1,-8.237167001E-1,3.766935468E-1
4.456253073E0,5.412871838E-1,-8.163862824E-1,3.693631887E-1
4.458652136E0,5.266264677E-1,-8.005037904E-1,3.644762635E-1
4.461050365E0,5.131874084E-1,-7.797344327E-1,3.559241593E-1
4.463449479E0,5.021918416E-1,-7.516346574E-1,3.461503088E-1
4.465849323E0,4.960832000E-1,-7.149827480E-1,3.314895630E-1
4.468248334E0,4.875311255E-1,-6.648918390E-1,3.156070709E-1
4.470646563E0,4.826442003E-1,-6.074705720E-1,2.985028625E-1
4.473045677E0,4.789790213E-1,-5.366102457E-1,2.777334750E-1
4.475445521E0,4.777572751E-1,-4.547544420E-1,2.569640577E-1
4.477844584E0,4.765355587E-1,-3.582378030E-1,2.349729240E-1
4.480242813E0,4.789790213E-1,-2.495038807E-1,2.129818052E-1
4.482641927E0,4.850876629E-1,-1.248874739E-1,1.897689402E-1
4.485041771E0,4.887528419E-1,7.059305441E-3,1.653343439E-1
4.487440834E0,4.948614836E-1,1.524451077E-1,1.433432251E-1
4.489839063E0,5.009701252E-1,3.051612675E-1,1.237955540E-1
4.492238177E0,5.070787668E-1,4.627643824E-1,1.030261517E-1
4.494638021E0,5.119656920E-1,6.228110194E-1,8.592194319E-2
4.497037032E0,5.131874084E-1,7.816358209E-1,6.637427211E-2
4.499435261E0,5.156309009E-1,9.367954731E-1,4.927005619E-2
4.501834375E0,5.205178261E-1,1.089511633E0,3.094411828E-2
4.504234219E0,5.241829753E-1,1.228788733E0,1.872682199E-2
4.506633282E0,5.254047513E-1,1.353405118E0,6.509527564E-3
4.509031511E0,5.302916169E-1,1.463360786E0,1.622609561E-3
4.511430625E0,5.351785421E-1,1.556212187E0,4.008801188E-4
4.513830469E0,5.400654674E-1,1.629516006E0,5.287798122E-3
4.516229532E0,5.473958850E-1,1.684493780E0,1.139644533E-2
4.518627761E0,5.596131682E-1,1.718702197E0,2.239201032E-2
4.521026875E0,5.706087351E-1,1.735806465E0,4.071795195E-2
4.523426719E0,5.877129436E-1,1.730919480E0,6.515254080E-2
4.525825729E0,6.072605848E-1,1.710150123E0,9.447404742E-2
4.528224011E0,6.292517185E-1,1.673498273E0,1.250172853E-1
4.530623125E0,6.561297774E-1,1.623407364E0,1.592257023E-1
4.533022917E0,6.854512691E-1,1.559877396E0,1.934341341E-1
4.535421979E0,7.196596861E-1,1.493903995E0,2.276425511E-1
4.537820209E0,7.550898790E-1,1.424265504E0,2.606292665E-1
4.540219323E0,7.929635048E-1,1.354626894E0,2.911725044E-1
4.542619167E0,8.283936381E-1,1.287431717E0,3.204939961E-1
4.545018229E0,8.626020551E-1,1.222680092E0,3.473720551E-1
4.547416459E0,8.943670392E-1,1.159150124E0,3.693631887E-1
4.549815573E0,9.249102473E-1,1.096841931E0,3.864673972E-1
4.552215417E0,9.505665898E-1,1.034533739E0,3.986846805E-1
4.554614479E0,9.725577235E-1,9.771125317E-1,4.047933221E-1
4.557012709E0,9.847750068E-1,9.184694886E-1,4.060150683E-1
4.559411823E0,9.933271408E-1,8.622699380E-1,4.035716057E-1
4.561811667E0,9.957705736E-1,8.072921634E-1,3.974629641E-1
4.564210677E0,9.945487976E-1,7.510925531E-1,3.889108598E-1
4.566608907E0,9.884401560E-1,6.985582113E-1,3.766935468E-1
4.569008021E0,9.750011563E-1,6.423586607E-1,3.644762635E-1
4.571407865E0,9.591186643E-1,5.873808265E-1,3.510372341E-1
4.573806927E0,9.346840978E-1,5.336247683E-1,3.351547718E-1
4.576205157E0,9.053626060E-1,4.871989489E-1,3.180505335E-1
4.578604271E0,8.711541891E-1,4.419949651E-1,2.985028625E-1
4.581004115E0,8.345022798E-1,3.943475187E-1,2.765117288E-1
4.583403177E0,7.917417288E-1,3.467000723E-1,2.520771623E-1
4.585801407E0,7.440943122E-1,3.051612675E-1,2.288642824E-1
4.588200521E0,6.952251196E-1,2.648442090E-1,2.068731487E-1
4.590600365E0,6.414690018E-1,2.220836878E-1,1.909906715E-1
4.592999427E0,5.840477347E-1,1.793231517E-1,1.787733734E-1
4.595397657E0,5.266264677E-1,1.267887950E-1,1.751081795E-1
4.597796719E0,4.643182456E-1,6.936750561E-2,1.751081795E-1
4.600196563E0,3.983448744E-1,-1.492800657E-3,1.799951047E-1
4.602595625E0,3.335931897E-1,-7.968348265E-2,1.861037463E-1
4.604993854E0,2.639546394E-1,-1.713131964E-1,1.922124028E-1
4.607392969E0,1.992029995E-1,-2.690515518E-1,1.995427758E-1
4.609792813E0,1.332296133E-1,-3.667899072E-1,2.044296861E-1
4.612191875E0,6.725619733E-2,-4.535326958E-1,2.080948800E-1
4.614590104E0,3.726274706E-3,-5.292798877E-1,2.068731487E-1
4.616989219E0,-5.980365723E-2,-5.915880799E-1,2.007645071E-1
4.619389063E0,-1.172249466E-1,-6.355703473E-1,1.873254776E-1
4.621788125E0,-1.685375720E-1,-6.624484062E-1,1.677778065E-1
4.624186354E0,-2.027459890E-1,-6.697787642E-1,1.396780312E-1
4.626585417E0,-2.210719287E-1,-6.624484062E-1,1.103565246E-1
4.628985261E0,-2.174067497E-1,-6.319051385E-1,7.614810765E-2
4.631384323E0,-1.917504221E-1,-5.818142295E-1,3.705276176E-2
4.633782552E0,-1.404377818E-1,-5.060670376E-1,4.008801188E-4
4.636181667E0,-6.713403761E-2,-4.046635330E-1,-3.625100479E-2
4.638581511E0,2.816086262E-2,-2.800471187E-1,-6.923769414E-2
4.640980573E0,1.442251652E-1,-1.371047646E-1,-9.733748436E-2
4.643378802E0,2.761719227E-1,2.049832791E-2,-1.181068867E-1
4.645777917E0,4.166707993E-1,1.781014353E-1,-1.339893639E-1
4.648177761E0,5.596131682E-1,3.271524012E-1,-1.474283934E-1
4.650576823E0,7.013337612E-1,4.590991735E-1,-1.608674079E-1
4.652975052E0,8.369457126E-1,5.751635432E-1,-1.730847061E-1
4.655374167E0,9.627838731E-1,6.741236448E-1,-1.877454668E-1
4.657773959E0,1.075183153E0,7.535360456E-1,-2.024062127E-1
4.660173021E0,1.175364852E0,8.109573126E-1,-2.146235108E-1
4.662571250E0,1.258442521E0,8.378353715E-1,-2.243973464E-1
4.664970365E0,1.323194146E0,8.341701627E-1,-2.280625254E-1
4.667370209E0,1.373285055E0,8.036269546E-1,-2.256190777E-1
4.669769271E0,1.405050039E0,7.523143291E-1,-2.182886899E-1
4.672167500E0,1.416045666E0,6.765670776E-1,-2.072931379E-1
4.674566615E0,1.412380457E0,5.800504684E-1,-1.950758398E-1
4.676966459E0,1.390389323E0,4.627643824E-1,-1.743064374E-1
4.679365521E0,1.353737354E0,3.295958638E-1,-1.498718411E-1
4.681763750E0,1.299981356E0,1.829883456E-1,-1.181068867E-1
4.684162865E0,1.236451387E0,3.027216531E-2,-8.023326099E-2
4.686562709E0,1.161925912E0,-1.224440187E-1,-3.625100479E-2
4.688961719E0,1.077626586E0,-2.751602232E-1,1.383990422E-2
4.691359948E0,9.835532904E-1,-4.242112041E-1,7.003945112E-2
4.693759063E0,8.894801140E-1,-5.634883046E-1,1.335693896E-1
4.696158907E0,7.892982960E-1,-6.978785396E-1,2.007645071E-1
4.698557969E0,6.866729856E-1,-8.237167001E-1,2.704030871E-1
4.700956198E0,5.877129436E-1,-9.373375177E-1,3.363764882E-1
4.703355313E0,4.899745584E-1,-1.038741112E0,3.962412179E-1
4.705755157E0,4.056752324E-1,-1.119375229E0,4.463321269E-1
4.708154219E0,3.250410855E-1,-1.186570406E0,4.878709316E-1
4.710552448E0,2.554025054E-1,-1.237882972E0,5.184141994E-1
4.712951563E0,1.979812682E-1,-1.268426299E0,5.440704823E-1
4.715351407E0,1.503338218E-1,-1.279421806E0,5.611746907E-1
4.717750469E0,1.161253750E-1,-1.267204523E0,5.733919740E-1
4.720148698E0,9.169079363E-2,-1.239104748E0,5.782788992E-1
4.722547813E0,8.069522679E-2,-1.200009346E0,5.795006752E-1
4.724947604E0,7.947349548E-2,-1.149918437E0,5.770571828E-1
4.727346667E0,8.924733102E-2,-1.091275454E0,5.672833323E-1
4.729744896E0,1.075732708E-1,-1.022858620E0,5.526226163E-1
4.732144011E0,1.356730610E-1,-9.471113682E-1,5.355184078E-1
4.734543854E0,1.674380302E-1,-8.664771914E-1,5.184141994E-1
4.736942917E0,2.077551037E-1,-7.833995819E-1,4.988664687E-1
4.739341146E0,2.554025054E-1,-6.893264055E-1,4.780971110E-1
4.741740261E0,3.054934144E-1,-5.842577219E-1,4.536625147E-1
4.744140104E0,3.641364276E-1,-4.645282626E-1,4.316713810E-1
4.746539167E0,4.325532913E-1,-3.276945651E-1,4.096802473E-1
4.748937396E0,5.046353340E-1,-1.810870320E-1,3.889108598E-1
4.751336459E0,5.962650180E-1,-1.859701239E-2,3.693631887E-1
4.753736302E0,7.049989700E-1,1.548885703E-1,3.473720551E-1
4.756135365E0,8.369457126E-1,3.454783559E-1,3.278243840E-1
4.758533594E0,9.835532904E-1,5.458420515E-1,3.119418919E-1
4.760932709E0,1.141156435E0,7.523143291E-1,2.972811460E-1
4.763332552E0,1.302424788E0,9.514561892E-1,2.838421166E-1
4.765731615E0,1.457584381E0,1.135937333E0,2.740682960E-1
4.768129844E0,1.600526810E0,1.300870776E0,2.667379081E-1
4.770528959E0,1.726364851E0,1.446256518E0,2.594075203E-1
4.772928802E0,1.828990102E0,1.570873022E0,2.508554161E-1
4.775327865E0,1.905959129E0,1.668611288E0,2.423032969E-1
4.777726094E0,1.957271695E0,1.744358540E0,2.349729240E-1
4.780125209E0,1.981706381E0,1.793227792E0,2.264208198E-1
4.782525000E0,1.978041172E0,1.815218806E0,2.166469842E-1
4.784924063E0,1.951163054E0,1.813997149E0,2.080948800E-1
4.787322292E0,1.899850488E0,1.784675598E0,2.007645071E-1
4.789721407E0,1.827768445E0,1.733363032E0,1.934341341E-1
4.792121250E0,1.736138701E0,1.662502646E0,1.848820150E-1
4.794520313E0,1.627404809E0,1.574538112E0,1.751081795E-1
4.796918542E0,1.505231857E0,1.474356294E0,1.677778065E-1
4.799317657E0,1.370841622E0,1.359513760E0,1.628908962E-1
4.801717500E0,1.229120970E0,1.231232166E0,1.616691649E-1
4.804116563E0,1.077626586E0,1.088289857E0,1.653343439E-1
4.806514792E0,9.261319637E-1,9.367954731E-1,1.751081795E-1
4.808913907E0,7.697505951E-1,7.779706120E-1,1.897689402E-1
4.811313698E0,6.194778681E-1,6.215892434E-1,2.068731487E-1
4.813712813E0,4.753138125E-1,4.688730240E-1,2.264208198E-1
4.816110990E0,3.458105028E-1,3.295958638E-1,2.447467595E-1
4.818510104E0,2.285245061E-1,1.988708228E-1,2.655161917E-1
4.820909948E0,1.283426881E-1,8.647172153E-2,2.850638628E-1
4.823309011E0,4.526507482E-2,-1.248836517E-2,3.046115339E-1
4.825707240E0,-2.070831507E-2,-9.556596726E-2,3.192722797E-1
4.828106354E0,-6.835576892E-2,-1.615393609E-1,3.327113092E-1
4.830506198E0,-9.889900684E-2,-2.116302699E-1,3.424851298E-1
4.832905261E0,-1.135597527E-1,-2.482821494E-1,3.522589803E-1
4.835303490E0,-1.135597527E-1,-2.702732980E-1,3.583676219E-1
4.837702604E0,-1.001207232E-1,-2.788254023E-1,3.632545471E-1
4.840102448E0,-7.568614185E-2,-2.751602232E-1,3.669197261E-1
4.842501511E0,-4.147771373E-2,-2.641646266E-1,3.693631887E-1
4.844899740E0,1.282815821E-3,-2.433952242E-1,3.669197261E-1
4.847298854E0,5.259545147E-2,-2.116302699E-1,3.632545471E-1
4.849698646E0,1.075732708E-1,-1.749783754E-1,3.547024131E-1
4.852097709E0,1.649945676E-1,-1.273309290E-1,3.424851298E-1
4.854495938E0,2.260810435E-1,-7.357484102E-2,3.253809214E-1
4.856895052E0,2.871674895E-1,-1.493182406E-2,3.070549667E-1
4.859294896E0,3.458105028E-1,4.981983453E-2,2.862855792E-1
4.861693959E0,4.020100534E-1,1.194584221E-1,2.618509829E-1
4.864092188E0,4.545444250E-1,1.939839125E-1,2.386381179E-1
4.866491302E0,5.009701252E-1,2.733963132E-1,2.190904468E-1
4.868891146E0,5.412871838E-1,3.515869975E-1,2.007645071E-1
4.871290209E0,5.754956603E-1,4.285559356E-1,1.848820150E-1
4.873688438E0,6.048171520E-1,5.055249333E-1,1.726647317E-1
4.876087552E0,6.268082857E-1,5.763852596E-1,1.628908962E-1
4.878487344E0,6.414690018E-1,6.460238695E-1,1.567822397E-1
4.880886407E0,6.536863446E-1,7.107754946E-1,1.531170607E-1
4.883284636E0,6.597949862E-1,7.694185376E-1,1.518953294E-1
4.885683750E0,6.622384191E-1,8.243963718E-1,1.518953294E-1
4.888083594E0,6.573514938E-1,8.720437884E-1,1.543387920E-1
4.890482657E0,6.512428522E-1,9.099174142E-1,1.580039710E-1
4.892880886E0,6.402472854E-1,9.429041147E-1,1.628908962E-1
4.895280000E0,6.268082857E-1,9.673386812E-1,1.689995378E-1
