"Time (s)","Acceleration x (m/s^2)","Acceleration y (m/s^2)","Acceleration z (m/s^2)"
0.000000000E0,-1.321542501E0,6.720234871E0,6.538283348E0
2.332239000E-3,-1.311966181E0,6.713053226E0,6.602924347E0
4.664479000E-3,-1.331118822E0,6.727417469E0,6.643623829E0
6.995885000E-3,-1.357453942E0,6.727417469E0,6.693900108E0
9.327343000E-3,-1.388577223E0,6.710659027E0,6.734600067E0
1.165958300E-2,-1.400547743E0,6.710659027E0,6.753752708E0
1.399182300E-2,-1.383789182E0,6.722629547E0,6.830363274E0
1.632322900E-2,-1.369424462E0,6.746570587E0,6.866274834E0
1.865473900E-2,-1.343089342E0,6.701082706E0,6.875851631E0
2.098697900E-2,-1.326330781E0,6.655594349E0,6.878245354E0
2.331921800E-2,-1.343089342E0,6.677141666E0,6.878245354E0
2.565062500E-2,-1.359848142E0,6.641230106E0,6.851910591E0
2.798208300E-2,-1.328724742E0,6.660382271E0,6.868669510E0
3.031432300E-2,-1.302389741E0,6.725023270E0,6.832757950E0
3.264656200E-2,-1.237748981E0,6.744175911E0,6.839940071E0
3.497802100E-2,-1.216202140E0,6.784875870E0,6.835152149E0
3.730947900E-2,-1.230566740E0,6.748964310E0,6.885427952E0
3.964171800E-2,-1.252113581E0,6.705870628E0,6.918945312E0
4.197395800E-2,-1.276054621E0,6.677141666E0,6.916551590E0
4.430536400E-2,-1.268872380E0,6.667564869E0,6.918945312E0
4.663682300E-2,-1.266478300E0,6.648412228E0,6.897398472E0
4.896906200E-2,-1.259295940E0,6.626865387E0,6.911763191E0
5.130130200E-2,-1.244931340E0,6.614894867E0,6.914156914E0
5.363276000E-2,-1.276054621E0,6.531101704E0,6.897398472E0
5.596421800E-2,-1.309571981E0,6.456884384E0,6.942886353E0
5.829645800E-2,-1.259295940E0,6.454490185E0,6.978797913E0
6.062869800E-2,-1.206625700E0,6.499978065E0,7.007526875E0
6.296010400E-2,-1.079738498E0,6.488007545E0,7.021891594E0
6.529156200E-2,-5.338839889E-1,6.296479702E0,7.050621033E0
6.762380200E-2,-5.410662889E-1,6.327602863E0,7.256513596E0
6.995604100E-2,-3.830558062E-1,6.294085503E0,7.232572556E0
7.228750000E-2,-3.591148257E-1,6.229444981E0,7.062591553E0
7.461895800E-2,-3.591148257E-1,6.241415501E0,6.962038994E0
7.695119800E-2,-2.920800745E-1,6.258173943E0,6.890215874E0
7.928343700E-2,5.506426841E-2,6.262962341E0,7.108078957E0
8.161484300E-2,5.793718696E-1,6.138469219E0,7.570139885E0
8.394635400E-2,2.848977447E-1,6.418578625E0,7.280454636E0
8.627859300E-2,-1.316754371E-1,6.574194908E0,7.373824120E0
8.861083300E-2,-5.721896291E-1,6.617289066E0,7.352277279E0
9.094223900E-2,-1.036644697E0,6.638835907E0,7.364247322E0
9.327369800E-2,-1.493917584E0,6.602924347E0,7.400158882E0
9.560593700E-2,-1.850638390E0,6.590953827E0,7.436070442E0
9.793817700E-2,-2.121171474E0,6.557436466E0,7.424099922E0
1.002696350E-1,-2.300729036E0,6.490401268E0,7.369036198E0
1.026010930E-1,-2.367763758E0,6.387455463E0,7.304395676E0
1.049333330E-1,-2.413251400E0,6.329997063E0,7.167931557E0
1.072655730E-1,-2.434798479E0,6.241415501E0,7.012314796E0
1.095969790E-1,-2.420433760E0,6.191139698E0,6.899792671E0
1.119284370E-1,-2.353399038E0,6.157621861E0,6.811211109E0
1.142606770E-1,-2.293546438E0,6.200716019E0,6.835152149E0
1.165929160E-1,-2.197782755E0,6.229444981E0,6.916551590E0
1.189243750E-1,-2.104412794E0,6.250991821E0,6.964433670E0
1.212558330E-1,-2.030195713E0,6.277327061E0,7.009921074E0
1.235880730E-1,-1.900914431E0,6.284509182E0,7.055408955E0
1.259203120E-1,-1.747692108E0,6.322814941E0,7.091320515E0
1.282517180E-1,-1.592075586E0,6.303661823E0,7.112867355E0
1.305831770E-1,-1.434065104E0,6.301268101E0,7.103291035E0
1.329154160E-1,-1.232960820E0,6.279720783E0,7.105685234E0
1.352476560E-1,-8.331463933E-1,6.143257618E0,7.146385193E0
1.375791140E-1,-3.686912060E-1,5.925394535E0,7.218207359E0
1.399105730E-1,-7.110472918E-1,6.090587139E0,6.983585835E0
1.422428120E-1,-9.121516347E-1,6.224656582E0,6.871063709E0
1.445750520E-1,-1.058191657E0,6.272538662E0,6.804028511E0
1.469064580E-1,-1.153955579E0,6.318026543E0,6.804028511E0
1.492379680E-1,-1.362242103E0,6.356331825E0,6.823181629E0
1.515702080E-1,-1.687839627E0,6.385061264E0,6.792057991E0
1.539023960E-1,-1.886549830E0,6.423367023E0,6.698688507E0
1.562338540E-1,-1.958372712E0,6.389849663E0,6.624471188E0
1.585653120E-1,-1.898520231E0,6.308450222E0,6.590953827E0
1.608975520E-1,-1.865002871E0,6.229444981E0,6.559830666E0
1.632297910E-1,-1.857820630E0,6.152833939E0,6.547860146E0
1.655611980E-1,-1.845850110E0,6.121710300E0,6.468854904E0
1.678927080E-1,-1.848244309E0,6.066646099E0,6.466460705E0
1.702249480E-1,-1.838667870E0,6.085799217E0,6.478431225E0
1.725571870E-1,-1.821909070E0,6.100163460E0,6.468854904E0
1.748885930E-1,-1.797968149E0,6.138469219E0,6.483219624E0
1.772200520E-1,-1.817121029E0,6.148045540E0,6.497583866E0
1.795522910E-1,-1.836273789E0,6.200716019E0,6.550253868E0
1.818845310E-1,-1.879367471E0,6.203110218E0,6.588560104E0
1.842159890E-1,-1.910490751E0,6.227050781E0,6.622076988E0
1.865474480E-1,-1.908096790E0,6.212686062E0,6.693900108E0
1.888796870E-1,-1.860214710E0,6.227050781E0,6.765723228E0
1.912119270E-1,-1.797968149E0,6.243809700E0,6.827969551E0
1.935433330E-1,-1.699810147E0,6.286903381E0,6.921339512E0
1.958747910E-1,-1.616016626E0,6.296479702E0,6.938097954E0
1.982070310E-1,-1.515464544E0,6.325209141E0,6.942886353E0
2.005392710E-1,-1.455611944E0,6.301268101E0,6.918945312E0
2.028707290E-1,-1.345483541E0,6.325209141E0,6.868669510E0
2.052021870E-1,-1.220990419E0,6.344361305E0,6.849516392E0
2.075344270E-1,-1.146773219E0,6.387455463E0,6.832757950E0
2.098666660E-1,-1.015097857E0,6.404213905E0,6.839940071E0
2.121980730E-1,-9.169397950E-1,6.437731266E0,6.863881111E0
2.145295310E-1,-8.786342740E-1,6.444913864E0,6.906974792E0
2.168617710E-1,-8.642696142E-1,6.464066505E0,6.957251072E0
2.191940100E-1,-8.882106543E-1,6.440125465E0,7.029074192E0
2.215254680E-1,-9.217280149E-1,6.435337543E0,7.093714714E0
2.238569270E-1,-9.815804958E-1,6.447308064E0,7.165537357E0
2.261891660E-1,-1.051009417E0,6.392243385E0,7.220602036E0
2.285214060E-1,-1.149167418E0,6.315632343E0,7.294818878E0
2.308528120E-1,-1.254507780E0,6.265356541E0,7.373824120E0
2.331843230E-1,-1.333513021E0,6.222262383E0,7.471982002E0
2.355165620E-1,-1.388577223E0,6.155228138E0,7.555775642E0
2.378487500E-1,-1.489129424E0,6.131287098E0,7.658721924E0
2.401802080E-1,-1.580105066E0,6.064251900E0,7.708998203E0
2.425116660E-1,-1.685445547E0,5.958911896E0,7.718574524E0
2.448439060E-1,-1.783603668E0,5.899059296E0,7.728150845E0
2.471761460E-1,-1.831485510E0,5.817659855E0,7.728150845E0
2.495075520E-1,-1.903308511E0,5.772171974E0,7.653933525E0
2.518390620E-1,-1.922461271E0,5.697955132E0,7.694633484E0
2.541713020E-1,-1.946402192E0,5.642890453E0,7.799973488E0
2.565035410E-1,-1.994284272E0,5.618949890E0,7.847855568E0
2.588349480E-1,-1.977525592E0,5.590220451E0,7.862220287E0
2.611664060E-1,-1.965555072E0,5.575856209E0,7.902919769E0
2.634986460E-1,-1.932037711E0,5.595008850E0,7.946013451E0
2.658308850E-1,-1.869791150E0,5.623737812E0,7.977137089E0
2.681623430E-1,-1.845850110E0,5.642890453E0,8.041777611E0
2.704938020E-1,-1.800362229E0,5.690772533E0,8.101630211E0
2.728260410E-1,-1.771633148E0,5.693167210E0,8.120782852E0
2.751582810E-1,-1.762056589E0,5.736260414E0,8.084871292E0
2.774896870E-1,-1.769238949E0,5.726684093E0,8.015442848E0
2.798211460E-1,-1.862608910E0,5.707531452E0,7.955589771E0
2.821533850E-1,-1.970343232E0,5.712319374E0,7.871796608E0
2.844856250E-1,-2.034983873E0,5.736260414E0,7.850249767E0
2.868170830E-1,-2.080471754E0,5.729078293E0,7.917284489E0
2.891485410E-1,-2.046954393E0,5.721896172E0,7.936437607E0
2.914807810E-1,-2.068501472E0,5.695560932E0,7.902919769E0
2.938130210E-1,-2.054136753E0,5.662043571E0,7.831097126E0
2.961444270E-1,-2.106806993E0,5.621344090E0,7.759274006E0
2.984758850E-1,-2.161871195E0,5.559097290E0,7.680268764E0
3.008081250E-1,-2.231300116E0,5.496850491E0,7.641963005E0
3.031403640E-1,-2.240876436E0,5.484879971E0,7.625204563E0
3.054718230E-1,-2.245664597E0,5.487274647E0,7.694633484E0
3.078032810E-1,-2.200176716E0,5.520791531E0,7.795185566E0
3.101355210E-1,-2.173841715E0,5.551915169E0,7.910102367E0
3.124677600E-1,-2.140324354E0,5.551915169E0,8.017836571E0
3.147991660E-1,-2.133141994E0,5.590220451E0,8.070507050E0
3.171306770E-1,-2.063713074E0,5.609373569E0,8.056142807E0
3.194629160E-1,-2.030195713E0,5.618949890E0,8.010654449E0
3.217951560E-1,-1.960766912E0,5.681196690E0,7.900526047E0
3.241265620E-1,-1.900914431E0,5.721896172E0,7.826309204E0
3.264580210E-1,-1.826697350E0,5.784142494E0,7.701815605E0
3.287902600E-1,-1.730933428E0,5.793718815E0,7.560564041E0
3.311225000E-1,-1.678263307E0,5.776960373E0,7.443253040E0
3.334539060E-1,-1.568134665E0,5.875118732E0,7.304395676E0
3.357854160E-1,-1.489129424E0,5.963699818E0,7.148778915E0
3.381176560E-1,-1.410124183E0,6.033129215E0,7.017103672E0
3.404498960E-1,-1.266478300E0,6.128892899E0,6.871063709E0
3.427813020E-1,-1.216202140E0,6.176774979E0,6.753752708E0
3.451127600E-1,-1.177896619E0,6.188745499E0,6.674747467E0
3.474450000E-1,-1.103679538E0,6.195927620E0,6.602924347E0
3.497772390E-1,-9.863687158E-1,6.234232903E0,6.543072224E0
3.521086980E-1,-8.762401342E-1,6.243809700E0,6.464066505E0
3.544401560E-1,-7.469587922E-1,6.262962341E0,6.397031784E0
3.567723960E-1,-6.224656701E-1,6.289297581E0,6.332390785E0
3.591046350E-1,-5.362781286E-1,6.222262383E0,6.332390785E0
3.614360410E-1,-4.405141473E-1,6.224656582E0,6.361120701E0
3.637675000E-1,-3.136269450E-1,6.222262383E0,6.380272865E0
3.660997390E-1,-1.699810177E-1,6.210291862E0,6.404213905E0
3.684319790E-1,-8.139935881E-2,6.179169178E0,6.454490185E0
3.707634370E-1,-2.394098788E-2,6.164804459E0,6.456884384E0
3.730948960E-1,9.576394223E-3,6.112133980E0,6.411396503E0
3.754271350E-1,-1.436459273E-2,6.021158695E0,6.332390785E0
3.777593750E-1,-3.830557689E-2,5.939758778E0,6.236627102E0
3.800907810E-1,-2.394098788E-2,5.879906654E0,6.119316578E0
3.824222390E-1,-6.224656478E-2,5.764989853E0,5.982852936E0
3.847544790E-1,-7.900525630E-2,5.674014091E0,5.872724056E0
3.870867180E-1,-9.576395154E-2,5.578249931E0,5.748230934E0
3.894181770E-1,-1.292813420E-1,5.496850491E0,5.695560932E0
3.917496350E-1,-1.604046077E-1,5.417845726E0,5.640496731E0
3.940818750E-1,-1.460400373E-1,5.379539967E0,5.621344090E0
3.964141140E-1,-1.149167418E-1,5.348416328E0,5.623737812E0
3.987455210E-1,-9.576394223E-3,5.393904686E0,5.695560932E0
4.010770310E-1,6.464067101E-2,5.398692608E0,5.738654613E0
4.034092710E-1,-5.745837092E-2,5.245470524E0,5.817659855E0
4.057414580E-1,-1.053403467E-1,5.178435326E0,5.887088776E0
4.080729160E-1,-1.220990419E-1,5.099430561E0,5.939758778E0
4.104043750E-1,-1.460400373E-1,4.989302158E0,6.004399300E0
4.127366140E-1,-1.460400373E-1,4.833685398E0,6.047493458E0
4.150688540E-1,-1.077344418E-1,4.773832798E0,6.047493458E0
4.174002600E-1,-1.197049394E-2,4.733132839E0,5.946941376E0
4.197317710E-1,1.220990419E-1,4.730739117E0,5.829630375E0
4.220640100E-1,1.939219981E-1,4.754680157E0,5.879906654E0
4.243962500E-1,1.939219981E-1,4.790591717E0,5.949335575E0
4.267276560E-1,1.675869077E-1,4.840867519E0,6.021158695E0
4.290591140E-1,2.465921789E-1,4.845655918E0,6.052281380E0
4.313913540E-1,4.668492377E-1,4.733132839E0,6.195927620E0
4.337235930E-1,8.977869749E-1,4.543999672E0,6.329997063E0
4.360550520E-1,1.118044138E0,4.476964474E0,6.713053226E0
4.383865100E-1,1.046221137E0,4.510481834E0,6.964433670E0
4.407187500E-1,9.432749152E-1,4.567940712E0,7.254118919E0
4.430509890E-1,9.648218155E-1,4.553575993E0,7.369036198E0
4.453823960E-1,7.924466729E-1,4.627792835E0,7.534228802E0
4.477138540E-1,5.195194483E-1,4.752285957E0,7.723362446E0
4.500460930E-1,3.639029860E-1,4.867203236E0,7.998683929E0
4.523783330E-1,2.657449543E-1,4.960572720E0,8.192605972E0
4.547097910E-1,7.661115378E-2,5.001272678E0,8.393710136E0
4.570412500E-1,-5.745837092E-2,5.010848522E0,8.532567978E0
4.593734890E-1,-1.987102032E-1,4.991695881E0,8.736065865E0
4.617057290E-1,-4.046026766E-1,4.943813801E0,8.822254181E0
4.640371350E-1,-5.650073290E-1,4.840867519E0,8.841406822E0
4.663685930E-1,-7.900525331E-1,4.730739117E0,8.815072060E0
4.687008330E-1,-9.911568761E-1,4.589487553E0,8.800706863E0
4.710330730E-1,-1.249719501E0,4.457811832E0,8.736065865E0
4.733645310E-1,-1.498705864E0,4.302195549E0,8.822254181E0
4.756959890E-1,-1.663898587E0,4.172914028E0,8.913229942E0
4.780282290E-1,-1.769238949E0,4.017297745E0,9.138275146E0
4.803604680E-1,-1.874579430E0,3.844922543E0,9.399231911E0
4.826918750E-1,-1.958372712E0,3.737188339E0,9.526119232E0
4.850233850E-1,-2.224117756E0,3.605512857E0,1.038081169E1
4.873556250E-1,-2.743637323E0,3.471443176E0,1.273421097E1
4.896878120E-1,-3.155422211E0,3.375679255E0,1.422812939E1
4.920192710E-1,-3.334979534E0,3.361314774E0,1.270548153E1
4.943507290E-1,-3.275126934E0,3.311038494E0,9.928327560E0
4.966829680E-1,-3.186545610E0,3.236821413E0,8.827041626E0
4.990152080E-1,-2.983047009E0,3.078810930E0,9.588364601E0
5.013466140E-1,-2.743637323E0,2.973470688E0,1.107988930E1
5.036781250E-1,-2.432404280E0,2.937559366E0,1.220272064E1
5.060103640E-1,-2.090048313E0,2.949529648E0,1.240622044E1
5.083426040E-1,-1.905702591E0,2.944741488E0,1.238706684E1
5.106740100E-1,-1.821909070E0,2.908829927E0,1.250916576E1
5.130054680E-1,-1.766844869E0,2.935164928E0,1.268154144E1
5.153377080E-1,-1.620804906E0,2.971076488E0,1.268393517E1
5.176699480E-1,-1.441247463E0,3.059658289E0,1.261450577E1
5.200013540E-1,-1.209019899E0,3.181757212E0,1.254268265E1
5.223328640E-1,-1.015097857E0,3.265550852E0,1.248522472E1
5.246651040E-1,-8.738460541E-1,3.303856134E0,1.238706684E1
5.269973430E-1,-8.355404139E-1,3.236821413E0,1.223623943E1
5.293287500E-1,-8.906047344E-1,3.174575090E0,1.204471111E1
5.316602080E-1,-1.019886017E0,3.126693010E0,1.178614807E1
5.339924480E-1,-1.230566740E0,3.083599329E0,1.140309238E1
5.363246870E-1,-1.441247463E0,2.997411728E0,1.097454929E1
5.386561460E-1,-1.639957666E0,2.894465446E0,1.056755161E1
5.409876040E-1,-1.857820630E0,2.801095486E0,1.019167805E1
5.433198430E-1,-2.020619392E0,2.738848925E0,9.880446434E0
5.456520830E-1,-2.128353834E0,2.707725763E0,9.631459236E0
5.479834890E-1,-2.214541197E0,2.657449484E0,9.466265678E0
5.503149480E-1,-2.250452757E0,2.609567642E0,9.523724556E0
5.526471870E-1,-2.209753275E0,2.664632082E0,9.679341316E0
5.549794270E-1,-2.137930155E0,2.774760485E0,9.226857185E0
5.573108850E-1,-1.960766912E0,2.906435966E0,9.066452026E0
5.596423430E-1,-1.790785909E0,3.047687769E0,8.903653145E0
5.619745830E-1,-1.651928067E0,3.215274572E0,8.750431061E0
5.643068230E-1,-1.558558226E0,3.354132175E0,8.566084862E0
5.666382290E-1,-1.501099825E0,3.495384216E0,8.369769096E0
5.689697390E-1,-1.443641543E0,3.660577059E0,7.996290207E0
5.713019790E-1,-1.414912343E0,3.811405182E0,7.725756645E0
5.736341660E-1,-1.587287545E0,3.763523340E0,7.598869324E0
5.759656250E-1,-1.776421309E0,3.727611780E0,7.409735680E0
5.782970830E-1,-1.819514990E0,3.883228302E0,7.134414673E0
5.806293230E-1,-1.888943911E0,3.964627504E0,6.914156914E0
5.829615620E-1,-2.001466513E0,4.005327225E0,6.732205391E0
5.852929680E-1,-2.015831232E0,4.055603027E0,6.595742226E0
5.876244790E-1,-2.030195713E0,4.043632984E0,6.538283348E0
5.899567180E-1,-2.018225193E0,4.050815105E0,6.593348026E0
5.922889580E-1,-2.013437033E0,4.053209305E0,6.940492630E0
5.946203640E-1,-1.939219952E0,3.993356705E0,6.669959068E0
5.969518230E-1,-1.829091549E0,3.897592783E0,6.681929588E0
5.992840620E-1,-1.721356988E0,3.835346222E0,6.725023270E0
6.016163020E-1,-1.611228466E0,3.746764421E0,6.729811668E0
6.039477080E-1,-1.520252705E0,3.670153618E0,6.768116951E0
6.062792180E-1,-1.400547743E0,3.581571817E0,6.878245354E0
6.086114580E-1,-1.316754222E0,3.504960537E0,7.007526875E0
6.109436980E-1,-1.127620459E0,3.409196615E0,6.983585835E0
6.132751040E-1,-9.935510159E-1,3.334979534E0,6.964433670E0
6.156065620E-1,-9.193339348E-1,3.210486412E0,7.254118919E0
6.179388020E-1,-9.073634148E-1,3.105145931E0,7.668298721E0
6.202710410E-1,-8.906047344E-1,3.028534889E0,8.027413368E0
6.226025000E-1,-8.834224343E-1,2.954317808E0,8.324281693E0
6.249339580E-1,-9.241221547E-1,2.923194408E0,8.534961700E0
6.272661980E-1,-9.672158957E-1,2.882494926E0,8.654666901E0
6.295984370E-1,-1.072556257E0,2.916012287E0,8.695366859E0
6.319298430E-1,-1.149167418E0,2.932770967E0,8.625938416E0
6.342613020E-1,-1.242537260E0,2.949529648E0,8.544537544E0
6.365935410E-1,-1.319148421E0,2.966288328E0,8.379345894E0
6.389257810E-1,-1.417306542E0,3.014170170E0,8.206970215E0
6.412572390E-1,-1.522646785E0,3.064446449E0,8.104024887E0
6.435886980E-1,-1.644745827E0,3.124298811E0,7.962772369E0
6.459209370E-1,-1.699810147E0,3.224850893E0,7.811944008E0
6.482531770E-1,-1.795573950E0,3.284703493E0,7.579716682E0
6.505845830E-1,-1.905702591E0,3.315826654E0,7.321154118E0
6.529160410E-1,-1.996678352E0,3.390043736E0,7.060196877E0
6.552482810E-1,-2.070895433E0,3.368496895E0,6.890215874E0
6.575805210E-1,-2.106806993E0,3.351738214E0,6.813604832E0
6.599119790E-1,-2.078077793E0,3.311038494E0,6.772905350E0
6.622434370E-1,-2.063713074E0,3.253580332E0,6.806422710E0
6.645756770E-1,-2.037378073E0,3.186545610E0,6.830363274E0
6.669079160E-1,-1.977525592E0,3.088387489E0,6.832757950E0
6.692393230E-1,-1.898520231E0,2.987835169E0,6.885427952E0
6.715707810E-1,-1.862608910E0,2.875312567E0,6.895004272E0
6.739030210E-1,-1.936825871E0,2.700543404E0,6.909368992E0
6.762352600E-1,-2.106806993E0,2.528168201E0,6.851910591E0
6.785667180E-1,-2.288758516E0,2.315093517E0,6.808816910E0
6.808981770E-1,-2.434798479E0,2.154688835E0,6.839940071E0
6.832304160E-1,-2.537744761E0,2.013437033E0,6.911763191E0
6.855626560E-1,-2.609567642E0,1.874579430E0,7.033862114E0
6.878940620E-1,-2.681390524E0,1.759662628E0,7.222996235E0
6.902255730E-1,-2.669420004E0,1.695021868E0,7.419312000E0
6.925578120E-1,-2.623932362E0,1.616016626E0,7.543805122E0
6.948900000E-1,-2.590414762E0,1.508282304E0,7.639568806E0
6.972214580E-1,-2.446768999E0,1.491523504E0,7.615627766E0
6.995529160E-1,-2.195388556E0,1.501099825E0,7.591687202E0
7.018851560E-1,-2.037378073E0,1.541799664E0,7.584505081E0
7.042173960E-1,-1.905702591E0,1.508282304E0,7.596475601E0
7.065488020E-1,-1.702204227E0,1.491523504E0,7.697027683E0
7.088803120E-1,-1.587287545E0,1.479552984E0,7.905313969E0
7.112125520E-1,-1.529829144E0,1.474764824E0,7.744909286E0
7.135447910E-1,-1.481947184E0,1.429276943E0,7.713786125E0
7.158761980E-1,-1.484341264E0,1.426882863E0,7.673086643E0
7.182076560E-1,-1.513070345E0,1.400547743E0,7.589293003E0
7.205398960E-1,-1.560952425E0,1.367030382E0,7.462406158E0
7.228721350E-1,-1.649533987E0,1.379000902E0,7.275666237E0
7.252035930E-1,-1.718962908E0,1.467582464E0,7.105685234E0
7.275350520E-1,-1.867396951E0,1.534617305E0,6.878245354E0
7.298672910E-1,-1.972737432E0,1.592075586E0,6.686717987E0
7.321995310E-1,-2.090048313E0,1.685445547E0,6.411396503E0
7.345309370E-1,-2.200176716E0,1.781209469E0,6.231839180E0
7.368623960E-1,-2.298334837E0,1.790785909E0,6.092981339E0
7.391946350E-1,-2.480286360E0,1.680657387E0,5.937365055E0
7.415268750E-1,-2.678996563E0,1.560952425E0,5.707531452E0
7.438583330E-1,-2.894465446E0,1.369424462E0,5.525579929E0
7.461897910E-1,-3.100358009E0,1.232960820E0,5.319687366E0
7.485220310E-1,-3.258368492E0,1.115650058E0,5.101824284E0
7.508542710E-1,-3.428349495E0,1.010309696E0,4.958178520E0
7.531856770E-1,-3.507354736E0,9.648218155E-1,4.857626438E0
7.555171350E-1,-3.538477898E0,9.145457745E-1,4.855232716E0
7.578493750E-1,-3.516931057E0,8.738460541E-1,4.929449558E0
7.601816140E-1,-3.435531855E0,8.092053533E-1,4.989302158E0
7.625130730E-1,-3.332585573E0,7.469587922E-1,5.046760082E0
7.648445310E-1,-3.229639292E0,6.464067101E-1,5.159283161E0
7.671767710E-1,-3.119510651E0,5.290958285E-1,5.341234684E0
7.695090100E-1,-3.035717249E0,4.572728872E-1,5.271805286E0
7.718404160E-1,-2.894465446E0,3.040505350E-1,5.561491489E0
7.741718750E-1,-2.688572884E0,1.723751128E-1,5.760201454E0
7.765041140E-1,-2.439586401E0,7.421706617E-2,5.973276615E0
7.788363540E-1,-2.236088276E0,-5.745837092E-2,6.174380302E0
7.811678120E-1,-2.037378073E0,-2.130747885E-1,6.406608105E0
7.834992710E-1,-1.855426550E0,-3.686912060E-1,6.588560104E0
7.858315100E-1,-1.666292787E0,-4.572728872E-1,6.710659027E0
7.881637500E-1,-1.501099825E0,-5.123371482E-1,6.765723228E0
7.904951560E-1,-1.410124183E0,-4.979725182E-1,6.746570587E0
7.928266660E-1,-1.436459303E0,-4.979725182E-1,6.564619064E0
7.951589060E-1,-1.505888104E0,-4.620610774E-1,6.255780220E0
7.974910930E-1,-1.654322267E0,-4.333318770E-1,5.863148212E0
7.998225520E-1,-1.817121029E0,-5.051548481E-1,5.669226170E0
8.021540100E-1,-1.972737432E0,-7.014709115E-1,5.690772533E0
8.044862500E-1,-2.336640596E0,-7.780820727E-1,5.482485771E0
8.068184890E-1,-2.645478964E0,-9.504572153E-1,5.365175724E0
8.091498960E-1,-2.935164928E0,-1.120438218E0,5.104218483E0
8.114814060E-1,-3.265550852E0,-1.280842900E0,4.807350636E0
8.138136460E-1,-3.619877338E0,-1.426882863E0,4.536817074E0
8.161458330E-1,-3.923927784E0,-1.551375985E0,4.292619228E0
8.184772910E-1,-4.151367188E0,-1.592075586E0,4.146578789E0
8.208087500E-1,-4.328530312E0,-1.644745827E0,4.069967747E0
8.231409890E-1,-4.378806591E0,-1.671080828E0,4.043632984E0
8.254732290E-1,-4.371624470E0,-1.730933428E0,4.103485107E0
8.278046350E-1,-4.290225029E0,-1.757268548E0,4.098697186E0
8.301361460E-1,-4.163337708E0,-1.824303269E0,4.041238785E0
8.324683850E-1,-4.139396667E0,-1.862608910E0,3.820981503E0
8.348006250E-1,-3.964627504E0,-1.929643631E0,3.861681223E0
8.371320310E-1,-3.797040462E0,-2.003860712E0,3.842528582E0
8.394634890E-1,-3.605512857E0,-2.183418036E0,3.859287262E0
8.417957290E-1,-3.485807657E0,-2.408463240E0,3.878439903E0
8.441279680E-1,-3.313432693E0,-2.693361044E0,3.897592783E0
8.464594270E-1,-3.141057491E0,-2.887283087E0,3.971809864E0
8.487908850E-1,-2.923194408E0,-2.995017529E0,4.151367188E0
8.511231250E-1,-2.712513924E0,-3.090781450E0,4.381200314E0
8.534553640E-1,-2.516197681E0,-3.105145931E0,4.536817074E0
8.557867710E-1,-2.370157719E0,-3.102751970E0,4.694827557E0
8.581182290E-1,-2.264817476E0,-3.176969051E0,4.804955959E0
8.604504680E-1,-2.190600157E0,-3.234427452E0,4.967754841E0
8.627827080E-1,-2.073289394E0,-3.351738214E0,5.120976925E0
8.651141660E-1,-1.917673111E0,-3.459472656E0,5.293352604E0
8.674456250E-1,-1.702204227E0,-3.588753939E0,5.353205204E0
8.697778640E-1,-1.539405465E0,-3.746764421E0,5.302928448E0
8.721101040E-1,-1.462794423E0,-3.919139862E0,5.278987408E0
8.744415100E-1,-1.584893346E0,-4.153761387E0,5.338840008E0
8.767729680E-1,-1.958372712E0,-4.393170834E0,5.456151009E0
8.791052080E-1,-2.444374800E0,-4.649340153E0,5.597403049E0
8.814374480E-1,-3.074022770E0,-4.838473320E0,5.882300377E0
8.837689060E-1,-3.811405182E0,-5.106612682E0,6.167198658E0
8.861003640E-1,-4.302195549E0,-5.168859005E0,6.200716019E0
8.884326040E-1,-4.603851795E0,-5.099430561E0,5.939758778E0
8.907648430E-1,-4.778621197E0,-4.996483803E0,5.702743053E0
8.930962500E-1,-4.879172802E0,-5.022819042E0,5.456151009E0
8.954277080E-1,-5.003666401E0,-5.051548481E0,5.003666401E0
8.977599480E-1,-5.142523766E0,-4.967754841E0,4.436264992E0
9.000921870E-1,-5.269411564E0,-5.015636921E0,4.127426147E0
9.024236460E-1,-5.496850491E0,-5.063519001E0,3.983780146E0
9.047551040E-1,-5.705137730E0,-5.135342121E0,3.876045704E0
9.070873430E-1,-5.975670338E0,-5.290957928E0,3.571995258E0
9.094195830E-1,-6.097769737E0,-5.417845726E0,3.112328291E0
9.117509890E-1,-6.083405018E0,-5.499245167E0,2.616750002E0
9.140825000E-1,-6.061858177E0,-5.592614651E0,2.104412794E0
9.164147390E-1,-5.987640858E0,-5.678802013E0,1.764450788E0
9.187469270E-1,-5.963699818E0,-5.793718815E0,1.417306542E0
9.210783850E-1,-5.894270897E0,-5.832024574E0,1.259295940E0
9.234098430E-1,-5.872724056E0,-6.049887657E0,9.504572153E-1
9.257420830E-1,-5.748230934E0,-6.179169178E0,9.480631351E-1
9.280743230E-1,-5.331657887E0,-6.435337543E0,1.007915616E0
9.304057290E-1,-4.479359150E0,-7.017103672E0,1.299995661E0
9.327372390E-1,-4.476964474E0,-7.124837875E0,1.630381227E0
9.350694790E-1,-4.306983471E0,-7.069773674E0,1.865002871E0
9.374017180E-1,-4.639763355E0,-7.055408955E0,2.212147236E0
9.397331250E-1,-5.202376366E0,-6.851910591E0,2.722090244E0
9.420645830E-1,-5.508821011E0,-6.839940071E0,2.913618326E0
9.443968230E-1,-5.516003609E0,-7.091320515E0,2.671814203E0
9.467290620E-1,-5.369963646E0,-7.541410923E0,2.367763758E0
9.490604680E-1,-5.398692608E0,-8.048959732E0,2.231300116E0
9.513919790E-1,-5.939758778E0,-8.597208977E0,2.441980839E0
9.537242180E-1,-6.815999031E0,-9.087999344E0,2.920800447E0
9.560564580E-1,-7.919678688E0,-9.449507713E0,3.373285294E0
9.583878640E-1,-8.989841461E0,-9.751164436E0,3.806617022E0
9.607193230E-1,-1.004324436E1,-1.004084969E1,4.199248791E0
9.630515620E-1,-1.093384933E1,-1.026828957E1,4.601458073E0
9.653838020E-1,-1.159222603E1,-1.046700001E1,5.087460041E0
9.677152600E-1,-1.213568687E1,-1.065613365E1,5.477697849E0
9.700467180E-1,-1.253071308E1,-1.078062725E1,5.800901413E0
9.723789580E-1,-1.282039928E1,-1.084766102E1,6.071434498E0
9.747111980E-1,-1.299756241E1,-1.092187786E1,6.131287098E0
9.770426040E-1,-1.312444878E1,-1.094103146E1,6.167198658E0
9.793740620E-1,-1.325851917E1,-1.096257782E1,6.040310860E0
9.817063020E-1,-1.337582970E1,-1.097215462E1,5.767384052E0
9.840385410E-1,-1.348356438E1,-1.095539570E1,5.362781048E0
9.863700000E-1,-1.356256866E1,-1.088596725E1,4.905508518E0
9.887014580E-1,-1.351468658E1,-1.070162106E1,4.852838039E0
9.910336980E-1,-1.350750542E1,-1.050769901E1,4.927054882E0
9.933659370E-1,-1.354102325E1,-1.035926533E1,4.922266960E0
9.956973430E-1,-1.355778122E1,-1.021322536E1,4.845655918E0
9.980288020E-1,-1.361524010E1,-1.011506653E1,4.615822315E0
1.000361041E0,-1.369903278E1,-1.005042744E1,4.239949226E0
1.002693281E0,-1.380676746E1,-9.985786438E0,3.835346222E0
1.005024739E0,-1.385943794E1,-9.937904358E0,3.445107937E0
1.007356198E0,-1.390732002E1,-9.933115959E0,3.083599329E0
1.009688437E0,-1.396956635E1,-9.971421242E0,2.772366285E0
1.012020677E0,-1.397674847E1,-1.003606224E1,2.611961842E0
1.014352083E0,-1.397196007E1,-1.009830856E1,2.530562401E0
1.016683541E0,-1.387380219E1,-1.014140224E1,2.516197681E0
1.019015781E0,-1.373254967E1,-1.011506653E1,2.635902643E0
1.021348021E0,-1.358650970E1,-1.006239700E1,2.705331564E0
1.023679479E0,-1.347159386E1,-1.003127384E1,2.712513924E0
1.026010937E0,-1.338780022E1,-9.959450722E0,2.635902643E0
1.028343177E0,-1.335188866E1,-9.909174919E0,2.631114483E0
1.030675416E0,-1.326809502E1,-9.894809723E0,2.669420004E0
1.033006823E0,-1.327288342E1,-9.899598122E0,2.755607843E0
1.035338281E0,-1.333752441E1,-9.949873924E0,2.918406248E0
1.037670521E0,-1.338061810E1,-1.002409077E1,3.191333771E0
1.040002760E0,-1.350032330E1,-1.008873177E1,3.334979534E0
1.042334218E0,-1.362002754E1,-1.016773701E1,3.524113178E0
1.044665677E0,-1.364636326E1,-1.025871277E1,3.612694979E0
1.046997916E0,-1.370142746E1,-1.033292961E1,3.629453659E0
1.049330156E0,-1.372536755E1,-1.036644840E1,3.737188339E0
1.051661562E0,-1.367030430E1,-1.036884212E1,3.923927784E0
1.053993073E0,-1.367509174E1,-1.033532429E1,4.134608269E0
1.056325312E0,-1.364636326E1,-1.029701900E1,4.340500832E0
1.058657500E0,-1.364636326E1,-1.026589489E1,4.567940712E0
1.060988958E0,-1.369185066E1,-1.029701900E1,4.893537998E0
1.063320416E0,-1.365593910E1,-1.036884212E1,5.085065365E0
1.065652656E0,-1.344286442E1,-1.039996529E1,5.130553722E0
1.067984896E0,-1.312684345E1,-1.047418213E1,5.082671642E0
1.070316302E0,-1.284194565E1,-1.053882313E1,5.001272678E0
1.072647812E0,-1.252113628E1,-1.063698101E1,4.962966442E0
1.074980052E0,-1.220511532E1,-1.076386833E1,4.912690639E0
1.077312291E0,-1.198007011E1,-1.087160206E1,4.881567478E0
1.079643698E0,-1.175023746E1,-1.097215462E1,4.876779079E0
1.081975156E0,-1.155392075E1,-1.108707142E1,4.840867519E0
1.084307396E0,-1.133845234E1,-1.117565346E1,4.891143322E0
1.086639635E0,-1.116847134E1,-1.124747562E1,5.075489521E0
1.088971041E0,-1.094821358E1,-1.136957455E1,5.348416328E0
1.091302552E0,-1.074471474E1,-1.148688602E1,5.618949890E0
1.093634791E0,-1.057473373E1,-1.156589127E1,5.683590412E0
1.095967031E0,-1.036165905E1,-1.164250183E1,5.803295612E0
1.098298437E0,-1.017013073E1,-1.170235538E1,5.963699818E0
1.100629896E0,-1.004803181E1,-1.170953655E1,6.124104500E0
1.102962135E0,-1.006000328E1,-1.176220703E1,6.294085503E0
1.105294375E0,-1.013661385E1,-1.181966591E1,6.420972824E0
1.107625833E0,-1.027547169E1,-1.190345860E1,6.504766464E0
1.109957291E0,-1.030659485E1,-1.209738064E1,6.550253868E0
1.112289531E0,-1.040475273E1,-1.223623943E1,6.562224388E0
1.114621771E0,-1.060106945E1,-1.226975632E1,6.456884384E0
1.116953177E0,-1.059628105E1,-1.226257420E1,6.356331825E0
1.119284635E0,-1.063458729E1,-1.220990372E1,6.655594349E0
1.121616875E0,-1.087160206E1,-1.209019947E1,7.026679993E0
1.123949114E0,-1.094103146E1,-1.206386375E1,6.459278584E0
1.126280573E0,-1.083090305E1,-1.205189323E1,5.920606136E0
1.128612031E0,-1.096257782E1,-1.203273964E1,5.341234684E0
1.130944271E0,-1.114931774E1,-1.197528172E1,4.826502800E0
1.133276510E0,-1.130972195E1,-1.193937016E1,4.311771870E0
1.135607916E0,-1.134563446E1,-1.182684803E1,3.854499102E0
1.137939375E0,-1.139112186E1,-1.172390175E1,3.485807657E0
1.140271614E0,-1.144379234E1,-1.160659122E1,3.078810930E0
1.142603854E0,-1.157307339E1,-1.146533871E1,2.702937603E0
1.144935312E0,-1.162813759E1,-1.135999870E1,2.391704798E0
1.147266771E0,-1.163531971E1,-1.130732822E1,2.173841715E0
1.149599010E0,-1.162095547E1,-1.131929874E1,2.032589912E0
1.151931250E0,-1.163292599E1,-1.130732822E1,1.948796391E0
1.154262656E0,-1.166644287E1,-1.123789978E1,1.872185230E0
1.156594114E0,-1.118044090E1,-1.152519131E1,2.303122997E0
1.158926354E0,-1.146294498E1,-1.149885559E1,2.552109241E0
1.161258593E0,-1.163771439E1,-1.152519131E1,2.588020802E0
1.163590052E0,-1.182924175E1,-1.146773338E1,2.207359076E0
1.165921510E0,-1.195852280E1,-1.136239338E1,2.015831232E0
1.168253750E0,-1.191064072E1,-1.126184082E1,1.934431791E0
1.170585989E0,-1.186754704E1,-1.112058926E1,1.972737432E0
1.172917396E0,-1.179333019E1,-1.097454929E1,2.044560432E0
1.175248854E0,-1.166165543E1,-1.091230202E1,2.106806993E0
1.177581093E0,-1.155631542E1,-1.079259682E1,2.181024075E0
1.179913333E0,-1.147012711E1,-1.075907993E1,2.197782755E0
1.182244791E0,-1.134084606E1,-1.068007469E1,2.145112514E0
1.184576250E0,-1.123550510E1,-1.063937473E1,2.066107273E0
1.186908489E0,-1.120438194E1,-1.062500954E1,1.910490751E0
1.189240729E0,-1.107031345E1,-1.058431053E1,1.728539228E0
1.191572135E0,-1.080935574E1,-1.055558109E1,1.508282304E0
1.193903593E0,-1.061303997E1,-1.051966953E1,1.297601461E0
1.196235833E0,-1.037602425E1,-1.051009369E1,9.935510159E-1
1.198568073E0,-1.024434853E1,-1.051009369E1,7.206237316E-1
1.200899531E0,-1.012943172E1,-1.049333477E1,5.482486486E-1
1.203230989E0,-9.928327560E0,-1.046221161E1,3.806616962E-1
1.205563229E0,-9.837351799E0,-1.036405277E1,3.471443057E-1
1.207895468E0,-9.875657082E0,-1.027068424E1,3.399620354E-1
1.210226875E0,-9.930722237E0,-1.018928432E1,2.633508742E-1
1.212558385E0,-9.779892921E0,-1.009112644E1,1.987102032E-1
1.214890625E0,-9.672159195E0,-9.971421242E0,1.292813420E-1
1.217222864E0,-9.767923355E0,-9.873263359E0,2.154688910E-2
1.219554271E0,-9.715252876E0,-9.760741234E0,-1.029462516E-1
1.221885729E0,-9.612305641E0,-9.722434998E0,-2.441980839E-1
1.224217968E0,-9.518937111E0,-9.686524391E0,-3.591148257E-1
1.226550208E0,-9.511754036E0,-9.667370796E0,-3.854499161E-1
1.228881614E0,-9.533301353E0,-9.662583351E0,-2.968682647E-1
1.231213073E0,-9.590760231E0,-9.672159195E0,-2.154688835E-1
1.233545312E0,-9.653005600E0,-9.672159195E0,-1.460400373E-1
1.235877552E0,-9.770317078E0,-9.684128761E0,-7.900525630E-2
1.238209010E0,-9.882840157E0,-9.724828720E0,-5.985246971E-2
1.240540468E0,-1.006957912E1,-9.755951881E0,-2.370157838E-1
1.242872708E0,-1.012703800E1,-9.741587639E0,-4.429082870E-1
1.245204948E0,-1.006957912E1,-9.681735039E0,-1.005521536E0
1.247536354E0,-9.985786438E0,-9.506965637E0,-1.759662628E0
1.249867864E0,-9.696100235E0,-9.308256149E0,-2.274393797E0
1.252200104E0,-9.315438271E0,-9.126303673E0,-2.520986080E0
1.254532291E0,-9.080817223E0,-8.994628906E0,-2.513803720E0
1.256863750E0,-8.906046867E0,-8.862954140E0,-2.540138721E0
1.259195208E0,-8.824647903E0,-8.755219460E0,-2.578444242E0
1.261527448E0,-8.898864746E0,-8.590025902E0,-2.892071247E0
1.263859687E0,-8.975476265E0,-8.527779579E0,-2.968682528E0
1.266191093E0,-8.743248940E0,-8.558902740E0,-2.856159687E0
1.268522604E0,-8.357798576E0,-8.695366859E0,-2.573656321E0
1.270854843E0,-7.864614487E0,-8.750431061E0,-2.075683594E0
1.273187083E0,-7.531834602E0,-8.874923706E0,-1.570528746E0
1.275518489E0,-7.266089439E0,-9.061663628E0,-9.887627959E-1
1.277849948E0,-6.775299549E0,-9.143062592E0,-3.758735061E-1
1.280182187E0,-6.423367023E0,-9.279526711E0,2.561685741E-1
1.282514427E0,-6.210291862E0,-9.466265678E0,9.336984754E-1
1.284845833E0,-5.769777775E0,-9.468661308E0,1.630381227E0
1.287177343E0,-5.506426811E0,-9.590760231E0,2.166659355E0
1.289509583E0,-5.226317406E0,-9.777499199E0,2.628720522E0
1.291841823E0,-4.776226997E0,-9.839746475E0,3.131481171E0
1.294173229E0,-4.553575993E0,-1.004084969E1,3.794646502E0
1.296504687E0,-4.096302986E0,-9.983391762E0,4.127426147E0
1.298836927E0,-3.646212578E0,-9.698493958E0,3.895198822E0
1.301169166E0,-3.519325256E0,-9.353743553E0,3.308644533E0
1.303500625E0,-3.514537096E0,-9.351349831E0,3.045293570E0
1.305832083E0,-3.634242058E0,-9.334590912E0,2.942347288E0
1.308164323E0,-3.852104902E0,-8.803100586E0,2.202570677E0
1.310496562E0,-4.309377670E0,-8.621150017E0,1.199443460E0
1.312827968E0,-4.393170834E0,-8.970687866E0,1.481947184E0
1.315159427E0,-4.869596958E0,-9.466265678E0,2.477892160E0
1.317491666E0,-6.612500668E0,-9.957056999E0,3.983780146E0
1.319823906E0,-8.048959732E0,-1.033532429E1,5.520791531E0
1.322155312E0,-7.313971519E0,-1.013661385E1,6.818393230E0
1.324486823E0,-6.289297581E0,-1.009830856E1,8.398497581E0
1.326819062E0,-5.264623165E0,-1.005282116E1,9.957056999E0
1.329151302E0,-4.599063396E0,-9.904387474E0,1.037123585E1
1.331482708E0,-4.541605473E0,-9.844533920E0,9.698493958E0
1.333814166E0,-4.639763355E0,-9.523724556E0,8.307522774E0
1.336146406E0,-4.747498035E0,-9.253191948E0,7.397765160E0
1.338478646E0,-5.228711605E0,-8.934777260E0,6.808816910E0
1.340810104E0,-4.998878002E0,-8.434410095E0,6.205503941E0
1.343141562E0,-4.666098595E0,-7.926860809E0,5.798507214E0
1.345473802E0,-4.350077629E0,-7.507893562E0,5.343628407E0
1.347806041E0,-3.437925816E0,-7.184690475E0,4.941420078E0
1.350137448E0,-2.968682528E0,-6.930915833E0,4.390777111E0
1.352468906E0,-1.991890073E0,-6.183957100E0,4.479359150E0
1.354801146E0,-1.192261100E0,-5.590220451E0,3.777887821E0
1.357133385E0,-1.630381227E0,-5.061124802E0,2.499439001E0
1.359464843E0,-1.402941823E0,-4.960572720E0,1.012703776E0
1.361796302E0,-1.659110427E0,-5.305323124E0,2.082865983E-1
1.364128541E0,-2.169053555E0,-5.446574688E0,-3.926321864E-1
1.366460781E0,-2.219329596E0,-5.417845726E0,-8.522991538E-1
1.368792187E0,-2.315093517E0,-5.307716846E0,-8.044171929E-1
1.371123646E0,-2.195388556E0,-4.924661160E0,-8.618755341E-1
1.373455885E0,-2.051742554E0,-4.584699154E0,-1.118044138E0
1.375788125E0,-2.058924913E0,-4.352471352E0,-1.204231620E0
1.378119583E0,-2.379734278E0,-4.139396667E0,-8.379345536E-1
1.380451041E0,-2.827430487E0,-4.084332466E0,-3.351738155E-1
1.382783281E0,-3.806617022E0,-4.081938267E0,1.747692078E-1
1.385115521E0,-4.350077629E0,-3.914351463E0,5.578250289E-1
1.387446927E0,-4.457811832E0,-3.765917301E0,1.209019899E0
1.389778385E0,-4.089120865E0,-3.504960537E0,1.656716347E0
1.392110625E0,-3.275126934E0,-3.236821413E0,2.200176716E0
1.394442864E0,-2.580838442E0,-3.143451691E0,2.547321081E0
1.396774323E0,-1.838667870E0,-3.088387489E0,2.509015560E0
1.399105781E0,-1.474764824E0,-3.188939571E0,2.489862680E0
1.401438021E0,-1.043827057E0,-3.124298811E0,2.295940638E0
1.403770260E0,-4.524846673E-1,-2.722090244E0,2.427616358E0
1.406101666E0,-5.578250289E-1,-2.588020802E0,2.741242886E0
1.408433125E0,-3.136269450E-1,-2.674208164E0,2.470710039E0
1.410765364E0,8.618755639E-2,-2.700543404E0,2.453951359E0
1.413097604E0,5.650073290E-1,-2.724484205E0,2.525774240E0
1.415429062E0,8.355404139E-1,-2.791519165E0,2.353399038E0
1.417760521E0,9.073634148E-1,-2.920800447E0,2.173841715E0
1.420092760E0,1.280842900E0,-2.944741488E0,1.872185230E0
1.422425000E0,1.556164145E0,-2.961500168E0,2.063713074E0
1.424756406E0,1.570528746E0,-3.045293570E0,2.046954393E0
1.427087864E0,1.553770185E0,-3.088387489E0,2.147506475E0
1.429420104E0,1.414912343E0,-3.164998531E0,2.288758516E0
1.431752343E0,1.058191657E0,-3.251185894E0,2.509015560E0
1.434083802E0,5.554309487E-1,-3.507354736E0,2.817854166E0
1.436415260E0,-2.394098788E-2,-3.969415665E0,2.997411728E0
1.438747500E0,-5.434604287E-1,-4.426688671E0,3.078810930E0
1.441079739E0,-1.041432977E0,-4.891143322E0,3.016564608E0
1.443411146E0,-1.474764824E0,-5.286170006E0,2.925588846E0
1.445742604E0,-1.769238949E0,-5.527974129E0,2.848977566E0
1.448074843E0,-2.051742554E0,-5.779354572E0,2.796307325E0
1.450407083E0,-2.255240917E0,-5.879906654E0,2.848977566E0
1.452738541E0,-2.451556921E0,-5.951729298E0,2.868130207E0
1.455070000E0,-2.592808962E0,-5.987640858E0,2.892071247E0
1.457402239E0,-2.655055523E0,-6.052281380E0,2.959105968E0
1.459734479E0,-2.803489685E0,-6.138469219E0,2.999805689E0
1.462065885E0,-2.657449484E0,-6.409002304E0,3.835346222E0
1.464397343E0,-3.272732973E0,-6.397031784E0,3.327797174E0
1.466729583E0,-3.315826654E0,-6.516736984E0,2.992623568E0
1.469061823E0,-3.440320015E0,-6.595742226E0,2.386916399E0
1.471393281E0,-3.624665499E0,-6.679535389E0,2.293546438E0
1.473724739E0,-3.634242058E0,-6.768116951E0,2.238482237E0
1.476056979E0,-3.629453659E0,-6.847122669E0,2.248058796E0
1.478389218E0,-3.483413696E0,-6.866274834E0,2.204965115E0
1.480720625E0,-3.540872097E0,-6.950068474E0,2.264817476E0
1.483052083E0,-3.662971020E0,-6.990768433E0,2.525774240E0
1.485384323E0,-3.732399940E0,-6.820787430E0,2.863342047E0
1.487716562E0,-3.809010983E0,-6.617289066E0,2.939953327E0
1.490048021E0,-3.732399940E0,-6.420972824E0,2.626326323E0
1.492379479E0,-3.782675982E0,-6.363514423E0,2.817854166E0
1.494711718E0,-3.947868824E0,-6.246203423E0,2.695755243E0
1.497043958E0,-4.146578789E0,-6.423367023E0,3.150634050E0
1.499375364E0,-4.158549309E0,-6.227050781E0,3.028534889E0
1.501706823E0,-4.120244026E0,-6.188745499E0,2.777154446E0
1.504039062E0,-3.864075422E0,-6.440125465E0,2.975864649E0
1.506371302E0,-3.639029980E0,-6.646018028E0,3.442713976E0
1.508702760E0,-3.296674013E0,-6.950068474E0,4.072361946E0
1.511034218E0,-3.143451691E0,-6.863881111E0,3.830558062E0
1.513366458E0,-3.064446449E0,-7.029074192E0,4.132214546E0
1.515698698E0,-3.313432693E0,-7.251725197E0,4.493723392E0
1.518030104E0,-2.927982807E0,-7.823914528E0,5.551915169E0
1.520361562E0,-2.834613085E0,-7.938831329E0,5.257441044E0
1.522693802E0,-2.762789965E0,-8.125571251E0,5.204770565E0
1.525026041E0,-2.882494926E0,-8.173453331E0,4.804955959E0
1.527357500E0,-3.062052250E0,-8.424833298E0,4.728344917E0
1.529688958E0,-2.901647806E0,-8.463138580E0,4.797773838E0
1.532021198E0,-3.028534889E0,-8.192605972E0,4.000538826E0
1.534353437E0,-3.153028011E0,-8.051354408E0,3.976598024E0
1.536684843E0,-3.018958569E0,-8.056142807E0,4.541605473E0
1.539016354E0,-2.767578363E0,-7.998683929E0,4.649340153E0
1.541348593E0,-2.913618326E0,-7.917284489E0,4.127426147E0
1.543680781E0,-2.920800447E0,-8.063324928E0,4.385989189E0
1.546012239E0,-2.817854166E0,-8.137541771E0,4.599063396E0
1.548343698E0,-2.810672045E0,-8.178241730E0,4.515270233E0
1.550675937E0,-2.525774240E0,-8.202182770E0,4.642157555E0
1.553008177E0,-2.401281118E0,-8.281187057E0,4.555970192E0
1.555339583E0,-2.324670076E0,-8.360193253E0,4.374018669E0
1.557671041E0,-2.370157719E0,-8.518202782E0,4.330924511E0
1.560003281E0,-2.427616358E0,-8.635514259E0,4.249525547E0
1.562335521E0,-2.667026043E0,-8.786341667E0,3.813799143E0
1.564666979E0,-2.485074520E0,-8.862954140E0,3.976598024E0
1.566998437E0,-2.470710039E0,-8.779159546E0,3.720429420E0
1.569330677E0,-2.398886919E0,-8.676214218E0,3.296674013E0
1.571662916E0,-2.264817476E0,-8.604391098E0,3.514537096E0
1.573994323E0,-2.102018833E0,-8.628332138E0,3.744370461E0
1.576325781E0,-2.068501472E0,-8.609178543E0,3.569601297E0
1.578658021E0,-2.032589912E0,-8.441592216E0,3.610301018E0
1.580990260E0,-1.972737432E0,-8.235699654E0,3.868863583E0
1.583321718E0,-1.932037711E0,-8.010654449E0,3.844922543E0
1.585653177E0,-1.946402192E0,-7.910102367E0,3.993356705E0
1.587985416E0,-1.829091549E0,-7.809549809E0,4.383594990E0
1.590317656E0,-1.771633148E0,-7.713786125E0,4.797773838E0
1.592649062E0,-1.745298028E0,-7.522258282E0,4.855232716E0
1.594980521E0,-1.668686867E0,-7.282848358E0,5.027607441E0
1.597312760E0,-1.620804906E0,-7.213419437E0,4.943813801E0
1.599645000E0,-1.807544470E0,-7.462406158E0,4.541605473E0
1.601976458E0,-1.989495993E0,-7.752091408E0,3.883228302E0
1.604307916E0,-1.900914431E0,-7.843067646E0,4.189672947E0
1.606640156E0,-1.771633148E0,-7.694633484E0,4.680462837E0
1.608972396E0,-1.812332749E0,-7.598869324E0,4.974936962E0
1.611303802E0,-1.920067191E0,-7.548593521E0,5.075489521E0
1.613635260E0,-2.171447515E0,-7.706604004E0,5.025213718E0
1.615967500E0,-2.446768999E0,-7.816732407E0,4.675674915E0
1.618299739E0,-2.712513924E0,-7.910102367E0,4.333318710E0
1.620631198E0,-3.083599329E0,-7.991501331E0,4.060391426E0
1.622962656E0,-3.607906818E0,-8.271611214E0,3.935898304E0
1.625294896E0,-3.797040462E0,-8.391316414E0,3.720429420E0
1.627627135E0,-3.856893063E0,-8.405680656E0,3.569601297E0
1.629958541E0,-3.957445145E0,-8.388921738E0,3.358920574E0
1.632290000E0,-4.012509346E0,-8.281187057E0,3.016564608E0
1.634622239E0,-4.067573547E0,-8.221335411E0,2.667026043E0
1.636954479E0,-4.299801350E0,-8.460744858E0,2.530562401E0
1.639285937E0,-4.412323952E0,-8.491868019E0,2.267211437E0
1.641617396E0,-4.512876034E0,-8.508626938E0,2.102018833E0
1.643949635E0,-4.606245995E0,-8.537356377E0,1.774027109E0
1.646281875E0,-4.613428593E0,-8.709731102E0,1.414912343E0
1.648613281E0,-4.548787594E0,-9.047299385E0,1.077344418E0
1.650944791E0,-4.450629711E0,-9.018569946E0,7.828702927E-1
1.653277031E0,-4.534422874E0,-8.944353104E0,9.767923355E-1
1.655609218E0,-4.596669674E0,-9.157427788E0,1.074950337E0
1.657940677E0,-4.589487553E0,-9.257980347E0,8.858165741E-1
1.660272135E0,-4.551181316E0,-9.408807755E0,6.631653905E-1
1.662604375E0,-4.397959709E0,-9.485419273E0,5.769777894E-1
1.664936614E0,-4.259101391E0,-9.729617119E0,3.543266356E-1
1.667268021E0,-4.125032425E0,-1.001212120E1,2.106806934E-1
1.669599479E0,-3.897592783E0,-1.025871277E1,4.524846673E-1
1.671931718E0,-3.734793901E0,-1.036884212E1,6.703476310E-1
1.674263958E0,-3.811405182E0,-1.057712841E1,7.876585126E-1
1.676595416E0,-3.811405182E0,-1.073753262E1,1.103679538E0
1.678926875E0,-3.849710703E0,-1.077823257E1,1.489129424E0
1.681259114E0,-4.029268265E0,-1.086920834E1,2.080471754E0
1.683591354E0,-4.170519829E0,-1.088596725E1,2.585626841E0
1.685922760E0,-4.156155586E0,-1.076147366E1,1.558558226E0
1.688254218E0,-3.828164101E0,-1.095779037E1,6.775299311E-1
1.690586458E0,-3.777887821E0,-1.135281563E1,1.108467698E0
1.692918698E0,-4.026874065E0,-1.171671867E1,2.523380041E0
1.695250156E0,-4.235160351E0,-1.180769539E1,4.019691944E0
1.697581614E0,-4.086726665E0,-1.166165543E1,4.352471352E0
1.699913854E0,-3.631847858E0,-1.159940815E1,3.832952023E0
1.702246093E0,-3.181757212E0,-1.171432495E1,3.481019497E0
1.704577500E0,-3.016564608E0,-1.178135967E1,3.011776209E0
1.706908958E0,-3.198515892E0,-1.185557747E1,3.081204891E0
1.709241198E0,-3.270339012E0,-1.183403015E1,3.315826654E0
1.711573437E0,-3.617483139E0,-1.181727123E1,3.119510651E0
1.713904896E0,-3.813799143E0,-1.199922276E1,2.999805689E0
1.716236354E0,-4.096302986E0,-1.218356895E1,2.942347288E0
1.718568593E0,-4.235160351E0,-1.232721424E1,2.772366285E0
1.720900833E0,-4.453023434E0,-1.252592468E1,2.803489685E0
1.723232239E0,-4.567940712E0,-1.249240685E1,3.105145931E0
1.725563698E0,-4.752285957E0,-1.237749100E1,3.232033253E0
1.727895937E0,-4.828896999E0,-1.220272064E1,3.179363251E0
1.730228177E0,-4.737921715E0,-1.226496792E1,2.815460205E0
1.732559635E0,-4.651733875E0,-1.201598167E1,2.094836473E0
1.734891093E0,-4.383594990E0,-1.181966591E1,1.656716347E0
1.737223333E0,-3.512142658E0,-1.145097446E1,1.496311784E0
1.739555573E0,-2.647873163E0,-1.109664822E1,1.644745827E0
1.741886979E0,-2.746031284E0,-1.113734722E1,1.302389741E0
1.744218437E0,-2.966288328E0,-1.106791878E1,7.756879926E-1
1.746550677E0,-3.100358009E0,-1.096497154E1,4.764256477E-1
1.748882916E0,-3.296674013E0,-1.099609566E1,3.447502255E-1
1.751214375E0,-3.277521133E0,-1.086681366E1,3.878439963E-1
1.753545833E0,-3.289491653E0,-1.074471474E1,5.674013495E-1
1.755878073E0,-3.232033253E0,-1.067289162E1,7.302001119E-1
1.758210312E0,-3.062052250E0,-1.062740421E1,7.038650513E-1
1.760541718E0,-2.983047009E0,-1.064176941E1,6.918945909E-1
1.762873177E0,-3.066840410E0,-1.067528629E1,7.804762125E-1
1.765205416E0,-3.074022770E0,-1.061543369E1,9.073634148E-1
1.767537656E0,-3.035717249E0,-1.057712841E1,1.173108339E0
1.769869114E0,-2.813066006E0,-1.038320637E1,1.441247463E0
1.772200573E0,-2.846583605E0,-1.023477173E1,1.766844869E0
1.774532812E0,-2.894465446E0,-1.020843697E1,1.955978632E0
1.776865052E0,-2.808277845E0,-1.023237801E1,2.046954393E0
1.779196458E0,-2.779548645E0,-1.034490108E1,2.032589912E0
1.781527916E0,-2.882494926E0,-1.042869377E1,2.104412794E0
1.783860156E0,-2.983047009E0,-1.043348217E1,2.279181957E0
1.786192396E0,-3.023746729E0,-1.037123585E1,2.509015560E0
1.788523854E0,-3.042899609E0,-1.028744221E1,2.755607843E0
1.790855312E0,-3.018958569E0,-1.018688965E1,2.784336805E0
1.793187552E0,-2.911223888E0,-1.005282116E1,2.858553886E0
1.795519791E0,-2.748425245E0,-9.973814964E0,2.870524406E0
1.797851198E0,-2.810672045E0,-9.918750763E0,2.702937603E0
1.800182656E0,-3.129086971E0,-1.005760860E1,2.461133480E0
1.802514896E0,-3.411590815E0,-1.027068424E1,2.262423277E0
1.804847135E0,-3.952656984E0,-1.058191586E1,2.058924913E0
1.807178593E0,-4.273466587E0,-1.083808517E1,1.977525592E0
1.809510052E0,-4.453023434E0,-1.095060825E1,1.982313752E0
1.811842291E0,-4.517664433E0,-1.101285362E1,2.051742554E0
1.814174531E0,-4.357259274E0,-1.091948414E1,2.039772034E0
1.816505937E0,-4.069967747E0,-1.074232101E1,1.999072552E0
1.818837396E0,-3.940686464E0,-1.054839897E1,2.003860712E0
1.821169635E0,-3.813799143E0,-1.036405277E1,1.850638390E0
1.823501875E0,-3.684518099E0,-1.020125484E1,1.680657387E0
1.825833333E0,-3.576783419E0,-1.003366756E1,1.501099825E0
1.828164791E0,-3.524113178E0,-9.885233879E0,1.448429704E0
1.830497031E0,-3.466655016E0,-9.717646599E0,1.539405465E0
1.832829271E0,-3.358920574E0,-9.526119232E0,1.666292787E0
1.835160677E0,-3.246397972E0,-9.281921387E0,1.726145267E0
1.837492135E0,-3.085993290E0,-9.040117264E0,1.888943911E0
1.839824375E0,-2.839401007E0,-8.721701622E0,2.087654114E0
1.842156614E0,-2.520986080E0,-8.384134293E0,1.936825871E0
1.844488073E0,-2.367763758E0,-8.053748131E0,1.714174747E0
1.846819531E0,-2.365369558E0,-7.754486084E0,1.376606703E0
1.849151771E0,-2.707725763E0,-7.577322483E0,1.414912343E0
1.851484010E0,-2.951923847E0,-7.433676720E0,1.534617305E0
1.853815416E0,-3.133875132E0,-7.357065678E0,1.714174747E0
1.856146875E0,-3.308644533E0,-7.292425156E0,1.814726830E0
1.858479114E0,-3.495384216E0,-7.213419437E0,1.754874349E0
1.860811354E0,-3.651000500E0,-7.179902077E0,1.558558226E0
1.863142812E0,-3.672547579E0,-7.158355713E0,1.410124183E0
1.865474271E0,-3.619877338E0,-7.088926315E0,1.352665782E0
1.867806510E0,-3.576783419E0,-7.036255836E0,1.364636302E0
1.870138750E0,-3.490596056E0,-7.007526875E0,1.374212623E0
1.872470156E0,-3.433137417E0,-6.978797913E0,1.311966181E0
1.874801614E0,-3.368496895E0,-6.952463150E0,1.271266341E0
1.877133854E0,-3.265550852E0,-6.875851631E0,1.326330781E0
1.879466093E0,-3.107540369E0,-6.806422710E0,1.424488783E0
1.881797552E0,-2.923194408E0,-6.720234871E0,1.560952425E0
1.884129010E0,-2.758001804E0,-6.624471188E0,1.647140026E0
1.886461250E0,-2.580838442E0,-6.526312828E0,1.785997629E0
1.888793489E0,-2.444374800E0,-6.375484943E0,1.905702591E0
1.891124896E0,-2.300729036E0,-6.265356541E0,2.039772034E0
1.893456354E0,-2.212147236E0,-6.193533421E0,2.166659355E0
1.895788593E0,-2.202570677E0,-6.069040298E0,2.355793238E0
1.898120833E0,-2.147506475E0,-5.980458736E0,2.494651079E0
1.900452291E0,-2.128353834E0,-5.958911896E0,2.702937603E0
1.902783750E0,-2.109200954E0,-5.877512455E0,2.844189167E0
1.905115989E0,-2.135535955E0,-5.843995094E0,2.947135448E0
1.907448229E0,-2.173841715E0,-5.815266132E0,3.002199650E0
1.909779635E0,-2.243270397E0,-5.767384052E0,2.973470688E0
1.912111093E0,-2.281575918E0,-5.764989853E0,3.004594088E0
1.914443333E0,-2.439586401E0,-5.755413532E0,2.935164928E0
1.916775573E0,-2.566473722E0,-5.791325092E0,2.975864649E0
1.919107031E0,-2.669420004E0,-5.788930893E0,3.016564608E0
1.921438489E0,-2.758001804E0,-5.764989853E0,2.968682528E0
1.923770729E0,-2.832218647E0,-5.731472492E0,2.944741488E0
1.926102968E0,-2.884888887E0,-5.697955132E0,2.927982807E0
1.928434375E0,-2.908829927E0,-5.642890453E0,2.894465446E0
1.930765833E0,-2.841795206E0,-5.638102531E0,2.839401007E0
1.933098073E0,-2.973470688E0,-5.674014091E0,2.640691042E0
1.935430312E0,-3.002199650E0,-5.709925652E0,2.540138721E0
1.937761718E0,-2.992623568E0,-5.683590412E0,2.487468481E0
1.940093229E0,-2.968682528E0,-5.712319374E0,2.370157719E0
1.942425468E0,-2.904041767E0,-5.982852936E0,2.030195713E0
1.944757656E0,-1.958372712E0,-6.550253868E0,1.970343232E0
1.947089114E0,-3.244003773E0,-5.757807732E0,1.436459303E0
1.949420573E0,-3.052475929E0,-5.604585171E0,1.702204227E0
1.951752812E0,-3.054869890E0,-5.654860973E0,1.565740585E0
1.954085052E0,-3.150634050E0,-5.685984612E0,1.410124183E0
1.956416458E0,-3.164998531E0,-5.568673611E0,1.110861897E0
1.958747968E0,-2.937559366E0,-5.391510487E0,8.834224343E-1
1.961080208E0,-2.772366285E0,-5.259834766E0,6.416184306E-1
1.963412448E0,-2.650267363E0,-5.195194721E0,4.548787475E-1
1.965743854E0,-2.628720522E0,-5.199982643E0,3.208092153E-1
1.968075312E0,-2.796307325E0,-5.262228966E0,3.567207158E-1
1.970407552E0,-2.664632082E0,-5.310111046E0,3.112328351E-1
1.972739791E0,-2.327064037E0,-5.460938931E0,1.795574129E-1
1.975071198E0,-1.874579430E0,-5.832024574E0,4.548787326E-2
1.977402708E0,-1.630381227E0,-6.318026543E0,-2.130747885E-1
1.979734948E0,-1.589681625E0,-6.514342308E0,-5.123371482E-1
1.982067187E0,-1.635169506E0,-6.540678024E0,-7.876585126E-1
1.984398593E0,-1.754874349E0,-6.557436466E0,-9.193339348E-1
1.986730052E0,-1.548981905E0,-6.495190144E0,-8.666637540E-1
1.989062291E0,-8.666637540E-1,-6.679535389E0,-8.522991538E-1
1.991394531E0,-3.950262666E-1,-7.067379475E0,-1.309571981E0
1.993725937E0,2.154688910E-2,-7.352277279E0,-1.458006144E0
1.996057448E0,6.631653905E-1,-7.462406158E0,-1.333513021E0
1.998389687E0,1.244931340E0,-7.565351963E0,-8.786342740E-1
2.000721927E0,1.685445547E0,-7.931649208E0,1.125226378E0
2.003053333E0,1.833879590E0,-9.186157227E0,4.709191799E0
2.005384791E0,1.807544470E0,-1.052206421E1,7.788002968E0
2.007717031E0,1.706992388E0,-1.132408714E1,9.016176224E0
2.010049271E0,1.752480268E0,-1.203273964E1,9.087999344E0
2.012380677E0,1.721356988E0,-1.238946056E1,8.257246971E0
2.014712135E0,1.448429704E0,-1.299516773E1,7.120049477E0
2.017044375E0,1.335907102E0,-1.343089390E1,5.436998367E0
2.019376614E0,1.017491937E0,-1.392647171E1,3.785069942E0
2.021708073E0,3.136269450E-1,-1.454175568E1,2.465921640E0
2.024039531E0,-1.963160932E-1,-1.494157028E1,1.268872380E0
2.026371771E0,-8.163877130E-1,-1.520013332E1,6.703476310E-1
2.028704010E0,-1.374212623E0,-1.528153229E1,6.727417707E-1
2.031035416E0,-1.716568708E0,-1.471652508E1,8.642696142E-1
2.033366875E0,-2.281575918E0,-1.361284542E1,1.252113581E0
2.035699114E0,-2.690967083E0,-1.360805702E1,2.221723795E0
2.038031354E0,-2.810672045E0,-1.377085590E1,3.083599329E0
2.040362812E0,-2.659843683E0,-1.361524010E1,3.253580332E0
2.042694271E0,-3.648606539E0,-1.391210842E1,2.987835169E0
2.045026510E0,-4.699615955E0,-1.429277039E1,2.930376768E0
2.047358750E0,-5.053942680E0,-1.440289783E1,2.370157719E0
2.049690156E0,-5.233500004E0,-1.435501575E1,1.685445547E0
2.052021614E0,-5.298140526E0,-1.420897579E1,1.489129424E0
2.054353854E0,-5.123371601E0,-1.422812939E1,2.006254673E0
2.056686093E0,-5.130553722E0,-1.412039375E1,2.281575918E0
2.059017552E0,-5.116189003E0,-1.397674847E1,2.255240917E0
2.061349010E0,-5.010848522E0,-1.365593910E1,1.944008112E0
2.063681250E0,-4.836079597E0,-1.338540554E1,1.587287545E0
2.066013489E0,-4.704403877E0,-1.298319817E1,1.446035624E0
2.068344896E0,-4.474570274E0,-1.245170784E1,1.479552984E0
2.070676354E0,-4.441052914E0,-1.199922276E1,1.422094584E0
2.073008593E0,-4.328530312E0,-1.167123127E1,1.326330781E0
2.075340833E0,-3.895198822E0,-1.128578091E1,1.271266341E0
2.077672291E0,-3.526507616E0,-1.062261581E1,1.417306542E0
2.080003750E0,-3.485807657E0,-1.027068424E1,1.472370744E0
2.082335989E0,-3.332585573E0,-9.945085526E0,1.527434945E0
2.084668229E0,-3.215274572E0,-9.696100235E0,1.623198986E0
2.086999635E0,-3.042899609E0,-9.365714073E0,1.644745827E0
2.089331093E0,-2.908829927E0,-9.138275146E0,1.544193745E0
2.091663333E0,-2.753213406E0,-9.042510986E0,1.479552984E0
2.093995573E0,-2.604779482E0,-9.006599426E0,1.575317025E0
2.096327031E0,-2.408463240E0,-9.025752068E0,1.625592947E0
2.098658489E0,-2.250452757E0,-9.011387825E0,1.627987146E0
2.100990729E0,-2.243270397E0,-9.143062592E0,1.644745827E0
2.103322968E0,-2.200176716E0,-9.128699303E0,1.601652026E0
2.105654375E0,-2.082865953E0,-9.083210945E0,1.515464544E0
2.107985833E0,-1.987102032E0,-9.073634148E0,1.429276943E0
2.110318073E0,-1.869791150E0,-9.025752068E0,1.367030382E0
2.112650312E0,-1.848244309E0,-8.958718300E0,1.355059862E0
2.114981771E0,-1.855426550E0,-8.968294144E0,1.307177901E0
2.117313229E0,-1.869791150E0,-8.977869987E0,1.209019899E0
2.119645468E0,-1.764450788E0,-8.958718300E0,9.839745760E-1
2.121977708E0,-1.704598308E0,-8.953928947E0,8.714519143E-1
2.124309114E0,-1.678263307E0,-8.882105827E0,8.642696142E-1
2.126640573E0,-1.632775426E0,-8.822254181E0,8.858165741E-1
2.128972812E0,-1.541799664E0,-8.652273178E0,9.408808351E-1
2.131305052E0,-1.407730103E0,-8.384134293E0,9.241221547E-1
2.133636458E0,-1.422094584E0,-8.257246971E0,9.336984754E-1
2.135967968E0,-1.259295940E0,-7.955589771E0,1.010309696E0
2.138300208E0,-1.180290580E0,-7.663509846E0,1.017491937E0
2.140632448E0,-1.060585737E0,-7.337912560E0,1.048615217E0
2.142963854E0,-8.977869749E-1,-7.024285316E0,1.079738498E0
2.145295312E0,-9.073634148E-1,-6.775299549E0,1.223384500E0
2.147627552E0,-8.786342740E-1,-6.564619064E0,1.319148421E0
2.149959791E0,-8.570873737E-1,-6.373091221E0,1.443641543E0
2.152291198E0,-8.092053533E-1,-6.126498699E0,1.556164145E0
2.154622708E0,-7.325941920E-1,-5.884694576E0,1.766844869E0
2.156954948E0,-5.338839889E-1,-5.482485771E0,2.080471754E0
2.159287135E0,-2.896859348E-1,-5.178435326E0,2.384522200E0
2.161618593E0,-2.441980839E-1,-5.185617924E0,2.631114483E0
2.163950052E0,-4.022085965E-1,-5.439392567E0,2.767578363E0
2.166282291E0,-5.745837092E-1,-5.628526211E0,2.956712008E0
2.168614531E0,-7.373824120E-1,-5.913424015E0,3.117116451E0
2.170945937E0,-1.094103098E0,-6.420972824E0,3.097963810E0
2.173277448E0,-1.467582464E0,-6.914156914E0,2.899253607E0
2.175609687E0,-1.848244309E0,-7.436070442E0,2.573656321E0
2.177941875E0,-2.142718554E0,-7.855038166E0,2.370157719E0
2.180273333E0,-2.269605398E0,-8.127964973E0,2.224117756E0
2.182604791E0,-2.214541197E0,-8.216547012E0,2.200176716E0
2.184937031E0,-2.125959635E0,-8.187817574E0,2.118777514E0
2.187269271E0,-1.924855351E0,-8.034595490E0,1.994284272E0
2.189600677E0,-1.639957666E0,-7.807156086E0,1.908096790E0
2.191932135E0,-1.242537260E0,-7.445646763E0,1.829091549E0
2.194264375E0,-9.408808351E-1,-7.136808395E0,1.661504507E0
2.196596614E0,-6.751358509E-1,-6.878245354E0,1.434065104E0
2.198928073E0,-4.476964772E-1,-6.734600067E0,1.118044138E0
2.201259531E0,-2.633508742E-1,-6.655594349E0,6.104952097E-1
2.203591771E0,-1.029462516E-1,-6.571801186E0,2.489862591E-1
2.205924010E0,-5.506426841E-2,-6.636441708E0,7.421706617E-2
2.208255416E0,4.548787326E-2,-6.605318546E0,7.182296365E-2
2.210586875E0,5.027607456E-2,-6.674747467E0,1.173108369E-1
2.212919114E0,6.464067101E-2,-6.629259586E0,3.423561156E-1
2.215251354E0,1.197049394E-1,-6.533495426E0,6.511948705E-1
2.217582812E0,1.604046077E-1,-6.545465946E0,8.115994930E-1
2.219914271E0,2.896859348E-1,-6.622076988E0,8.283581734E-1
2.222246510E0,4.740315676E-1,-6.559830666E0,1.084526777E0
2.224578750E0,6.775299311E-1,-6.514342308E0,1.268872380E0
2.226910156E0,7.517470121E-1,-6.490401268E0,1.460400224E0
2.229241614E0,6.823181510E-1,-6.602924347E0,1.611228466E0
2.231573854E0,6.320420504E-1,-6.677141666E0,1.807544470E0
2.233906093E0,4.812138379E-1,-6.880640030E0,1.829091549E0
2.236237552E0,4.022085965E-1,-7.053015232E0,1.783603668E0
2.238569010E0,3.423561156E-1,-7.141596317E0,1.728539228E0
2.240901250E0,2.753213346E-1,-7.072167397E0,1.745298028E0
2.243233489E0,2.561685741E-1,-7.043438435E0,1.735721588E0
2.245564896E0,2.992623448E-1,-6.990768433E0,1.927249551E0
2.247896354E0,3.591148183E-2,-7.237360477E0,2.058924913E0
2.250228593E0,-2.130747885E-1,-7.491135120E0,2.027801514E0
2.252560833E0,-4.261495769E-1,-7.687450886E0,1.927249551E0
2.254892291E0,-6.703476310E-1,-7.857431889E0,1.817121029E0
2.257223750E0,-7.924466729E-1,-7.912496567E0,1.647140026E0
2.259555989E0,-8.834224343E-1,-7.979530811E0,1.290419221E0
2.261888229E0,-8.522991538E-1,-8.010654449E0,9.504572153E-1
2.264219635E0,-8.139935732E-1,-8.036989212E0,6.559830904E-1
2.266551093E0,-7.062591314E-1,-7.998683929E0,2.465921789E-1
2.268883333E0,-6.272538900E-1,-7.857431889E0,-1.268872321E-1
2.271215573E0,-5.674013495E-1,-7.728150845E0,-5.913423896E-1
2.273546979E0,-3.950262666E-1,-7.555775642E0,-8.618755341E-1
2.275878489E0,-2.657449543E-1,-7.474376678E0,-9.935510159E-1
2.278210729E0,-1.987102032E-1,-7.373824120E0,-1.120438218E0
2.280542968E0,-1.675869152E-2,-7.139202595E0,-1.194655299E0
2.282874375E0,9.815804660E-2,-6.993162632E0,-1.094103098E0
2.285205833E0,1.197049394E-1,-6.899792671E0,-1.058191657E0
2.287538073E0,1.795574129E-1,-6.909368992E0,-8.092053533E-1
2.289870312E0,1.604046077E-1,-6.938097954E0,-3.184151351E-1
2.292201718E0,1.963160932E-1,-6.938097954E0,2.705331445E-1
2.294533229E0,2.441980839E-1,-7.009921074E0,8.929988146E-1
2.296865468E0,1.627987176E-1,-7.225389957E0,1.515464544E0
2.299197656E0,7.182296365E-2,-7.369036198E0,2.030195713E0
2.301529114E0,-5.745837092E-2,-7.594080925E0,2.650267363E0
2.303860573E0,-2.011042982E-1,-8.297946930E0,3.045293570E0
2.306192812E0,-3.040505350E-1,-9.327408791E0,3.090781450E0
2.308525052E0,-1.292813420E-1,-1.087878513E1,2.698149204E0
2.310856458E0,2.657449543E-1,-1.288264465E1,1.750086069E0
2.313187916E0,8.594814539E-1,-1.549221325E1,3.615089059E-1
2.315520156E0,1.319148421E0,-1.819275665E1,-2.633508742E-1
2.317852396E0,1.513070345E0,-2.075922966E1,-5.650073290E-1
2.320183854E0,1.572922826E0,-2.342386246E1,-1.017491937E0
2.322515312E0,1.659110427E0,-2.587302589E1,-1.431671023E0
2.324847552E0,1.426882863E0,-2.850414085E1,-2.121171474E0
2.327179791E0,1.048615217E0,-3.103470230E1,-2.377340078E0
2.329511198E0,2.130747885E-1,-3.393874359E1,-2.889677286E0
2.331842656E0,-7.565351725E-1,-3.730484772E1,-3.911957264E0
2.334174896E0,-1.709386468E0,-4.020649719E1,-4.558363914E0
2.336507135E0,-2.451556921E0,-4.149212265E1,-3.830558062E0
2.338838593E0,-2.714907885E0,-4.080023193E1,-1.197049379E0
2.341170052E0,-2.753213406E0,-3.792252350E1,2.705331564E0
2.343502291E0,-2.865736246E0,-3.320375443E1,5.920606136E0
2.345834531E0,-2.791519165E0,-2.753931808E1,7.280454636E0
2.348165937E0,-2.173841715E0,-2.211189651E1,7.562957764E0
2.350497396E0,-1.338301301E0,-1.746495056E1,7.347488880E0
2.352829635E0,-5.674013495E-1,-1.364396858E1,7.038650513E0
2.355161875E0,6.464067101E-2,-1.054600525E1,6.622076988E0
2.357493333E0,6.440125704E-1,-8.230911255E0,5.817659855E0
2.359824791E0,1.084526777E0,-6.437731266E0,5.365175724E0
2.362157031E0,1.273660541E0,-5.267016888E0,4.402747631E0
2.364489271E0,1.185078859E0,-4.766650677E0,2.817854166E0
2.366820677E0,1.065374017E0,-4.591881275E0,1.671080828E0
2.369152135E0,8.092053533E-1,-4.678069115E0,8.618755341E-1
2.371484375E0,4.788197577E-1,-5.087460041E0,-1.101285368E-1
2.373816614E0,2.322275788E-1,-5.542338371E0,-6.176775098E-1
2.376148073E0,1.149167418E-1,-6.033129215E0,-8.594814539E-1
2.378479531E0,4.548787326E-2,-6.397031784E0,-8.977869749E-1
2.380811771E0,-6.464067101E-2,-6.732205391E0,-7.996289730E-1
2.383144010E0,-1.915279031E-1,-7.088926315E0,-6.440125704E-1
2.385475416E0,-3.495384157E-1,-7.460011482E0,-4.069967866E-1
2.387806875E0,-3.806616962E-1,-7.816732407E0,-1.699810177E-1
2.390139114E0,-4.093908668E-1,-8.254852295E0,1.101285368E-1
2.392471354E0,-4.716374576E-1,-8.666637421E0,4.022085965E-1
2.394802760E0,-5.985246897E-1,-8.939564705E0,6.535889506E-1
2.397134271E0,-6.200715899E-1,-9.234039307E0,8.403286934E-1
2.399466510E0,-6.895004511E-1,-9.523724556E0,1.017491937E0
2.401798698E0,-7.086532712E-1,-9.703282356E0,1.197049379E0
2.404130156E0,-6.511948705E-1,-9.794258118E0,1.304783821E0
2.406461614E0,-5.769777894E-1,-9.997756004E0,1.359848142E0
2.408793854E0,-5.290958285E-1,-1.021083069E1,1.256901860E0
2.411126093E0,-5.697954893E-1,-1.022519588E1,1.237748981E0
2.413457500E0,-5.602191091E-1,-1.014858532E1,1.383789182E0
2.415789010E0,-5.219135284E-1,-1.017252636E1,1.393365502E0
2.418121250E0,-4.405141473E-1,-1.015337276E1,1.474764824E0
2.420453437E0,-4.069967866E-1,-1.020843697E1,1.467582464E0
2.422784896E0,-3.734793961E-1,-1.026589489E1,1.436459303E0
2.425116354E0,-3.710853159E-1,-1.028265381E1,1.469976664E0
2.427448593E0,-3.160210252E-1,-1.033771801E1,1.498705864E0
2.429780833E0,-2.681390643E-1,-1.043348217E1,1.572922826E0
2.432112239E0,-1.915279031E-1,-1.045263481E1,1.726145267E0
2.434443698E0,-1.460400373E-1,-1.039757061E1,1.845850110E0
2.436775937E0,-1.316754371E-1,-1.032096004E1,1.857820630E0
2.439108177E0,-8.858165890E-2,-1.029941273E1,1.797968149E0
2.441439635E0,-4.788197111E-3,-1.039038944E1,1.721356988E0
2.443771093E0,9.576395154E-2,-1.050530529E1,1.565740585E0
2.446103333E0,1.197049394E-1,-1.057473373E1,1.486735344E0
2.448435573E0,1.604046077E-1,-1.053882313E1,1.503494024E0
2.450766979E0,2.154688835E-1,-1.054600525E1,1.501099825E0
2.453098437E0,2.657449543E-1,-1.052685165E1,1.517858624E0
2.455430677E0,3.064446151E-1,-1.051009369E1,1.515464544E0
2.457762916E0,3.136269450E-1,-1.040475273E1,1.558558226E0
2.460094375E0,2.968682647E-1,-1.020843697E1,1.596863866E0
2.462425833E0,3.112328351E-1,-1.011506653E1,1.563346505E0
2.464758073E0,2.609567642E-1,-9.854109764E0,1.436459303E0
2.467090312E0,3.160210252E-1,-9.717646599E0,1.323936582E0
2.469421718E0,3.926321864E-1,-9.708069801E0,1.144379258E0
2.471753177E0,4.716374576E-1,-9.806227684E0,9.576395154E-1
2.474085416E0,5.530368090E-1,-9.851716042E0,8.834224343E-1
2.476417656E0,5.458545089E-1,-9.772710800E0,8.475109339E-1
2.478749114E0,5.171253681E-1,-9.655400276E0,8.187817335E-1
2.481080573E0,4.596669674E-1,-9.463871956E0,8.020230532E-1
2.483412812E0,4.836079478E-1,-9.348956108E0,8.379345536E-1
2.485745052E0,5.027607679E-1,-9.344166756E0,8.427227736E-1
2.488076458E0,4.955784380E-1,-9.188550949E0,8.427227736E-1
2.490407916E0,5.123371482E-1,-9.162216187E0,8.379345536E-1
2.492740156E0,5.075489283E-1,-9.140668869E0,8.451168537E-1
2.495072396E0,5.051548481E-1,-9.135881424E0,7.373824120E-1
2.497403802E0,4.716374576E-1,-9.121516228E0,5.099430084E-1
2.499735312E0,4.429082870E-1,-9.111940384E0,4.069967866E-1
2.502067552E0,4.357259572E-1,-9.095181465E0,4.046026766E-1
2.504399739E0,4.644551575E-1,-9.152640343E0,5.362781286E-1
2.506731198E0,4.022085965E-1,-9.198126793E0,6.368302703E-1
2.509062656E0,3.136269450E-1,-9.133486748E0,6.918945909E-1
2.511394896E0,2.250452787E-1,-9.104758263E0,6.895004511E-1
2.513727135E0,1.843456030E-1,-9.107151985E0,8.163877130E-1
2.516058541E0,1.292813420E-1,-9.188550949E0,9.384866953E-1
2.518390000E0,7.182296365E-2,-9.210098267E0,1.096497297E0
2.520722239E0,-7.182296365E-3,-9.262767792E0,1.115650058E0
2.523054479E0,-1.292813420E-1,-9.241221428E0,1.149167418E0
2.525385937E0,-1.699810177E-1,-9.234039307E0,9.121516347E-1
2.527717396E0,-1.987102032E-1,-9.372897148E0,7.948408127E-1
2.530049635E0,-2.058925033E-1,-9.538088799E0,8.594814539E-1
2.532381875E0,-2.154688835E-1,-9.638642311E0,7.565351725E-1
2.534713281E0,-2.705331445E-1,-9.739193916E0,6.224656701E-1
2.537044739E0,-3.208092153E-1,-9.815805435E0,5.051548481E-1
2.539376979E0,-3.806616962E-1,-9.899598122E0,3.782675862E-1
2.541709218E0,-4.500905573E-1,-9.930722237E0,2.609567642E-1
2.544040677E0,-5.243076086E-1,-1.000493908E1,1.556164175E-1
2.546372135E0,-5.195194483E-1,-1.000972652E1,5.985246971E-2
2.548704375E0,-4.764256477E-1,-1.003845596E1,-1.484341323E-1
2.551036614E0,-4.596669674E-1,-1.018688965E1,-4.381200671E-1
2.553368021E0,-3.734793961E-1,-1.058670521E1,-5.602191091E-1
2.555699479E0,-3.686912060E-1,-1.120917034E1,-1.582499266E0
2.558031718E0,-4.716374576E-1,-1.130493355E1,-1.041432977E0
2.560363958E0,1.340695322E-1,-1.039757061E1,3.495384157E-1
2.562695416E0,8.139935732E-1,-1.003845596E1,2.078077793E0
2.565026875E0,9.384866953E-1,-9.698493958E0,3.253580332E0
2.567359114E0,8.020230532E-1,-9.839746475E0,3.847316742E0
2.569691354E0,5.602191091E-1,-1.007915592E1,3.631847858E0
2.572022760E0,3.806616962E-1,-1.018688965E1,3.399620295E0
2.574354218E0,2.322275788E-1,-1.032574844E1,3.071628809E0
2.576686458E0,1.268872321E-1,-1.048615265E1,2.707725763E0
2.579018698E0,1.412518322E-1,-1.045502853E1,2.465921640E0
2.581350156E0,1.627987176E-1,-1.035208321E1,2.099624395E0
2.583681614E0,1.699810177E-1,-1.029462528E1,1.740509748E0
2.586013854E0,1.843456030E-1,-1.018928432E1,1.438853383E0
2.588346093E0,2.130747885E-1,-1.005760860E1,1.240143180E0
2.590677500E0,2.418039739E-1,-9.906781197E0,1.034250736E0
2.593008958E0,2.465921789E-1,-9.767923355E0,8.906047344E-1
2.595341198E0,1.963160932E-1,-9.688918114E0,7.685056925E-1
2.597673437E0,1.508282125E-1,-9.595547676E0,7.373824120E-1
2.600004843E0,1.053403467E-1,-9.557242393E0,7.230178118E-1
2.602336354E0,1.197049394E-2,-9.574001312E0,7.421706319E-1
2.604668593E0,-7.182296365E-2,-9.595547676E0,8.331463933E-1
2.607000781E0,-1.843456030E-1,-9.660187721E0,8.929988146E-1
2.609332239E0,-2.370157838E-1,-9.736800194E0,1.019886017E0
2.611663698E0,-2.705331445E-1,-9.772710800E0,1.103679538E0
2.613995937E0,-3.279915452E-1,-9.808623314E0,1.144379258E0
2.616328177E0,-3.327797055E-1,-9.870868683E0,1.197049379E0
2.618659583E0,-3.567207158E-1,-9.897204399E0,1.201837659E0
2.620991041E0,-3.519325256E-1,-9.933115959E0,1.173108339E0
2.623323281E0,-3.495384157E-1,-9.983391762E0,1.173108339E0
2.625655521E0,-3.615089059E-1,-1.000254536E1,1.185078859E0
2.627986979E0,-3.279915452E-1,-1.001451492E1,1.125226378E0
2.630318437E0,-3.327797055E-1,-1.006239700E1,1.125226378E0
2.632650677E0,-2.753213346E-1,-1.009112644E1,1.101285338E0
2.634982916E0,-2.394098788E-1,-1.012464428E1,1.074950337E0
2.637314323E0,-1.723751128E-1,-1.014379597E1,1.022280216E0
2.639645781E0,-1.436459273E-1,-1.015097904E1,1.024674296E0
2.641978021E0,-1.364636272E-1,-1.009830856E1,1.007915616E0
2.644310260E0,-1.053403467E-1,-1.006957912E1,9.600335956E-1
2.646641718E0,-5.027607456E-2,-1.003127384E1,9.528512955E-1
2.648973177E0,-1.675869152E-2,-1.003606224E1,9.360926151E-1
2.651305416E0,1.197049394E-2,-9.992967606E0,9.408808351E-1
2.653637656E0,4.548787326E-2,-9.969026566E0,9.480631351E-1
2.655969062E0,6.224656478E-2,-9.911568642E0,9.289103150E-1
2.658300521E0,5.027607456E-2,-9.880446434E0,9.384866953E-1
2.660632760E0,7.182296365E-2,-9.856505394E0,9.480631351E-1
2.662965000E0,8.379345387E-2,-9.856505394E0,9.504572153E-1
2.665296406E0,4.069967940E-2,-9.837351799E0,9.720040560E-1
2.667627916E0,6.224656478E-2,-9.825381279E0,9.743981957E-1
2.669960156E0,7.421706617E-2,-9.794258118E0,9.648218155E-1
2.672292343E0,8.379345387E-2,-9.753558159E0,9.696099758E-1
2.674623802E0,6.224656478E-2,-9.720041275E0,9.528512955E-1
2.676955260E0,5.985246971E-2,-9.710465431E0,9.480631351E-1
2.679287500E0,8.139935881E-2,-9.710465431E0,9.336984754E-1
2.681619739E0,7.661115378E-2,-9.696100235E0,8.906047344E-1
2.683951146E0,5.985246971E-2,-9.686524391E0,8.762401342E-1
2.686282604E0,4.548787326E-2,-9.688918114E0,8.714519143E-1
2.688614843E0,-4.788197111E-3,-9.722434998E0,8.259640336E-1
2.690947083E0,-1.436459273E-2,-9.789469719E0,8.163877130E-1
2.693278541E0,-6.942886859E-2,-9.858899117E0,7.780820727E-1
2.695610000E0,-8.139935881E-2,-9.966632843E0,7.517470121E-1
2.697942239E0,-1.268872321E-1,-9.947480202E0,7.182296515E-1
2.700274479E0,-1.388577372E-1,-9.978604317E0,6.871063113E-1
2.702605885E0,-1.747692078E-1,-9.978604317E0,6.607712507E-1
2.704937343E0,-1.580105126E-1,-9.959450722E0,6.368302703E-1
2.707269583E0,-1.627987176E-1,-9.985786438E0,6.057069898E-1
2.709601823E0,-1.149167418E-1,-9.935509682E0,5.913423896E-1
2.711933281E0,-8.379345387E-2,-9.916357040E0,6.009188294E-1
2.714264739E0,-3.112328239E-2,-9.878050804E0,6.057069898E-1
2.716596979E0,7.182296365E-3,-9.834958076E0,5.793718696E-1
2.718929218E0,5.267017335E-2,-9.775105476E0,5.697954893E-1
2.721260625E0,8.139935881E-2,-9.763134956E0,5.626131892E-1
2.723592083E0,1.340695322E-1,-9.715252876E0,5.721896291E-1
2.725924323E0,1.556164175E-1,-9.724828720E0,5.674013495E-1
2.728256562E0,1.795574129E-1,-9.710465431E0,6.152833700E-1
2.730587968E0,1.987102032E-1,-9.693705559E0,6.272538900E-1
2.732919479E0,2.298334837E-1,-9.700887680E0,6.081010699E-1
2.735251718E0,2.370157838E-1,-9.679341316E0,6.440125704E-1
2.737583958E0,2.465921789E-1,-9.684128761E0,6.655594110E-1
2.739915364E0,2.370157838E-1,-9.672159195E0,6.775299311E-1
2.742246823E0,2.465921789E-1,-9.679341316E0,6.871063113E-1
2.744579062E0,2.202570736E-1,-9.657793999E0,6.847122312E-1
2.746911302E0,2.465921789E-1,-9.657793999E0,6.823181510E-1
2.749242708E0,2.298334837E-1,-9.633852959E0,6.847122312E-1
2.751574166E0,2.274393737E-1,-9.595547676E0,7.014709115E-1
2.753906406E0,2.178629786E-1,-9.569212914E0,6.990768313E-1
2.756238646E0,1.675869077E-1,-9.597942352E0,6.703476310E-1
2.758570104E0,1.627987176E-1,-9.585970879E0,6.727417707E-1
2.760901562E0,1.340695322E-1,-9.595547676E0,6.631653905E-1
2.763233802E0,9.097574651E-2,-9.595547676E0,7.014709115E-1
2.765566041E0,5.745837092E-2,-9.583577156E0,7.325941920E-1
2.767897448E0,4.548787326E-2,-9.559636116E0,6.918945909E-1
2.770228906E0,3.591148183E-2,-9.545271873E0,6.918945909E-1
2.772561146E0,1.197049394E-2,-9.530906677E0,6.727417707E-1
2.774893385E0,-3.112328239E-2,-9.497389793E0,6.440125704E-1
2.777224843E0,-3.830557689E-2,-9.471055031E0,6.416184306E-1
2.779556302E0,-4.548787326E-2,-9.451902390E0,6.272538900E-1
2.781888541E0,-7.182296365E-2,-9.413596153E0,6.224656701E-1
2.784220781E0,-9.097574651E-2,-9.396838188E0,6.966827512E-1
2.786552187E0,-1.316754371E-1,-9.382472992E0,7.278059721E-1
2.788883646E0,-1.675869077E-1,-9.375290871E0,7.637174726E-1
2.791215885E0,-1.843456030E-1,-9.432748795E0,8.666637540E-1
2.793548125E0,-2.418039739E-1,-9.473448753E0,9.145457745E-1
2.795879583E0,-2.681390643E-1,-9.514147758E0,9.672158957E-1
2.798211041E0,-3.136269450E-1,-9.576395035E0,1.031856537E0
2.800543281E0,-3.710853159E-1,-9.617094994E0,1.070162177E0
2.802875521E0,-4.141790867E-1,-9.686524391E0,1.120438218E0
2.805206927E0,-4.572728872E-1,-9.751164436E0,1.153955579E0
2.807538385E0,-4.836079478E-1,-9.789469719E0,1.182684779E0
2.809870625E0,-5.099430084E-1,-9.856505394E0,1.223384500E0
2.812202864E0,-5.243076086E-1,-9.890022278E0,1.249719501E0
2.814534271E0,-5.530368090E-1,-9.942691803E0,1.256901860E0
2.816865781E0,-5.793718696E-1,-9.976208687E0,1.256901860E0
2.819198021E0,-6.033128500E-1,-9.997756004E0,1.256901860E0
2.821530260E0,-5.865541697E-1,-1.004084969E1,1.242537260E0
2.823861666E0,-6.104952097E-1,-1.007676220E1,1.223384500E0
2.826193125E0,-5.961305499E-1,-1.013661385E1,1.204231620E0
2.828525364E0,-5.769777894E-1,-1.018688965E1,1.156349778E0
2.830857604E0,-5.578250289E-1,-1.023237801E1,1.130014658E0
2.833189010E0,-5.171253681E-1,-1.026110744E1,1.118044138E0
2.835520468E0,-4.979725182E-1,-1.029701900E1,1.077344418E0
2.837852708E0,-5.099430084E-1,-1.030659485E1,1.041432977E0
2.840184948E0,-4.764256477E-1,-1.030659485E1,9.983391762E-1
2.842516406E0,-4.285436869E-1,-1.029223061E1,9.552453756E-1
2.844847864E0,-3.926321864E-1,-1.021083069E1,9.480631351E-1
2.847180104E0,-3.567207158E-1,-1.012943172E1,9.073634148E-1
2.849512343E0,-3.208092153E-1,-1.006239700E1,8.139935732E-1
2.851843750E0,-3.327797055E-1,-9.980998039E0,7.397764921E-1
2.854175208E0,-3.112328351E-1,-9.892416000E0,6.751358509E-1
2.856507448E0,-2.992623448E-1,-9.784682274E0,5.937365294E-1
2.858839687E0,-2.896859348E-1,-9.705676079E0,4.955784380E-1
2.861171146E0,-2.489862591E-1,-9.571606636E0,4.333318770E-1
2.863502604E0,-2.130747885E-1,-9.478237152E0,3.567207158E-1
2.865834843E0,-1.651928127E-1,-9.389655113E0,2.537744641E-1
2.868167083E0,-8.139935881E-2,-9.301074028E0,2.034983933E-1
2.870498489E0,-2.154688910E-2,-9.231644630E0,1.556164175E-1
2.872829948E0,4.309377819E-2,-9.193339348E0,1.316754371E-1
2.875162187E0,8.618755639E-2,-9.183762550E0,9.336984903E-2
2.877494427E0,1.508282125E-1,-9.200521469E0,7.182296365E-2
2.879825833E0,2.489862591E-1,-9.210098267E0,8.379345387E-2
2.882157343E0,3.662970960E-1,-9.234039307E0,9.576395154E-2
2.884489583E0,4.189672768E-1,-9.248402596E0,7.661115378E-2
2.886821823E0,5.147312284E-1,-9.298680305E0,1.005521491E-1
2.889153229E0,6.081010699E-1,-9.329803467E0,1.053403467E-1
2.891484687E0,6.847122312E-1,-9.341773033E0,1.077344418E-1
2.893816927E0,7.732938528E-1,-9.399231911E0,1.388577372E-1
2.896149166E0,8.427227736E-1,-9.454296112E0,1.843456030E-1
2.898480573E0,8.906047344E-1,-9.485419273E0,1.795574129E-1
2.900812031E0,9.336984754E-1,-9.518937111E0,1.915279031E-1
2.903144271E0,9.600335956E-1,-9.578788757E0,1.987102032E-1
2.905476510E0,9.289103150E-1,-9.650611877E0,2.322275788E-1
2.907807968E0,9.001811147E-1,-9.679341316E0,2.537744641E-1
2.910139427E0,9.217280149E-1,-9.748769760E0,2.465921789E-1
2.912471666E0,8.570873737E-1,-9.799045563E0,2.609567642E-1
2.914803906E0,7.876585126E-1,-9.837351799E0,2.705331445E-1
2.917135312E0,7.325941920E-1,-9.868474960E0,2.848977447E-1
2.919466771E0,6.416184306E-1,-9.923539162E0,2.872918546E-1
2.921799010E0,5.506426692E-1,-9.937904358E0,2.968682647E-1
2.924131250E0,4.524846673E-1,-9.945085526E0,3.543266356E-1
2.926462708E0,3.232033551E-1,-9.964239120E0,4.237554669E-1
2.928794166E0,2.250452787E-1,-9.954663277E0,5.075489283E-1
2.931126406E0,7.900525630E-2,-9.933115959E0,5.745837092E-1
2.933458646E0,-3.591148183E-2,-9.892416000E0,6.583771110E-1
2.935790052E0,-1.292813420E-1,-9.844533920E0,7.541411519E-1
2.938121510E0,-2.489862591E-1,-9.801440239E0,8.738460541E-1
2.940453750E0,-3.686912060E-1,-9.753558159E0,1.010309696E0
2.942785989E0,-4.740315676E-1,-9.672159195E0,1.180290580E0
2.945117396E0,-5.650073290E-1,-9.629064560E0,1.371818662E0
2.947448854E0,-7.158355117E-1,-9.566819191E0,1.544193745E0
2.949781146E0,-7.996289730E-1,-9.523724556E0,1.750086069E0
2.952113385E0,-8.522991538E-1,-9.485419273E0,1.955978632E0
2.954444791E0,-9.073634148E-1,-9.439930916E0,2.154688835E0
2.956776250E0,-9.432749152E-1,-9.435143471E0,2.341428518E0
2.959108489E0,-1.007915616E0,-9.408807755E0,2.525774240E0
2.961440729E0,-1.031856537E0,-9.384866714E0,2.702937603E0
2.963772135E0,-1.048615217E0,-9.358531952E0,2.860948086E0
2.966103646E0,-1.053403497E0,-9.348956108E0,2.983047009E0
2.968435885E0,-1.046221137E0,-9.370502472E0,3.076416969E0
2.970768073E0,-1.055797458E0,-9.387261391E0,3.121904850E0
2.973099531E0,-1.053403497E0,-9.418383598E0,3.143451691E0
2.975430989E0,-1.015097857E0,-9.459083557E0,3.141057491E0
2.977763229E0,-9.983391762E-1,-9.509360313E0,3.093175411E0
2.980095468E0,-9.696099758E-1,-9.595547676E0,2.987835169E0
2.982426875E0,-9.193339348E-1,-9.653005600E0,2.851371527E0
2.984758333E0,-8.546932340E-1,-9.748769760E0,2.659843683E0
2.987090573E0,-8.283581734E-1,-9.822986603E0,2.430010319E0
2.989422812E0,-7.589293122E-1,-9.890022278E0,2.169053555E0
2.991754271E0,-7.134414315E-1,-9.947480202E0,1.872185230E0
2.994085729E0,-6.296479702E-1,-1.000014973E1,1.596863866E0
2.996417968E0,-5.554309487E-1,-1.005042744E1,1.323936582E0
2.998750208E0,-4.764256477E-1,-1.009830856E1,1.079738498E0
3.001081614E0,-3.950262666E-1,-1.014379597E1,8.139935732E-1
3.003413073E0,-2.920800745E-1,-1.019167805E1,5.338839889E-1
3.005745312E0,-2.513803840E-1,-1.023477173E1,3.734793961E-1
3.008077552E0,-1.843456030E-1,-1.030659485E1,2.082865983E-1
3.010408958E0,-1.891337931E-1,-1.036165905E1,7.900525630E-2
3.012740416E0,-1.843456030E-1,-1.044545269E1,-3.351738304E-2
3.015072656E0,-1.340695322E-1,-1.048854733E1,-1.316754371E-1
3.017404896E0,-1.005521491E-1,-1.055558109E1,-2.370157838E-1
3.019736354E0,-8.379345387E-2,-1.060106945E1,-3.232033551E-1
3.022067812E0,-2.394098788E-2,-1.062500954E1,-4.429082870E-1
3.024400052E0,-3.351738304E-2,-1.062500954E1,-4.644551575E-1
3.026732291E0,-3.351738304E-2,-1.061064625E1,-4.668492377E-1
3.029063698E0,-5.985246971E-2,-1.060825157E1,-3.782675862E-1
3.031395156E0,-1.077344418E-1,-1.061064625E1,-2.848977447E-1
3.033727396E0,-1.580105126E-1,-1.061064625E1,-1.939219981E-1
3.036059635E0,-1.268872321E-1,-1.056037045E1,-2.178629786E-1
3.038391093E0,-1.484341323E-1,-1.050769901E1,-1.963160932E-1
3.040722552E0,-1.819514930E-1,-1.046460629E1,-8.139935881E-2
3.043054791E0,-1.819514930E-1,-1.038799381E1,-3.830557689E-2
3.045387031E0,-1.771633178E-1,-1.032096004E1,-2.633508667E-2
3.047718437E0,-1.987102032E-1,-1.022998428E1,4.309377819E-2
3.050049896E0,-1.795574129E-1,-1.017252636E1,6.464067101E-2
3.052382135E0,-2.130747885E-1,-1.011027908E1,1.316754371E-1
3.054714375E0,-2.370157838E-1,-1.006718540E1,2.250452787E-1
3.057045781E0,-2.609567642E-1,-1.001930332E1,2.633508742E-1
3.059377291E0,-2.681390643E-1,-1.000254536E1,2.657449543E-1
3.061709531E0,-2.513803840E-1,-1.000014973E1,3.016564250E-1
3.064041771E0,-2.585626841E-1,-9.983391762E0,3.615089059E-1
3.066373177E0,-2.777154744E-1,-1.000254536E1,4.022085965E-1
3.068704635E0,-2.920800745E-1,-1.001212120E1,4.309377670E-1
3.071036875E0,-3.184151351E-1,-1.002648640E1,5.027607679E-1
3.073369114E0,-3.184151351E-1,-1.003845596E1,5.506426692E-1
3.075700521E0,-3.327797055E-1,-1.002409077E1,6.081010699E-1
3.078032031E0,-3.639029860E-1,-1.000733280E1,6.224656701E-1
3.080364271E0,-3.734793961E-1,-1.003366756E1,7.134414315E-1
3.082696458E0,-3.710853159E-1,-1.005760860E1,7.972348928E-1
3.085027916E0,-3.998144865E-1,-1.006000328E1,8.499050736E-1
3.087359375E0,-4.381200671E-1,-1.004324436E1,9.289103150E-1
3.089691614E0,-4.740315676E-1,-1.006479073E1,9.815804958E-1
3.092023854E0,-4.836079478E-1,-1.005282116E1,1.098891377E0
3.094355260E0,-5.267017484E-1,-1.005282116E1,1.158743739E0
3.096686718E0,-5.267017484E-1,-1.006000328E1,1.228172660E0
3.099018958E0,-5.697954893E-1,-1.006000328E1,1.299995661E0
3.101351198E0,-6.248597503E-1,-1.004563808E1,1.343089342E0
3.103682656E0,-6.488007307E-1,-1.005282116E1,1.371818662E0
3.106014114E0,-6.847122312E-1,-1.004563808E1,1.405336022E0
3.108346354E0,-7.325941920E-1,-1.003127384E1,1.405336022E0
3.110678593E0,-8.259640336E-1,-1.006239700E1,1.441247463E0
3.113010000E0,-8.522991538E-1,-1.006239700E1,1.431671023E0
3.115341458E0,-9.145457745E-1,-1.000493908E1,1.376606703E0
3.117673698E0,-9.241221547E-1,-9.985786438E0,1.326330781E0
3.120005937E0,-9.887627959E-1,-9.954663277E0,1.307177901E0
3.122337343E0,-1.024674296E0,-9.909174919E0,1.285630941E0
3.124668854E0,-1.039038897E0,-9.854109764E0,1.242537260E0
3.127001093E0,-1.082132578E0,-9.799045563E0,1.182684779E0
3.129333333E0,-1.084526777E0,-9.791864395E0,1.134802699E0
3.131664739E0,-1.110861897E0,-9.770317078E0,1.065374017E0
3.133996198E0,-1.153955579E0,-9.736800194E0,1.000733256E0
3.136328437E0,-1.165926099E0,-9.720041275E0,9.384866953E-1
3.138660677E0,-1.189867139E0,-9.727223396E0,8.642696142E-1
3.140992083E0,-1.201837659E0,-9.700887680E0,7.565351725E-1
3.143323541E0,-1.225778461E0,-9.684128761E0,6.679535508E-1
3.145655781E0,-1.237748981E0,-9.633852959E0,6.128892303E-1
3.147988021E0,-1.268872380E0,-9.667370796E0,5.458545089E-1
3.150319479E0,-1.283236861E0,-9.641036034E0,5.123371482E-1
3.152650937E0,-1.276054621E0,-9.631459236E0,4.764256477E-1
3.154983177E0,-1.297601461E0,-9.638642311E0,3.950262666E-1
3.157315416E0,-1.304783821E0,-9.624277115E0,3.327797055E-1
3.159646823E0,-1.252113581E0,-9.612305641E0,2.441980839E-1
3.161978281E0,-1.237748981E0,-9.612305641E0,2.178629786E-1
3.164310521E0,-1.228172660E0,-9.636246681E0,1.340695322E-1
3.166642760E0,-1.197049379E0,-9.650611877E0,8.618755639E-2
3.168974218E0,-1.149167418E0,-9.650611877E0,4.788197577E-2
3.171305677E0,-1.084526777E0,-9.633852959E0,7.182296365E-3
3.173637916E0,-1.012703776E0,-9.636246681E0,-3.830557689E-2
3.175970156E0,-9.456689954E-1,-9.614701271E0,-6.224656478E-2
3.178301562E0,-8.331463933E-1,-9.569212914E0,-6.703476608E-2
3.180633021E0,-7.254119515E-1,-9.542878151E0,-1.125226393E-1
3.182965260E0,-6.176775098E-1,-9.514147758E0,-1.053403467E-1
3.185297500E0,-4.788197577E-1,-9.463871956E0,-6.703476608E-2
3.187628906E0,-3.710853159E-1,-9.404020309E0,-1.125226393E-1
3.189960416E0,-2.609567642E-1,-9.377684593E0,-2.154688835E-1
3.192292656E0,-1.340695322E-1,-9.339379311E0,-3.279915452E-1
3.194624843E0,-1.197049394E-2,-9.301074028E0,-3.998144865E-1
3.196956302E0,1.101285368E-1,-9.301074028E0,-4.381200671E-1
3.199287760E0,2.274393737E-1,-9.291497231E0,-4.381200671E-1
3.201620000E0,3.040505350E-1,-9.248402596E0,-4.620610774E-1
3.203952239E0,3.878439963E-1,-9.241221428E0,-4.333318770E-1
3.206283646E0,4.261495769E-1,-9.210098267E0,-4.022085965E-1
3.208615104E0,4.788197577E-1,-9.248402596E0,-3.878439963E-1
3.210947343E0,5.626131892E-1,-9.207703590E0,-3.950262666E-1
3.213279583E0,6.368302703E-1,-9.190944672E0,-3.519325256E-1
3.215611041E0,6.583771110E-1,-9.195733070E0,-4.069967866E-1
3.217942500E0,7.373824120E-1,-9.181368828E0,-4.500905573E-1
3.220274739E0,7.254119515E-1,-9.195733070E0,-4.979725182E-1
3.222606979E0,7.230178118E-1,-9.243615150E0,-5.243076086E-1
3.224938385E0,6.871063113E-1,-9.243615150E0,-5.386722088E-1
3.227269843E0,6.559830904E-1,-9.286708832E0,-5.697954893E-1
3.229602083E0,6.296479702E-1,-9.286708832E0,-5.889483094E-1
3.231934323E0,6.057069898E-1,-9.241221428E0,-5.817660093E-1
3.234265729E0,5.530368090E-1,-9.253191948E0,-5.889483094E-1
3.236597239E0,5.099430084E-1,-9.248402596E0,-6.057069898E-1
3.238929479E0,4.213613868E-1,-9.253191948E0,-6.296479702E-1
3.241261666E0,3.950262666E-1,-9.260374069E0,-6.200715899E-1
3.243593125E0,4.022085965E-1,-9.243615150E0,-6.631653905E-1
3.245924583E0,3.351738155E-1,-9.248402596E0,-6.895004511E-1
3.248256823E0,2.346216738E-1,-9.262767792E0,-6.823181510E-1
3.250589062E0,1.364636272E-1,-9.274739265E0,-6.703476310E-1
3.252920468E0,2.872918546E-2,-9.284315109E0,-6.416184306E-1
3.255251927E0,-6.224656478E-2,-9.284315109E0,-6.344361901E-1
3.257584166E0,-1.723751128E-1,-9.322621346E0,-6.416184306E-1
3.259916406E0,-3.016564250E-1,-9.365714073E0,-6.344361901E-1
3.262247864E0,-4.357259572E-1,-9.387261391E0,-6.583771110E-1
3.264579323E0,-5.386722088E-1,-9.444720268E0,-6.392243505E-1
3.266911562E0,-6.320420504E-1,-9.463871956E0,-6.535889506E-1
3.269243802E0,-7.493529320E-1,-9.490206718E0,-6.990768313E-1
3.271575208E0,-8.139935732E-1,-9.533301353E0,-7.014709115E-1
3.273906666E0,-9.121516347E-1,-9.559636116E0,-7.086532712E-1
3.276238906E0,-9.911568761E-1,-9.583577156E0,-7.230178118E-1
3.278571146E0,-1.086920857E0,-9.593153954E0,-7.397764921E-1
3.280902604E0,-1.194655299E0,-9.602729797E0,-7.445647120E-1
3.283234062E0,-1.259295940E0,-9.605124474E0,-7.445647120E-1
3.285566302E0,-1.321542501E0,-9.626670837E0,-7.565351725E-1
3.287898541E0,-1.393365502E0,-9.657793999E0,-7.708998322E-1
3.290229948E0,-1.481947184E0,-9.691311836E0,-7.780820727E-1
3.292561406E0,-1.525040865E0,-9.669765472E0,-7.613233924E-1
3.294893646E0,-1.556164145E0,-9.648218155E0,-7.469587922E-1
3.297225885E0,-1.592075586E0,-9.662583351E0,-7.278059721E-1
3.299557291E0,-1.575317025E0,-9.650611877E0,-7.134414315E-1
3.301888750E0,-1.570528746E0,-9.645824432E0,-7.086532712E-1
3.304220989E0,-1.556164145E0,-9.633852959E0,-7.421706319E-1
3.306553229E0,-1.541799664E0,-9.581183434E0,-7.804762125E-1
3.308884687E0,-1.539405465E0,-9.540484428E0,-7.493529320E-1
3.311216146E0,-1.539405465E0,-9.511754036E0,-7.780820727E-1
3.313548385E0,-1.537011385E0,-9.492602348E0,-7.996289730E-1
3.315880625E0,-1.517858624E0,-9.423172951E0,-8.235700130E-1
3.318212031E0,-1.548981905E0,-9.413596153E0,-8.283581734E-1
3.320543489E0,-1.565740585E0,-9.404020309E0,-8.211758733E-1
3.322875729E0,-1.584893346E0,-9.404020309E0,-7.876585126E-1
3.325207968E0,-1.599257946E0,-9.387261391E0,-8.259640336E-1
3.327539375E0,-1.647140026E0,-9.382472992E0,-8.020230532E-1
3.329870885E0,-1.671080828E0,-9.375290871E0,-8.020230532E-1
3.332203125E0,-1.661504507E0,-9.370502472E0,-7.685056925E-1
3.334535364E0,-1.666292787E0,-9.351349831E0,-7.469587922E-1
3.336866771E0,-1.642351747E0,-9.320225716E0,-7.134414315E-1
3.339198229E0,-1.601652026E0,-9.274739265E0,-7.302001119E-1
3.341530468E0,-1.582499266E0,-9.281921387E0,-7.158355117E-1
3.343862708E0,-1.525040865E0,-9.219674110E0,-6.990768313E-1
3.346194114E0,-1.441247463E0,-9.207703590E0,-6.895004511E-1
3.348525573E0,-1.369424462E0,-9.205309868E0,-6.942886114E-1
3.350857812E0,-1.297601461E0,-9.198126793E0,-7.302001119E-1
3.353190052E0,-1.223384500E0,-9.183762550E0,-6.847122312E-1
3.355521510E0,-1.127620459E0,-9.167003632E0,-6.511948705E-1
3.357852968E0,-1.067767978E0,-9.133486748E0,-6.128892303E-1
3.360185208E0,-1.012703776E0,-9.162216187E0,-5.626131892E-1
3.362517448E0,-9.791863561E-1,-9.200521469E0,-5.243076086E-1
3.364848854E0,-9.217280149E-1,-9.229250908E0,-4.883961678E-1
3.367180312E0,-8.762401342E-1,-9.243615150E0,-4.620610774E-1
3.369512552E0,-8.235700130E-1,-9.303467751E0,-4.716374576E-1
3.371844791E0,-7.613233924E-1,-9.346562386E0,-4.141790867E-1
3.374176250E0,-7.397764921E-1,-9.389655113E0,-4.165731966E-1
3.376507708E0,-6.990768313E-1,-9.466265678E0,-4.165731966E-1
3.378839948E0,-6.631653905E-1,-9.526119232E0,-3.758735061E-1
3.381172187E0,-6.344361901E-1,-9.576395035E0,-3.543266356E-1
3.383503593E0,-6.081010699E-1,-9.619488716E0,-3.255974352E-1
3.385835052E0,-5.578250289E-1,-9.672159195E0,-2.418039739E-1
3.388167291E0,-5.338839889E-1,-9.672159195E0,-2.154688835E-1
3.390499531E0,-5.434604287E-1,-9.696100235E0,-1.604046077E-1
3.392830937E0,-5.386722088E-1,-9.717646599E0,-1.436459273E-1
3.395162396E0,-5.147312284E-1,-9.734406471E0,-8.858165890E-2
3.397494635E0,-4.644551575E-1,-9.732010841E0,-3.112328239E-2
3.399826875E0,-3.830558062E-1,-9.708069801E0,5.027607456E-2
3.402158333E0,-2.872918546E-1,-9.676946640E0,1.412518322E-1
3.404489791E0,-2.274393737E-1,-9.676946640E0,2.633508742E-1
3.406822031E0,-1.963160932E-1,-9.667370796E0,3.902381063E-1
3.409154271E0,-2.058925033E-1,-9.667370796E0,5.051548481E-1
3.411485677E0,-1.939219981E-1,-9.636246681E0,6.344361901E-1
3.413817135E0,-1.460400373E-1,-9.602729797E0,7.517470121E-1
3.416149375E0,-1.101285368E-1,-9.538088799E0,8.331463933E-1
3.418481614E0,-6.703476608E-2,-9.461478233E0,8.834224343E-1
3.420813073E0,-3.112328239E-2,-9.406414032E0,8.929988146E-1
3.423144531E0,-1.197049394E-2,-9.325015068E0,9.336984754E-1
3.425476771E0,0.000000000E0,-9.272343636E0,9.815804958E-1
3.427808958E0,2.394098556E-3,-9.224461555E0,1.010309696E0
3.430140416E0,2.633508667E-2,-9.178975105E0,1.091709018E0
3.432471875E0,2.394098556E-3,-9.219674110E0,1.185078859E0
3.434804114E0,-9.576394223E-3,-9.238826752E0,1.278448701E0
3.437136354E0,-6.224656478E-2,-9.291497231E0,1.395759583E0
3.439467760E0,-5.745837092E-2,-9.334590912E0,1.517858624E0
3.441799271E0,-1.101285368E-1,-9.461478233E0,1.637563467E0
3.444131510E0,-1.364636272E-1,-9.569212914E0,1.752480268E0
3.446463698E0,-1.819514930E-1,-9.676946640E0,1.855426550E0
3.448795156E0,-2.394098788E-1,-9.832564354E0,1.958372712E0
3.451126614E0,-3.040505350E-1,-9.983391762E0,2.070895433E0
3.453458854E0,-3.447502255E-1,-1.019167805E1,2.149900675E0
3.455791093E0,-3.519325256E-1,-1.038799381E1,2.243270397E0
3.458122500E0,-3.591148257E-1,-1.059867477E1,2.358187199E0
3.460453958E0,-3.782675862E-1,-1.092427254E1,2.489862680E0
3.462786198E0,-4.213613868E-1,-1.122832298E1,2.616750002E0
3.465118437E0,-4.237554669E-1,-1.163292599E1,2.710119724E0
3.467449896E0,-3.998144865E-1,-1.201837635E1,2.853765726E0
3.469781354E0,-3.543266356E-1,-1.235833836E1,2.961500168E0
3.472113593E0,-3.255974352E-1,-1.266238785E1,3.016564608E0
3.474445833E0,-2.729272544E-1,-1.290179825E1,3.062052250E0
3.476777239E0,-2.418039739E-1,-1.305980873E1,3.097963810E0
3.479108698E0,-1.436459273E-1,-1.309332561E1,3.078810930E0
3.481440937E0,-6.464067101E-2,-1.306699085E1,3.045293570E0
3.483773177E0,-5.985246971E-2,-1.297601509E1,2.925588846E0
3.486104583E0,-3.112328239E-2,-1.279645824E1,2.841795206E0
3.488436093E0,2.394098788E-2,-1.260253620E1,2.743637323E0
3.490768333E0,3.830557689E-2,-1.240382576E1,2.650267363E0
3.493100521E0,5.745837092E-2,-1.222426796E1,2.590414762E0
3.495431979E0,5.506426841E-2,-1.209259319E1,2.473104000E0
3.497763437E0,5.267017335E-2,-1.200161743E1,2.353399038E0
3.500095677E0,3.830557689E-2,-1.198964691E1,2.267211437E0
3.502427916E0,9.576394223E-3,-1.199922276E1,2.200176716E0
3.504759323E0,-1.436459273E-2,-1.201837635E1,2.075683594E0
3.507090781E0,-3.351738304E-2,-1.209019947E1,1.881761670E0
3.509423021E0,-5.506426841E-2,-1.218596268E1,1.690233707E0
3.511755260E0,-4.548787326E-2,-1.229848480E1,1.455611944E0
3.514086718E0,-4.548787326E-2,-1.240143204E1,1.177896619E0
3.516418177E0,-1.005521491E-1,-1.253789520E1,8.642696142E-1
3.518750416E0,-1.580105126E-1,-1.269590569E1,5.267017484E-1
3.521082656E0,-2.729272544E-1,-1.286828136E1,1.819514930E-1
3.523414062E0,-4.213613868E-1,-1.303586769E1,-1.173108369E-1
3.525745521E0,-5.745837092E-1,-1.317951393E1,-4.141790867E-1
3.528077760E0,-8.259640336E-1,-1.329682446E1,-6.775299311E-1
3.530410000E0,-1.046221137E0,-1.342850018E1,-9.887627959E-1
3.532741406E0,-1.254507780E0,-1.350750542E1,-1.266478300E0
3.535072916E0,-1.515464544E0,-1.358172226E1,-1.503494024E0
3.537405156E0,-1.788391709E0,-1.365115070E1,-1.838667870E0
3.539737343E0,-2.068501472E0,-1.372776222E1,-2.133141994E0
3.542068802E0,-2.346216679E0,-1.380197906E1,-2.432404280E0
3.544400260E0,-2.662237644E0,-1.388577271E1,-2.690967083E0
3.546732500E0,-2.985441208E0,-1.400068855E1,-2.920800447E0
3.549064739E0,-3.346950054E0,-1.414672947E1,-3.054869890E0
3.551396146E0,-3.677335739E0,-1.425446415E1,-3.095569849E0
3.553727604E0,-3.978991985E0,-1.438374519E1,-3.071628809E0
3.556059843E0,-4.194460869E0,-1.442923260E1,-2.961500168E0
3.558392083E0,-4.290225029E0,-1.445077991E1,-2.884888887E0
3.560723489E0,-4.287830830E0,-1.442923260E1,-2.793913364E0
3.563055000E0,-4.218401909E0,-1.437416935E1,-2.777154446E0
3.565387239E0,-4.110667706E0,-1.431431580E1,-2.724484205E0
3.567719479E0,-3.962233543E0,-1.427840519E1,-2.676602602E0
3.570050885E0,-3.780282021E0,-1.423531055E1,-2.700543404E0
3.572382343E0,-3.588753939E0,-1.423052311E1,-2.762789965E0
3.574714583E0,-3.433137417E0,-1.424728203E1,-2.872918606E0
3.577046823E0,-3.272732973E0,-1.428319263E1,-2.985441208E0
3.579378229E0,-3.119510651E0,-1.435501575E1,-3.117116451E0
3.581709687E0,-3.018958569E0,-1.443641472E1,-3.258368492E0
3.584041927E0,-2.899253607E0,-1.451302719E1,-3.404408455E0
3.586374166E0,-2.817854166E0,-1.455372620E1,-3.531295776E0
3.588705625E0,-2.729272604E0,-1.461836720E1,-3.689306259E0
3.591037083E0,-2.657449484E0,-1.466624928E1,-3.828164101E0
3.593369323E0,-2.599991322E0,-1.465906715E1,-3.955051184E0
3.595701562E0,-2.516197681E0,-1.464230824E1,-4.072361946E0
3.598032968E0,-2.451556921E0,-1.459921360E1,-4.187278748E0
3.600364427E0,-2.396492720E0,-1.454654408E1,-4.333318710E0
3.602696666E0,-2.327064037E0,-1.447472095E1,-4.464993954E0
3.605028906E0,-2.298334837E0,-1.443162727E1,-4.599063396E0
3.607360364E0,-2.257635117E0,-1.431671143E1,-4.725951195E0
3.609691823E0,-2.200176716E0,-1.420179367E1,-4.757073879E0
3.612024062E0,-2.164265156E0,-1.405575371E1,-4.778621197E0
3.614356302E0,-2.099624395E0,-1.390013695E1,-4.852838039E0
3.616687708E0,-2.058924913E0,-1.371100426E1,-4.871991158E0
3.619019166E0,-2.030195713E0,-1.353623390E1,-4.764256477E0
3.621351406E0,-2.046954393E0,-1.334710121E1,-4.611033916E0
3.623683646E0,-2.145112514E0,-1.317233086E1,-4.429082394E0
3.626015052E0,-2.286364317E0,-1.300474358E1,-4.330924511E0
3.628346510E0,-2.403675318E0,-1.285152245E1,-4.235160351E0
3.630678750E0,-2.530562401E0,-1.273181725E1,-4.103485107E0
3.633010989E0,-2.528168201E0,-1.258817101E1,-3.794646502E0
3.635342448E0,-2.461133480E0,-1.243494892E1,-3.423561335E0
3.637673906E0,-2.343822718E0,-1.226257420E1,-3.009382248E0
3.640006146E0,-2.190600157E0,-1.212611008E1,-2.616750002E0
3.642338385E0,-2.070895433E0,-1.194894695E1,-2.367763758E0
3.644669791E0,-1.900914431E0,-1.179811859E1,-2.319881678E0
3.647001250E0,-1.723751068E0,-1.160180283E1,-2.353399038E0
3.649333489E0,-1.558558226E0,-1.135042191E1,-2.477892160E0
3.651665729E0,-1.388577223E0,-1.109185886E1,-2.695755243E0
3.653997135E0,-1.218596220E0,-1.081893158E1,-3.030929089E0
3.656328646E0,-1.024674296E0,-1.058191586E1,-3.361314774E0
3.658660885E0,-8.666637540E-1,-1.037362957E1,-3.600724459E0
3.660993125E0,-8.211758733E-1,-1.020125484E1,-3.775493860E0
3.663324531E0,-7.469587922E-1,-1.008873177E1,-3.950263023E0
3.665655989E0,-7.780820727E-1,-9.985786438E0,-4.072361946E0
3.667988229E0,-7.780820727E-1,-1.000972652E1,-3.974204063E0
3.670320468E0,-7.948408127E-1,-1.008154964E1,-3.586359978E0
3.672651875E0,-8.522991538E-1,-1.022998428E1,-2.959105968E0
3.674983333E0,-1.012703776E0,-1.043348217E1,-2.238482237E0
3.677315573E0,-1.132408738E0,-1.068725681E1,-1.314360261E0
3.679647812E0,-1.249719501E0,-1.093384933E1,-3.447502255E-1
3.681979271E0,-1.347877622E0,-1.120438194E1,6.655594110E-1
3.684310729E0,-1.405336022E0,-1.151800919E1,1.606440306E0
3.686642968E0,-1.489129424E0,-1.182445431E1,2.458739519E0
3.688975208E0,-1.472370744E0,-1.211413956E1,3.054869890E0
3.691306614E0,-1.424488783E0,-1.236791420E1,3.521719217E0
3.693638073E0,-1.288025141E0,-1.257380676E1,3.830558062E0
3.695970312E0,-1.137196898E0,-1.275096989E1,4.175308228E0
3.698302552E0,-9.025752544E-1,-1.288264465E1,4.383594990E0
3.700633958E0,-7.278059721E-1,-1.303826237E1,4.330924511E0
3.702965468E0,-6.775299311E-1,-1.320106030E1,4.175308228E0
3.705297708E0,-6.751358509E-1,-1.341174126E1,3.768311501E0
3.707629896E0,-6.655594110E-1,-1.365354538E1,3.133875132E0
3.709961354E0,-6.440125704E-1,-1.388337898E1,2.461133480E0
3.712292812E0,-8.499050736E-1,-1.417545891E1,1.711780667E0
3.714625052E0,-1.041432977E0,-1.438374519E1,1.141985178E0
3.716957291E0,-1.230566740E0,-1.460879135E1,7.469587922E-1
3.719288698E0,-1.472370744E0,-1.480750084E1,3.998144865E-1
3.721620156E0,-1.673475027E0,-1.502297020E1,-9.576394223E-3
3.723952396E0,-1.721356988E0,-1.520731544E1,-4.022085965E-1
3.726284635E0,-1.855426550E0,-1.543236065E1,-7.756879926E-1
3.728616093E0,-1.946402192E0,-1.562149429E1,-1.017491937E0
3.730947552E0,-2.044560432E0,-1.585132790E1,-1.098891377E0
3.733279791E0,-1.982313752E0,-1.596145630E1,-7.876585126E-1
3.735612031E0,-1.900914431E0,-1.604046249E1,-1.891337931E-1
3.737943437E0,-1.927249551E0,-1.615777206E1,2.681390643E-1
3.740274896E0,-1.888943911E0,-1.634451294E1,4.381200671E-1
3.742607135E0,-1.891337991E0,-1.656716347E1,4.620610774E-1
3.744939375E0,-2.102018833E0,-1.678981400E1,3.160210252E-1
3.747270781E0,-2.073289394E0,-1.695979691E1,7.182296365E-3
3.749602239E0,-1.915279031E0,-1.703161812E1,-4.476964772E-1
3.751934479E0,-1.527434945E0,-1.697655487E1,-8.666637540E-1
3.754266718E0,-1.010309696E0,-1.680657387E1,-1.132408738E0
3.756598177E0,-4.716374576E-1,-1.656716347E1,-1.220990419E0
3.758929635E0,1.675869152E-2,-1.629902458E1,-1.149167418E0
3.761261875E0,5.123371482E-1,-1.596863937E1,-1.034250736E0
3.763594114E0,1.072556257E0,-1.558079529E1,-9.097574949E-1
3.765925521E0,1.572922826E0,-1.518816185E1,-9.193339348E-1
3.768256979E0,1.984707832E0,-1.485538292E1,-1.062979817E0
3.770589218E0,2.245664597E0,-1.450823784E1,-1.259295940E0
3.772921458E0,2.327064037E0,-1.419939995E1,-1.331118822E0
3.775252864E0,2.331852198E0,-1.387619591E1,-1.213808179E0
3.777584375E0,2.372551680E0,-1.340216541E1,-1.170714259E0
3.779916614E0,2.489862680E0,-1.294489193E1,-1.175502539E0
3.782248802E0,2.652661562E0,-1.240382576E1,-1.182684779E0
3.784580260E0,2.777154446E0,-1.175741863E1,-1.237748981E0
3.786911718E0,2.813066006E0,-1.115649986E1,-1.252113581E0
3.789243958E0,2.784336805E0,-1.058670521E1,-1.144379258E0
3.791576198E0,2.817854166E0,-9.940298080E0,-9.097574949E-1
3.793907604E0,2.975864649E0,-9.195733070E0,-1.197049379E0
3.796239062E0,2.860948086E0,-8.625938416E0,-4.907902479E-1
3.798571302E0,1.939219952E0,-8.542143822E0,1.197049379E0
3.800903541E0,1.278448701E0,-8.403286934E0,1.941614151E0
3.803235000E0,9.217280149E-1,-8.077689171E0,2.243270397E0
3.805566458E0,4.572728872E-1,-7.867008686E0,2.523380041E0
3.807898698E0,3.591148183E-2,-7.651539326E0,2.418039799E0
3.810230937E0,-1.484341323E-1,-7.342700958E0,2.015831232E0
3.812562343E0,-3.375679255E-1,-7.136808395E0,1.620804906E0
3.814893802E0,-4.716374576E-1,-6.849516392E0,1.295207381E0
3.817226041E0,-7.732938528E-1,-6.701082706E0,1.206625700E0
3.819558281E0,-1.072556257E0,-6.485613346E0,1.357453942E0
3.821889687E0,-1.268872380E0,-6.088192940E0,1.515464544E0
3.824221198E0,-1.374212623E0,-5.700348854E0,1.529829144E0
3.826553437E0,-1.338301301E0,-5.271805286E0,1.548981905E0
3.828885677E0,-1.340695262E0,-4.857626438E0,1.635169506E0
3.831217083E0,-1.319148421E0,-4.524846554E0,1.728539228E0
3.833548541E0,-1.467582464E0,-4.242342949E0,1.886549830E0
3.835880781E0,-1.606440306E0,-3.983780146E0,2.085259914E0
3.838213021E0,-1.766844869E0,-3.775493860E0,2.315093517E0
3.840544427E0,-1.903308511E0,-3.483413696E0,2.418039799E0
3.842875885E0,-2.025407553E0,-3.361314774E0,2.609567642E0
3.845208125E0,-2.135535955E0,-3.382861614E0,2.520986080E0
3.847540364E0,-2.063713074E0,-3.097963810E0,2.346216679E0
3.849871823E0,-2.116383314E0,-3.006988049E0,2.269605398E0
3.852203281E0,-2.099624395E0,-3.198515892E0,2.183418036E0
3.854535521E0,-2.219329596E0,-3.088387489E0,2.078077793E0
3.856867760E0,-2.176235676E0,-3.054869890E0,2.133141994E0
3.859199166E0,-2.221723795E0,-3.035717249E0,2.013437033E0
3.861530625E0,-2.027801514E0,-2.779548645E0,1.946402192E0
3.863862864E0,-1.797968149E0,-2.329457998E0,2.008648872E0
3.866195104E0,-1.477158904E0,-1.678263307E0,2.149900675E0
3.868526510E0,-1.106073618E0,-1.132408738E0,2.281575918E0
3.870857968E0,-7.661116123E-1,-7.278059721E-1,2.497045040E0
3.873190208E0,-4.429082870E-1,-4.764256477E-1,2.410857439E0
3.875522448E0,-1.412518322E-1,-1.699810177E-1,2.341428518E0
3.877853906E0,9.576395154E-2,2.394098556E-3,2.181024075E0
3.880185364E0,4.620610774E-1,3.184151351E-1,2.097230434E0
3.882517604E0,5.650073290E-1,5.195194483E-1,1.972737432E0
3.884849843E0,5.913423896E-1,4.979725182E-1,1.649533987E0
3.887181250E0,5.674013495E-1,4.141790867E-1,1.259295940E0
3.889512708E0,5.841601491E-1,2.968682647E-1,1.199443460E0
3.891844948E0,5.338839889E-1,1.220990419E-1,9.863687158E-1
3.894177187E0,6.703476310E-1,1.436459273E-1,7.158355117E-1
3.896508593E0,8.235700130E-1,2.178629786E-1,5.913423896E-1
3.898840104E0,9.121516347E-1,1.675869077E-1,5.099430084E-1
3.901172343E0,8.786342740E-1,-4.788197111E-3,4.333318770E-1
3.903504531E0,1.024674296E0,-2.394098788E-2,3.974204063E-1
3.905835989E0,1.058191657E0,-2.418039739E-1,2.705331445E-1
3.908167448E0,1.283236861E0,-6.224656478E-2,3.902381063E-1
3.910499687E0,1.333513021E0,-1.388577372E-1,3.136269450E-1
3.912831927E0,1.474764824E0,-1.604046077E-1,5.745837092E-2
3.915163333E0,1.690233707E0,-2.154688910E-2,-9.097574651E-2
3.917494791E0,1.776421309E0,2.154688910E-2,-2.513803840E-1
3.919827031E0,1.369424462E0,-5.889483094E-1,-3.351738155E-1
3.922159271E0,1.276054621E0,-8.211758733E-1,-4.405141473E-1
3.924490729E0,1.364636302E0,-6.918945909E-1,-5.171253681E-1
3.926822187E0,1.393365502E0,-6.631653905E-1,-7.086532712E-1
3.929154427E0,1.374212623E0,-6.033128500E-1,-1.098891377E0
3.931486614E0,1.232960820E0,-6.966827512E-1,-1.412518263E0
3.933818073E0,1.103679538E0,-6.631653905E-1,-1.690233707E0
3.936149531E0,1.022280216E0,-6.152833700E-1,-1.994284272E0
3.938481771E0,8.858165741E-1,-7.134414315E-1,-2.181024075E0
3.940814010E0,8.714519143E-1,-7.038650513E-1,-2.358187199E0
3.943145416E0,9.049693346E-1,-6.847122312E-1,-2.504227161E0
3.945476875E0,8.714519143E-1,-7.230178118E-1,-2.676602602E0
3.947809114E0,8.642696142E-1,-7.517470121E-1,-2.949529648E0
3.950141354E0,9.073634148E-1,-8.953929543E-1,-3.303856134E0
3.952472812E0,9.528512955E-1,-1.089314818E0,-3.737188339E0
3.954804271E0,1.031856537E0,-1.285630941E0,-4.371624470E0
3.957136510E0,9.863687158E-1,-1.647140026E0,-5.219135284E0
3.959468750E0,1.103679538E0,-2.025407553E0,-6.169592381E0
3.961800156E0,1.304783821E0,-2.351005077E0,-7.366641998E0
3.964131614E0,1.242537260E0,-2.837007046E0,-8.597208977E0
3.966463854E0,1.204231620E0,-3.409196615E0,-9.875657082E0
3.968796093E0,1.060585737E0,-4.137002945E0,-1.101524830E1
3.971127500E0,7.924466729E-1,-4.893537998E0,-1.188669968E1
3.973459010E0,2.848977447E-1,-5.659649372E0,-1.224581528E1
3.975791250E0,-4.500905573E-1,-6.610106468E0,-1.217399216E1
3.978123437E0,-1.185078859E0,-7.455223560E0,-1.161856079E1
3.980454896E0,-2.092442274E0,-8.360193253E0,-1.077583790E1
3.982786354E0,-2.793913364E0,-9.164609909E0,-9.949873924E0
3.985118593E0,-3.473837137E0,-9.875657082E0,-9.301074028E0
3.987450833E0,-4.115455627E0,-1.068007469E1,-8.767189980E0
3.989782239E0,-4.579911232E0,-1.136957455E1,-8.599602699E0
3.992113698E0,-4.754680157E0,-1.193937016E1,-8.771978378E0
3.994445937E0,-4.749892235E0,-1.234876060E1,-9.277132988E0
3.996778177E0,-4.443447590E0,-1.271266365E1,-9.868474960E0
3.999109635E0,-3.921533823E0,-1.306459713E1,-1.049094105E1
4.001441093E0,-3.131481171E0,-1.339019394E1,-1.089075470E1
4.003773333E0,-2.655055523E0,-1.380437279E1,-1.114213562E1
4.006105573E0,-2.063713074E0,-1.412518311E1,-1.135521030E1
4.008436979E0,-1.331118822E0,-1.422573471E1,-1.136239338E1
4.010768437E0,-6.368302703E-1,-1.426882935E1,-1.134323978E1
4.013100677E0,6.224656478E-2,-1.420897579E1,-1.127620506E1
4.015432916E0,7.589293122E-1,-1.406054211E1,-1.132887459E1
4.017764323E0,1.369424462E0,-1.378043175E1,-1.137675667E1
4.020095781E0,1.848244309E0,-1.343568230E1,-1.136478710E1
4.022428021E0,2.173841715E0,-1.298798561E1,-1.148209763E1
4.024760260E0,2.267211437E0,-1.259295940E1,-1.151800919E1
4.027091718E0,2.269605398E0,-1.209259319E1,-1.133605766E1
4.029423177E0,1.994284272E0,-1.152997971E1,-1.112537670E1
4.031755416E0,1.793179989E0,-1.088596725E1,-1.088357258E1
4.034087656E0,1.704598308E0,-1.018688965E1,-1.068007469E1
4.036419062E0,1.527434945E0,-9.459083557E0,-1.049812317E1
4.038750521E0,1.386183143E0,-8.874923706E0,-1.041193485E1
4.041082760E0,1.625592947E0,-8.197394371E0,-1.036405277E1
4.043415000E0,1.594469786E0,-7.584505081E0,-1.014618969E1
4.045746406E0,1.364636302E0,-7.117655277E0,-9.784682274E0
4.048077864E0,1.462794423E0,-6.641230106E0,-9.427961349E0
4.050410104E0,1.575317025E0,-6.332390785E0,-9.157427788E0
4.052742343E0,1.706992388E0,-6.124104500E0,-8.714518547E0
4.055073802E0,1.690233707E0,-6.009188175E0,-8.017836571E0
4.057405260E0,1.817121029E0,-6.021158695E0,-7.354671478E0
4.059737500E0,2.061319113E0,-6.246203423E0,-7.103291035E0
4.062069739E0,2.602385283E0,-6.792057991E0,-7.397765160E0
4.064401146E0,3.514537096E0,-7.445646763E0,-8.254852295E0
4.066732604E0,4.800168037E0,-8.269216537E0,-9.320225716E0
4.069064843E0,5.853571415E0,-9.202916145E0,-1.007676220E1
4.071397083E0,7.096108437E0,-1.025153065E1,-1.049333477E1
4.073728489E0,8.202182770E0,-1.153955555E1,-1.058191586E1
4.076060000E0,9.667370796E0,-1.303107929E1,-1.070401478E1
4.078392239E0,1.089793682E1,-1.475483131E1,-1.043108845E1
4.080724427E0,1.176699543E1,-1.673953819E1,-9.925932884E0
4.083055885E0,1.226257420E1,-1.882958603E1,-9.052086830E0
4.085387343E0,1.237030792E1,-2.087654114E1,-7.476770401E0
4.087719583E0,1.262647724E1,-2.265056801E1,-5.386722088E0
4.090051823E0,1.240382576E1,-2.412772751E1,-2.805883646E0
4.092383229E0,1.172869015E1,-2.536068726E1,-5.817660093E-1
4.094714687E0,1.123311138E1,-2.637578583E1,3.495384157E-1
4.097046927E0,1.008154964E1,-2.729512024E1,-5.745837092E-2
4.099379166E0,8.465533257E0,-2.797265053E1,-1.407730103E0
4.101710625E0,5.982852936E0,-2.821206093E1,-3.093175411E0
4.104042083E0,4.074756145E0,-2.742918968E1,-4.364441872E0
4.106374323E0,2.599991322E0,-2.583711433E1,-4.905508518E0
4.108706510E0,1.728539228E0,-2.372791290E1,-4.879172802E0
4.111037968E0,1.695021868E0,-2.136733246E1,-4.685251236E0
4.113369427E0,1.558558226E0,-1.912405968E1,-3.631847858E0
4.115701666E0,1.517858624E0,-1.690712547E1,-2.037378073E0
4.118033906E0,1.510676265E0,-1.473089027E1,2.394098788E-2
4.120365312E0,1.683051348E0,-1.253550053E1,2.298334837E0
4.122696771E0,1.826697350E0,-1.036405277E1,4.716374397E0
4.125029010E0,2.233694315E0,-8.274005890E0,6.866274834E0
4.127361250E0,2.987835169E0,-6.270144463E0,8.494261742E0
4.129692708E0,4.129820347E0,-4.517664433E0,9.329803467E0
4.132024166E0,5.645285130E0,-2.971076488E0,9.638642311E0
4.134356406E0,7.448040962E0,-1.774027109E0,9.310649872E0
4.136688646E0,8.973081589E0,-9.600335956E-1,8.345828056E0
4.139020052E0,1.039757061E1,-4.788197577E-1,6.787270069E0
4.141351510E0,1.143900394E1,-2.537744641E-1,4.757073879E0
4.143683750E0,1.183881760E1,-3.734793961E-1,2.267211437E0
4.146015989E0,1.147012711E1,-8.451168537E-1,-4.955784380E-1
4.148347396E0,1.043108845E1,-1.515464544E0,-3.215274572E0
4.150678854E0,8.944353104E0,-2.154688835E0,-5.286170006E0
4.153011093E0,7.079349995E0,-2.777154446E0,-6.629259586E0
4.155343333E0,4.972542763E0,-3.363708735E0,-7.218207359E0
4.157674791E0,2.892071247E0,-3.907169342E0,-6.966827393E0
4.160006250E0,9.145457745E-1,-4.481752872E0,-5.800901413E0
4.162338489E0,-8.139935732E-1,-5.034789562E0,-4.002933025E0
4.164670729E0,-2.212147236E0,-5.580644131E0,-1.659110427E0
4.167002135E0,-3.236821413E0,-6.112133980E0,1.072556257E0
4.169333593E0,-3.852104902E0,-6.576589584E0,3.837740183E0
4.171665833E0,-4.335712910E0,-7.050621033E0,6.567012787E0
4.173998073E0,-4.711586475E0,-7.641963005E0,8.364980698E0
4.176329479E0,-4.814532280E0,-8.269216537E0,1.000733280E1
4.178660937E0,-4.651733875E0,-8.920412064E0,1.037841797E1
4.180993177E0,-4.263889790E0,-9.588364601E0,9.564423561E0
4.183325416E0,-3.878439903E0,-1.033771801E1,8.831830025E0
4.185656875E0,-3.473837137E0,-1.109425354E1,8.175847054E0
4.187988333E0,-3.090781450E0,-1.182924175E1,7.546199322E0
4.190320573E0,-2.712513924E0,-1.267196465E1,6.684323311E0
4.192652812E0,-2.494651079E0,-1.362481594E1,5.745837212E0
4.194984218E0,-2.367763758E0,-1.465906715E1,4.833685398E0
4.197315677E0,-2.147506475E0,-1.562867737E1,3.686912060E0
4.199647916E0,-2.166659355E0,-1.672038651E1,2.487468481E0
4.201980156E0,-2.607173443E0,-1.780251884E1,1.333513021E0
4.204311562E0,-3.437925816E0,-1.886310387E1,2.585626841E-1
4.206643021E0,-4.529634953E0,-1.991411400E1,-5.554309487E-1
4.208975312E0,-5.551915169E0,-2.066346550E1,-9.911568761E-1
4.211307552E0,-6.480825424E0,-2.114946747E1,-1.000733256E0
4.213638958E0,-7.242148399E0,-2.136254311E1,-4.405141473E-1
4.215970416E0,-8.185423851E0,-2.133860207E1,1.723751128E-1
4.218302656E0,-8.951535225E0,-2.109679794E1,5.530368090E-1
4.220634896E0,-9.423172951E0,-2.054376221E1,7.613233924E-1
4.222966302E0,-9.669765472E0,-1.976568031E1,6.703476310E-1
4.225297760E0,-9.698493958E0,-1.884873962E1,3.040505350E-1
4.227630000E0,-9.272343636E0,-1.767802620E1,-1.795574129E-1
4.229962239E0,-8.628332138E0,-1.647618866E1,-7.565351725E-1
4.232293698E0,-7.764061928E0,-1.521449757E1,-1.441247463E0
4.234625156E0,-6.744175911E0,-1.389534855E1,-2.080471754E0
4.236957396E0,-5.774566174E0,-1.257141304E1,-2.494651079E0
4.239289635E0,-4.915084362E0,-1.135999870E1,-2.655055523E0
4.241621041E0,-4.108273506E0,-1.019886112E1,-2.571261883E0
4.243952500E0,-3.239215612E0,-9.102362633E0,-2.537744761E0
4.246284739E0,-2.451556921E0,-8.137541771E0,-2.360581160E0
4.248616979E0,-1.776421309E0,-7.270877838E0,-2.003860712E0
4.250948385E0,-1.228172660E0,-6.562224388E0,-1.455611944E0
4.253279843E0,-5.985246897E-1,-5.894270897E0,-1.072556257E0
4.255612083E0,2.394098788E-2,-5.252652645E0,-8.331463933E-1
4.257944323E0,6.344361901E-1,-4.680462837E0,-5.985246897E-1
4.260275781E0,1.249719501E0,-4.201643467E0,-3.806616962E-1
4.262607239E0,1.776421309E0,-3.816193581E0,-4.309377819E-2
4.264939479E0,2.456345320E0,-3.447502136E0,5.985246897E-1
4.267271718E0,2.999805689E0,-3.208092213E0,1.151561499E0
4.269603125E0,3.433137417E0,-2.971076488E0,1.606440306E0
4.271934583E0,3.701276779E0,-2.803489685E0,2.011043072E0
4.274266823E0,3.935898304E0,-2.678996563E0,2.260029316E0
4.276599062E0,4.101091385E0,-2.623932362E0,2.118777514E0
4.278930468E0,4.254313469E0,-2.695755243E0,1.812332749E0
4.281261927E0,4.235160351E0,-2.743637323E0,1.757268548E0
4.283594166E0,4.263889790E0,-2.796307325E0,1.481947184E0
4.285926406E0,4.199248791E0,-2.930376768E0,8.092053533E-1
4.288257864E0,3.986174583E0,-3.136269331E0,7.685056925E-1
4.290589323E0,3.555236816E0,-3.413984776E0,9.935510159E-1
4.292921562E0,3.054869890E0,-3.828164101E0,8.618755341E-1
4.295253802E0,2.657449484E0,-4.201643467E0,4.788197577E-2
4.297585208E0,2.418039799E0,-4.467388630E0,-6.631653905E-1
4.299916666E0,2.159476995E0,-4.730739117E0,-1.266478300E0
4.302248906E0,1.912884831E0,-5.063519001E0,-2.027801514E0
4.304581146E0,1.678263307E0,-5.324475288E0,-2.451556921E0
4.306912552E0,1.429276943E0,-5.602190971E0,-2.590414762E0
4.309244062E0,1.206625700E0,-5.903847694E0,-2.927982807E0
4.311576302E0,9.552453756E-1,-6.284509182E0,-3.423561335E0
4.313908489E0,8.163877130E-1,-6.598135948E0,-3.600724459E0
4.316239948E0,7.182296515E-1,-6.911763191E0,-3.873651743E0
4.318571406E0,5.362781286E-1,-7.225389957E0,-3.775493860E0
4.320903646E0,2.561685741E-1,-7.629992485E0,-3.770705462E0
4.323235885E0,-9.576394223E-3,-8.015442848E0,-3.425955296E0
4.325567291E0,-3.064446151E-1,-8.448774338E0,-3.246397972E0
4.327898750E0,-6.440125704E-1,-8.920412064E0,-3.069234610E0
4.330230989E0,-9.839745760E-1,-9.370502472E0,-2.892071247E0
4.332563229E0,-1.338301301E0,-9.811017036E0,-2.645478964E0
4.334894635E0,-1.757268548E0,-1.027547169E1,-2.566473722E0
4.337226146E0,-2.281575918E0,-1.065134525E1,-2.336640596E0
4.339558385E0,-2.722090244E0,-1.094581890E1,-1.872185230E0
4.341890573E0,-3.224850893E0,-1.117565346E1,-1.307177901E0
4.344222031E0,-3.639029980E0,-1.129057026E1,-5.769777894E-1
4.346553489E0,-4.019691944E0,-1.137436295E1,-8.139935881E-2
4.348885729E0,-4.292619228E0,-1.130493355E1,4.093908668E-1
4.351217968E0,-4.558363914E0,-1.132648087E1,9.073634148E-1
4.353549375E0,-4.582304955E0,-1.106791878E1,1.398153663E0
4.355880833E0,-4.517664433E0,-1.079020309E1,1.783603668E0
4.358213073E0,-4.407536030E0,-1.038799381E1,2.111594915E0
4.360545312E0,-4.079544067E0,-9.892416000E0,2.494651079E0
4.362876771E0,-3.569601297E0,-9.415989876E0,2.995017529E0
4.365208229E0,-3.047687769E0,-8.918018341E0,3.421166897E0
4.367540468E0,-2.489862680E0,-8.465533257E0,3.907169342E0
4.369872708E0,-1.860214710E0,-7.979530811E0,4.340500832E0
4.372204114E0,-1.070162177E0,-7.503105640E0,4.599063396E0
4.374535573E0,-2.753213346E-1,-7.081744194E0,4.757073879E0
4.376867812E0,3.639029860E-1,-6.763329029E0,4.802562237E0
4.379200052E0,9.600335956E-1,-6.519131184E0,4.702010155E0
4.381531458E0,1.465188384E0,-6.409002304E0,4.474570274E0
4.383862916E0,1.783603668E0,-6.432943344E0,4.127426147E0
4.386195156E0,2.011043072E0,-6.440125465E0,3.706064701E0
4.388527396E0,2.300729036E0,-6.535889626E0,3.090781450E0
4.390858854E0,2.619143963E0,-6.595742226E0,2.480286360E0
4.393190312E0,2.791519165E0,-6.782482147E0,1.920067191E0
4.395522552E0,2.978258848E0,-6.976403713E0,1.340695262E0
4.397854791E0,3.112328291E0,-7.184690475E0,8.187817335E-1
4.400186198E0,3.129086971E0,-7.421706200E0,2.561685741E-1
4.402517656E0,3.191333771E0,-7.689845085E0,-3.782675862E-1
4.404849896E0,3.224850893E0,-7.919678688E0,-1.192261100E0
4.407182135E0,3.208092213E0,-8.230911255E0,-2.118777514E0
4.409513541E0,3.011776209E0,-8.549326897E0,-3.162604570E0
4.411845000E0,2.779548645E0,-8.896471024E0,-4.309377670E0
4.414177239E0,2.475497961E0,-9.272343636E0,-5.575856209E0
4.416509479E0,2.070895433E0,-9.655400276E0,-6.866274834E0
4.418840937E0,1.560952425E0,-1.006479073E1,-8.082477570E0
4.421172396E0,9.265161753E-1,-1.045502853E1,-9.188550949E0
4.423504635E0,2.154688835E-1,-1.084287262E1,-9.985786438E0
4.425836875E0,-6.128892303E-1,-1.113255882E1,-1.043587589E1
4.428168281E0,-1.553770185E0,-1.134323978E1,-1.050769901E1
4.430499739E0,-2.523380041E0,-1.148209763E1,-1.034250736E1
4.432831979E0,-3.459472656E0,-1.158265018E1,-9.973814964E0
4.435164218E0,-4.345289230E0,-1.162334919E1,-9.377684593E0
4.437495625E0,-5.135342121E0,-1.157307339E1,-8.585238457E0
4.439827083E0,-5.817659855E0,-1.143421555E1,-7.495923042E0
4.442159323E0,-6.375484943E0,-1.121395874E1,-6.124104500E0
4.444491562E0,-6.720234871E0,-1.094821358E1,-4.441052914E0
4.446823021E0,-6.971615314E0,-1.063458729E1,-2.638296843E0
4.449154479E0,-7.191872597E0,-1.035208321E1,-8.906047344E-1
4.451486718E0,-7.148778915E0,-1.003845596E1,9.121516347E-1
4.453818958E0,-7.163143635E0,-9.839746475E0,2.456345320E0
4.456150364E0,-7.026679993E0,-9.674552917E0,3.813799143E0
4.458481823E0,-6.667564869E0,-9.461478233E0,5.214346886E0
4.460814062E0,-6.250991821E0,-9.313043594E0,6.267750263E0
4.463146302E0,-5.760201454E0,-9.217280388E0,6.940492630E0
4.465477708E0,-5.101824284E0,-9.171792030E0,7.352277279E0
4.467809218E0,-4.350077629E0,-9.210098267E0,7.227784157E0
4.470141458E0,-3.521719217E0,-9.296284676E0,6.674747467E0
4.472473646E0,-2.805883646E0,-9.499784470E0,5.580644131E0
4.474805104E0,-1.802756429E0,-9.710465431E0,4.170519829E0
4.477136562E0,-5.578250289E-1,-9.830168724E0,2.614355803E0
4.479468802E0,7.852643728E-1,-9.849322319E0,1.177896619E0
4.481801041E0,2.058924913E0,-9.873263359E0,-1.316754371E-1
4.484132448E0,2.997411728E0,-9.976208687E0,-1.393365502E0
4.486463906E0,3.636636019E0,-1.011027908E1,-2.573656321E0
4.488796146E0,3.854499102E0,-1.031138325E1,-3.509748697E0
4.491128385E0,3.804223061E0,-1.055079269E1,-4.129820347E0
4.493459791E0,3.406802416E0,-1.085005569E1,-4.402747631E0
4.495791302E0,2.741242886E0,-1.118283463E1,-4.218401909E0
4.498123541E0,1.769238949E0,-1.166165543E1,-3.610301018E0
4.500455781E0,6.535889506E-1,-1.223623943E1,-2.585626841E0
4.502787187E0,-4.692433476E-1,-1.276054573E1,-1.335907102E0
4.505118646E0,-1.611228466E0,-1.325133705E1,2.322275788E-1
4.507450885E0,-2.777154446E0,-1.370860863E1,1.886549830E0
4.509783125E0,-3.809010983E0,-1.412518311E1,3.425955296E0
4.512114531E0,-4.673281193E0,-1.441007996E1,4.728344917E0
4.514445989E0,-5.312504768E0,-1.455851364E1,5.650073051E0
4.516778229E0,-5.753019333E0,-1.465906715E1,6.121710300E0
4.519110468E0,-5.872724056E0,-1.473089027E1,6.181562901E0
4.521441875E0,-5.805689335E0,-1.476919460E1,5.863148212E0
4.523773385E0,-5.523186207E0,-1.483383560E1,5.125765324E0
4.526105625E0,-4.977331638E0,-1.485777664E1,4.060391426E0
4.528437812E0,-4.316559792E0,-1.490087128E1,2.784336805E0
4.530769271E0,-3.562418938E0,-1.498466396E1,1.295207381E0
4.533100729E0,-2.741242886E0,-1.504930496E1,-1.580105126E-1
4.535432968E0,-2.006254673E0,-1.513788605E1,-1.510676265E0
4.537765208E0,-1.369424462E0,-1.524562073E1,-2.609567642E0
4.540096614E0,-7.876585126E-1,-1.527674389E1,-3.454684496E0
4.542428073E0,-4.429082870E-1,-1.537011433E1,-4.055603027E0
4.544760312E0,-2.872918546E-1,-1.550178909E1,-4.426688671E0
4.547092552E0,-2.106806934E-1,-1.561431217E1,-4.493723392E0
4.549423958E0,-3.136269450E-1,-1.576992798E1,-4.357259274E0
4.551755468E0,-4.836079478E-1,-1.593033314E1,-4.122638226E0
4.554087708E0,-8.738460541E-1,-1.615059090E1,-3.780282021E0
4.556419948E0,-1.405336022E0,-1.640675926E1,-3.399620295E0
4.558751354E0,-1.989495993E0,-1.667729187E1,-3.040505409E0
4.561082812E0,-2.614355803E0,-1.694064140E1,-2.846583605E0
4.563415052E0,-3.176969051E0,-1.714414215E1,-2.690967083E0
4.565747291E0,-3.662971020E0,-1.729496956E1,-2.607173443E0
4.568078698E0,-4.093908787E0,-1.737158012E1,-2.631114483E0
4.570410156E0,-4.500905514E0,-1.746734428E1,-2.640691042E0
4.572742396E0,-4.766650677E0,-1.753916740E1,-2.604779482E0
4.575074635E0,-5.003666401E0,-1.756550217E1,-2.571261883E0
4.577406093E0,-5.231105804E0,-1.759902000E1,-2.540138721E0
4.579737552E0,-5.350810528E0,-1.761099052E1,-2.475497961E0
4.582069791E0,-5.410663128E0,-1.764211464E1,-2.451556921E0
4.584402031E0,-5.425027847E0,-1.768281364E1,-2.430010319E0
4.586733437E0,-5.367569447E0,-1.772830200E1,-2.446768999E0
4.589064896E0,-5.278987408E0,-1.772351456E1,-2.406069279E0
4.591397135E0,-5.080277443E0,-1.763493156E1,-2.444374800E0
4.593729375E0,-4.785803318E0,-1.749128532E1,-2.690967083E0
4.596060781E0,-4.508088112E0,-1.731651688E1,-2.975864649E0
4.598392239E0,-4.278254509E0,-1.710583687E1,-3.378073215E0
4.600724479E0,-4.026874065E0,-1.683769608E1,-3.844922543E0
4.603056718E0,-3.842528582E0,-1.653603935E1,-4.366836071E0
4.605388177E0,-3.763523340E0,-1.622001839E1,-4.948602200E0
4.607719635E0,-3.777887821E0,-1.589442158E1,-5.460938931E0
4.610051875E0,-3.895198822E0,-1.557840061E1,-5.901453495E0
4.612384114E0,-4.012509346E0,-1.529110909E1,-6.274932861E0
4.614715521E0,-4.146578789E0,-1.498466396E1,-6.569406986E0
4.617046979E0,-4.251919270E0,-1.466146088E1,-6.708264351E0
4.619379218E0,-4.421900272E0,-1.429755783E1,-6.586165428E0
4.621711458E0,-4.536817074E0,-1.392886734E1,-6.406608105E0
4.624042864E0,-4.606245995E0,-1.354581070E1,-6.471249104E0
4.626374323E0,-4.584699154E0,-1.317472458E1,-6.626865387E0
4.628706562E0,-4.436264992E0,-1.272463512E1,-6.617289066E0
4.631038802E0,-4.170519829E0,-1.222187424E1,-6.495190144E0
4.633370260E0,-3.830558062E0,-1.174544811E1,-6.483219624E0
4.635701718E0,-3.481019497E0,-1.133366299E1,-6.315632343E0
4.638033958E0,-3.133875132E0,-1.095779037E1,-5.932576656E0
4.640366198E0,-2.832218647E0,-1.057234001E1,-5.748230934E0
4.642697604E0,-2.619143963E0,-1.025153065E1,-5.903847694E0
4.645029062E0,-2.398886919E0,-9.954663277E0,-6.059463978E0
4.647361302E0,-2.154688835E0,-9.741587639E0,-5.946941376E0
4.649693541E0,-1.934431791E0,-9.576395035E0,-5.748230934E0
4.652024948E0,-1.781209469E0,-9.473448753E0,-5.518397331E0
4.654356406E0,-1.711780667E0,-9.497389793E0,-5.298140526E0
4.656688646E0,-1.718962908E0,-9.607518196E0,-4.984513283E0
4.659020885E0,-1.716568708E0,-9.887627602E0,-4.498511314E0
4.661352343E0,-1.582499266E0,-1.015097904E1,-3.622271538E0
4.663683802E0,-1.338301301E0,-1.040714741E1,-2.030195713E0
4.666016041E0,-9.600335956E-1,-1.056994629E1,2.489862591E-1
4.668348281E0,-5.697954893E-1,-1.070880413E1,2.815460205E0
4.670679687E0,-1.173108369E-1,-1.080456829E1,5.037183762E0
4.673011146E0,4.069967866E-1,-1.092427254E1,6.662776947E0
4.675343385E0,8.522991538E-1,-1.106073570E1,7.843067646E0
4.677675625E0,1.259295940E0,-1.123789978E1,8.549326897E0
4.680007031E0,1.666292787E0,-1.143421555E1,8.642696381E0
4.682338489E0,2.082865953E0,-1.171193123E1,8.094448090E0
4.684670729E0,2.432404280E0,-1.203513432E1,7.081744194E0
4.687002968E0,2.767578363E0,-1.240143204E1,5.741048813E0
4.689334427E0,3.121904850E0,-1.278927612E1,4.295012951E0
4.691665885E0,3.435531855E0,-1.316754341E1,2.786731005E0
4.693998125E0,3.730005741E0,-1.359848118E1,1.141985178E0
4.696330364E0,3.943080664E0,-1.403899479E1,-4.022085965E-1
4.698661771E0,4.041238785E0,-1.450105572E1,-1.874579430E0
4.700993229E0,4.067573547E0,-1.502775764E1,-3.234427452E0
4.703325468E0,4.060391426E0,-1.554488277E1,-4.414718151E0
4.705657708E0,4.077150345E0,-1.605003738E1,-5.384327888E0
4.707989114E0,4.098697186E0,-1.653364563E1,-6.004399300E0
4.710320625E0,3.971809864E0,-1.694543076E1,-6.174380302E0
4.712652864E0,3.763523340E0,-1.736439705E1,-6.095375538E0
4.714985052E0,3.471443176E0,-1.768760109E1,-5.621344090E0
4.717316510E0,3.157816172E0,-1.788870621E1,-4.737921715E0
4.719647968E0,2.848977566E0,-1.807065773E1,-3.504960537E0
4.721980208E0,2.583232403E0,-1.817360306E1,-2.319881678E0
4.724312448E0,2.243270397E0,-1.829091454E1,-1.247325540E0
4.726643854E0,1.800362229E0,-1.841301346E1,-2.729272544E-1
4.728975312E0,1.352665782E0,-1.852314186E1,6.679535508E-1
4.731307552E0,9.791863561E-1,-1.859975433E1,1.589681625E0
4.733639791E0,3.734793961E-1,-1.871467018E1,2.456345320E0
4.735971198E0,-4.883961678E-1,-1.897323227E1,2.947135448E0
4.738302656E0,-1.357453942E0,-1.925334167E1,2.564079762E0
4.740634896E0,-2.102018833E0,-1.941135216E1,1.869791150E0
4.742967135E0,-2.520986080E0,-1.925573540E1,1.118044138E0
4.745298593E0,-2.609567642E0,-1.903068924E1,3.662970960E-1
4.747630052E0,-2.580838442E0,-1.882958603E1,-3.806616962E-1
4.749962291E0,-2.207359076E0,-1.843216515E1,-6.871063113E-1
4.752294531E0,-1.809938669E0,-1.797968292E1,-6.583771110E-1
4.754625937E0,-1.295207381E0,-1.742664337E1,-5.650073290E-1
4.756957396E0,-6.559830904E-1,-1.685206223E1,-2.178629786E-1
4.759289635E0,-7.182296365E-2,-1.634690666E1,7.421706617E-2
