"Time (s)","Acceleration x (m/s^2)","Acceleration y (m/s^2)","Acceleration z (m/s^2)"
0.000000000E0,-2.122070312E0,4.024963379E0,8.725997925E0
5.004883000E-3,-2.227416992E0,4.053695679E0,8.697280884E0
1.007080100E-2,-2.337539673E0,4.001022339E0,8.611083984E0
1.510620100E-2,-2.423736572E0,3.991455078E0,8.553619385E0
2.017211900E-2,-2.442886353E0,3.967514038E0,8.558410645E0
2.526855500E-2,-2.414154053E0,3.919631958E0,8.596725464E0
3.036499000E-2,-2.390213013E0,3.881317139E0,8.630233765E0
3.546142600E-2,-2.347122192E0,3.809494019E0,8.759521484E0
4.052734400E-2,-2.318389893E0,3.766403198E0,8.759521484E0
4.559326200E-2,-2.323181152E0,3.718505859E0,8.816986084E0
5.065918000E-2,-2.256134033E0,3.675415039E0,8.821777344E0
5.572509800E-2,-2.236984253E0,3.627532959E0,8.797836304E0
6.082153300E-2,-2.232192993E0,3.574859619E0,8.802612305E0
6.591796900E-2,-2.251358032E0,3.584442139E0,8.816986084E0
7.101440400E-2,-2.280075073E0,3.613174438E0,8.740371704E0
7.608032200E-2,-2.284866333E0,3.661056519E0,8.639816284E0
8.117675800E-2,-2.304031372E0,3.656265259E0,8.539260864E0
8.624267600E-2,-2.342330933E0,3.646682739E0,8.448272705E0
9.133911100E-2,-2.351913452E0,3.589233398E0,8.333358765E0
9.640502900E-2,-2.366271973E0,3.536560059E0,8.309417725E0
1.015014650E-1,-2.371063232E0,3.512619019E0,8.299835205E0
1.065673830E-1,-2.342330933E0,3.483886719E0,8.333358765E0
1.116333010E-1,-2.308807373E0,3.455154419E0,8.405181885E0
1.166992190E-1,-2.246566772E0,3.440780640E0,8.467437744E0
1.217956540E-1,-2.213043213E0,3.383331299E0,8.477005005E0
1.268920900E-1,-2.193893433E0,3.340225220E0,8.572769165E0
1.319580080E-1,-2.165161133E0,3.225311279E0,8.721221924E0
1.370544430E-1,-2.117279053E0,3.172637939E0,8.850509644E0
1.421203610E-1,-2.040664673E0,3.158264160E0,8.955841064E0
1.472167970E-1,-2.016723633E0,3.076873779E0,8.965423584E0
1.522827150E-1,-1.949676514E0,3.067291260E0,9.032470703E0
1.573791500E-1,-1.858703613E0,3.048141479E0,9.061187744E0
1.624450680E-1,-1.753356934E0,3.043350220E0,9.065979004E0
1.675109860E-1,-1.705474854E0,2.990676880E0,9.080352783E0
1.726074220E-1,-1.638442993E0,2.985885620E0,9.156967163E0
1.776733400E-1,-1.576187134E0,2.971527100E0,9.147384644E0
1.827697750E-1,-1.456481934E0,2.985885620E0,9.037246704E0
1.878356930E-1,-1.394226074E0,2.957153320E0,8.979797363E0
1.929321290E-1,-1.403808594E0,2.985885620E0,8.970214844E0
1.979980470E-1,-1.427749634E0,3.067291260E0,9.061187744E0
2.030944820E-1,-1.413375854E0,3.119964600E0,9.180908203E0
2.081604000E-1,-1.413375854E0,3.124755859E0,9.204849243E0
2.132263180E-1,-1.365493774E0,3.086441040E0,9.195266724E0
2.183227540E-1,-1.351135254E0,3.028976440E0,9.233581543E0
2.233886720E-1,-1.317611694E0,2.985885620E0,9.291030884E0
2.284851070E-1,-1.260147095E0,2.957153320E0,9.338928223E0
2.335510250E-1,-1.255371094E0,2.966735840E0,9.401168823E0
2.386474610E-1,-1.288879395E0,2.942794800E0,9.472991943E0
2.437133790E-1,-1.202697754E0,2.938003540E0,9.563980103E0
2.488098140E-1,-1.126083374E0,2.904479980E0,9.578338623E0
2.538757320E-1,-1.059036255E0,2.938003540E0,9.597488403E0
2.589416500E-1,-9.297485352E-1,2.875747681E0,9.640594482E0
2.640380860E-1,-8.387756348E-1,2.770416260E0,9.640594482E0
2.691040040E-1,-6.999053955E-1,2.756042480E0,9.607070923E0
2.742004390E-1,-5.179443359E-1,2.679428101E0,9.650161743E0
2.792663570E-1,-6.424407959E-1,2.631546021E0,9.343704224E0
2.843627930E-1,-7.046966553E-1,2.588455200E0,9.152175903E0
2.894287110E-1,-7.477874756E-1,2.593231201E0,9.142593384E0
2.945251460E-1,-7.046966553E-1,2.583663940E0,9.166534424E0
2.995910640E-1,-7.238464355E-1,2.564514160E0,8.912750244E0
3.046875000E-1,-7.717285156E-1,2.516616821E0,8.711639404E0
3.097534180E-1,-8.291931152E-1,2.502258301E0,8.606292725E0
3.148193360E-1,-9.105987549E-1,2.497467041E0,8.453063965E0
3.199157710E-1,-1.015945435E0,2.521408081E0,8.338150024E0
3.249816890E-1,-1.097351074E0,2.554931641E0,8.228012085E0
3.300781250E-1,-1.111709595E0,2.550140381E0,8.275894165E0
3.351440430E-1,-1.293670654E0,2.540573120E0,8.194488525E0
3.402404780E-1,-1.523513794E0,2.598022461E0,8.007751465E0
3.453063960E-1,-1.724624634E0,2.631546021E0,7.983795166E0
3.504028320E-1,-1.738998413E0,2.578872681E0,8.132247925E0
3.554687500E-1,-1.719833374E0,2.468734741E0,8.256744385E0
3.605346680E-1,-1.705474854E0,2.392120361E0,8.314208984E0
3.656311030E-1,-1.652801514E0,2.334671021E0,8.333358765E0
3.706970210E-1,-1.604919434E0,2.262832642E0,8.371658325E0
3.757934570E-1,-1.566604614E0,2.186218262E0,8.386032104E0
3.808593750E-1,-1.437316895E0,2.119186401E0,8.457855225E0
3.859558110E-1,-1.226638794E0,1.975540161E0,8.448272705E0
3.910217280E-1,-1.197906494E0,1.884552002E0,8.074783325E0
3.961181640E-1,-1.135650635E0,1.807937622E0,7.864089966E0
4.011840820E-1,-1.097351074E0,1.726531982E0,7.734802246E0
4.062500000E-1,-9.728546143E-1,1.587677002E0,7.567214966E0
4.113464360E-1,-8.483428955E-1,1.520629883E0,7.322998047E0
4.164123530E-1,-7.382202148E-1,1.549362183E0,7.011749268E0
4.215087890E-1,-7.334289551E-1,1.606826782E0,6.623901367E0
4.265747070E-1,-8.100433350E-1,1.697799683E0,6.212097168E0
4.316711430E-1,-7.094879150E-1,1.683441162E0,5.958312988E0
4.367370610E-1,-8.435668945E-1,1.673858643E0,5.359756470E0
4.418334960E-1,-1.150024414E0,1.678649902E0,4.746841431E0
4.468994140E-1,-1.509155273E0,1.693023682E0,4.402084351E0
4.519653320E-1,-1.753356934E0,1.798370361E0,4.224899292E0
4.570617680E-1,-1.954467773E0,1.898925781E0,4.066894531E0
4.621276860E-1,-2.045455933E0,1.889343262E0,3.860992432E0
4.672241210E-1,-2.174743652E0,1.846252441E0,3.573684692E0
4.722900390E-1,-2.270507812E0,1.702590942E0,3.434814453E0
4.773864750E-1,-2.251358032E0,1.477539062E0,3.516220093E0
4.824523930E-1,-2.083755493E0,1.195022583E0,3.789154053E0
4.875488280E-1,-1.686325073E0,8.837738037E-1,4.358978271E0
4.926147460E-1,-1.121292114E0,5.964813232E-1,5.077239990E0
4.976806640E-1,-8.291931152E-1,2.756500244E-1,5.632690430E0
5.027771000E-1,-7.573699951E-1,-2.601623535E-2,6.192947388E0
5.078430180E-1,-7.813110352E-1,-4.617614746E-1,6.767547607E0
5.129394530E-1,-7.765197754E-1,-7.394866943E-1,7.193710327E0
5.180053710E-1,-7.382202148E-1,-9.166564941E-1,7.442718506E0
5.231018070E-1,-6.711730957E-1,-1.127349854E0,7.586364746E0
5.281677250E-1,-6.711730957E-1,-1.314102173E0,7.619888306E0
5.332641600E-1,-7.382202148E-1,-1.429016113E0,7.600723267E0
5.383300780E-1,-8.531341553E-1,-1.476898193E0,7.500167847E0
5.434265140E-1,-1.121292114E0,-1.256637573E0,7.255966187E0
5.484924320E-1,-1.389434814E0,-9.262390137E-1,6.939926147E0
5.535583500E-1,-1.624069214E0,-7.490692139E-1,6.614318848E0
5.586547850E-1,-1.892227173E0,-7.059783936E-1,6.331802368E0
5.637207030E-1,-2.069396973E0,-7.107543945E-1,5.982254028E0
5.688171390E-1,-2.165161133E0,-6.820373535E-1,5.766769409E0
5.738830570E-1,-2.275299072E0,-6.772460938E-1,5.694946289E0
5.789794920E-1,-2.351913452E0,-7.586517334E-1,5.661422729E0
5.840454100E-1,-2.418945312E0,-8.687744141E-1,5.766769409E0
5.891418460E-1,-2.347122192E0,-1.141723633E0,5.982254028E0
5.942077640E-1,-2.275299072E0,-1.352401733E0,6.226455688E0
5.992736820E-1,-2.112487793E0,-1.572677612E0,6.465881348E0
6.043701170E-1,-1.935317993E0,-1.749847412E0,6.714874268E0
6.094360350E-1,-1.877853394E0,-1.912643433E0,6.925567627E0
6.145019530E-1,-1.944900513E0,-2.089813232E0,7.088378906E0
6.195983890E-1,-2.184310913E0,-2.209533691E0,7.246383667E0
6.246948240E-1,-2.428527832E0,-2.300506592E0,7.457077026E0
6.297607420E-1,-2.734985352E0,-2.219100952E0,7.720443726E0
6.348571780E-1,-3.141998291E0,-2.061096191E0,8.046051025E0
6.399230960E-1,-3.568161011E0,-1.831253052E0,8.429122925E0
6.449890140E-1,-3.855468750E0,-1.587036133E0,8.591934204E0
6.500854490E-1,-4.171508789E0,-1.443389893E0,8.539260864E0
6.551513670E-1,-4.353454590E0,-1.338043213E0,8.491378784E0
6.602478030E-1,-4.564147949E0,-1.290161133E0,8.453063965E0
6.653137210E-1,-4.817932129E0,-1.237487793E0,8.548828125E0
6.704101560E-1,-4.966369629E0,-1.275787354E0,8.769104004E0
6.754760740E-1,-5.071716309E0,-1.352401733E0,9.123443604E0
6.805725100E-1,-5.133972168E0,-1.515213013E0,9.650161743E0
6.856384280E-1,-5.220169067E0,-1.879135132E0,1.026786804E1
6.907043460E-1,-5.215377808E0,-2.180801392E0,1.094303894E1
6.958007810E-1,-5.268051147E0,-2.468109131E0,1.165171814E1
7.008666990E-1,-5.287200928E0,-2.755401611E0,1.241307068E1
7.059631350E-1,-5.301559448E0,-3.009201050E0,1.314091492E1
7.110290530E-1,-5.354232788E0,-3.124114990E0,1.381129456E1
7.161254880E-1,-5.368606567E0,-3.124114990E0,1.434759521E1
7.211914060E-1,-5.488311768E0,-3.143264771E0,1.486952209E1
7.262878420E-1,-5.675064087E0,-3.176788330E0,1.523344421E1
7.313537600E-1,-5.842651367E0,-3.162429810E0,1.540104675E1
7.364196780E-1,-6.058135986E0,-3.119323730E0,1.545849609E1
7.415161130E-1,-6.273605347E0,-2.999618530E0,1.541061401E1
7.465820310E-1,-6.422058105E0,-2.937362671E0,1.530526733E1
7.516784670E-1,-6.661468506E0,-2.913421631E0,1.508500671E1
7.567443850E-1,-6.963134766E0,-3.013977051E0,1.487910461E1
7.618408200E-1,-7.269592285E0,-3.037918091E0,1.485037231E1
7.669067380E-1,-7.504226685E0,-3.081024170E0,1.480249023E1
7.720031740E-1,-7.700561523E0,-3.133697510E0,1.486473083E1
7.770690920E-1,-7.901672363E0,-3.157638550E0,1.489825439E1
7.821655270E-1,-7.978286743E0,-3.148056030E0,1.477375793E1
7.872314450E-1,-7.939971924E0,-3.133697510E0,1.470672607E1
7.922973630E-1,-7.839416504E0,-3.124114990E0,1.451997375E1
7.973937990E-1,-7.599990845E0,-3.181579590E0,1.417042542E1
8.024597170E-1,-7.274383545E0,-3.363540649E0,1.381129456E1
8.075561520E-1,-6.939193726E0,-3.607742310E0,1.344258118E1
8.126220700E-1,-6.594436646E0,-3.837585449E0,1.314091492E1
8.177185060E-1,-6.340652466E0,-4.124893188E0,1.298768616E1
8.227844240E-1,-6.024612427E0,-4.488815308E0,1.284881592E1
8.278808590E-1,-5.540985107E0,-4.804840088E0,1.288713074E1
8.329467770E-1,-4.990325928E0,-5.149612427E0,1.335160828E1
8.380126950E-1,-4.521057129E0,-5.537475586E0,1.397888184E1
8.431091310E-1,-4.080520630E0,-5.930114746E0,1.470672607E1
8.481750490E-1,-3.630416870E0,-6.222213745E0,1.528611755E1
8.532714840E-1,-3.261703491E0,-6.394592285E0,1.562609863E1
8.583374020E-1,-2.950454712E0,-6.480789185E0,1.563566589E1
8.634338380E-1,-2.744552612E0,-6.499938965E0,1.544413757E1
8.684997560E-1,-2.615264893E0,-6.471206665E0,1.513768005E1
8.735961910E-1,-2.471618652E0,-6.317977905E0,1.451518250E1
8.786621090E-1,-2.361480713E0,-6.236572266E0,1.368200684E1
8.837280270E-1,-2.260925293E0,-6.284454346E0,1.279614258E1
8.888244630E-1,-2.265716553E0,-6.298828125E0,1.201084900E1
8.938903810E-1,-2.337539673E0,-6.227005005E0,1.146496582E1
8.989868160E-1,-2.533874512E0,-6.078567505E0,1.115373230E1
9.040527340E-1,-2.787658691E0,-5.954055786E0,1.100050354E1
9.091491700E-1,-2.988769531E0,-5.910964966E0,1.087121582E1
9.142150880E-1,-3.204238892E0,-5.819992065E0,1.075149536E1
9.193115230E-1,-3.362258911E0,-5.690704346E0,1.058390808E1
9.243774410E-1,-3.462814331E0,-5.489593506E0,1.038758850E1
9.294433590E-1,-3.577743530E0,-5.245376587E0,1.008590698E1
9.345397950E-1,-3.620834351E0,-5.001174927E0,9.693267822E0
9.396057130E-1,-3.678298950E0,-4.766540527E0,9.252731323E0
9.447021480E-1,-3.764480591E0,-4.618103027E0,8.749954224E0
9.497680660E-1,-3.759704590E0,-4.646835327E0,8.314208984E0
9.548645020E-1,-3.601684570E0,-4.766540527E0,7.830566406E0
9.599304200E-1,-3.285644531E0,-4.871887207E0,7.394836426E0
9.650268550E-1,-3.012710571E0,-4.962860107E0,7.050064087E0
9.700927730E-1,-2.792434692E0,-5.120880127E0,6.810638428E0
9.751892090E-1,-2.610488892E0,-5.278900146E0,6.561645508E0
9.802551270E-1,-2.390213013E0,-5.499160767E0,6.389266968E0
9.853210450E-1,-2.126846313E0,-5.719436646E0,6.226455688E0
9.904174800E-1,-1.897003174E0,-5.863082886E0,6.140274048E0
9.954833980E-1,-1.801239014E0,-5.949279785E0,6.245605469E0
1.000579834E0,-1.715057373E0,-5.997161865E0,6.523345947E0
1.005645752E0,-1.686325073E0,-6.021102905E0,6.944717407E0
1.010742187E0,-1.791671753E0,-5.982788086E0,7.476226807E0
1.015808105E0,-2.059814453E0,-5.963638306E0,8.093933105E0
1.020904541E0,-2.318389893E0,-5.834350586E0,8.725997925E0
1.025970459E0,-2.442886353E0,-5.743377686E0,9.214416504E0
1.031036377E0,-2.385421753E0,-5.719436646E0,9.511306763E0
1.036132812E0,-2.260925293E0,-5.757736206E0,9.496932983E0
1.041198730E0,-2.098129272E0,-5.887023926E0,9.338928223E0
1.046295166E0,-1.906585693E0,-6.006729126E0,9.003738403E0
1.051361084E0,-1.829971313E0,-6.159957886E0,8.730789185E0
1.056457519E0,-1.729415894E0,-6.250946045E0,8.496154785E0
1.061523437E0,-1.671951294E0,-6.356292725E0,8.232803345E0
1.066619873E0,-1.676742554E0,-6.452056885E0,8.031692505E0
1.071685791E0,-1.715057373E0,-6.428115845E0,7.935913086E0
1.076751709E0,-1.810821533E0,-6.375442505E0,7.864089966E0
1.081848144E0,-1.849121094E0,-6.332351685E0,7.883239746E0
1.086914062E0,-1.858703613E0,-6.389801025E0,8.093933105E0
1.092010498E0,-1.767715454E0,-6.519088745E0,8.352508545E0
1.097076416E0,-1.528305054E0,-6.662750244E0,8.510528564E0
1.102172852E0,-1.217056274E0,-6.782455444E0,8.515319824E0
1.107238769E0,-9.967956543E-1,-6.892593384E0,8.639816284E0
1.112335205E0,-8.387756348E-1,-6.873428345E0,8.749954224E0
1.117401123E0,-8.004608154E-1,-6.504730225E0,8.836135864E0
1.122497559E0,-8.579254150E-1,-6.351501465E0,8.912750244E0
1.127563477E0,-8.291931152E-1,-6.452056885E0,8.759521484E0
1.132659912E0,-7.621612549E-1,-6.504730225E0,8.438705444E0
1.137725830E0,-7.238464355E-1,-6.246154785E0,8.534469604E0
1.142791748E0,-8.387756348E-1,-5.968429565E0,8.524887085E0
1.147888184E0,-8.675079346E-1,-5.963638306E0,8.170547485E0
1.152954102E0,-6.663970947E-1,-6.131225586E0,7.993377686E0
1.158050537E0,-2.641601562E-1,-6.236572266E0,8.338150024E0
1.163116455E0,2.721405029E-1,-6.552612305E0,8.687698364E0
1.168182373E0,8.850555420E-1,-7.117645264E0,8.658966064E0
1.173278809E0,1.550643921E0,-7.467193604E0,8.706848145E0
1.178344727E0,2.187500000E0,-7.582122803E0,8.816986084E0
1.183441162E0,2.642395020E0,-7.524658203E0,8.697280884E0
1.188507080E0,2.972793579E0,-7.630004883E0,8.146606445E0
1.193603516E0,3.240951538E0,-7.376220703E0,7.720443726E0
1.198638916E0,3.442062378E0,-7.108062744E0,7.576782227E0
1.203704834E0,3.523468018E0,-6.954833984E0,7.011749268E0
1.208770752E0,3.437271118E0,-6.978775024E0,6.192947388E0
1.213867187E0,3.006317139E0,-6.854278564E0,5.637481689E0
1.218963623E0,2.493957520E0,-6.523880005E0,5.115554810E0
1.224060059E0,2.288055420E0,-6.399383545E0,5.115554810E0
1.229156494E0,2.221023560E0,-6.830337524E0,5.177795410E0
1.234222412E0,2.268905640E0,-6.849487305E0,5.297515869E0
1.239318848E0,2.455642700E0,-6.643585205E0,6.226455688E0
1.244384766E0,2.537048340E0,-6.528671265E0,6.901626587E0
1.249481201E0,2.498748779E0,-6.356292725E0,7.088378906E0
1.254547119E0,2.345520020E0,-6.260513306E0,7.121887207E0
1.259613037E0,2.278472900E0,-6.284454346E0,7.107528687E0
1.264709473E0,2.407760620E0,-6.298828125E0,6.810638428E0
1.269775391E0,2.532257080E0,-6.198272705E0,6.403625488E0
1.274841309E0,2.379028320E0,-6.073776245E0,6.034927368E0
1.279937744E0,2.067794800E0,-5.891815186E0,5.675796509E0
1.285034180E0,1.746963501E0,-5.585357666E0,5.412429810E0
1.290100098E0,1.335159302E0,-5.389038086E0,5.086822510E0
1.295196533E0,1.114898682E0,-5.120880127E0,5.053298950E0
1.300262451E0,8.754730225E-1,-4.752166748E0,5.340606689E0
1.305358887E0,4.732513428E-1,-4.847946167E0,5.240051270E0
1.310424805E0,1.141204834E-1,-4.503173828E0,5.053298950E0
1.315521240E0,2.792358398E-2,-4.206298828E0,4.933593750E0
1.320587158E0,3.750610352E-2,-4.598937988E0,4.426025391E0
1.325653076E0,-2.474975586E-2,-4.723449707E0,3.865768433E0
1.330749512E0,-3.072662354E-1,-4.613311768E0,3.664657593E0
1.335815430E0,-3.359832764E-1,-4.541488647E0,3.530593872E0
1.340911865E0,-1.636047363E-1,-3.756179810E0,4.368560791E0
1.345977783E0,-4.221801758E-1,-3.598175049E0,4.789932251E0
1.351074219E0,-6.328735352E-1,-4.263748169E0,4.464324951E0
1.356140137E0,-5.658264160E-1,-4.383468628E0,4.612762451E0
1.361236572E0,-4.461212158E-1,-4.507965088E0,4.761199951E0
1.366302490E0,-4.461212158E-1,-5.226226807E0,4.133926392E0
1.371368408E0,-4.413299561E-1,-5.307632446E0,4.028579712E0
1.376464844E0,-4.557037354E-1,-5.197494507E0,4.291946411E0
1.381530762E0,-6.472320557E-1,-5.968429565E0,3.918441772E0
1.386627197E0,-6.472320557E-1,-6.016311646E0,4.488265991E0
1.391693115E0,-8.387756348E-1,-5.513534546E0,5.503402710E0
1.396789551E0,-8.675079346E-1,-5.920547485E0,5.690155029E0
1.401855469E0,-4.557037354E-1,-6.432907104E0,5.570449829E0
1.406951904E0,4.493103027E-1,-6.241363525E0,5.829025269E0
1.412017822E0,1.397415161E0,-6.657958984E0,6.168991089E0
1.417083740E0,1.991180420E0,-7.658737183E0,5.723678589E0
1.422180176E0,2.264114380E0,-8.271652222E0,5.053298950E0
1.427246094E0,2.719009399E0,-8.161514282E0,5.431579590E0
1.432342529E0,2.757324219E0,-8.937240601E0,5.105972290E0
1.437408447E0,2.910552979E0,-8.841476440E0,5.321456909E0
1.442504883E0,3.030258179E0,-8.525436401E0,5.402847290E0
1.447570801E0,3.035049438E0,-9.042587280E0,5.029357910E0
1.452667236E0,3.054199219E0,-9.214965820E0,4.761199951E0
1.457733154E0,3.432479858E0,-8.726547241E0,5.249618530E0
1.462829590E0,3.556976318E0,-8.731338501E0,5.690155029E0
1.467895508E0,3.758087158E0,-9.425659180E0,5.747619629E0
1.472961426E0,4.562545776E0,-9.119201660E0,6.446731567E0
1.478057861E0,4.873794556E0,-9.612396240E0,6.523345947E0
1.483123779E0,5.079696655E0,-9.535781860E0,6.959091187E0
1.488220215E0,5.199401855E0,-9.262847900E0,7.222442627E0
1.493286133E0,5.012649536E0,-9.612396240E0,6.762756348E0
1.498382568E0,4.869003296E0,-8.932449341E0,6.561645508E0
1.503448486E0,4.256088257E0,-8.726547241E0,5.881698608E0
1.508544922E0,3.777252197E0,-8.530227661E0,4.957534790E0
1.513610840E0,3.446853638E0,-7.749710083E0,4.564880371E0
1.518676758E0,3.217010498E0,-7.088912964E0,4.531356812E0
1.523773193E0,3.135604858E0,-7.261291504E0,4.162658691E0
1.528839111E0,3.173904419E0,-7.222991943E0,4.033370972E0
1.533905029E0,3.432479858E0,-7.045822144E0,4.109985352E0
1.539001465E0,3.279251099E0,-7.012298584E0,3.808319092E0
1.544097900E0,3.135604858E0,-7.045822144E0,3.832260132E0
1.549163818E0,3.236160278E0,-6.763305664E0,4.167449951E0
1.554260254E0,3.331924438E0,-7.170318604E0,3.837051392E0
1.559326172E0,3.394180298E0,-7.165527344E0,3.894500732E0
1.564392090E0,3.528244019E0,-7.084121704E0,4.153076172E0
1.569488525E0,3.638381958E0,-7.577331543E0,4.047729492E0
1.574554443E0,3.940048218E0,-7.443252563E0,4.421234131E0
1.579650879E0,4.222564697E0,-7.539016724E0,4.703750610E0
1.584716797E0,4.514663696E0,-8.242919922E0,4.363769531E0
1.589813232E0,4.730133057E0,-8.764862061E0,3.966339111E0
1.594879150E0,3.925689697E0,-1.026841736E1,3.937606812E0
1.599975586E0,4.586486816E0,-9.856613159E0,3.717330933E0
1.605041504E0,5.534591675E0,-7.572540283E0,3.482696533E0
1.610107422E0,5.094055176E0,-6.763305664E0,4.411651611E0
1.615203857E0,3.815551758E0,-8.123214722E0,5.187377930E0
1.620269775E0,3.130813599E0,-9.650711060E0,4.737258911E0
1.625366211E0,2.733383179E0,-1.089089966E1,3.980697632E0
1.630432129E0,4.064559937E0,-9.191024780E0,3.425247192E0
1.635528564E0,4.548187256E0,-7.596481323E0,3.506652832E0
1.640594482E0,3.758087158E0,-7.610855103E0,4.162658691E0
1.645690918E0,3.121231079E0,-8.080108643E0,4.421234131E0
1.650756836E0,3.135604858E0,-8.156723022E0,4.354187012E0
1.655853271E0,3.475585938E0,-7.965194702E0,4.277572632E0
1.660919189E0,3.700637817E0,-7.850265503E0,4.109985352E0
1.665985107E0,3.949630737E0,-7.869430542E0,4.057312012E0
1.671081543E0,4.131591797E0,-7.941253662E0,3.966339111E0
1.676147461E0,4.208206177E0,-7.926879883E0,3.755645752E0
1.681243896E0,4.136383057E0,-7.764083862E0,3.554534912E0
1.686309814E0,4.294403076E0,-7.625213623E0,3.813110352E0
1.691406250E0,4.557754517E0,-7.529449463E0,4.200958252E0
1.696472168E0,4.864212036E0,-7.534240723E0,4.627136230E0
1.701568603E0,5.132369995E0,-7.687469482E0,5.216110229E0
1.706634521E0,5.496292114E0,-8.104049683E0,5.417221069E0
1.711700439E0,6.137924194E0,-8.740905762E0,5.402847290E0
1.716796875E0,6.564102173E0,-9.028213501E0,4.986267090E0
1.721862793E0,6.736480713E0,-8.678665161E0,4.847396851E0
1.726959228E0,6.592834473E0,-8.118423462E0,4.584030151E0
1.732025146E0,5.510650635E0,-7.457626343E0,4.086044312E0
1.737121582E0,4.428466797E0,-6.246154785E0,3.813110352E0
1.742187500E0,3.312774658E0,-5.733795166E0,3.324691772E0
1.747283936E0,1.766113281E0,-5.863082886E0,2.759658813E0
1.752349853E0,9.281463623E-1,-6.059402466E0,2.659103394E0
1.757415771E0,2.625579834E-1,-6.408966064E0,2.711776733E0
1.762512207E0,-1.102142334E0,-7.323547363E0,1.835494995E0
1.767578125E0,1.986389160E0,-6.590927124E0,3.377365112E0
1.772674561E0,2.359878540E0,-6.385025024E0,3.645507812E0
1.777740478E0,2.110885620E0,-6.796813965E0,3.477920532E0
1.782836914E0,2.762100220E0,-6.983566284E0,3.837051392E0
1.787902832E0,2.862655640E0,-7.328338623E0,3.832260132E0
1.792999268E0,2.996734619E0,-8.003494263E0,3.755645752E0
1.798065186E0,3.044616699E0,-8.329116821E0,3.760437012E0
1.803131103E0,3.231369019E0,-8.309951782E0,3.588043213E0
1.808227539E0,3.466003418E0,-8.755279541E0,3.367782593E0
1.813293457E0,3.590499878E0,-9.195816040E0,3.094848633E0
1.818389893E0,3.580917358E0,-8.750488281E0,2.975128174E0
1.823455811E0,3.499526978E0,-8.295593262E0,3.578475952E0
1.828552246E0,3.092514038E0,-7.682678223E0,3.736495972E0
1.833618164E0,2.508316040E0,-6.978775024E0,2.821899414E0
1.838714600E0,2.618453979E0,-7.103271484E0,1.691833496E0
1.843780518E0,6.415664673E0,-9.827880859E0,-5.730743408E-1
1.848876953E0,9.101959229E0,-1.225559998E1,-2.407028198E0
1.853942871E0,9.216873169E0,-1.597140503E1,-6.922500610E0
1.859008789E0,6.516220093E0,-1.642630005E1,-2.493225098E0
1.864105225E0,2.637603760E0,-1.180070496E1,1.567337036E0
1.869171143E0,1.670349121E0,-7.735351562E0,3.276809692E0
1.874267578E0,1.588943481E0,-5.719436646E0,3.750854492E0
1.879333496E0,1.474029541E0,-5.681121826E0,3.817886353E0
1.884429932E0,1.837951660E0,-6.404174805E0,3.942382812E0
1.889495850E0,2.604095459E0,-6.950042725E0,3.319900513E0
1.894592285E0,3.772460938E0,-7.237350464E0,2.180252075E0
1.899658203E0,6.770004272E0,-8.041809082E0,2.663879395E0
1.904724121E0,1.014103699E1,-1.086218262E1,4.449966431E0
1.909820557E0,8.230468750E0,-1.401773071E1,1.308135986E-1
1.914886475E0,6.650283813E0,-1.530102539E1,3.223571777E-1
1.919982910E0,5.070114136E0,-1.430024719E1,1.337493896E0
1.925048828E0,3.949630737E0,-1.130270386E1,2.792663574E-1
1.930145264E0,3.585708618E0,-8.678665161E0,-4.581451416E-1
1.935211182E0,3.303192139E0,-7.663528442E0,-3.671722412E-1
1.940307617E0,3.686264038E0,-7.481567383E0,1.110839844E-2
1.945373535E0,4.021453857E0,-7.486358643E0,6.958465576E-1
1.950439453E0,4.198623657E0,-7.826324463E0,1.332717896E0
1.955535889E0,4.275238037E0,-8.343475342E0,1.869018555E0
1.960601807E0,4.165115356E0,-8.898925781E0,2.079696655E0
1.965698242E0,4.529022217E0,-8.951599121E0,2.027023315E0
1.970764160E0,4.356643677E0,-8.558959961E0,2.462768555E0
1.975860596E0,3.758087158E0,-8.587677002E0,2.582489014E0
1.980926514E0,4.011886597E0,-8.817520142E0,2.252090454E0
1.986022949E0,4.327911377E0,-8.424880981E0,2.204193115E0
1.991088867E0,4.174682617E0,-8.151931763E0,2.165893555E0
1.996154785E0,4.198623657E0,-8.271652222E0,2.027023315E0
2.001251221E0,4.150741577E0,-8.309951782E0,1.979141235E0
2.006317139E0,4.179473877E0,-8.218978882E0,2.031814575E0
2.011413574E0,4.241729736E0,-8.137573242E0,2.012664795E0
2.016479492E0,4.323120117E0,-8.013076782E0,2.065338135E0
2.021575928E0,4.461990356E0,-7.984344482E0,2.084487915E0
2.026641846E0,4.500289917E0,-8.104049683E0,2.089279175E0
2.031738281E0,4.466781616E0,-8.204605103E0,2.074905396E0
2.036804199E0,4.514663696E0,-8.238128662E0,2.170684814E0
2.041870117E0,4.643951416E0,-8.242919922E0,2.242507935E0
2.046966553E0,4.730133057E0,-8.218978882E0,2.180252075E0
2.052032471E0,4.739715576E0,-8.209396362E0,2.146743774E0
2.057128906E0,4.624801636E0,-8.180664062E0,2.094070435E0
2.062194824E0,4.581695557E0,-8.065750122E0,2.103637695E0
2.067291260E0,4.605636597E0,-7.926879883E0,2.180252075E0
2.072357178E0,4.591278076E0,-7.816757202E0,2.185043335E0
2.077453613E0,4.634368896E0,-7.764083862E0,2.165893555E0
2.082519531E0,4.600860596E0,-7.682678223E0,2.108428955E0
2.087615967E0,4.404525757E0,-7.701828003E0,2.343063354E0
2.092681885E0,4.107650757E0,-8.051376343E0,2.194625854E0
2.097747803E0,4.763656616E0,-8.712188721E0,1.998291016E0
2.102844238E0,5.223342896E0,-9.109619141E0,2.050964355E0
2.107910156E0,5.141937256E0,-8.956390381E0,2.299972534E0
2.113006592E0,5.065322876E0,-8.420089722E0,2.299972534E0
2.118072510E0,5.094055176E0,-7.984344482E0,2.568115234E0
2.123168945E0,5.194610596E0,-7.816757202E0,2.687835693E0
2.128204346E0,5.434036255E0,-7.720977783E0,2.525024414E0
2.133300781E0,5.457977295E0,-7.409744263E0,2.381378174E0
2.138397217E0,5.410095215E0,-7.041030884E0,2.778808594E0
2.143463135E0,5.486709595E0,-6.988357544E0,3.018234253E0
2.148559570E0,6.032592773E0,-7.246932983E0,2.888946533E0
2.153625488E0,6.372558594E0,-7.357070923E0,3.032592773E0
2.158721924E0,6.382141113E0,-7.390579224E0,3.722122192E0
2.163787842E0,6.463546753E0,-7.601272583E0,4.042953491E0
2.168884277E0,6.477905273E0,-7.634796143E0,4.277572632E0
2.173950195E0,6.453964233E0,-7.668304443E0,4.588821411E0
2.179046631E0,6.458755493E0,-7.754501343E0,4.636703491E0
2.184112549E0,6.391723633E0,-7.768859863E0,4.569671631E0
2.189208984E0,6.233703613E0,-7.754501343E0,4.426025391E0
2.194274902E0,5.879364014E0,-7.725769043E0,4.239273071E0
2.199340820E0,5.429244995E0,-7.596481323E0,4.105194092E0
2.204437256E0,4.830703735E0,-7.357070923E0,4.095626831E0
2.209503174E0,4.428466797E0,-7.136795044E0,3.908874512E0
2.214599609E0,4.203414917E0,-6.921325684E0,3.750854492E0
2.219665527E0,4.059768677E0,-6.792037964E0,3.664657593E0
2.224761963E0,4.002304077E0,-6.748931885E0,3.453979492E0
2.229827881E0,4.064559937E0,-6.820770264E0,3.310317993E0
2.234924316E0,4.212997437E0,-6.930892944E0,3.248077393E0
2.239990234E0,4.347061157E0,-7.146377563E0,3.228912354E0
2.245056152E0,4.457199097E0,-7.457626343E0,3.305526733E0
2.250152588E0,4.356643677E0,-7.859848022E0,3.415664673E0
2.255218506E0,4.260879517E0,-8.333892822E0,3.525802612E0
2.260314941E0,4.294403076E0,-8.511062622E0,3.664657593E0
2.265380859E0,4.394958496E0,-8.578109741E0,3.655090332E0
2.270477295E0,4.490722656E0,-8.458404541E0,3.602416992E0
2.275543213E0,4.658309937E0,-8.180664062E0,3.602416992E0
2.280639648E0,4.825912476E0,-7.946044922E0,3.597625732E0
2.285675049E0,4.797180176E0,-7.759292603E0,3.482696533E0
2.290740967E0,4.730133057E0,-7.610855103E0,3.401306152E0
2.295806885E0,4.548187256E0,-7.582122803E0,3.367782593E0
2.300903320E0,4.303970337E0,-7.553390503E0,3.252853394E0
2.305999756E0,3.844284058E0,-7.266082764E0,3.185821533E0
2.311096191E0,3.293624878E0,-6.634017944E0,3.051742554E0
2.316192627E0,3.509094238E0,-6.447265625E0,2.702194214E0
2.321258545E0,3.657531738E0,-6.552612305E0,2.477142334E0
2.326354980E0,3.691055298E0,-6.768096924E0,2.544174194E0
2.331420898E0,3.987945557E0,-7.079330444E0,2.855422974E0
2.336486816E0,4.212997437E0,-7.414520264E0,3.032592773E0
2.341583252E0,4.136383057E0,-7.725769043E0,3.382141113E0
2.346618652E0,4.160324097E0,-8.094482422E0,3.497070312E0
2.351684570E0,4.179473877E0,-8.290802002E0,3.377365112E0
2.356781006E0,4.155532837E0,-8.271652222E0,3.243286133E0
2.361877441E0,4.342285156E0,-8.233337402E0,3.142730713E0
2.366973877E0,4.524246216E0,-8.123214722E0,3.046951294E0
2.372070312E0,4.600860596E0,-7.898147583E0,3.061325073E0
2.377136230E0,4.576904297E0,-7.519866943E0,3.248077393E0
2.382232666E0,4.591278076E0,-7.347488403E0,2.994293213E0
2.387298584E0,5.625564575E0,-9.090469360E0,1.916900635E0
2.392364502E0,7.258422852E0,-1.077119446E1,-5.204010010E-1
2.397460937E0,7.095611572E0,-1.080950928E1,8.395080566E-1
2.402526855E0,6.252853394E0,-1.046473694E1,3.099624634E0
2.407623291E0,5.141937256E0,-9.765625000E0,2.754867554E0
2.412689209E0,3.341506958E0,-8.343475342E0,2.663879395E0
2.417785644E0,3.892166138E0,-7.548599243E0,3.243286133E0
2.422851562E0,4.830703735E0,-7.328338623E0,3.889724731E0
2.427947998E0,4.974349976E0,-7.352279663E0,4.100402832E0
2.433013916E0,4.916885376E0,-7.471984863E0,4.052520752E0
2.438079834E0,4.538604736E0,-7.692245483E0,4.430801392E0
2.443176269E0,4.643951416E0,-7.826324463E0,4.564880371E0
2.448242187E0,4.873794556E0,-7.701828003E0,4.603195190E0
2.453338623E0,4.969558716E0,-7.644363403E0,4.675018311E0
2.458404541E0,5.103637695E0,-7.562973022E0,4.675018311E0
2.463500977E0,5.280807495E0,-7.342697144E0,4.689376831E0
2.468566894E0,5.357421875E0,-7.246932983E0,4.713317871E0
2.473663330E0,5.213775635E0,-7.290023804E0,4.665435791E0
2.478729248E0,5.180252075E0,-7.385787964E0,4.555313110E0
2.483795166E0,5.189834595E0,-7.457626343E0,4.459533691E0
2.488891602E0,5.098846436E0,-7.452835083E0,4.335037231E0
2.493957519E0,4.959991455E0,-7.500717163E0,4.200958252E0
2.499053955E0,4.845062256E0,-7.290023804E0,4.100402832E0
2.504119873E0,4.586486816E0,-7.127227783E0,3.975906372E0
2.509216309E0,4.414108276E0,-7.199050903E0,4.042953491E0
2.514282227E0,4.567337036E0,-7.342697144E0,4.071670532E0
2.519378662E0,4.854644775E0,-7.395370483E0,4.100402832E0
2.524444580E0,5.098846436E0,-7.448043823E0,4.177017212E0
2.529510498E0,5.280807495E0,-7.476776123E0,4.325469971E0
2.534606934E0,5.352630615E0,-7.524658203E0,4.564880371E0
2.539672852E0,5.328689575E0,-7.505508423E0,4.631927490E0
2.544769287E0,5.223342896E0,-7.510299683E0,4.526580811E0
2.549835205E0,5.117996216E0,-7.529449463E0,4.382919312E0
2.554931641E0,5.012649536E0,-7.572540283E0,4.291946411E0
2.559997559E0,4.878585815E0,-7.606063843E0,4.234481812E0
2.565093994E0,4.672683716E0,-7.649154663E0,4.200958252E0
2.570159912E0,4.538604736E0,-7.677886963E0,4.200958252E0
2.575256348E0,4.323120117E0,-7.701828003E0,4.220123291E0
2.580322266E0,4.222564697E0,-7.658737183E0,4.090835571E0
2.585388184E0,4.610427856E0,-7.519866943E0,4.109985352E0
2.590484619E0,4.701416016E0,-7.562973022E0,4.282363892E0
2.595550537E0,4.725357056E0,-7.644363403E0,4.373352051E0
2.600646973E0,4.778030396E0,-7.720977783E0,4.330245972E0
2.605712891E0,4.825912476E0,-7.778442383E0,4.344619751E0
2.610809326E0,4.897735596E0,-7.768859863E0,4.306304932E0
2.615875244E0,4.916885376E0,-7.730560303E0,4.239273071E0
2.620971680E0,4.988708496E0,-7.716201782E0,4.272796631E0
2.626037598E0,5.065322876E0,-7.730560303E0,4.239273071E0
2.631103516E0,5.050964355E0,-7.644363403E0,4.315887451E0
2.636199951E0,5.003082275E0,-7.658737183E0,4.411651611E0
2.641265869E0,4.979141235E0,-7.634796143E0,4.339828491E0
2.646362305E0,4.854644775E0,-7.553390503E0,4.229690552E0
2.651428223E0,4.672683716E0,-7.462402344E0,4.143508911E0
2.656524658E0,4.414108276E0,-7.357070923E0,4.129135132E0
2.661590576E0,4.256088257E0,-7.294815063E0,4.153076172E0
2.666687012E0,4.165115356E0,-7.376220703E0,3.865768433E0
2.671752930E0,4.361434937E0,-7.601272583E0,4.100402832E0
2.676818848E0,4.576904297E0,-7.754501343E0,4.263214111E0
2.681915283E0,4.581695557E0,-7.658737183E0,4.215332031E0
2.686981201E0,4.605636597E0,-7.457626343E0,4.234481812E0
2.692077637E0,4.821121216E0,-7.098495483E0,4.392501831E0
2.697143555E0,5.046173096E0,-6.423324585E0,4.339828491E0
2.702239990E0,4.246505737E0,-7.084121704E0,4.181808472E0
2.707305908E0,4.069335938E0,-7.539016724E0,4.167449951E0
2.712402344E0,4.174682617E0,-7.692245483E0,4.071670532E0
2.717468262E0,4.150741577E0,-7.720977783E0,3.971115112E0
2.722534180E0,4.342285156E0,-7.735351562E0,3.923233032E0
2.727630615E0,4.495513916E0,-7.744918823E0,3.975906372E0
2.732696533E0,4.567337036E0,-7.706619263E0,3.990280151E0
2.737792969E0,4.682250977E0,-7.644363403E0,4.009429932E0
2.742858887E0,4.701416016E0,-7.586914062E0,3.951965332E0
2.747955322E0,4.849853516E0,-7.768859863E0,3.928024292E0
2.753021240E0,4.768447876E0,-7.749710083E0,3.760437012E0
2.758117676E0,4.476348877E0,-7.625213623E0,3.774795532E0
2.763183594E0,4.246505737E0,-7.433685303E0,3.832260132E0
2.768280029E0,4.184265137E0,-7.371429443E0,3.822677612E0
2.773345947E0,4.165115356E0,-7.361846924E0,3.798736572E0
2.778411865E0,4.107650757E0,-7.409744263E0,3.726913452E0
2.783508301E0,4.064559937E0,-7.515075684E0,3.784378052E0
2.788574219E0,4.050186157E0,-7.692245483E0,4.033370972E0
2.793670654E0,4.078918457E0,-7.754501343E0,4.133926392E0
2.798736572E0,3.944839478E0,-7.735351562E0,4.306304932E0
2.803833008E0,4.232147217E0,-7.845474243E0,4.109985352E0
2.808898926E0,4.624801636E0,-7.946044922E0,3.884933472E0
2.813995361E0,4.778030396E0,-8.037017822E0,3.822677612E0
2.819061279E0,4.931259155E0,-8.171096802E0,3.875350952E0
2.824127197E0,4.907318115E0,-8.281219482E0,3.985488892E0
2.829223633E0,4.615219116E0,-8.309951782E0,4.153076172E0
2.834289551E0,4.687042236E0,-8.218978882E0,4.138717651E0
2.839385986E0,4.902526855E0,-7.831115723E0,4.109985352E0
2.844451904E0,4.725357056E0,-7.682678223E0,4.114776611E0
2.849548340E0,4.514663696E0,-7.687469482E0,4.033370972E0
2.854614258E0,4.399734497E0,-7.744918823E0,3.904083252E0
2.859710693E0,4.275238037E0,-7.725769043E0,3.846618652E0
2.864776611E0,4.299179077E0,-7.768859863E0,3.798736572E0
2.869842529E0,4.265670776E0,-7.835906982E0,3.669448853E0
2.874938965E0,4.236938477E0,-7.864639282E0,3.530593872E0
2.880004883E0,4.174682617E0,-7.888580322E0,3.568893433E0
2.885101318E0,4.203414917E0,-7.869430542E0,3.645507812E0
2.890167236E0,4.236938477E0,-7.826324463E0,3.664657593E0
2.895263672E0,4.236938477E0,-7.730560303E0,3.755645752E0
2.900329590E0,4.399734497E0,-7.500717163E0,3.894500732E0
2.905426025E0,4.366226196E0,-7.711410522E0,4.052520752E0
2.910491943E0,4.912094116E0,-7.495925903E0,4.224899292E0
2.915588379E0,4.610427856E0,-7.495925903E0,4.301513672E0
2.920654297E0,4.260879517E0,-8.060958862E0,4.493057251E0
2.925720215E0,4.648742676E0,-8.218978882E0,4.459533691E0
2.930816650E0,4.600860596E0,-7.902938843E0,4.469116211E0
2.935882568E0,4.366226196E0,-7.725769043E0,4.354187012E0
2.940979004E0,4.280029297E0,-7.826324463E0,4.143508911E0
2.946044922E0,4.270446777E0,-7.874206543E0,4.162658691E0
2.951141357E0,4.327911377E0,-7.548599243E0,4.086044312E0
2.956207275E0,4.088500977E0,-7.452835083E0,3.884933472E0
2.961303711E0,3.925689697E0,-7.663528442E0,3.803527832E0
2.966369629E0,4.552963257E0,-7.031448364E0,3.765213013E0
2.971435547E0,4.021453857E0,-6.964416504E0,3.501861572E0
2.976531982E0,3.647964478E0,-7.165527344E0,3.674240112E0
2.981597900E0,3.963989258E0,-7.323547363E0,3.813110352E0
2.986694336E0,4.236938477E0,-7.395370483E0,3.741271973E0
2.991760254E0,4.371017456E0,-7.448043823E0,3.904083252E0
2.996856689E0,4.485931396E0,-7.620422363E0,4.042953491E0
3.001922607E0,4.562545776E0,-7.778442383E0,4.081253052E0
3.007019043E0,4.548187256E0,-7.831115723E0,4.076461792E0
3.012084961E0,4.361434937E0,-7.946044922E0,4.018997192E0
3.017150879E0,4.308761597E0,-7.960403442E0,3.966339111E0
3.022247314E0,4.509872437E0,-7.946044922E0,4.062103271E0
3.027313232E0,4.438049316E0,-7.845474243E0,4.038162231E0
3.032409668E0,4.232147217E0,-7.850265503E0,3.884933472E0
3.037475586E0,4.045394897E0,-7.807174683E0,3.712539673E0
3.042572021E0,3.643173218E0,-7.725769043E0,3.650299072E0
3.047637939E0,3.159545898E0,-7.639587402E0,3.889724731E0
3.052734375E0,3.466003418E0,-7.673095703E0,3.621566772E0
3.057800293E0,3.935272217E0,-7.701828003E0,3.487487793E0
3.062866211E0,4.251296997E0,-7.826324463E0,3.511428833E0
3.067962646E0,4.438049316E0,-7.893371582E0,3.516220093E0
3.073028564E0,4.643951416E0,-8.022659302E0,3.588043213E0
3.078125000E0,4.701416016E0,-8.171096802E0,3.616775513E0
3.083190918E0,4.782806396E0,-8.300384521E0,3.774795532E0
3.088287353E0,4.945617676E0,-8.367416382E0,3.985488892E0
3.093353271E0,4.969558716E0,-8.396148682E0,4.086044312E0
3.098449707E0,4.586486816E0,-8.381790161E0,4.220123291E0
3.103515625E0,4.112442017E0,-8.132781982E0,3.774795532E0
3.108612061E0,4.232147217E0,-7.797592163E0,3.535369873E0
3.113677978E0,4.418899536E0,-7.720977783E0,3.693389893E0
3.118743896E0,4.471572876E0,-7.759292603E0,3.712539673E0
3.123840332E0,4.476348877E0,-7.802383423E0,3.592834473E0
3.128906250E0,4.433258057E0,-7.845474243E0,3.511428833E0
3.134002686E0,4.452407837E0,-7.955612183E0,3.487487793E0
3.139068603E0,4.461990356E0,-7.969985962E0,3.568893433E0
3.144165039E0,4.366226196E0,-7.898147583E0,3.554534912E0
3.149230957E0,4.246505737E0,-7.788024902E0,3.492279053E0
3.154327393E0,4.222564697E0,-7.625213623E0,3.401306152E0
3.159393311E0,4.189056396E0,-7.529449463E0,3.396514893E0
3.164459228E0,4.145950317E0,-7.500717163E0,3.319900513E0
3.169555664E0,4.179473877E0,-7.462402344E0,3.430038452E0
3.174621582E0,4.318344116E0,-7.486358643E0,3.492279053E0
3.179718018E0,4.332702637E0,-7.476776123E0,3.631149292E0
3.184783936E0,4.031036377E0,-7.409744263E0,4.172241211E0
3.189880371E0,3.772460938E0,-7.381011963E0,4.454742432E0
3.194946289E0,4.318344116E0,-7.625213623E0,3.755645752E0
3.200042725E0,4.883361816E0,-7.931671143E0,3.252853394E0
3.205108643E0,5.170669556E0,-8.156723022E0,3.157089233E0
3.210174561E0,5.223342896E0,-8.309951782E0,3.295959473E0
3.215270996E0,5.132369995E0,-8.295593262E0,3.348632812E0
3.220336914E0,4.873794556E0,-8.262069702E0,3.679031372E0
3.225433350E0,4.720565796E0,-8.190246582E0,4.081253052E0
3.230499268E0,4.758865356E0,-8.065750122E0,4.119567871E0
3.235595703E0,4.658309937E0,-7.946044922E0,3.975906372E0
3.240661621E0,4.538604736E0,-7.697036743E0,3.770004272E0
3.245758057E0,4.241729736E0,-7.543807983E0,3.937606812E0
3.250823975E0,3.868225098E0,-7.515075684E0,4.603195190E0
3.255889893E0,4.442840576E0,-7.754501343E0,3.975906372E0
3.260986328E0,4.533813477E0,-7.845474243E0,3.564102173E0
3.266052246E0,4.380584717E0,-7.998703003E0,3.597625732E0
3.271148682E0,4.366226196E0,-8.113632202E0,3.659881592E0
3.276214600E0,4.347061157E0,-8.127990723E0,3.774795532E0
3.281311035E0,4.265670776E0,-8.477554321E0,4.205749512E0
3.286376953E0,4.303970337E0,-8.874984741E0,4.325469971E0
3.291473389E0,4.284820557E0,-8.932449341E0,4.311096191E0
3.296539307E0,4.155532837E0,-8.784011841E0,4.162658691E0
3.301605225E0,4.169891357E0,-8.602050781E0,4.009429932E0
3.306701660E0,4.275238037E0,-8.386566162E0,3.942382812E0
3.311767578E0,4.394958496E0,-8.271652222E0,3.942382812E0
3.316864014E0,4.466781616E0,-8.195037842E0,3.808319092E0
3.321929932E0,4.461990356E0,-8.099273682E0,3.722122192E0
3.327026367E0,4.457199097E0,-8.041809082E0,3.635925293E0
3.332092285E0,4.227355957E0,-8.084899902E0,3.468338013E0
3.337188721E0,3.925689697E0,-8.151931763E0,3.224136353E0
3.342254639E0,4.145950317E0,-8.046600342E0,3.300750732E0
3.347351074E0,4.107650757E0,-7.946044922E0,3.463546753E0
3.352416992E0,3.920898438E0,-7.950820923E0,3.588043213E0
3.357482910E0,3.849075317E0,-8.127990723E0,3.568893433E0
3.362579346E0,3.834701538E0,-8.343475342E0,3.530593872E0
3.367645264E0,3.853866577E0,-8.362625122E0,3.477920532E0
3.372741699E0,3.983154297E0,-8.314743042E0,3.396514893E0
3.377807617E0,3.978363037E0,-8.400939941E0,3.339050293E0
3.382904053E0,4.150741577E0,-8.410507202E0,3.286376953E0
3.387939453E0,4.265670776E0,-8.415298462E0,3.300750732E0
3.393035889E0,4.059768677E0,-8.673873901E0,3.391723633E0
3.398132324E0,4.141174316E0,-8.539794922E0,3.401306152E0
3.403198242E0,3.892166138E0,-8.649932861E0,3.434814453E0
3.408294678E0,3.729370117E0,-8.568527222E0,3.487487793E0
3.413360596E0,3.667114258E0,-8.429672241E0,3.549743652E0
3.418457031E0,3.624023438E0,-8.295593262E0,3.611984253E0
3.423522949E0,3.758087158E0,-8.324325562E0,3.784378052E0
3.428619385E0,3.829925537E0,-8.314743042E0,3.793945312E0
3.433685303E0,3.782043457E0,-8.266860962E0,3.717330933E0
3.438751221E0,3.695846558E0,-8.309951782E0,3.731704712E0
3.443817139E0,3.370239258E0,-8.338684082E0,4.018997192E0
3.448883057E0,2.446075439E0,-8.324325562E0,4.373352051E0
3.453979492E0,2.570571899E0,-8.458404541E0,3.597625732E0
3.459075928E0,3.264892578E0,-8.563735962E0,2.788391113E0
3.464172363E0,3.604858398E0,-8.721755981E0,2.711776733E0
3.469238281E0,3.700637817E0,-8.884567261E0,2.821899414E0
3.474334717E0,3.676696777E0,-9.023422241E0,2.860214233E0
3.479400635E0,3.556976318E0,-9.052154541E0,2.807540894E0
3.484497070E0,3.413330078E0,-8.937240601E0,2.869781494E0
3.489562988E0,3.351074219E0,-8.784011841E0,2.888946533E0
3.494659424E0,3.202636719E0,-8.707397461E0,2.855422974E0
3.499725342E0,2.991943359E0,-8.645141602E0,2.821899414E0
3.504791260E0,2.862655640E0,-8.673873901E0,2.908096313E0
3.509887695E0,2.987167358E0,-8.530227661E0,3.113998413E0
3.514953613E0,3.025466919E0,-8.324325562E0,3.109207153E0
3.520050049E0,3.193069458E0,-8.137573242E0,3.099624634E0
3.525115967E0,3.341506958E0,-8.223770142E0,3.046951294E0
3.530212402E0,3.341506958E0,-8.439239502E0,2.922454834E0
3.535278320E0,3.398971558E0,-8.558959961E0,2.831481934E0
3.540374756E0,3.805984497E0,-8.199829102E0,2.754867554E0
3.545440674E0,4.112442017E0,-8.132781982E0,2.702194214E0
3.550506592E0,3.595291138E0,-8.860626221E0,2.697402954E0
3.555603027E0,3.303192139E0,-9.109619141E0,2.572906494E0
3.560668945E0,3.159545898E0,-9.181442261E0,2.367004395E0
3.565765381E0,2.838714600E0,-9.430450439E0,2.022247314E0
3.570831299E0,2.723800659E0,-9.191024780E0,1.883377075E0
3.575927734E0,2.848297119E0,-8.841476440E0,2.007873535E0
3.580993652E0,2.867446899E0,-8.740905762E0,2.089279175E0
3.586090088E0,2.752532959E0,-8.812744141E0,2.098861694E0
3.591156006E0,2.786041260E0,-8.803161621E0,2.118011475E0
3.596221924E0,2.771682739E0,-8.793579102E0,2.098861694E0
3.601318359E0,2.599304199E0,-8.740905762E0,2.223358154E0
3.606384277E0,2.460433960E0,-8.673873901E0,2.295181274E0
3.611480713E0,2.704650879E0,-8.539794922E0,2.611221313E0
3.616546631E0,2.905761719E0,-8.343475342E0,2.692611694E0
3.621643066E0,2.752532959E0,-8.113632202E0,2.520233154E0
3.626708984E0,2.690277100E0,-8.060958862E0,2.434036255E0
3.631805420E0,2.661544800E0,-7.974761963E0,2.352645874E0
3.636871338E0,2.685485840E0,-7.878997803E0,2.280807495E0
3.641967773E0,2.891387939E0,-7.993927002E0,2.395736694E0
3.647033691E0,2.920120239E0,-7.936462402E0,2.400527954E0
3.652099609E0,2.929702759E0,-7.783233643E0,2.381378174E0
3.657196045E0,2.900970459E0,-7.792816162E0,2.343063354E0
3.662261963E0,2.910552979E0,-7.730560303E0,2.295181274E0
3.667358398E0,2.900970459E0,-7.701828003E0,2.165893555E0
3.672424316E0,2.671127319E0,-7.754501343E0,1.888168335E0
3.677520752E0,2.599304199E0,-7.898147583E0,1.840286255E0
3.682586670E0,2.565780640E0,-8.003494263E0,1.845062256E0
3.687683105E0,2.402969360E0,-7.955612183E0,1.744506836E0
3.692749023E0,2.402969360E0,-7.893371582E0,1.658325195E0
3.697814941E0,2.508316040E0,-7.931671143E0,1.600860596E0
3.702911377E0,2.345520020E0,-7.821533203E0,1.725357056E0
3.707977295E0,2.067794800E0,-7.620422363E0,1.869018555E0
3.713073730E0,2.307205200E0,-7.701828003E0,2.510650635E0
3.718139648E0,2.532257080E0,-7.735351562E0,2.908096313E0
3.723236084E0,2.388610840E0,-7.495925903E0,2.941619873E0
3.728302002E0,2.398193359E0,-7.428894043E0,3.272018433E0
3.733398437E0,2.498748779E0,-7.524658203E0,3.453979492E0
3.738464355E0,2.513107300E0,-7.620422363E0,3.133148193E0
3.743560791E0,2.594512939E0,-7.658737183E0,2.596847534E0
3.748626709E0,2.848297119E0,-7.591690063E0,2.141952515E0
3.753692627E0,3.317565918E0,-7.845474243E0,1.720565796E0
3.758789062E0,3.355865479E0,-8.434448242E0,1.414108276E0
3.763854980E0,3.566558838E0,-8.673873901E0,1.351867676E0
3.768951416E0,3.585708618E0,-8.693023682E0,1.217788696E0
3.774017334E0,3.451629639E0,-8.750488281E0,1.313552856E0
3.779113769E0,3.126022339E0,-8.927658081E0,1.476364136E0
3.784179687E0,2.991943359E0,-9.028213501E0,1.825912476E0
3.789245605E0,2.699859619E0,-9.339462280E0,1.835494995E0
3.794342041E0,2.465225220E0,-9.267639160E0,1.801971436E0
3.799407959E0,2.632812500E0,-9.100036621E0,1.955200195E0
3.804504394E0,2.613662720E0,-9.138351440E0,2.027023315E0
3.809570312E0,2.331146240E0,-9.353836060E0,2.103637695E0
3.814666748E0,2.134826660E0,-9.526214600E0,2.376586914E0
3.819732666E0,2.082153320E0,-9.612396240E0,2.457992554E0
3.824829102E0,2.240173340E0,-9.866180420E0,2.376586914E0
3.829895019E0,2.345520020E0,-1.003857422E1,2.113220215E0
3.834991455E0,2.254531860E0,-1.027320862E1,1.763671875E0
3.840057373E0,2.455642700E0,-1.042164612E1,1.524246216E0
3.845123291E0,2.723800659E0,-1.060838318E1,1.414108276E0
3.850219727E0,2.742950439E0,-1.081907654E1,1.409332275E0
3.855285644E0,2.618453979E0,-1.066105652E1,1.591278076E0
3.860382080E0,2.316787720E0,-1.038333130E1,1.715789795E0
3.865447998E0,2.077362061E0,-1.024447632E1,1.749298096E0
3.870544434E0,1.948074341E0,-1.021095276E1,1.869018555E0
3.875610352E0,1.842727661E0,-1.010560608E1,1.940841675E0
3.880706787E0,1.689498901E0,-9.966751099E0,1.979141235E0
3.885772705E0,1.550643921E0,-9.890136719E0,1.998291016E0
3.890838623E0,1.464447021E0,-9.842239380E0,2.017456055E0
3.895935059E0,1.368682861E0,-9.741683960E0,1.950408936E0
3.901000977E0,1.277694702E0,-9.679443359E0,1.821121216E0
3.906097412E0,1.220245361E0,-9.679443359E0,1.739730835E0
3.911163330E0,1.110107422E0,-9.779998779E0,1.725357056E0
3.916259766E0,1.162780762E0,-9.938018799E0,1.773239136E0
3.921325684E0,1.186721802E0,-9.938018799E0,1.883377075E0
3.926422119E0,1.095748901E0,-1.001463318E1,1.888168335E0
3.931488037E0,1.181930542E0,-9.995468140E0,1.869018555E0
3.936553955E0,1.033493042E0,-1.037854004E1,1.845062256E0
3.941650391E0,1.162780762E0,-1.033065796E1,1.811553955E0
3.946716309E0,1.301651001E0,-1.007687378E1,1.663116455E0
3.951812744E0,1.756546021E0,-9.588455200E0,1.347076416E0
3.956878662E0,2.101303101E0,-9.440017700E0,9.687957764E-1
3.961975098E0,2.206649780E0,-9.511840820E0,9.448547363E-1
3.967041016E0,2.268905640E0,-9.636337280E0,1.227371216E0
3.972137451E0,2.144409180E0,-9.717742920E0,1.481155396E0
3.977203369E0,2.048629761E0,-9.617187500E0,1.763671875E0
3.982269287E0,1.967239380E0,-9.516632080E0,2.003082275E0
3.987365723E0,1.852310181E0,-9.463958740E0,2.070129395E0
3.992431641E0,1.746963501E0,-9.449600220E0,2.060546875E0
3.997528076E0,1.651199341E0,-9.411285400E0,2.060546875E0
4.002593994E0,1.579376221E0,-9.377777100E0,1.974349976E0
4.007690430E0,1.459655762E0,-9.277221680E0,1.864227295E0
4.012756348E0,1.416564941E0,-9.095260620E0,1.758880615E0
4.017852783E0,1.421356201E0,-8.913299561E0,1.643951416E0
4.022918701E0,1.488388062E0,-8.745697021E0,1.605651855E0
4.028015137E0,1.565002441E0,-8.616409302E0,1.615219116E0
4.033081055E0,1.526702881E0,-8.439239502E0,1.581710815E0
4.038146973E0,1.421356201E0,-8.209396362E0,1.605651855E0
4.043243408E0,1.201080322E0,-8.032226562E0,1.562561035E0
4.048309326E0,8.946228027E-1,-7.960403442E0,1.375808716E0
4.053405762E0,6.839447021E-1,-8.132781982E0,1.246520996E0
4.058471680E0,6.408386230E-1,-8.343475342E0,1.150756836E0
4.063568115E0,7.509765625E-1,-8.467971802E0,1.064559937E0
4.068634033E0,8.898468018E-1,-8.424880981E0,9.879455566E-1
4.073730469E0,1.225036621E0,-8.391357422E0,9.113311768E-1
4.078796387E0,1.612884521E0,-8.448822021E0,9.927368164E-1
4.083862305E0,1.928924561E0,-8.558959961E0,1.131591797E0
4.088958740E0,2.192291260E0,-8.836685181E0,1.260879517E0
4.094024658E0,2.407760620E0,-9.138351440E0,1.457214355E0
4.099121094E0,2.556198120E0,-9.377777100E0,1.567337036E0
4.104187012E0,2.570571899E0,-9.545364380E0,1.643951416E0
4.109283447E0,2.465225220E0,-9.689010620E0,1.725357056E0
4.114349365E0,2.254531860E0,-9.751266479E0,1.758880615E0
4.119445801E0,2.029479980E0,-9.770416260E0,1.787612915E0
4.124511719E0,1.933715820E0,-9.813522339E0,1.701416016E0
4.129608154E0,1.948074341E0,-9.789566040E0,1.701416016E0
4.134674072E0,2.010330200E0,-9.765625000E0,1.758880615E0
4.139739990E0,1.962448120E0,-9.813522339E0,1.682266235E0
4.144836426E0,1.833160400E0,-9.808731079E0,1.658325195E0
4.149902344E0,1.852310181E0,-9.746475220E0,1.643951416E0
4.154998779E0,2.029479980E0,-9.660293579E0,1.567337036E0
4.160064697E0,2.206649780E0,-9.507064819E0,1.538604736E0
4.165161133E0,2.096511841E0,-9.095260620E0,1.524246216E0
4.170227051E0,1.766113281E0,-8.501495361E0,1.500305176E0
4.175323486E0,1.584152222E0,-8.147155762E0,1.323135376E0
4.180389404E0,1.474029541E0,-7.864639282E0,9.448547363E-1
4.185455322E0,1.397415161E0,-7.859848022E0,5.905151367E-1
4.190551758E0,1.392623901E0,-7.926879883E0,3.750305176E-1
4.195617676E0,1.469238281E0,-7.850265503E0,3.319396973E-1
4.200714111E0,1.430923462E0,-7.634796143E0,2.792663574E-1
4.205780029E0,1.320800781E0,-7.328338623E0,6.857299805E-2
4.210845947E0,1.234603882E0,-7.189468384E0,1.020965576E-1
4.215942383E0,1.105316162E0,-6.815979004E0,3.415069580E-1
4.221038818E0,7.845001221E-1,-6.380233765E0,6.096649170E-1
4.226104736E0,6.168975830E-1,-6.538253784E0,1.859436035E0
4.231170654E0,7.892913818E-1,-7.021881104E0,3.334259033E0
4.236267090E0,1.162780762E0,-7.524658203E0,3.779586792E0
4.241333008E0,1.464447021E0,-7.965194702E0,3.061325073E0
4.246429443E0,1.799636841E0,-8.209396362E0,1.543395996E0
4.251495361E0,2.077362061E0,-8.434448242E0,7.815551758E-2
4.256591797E0,2.273696899E0,-8.578109741E0,-1.004028320E0
4.261657715E0,2.197082520E0,-8.721755981E0,-1.679199219E0
4.266754150E0,2.192291260E0,-8.817520142E0,-2.105361938E0
4.271820068E0,2.019897461E0,-8.946807861E0,-1.784545898E0
4.276885986E0,1.632049561E0,-8.803161621E0,-1.363159180E0
4.281982422E0,1.555435181E0,-8.803161621E0,-9.274139404E-1
4.287048340E0,1.545852661E0,-8.851043701E0,-4.006958008E-1
4.292144775E0,1.440505981E0,-8.894134521E0,1.212463379E-1
4.297210693E0,1.268127441E0,-9.023422241E0,4.851684570E-1
4.302307129E0,1.296859741E0,-9.176651001E0,9.783630371E-1
4.307373047E0,1.378265381E0,-9.411285400E0,1.414108276E0
4.312469482E0,1.363891602E0,-9.665069580E0,1.667892456E0
4.317535400E0,1.373474121E0,-1.000025940E1,2.074905396E0
4.322631836E0,1.229812622E0,-1.037854004E1,2.410095215E0
4.327697754E0,1.124465942E0,-1.061796570E1,2.577697754E0
4.332763672E0,1.019134521E0,-1.071372986E1,2.299972534E0
4.337860107E0,9.568786621E-1,-1.067543030E1,1.811553955E0
4.342926025E0,7.653350830E-1,-1.051741028E1,1.246520996E0
4.348022461E0,5.785980225E-1,-1.057008362E1,7.054290771E-1
4.353088379E0,3.774871826E-1,-1.064190674E1,2.218017578E-1
4.358184814E0,2.194671631E-1,-1.084301758E1,-1.181793213E-1
4.363250732E0,9.017944336E-2,-1.106329346E1,-3.144989014E-1
4.368347168E0,5.665588379E-2,-1.123567200E1,-3.097076416E-1
4.373413086E0,1.667938232E-1,-1.156127930E1,-2.187347412E-1
4.378479004E0,2.481994629E-1,-1.187731934E1,5.419921875E-2
4.383575439E0,3.200225830E-1,-1.188211060E1,1.547698975E-1
4.388641357E0,3.679046631E-1,-1.176239014E1,2.218017578E-1
4.393737793E0,4.349365234E-1,-1.182464600E1,3.702392578E-1
4.398803711E0,3.822631836E-1,-1.193955994E1,6.240234375E-1
4.403900146E0,4.541015625E-1,-1.194435120E1,7.868347168E-1
4.408966064E0,5.307159424E-1,-1.193955994E1,8.538665771E-1
4.414062500E0,6.168975830E-1,-1.189167786E1,7.724609375E-1
4.419128418E0,7.461853027E-1,-1.191084290E1,6.479644775E-1
4.424194336E0,7.653350830E-1,-1.189646912E1,5.665588379E-1
4.429290771E0,7.701263428E-1,-1.179591370E1,4.229125977E-1
4.434356689E0,7.797088623E-1,-1.167141724E1,2.218017578E-1
4.439453125E0,8.419494629E-1,-1.178155518E1,5.419921875E-2
4.444519043E0,9.185638428E-1,-1.180549622E1,5.419921875E-2
4.449615478E0,8.467407227E-1,-1.188688660E1,3.654479980E-1
4.454681396E0,7.509765625E-1,-1.190126038E1,7.054290771E-1
4.459777832E0,6.600036621E-1,-1.186294556E1,8.778076172E-1
4.464843750E0,6.025390625E-1,-1.174324036E1,8.969726562E-1
4.469909668E0,6.168975830E-1,-1.163789368E1,8.730163574E-1
4.475006103E0,7.174530029E-1,-1.158522034E1,8.155670166E-1
4.480072021E0,8.323822021E-1,-1.149424744E1,7.437438965E-1
4.485168457E0,8.754730225E-1,-1.140325928E1,6.383972168E-1
4.490234375E0,8.706817627E-1,-1.133143616E1,6.096649170E-1
4.495330811E0,8.419494629E-1,-1.121173096E1,6.383972168E-1
4.500396728E0,8.275909424E-1,-1.118299866E1,7.150115967E-1
4.505493164E0,7.701263428E-1,-1.138410950E1,7.006378174E-1
4.510559082E0,8.515319824E-1,-1.109202576E1,6.814880371E-1
4.515625000E0,7.030944824E-1,-9.904495239E0,4.755859375E-1
4.520721436E0,4.301605225E-1,-9.325103760E0,4.660034180E-1
4.525787353E0,3.774871826E-1,-9.401718140E0,6.479644775E-1
4.530853271E0,5.163421631E-1,-9.468750000E0,7.197875977E-1
4.535949707E0,6.647796631E-1,-9.535781860E0,7.102203369E-1
4.541046143E0,6.647796631E-1,-9.583679199E0,6.719055176E-1
4.546112061E0,6.073303223E-1,-9.612396240E0,6.479644775E-1
4.551208496E0,5.929565430E-1,-9.708175659E0,5.809326172E-1
4.556274414E0,5.498657227E-1,-9.708175659E0,4.612274170E-1
4.561370850E0,5.163421631E-1,-9.698593140E0,4.085540771E-1
4.566436768E0,5.067749023E-1,-9.621978760E0,3.989715576E-1
4.571502686E0,5.307159424E-1,-9.540573120E0,3.319396973E-1
4.576599121E0,3.583221436E-1,-9.258056641E0,-4.156494141E-2
4.581665039E0,2.960815430E-1,-9.334671021E0,6.857299805E-2
4.586761475E0,4.397277832E-1,-9.631561279E0,4.564361572E-1
4.591827393E0,4.924011230E-1,-9.459167480E0,4.085540771E-1
4.596923828E0,4.493103027E-1,-9.358612061E0,4.612274170E-1
4.601989746E0,4.253692627E-1,-9.550155640E0,6.048736572E-1
4.607086182E0,4.732513428E-1,-9.665069580E0,6.383972168E-1
4.612152100E0,5.929565430E-1,-9.732116699E0,6.958465576E-1
4.617218018E0,6.791534424E-1,-9.751266479E0,7.293701172E-1
4.622314453E0,7.126770020E-1,-9.756057739E0,6.766967773E-1
4.627380371E0,7.126770020E-1,-9.712951660E0,6.240234375E-1
4.632476807E0,7.174530029E-1,-9.741683960E0,6.336059570E-1
4.637542725E0,6.935119629E-1,-9.736907959E0,5.617828369E-1
4.642639160E0,7.078857422E-1,-9.746475220E0,5.522003174E-1
4.647705078E0,6.983032227E-1,-9.717742920E0,5.474090576E-1
4.652801514E0,7.749176025E-1,-9.645919800E0,5.234680176E-1
4.657867432E0,7.797088623E-1,-9.641128540E0,5.330505371E-1
4.662963867E0,7.797088623E-1,-9.641128540E0,4.612274170E-1
4.668029785E0,7.749176025E-1,-9.574096680E0,4.803771973E-1
4.673095703E0,7.701263428E-1,-9.554946899E0,5.522003174E-1
4.678192139E0,8.227996826E-1,-9.554946899E0,5.857238770E-1
4.683258057E0,8.515319824E-1,-9.598037720E0,6.144561768E-1
4.688354492E0,8.946228027E-1,-9.712951660E0,6.910705566E-1
4.693420410E0,9.329376221E-1,-9.808731079E0,7.245788574E-1
4.698516846E0,9.472961426E-1,-9.813522339E0,6.671295166E-1
4.703582764E0,8.946228027E-1,-9.674652100E0,5.186767578E-1
4.708679199E0,9.568786621E-1,-8.879776001E0,5.139007568E-1
4.713745117E0,1.062225342E0,-8.731338501E0,4.133300781E-1
4.718811035E0,9.568786621E-1,-8.860626221E0,1.164550781E-1
4.723907471E0,5.211334229E-1,-8.266860962E0,-7.029724121E-2
4.728973389E0,4.684600830E-1,-7.778442383E0,6.814880371E-1
4.734069824E0,4.636688232E-1,-7.740142822E0,8.155670166E-1
4.739135742E0,3.870544434E-1,-8.415298462E0,7.006378174E-1
4.744232178E0,4.014282227E-1,-8.903717041E0,5.905151367E-1
4.749298096E0,4.636688232E-1,-9.277221680E0,5.378417969E-1
4.754394531E0,4.971923828E-1,-9.483108521E0,4.420623779E-1
4.759460449E0,5.738067627E-1,-9.665069580E0,4.947357178E-1
4.764556885E0,7.366180420E-1,-9.914077759E0,5.857238770E-1
4.769622803E0,8.754730225E-1,-1.036897278E1,6.288146973E-1
4.774688721E0,1.043075562E0,-1.044079590E1,7.102203369E-1
4.779785156E0,1.062225342E0,-1.035939026E1,5.905151367E-1
4.784851074E0,9.951934814E-1,-1.025404358E1,3.606719971E-1
4.789947510E0,9.233551025E-1,-1.025883484E1,2.792663574E-1
4.795013428E0,7.988586426E-1,-1.027320862E1,2.361602783E-1
4.800109863E0,6.312713623E-1,-1.030671692E1,2.888336182E-1
4.805175781E0,4.205780029E-1,-1.027798462E1,3.893890381E-1
4.810272217E0,3.056488037E-1,-1.020137024E1,3.846130371E-1
4.815338135E0,2.098846436E-1,-1.012954712E1,4.947357178E-1
4.820404053E0,1.763763428E-1,-1.007208252E1,5.713500977E-1
4.825500488E0,1.955261230E-1,-1.007687378E1,5.952911377E-1
4.830566406E0,2.242584229E-1,-1.009124756E1,6.766967773E-1
4.835662842E0,3.200225830E-1,-1.019180298E1,7.341613770E-1
4.840728760E0,3.343811035E-1,-1.049826050E1,6.958465576E-1
4.845825195E0,3.870544434E-1,-1.029235840E1,5.809326172E-1
4.850891113E0,4.828338623E-1,-9.631561279E0,3.941802979E-1
4.855987549E0,4.109954834E-1,-9.511840820E0,4.564361572E-1
4.861053467E0,4.445190430E-1,-9.545364380E0,5.234680176E-1
4.866119385E0,5.402832031E-1,-9.540573120E0,4.707946777E-1
4.871215820E0,6.073303223E-1,-9.593246460E0,4.612274170E-1
4.876281738E0,5.929565430E-1,-9.674652100E0,4.277038574E-1
4.881378174E0,5.450744629E-1,-9.741683960E0,3.893890381E-1
4.886444092E0,4.971923828E-1,-9.779998779E0,3.175659180E-1
4.891540527E0,4.971923828E-1,-9.765625000E0,3.079986572E-1
4.896606445E0,5.163421631E-1,-9.665069580E0,3.750305176E-1
4.901702881E0,5.019836426E-1,-9.569305420E0,4.468536377E-1
4.906768799E0,5.354919434E-1,-9.550155640E0,5.139007568E-1
4.911834717E0,5.642242432E-1,-9.808731079E0,5.186767578E-1
4.916931152E0,5.163421631E-1,-9.818298340E0,5.330505371E-1
4.921997070E0,3.918457031E-1,-9.746475220E0,5.522003174E-1
4.927093506E0,1.907348633E-1,-9.430450439E0,2.409515381E-1
4.932159424E0,4.397277832E-1,-9.267639160E0,3.893890381E-1
4.937255859E0,3.056488037E-1,-9.583679199E0,7.437438965E-1
4.942321777E0,3.870544434E-1,-8.592468262E0,9.161224365E-1
4.947418213E0,4.732513428E-1,-8.032226562E0,6.479644775E-1
4.952484131E0,3.343811035E-1,-8.309951782E0,5.857238770E-1
4.957580566E0,4.493103027E-1,-8.721755981E0,5.378417969E-1
4.962646484E0,5.498657227E-1,-9.152709961E0,5.569915771E-1
4.967712402E0,5.067749023E-1,-9.487899780E0,6.000823975E-1
4.972808838E0,5.450744629E-1,-9.746475220E0,6.958465576E-1
4.977874756E0,5.594482422E-1,-9.894912720E0,7.533111572E-1
4.982971191E0,5.642242432E-1,-1.000505066E1,7.868347168E-1
4.988037109E0,5.307159424E-1,-1.006251526E1,7.485198975E-1
4.993133545E0,4.924011230E-1,-1.007208252E1,8.059844971E-1
4.998199463E0,4.636688232E-1,-1.011039734E1,8.538665771E-1
5.003295898E0,4.445190430E-1,-1.000505066E1,8.107757568E-1
5.008361816E0,4.157867432E-1,-9.803939819E0,7.197875977E-1
5.013427734E0,4.109954834E-1,-9.507064819E0,6.719055176E-1
5.018524170E0,4.205780029E-1,-9.210174561E0,6.240234375E-1
5.023590088E0,3.679046631E-1,-8.788803101E0,6.048736572E-1
5.028686523E0,3.152313232E-1,-8.266860962E0,5.905151367E-1
5.033721924E0,3.343811035E-1,-7.955612183E0,6.527557373E-1
5.038818359E0,2.625579834E-1,-7.850265503E0,6.383972168E-1
5.043914795E0,2.098846436E-1,-7.749710083E0,6.527557373E-1
5.049011230E0,1.380615234E-1,-7.630004883E0,5.234680176E-1
5.054077148E0,7.580566406E-2,-7.539016724E0,4.468536377E-1
5.059143066E0,5.665588379E-2,-7.438461304E0,3.941802979E-1
5.064239502E0,3.750610352E-2,-7.409744263E0,2.984161377E-1
5.069305420E0,1.835632324E-2,-7.361846924E0,2.313842773E-1
5.074401855E0,8.059692383E-2,-7.290023804E0,2.361602783E-1
5.079467773E0,1.428527832E-1,-7.208618164E0,2.601013184E-1
5.084564209E0,1.284790039E-1,-7.084121704E0,3.079986572E-1
5.089630127E0,7.580566406E-2,-6.873428345E0,3.702392578E-1
5.094726562E0,-2.952575684E-2,-6.883010864E0,5.282592773E-1
5.099792480E0,-1.516723633E-2,-6.959625244E0,7.150115967E-1
5.104858398E0,5.665588379E-2,-6.940475464E0,6.766967773E-1
5.109954834E0,7.580566406E-2,-7.122436523E0,7.293701172E-1
5.115020752E0,3.271484375E-2,-7.534240723E0,8.155670166E-1
5.120117187E0,8.773803711E-3,-7.682678223E0,6.862792969E-1
5.125183105E0,4.229736328E-2,-8.137573242E0,7.676849365E-1
5.130279541E0,3.750610352E-2,-8.477554321E0,8.538665771E-1
5.135345459E0,1.141204834E-1,-8.702606201E0,9.256896973E-1
5.140441894E0,2.050933838E-1,-8.884567261E0,9.783630371E-1
5.145507812E0,2.864990234E-1,-9.171875000E0,1.093292236E0
5.150604248E0,4.876098633E-1,-9.416076660E0,1.160324097E0
5.155670166E0,7.030944824E-1,-9.736907959E0,1.265670776E0
5.160736084E0,9.042053223E-1,-9.952377319E0,1.347076416E0
5.165832519E0,9.185638428E-1,-9.765625000E0,1.342285156E0
5.170898437E0,8.467407227E-1,-9.559722900E0,1.495513916E0
5.175994873E0,8.419494629E-1,-9.693801880E0,1.639175415E0
5.181060791E0,3.918457031E-1,-1.077598572E1,1.754089355E0
5.186157227E0,-7.908935547E-1,-1.260037231E1,1.955200195E0
5.191223144E0,-1.652801514E0,-1.440080261E1,1.236938477E0
5.196319580E0,-1.298461914E0,-1.803999329E1,2.419677734E0
5.201385498E0,7.892913818E-1,-1.821716309E1,2.280807495E0
5.206451416E0,3.068557739E0,-1.669923401E1,1.270462036E0
5.211547852E0,4.572128296E0,-1.503765869E1,2.218017578E-1
5.216613769E0,5.041381836E0,-1.289724731E1,-5.347595215E-1
5.221710205E0,3.719787598E0,-1.153733826E1,-4.533691406E-1
5.226776123E0,1.746963501E0,-1.092921448E1,2.601013184E-1
5.231872559E0,1.763763428E-1,-1.042643738E1,8.347167969E-1
5.236938477E0,-7.286376953E-1,-1.011039734E1,1.203430176E0
5.242034912E0,-1.212265015E0,-9.880554199E0,1.217788696E0
5.247100830E0,-1.422958374E0,-9.775207520E0,1.078918457E0
5.252197266E0,-1.384643555E0,-9.803939819E0,8.299255371E-1
5.257263184E0,-1.260147095E0,-9.914077759E0,5.139007568E-1
5.262329102E0,-1.126083374E0,-1.012475586E1,2.648925781E-1
5.267425537E0,-9.153900146E-1,-1.023010254E1,9.730529785E-2
5.272491455E0,-6.280822754E-1,-1.040727234E1,-6.550598145E-2
5.277587891E0,-3.742980957E-1,-1.050305176E1,-1.229705811E-1
5.282653809E0,-3.455657959E-1,-1.074725342E1,-6.550598145E-2
5.287750244E0,-4.509124756E-1,-1.097230530E1,6.317138672E-3
5.292816162E0,-3.407745361E-1,-1.075204468E1,6.857299805E-2
5.297882080E0,-3.599395752E-1,-1.066584778E1,2.074432373E-1
5.302978516E0,-5.418853760E-1,-1.057966614E1,2.122192383E-1
5.308044434E0,-8.244018555E-1,-1.045037842E1,1.164550781E-1
5.313140869E0,-1.140441895E0,-1.034024048E1,1.691284180E-1
5.318206787E0,-1.226638794E0,-9.368194580E0,2.505340576E-1
5.323303223E0,-1.796447754E0,-8.271652222E0,3.893890381E-1
5.328369141E0,-2.165161133E0,-8.688247681E0,4.947357178E-1
5.333465576E0,-2.069396973E0,-8.760070801E0,6.096649170E-1
5.338531494E0,-1.911376953E0,-8.506286621E0,6.479644775E-1
5.343627930E0,-1.585769653E0,-7.859848022E0,6.479644775E-1
5.348693848E0,-1.073410034E0,-7.313964844E0,6.479644775E-1
5.353759766E0,-3.982391357E-1,-6.365859985E0,9.879455566E-1
5.358856201E0,3.918457031E-1,-5.824768066E0,1.236938477E0
5.363922119E0,-4.461212158E-1,-8.070541382E0,7.102203369E-1
5.369018555E0,-2.833251953E-1,-9.904495239E0,-5.108184814E-1
5.374084473E0,5.690155029E-1,-1.162832642E1,-1.233871460E0
5.379180908E0,1.440505981E0,-1.253332520E1,-1.133316040E0
5.384246826E0,1.339950562E0,-1.302174377E1,6.623382568E-1
5.389343262E0,2.960815430E-1,-1.346707153E1,3.750854492E0
5.394409180E0,-2.402191162E-1,-1.244714355E1,5.680587769E0
5.399475098E0,-6.041412354E-1,-1.068499756E1,5.311874390E0
5.404571533E0,-1.173965454E0,-9.392135620E0,3.382141113E0
5.409637451E0,-1.456481934E0,-8.702606201E0,1.715789795E0
5.414733887E0,-1.284088135E0,-8.573318481E0,8.682403564E-1
5.419799805E0,-1.126083374E0,-8.918090820E0,2.265930176E-1
5.424896240E0,-1.092559814E0,-9.396926880E0,-1.708526611E-1
5.429962158E0,-1.121292114E0,-9.727325439E0,-3.049163818E-1
5.435058594E0,-9.967956543E-1,-9.732116699E0,7.815551758E-2
5.440124512E0,-7.142791748E-1,-9.698593140E0,4.995269775E-1
5.445220947E0,-5.562591553E-1,-9.765625000E0,1.059768677E0
5.450286865E0,-4.269714355E-1,-9.703384399E0,1.485946655E0
5.455352783E0,-3.359832764E-1,-9.684234619E0,1.639175415E0
5.460449219E0,-3.982391357E-1,-9.698593140E0,1.720565796E0
5.465515137E0,-4.604949951E-1,-9.679443359E0,1.734939575E0
5.470611572E0,-4.748535156E-1,-9.708175659E0,1.754089355E0
5.475677490E0,-5.371093750E-1,-9.708175659E0,1.701416016E0
5.480773926E0,-5.418853760E-1,-9.621978760E0,1.620010376E0
5.485839844E0,-5.323181152E-1,-9.578887939E0,1.576919556E0
5.490936279E0,-4.892120361E-1,-9.497482300E0,1.452423096E0
5.496002197E0,-4.557037354E-1,-9.497482300E0,1.332717896E0
5.501068115E0,-4.317626953E-1,-9.468750000E0,1.184265137E0
5.506164551E0,-4.078216553E-1,-9.540573120E0,1.117233276E0
5.511230469E0,-3.599395752E-1,-9.602828979E0,1.131591797E0
5.516326904E0,-2.881011963E-1,-9.621978760E0,1.155532837E0
5.521392822E0,-2.545928955E-1,-9.645919800E0,1.184265137E0
5.526489258E0,-2.019195557E-1,-9.712951660E0,1.265670776E0
5.531555176E0,-1.683959961E-1,-9.693801880E0,1.284820557E0
5.536651611E0,-1.492462158E-1,-9.660293579E0,1.375808716E0
5.541717529E0,-1.779785156E-1,-9.593246460E0,1.385375977E0
5.546783447E0,-2.354278564E-1,-9.574096680E0,1.394958496E0
5.551879883E0,-2.737426758E-1,-9.588455200E0,1.385375977E0
5.556945801E0,-3.359832764E-1,-9.578887939E0,1.476364136E0
5.562042236E0,-3.742980957E-1,-9.607620239E0,1.414108276E0
5.567108154E0,-4.125976562E-1,-9.583679199E0,1.347076416E0
5.572204590E0,-4.557037354E-1,-9.598037720E0,1.284820557E0
5.577270508E0,-4.509124756E-1,-9.588455200E0,1.256103516E0
5.582366943E0,-4.078216553E-1,-9.574096680E0,1.236938477E0
5.587432861E0,-3.934478760E-1,-9.598037720E0,1.232147217E0
5.592498779E0,-3.551483154E-1,-9.569305420E0,1.260879517E0
5.597595215E0,-3.024749756E-1,-9.569305420E0,1.212997437E0
5.602661133E0,-2.498016357E-1,-9.588455200E0,1.256103516E0
5.607757568E0,-2.306518555E-1,-9.583679199E0,1.337493896E0
5.612792969E0,-2.689514160E-1,-9.612396240E0,1.347076416E0
5.617858887E0,-2.306518555E-1,-9.626770020E0,1.313552856E0
5.622924805E0,-1.971282959E-1,-9.621978760E0,1.284820557E0
5.628051758E0,-2.019195557E-1,-9.650711060E0,1.270462036E0
5.633148193E0,-2.114868164E-1,-9.645919800E0,1.212997437E0
5.638244629E0,-2.114868164E-1,-9.621978760E0,1.155532837E0
5.643310547E0,-2.402191162E-1,-9.636337280E0,1.126815796E0
5.648376465E0,-2.114868164E-1,-9.621978760E0,1.107650757E0
5.653472900E0,-2.498016357E-1,-9.626770020E0,1.155532837E0
5.658538818E0,-2.306518555E-1,-9.674652100E0,1.179489136E0
5.663635254E0,-2.019195557E-1,-9.703384399E0,1.155532837E0
5.668701172E0,-2.258605957E-1,-9.669860840E0,1.141174316E0
5.673767090E0,-2.067108154E-1,-9.636337280E0,1.145965576E0
5.678863525E0,-2.114868164E-1,-9.602828979E0,1.141174316E0
5.683929443E0,-2.258605957E-1,-9.607620239E0,1.136383057E0
5.689025879E0,-1.971282959E-1,-9.554946899E0,1.122024536E0
5.694091797E0,-1.971282959E-1,-9.521423340E0,1.102859497E0
5.699188232E0,-1.444549561E-1,-9.492691040E0,1.078918457E0
5.704254150E0,-1.253051758E-1,-9.535781860E0,1.050201416E0
5.709350586E0,-1.492462158E-1,-9.535781860E0,1.031036377E0
5.714416504E0,-1.971282959E-1,-9.598037720E0,1.002304077E0
5.719512939E0,-1.636047363E-1,-9.641128540E0,1.007095337E0
5.724578857E0,-1.205139160E-1,-9.669860840E0,1.050201416E0
5.729675293E0,-1.253051758E-1,-9.655502319E0,1.031036377E0
5.734741211E0,-1.253051758E-1,-9.660293579E0,1.021469116E0
5.739837646E0,-1.636047363E-1,-9.665069580E0,1.040618896E0
5.744903564E0,-1.971282959E-1,-9.669860840E0,9.927368164E-1
5.749969482E0,-2.162780762E-1,-9.641128540E0,9.304809570E-1
5.755065918E0,-2.258605957E-1,-9.621978760E0,8.490753174E-1
5.760131836E0,-2.402191162E-1,-9.650711060E0,8.011932373E-1
5.765228271E0,-2.833251953E-1,-9.621978760E0,8.395080566E-1
5.770294189E0,-2.976837158E-1,-9.621978760E0,8.347167969E-1
5.775390625E0,-2.833251953E-1,-9.602828979E0,8.251342773E-1
5.780456543E0,-2.785339355E-1,-9.588455200E0,8.825988770E-1
5.785552978E0,-2.450103760E-1,-9.559722900E0,9.113311768E-1
5.790618896E0,-2.114868164E-1,-9.550155640E0,8.682403564E-1
5.795684814E0,-1.923370361E-1,-9.535781860E0,8.347167969E-1
5.800781250E0,-1.923370361E-1,-9.578887939E0,8.538665771E-1
5.805847168E0,-2.019195557E-1,-9.660293579E0,8.155670166E-1
5.810943603E0,-2.545928955E-1,-9.665069580E0,8.107757568E-1
5.815979004E0,-3.168334961E-1,-9.698593140E0,7.676849365E-1
5.821075439E0,-3.455657959E-1,-9.689010620E0,7.437438965E-1
5.826171875E0,-3.886566162E-1,-9.679443359E0,7.485198975E-1
5.831268311E0,-3.647155762E-1,-9.703384399E0,7.197875977E-1
5.836334228E0,-3.647155762E-1,-9.669860840E0,6.862792969E-1
5.841400146E0,-3.647155762E-1,-9.636337280E0,6.719055176E-1
5.846496582E0,-3.742980957E-1,-9.598037720E0,6.910705566E-1
5.851562500E0,-3.407745361E-1,-9.540573120E0,7.197875977E-1
5.856658936E0,-3.024749756E-1,-9.574096680E0,7.628936768E-1
5.861724853E0,-2.689514160E-1,-9.578887939E0,6.719055176E-1
5.866821289E0,-2.785339355E-1,-9.621978760E0,6.814880371E-1
5.871887207E0,-2.545928955E-1,-9.636337280E0,6.910705566E-1
5.876983643E0,-3.024749756E-1,-9.631561279E0,6.958465576E-1
5.882049561E0,-3.312072754E-1,-9.655502319E0,7.628936768E-1
5.887115478E0,-3.599395752E-1,-9.684234619E0,7.102203369E-1
5.892211914E0,-3.312072754E-1,-9.712951660E0,6.671295166E-1
5.897277832E0,-3.168334961E-1,-9.703384399E0,7.006378174E-1
5.902374268E0,-3.312072754E-1,-9.698593140E0,6.575469971E-1
5.907440186E0,-3.647155762E-1,-9.626770020E0,6.479644775E-1
5.912536621E0,-3.359832764E-1,-9.440017700E0,6.862792969E-1
5.917602539E0,-3.934478760E-1,-9.511840820E0,6.958465576E-1
5.922698975E0,-4.221801758E-1,-9.837463379E0,6.336059570E-1
5.927764893E0,-3.216247559E-1,-9.818298340E0,5.665588379E-1
5.932861328E0,-3.072662354E-1,-9.655502319E0,5.713500977E-1
5.937927246E0,-3.072662354E-1,-9.631561279E0,6.144561768E-1
5.942993164E0,-3.024749756E-1,-9.602828979E0,6.048736572E-1
5.948089600E0,-2.833251953E-1,-9.535781860E0,6.719055176E-1
5.953155518E0,-2.641601562E-1,-9.574096680E0,6.431732178E-1
5.958251953E0,-2.785339355E-1,-9.598037720E0,6.383972168E-1
5.963317871E0,-3.024749756E-1,-9.660293579E0,6.766967773E-1
5.968414307E0,-3.407745361E-1,-9.693801880E0,6.766967773E-1
5.973480225E0,-3.982391357E-1,-9.693801880E0,7.006378174E-1
5.978576660E0,-4.413299561E-1,-9.693801880E0,7.341613770E-1
5.983642578E0,-4.652709961E-1,-9.665069580E0,7.197875977E-1
5.988708496E0,-4.604949951E-1,-9.684234619E0,6.814880371E-1
5.993804932E0,-4.796447754E-1,-9.708175659E0,7.533111572E-1
5.998870850E0,-4.892120361E-1,-9.684234619E0,7.437438965E-1
6.003967285E0,-5.371093750E-1,-9.684234619E0,7.102203369E-1
6.009033203E0,-5.706176758E-1,-9.732116699E0,7.533111572E-1
6.014129639E0,-5.897827148E-1,-9.727325439E0,7.341613770E-1
6.019195557E0,-5.897827148E-1,-9.775207520E0,6.623382568E-1
6.024291992E0,-5.035858154E-1,-9.779998779E0,6.383972168E-1
6.029357910E0,-4.509124756E-1,-9.712951660E0,6.096649170E-1
6.034423828E0,-4.604949951E-1,-9.650711060E0,6.336059570E-1
6.039520264E0,-4.413299561E-1,-9.631561279E0,6.144561768E-1
6.044586182E0,-4.604949951E-1,-9.602828979E0,6.144561768E-1
6.049682617E0,-4.652709961E-1,-9.564514160E0,5.617828369E-1
6.054748535E0,-4.748535156E-1,-9.578887939E0,5.761413574E-1
6.059844971E0,-4.892120361E-1,-9.598037720E0,5.522003174E-1
6.064910889E0,-4.987945557E-1,-9.631561279E0,6.240234375E-1
6.070007324E0,-5.706176758E-1,-9.689010620E0,6.048736572E-1
6.075073242E0,-5.802001953E-1,-9.684234619E0,5.952911377E-1
6.080169678E0,-5.754089355E-1,-9.617187500E0,6.096649170E-1
6.085235596E0,-4.844360352E-1,-9.071319580E0,6.766967773E-1
6.090301514E0,-6.184997559E-1,-8.329116821E0,8.011932373E-1
6.095397949E0,-1.054244995E0,-9.717742920E0,8.059844971E-1
6.100463867E0,-7.190551758E-1,-1.066584778E1,5.617828369E-1
6.105560303E0,-4.461212158E-1,-1.032588196E1,5.043182373E-1
6.110626221E0,-6.041412354E-1,-1.007687378E1,6.431732178E-1
6.115722656E0,-6.232910156E-1,-9.890136719E0,7.245788574E-1
6.120788574E0,-6.232910156E-1,-9.799148560E0,7.197875977E-1
6.125885010E0,-5.993499756E-1,-9.727325439E0,6.336059570E-1
6.130950928E0,-5.418853760E-1,-9.607620239E0,5.809326172E-1
6.136016846E0,-5.849914551E-1,-9.588455200E0,6.288146973E-1
6.141113281E0,-6.184997559E-1,-9.636337280E0,5.952911377E-1
6.146179199E0,-6.137237549E-1,-9.617187500E0,5.713500977E-1
6.151275635E0,-5.802001953E-1,-9.617187500E0,5.617828369E-1
6.156341553E0,-6.424407959E-1,-9.564514160E0,5.234680176E-1
6.161437988E0,-6.663970947E-1,-9.526214600E0,5.426177979E-1
6.166503906E0,-6.807556152E-1,-9.497482300E0,4.612274170E-1
6.171600342E0,-7.238464355E-1,-9.521423340E0,4.468536377E-1
6.176666260E0,-7.813110352E-1,-9.578887939E0,4.660034180E-1
6.181732178E0,-7.908935547E-1,-9.578887939E0,5.617828369E-1
6.186828613E0,-7.525787354E-1,-9.626770020E0,6.048736572E-1
6.191894531E0,-7.669525146E-1,-9.669860840E0,6.910705566E-1
6.196990967E0,-7.669525146E-1,-9.727325439E0,7.054290771E-1
6.202056885E0,-7.334289551E-1,-9.746475220E0,7.102203369E-1
6.207153320E0,-7.046966553E-1,-9.741683960E0,7.868347168E-1
6.212219238E0,-6.807556152E-1,-9.708175659E0,8.155670166E-1
6.217315674E0,-6.328735352E-1,-9.732116699E0,7.724609375E-1
6.222381592E0,-6.184997559E-1,-9.770416260E0,7.293701172E-1
6.227447510E0,-6.041412354E-1,-9.779998779E0,7.437438965E-1
6.232543945E0,-6.616058350E-1,-9.741683960E0,7.533111572E-1
6.237609863E0,-6.616058350E-1,-9.760848999E0,7.245788574E-1
6.242706299E0,-6.424407959E-1,-9.765625000E0,7.820434570E-1
6.247772217E0,-6.041412354E-1,-9.741683960E0,7.868347168E-1
6.252868652E0,-5.466766357E-1,-9.655502319E0,8.059844971E-1
6.257934570E0,-4.892120361E-1,-9.607620239E0,8.059844971E-1
6.263031006E0,-4.987945557E-1,-9.569305420E0,7.485198975E-1
6.268096924E0,-5.562591553E-1,-9.602828979E0,6.527557373E-1
6.273193359E0,-5.802001953E-1,-9.559722900E0,6.479644775E-1
6.278259277E0,-6.089324951E-1,-9.569305420E0,6.814880371E-1
6.283325195E0,-6.855468750E-1,-9.602828979E0,6.288146973E-1
6.288421631E0,-7.477874756E-1,-9.631561279E0,5.665588379E-1
6.293487549E0,-7.669525146E-1,-9.607620239E0,5.713500977E-1
6.298583984E0,-7.430114746E-1,-9.554946899E0,6.048736572E-1
6.303649902E0,-7.382202148E-1,-9.578887939E0,6.192321777E-1
6.308746338E0,-7.334289551E-1,-9.636337280E0,6.719055176E-1
6.313812256E0,-6.903381348E-1,-9.612396240E0,6.719055176E-1
6.318908691E0,-6.137237549E-1,-9.650711060E0,7.150115967E-1
6.323974609E0,-5.993499756E-1,-9.698593140E0,7.964019775E-1
6.329040527E0,-6.184997559E-1,-9.756057739E0,8.155670166E-1
6.334136963E0,-6.232910156E-1,-9.789566040E0,8.059844971E-1
6.339202881E0,-5.945587158E-1,-9.746475220E0,8.059844971E-1
6.344299316E0,-6.089324951E-1,-9.760848999E0,7.964019775E-1
6.349365234E0,-6.089324951E-1,-9.751266479E0,7.437438965E-1
6.354461670E0,-5.562591553E-1,-9.741683960E0,6.623382568E-1
6.359527588E0,-5.754089355E-1,-9.693801880E0,6.383972168E-1
6.364624023E0,-5.945587158E-1,-9.689010620E0,5.905151367E-1
6.369689941E0,-6.280822754E-1,-9.665069580E0,5.905151367E-1
6.374755859E0,-6.616058350E-1,-9.684234619E0,5.905151367E-1
6.379852295E0,-6.568145752E-1,-9.674652100E0,5.569915771E-1
6.384918213E0,-6.520233154E-1,-9.660293579E0,5.665588379E-1
6.390014648E0,-6.424407959E-1,-9.669860840E0,6.096649170E-1
6.395080566E0,-6.711730957E-1,-9.660293579E0,6.336059570E-1
6.400177002E0,-7.334289551E-1,-9.660293579E0,6.144561768E-1
6.405242920E0,-7.573699951E-1,-9.679443359E0,5.713500977E-1
6.410339355E0,-7.573699951E-1,-9.674652100E0,5.139007568E-1
6.415405273E0,-8.004608154E-1,-9.602828979E0,5.139007568E-1
6.420501709E0,-8.196258545E-1,-9.598037720E0,5.091094971E-1
6.425567627E0,-7.861022949E-1,-9.540573120E0,4.516448975E-1
6.430633545E0,-7.861022949E-1,-9.550155640E0,4.085540771E-1
6.435729980E0,-8.148345947E-1,-9.559722900E0,4.229125977E-1
6.440795898E0,-8.244018555E-1,-9.545364380E0,4.085540771E-1
6.445892334E0,-8.531341553E-1,-9.569305420E0,4.324951172E-1
6.450958252E0,-8.435668945E-1,-9.621978760E0,4.516448975E-1
6.456054687E0,-8.483428955E-1,-9.631561279E0,4.803771973E-1
6.461120605E0,-8.770751953E-1,-9.684234619E0,5.139007568E-1
6.466217041E0,-8.244018555E-1,-9.679443359E0,5.378417969E-1
6.471282959E0,-7.908935547E-1,-9.679443359E0,5.139007568E-1
6.476348877E0,-6.903381348E-1,-9.612396240E0,4.947357178E-1
6.481445312E0,-6.999053955E-1,-9.607620239E0,4.899444580E-1
6.486511230E0,-7.238464355E-1,-9.693801880E0,4.516448975E-1
6.491607666E0,-7.334289551E-1,-9.717742920E0,4.372863770E-1
6.496673584E0,-7.190551758E-1,-9.703384399E0,4.468536377E-1
6.501770019E0,-7.573699951E-1,-9.650711060E0,4.324951172E-1
6.506835937E0,-5.371093750E-1,-9.018646240E0,5.665588379E-1
6.511932373E0,-5.849914551E-1,-7.773651123E0,7.964019775E-1
6.516998291E0,-1.652801514E0,-9.837463379E0,8.059844971E-1
6.522094727E0,-1.092559814E0,-1.091006470E1,4.707946777E-1
6.527160644E0,-4.125976562E-1,-1.035459900E1,2.936248779E-1
6.532226562E0,-6.041412354E-1,-9.957168579E0,3.702392578E-1
6.537322998E0,-6.903381348E-1,-9.689010620E0,5.091094971E-1
6.542388916E0,-7.046966553E-1,-9.559722900E0,4.181213379E-1
6.547485352E0,-7.717285156E-1,-9.521423340E0,3.798217773E-1
6.552551269E0,-8.100433350E-1,-9.516632080E0,4.181213379E-1
6.557647705E0,-8.244018555E-1,-9.564514160E0,4.277038574E-1
6.562713623E0,-8.004608154E-1,-9.607620239E0,4.803771973E-1
6.567810059E0,-7.430114746E-1,-9.626770020E0,4.899444580E-1
6.572875977E0,-7.382202148E-1,-9.645919800E0,5.091094971E-1
6.577941894E0,-7.142791748E-1,-9.660293579E0,5.186767578E-1
6.583038330E0,-7.286376953E-1,-9.689010620E0,5.043182373E-1
6.588104248E0,-7.190551758E-1,-9.708175659E0,4.995269775E-1
6.593200684E0,-7.525787354E-1,-9.660293579E0,5.043182373E-1
6.598266602E0,-7.765197754E-1,-9.650711060E0,5.474090576E-1
6.603363037E0,-8.196258545E-1,-9.641128540E0,6.431732178E-1
6.608428955E0,-8.435668945E-1,-9.641128540E0,6.910705566E-1
6.613525391E0,-8.339843750E-1,-9.636337280E0,6.814880371E-1
6.618591309E0,-8.148345947E-1,-9.641128540E0,6.431732178E-1
6.623657227E0,-8.339843750E-1,-9.645919800E0,6.623382568E-1
6.628753662E0,-8.052520752E-1,-9.674652100E0,6.336059570E-1
6.633819580E0,-8.052520752E-1,-9.693801880E0,5.761413574E-1
6.638916016E0,-8.148345947E-1,-9.684234619E0,5.378417969E-1
6.643981934E0,-8.244018555E-1,-9.655502319E0,5.186767578E-1
6.649078369E0,-8.339843750E-1,-9.660293579E0,5.761413574E-1
6.654144287E0,-9.201812744E-1,-9.689010620E0,6.000823975E-1
6.659240723E0,-9.153900146E-1,-9.674652100E0,6.431732178E-1
6.664306641E0,-8.722839355E-1,-9.650711060E0,6.527557373E-1
6.669372559E0,-8.627166748E-1,-9.655502319E0,7.197875977E-1
6.674468994E0,-8.435668945E-1,-9.684234619E0,7.676849365E-1
6.679534912E0,-8.483428955E-1,-9.631561279E0,7.150115967E-1
6.684631348E0,-8.004608154E-1,-9.631561279E0,6.048736572E-1
6.689697266E0,-8.196258545E-1,-9.636337280E0,6.144561768E-1
6.694793701E0,-8.004608154E-1,-9.660293579E0,5.043182373E-1
6.699829102E0,-7.477874756E-1,-9.645919800E0,4.372863770E-1
6.704895019E0,-7.286376953E-1,-9.612396240E0,4.133300781E-1
6.709960937E0,-7.094879150E-1,-9.588455200E0,3.702392578E-1
6.715057373E0,-7.094879150E-1,-9.621978760E0,3.654479980E-1
6.720153809E0,-7.046966553E-1,-9.631561279E0,3.846130371E-1
6.725250244E0,-7.094879150E-1,-9.693801880E0,4.372863770E-1
6.730346680E0,-7.238464355E-1,-9.732116699E0,4.324951172E-1
6.735412598E0,-7.286376953E-1,-9.727325439E0,4.707946777E-1
6.740509033E0,-7.717285156E-1,-9.736907959E0,4.851684570E-1
6.745574951E0,-8.387756348E-1,-9.722534180E0,5.043182373E-1
6.750640869E0,-9.153900146E-1,-9.722534180E0,4.899444580E-1
6.755737305E0,-1.006362915E0,-9.712951660E0,5.474090576E-1
6.760803223E0,-1.121292114E0,-9.732116699E0,5.617828369E-1
6.765899658E0,-1.092559814E0,-9.655502319E0,4.851684570E-1
6.770965576E0,-1.054244995E0,-9.554946899E0,4.516448975E-1
6.776031494E0,-1.154800415E0,-9.607620239E0,4.947357178E-1
6.781127930E0,-1.150024414E0,-9.607620239E0,4.803771973E-1
6.786224365E0,-1.173965454E0,-9.588455200E0,4.947357178E-1
6.791290283E0,-1.240997314E0,-9.569305420E0,4.803771973E-1
6.796386719E0,-1.279312134E0,-9.578887939E0,4.516448975E-1
6.801452637E0,-1.264938354E0,-9.650711060E0,4.564361572E-1
6.806549072E0,-1.255371094E0,-9.655502319E0,4.277038574E-1
6.811614990E0,-1.236206055E0,-9.655502319E0,3.654479980E-1
6.816680908E0,-1.221847534E0,-9.655502319E0,4.229125977E-1
6.821777344E0,-1.231414795E0,-9.669860840E0,4.851684570E-1
6.826843262E0,-1.221847534E0,-9.626770020E0,5.378417969E-1
6.831939697E0,-1.188323975E0,-9.612396240E0,5.378417969E-1
6.837005615E0,-1.130859375E0,-9.612396240E0,5.282592773E-1
6.842102051E0,-1.063827515E0,-9.621978760E0,5.091094971E-1
6.847167969E0,-9.680633545E-1,-9.631561279E0,5.091094971E-1
6.852264404E0,-9.297485352E-1,-9.636337280E0,5.186767578E-1
6.857330322E0,-9.441223145E-1,-9.660293579E0,5.282592773E-1
6.862426758E0,-9.345397949E-1,-9.674652100E0,5.282592773E-1
6.867492676E0,-8.818664551E-1,-9.684234619E0,5.905151367E-1
6.872558594E0,-8.100433350E-1,-9.722534180E0,5.809326172E-1
6.877655029E0,-7.669525146E-1,-9.736907959E0,5.569915771E-1
6.882720947E0,-7.334289551E-1,-9.698593140E0,5.234680176E-1
6.887817383E0,-6.999053955E-1,-9.712951660E0,5.234680176E-1
6.892883301E0,-7.238464355E-1,-9.674652100E0,4.851684570E-1
6.897979736E0,-7.669525146E-1,-9.689010620E0,5.426177979E-1
6.903045654E0,-8.052520752E-1,-9.689010620E0,5.857238770E-1
6.908142090E0,-7.908935547E-1,-9.641128540E0,5.426177979E-1
6.913208008E0,-7.813110352E-1,-9.631561279E0,5.809326172E-1
6.918273926E0,-8.004608154E-1,-9.626770020E0,6.336059570E-1
6.923370361E0,-8.244018555E-1,-9.617187500E0,6.719055176E-1
6.928436279E0,-8.339843750E-1,-9.578887939E0,6.958465576E-1
6.933532715E0,-8.148345947E-1,-9.578887939E0,6.719055176E-1
6.938598633E0,-7.908935547E-1,-9.588455200E0,6.575469971E-1
6.943695068E0,-7.908935547E-1,-9.569305420E0,6.862792969E-1
6.948760986E0,-8.004608154E-1,-9.583679199E0,6.479644775E-1
6.953857422E0,-7.573699951E-1,-9.583679199E0,6.383972168E-1
6.958923340E0,-6.568145752E-1,-9.578887939E0,6.000823975E-1
6.963989258E0,-6.232910156E-1,-9.588455200E0,6.048736572E-1
6.969085693E0,-6.280822754E-1,-9.578887939E0,6.048736572E-1
6.974151611E0,-6.089324951E-1,-9.554946899E0,5.905151367E-1
6.979248047E0,-5.849914551E-1,-9.516632080E0,5.426177979E-1
6.984313965E0,-6.376647949E-1,-9.526214600E0,5.617828369E-1
6.989410400E0,-6.759643555E-1,-9.540573120E0,5.330505371E-1
6.994476318E0,-7.142791748E-1,-9.554946899E0,5.617828369E-1
6.999572754E0,-7.908935547E-1,-9.578887939E0,5.522003174E-1
7.004638672E0,-7.430114746E-1,-9.607620239E0,5.617828369E-1
7.009735107E0,-8.052520752E-1,-9.612396240E0,5.761413574E-1
7.014801025E0,-8.291931152E-1,-9.588455200E0,6.048736572E-1
7.019866943E0,-8.291931152E-1,-9.569305420E0,5.952911377E-1
7.024963379E0,-8.004608154E-1,-9.602828979E0,6.527557373E-1
7.030029297E0,-7.956695557E-1,-9.617187500E0,7.150115967E-1
7.035125732E0,-8.483428955E-1,-9.650711060E0,7.676849365E-1
7.040191650E0,-9.058074951E-1,-9.660293579E0,7.868347168E-1
7.045288086E0,-9.345397949E-1,-9.650711060E0,7.724609375E-1
7.050354004E0,-1.011154175E0,-9.626770020E0,7.293701172E-1
7.055419922E0,-1.020736694E0,-9.607620239E0,7.437438965E-1
7.060516357E0,-1.001571655E0,-9.612396240E0,6.623382568E-1
7.065582275E0,-4.652709961E-1,-9.674652100E0,8.011932373E-1
7.070678711E0,-1.205139160E-1,-9.679443359E0,4.612274170E-1
7.075744629E0,-2.928924561E-1,-9.507064819E0,1.164550781E-1
7.080841064E0,-2.354278564E-1,-9.765625000E0,-7.029724121E-2
7.085906982E0,3.810760498E0,-1.042164612E1,-1.885101318E0
7.091003418E0,-3.359832764E-1,-9.842239380E0,2.611221313E0
7.096069336E0,-4.329513550E0,-8.807952881E0,4.378128052E0
7.101165771E0,-2.500350952E0,-9.152709961E0,8.586578369E-1
7.106231689E0,-2.026290894E0,-9.899703979E0,-1.181198120E0
7.111297607E0,-1.782089233E0,-9.775207520E0,-6.927795410E-1
7.116363525E0,-1.442108154E0,-9.655502319E0,4.133300781E-1
7.121459961E0,-1.681533813E0,-9.751266479E0,8.778076172E-1
7.126556396E0,-1.576187134E0,-9.779998779E0,6.814880371E-1
7.131622314E0,-1.202697754E0,-9.832672119E0,5.665588379E-1
7.136718750E0,-1.145233154E0,-9.808731079E0,7.245788574E-1
7.141784668E0,-1.341552734E0,-9.674652100E0,8.778076172E-1
7.146881103E0,-1.537872314E0,-9.507064819E0,8.634490967E-1
7.151947021E0,-1.671951294E0,-9.401718140E0,6.336059570E-1
7.157012939E0,-1.715057373E0,-9.430450439E0,4.803771973E-1
7.162109375E0,-1.600128174E0,-9.521423340E0,5.186767578E-1
7.167175293E0,-1.470840454E0,-9.569305420E0,6.527557373E-1
7.172271728E0,-1.394226074E0,-9.521423340E0,7.772521973E-1
7.177337646E0,-1.303253174E0,-9.420867920E0,7.916259766E-1
7.182434082E0,-1.202697754E0,-9.435226440E0,8.059844971E-1
7.187500000E0,-1.164382935E0,-9.473541260E0,8.011932373E-1
7.192596436E0,-1.111709595E0,-9.511840820E0,7.581024170E-1
7.197662353E0,-9.920043945E-1,-9.550155640E0,7.245788574E-1
7.202758789E0,-8.531341553E-1,-9.578887939E0,6.527557373E-1
7.207824707E0,-7.765197754E-1,-9.559722900E0,6.288146973E-1
7.212890625E0,-6.903381348E-1,-9.612396240E0,6.288146973E-1
7.217987061E0,-6.568145752E-1,-9.660293579E0,6.000823975E-1
7.223052978E0,-6.520233154E-1,-9.674652100E0,5.952911377E-1
7.228149414E0,-6.520233154E-1,-9.703384399E0,6.910705566E-1
7.233215332E0,-7.238464355E-1,-9.684234619E0,7.054290771E-1
7.238311768E0,-7.142791748E-1,-9.674652100E0,7.389526367E-1
7.243377686E0,-6.280822754E-1,-9.684234619E0,7.245788574E-1
7.248474121E0,-7.046966553E-1,-9.736907959E0,7.724609375E-1
7.253540039E0,-7.286376953E-1,-9.722534180E0,7.964019775E-1
7.258605957E0,-7.094879150E-1,-9.736907959E0,7.820434570E-1
7.263702393E0,-8.100433350E-1,-9.684234619E0,8.251342773E-1
7.268768311E0,-8.291931152E-1,-9.650711060E0,9.448547363E-1
7.273864746E0,-8.339843750E-1,-9.660293579E0,9.831542969E-1
7.278930664E0,-8.627166748E-1,-9.674652100E0,9.113311768E-1
7.283996582E0,-8.483428955E-1,-9.669860840E0,8.586578369E-1
7.289093018E0,-8.722839355E-1,-9.660293579E0,8.873901367E-1
7.294189453E0,-8.483428955E-1,-9.660293579E0,8.203582764E-1
7.299255371E0,-8.435668945E-1,-9.636337280E0,8.107757568E-1
7.304321289E0,-7.956695557E-1,-9.641128540E0,8.107757568E-1
7.309417725E0,-7.956695557E-1,-9.612396240E0,8.203582764E-1
7.314483643E0,-7.382202148E-1,-9.636337280E0,8.538665771E-1
7.319580078E0,-7.621612549E-1,-9.641128540E0,8.155670166E-1
7.324645996E0,-6.951141357E-1,-9.679443359E0,8.155670166E-1
7.329742432E0,-6.759643555E-1,-9.712951660E0,7.437438965E-1
7.334808350E0,-6.855468750E-1,-9.712951660E0,7.006378174E-1
7.339904785E0,-6.759643555E-1,-9.712951660E0,6.671295166E-1
7.344970703E0,-7.094879150E-1,-9.698593140E0,6.719055176E-1
7.350067139E0,-7.573699951E-1,-9.665069580E0,7.341613770E-1
7.355133057E0,-7.573699951E-1,-9.631561279E0,7.676849365E-1
7.360198975E0,-7.382202148E-1,-9.602828979E0,7.916259766E-1
7.365295410E0,-7.286376953E-1,-9.598037720E0,7.916259766E-1
7.370361328E0,-7.813110352E-1,-9.641128540E0,8.155670166E-1
7.375457764E0,-8.196258545E-1,-9.626770020E0,8.059844971E-1
7.380523682E0,-7.861022949E-1,-9.598037720E0,7.676849365E-1
7.385620117E0,-7.573699951E-1,-9.612396240E0,7.581024170E-1
7.390686035E0,-7.573699951E-1,-9.612396240E0,7.150115967E-1
7.395782471E0,-6.807556152E-1,-9.612396240E0,6.671295166E-1
7.400848389E0,-6.616058350E-1,-9.612396240E0,6.336059570E-1
7.405931069E0,-6.759643555E-1,-9.626770020E0,6.527557373E-1
7.411027504E0,-7.430114746E-1,-9.602828979E0,6.575469971E-1
7.416093422E0,-7.956695557E-1,-9.655502319E0,6.240234375E-1
7.421189858E0,-8.052520752E-1,-9.655502319E0,6.431732178E-1
7.426255776E0,-8.339843750E-1,-9.655502319E0,6.671295166E-1
7.431352211E0,-8.818664551E-1,-9.645919800E0,6.527557373E-1
7.436418129E0,-8.531341553E-1,-9.655502319E0,6.623382568E-1
7.441514565E0,-8.483428955E-1,-9.641128540E0,6.192321777E-1
7.446580483E0,-8.339843750E-1,-9.612396240E0,6.623382568E-1
7.451646401E0,-8.483428955E-1,-9.621978760E0,6.766967773E-1
7.456742836E0,-8.196258545E-1,-9.612396240E0,6.671295166E-1
7.461808754E0,-8.196258545E-1,-9.602828979E0,6.958465576E-1
7.466905190E0,-8.244018555E-1,-9.607620239E0,6.766967773E-1
7.471971108E0,-8.387756348E-1,-9.617187500E0,7.150115967E-1
7.477067543E0,-8.339843750E-1,-9.631561279E0,6.671295166E-1
7.482133461E0,-8.722839355E-1,-9.621978760E0,5.857238770E-1
7.487229897E0,-8.722839355E-1,-9.598037720E0,6.000823975E-1
7.492295815E0,-8.770751953E-1,-9.631561279E0,6.719055176E-1
7.497361733E0,-8.962402344E-1,-9.607620239E0,7.102203369E-1
7.502458168E0,-8.914489746E-1,-9.607620239E0,6.958465576E-1
7.507524086E0,-8.339843750E-1,-9.631561279E0,6.958465576E-1
7.512620522E0,-7.765197754E-1,-9.660293579E0,6.719055176E-1
7.517686440E0,-7.430114746E-1,-9.645919800E0,6.527557373E-1
7.522782875E0,-7.046966553E-1,-9.660293579E0,6.288146973E-1
7.527848793E0,-6.711730957E-1,-9.617187500E0,5.905151367E-1
7.532945229E0,-6.616058350E-1,-9.564514160E0,5.378417969E-1
7.538011147E0,-6.376647949E-1,-9.645919800E0,5.091094971E-1
7.543107582E0,-6.520233154E-1,-9.617187500E0,5.378417969E-1
7.548173500E0,-6.903381348E-1,-9.607620239E0,5.857238770E-1
7.553239418E0,-7.669525146E-1,-9.621978760E0,5.713500977E-1
7.558335854E0,-7.813110352E-1,-9.636337280E0,5.809326172E-1
7.563401772E0,-6.951141357E-1,-9.641128540E0,5.952911377E-1
7.568498207E0,-6.328735352E-1,-9.679443359E0,5.713500977E-1
7.573564125E0,-6.328735352E-1,-9.665069580E0,6.288146973E-1
7.578660561E0,-6.855468750E-1,-9.669860840E0,6.479644775E-1
7.583726479E0,-6.999053955E-1,-9.641128540E0,6.575469971E-1
7.588822914E0,-7.334289551E-1,-9.636337280E0,6.862792969E-1
7.593888832E0,-7.334289551E-1,-9.621978760E0,6.479644775E-1
7.598954750E0,-7.573699951E-1,-9.641128540E0,6.958465576E-1
7.604051186E0,-7.813110352E-1,-9.636337280E0,6.527557373E-1
7.609117104E0,-7.477874756E-1,-9.645919800E0,5.761413574E-1
7.614213539E0,-7.621612549E-1,-9.631561279E0,5.713500977E-1
7.619279457E0,-7.765197754E-1,-9.593246460E0,5.952911377E-1
7.624375893E0,-7.621612549E-1,-9.564514160E0,6.144561768E-1
7.629441811E0,-7.956695557E-1,-9.564514160E0,6.048736572E-1
7.634538246E0,-7.334289551E-1,-9.588455200E0,5.761413574E-1
7.639604164E0,-7.190551758E-1,-9.655502319E0,5.569915771E-1
7.644700600E0,-7.573699951E-1,-9.617187500E0,5.474090576E-1
7.649766518E0,-7.477874756E-1,-9.612396240E0,5.234680176E-1
7.654832436E0,-7.621612549E-1,-9.602828979E0,5.091094971E-1
7.659928871E0,-7.621612549E-1,-9.674652100E0,5.713500977E-1
7.664994789E0,-7.765197754E-1,-9.655502319E0,5.617828369E-1
7.670091225E0,-8.244018555E-1,-9.641128540E0,5.091094971E-1
7.675157143E0,-8.196258545E-1,-9.626770020E0,4.755859375E-1
7.680253578E0,-8.196258545E-1,-9.636337280E0,4.851684570E-1
7.685319496E0,-8.483428955E-1,-9.631561279E0,5.474090576E-1
7.690415932E0,-9.153900146E-1,-9.598037720E0,4.995269775E-1
7.695481850E0,-9.105987549E-1,-9.617187500E0,5.378417969E-1
7.700547768E0,-9.584808350E-1,-9.612396240E0,6.144561768E-1
7.705644203E0,-9.824218750E-1,-9.636337280E0,6.719055176E-1
7.710710121E0,-9.680633545E-1,-9.621978760E0,6.671295166E-1
7.715806557E0,-9.249572754E-1,-9.598037720E0,6.623382568E-1
7.720872475E0,-9.393310547E-1,-9.626770020E0,6.431732178E-1
7.725968910E0,-9.249572754E-1,-9.631561279E0,6.431732178E-1
7.731034828E0,-9.010162354E-1,-9.612396240E0,6.288146973E-1
7.736131264E0,-8.387756348E-1,-9.641128540E0,5.857238770E-1
7.741197182E0,-8.914489746E-1,-9.621978760E0,6.048736572E-1
7.746263100E0,-9.632720947E-1,-9.636337280E0,6.336059570E-1
7.751359535E0,-9.488983154E-1,-9.631561279E0,5.952911377E-1
7.756425453E0,-9.249572754E-1,-9.626770020E0,5.761413574E-1
7.761521889E0,-8.962402344E-1,-9.645919800E0,5.905151367E-1
7.766587807E0,-8.866577148E-1,-9.660293579E0,5.569915771E-1
7.771684242E0,-8.435668945E-1,-9.645919800E0,5.569915771E-1
7.776750160E0,-8.244018555E-1,-9.684234619E0,5.905151367E-1
7.781846596E0,-8.148345947E-1,-9.660293579E0,6.288146973E-1
7.786912514E0,-8.579254150E-1,-9.684234619E0,6.000823975E-1
7.791978432E0,-8.675079346E-1,-9.684234619E0,5.617828369E-1
7.797074867E0,-9.153900146E-1,-9.631561279E0,5.905151367E-1
7.802140785E0,-9.824218750E-1,-9.602828979E0,5.761413574E-1
7.807237221E0,-9.632720947E-1,-9.612396240E0,6.383972168E-1
7.812303139E0,-1.006362915E0,-9.602828979E0,6.814880371E-1
7.817399574E0,-9.967956543E-1,-9.617187500E0,6.575469971E-1
7.822465492E0,-9.776306152E-1,-9.583679199E0,6.431732178E-1
7.827561928E0,-9.010162354E-1,-9.593246460E0,6.336059570E-1
7.832627846E0,-8.818664551E-1,-9.612396240E0,6.096649170E-1
7.837693764E0,-8.722839355E-1,-9.550155640E0,5.665588379E-1
7.842790199E0,-8.483428955E-1,-9.588455200E0,5.139007568E-1
7.847825600E0,-8.770751953E-1,-9.636337280E0,5.043182373E-1
7.852922035E0,-8.866577148E-1,-9.612396240E0,5.330505371E-1
7.858018471E0,-8.962402344E-1,-9.641128540E0,5.330505371E-1
7.863084389E0,-8.962402344E-1,-9.641128540E0,5.617828369E-1
7.868180824E0,-8.387756348E-1,-9.617187500E0,6.000823975E-1
7.873277260E0,-8.435668945E-1,-9.621978760E0,5.905151367E-1
7.878343178E0,-8.435668945E-1,-9.669860840E0,6.000823975E-1
7.883439614E0,-8.339843750E-1,-9.626770020E0,5.857238770E-1
7.888505531E0,-8.531341553E-1,-9.607620239E0,6.192321777E-1
7.893571449E0,-8.722839355E-1,-9.660293579E0,6.192321777E-1
7.898667885E0,-8.866577148E-1,-9.665069580E0,6.431732178E-1
7.903733803E0,-8.962402344E-1,-9.650711060E0,6.719055176E-1
7.908830239E0,-8.722839355E-1,-9.650711060E0,7.197875977E-1
7.913896156E0,-8.722839355E-1,-9.564514160E0,6.671295166E-1
7.918992592E0,-8.627166748E-1,-9.550155640E0,6.527557373E-1
7.924058510E0,-8.387756348E-1,-9.526214600E0,5.809326172E-1
7.929154946E0,-7.956695557E-1,-9.554946899E0,6.048736572E-1
7.934220864E0,-7.525787354E-1,-9.569305420E0,6.000823975E-1
7.939286781E0,-7.238464355E-1,-9.621978760E0,6.000823975E-1
7.944383217E0,-6.663970947E-1,-9.665069580E0,5.569915771E-1
7.949449135E0,-6.472320557E-1,-9.693801880E0,5.809326172E-1
7.954545571E0,-6.089324951E-1,-9.689010620E0,5.378417969E-1
7.959611489E0,-6.232910156E-1,-9.641128540E0,5.282592773E-1
7.964707924E0,-6.616058350E-1,-9.665069580E0,5.665588379E-1
7.969773842E0,-6.807556152E-1,-9.674652100E0,5.809326172E-1
7.974870278E0,-6.616058350E-1,-9.650711060E0,5.905151367E-1
7.979936196E0,-6.903381348E-1,-9.631561279E0,5.569915771E-1
7.985032631E0,-7.190551758E-1,-9.621978760E0,5.952911377E-1
7.990098549E0,-7.046966553E-1,-9.602828979E0,6.192321777E-1
7.995164467E0,-7.430114746E-1,-9.598037720E0,6.336059570E-1
8.000260903E0,-7.861022949E-1,-9.626770020E0,6.240234375E-1
8.005326821E0,-8.483428955E-1,-9.636337280E0,6.096649170E-1
8.010423256E0,-8.675079346E-1,-9.645919800E0,6.336059570E-1
8.015489174E0,-8.675079346E-1,-9.689010620E0,6.336059570E-1
8.020585610E0,-8.387756348E-1,-9.660293579E0,6.240234375E-1
8.025651528E0,-8.579254150E-1,-9.660293579E0,5.234680176E-1
8.030747963E0,-8.579254150E-1,-9.693801880E0,5.617828369E-1
8.035813881E0,-8.675079346E-1,-9.693801880E0,5.665588379E-1
8.040879799E0,-8.818664551E-1,-9.684234619E0,5.522003174E-1
8.045976235E0,-8.244018555E-1,-9.703384399E0,5.809326172E-1
8.051042153E0,-8.148345947E-1,-9.665069580E0,5.857238770E-1
8.056138588E0,-8.148345947E-1,-9.698593140E0,5.569915771E-1
8.061204506E0,-8.196258545E-1,-9.684234619E0,5.234680176E-1
8.066300942E0,-8.004608154E-1,-9.679443359E0,5.330505371E-1
8.071366860E0,-7.861022949E-1,-9.693801880E0,4.995269775E-1
8.076463295E0,-8.052520752E-1,-9.655502319E0,5.043182373E-1
8.081529213E0,-7.621612549E-1,-9.598037720E0,5.426177979E-1
8.086595131E0,-7.765197754E-1,-9.612396240E0,5.234680176E-1
8.091691567E0,-7.861022949E-1,-9.612396240E0,4.803771973E-1
8.096757485E0,-7.621612549E-1,-9.578887939E0,4.660034180E-1
8.101853920E0,-8.100433350E-1,-9.588455200E0,4.372863770E-1
8.106919838E0,-8.339843750E-1,-9.621978760E0,4.372863770E-1
8.112016274E0,-8.579254150E-1,-9.669860840E0,4.277038574E-1
8.117082192E0,-8.579254150E-1,-9.612396240E0,4.612274170E-1
8.122178627E0,-8.627166748E-1,-9.679443359E0,4.660034180E-1
8.127244545E0,-8.579254150E-1,-9.669860840E0,4.947357178E-1
8.132340981E0,-8.339843750E-1,-9.636337280E0,4.851684570E-1
8.137406899E0,-7.908935547E-1,-9.641128540E0,4.755859375E-1
8.142472817E0,-7.669525146E-1,-9.617187500E0,4.468536377E-1
8.147569252E0,-7.717285156E-1,-9.631561279E0,4.420623779E-1
8.152635170E0,-7.861022949E-1,-9.650711060E0,4.660034180E-1
8.157731606E0,-8.148345947E-1,-9.636337280E0,4.516448975E-1
8.162797524E0,-8.100433350E-1,-9.660293579E0,4.085540771E-1
8.167893959E0,-8.052520752E-1,-9.689010620E0,4.660034180E-1
8.172959877E0,-7.956695557E-1,-9.703384399E0,4.947357178E-1
8.178056313E0,-7.956695557E-1,-9.660293579E0,4.851684570E-1
8.183122231E0,-7.861022949E-1,-9.679443359E0,5.474090576E-1
8.188188149E0,-7.477874756E-1,-9.660293579E0,4.947357178E-1
8.193284584E0,-7.525787354E-1,-9.650711060E0,4.612274170E-1
8.198350502E0,-7.908935547E-1,-9.641128540E0,4.947357178E-1
8.203446938E0,-7.813110352E-1,-9.631561279E0,5.282592773E-1
8.208512856E0,-8.100433350E-1,-9.655502319E0,5.282592773E-1
8.213609291E0,-8.483428955E-1,-9.665069580E0,5.713500977E-1
8.218675209E0,-8.531341553E-1,-9.669860840E0,6.000823975E-1
8.223771645E0,-8.100433350E-1,-9.689010620E0,5.952911377E-1
8.228837563E0,-8.291931152E-1,-9.645919800E0,6.096649170E-1
8.233903481E0,-8.435668945E-1,-9.631561279E0,5.617828369E-1
8.238999916E0,-8.052520752E-1,-9.655502319E0,5.665588379E-1
8.244065834E0,-8.339843750E-1,-9.607620239E0,5.713500977E-1
8.249162270E0,-8.244018555E-1,-9.588455200E0,5.426177979E-1
8.254228188E0,-8.196258545E-1,-9.598037720E0,5.282592773E-1
8.259324623E0,-8.244018555E-1,-9.569305420E0,4.851684570E-1
8.264390541E0,-8.100433350E-1,-9.593246460E0,4.324951172E-1
8.269486977E0,-8.291931152E-1,-9.621978760E0,4.707946777E-1
8.274552895E0,-8.435668945E-1,-9.598037720E0,4.803771973E-1
8.279649330E0,-7.669525146E-1,-9.617187500E0,5.186767578E-1
8.284715248E0,-7.430114746E-1,-9.636337280E0,5.186767578E-1
8.289781166E0,-7.669525146E-1,-9.621978760E0,4.851684570E-1
8.294877602E0,-7.382202148E-1,-9.607620239E0,5.139007568E-1
8.299943520E0,-7.669525146E-1,-9.626770020E0,5.282592773E-1
8.305039955E0,-8.052520752E-1,-9.631561279E0,4.899444580E-1
8.310105873E0,-8.244018555E-1,-9.641128540E0,4.947357178E-1
8.315202309E0,-8.291931152E-1,-9.631561279E0,5.378417969E-1
8.320268227E0,-8.387756348E-1,-9.631561279E0,5.282592773E-1
8.325364662E0,-8.531341553E-1,-9.602828979E0,5.186767578E-1
8.330430580E0,-8.818664551E-1,-9.626770020E0,5.186767578E-1
8.335496498E0,-8.531341553E-1,-9.612396240E0,5.330505371E-1
8.340592934E0,-8.962402344E-1,-9.650711060E0,5.330505371E-1
8.345658852E0,-8.770751953E-1,-9.631561279E0,5.330505371E-1
8.350755287E0,-8.627166748E-1,-9.621978760E0,5.186767578E-1
8.355821205E0,-8.627166748E-1,-9.612396240E0,5.186767578E-1
8.360917641E0,-8.722839355E-1,-9.636337280E0,5.378417969E-1
8.365983559E0,-9.105987549E-1,-9.626770020E0,5.282592773E-1
8.371079994E0,-8.914489746E-1,-9.655502319E0,4.755859375E-1
8.376145912E0,-8.866577148E-1,-9.660293579E0,4.899444580E-1
8.381211830E0,-8.770751953E-1,-9.679443359E0,4.851684570E-1
8.386308266E0,-9.010162354E-1,-9.703384399E0,4.468536377E-1
8.391374184E0,-9.297485352E-1,-9.679443359E0,4.516448975E-1
8.396470619E0,-9.249572754E-1,-9.669860840E0,4.612274170E-1
8.401536537E0,-9.441223145E-1,-9.645919800E0,5.234680176E-1
8.406632973E0,-9.728546143E-1,-9.602828979E0,4.660034180E-1
8.411698891E0,-9.920043945E-1,-9.583679199E0,5.043182373E-1
8.416764809E0,-1.001571655E0,-9.564514160E0,5.186767578E-1
8.421861244E0,-1.011154175E0,-9.574096680E0,4.707946777E-1
8.426927162E0,-9.776306152E-1,-9.612396240E0,4.516448975E-1
8.432023598E0,-9.536895752E-1,-9.636337280E0,4.755859375E-1
8.437089516E0,-9.441223145E-1,-9.602828979E0,4.564361572E-1
8.442185951E0,-9.345397949E-1,-9.655502319E0,4.229125977E-1
8.447251869E0,-9.345397949E-1,-9.641128540E0,4.468536377E-1
8.452348305E0,-9.153900146E-1,-9.641128540E0,4.995269775E-1
8.457414223E0,-9.488983154E-1,-9.636337280E0,4.468536377E-1
8.462510658E0,-9.920043945E-1,-9.641128540E0,4.229125977E-1
8.467576576E0,-9.776306152E-1,-9.641128540E0,4.564361572E-1
8.472673012E0,-9.441223145E-1,-9.598037720E0,4.085540771E-1
8.477738930E0,-9.584808350E-1,-9.602828979E0,3.798217773E-1
8.482804848E0,-9.680633545E-1,-9.641128540E0,4.133300781E-1
8.487901283E0,-9.776306152E-1,-9.636337280E0,5.234680176E-1
8.492967201E0,-9.536895752E-1,-9.588455200E0,5.186767578E-1
8.498063637E0,-9.536895752E-1,-9.621978760E0,5.330505371E-1
8.503129555E0,-8.962402344E-1,-9.636337280E0,5.713500977E-1
8.508225990E0,-8.579254150E-1,-9.631561279E0,5.665588379E-1
8.513291908E0,-8.531341553E-1,-9.645919800E0,5.091094971E-1
8.518388344E0,-8.579254150E-1,-9.684234619E0,5.234680176E-1
8.523454262E0,-8.962402344E-1,-9.650711060E0,5.186767578E-1
8.528520180E0,-9.010162354E-1,-9.655502319E0,5.522003174E-1
8.533616615E0,-8.531341553E-1,-9.684234619E0,5.139007568E-1
8.538682533E0,-8.722839355E-1,-9.669860840E0,5.330505371E-1
8.543778969E0,-8.675079346E-1,-9.636337280E0,5.665588379E-1
8.548844887E0,-8.866577148E-1,-9.636337280E0,5.905151367E-1
8.553941323E0,-8.866577148E-1,-9.612396240E0,5.426177979E-1
8.559007240E0,-8.675079346E-1,-9.641128540E0,4.947357178E-1
8.564103676E0,-8.387756348E-1,-9.645919800E0,4.803771973E-1
8.569169594E0,-7.813110352E-1,-9.641128540E0,4.468536377E-1
8.574235512E0,-7.956695557E-1,-9.645919800E0,4.707946777E-1
8.579331948E0,-8.435668945E-1,-9.621978760E0,4.660034180E-1
8.584397865E0,-8.579254150E-1,-9.583679199E0,4.564361572E-1
8.589494301E0,-8.675079346E-1,-9.583679199E0,5.282592773E-1
8.594560219E0,-9.153900146E-1,-9.602828979E0,5.426177979E-1
8.599656655E0,-9.058074951E-1,-9.607620239E0,5.474090576E-1
8.604722573E0,-9.058074951E-1,-9.607620239E0,5.617828369E-1
8.609819008E0,-8.866577148E-1,-9.631561279E0,5.809326172E-1
8.614884926E0,-9.153900146E-1,-9.655502319E0,6.192321777E-1
8.619981362E0,-9.153900146E-1,-9.674652100E0,5.857238770E-1
8.625047280E0,-9.153900146E-1,-9.636337280E0,5.474090576E-1
8.630113198E0,-9.058074951E-1,-9.674652100E0,5.330505371E-1
8.635209633E0,-9.058074951E-1,-9.665069580E0,5.426177979E-1
8.640275551E0,-9.632720947E-1,-9.607620239E0,4.995269775E-1
8.645371987E0,-9.536895752E-1,-9.617187500E0,4.995269775E-1
8.650437905E0,-9.297485352E-1,-9.621978760E0,4.660034180E-1
8.655534340E0,-9.441223145E-1,-9.607620239E0,5.043182373E-1
8.660600258E0,-9.488983154E-1,-9.621978760E0,4.899444580E-1
8.665696694E0,-9.393310547E-1,-9.631561279E0,5.378417969E-1
8.670762612E0,-9.105987549E-1,-9.612396240E0,5.617828369E-1
8.675828530E0,-9.441223145E-1,-9.641128540E0,5.330505371E-1
8.680924965E0,-9.393310547E-1,-9.674652100E0,5.282592773E-1
8.685990883E0,-9.297485352E-1,-9.612396240E0,5.569915771E-1
8.691087319E0,-9.345397949E-1,-9.631561279E0,5.043182373E-1
8.696153237E0,-9.488983154E-1,-9.612396240E0,5.091094971E-1
8.701249672E0,-9.776306152E-1,-9.641128540E0,5.282592773E-1
8.706315590E0,-9.967956543E-1,-9.617187500E0,5.234680176E-1
8.711412026E0,-9.824218750E-1,-9.650711060E0,5.617828369E-1
8.716477944E0,-9.824218750E-1,-9.669860840E0,5.809326172E-1
8.721543862E0,-9.201812744E-1,-9.669860840E0,5.617828369E-1
8.726640297E0,-9.058074951E-1,-9.650711060E0,5.522003174E-1
8.731706215E0,-8.675079346E-1,-9.636337280E0,5.809326172E-1
8.736802651E0,-8.675079346E-1,-9.612396240E0,5.186767578E-1
8.741868569E0,-9.201812744E-1,-9.617187500E0,4.947357178E-1
8.746965004E0,-9.441223145E-1,-9.617187500E0,4.516448975E-1
8.752030922E0,-9.393310547E-1,-9.617187500E0,4.660034180E-1
8.757127358E0,-8.675079346E-1,-9.626770020E0,4.707946777E-1
8.762193276E0,-8.291931152E-1,-9.650711060E0,5.186767578E-1
8.767289711E0,-8.291931152E-1,-9.645919800E0,5.282592773E-1
8.772355629E0,-8.291931152E-1,-9.626770020E0,5.282592773E-1
8.777421547E0,-8.435668945E-1,-9.598037720E0,4.995269775E-1
8.782517983E0,-8.531341553E-1,-9.612396240E0,5.186767578E-1
8.787583901E0,-8.100433350E-1,-9.636337280E0,5.569915771E-1
8.792680336E0,-8.052520752E-1,-9.631561279E0,5.186767578E-1
8.797746254E0,-8.387756348E-1,-9.607620239E0,4.660034180E-1
8.802842690E0,-8.339843750E-1,-9.650711060E0,4.899444580E-1
8.807908608E0,-8.004608154E-1,-9.665069580E0,4.660034180E-1
8.813005043E0,-7.956695557E-1,-9.669860840E0,4.660034180E-1
8.818070961E0,-8.004608154E-1,-9.660293579E0,4.612274170E-1
8.823136879E0,-8.435668945E-1,-9.708175659E0,4.612274170E-1
8.828233315E0,-8.531341553E-1,-9.660293579E0,4.324951172E-1
8.833299233E0,-8.866577148E-1,-9.645919800E0,4.947357178E-1
8.838395668E0,-8.483428955E-1,-9.655502319E0,5.330505371E-1
8.843461586E0,-8.579254150E-1,-9.621978760E0,5.569915771E-1
8.848558022E0,-8.818664551E-1,-9.621978760E0,4.947357178E-1
8.853623940E0,-8.722839355E-1,-9.621978760E0,4.947357178E-1
8.858720375E0,-9.153900146E-1,-9.612396240E0,4.468536377E-1
8.863786293E0,-9.010162354E-1,-9.650711060E0,4.037628174E-1
8.868852211E0,-9.201812744E-1,-9.617187500E0,4.181213379E-1
8.873948647E0,-9.058074951E-1,-9.607620239E0,4.468536377E-1
8.879014565E0,-8.866577148E-1,-9.607620239E0,4.851684570E-1
8.884080483E0,-8.818664551E-1,-9.607620239E0,5.234680176E-1
8.889176918E0,-8.866577148E-1,-9.612396240E0,5.378417969E-1
8.894273354E0,-9.153900146E-1,-9.650711060E0,5.330505371E-1
8.899339272E0,-9.010162354E-1,-9.612396240E0,5.282592773E-1
8.904435707E0,-8.483428955E-1,-9.660293579E0,5.474090576E-1
8.909501625E0,-8.435668945E-1,-9.641128540E0,5.091094971E-1
8.914598061E0,-8.531341553E-1,-9.669860840E0,4.899444580E-1
8.919663979E0,-8.914489746E-1,-9.684234619E0,4.612274170E-1
8.924729897E0,-9.201812744E-1,-9.655502319E0,4.947357178E-1
8.929826332E0,-9.249572754E-1,-9.665069580E0,4.707946777E-1
8.934861733E0,-9.345397949E-1,-9.641128540E0,4.899444580E-1
8.939958168E0,-8.675079346E-1,-9.631561279E0,5.474090576E-1
8.945024086E0,-8.244018555E-1,-9.631561279E0,6.048736572E-1
8.950090004E0,-8.100433350E-1,-9.645919800E0,5.569915771E-1
8.955186440E0,-7.813110352E-1,-9.655502319E0,5.665588379E-1
8.960282875E0,-7.908935547E-1,-9.645919800E0,5.665588379E-1
8.965379311E0,-8.387756348E-1,-9.636337280E0,5.282592773E-1
8.970445229E0,-8.291931152E-1,-9.660293579E0,4.851684570E-1
8.975541664E0,-8.052520752E-1,-9.660293579E0,4.851684570E-1
8.980607582E0,-8.435668945E-1,-9.655502319E0,4.803771973E-1
8.985704018E0,-8.291931152E-1,-9.636337280E0,4.564361572E-1
8.990769936E0,-9.153900146E-1,-9.626770020E0,4.564361572E-1
8.995866371E0,-9.010162354E-1,-9.621978760E0,4.564361572E-1
9.000932289E0,-9.345397949E-1,-9.602828979E0,4.660034180E-1
9.006028725E0,-9.010162354E-1,-9.660293579E0,4.660034180E-1
9.011094643E0,-8.914489746E-1,-9.645919800E0,4.564361572E-1
9.016160561E0,-8.483428955E-1,-9.645919800E0,5.186767578E-1
9.021256996E0,-8.339843750E-1,-9.617187500E0,5.186767578E-1
9.026322914E0,-8.291931152E-1,-9.636337280E0,5.091094971E-1
9.031419350E0,-8.722839355E-1,-9.636337280E0,4.660034180E-1
9.036485268E0,-8.914489746E-1,-9.617187500E0,5.091094971E-1
9.041581703E0,-8.962402344E-1,-9.593246460E0,5.091094971E-1
9.046647621E0,-9.249572754E-1,-9.588455200E0,4.755859375E-1
9.051744057E0,-8.770751953E-1,-9.598037720E0,5.043182373E-1
9.056809975E0,-8.866577148E-1,-9.612396240E0,5.186767578E-1
9.061875893E0,-8.914489746E-1,-9.669860840E0,4.803771973E-1
9.066972328E0,-8.962402344E-1,-9.641128540E0,4.372863770E-1
9.072038246E0,-9.201812744E-1,-9.665069580E0,4.372863770E-1
9.077134682E0,-8.962402344E-1,-9.655502319E0,4.420623779E-1
9.082200600E0,-8.962402344E-1,-9.636337280E0,4.851684570E-1
9.087297035E0,-8.770751953E-1,-9.617187500E0,5.234680176E-1
9.092362953E0,-8.675079346E-1,-9.621978760E0,4.660034180E-1
9.097459389E0,-8.818664551E-1,-9.650711060E0,4.707946777E-1
9.102525307E0,-8.675079346E-1,-9.655502319E0,4.660034180E-1
9.107621742E0,-8.483428955E-1,-9.636337280E0,4.899444580E-1
9.112687660E0,-8.722839355E-1,-9.602828979E0,4.899444580E-1
9.117753578E0,-8.962402344E-1,-9.607620239E0,4.037628174E-1
9.122850014E0,-9.488983154E-1,-9.641128540E0,4.037628174E-1
9.127915932E0,-9.441223145E-1,-9.621978760E0,4.181213379E-1
9.133012367E0,-9.728546143E-1,-9.621978760E0,4.324951172E-1
9.138078285E0,-9.967956543E-1,-9.617187500E0,3.989715576E-1
9.143174721E0,-1.030303955E0,-9.626770020E0,4.133300781E-1
9.148240639E0,-1.025527954E0,-9.578887939E0,4.372863770E-1
9.153337074E0,-9.920043945E-1,-9.607620239E0,4.420623779E-1
9.158402992E0,-9.536895752E-1,-9.631561279E0,4.755859375E-1
9.163468910E0,-9.393310547E-1,-9.617187500E0,4.707946777E-1
9.168565346E0,-8.914489746E-1,-9.626770020E0,4.468536377E-1
9.173631264E0,-8.962402344E-1,-9.660293579E0,4.899444580E-1
9.178727699E0,-9.010162354E-1,-9.674652100E0,4.420623779E-1
9.183793617E0,-9.010162354E-1,-9.665069580E0,3.798217773E-1
9.188890053E0,-8.962402344E-1,-9.655502319E0,3.941802979E-1
9.193955971E0,-9.249572754E-1,-9.617187500E0,3.750305176E-1
9.199052406E0,-9.249572754E-1,-9.626770020E0,4.564361572E-1
9.204118324E0,-9.010162354E-1,-9.607620239E0,4.707946777E-1
9.209184242E0,-9.105987549E-1,-9.645919800E0,4.277038574E-1
9.214280678E0,-9.105987549E-1,-9.660293579E0,4.324951172E-1
9.219346596E0,-9.441223145E-1,-9.631561279E0,4.229125977E-1
9.224443031E0,-9.728546143E-1,-9.626770020E0,4.660034180E-1
9.229508949E0,-9.584808350E-1,-9.612396240E0,4.947357178E-1
9.234605385E0,-9.441223145E-1,-9.612396240E0,4.851684570E-1
9.239671303E0,-9.105987549E-1,-9.645919800E0,4.899444580E-1
9.244767739E0,-9.105987549E-1,-9.645919800E0,4.660034180E-1
9.249833656E0,-9.345397949E-1,-9.636337280E0,4.229125977E-1
9.254930092E0,-9.488983154E-1,-9.626770020E0,4.229125977E-1
9.259996010E0,-9.297485352E-1,-9.621978760E0,4.516448975E-1
9.265061928E0,-9.441223145E-1,-9.631561279E0,4.085540771E-1
9.270158364E0,-9.441223145E-1,-9.636337280E0,3.606719971E-1
9.275224281E0,-9.201812744E-1,-9.641128540E0,3.510894775E-1
9.280320717E0,-8.770751953E-1,-9.655502319E0,3.702392578E-1
9.285386635E0,-8.818664551E-1,-9.626770020E0,3.989715576E-1
9.290483071E0,-8.627166748E-1,-9.660293579E0,4.707946777E-1
9.295548989E0,-8.483428955E-1,-9.645919800E0,4.372863770E-1
9.300645424E0,-8.339843750E-1,-9.621978760E0,4.277038574E-1
9.305711342E0,-8.387756348E-1,-9.617187500E0,4.229125977E-1
9.310777260E0,-8.914489746E-1,-9.583679199E0,4.420623779E-1
9.315873696E0,-9.345397949E-1,-9.626770020E0,4.037628174E-1
9.320939614E0,-9.201812744E-1,-9.636337280E0,4.181213379E-1
9.326036049E0,-8.722839355E-1,-9.665069580E0,4.277038574E-1
9.331101967E0,-7.956695557E-1,-9.665069580E0,4.995269775E-1
9.336198403E0,-8.148345947E-1,-9.636337280E0,5.186767578E-1
9.341264321E0,-8.291931152E-1,-9.679443359E0,4.324951172E-1
9.346360756E0,-8.914489746E-1,-9.650711060E0,4.324951172E-1
9.351426674E0,-8.675079346E-1,-9.636337280E0,4.372863770E-1
9.356492592E0,-8.866577148E-1,-9.674652100E0,4.564361572E-1
9.361589028E0,-9.297485352E-1,-9.645919800E0,3.702392578E-1
9.366654946E0,-9.058074951E-1,-9.660293579E0,4.133300781E-1
9.371751381E0,-9.105987549E-1,-9.636337280E0,4.612274170E-1
9.376817299E0,-8.818664551E-1,-9.641128540E0,4.277038574E-1
9.381913735E0,-8.675079346E-1,-9.626770020E0,4.612274170E-1
9.386979653E0,-8.483428955E-1,-9.641128540E0,4.133300781E-1
9.392076088E0,-8.387756348E-1,-9.612396240E0,3.846130371E-1
9.397142006E0,-8.962402344E-1,-9.631561279E0,3.558807373E-1
9.402238442E0,-9.584808350E-1,-9.641128540E0,4.229125977E-1
9.407304360E0,-9.345397949E-1,-9.621978760E0,4.612274170E-1
9.412370278E0,-9.297485352E-1,-9.636337280E0,4.660034180E-1
9.417466713E0,-9.058074951E-1,-9.645919800E0,4.229125977E-1
9.422532631E0,-8.962402344E-1,-9.665069580E0,4.085540771E-1
9.427629067E0,-8.818664551E-1,-9.674652100E0,4.324951172E-1
9.432694985E0,-9.153900146E-1,-9.650711060E0,4.277038574E-1
9.437791420E0,-9.345397949E-1,-9.669860840E0,4.229125977E-1
9.442857338E0,-9.201812744E-1,-9.641128540E0,4.277038574E-1
9.447953774E0,-9.728546143E-1,-9.617187500E0,4.324951172E-1
9.453019692E0,-1.011154175E0,-9.631561279E0,4.372863770E-1
9.458085610E0,-1.015945435E0,-9.631561279E0,3.510894775E-1
9.463182045E0,-9.967956543E-1,-9.636337280E0,3.223571777E-1
9.468247963E0,-9.536895752E-1,-9.617187500E0,3.606719971E-1
9.473344399E0,-9.680633545E-1,-9.607620239E0,4.037628174E-1
9.478410317E0,-9.297485352E-1,-9.607620239E0,4.420623779E-1
9.483506752E0,-9.297485352E-1,-9.612396240E0,4.181213379E-1
9.488572670E0,-9.536895752E-1,-9.583679199E0,3.893890381E-1
9.493669106E0,-9.824218750E-1,-9.607620239E0,3.702392578E-1
9.498735024E0,-1.001571655E0,-9.645919800E0,3.654479980E-1
9.503800942E0,-9.632720947E-1,-9.621978760E0,3.798217773E-1
9.508897377E0,-9.297485352E-1,-9.641128540E0,4.037628174E-1
9.513963295E0,-9.058074951E-1,-9.650711060E0,4.229125977E-1
9.519059731E0,-9.345397949E-1,-9.655502319E0,4.420623779E-1
9.524125649E0,-9.441223145E-1,-9.650711060E0,4.277038574E-1
9.529222084E0,-9.345397949E-1,-9.621978760E0,4.612274170E-1
9.534288002E0,-9.058074951E-1,-9.655502319E0,4.851684570E-1
9.539384438E0,-8.770751953E-1,-9.669860840E0,4.660034180E-1
9.544450356E0,-8.244018555E-1,-9.665069580E0,4.947357178E-1
9.549516274E0,-8.339843750E-1,-9.669860840E0,4.947357178E-1
9.554612709E0,-8.962402344E-1,-9.689010620E0,5.186767578E-1
9.559678627E0,-8.435668945E-1,-9.650711060E0,4.947357178E-1
9.564775063E0,-8.866577148E-1,-9.650711060E0,5.043182373E-1
9.569840981E0,-8.770751953E-1,-9.655502319E0,4.947357178E-1
9.574937416E0,-8.770751953E-1,-9.665069580E0,4.803771973E-1
9.580003334E0,-8.722839355E-1,-9.679443359E0,4.803771973E-1
9.585099770E0,-8.483428955E-1,-9.689010620E0,4.851684570E-1
9.590165688E0,-8.244018555E-1,-9.626770020E0,4.803771973E-1
9.595262123E0,-8.004608154E-1,-9.612396240E0,4.660034180E-1
9.600328041E0,-8.052520752E-1,-9.617187500E0,4.277038574E-1
9.605393959E0,-8.339843750E-1,-9.602828979E0,4.564361572E-1
9.610490395E0,-8.196258545E-1,-9.612396240E0,4.277038574E-1
9.615556313E0,-8.339843750E-1,-9.626770020E0,3.846130371E-1
9.620652748E0,-8.100433350E-1,-9.674652100E0,4.085540771E-1
9.625718666E0,-8.339843750E-1,-9.665069580E0,4.420623779E-1
9.630815102E0,-8.100433350E-1,-9.655502319E0,4.803771973E-1
9.635881020E0,-7.861022949E-1,-9.669860840E0,4.755859375E-1
9.640977455E0,-8.148345947E-1,-9.660293579E0,4.803771973E-1
9.646043373E0,-7.813110352E-1,-9.679443359E0,4.660034180E-1
9.651109291E0,-7.908935547E-1,-9.617187500E0,4.468536377E-1
9.656205727E0,-8.339843750E-1,-9.617187500E0,4.085540771E-1
9.661271645E0,-9.153900146E-1,-9.621978760E0,4.229125977E-1
9.666368080E0,-9.249572754E-1,-9.631561279E0,4.229125977E-1
9.671433998E0,-9.153900146E-1,-9.626770020E0,4.133300781E-1
9.676530434E0,-8.675079346E-1,-9.631561279E0,4.277038574E-1
9.681596352E0,-8.914489746E-1,-9.621978760E0,4.947357178E-1
9.686692787E0,-8.962402344E-1,-9.636337280E0,4.947357178E-1
9.691758705E0,-9.297485352E-1,-9.641128540E0,4.803771973E-1
9.696824623E0,-9.536895752E-1,-9.650711060E0,4.995269775E-1
9.701921059E0,-9.680633545E-1,-9.655502319E0,4.755859375E-1
9.706986977E0,-9.536895752E-1,-9.674652100E0,3.989715576E-1
9.712083412E0,-9.920043945E-1,-9.631561279E0,4.516448975E-1
9.717149330E0,-9.872131348E-1,-9.665069580E0,5.378417969E-1
9.722245766E0,-9.488983154E-1,-9.650711060E0,5.234680176E-1
9.727311684E0,-9.201812744E-1,-9.612396240E0,4.851684570E-1
9.732408119E0,-9.441223145E-1,-9.645919800E0,4.851684570E-1
9.737474037E0,-9.201812744E-1,-9.655502319E0,4.516448975E-1
9.742539955E0,-9.297485352E-1,-9.626770020E0,4.420623779E-1
9.747636391E0,-9.872131348E-1,-9.621978760E0,4.181213379E-1
9.752702309E0,-9.776306152E-1,-9.607620239E0,4.133300781E-1
9.757798744E0,-9.488983154E-1,-9.645919800E0,4.133300781E-1
9.762864662E0,-9.297485352E-1,-9.612396240E0,4.181213379E-1
9.767961098E0,-9.153900146E-1,-9.626770020E0,3.989715576E-1
9.773027016E0,-8.866577148E-1,-9.636337280E0,3.941802979E-1
9.778123451E0,-9.105987549E-1,-9.621978760E0,4.420623779E-1
9.783189369E0,-9.010162354E-1,-9.617187500E0,4.420623779E-1
9.788285805E0,-8.866577148E-1,-9.598037720E0,4.037628174E-1
9.793351723E0,-8.914489746E-1,-9.607620239E0,4.133300781E-1
9.798417641E0,-9.010162354E-1,-9.655502319E0,4.181213379E-1
9.803514076E0,-9.201812744E-1,-9.626770020E0,3.941802979E-1
9.808579994E0,-9.058074951E-1,-9.626770020E0,3.510894775E-1
9.813676430E0,-8.770751953E-1,-9.636337280E0,3.893890381E-1
9.818742348E0,-8.914489746E-1,-9.660293579E0,4.277038574E-1
9.823838783E0,-9.010162354E-1,-9.665069580E0,3.989715576E-1
9.828904701E0,-8.627166748E-1,-9.660293579E0,4.133300781E-1
9.834001137E0,-8.483428955E-1,-9.631561279E0,4.277038574E-1
9.839067055E0,-8.818664551E-1,-9.621978760E0,4.372863770E-1
9.844132973E0,-8.770751953E-1,-9.612396240E0,4.181213379E-1
9.849229408E0,-8.818664551E-1,-9.612396240E0,4.372863770E-1
9.854295326E0,-8.387756348E-1,-9.621978760E0,4.516448975E-1
9.859391762E0,-8.339843750E-1,-9.631561279E0,3.989715576E-1
9.864457680E0,-8.387756348E-1,-9.684234619E0,4.277038574E-1
9.869554115E0,-8.579254150E-1,-9.631561279E0,4.612274170E-1
9.874620033E0,-9.058074951E-1,-9.626770020E0,4.324951172E-1
9.879716469E0,-9.058074951E-1,-9.636337280E0,5.282592773E-1
9.884782387E0,-8.818664551E-1,-9.617187500E0,4.899444580E-1
9.889848305E0,-8.579254150E-1,-9.641128540E0,4.755859375E-1
9.894944740E0,-8.866577148E-1,-9.612396240E0,4.803771973E-1
9.900010658E0,-9.105987549E-1,-9.612396240E0,4.324951172E-1
9.905107094E0,-8.962402344E-1,-9.650711060E0,4.037628174E-1
9.910173012E0,-9.153900146E-1,-9.631561279E0,4.085540771E-1
9.915269448E0,-8.914489746E-1,-9.621978760E0,4.037628174E-1
9.920335365E0,-8.866577148E-1,-9.655502319E0,4.085540771E-1
9.925431801E0,-9.058074951E-1,-9.660293579E0,4.277038574E-1
9.930497719E0,-9.201812744E-1,-9.650711060E0,4.372863770E-1
9.935594155E0,-8.722839355E-1,-9.621978760E0,4.372863770E-1
9.940660073E0,-8.722839355E-1,-9.574096680E0,4.755859375E-1
9.945725990E0,-9.105987549E-1,-9.645919800E0,4.660034180E-1
9.950822426E0,-9.201812744E-1,-9.626770020E0,4.612274170E-1
9.955888344E0,-9.105987549E-1,-9.621978760E0,4.420623779E-1
9.960984780E0,-9.345397949E-1,-9.626770020E0,4.277038574E-1
9.966050698E0,-8.818664551E-1,-9.626770020E0,4.229125977E-1
9.971147133E0,-9.153900146E-1,-9.626770020E0,4.277038574E-1
9.976213051E0,-9.105987549E-1,-9.621978760E0,4.324951172E-1
9.981309487E0,-9.441223145E-1,-9.607620239E0,4.420623779E-1
9.986375405E0,-9.872131348E-1,-9.612396240E0,4.612274170E-1
9.991441323E0,-9.680633545E-1,-9.617187500E0,4.612274170E-1
9.996537758E0,-9.967956543E-1,-9.612396240E0,4.660034180E-1
1.000160368E1,-9.728546143E-1,-9.612396240E0,4.660034180E-1
1.000670011E1,-9.488983154E-1,-9.660293579E0,4.899444580E-1
1.001176603E1,-9.105987549E-1,-9.674652100E0,4.564361572E-1
1.001686246E1,-9.010162354E-1,-9.612396240E0,4.420623779E-1
1.002189787E1,-8.675079346E-1,-9.669860840E0,4.612274170E-1
1.002696378E1,-8.866577148E-1,-9.674652100E0,4.707946777E-1
1.003206022E1,-9.249572754E-1,-9.689010620E0,4.707946777E-1
1.003712614E1,-9.297485352E-1,-9.669860840E0,5.043182373E-1
1.004222257E1,-9.201812744E-1,-9.669860840E0,4.947357178E-1
1.004731901E1,-8.722839355E-1,-9.612396240E0,4.803771973E-1
1.005241544E1,-9.058074951E-1,-9.636337280E0,4.803771973E-1
1.005748136E1,-8.962402344E-1,-9.674652100E0,3.989715576E-1
1.006257780E1,-8.818664551E-1,-9.665069580E0,4.037628174E-1
1.006764372E1,-9.010162354E-1,-9.617187500E0,4.085540771E-1
1.007274015E1,-9.249572754E-1,-9.593246460E0,4.516448975E-1
1.007780607E1,-9.105987549E-1,-9.626770020E0,4.372863770E-1
1.008290250E1,-9.105987549E-1,-9.593246460E0,3.846130371E-1
1.008796842E1,-8.770751953E-1,-9.602828979E0,3.893890381E-1
1.009303434E1,-8.962402344E-1,-9.621978760E0,3.702392578E-1
1.009813078E1,-9.153900146E-1,-9.626770020E0,3.032073975E-1
1.010319669E1,-9.441223145E-1,-9.655502319E0,3.510894775E-1
1.010829313E1,-9.728546143E-1,-9.612396240E0,3.846130371E-1
1.011335905E1,-9.920043945E-1,-9.626770020E0,3.846130371E-1
1.011845548E1,-1.015945435E0,-9.655502319E0,4.133300781E-1
1.012352140E1,-9.967956543E-1,-9.636337280E0,4.516448975E-1
1.012861784E1,-9.824218750E-1,-9.641128540E0,5.043182373E-1
1.013368375E1,-1.011154175E0,-9.612396240E0,4.947357178E-1
1.013874967E1,-9.824218750E-1,-9.621978760E0,4.707946777E-1
1.014384611E1,-9.441223145E-1,-9.612396240E0,4.468536377E-1
1.014891203E1,-9.201812744E-1,-9.641128540E0,4.707946777E-1
1.015400846E1,-9.153900146E-1,-9.655502319E0,4.037628174E-1
1.015907438E1,-8.866577148E-1,-9.631561279E0,3.462982178E-1
1.016417082E1,-8.770751953E-1,-9.583679199E0,3.510894775E-1
1.016923673E1,-8.962402344E-1,-9.559722900E0,3.415069580E-1
1.017433317E1,-9.249572754E-1,-9.574096680E0,3.319396973E-1
1.017939909E1,-8.914489746E-1,-9.636337280E0,4.037628174E-1
1.018446500E1,-9.058074951E-1,-9.621978760E0,4.372863770E-1
1.018956144E1,-8.962402344E-1,-9.641128540E0,4.372863770E-1
1.019462736E1,-8.866577148E-1,-9.684234619E0,4.420623779E-1
1.019972379E1,-9.297485352E-1,-9.689010620E0,4.516448975E-1
1.020478971E1,-9.201812744E-1,-9.655502319E0,4.899444580E-1
1.020988615E1,-9.010162354E-1,-9.665069580E0,4.995269775E-1
1.021495206E1,-8.962402344E-1,-9.665069580E0,4.755859375E-1
1.022004850E1,-8.962402344E-1,-9.674652100E0,4.899444580E-1
1.022511442E1,-8.722839355E-1,-9.679443359E0,4.851684570E-1
1.023018034E1,-8.866577148E-1,-9.626770020E0,4.899444580E-1
1.023527677E1,-9.153900146E-1,-9.693801880E0,4.803771973E-1
1.024034269E1,-8.627166748E-1,-9.669860840E0,3.941802979E-1
1.024543912E1,-8.866577148E-1,-9.626770020E0,3.846130371E-1
1.025050504E1,-9.345397949E-1,-9.607620239E0,3.941802979E-1
1.025560148E1,-9.010162354E-1,-9.598037720E0,4.277038574E-1
1.026066740E1,-8.770751953E-1,-9.602828979E0,3.989715576E-1
1.026576383E1,-8.818664551E-1,-9.607620239E0,3.941802979E-1
1.027082975E1,-8.675079346E-1,-9.578887939E0,4.277038574E-1
1.027592619E1,-8.483428955E-1,-9.578887939E0,4.468536377E-1
1.028099210E1,-8.196258545E-1,-9.602828979E0,4.468536377E-1
1.028605802E1,-8.004608154E-1,-9.569305420E0,4.229125977E-1
1.029115446E1,-8.435668945E-1,-9.602828979E0,4.229125977E-1
1.029622038E1,-8.531341553E-1,-9.598037720E0,4.037628174E-1
1.030131681E1,-9.249572754E-1,-9.631561279E0,4.085540771E-1
1.030638273E1,-9.441223145E-1,-9.607620239E0,4.324951172E-1
1.031147916E1,-8.818664551E-1,-9.593246460E0,4.468536377E-1
1.031654508E1,-8.531341553E-1,-9.621978760E0,4.899444580E-1
1.032164152E1,-8.483428955E-1,-9.598037720E0,4.755859375E-1
1.032670744E1,-8.387756348E-1,-9.621978760E0,4.229125977E-1
1.033177335E1,-8.291931152E-1,-9.641128540E0,3.558807373E-1
1.033686979E1,-8.435668945E-1,-9.636337280E0,3.367156982E-1
1.034193571E1,-8.435668945E-1,-9.693801880E0,3.750305176E-1
1.034703214E1,-8.722839355E-1,-9.679443359E0,3.941802979E-1
