"Time (s)","Gyroscope x (rad/s)","Gyroscope y (rad/s)","Gyroscope z (rad/s)"
3.480000000E-3,-7.396705449E-2,-1.738347858E-2,-5.784020945E-2
5.480000000E-3,-6.958627701E-2,-1.811651699E-2,-6.930702180E-2
7.480000000E-3,-6.339035928E-2,-2.155481651E-2,-8.250171691E-2
9.480000000E-3,-5.612978712E-2,-2.612757869E-2,-9.670869261E-2
1.148000000E-2,-4.876450077E-2,-3.270747140E-2,-1.119628698E-1
1.348000000E-2,-4.101523757E-2,-4.139921069E-2,-1.282642484E-1
1.548000000E-2,-3.251548484E-2,-5.092870817E-2,-1.456302702E-1
1.748000000E-2,-2.431243658E-2,-6.112143025E-2,-1.643751115E-1
1.948000000E-2,-1.591740362E-2,-7.157595456E-2,-1.840100586E-1
2.148000000E-2,-8.080874570E-3,-8.246680349E-2,-2.043082416E-1
2.348000000E-2,-4.712388909E-4,-9.353219718E-2,-2.248856723E-1
2.548000000E-2,8.290314116E-3,-1.046499386E-1,-2.455678284E-1
2.748000000E-2,1.785471849E-2,-1.158200502E-1,-2.663023472E-1
2.948000000E-2,2.743657492E-2,-1.269901544E-1,-2.867226899E-1
3.148000000E-2,3.701843321E-2,-1.375319511E-1,-3.064100146E-1
3.348000000E-2,4.785692692E-2,-1.459269822E-1,-3.241949081E-1
3.548000000E-2,5.984733999E-2,-1.528210342E-1,-3.396585286E-1
3.748000000E-2,7.260569930E-2,-1.590867639E-1,-3.532022834E-1
3.948000000E-2,8.569566905E-2,-1.651255935E-1,-3.647214472E-1
4.148000000E-2,9.798278660E-2,-1.723163575E-1,-3.744429350E-1
4.348000000E-2,1.099208370E-1,-1.796467453E-1,-3.828379810E-1
4.548000000E-2,1.226617396E-1,-1.861219108E-1,-3.894004226E-1
4.748000000E-2,1.354375482E-1,-1.918989569E-1,-3.949156404E-1
4.948000000E-2,1.485275179E-1,-1.971000284E-1,-3.993662298E-1
5.148000000E-2,1.626821458E-1,-2.029992491E-1,-4.024380147E-1
5.348000000E-2,1.766622216E-1,-2.079210728E-1,-4.043229818E-1
5.548000000E-2,1.908692122E-1,-2.105739713E-1,-4.041484296E-1
5.748000000E-2,2.045351416E-1,-2.110103071E-1,-4.018620551E-1
5.948000000E-2,2.164208293E-1,-2.077116370E-1,-3.980921507E-1
6.148000000E-2,2.275734842E-1,-1.997529268E-1,-3.933972120E-1
6.348000000E-2,2.377836555E-1,-1.886177361E-1,-3.883357644E-1
6.548000000E-2,2.463706732E-1,-1.765051484E-1,-3.828030527E-1
6.748000000E-2,2.530203760E-1,-1.652652323E-1,-3.761359155E-1
6.948000000E-2,2.579247653E-1,-1.550026834E-1,-3.683691919E-1
7.148000000E-2,2.621484399E-1,-1.464156657E-1,-3.598345220E-1
7.348000000E-2,2.657438219E-1,-1.416509151E-1,-3.500607014E-1
7.548000000E-2,2.681698501E-1,-1.403419226E-1,-3.388207555E-1
7.748000000E-2,2.697755396E-1,-1.423316002E-1,-3.269699812E-1
7.948000000E-2,2.704387605E-1,-1.472534239E-1,-3.148922920E-1
8.148000000E-2,2.700722516E-1,-1.549328715E-1,-3.027273715E-1
8.348000000E-2,2.686585188E-1,-1.653175801E-1,-2.908242047E-1
8.548000000E-2,2.668259442E-1,-1.768018454E-1,-2.787116170E-1
8.748000000E-2,2.654471397E-1,-1.890540570E-1,-2.665292323E-1
8.948000000E-2,2.636319697E-1,-2.028770745E-1,-2.552543879E-1
9.148000000E-2,2.619390190E-1,-2.167175263E-1,-2.449918687E-1
9.348000000E-2,2.615550458E-1,-2.296155095E-1,-2.351307571E-1
9.548000000E-2,2.623578906E-1,-2.421120703E-1,-2.263866514E-1
9.748000000E-2,2.642602921E-1,-2.541548312E-1,-2.190213650E-1
9.948000000E-2,2.669306695E-1,-2.666339576E-1,-2.119353265E-1
1.014800000E-1,2.711718082E-1,-2.789559662E-1,-2.055823356E-1
1.034800000E-1,2.773153782E-1,-2.899864614E-1,-2.007826716E-1
1.054800000E-1,2.839301527E-1,-3.001442850E-1,-1.966113448E-1
1.074800000E-1,2.913478017E-1,-3.096563220E-1,-1.923876405E-1
1.094800000E-1,2.994112372E-1,-3.179466426E-1,-1.891064197E-1
1.114800000E-1,3.068114221E-1,-3.228859007E-1,-1.871342063E-1
1.134800000E-1,3.132866025E-1,-3.223797679E-1,-1.856855750E-1
1.154800000E-1,3.193952441E-1,-3.186971247E-1,-1.854237765E-1
1.174800000E-1,3.272492290E-1,-3.165678084E-1,-1.872040182E-1
1.194800000E-1,3.380179107E-1,-3.172833920E-1,-1.907819360E-1
1.214800000E-1,3.499734104E-1,-3.197792172E-1,-1.953896135E-1
1.234800000E-1,3.630633950E-1,-3.223797679E-1,-1.994736791E-1
1.254800000E-1,3.772180080E-1,-3.243868947E-1,-2.027025372E-1
1.274800000E-1,3.921405673E-1,-3.261496723E-1,-2.055997849E-1
1.294800000E-1,4.083023369E-1,-3.271794319E-1,-2.086890191E-1
1.314800000E-1,4.253018200E-1,-3.272841275E-1,-2.118306160E-1
1.334800000E-1,4.435928762E-1,-3.273364902E-1,-2.150071114E-1
1.354800000E-1,4.633325636E-1,-3.267081678E-1,-2.194402516E-1
1.374800000E-1,4.836830795E-1,-3.236189485E-1,-2.247285992E-1
1.394800000E-1,5.039638281E-1,-3.182607889E-1,-2.306627184E-1
1.414800000E-1,5.232671499E-1,-3.104068041E-1,-2.378185689E-1
1.434800000E-1,5.402840972E-1,-2.996206582E-1,-2.464055866E-1
1.454800000E-1,5.554161072E-1,-2.863910794E-1,-2.549577057E-1
1.474800000E-1,5.691518784E-1,-2.712241709E-1,-2.625498772E-1
1.494800000E-1,5.810549855E-1,-2.555860281E-1,-2.700547874E-1
1.514800000E-1,5.912652016E-1,-2.419549972E-1,-2.772106528E-1
1.534800000E-1,5.998347402E-1,-2.304183692E-1,-2.832843959E-1
1.554800000E-1,6.067985892E-1,-2.219360620E-1,-2.876477242E-1
1.574800000E-1,6.118426323E-1,-2.184803188E-1,-2.909987569E-1
1.594800000E-1,6.151587367E-1,-2.195973247E-1,-2.936342061E-1
1.614800000E-1,6.180909276E-1,-2.241526395E-1,-2.959554791E-1
1.634800000E-1,6.208485365E-1,-2.316924632E-1,-2.991145253E-1
1.654800000E-1,6.222971678E-1,-2.413790375E-1,-3.026051819E-1
1.674800000E-1,6.213023067E-1,-2.529156506E-1,-3.056071401E-1
1.694800000E-1,6.187017560E-1,-2.654820383E-1,-3.081029654E-1
1.714800000E-1,6.147922277E-1,-2.772455513E-1,-3.100577295E-1
1.734800000E-1,6.097307801E-1,-2.889741659E-1,-3.108606040E-1
1.754800000E-1,6.032556295E-1,-3.003711700E-1,-3.111747503E-1
1.774800000E-1,5.952445269E-1,-3.106860518E-1,-3.106860518E-1
1.794800000E-1,5.869367719E-1,-3.212103844E-1,-3.085741997E-1
1.814800000E-1,5.781926513E-1,-3.321186900E-1,-3.055198789E-1
1.834800000E-1,5.689424276E-1,-3.431840837E-1,-3.017499745E-1
1.854800000E-1,5.595002174E-1,-3.540051281E-1,-2.970550358E-1
1.874800000E-1,5.493423939E-1,-3.647214472E-1,-2.904053330E-1
1.894800000E-1,5.398477912E-1,-3.760311902E-1,-2.829702199E-1
1.914800000E-1,5.321857929E-1,-3.878819644E-1,-2.758318484E-1
1.934800000E-1,5.240176320E-1,-4.006054103E-1,-2.678905725E-1
1.954800000E-1,5.159716606E-1,-4.143062532E-1,-2.599144280E-1
1.974800000E-1,5.104739070E-1,-4.290368259E-1,-2.519382834E-1
1.994800000E-1,5.063549280E-1,-4.454429448E-1,-2.436305135E-1
2.014800000E-1,5.034053326E-1,-4.628613293E-1,-2.358463407E-1
2.034800000E-1,5.022010207E-1,-4.790928662E-1,-2.279225439E-1
2.054800000E-1,5.023581386E-1,-4.939107299E-1,-2.199812979E-1
2.074800000E-1,5.043128729E-1,-5.072101355E-1,-2.126334608E-1
2.094800000E-1,5.073148608E-1,-5.173504949E-1,-2.064899057E-1
2.114800000E-1,5.110498667E-1,-5.246459842E-1,-2.020916790E-1
2.134800000E-1,5.166872740E-1,-5.294979811E-1,-1.993689537E-1
2.154800000E-1,5.230751634E-1,-5.305277109E-1,-1.976236254E-1
2.174800000E-1,5.291489363E-1,-5.271592736E-1,-1.972222030E-1
2.194800000E-1,5.354146361E-1,-5.188514590E-1,-1.992642432E-1
2.214800000E-1,5.411219001E-1,-5.053600669E-1,-2.032610476E-1
2.234800000E-1,5.456597209E-1,-4.878718853E-1,-2.089857310E-1
2.254800000E-1,5.487664342E-1,-4.675039053E-1,-2.166826278E-1
2.274800000E-1,5.503371954E-1,-4.450066090E-1,-2.248682231E-1
2.294800000E-1,5.506688356E-1,-4.229107201E-1,-2.332458049E-1
2.314800000E-1,5.492202044E-1,-4.028743505E-1,-2.423389703E-1
2.334800000E-1,5.448394418E-1,-3.865031600E-1,-2.511005104E-1
2.354800000E-1,5.373868942E-1,-3.757344782E-1,-2.593908310E-1
2.374800000E-1,5.280318856E-1,-3.700970709E-1,-2.671924531E-1
2.394800000E-1,5.166523457E-1,-3.693814874E-1,-2.735105455E-1
2.414800000E-1,5.022359490E-1,-3.741287887E-1,-2.779960334E-1
2.434800000E-1,4.862661958E-1,-3.845832944E-1,-2.823418975E-1
2.454800000E-1,4.696680903E-1,-4.005181491E-1,-2.875778973E-1
2.474800000E-1,4.518657327E-1,-4.221602380E-1,-2.928662598E-1
2.494800000E-1,4.332430661E-1,-4.480085671E-1,-2.978578806E-1
2.514800000E-1,4.130496085E-1,-4.752705991E-1,-3.027273715E-1
2.534800000E-1,3.918787837E-1,-5.030911565E-1,-3.078760803E-1
2.554800000E-1,3.706381321E-1,-5.314527750E-1,-3.140719831E-1
2.574800000E-1,3.503224850E-1,-5.622578263E-1,-3.206867874E-1
2.594800000E-1,3.319441676E-1,-5.972167850E-1,-3.268652558E-1
2.614800000E-1,3.134087622E-1,-6.316346526E-1,-3.334800601E-1
2.634800000E-1,2.932502329E-1,-6.614274383E-1,-3.402693868E-1
2.654800000E-1,2.717826664E-1,-6.865078211E-1,-3.468318284E-1
2.674800000E-1,2.501056790E-1,-7.077484727E-1,-3.529579341E-1
2.694800000E-1,2.289697379E-1,-7.274532318E-1,-3.586128056E-1
2.714800000E-1,2.090031803E-1,-7.452555895E-1,-3.647040129E-1
2.734800000E-1,1.914102584E-1,-7.603875995E-1,-3.709697425E-1
2.754800000E-1,1.760339141E-1,-7.753974199E-1,-3.773227334E-1
2.774800000E-1,1.628392190E-1,-7.912799120E-1,-3.843215108E-1
2.794800000E-1,1.521054506E-1,-8.072147965E-1,-3.922103941E-1
2.814800000E-1,1.433089823E-1,-8.238128424E-1,-4.007973969E-1
2.834800000E-1,1.365720183E-1,-8.425576687E-1,-4.093320668E-1
2.854800000E-1,1.316327304E-1,-8.643917441E-1,-4.169242382E-1
2.874800000E-1,1.286656708E-1,-8.884249330E-1,-4.234692454E-1
2.894800000E-1,1.277755499E-1,-9.130515456E-1,-4.302585721E-1
2.914800000E-1,1.283515096E-1,-9.388474822E-1,-4.374318719E-1
2.934800000E-1,1.308124214E-1,-9.660921097E-1,-4.438197613E-1
2.954800000E-1,1.352804750E-1,-9.923244119E-1,-4.492652118E-1
2.974800000E-1,1.415112913E-1,-1.016881227E0,-4.546408057E-1
2.994800000E-1,1.497318000E-1,-1.038575649E0,-4.599815309E-1
3.014800000E-1,1.590693146E-1,-1.054650068E0,-4.653047621E-1
3.034800000E-1,1.682497412E-1,-1.064668298E0,-4.703138769E-1
3.054800000E-1,1.779712290E-1,-1.068438172E0,-4.752008021E-1
3.074800000E-1,1.888795346E-1,-1.066169262E0,-4.809778333E-1
3.094800000E-1,1.996307522E-1,-1.059571981E0,-4.867897928E-1
3.114800000E-1,2.093696892E-1,-1.050269365E0,-4.907516837E-1
3.134800000E-1,2.183930427E-1,-1.040163875E0,-4.929856956E-1
3.154800000E-1,2.252172828E-1,-1.031315088E0,-4.935791194E-1
3.174800000E-1,2.289348394E-1,-1.024560571E0,-4.916068912E-1
3.194800000E-1,2.304532677E-1,-1.020232201E0,-4.882907569E-1
3.214800000E-1,2.291791886E-1,-1.019411922E0,-4.847303033E-1
3.234800000E-1,2.258106917E-1,-1.021925211E0,-4.801226258E-1
3.254800000E-1,2.212902904E-1,-1.025782347E0,-4.744502902E-1
3.274800000E-1,2.156703323E-1,-1.029883862E0,-4.689874351E-1
3.294800000E-1,2.102249116E-1,-1.031541944E0,-4.642401338E-1
3.314800000E-1,2.057917714E-1,-1.028749466E0,-4.597895443E-1
3.334800000E-1,2.020916790E-1,-1.020982742E0,-4.554436803E-1
3.354800000E-1,1.996482164E-1,-1.008032322E0,-4.508360028E-1
3.374800000E-1,1.986533701E-1,-9.904568791E-1,-4.464377761E-1
3.394800000E-1,1.982344985E-1,-9.697398543E-1,-4.421268106E-1
3.414800000E-1,1.983915716E-1,-9.496161938E-1,-4.375191331E-1
3.434800000E-1,1.987580955E-1,-9.322676063E-1,-4.328067601E-1
3.454800000E-1,1.992293298E-1,-9.195266962E-1,-4.286877811E-1
3.474800000E-1,2.006954104E-1,-9.143430591E-1,-4.257381558E-1
3.494800000E-1,2.025454640E-1,-9.188634753E-1,-4.220206141E-1
3.514800000E-1,2.042384297E-1,-9.327039719E-1,-4.176572859E-1
3.534800000E-1,2.068389654E-1,-9.531592131E-1,-4.143062532E-1
3.554800000E-1,2.091428041E-1,-9.779079556E-1,-4.123165905E-1
3.574800000E-1,2.091428041E-1,-1.005030394E0,-4.108679593E-1
3.594800000E-1,2.078861594E-1,-1.034683585E0,-4.093320668E-1
3.614800000E-1,2.070484012E-1,-1.066954732E0,-4.093495309E-1
3.634800000E-1,2.073451132E-1,-1.099347949E0,-4.109203219E-1
3.654800000E-1,2.099805623E-1,-1.131165385E0,-4.128227234E-1
3.674800000E-1,2.157925069E-1,-1.162738323E0,-4.151789248E-1
3.694800000E-1,2.247984111E-1,-1.193578362E0,-4.180412591E-1
3.714800000E-1,2.366666496E-1,-1.223807454E0,-4.210955799E-1
3.734800000E-1,2.515892088E-1,-1.254734635E0,-4.239055812E-1
3.754800000E-1,2.699849904E-1,-1.285312772E0,-4.256857932E-1
3.774800000E-1,2.910336554E-1,-1.313534737E0,-4.267329872E-1
3.794800000E-1,3.141243458E-1,-1.338597775E0,-4.277802110E-1
3.814800000E-1,3.402519226E-1,-1.359855771E0,-4.301189482E-1
3.834800000E-1,3.698352575E-1,-1.376715660E0,-4.329463840E-1
3.854800000E-1,4.014431834E-1,-1.387990594E0,-4.353723824E-1
3.874800000E-1,4.354421794E-1,-1.392266631E0,-4.372922480E-1
3.894800000E-1,4.723384678E-1,-1.387693882E0,-4.387234151E-1
3.914800000E-1,5.119748712E-1,-1.374464273E0,-4.405560195E-1
3.934800000E-1,5.542991161E-1,-1.353625059E0,-4.409923553E-1
3.954800000E-1,5.980545282E-1,-1.324931741E0,-4.395960867E-1
3.974800000E-1,6.420542598E-1,-1.289588928E0,-4.368035495E-1
3.994800000E-1,6.845879555E-1,-1.250249147E0,-4.318817258E-1
4.014800000E-1,7.246258259E-1,-1.209321141E0,-4.242022634E-1
4.034800000E-1,7.620805502E-1,-1.168969154E0,-4.135034084E-1
4.054800000E-1,7.956258059E-1,-1.132980466E0,-3.999945521E-1
4.074800000E-1,8.247379065E-1,-1.104758501E0,-3.837629855E-1
4.094800000E-1,8.495389819E-1,-1.086013675E0,-3.648436368E-1
4.114800000E-1,8.697324991E-1,-1.077758312E0,-3.435680568E-1
4.134800000E-1,8.855276704E-1,-1.080079556E0,-3.203900754E-1
4.154800000E-1,8.963836432E-1,-1.091755748E0,-2.961125672E-1
4.174800000E-1,9.023701549E-1,-1.112280846E0,-2.713986933E-1
4.194800000E-1,9.044994116E-1,-1.141166091E0,-2.461961508E-1
4.214800000E-1,9.034696817E-1,-1.175322175E0,-2.210983038E-1
4.234800000E-1,8.986351490E-1,-1.212584972E0,-1.969953179E-1
4.254800000E-1,8.897165060E-1,-1.252692580E0,-1.745503843E-1
4.274800000E-1,8.775690198E-1,-1.294266343E0,-1.531177312E-1
4.294800000E-1,8.628384471E-1,-1.336433530E0,-1.327148378E-1
4.314800000E-1,8.467290401E-1,-1.380433202E0,-1.143016145E-1
4.334800000E-1,8.291361332E-1,-1.425497651E0,-9.796532989E-2
4.354800000E-1,8.102865815E-1,-1.471295118E0,-8.436921239E-2
4.374800000E-1,7.925190926E-1,-1.518035054E0,-7.410667837E-2
4.394800000E-1,7.758163214E-1,-1.564198971E0,-6.709045917E-2
4.414800000E-1,7.586073279E-1,-1.607605338E0,-6.297148019E-2
4.434800000E-1,7.424455881E-1,-1.648323894E0,-6.129596382E-2
4.454800000E-1,7.282909751E-1,-1.685412049E0,-6.155776232E-2
4.474800000E-1,7.146425247E-1,-1.717875242E0,-6.356488913E-2
4.494800000E-1,7.002435327E-1,-1.747807622E0,-6.689847261E-2
4.514800000E-1,6.849195361E-1,-1.775785208E0,-7.141887397E-2
4.534800000E-1,6.698399186E-1,-1.801057577E0,-7.703883201E-2
4.554800000E-1,6.551791430E-1,-1.824287891E0,-8.311257511E-2
4.574800000E-1,6.400645971E-1,-1.848251343E0,-8.874998987E-2
4.594800000E-1,6.241123080E-1,-1.873802900E0,-9.419541806E-2
4.614800000E-1,6.087883115E-1,-1.899668694E0,-1.005135104E-1
4.634800000E-1,5.943369865E-1,-1.924714208E0,-1.071981192E-1
4.654800000E-1,5.799379945E-1,-1.949428082E0,-1.140223593E-1
4.674800000E-1,5.658706427E-1,-1.973688126E0,-1.208989546E-1
4.694800000E-1,5.510004163E-1,-1.996185422E0,-1.271646917E-1
4.714800000E-1,5.364094973E-1,-2.016082287E0,-1.325577497E-1
4.734800000E-1,5.232148170E-1,-2.031755209E0,-1.372876018E-1
4.754800000E-1,5.105960965E-1,-2.043815374E0,-1.420523524E-1
4.774800000E-1,4.985009432E-1,-2.052507162E0,-1.471487135E-1
4.794800000E-1,4.869643152E-1,-2.055421829E0,-1.517389268E-1
4.814800000E-1,4.756196737E-1,-2.051547289E0,-1.551946700E-1
4.834800000E-1,4.650255144E-1,-2.041773319E0,-1.578650326E-1
4.854800000E-1,4.553389549E-1,-2.027060270E0,-1.598896086E-1
4.874800000E-1,4.450764060E-1,-2.007180929E0,-1.610240787E-1
4.894800000E-1,4.345869720E-1,-1.982990742E0,-1.627519578E-1
4.914800000E-1,4.236961305E-1,-1.955152750E0,-1.666265875E-1
4.934800000E-1,4.094716907E-1,-1.914469123E0,-1.893333197E-1
4.954800000E-1,3.910584748E-1,-1.853399992E0,-2.465626597E-1
4.974800000E-1,3.709348142E-1,-1.782452345E0,-3.149970174E-1
4.994800000E-1,3.517012894E-1,-1.715396881E0,-3.652625084E-1
5.014800000E-1,3.375641406E-1,-1.658097744E0,-3.926641643E-1
5.034800000E-1,3.305304646E-1,-1.608896852E0,-4.031884968E-1
5.054800000E-1,3.276855648E-1,-1.567410350E0,-3.992615044E-1
5.074800000E-1,3.230429888E-1,-1.537268519E0,-3.818780482E-1
5.094800000E-1,3.116808832E-1,-1.517738342E0,-3.546159863E-1
5.114800000E-1,2.941228747E-1,-1.507894635E0,-3.211056888E-1
5.134800000E-1,2.721317410E-1,-1.507981896E0,-2.853613198E-1
5.154800000E-1,2.455154657E-1,-1.516865611E0,-2.487268746E-1
5.174800000E-1,2.122669369E-1,-1.532783031E0,-2.117084414E-1
5.194800000E-1,1.725432426E-1,-1.554739237E0,-1.745503843E-1
5.214800000E-1,1.288925707E-1,-1.581669688E0,-1.373225003E-1
5.234800000E-1,8.241444826E-2,-1.612509727E0,-1.019795910E-1
5.254800000E-1,3.413863853E-2,-1.646840334E0,-7.117452472E-2
5.274800000E-1,-1.516691130E-2,-1.683230400E0,-4.284783453E-2
5.294800000E-1,-6.522295624E-2,-1.719184160E0,-1.333431527E-2
5.314800000E-1,-1.159073189E-1,-1.752764344E0,1.886700839E-2
5.334800000E-1,-1.668360233E-1,-1.783167958E0,5.628686771E-2
5.354800000E-1,-2.166128159E-1,-1.811320186E0,9.960594028E-2
5.374800000E-1,-2.646442652E-1,-1.837604761E0,1.472359747E-1
5.394800000E-1,-3.103893399E-1,-1.861568213E0,1.981821358E-1
5.414800000E-1,-3.539527655E-1,-1.884589076E0,2.523746192E-1
5.434800000E-1,-3.953519762E-1,-1.906580210E0,3.072652221E-1
5.454800000E-1,-4.349360466E-1,-1.926267505E0,3.618067503E-1
5.474800000E-1,-4.731413126E-1,-1.943109989E0,4.152487218E-1
5.494800000E-1,-5.095314384E-1,-1.957857966E0,4.663519859E-1
5.514800000E-1,-5.448569059E-1,-1.972693324E0,5.155702829E-1
5.534800000E-1,-5.791177154E-1,-1.986638427E0,5.621181726E-1
5.554800000E-1,-6.119996905E-1,-1.997983098E0,6.056815982E-1
5.574800000E-1,-6.440090537E-1,-2.007652283E0,6.474124193E-1
5.594800000E-1,-6.762976050E-1,-2.016954899E0,6.864903569E-1
5.614800000E-1,-7.099475861E-1,-2.025175333E0,7.228979468E-1
5.634800000E-1,-7.432309985E-1,-2.030708075E0,7.582408190E-1
5.654800000E-1,-7.760257721E-1,-2.033291101E0,7.925190926E-1
5.674800000E-1,-8.098851442E-1,-2.034024239E0,8.257327080E-1
5.694800000E-1,-8.432383537E-1,-2.033378363E0,8.578642607E-1
5.714800000E-1,-8.748113513E-1,-2.031528234E0,8.886169195E-1
5.734800000E-1,-9.050230384E-1,-2.029521227E0,9.194568992E-1
5.754800000E-1,-9.334195256E-1,-2.027444363E0,9.512568116E-1
5.774800000E-1,-9.598088861E-1,-2.024058342E0,9.821840525E-1
5.794800000E-1,-9.853954315E-1,-2.017635584E0,1.011191368E0
5.814800000E-1,-1.010632873E0,-2.008088589E0,1.039099216E0
5.834800000E-1,-1.034177423E0,-1.996935964E0,1.068141460E0
5.854800000E-1,-1.056063771E0,-1.984509110E0,1.097951770E0
5.874800000E-1,-1.077287078E0,-1.969342232E0,1.124917030E0
5.894800000E-1,-1.097602606E0,-1.951487541E0,1.148199797E0
5.914800000E-1,-1.116906047E0,-1.930962443E0,1.167154074E0
5.934800000E-1,-1.135825396E0,-1.909355283E0,1.180226564E0
5.954800000E-1,-1.154884338E0,-1.889510870E0,1.189337134E0
5.974800000E-1,-1.172739029E0,-1.871970296E0,1.195567966E0
5.994800000E-1,-1.188220143E0,-1.856297255E0,1.198744535E0
6.014800000E-1,-1.200524688E0,-1.843922853E0,1.199721813E0
6.034800000E-1,-1.213091135E0,-1.830379128E0,1.198220849E0
6.054800000E-1,-1.224854589E0,-1.816329241E0,1.195725083E0
6.074800000E-1,-1.234052539E0,-1.805246353E0,1.193438649E0
6.094800000E-1,-1.243477225E0,-1.793482900E0,1.189668775E0
6.114800000E-1,-1.252361059E0,-1.780480146E0,1.184659719E0
6.134800000E-1,-1.260092854E0,-1.766028881E0,1.179458618E0
6.154800000E-1,-1.266061783E0,-1.747842550E0,1.172931075E0
6.174800000E-1,-1.270076036E0,-1.729708552E0,1.166490793E0
6.194800000E-1,-1.272345066E0,-1.713494420E0,1.161342025E0
6.214800000E-1,-1.273270011E0,-1.693946719E0,1.154814601E0
6.234800000E-1,-1.273322463E0,-1.672409415E0,1.146489382E0
6.254800000E-1,-1.273043156E0,-1.650714993E0,1.137099504E0
6.274800000E-1,-1.271978498E0,-1.628619075E0,1.127273202E0
6.294800000E-1,-1.270582199E0,-1.607011914E0,1.117604136E0
6.314800000E-1,-1.269709587E0,-1.585893393E0,1.107655764E0
6.334800000E-1,-1.268732190E0,-1.564984322E0,1.097620130E0
6.354800000E-1,-1.267999172E0,-1.544808388E0,1.088474631E0
6.374800000E-1,-1.268034101E0,-1.525225759E0,1.080969691E0
6.394800000E-1,-1.268034101E0,-1.506515861E0,1.075087905E0
6.414800000E-1,-1.267405748E0,-1.490074873E0,1.070462823E0
6.434800000E-1,-1.266201496E0,-1.474227309E0,1.067338705E0
6.454800000E-1,-1.265084505E0,-1.461137295E0,1.066047072E0
6.474800000E-1,-1.264002323E0,-1.452340841E0,1.067111731E0
6.494800000E-1,-1.262291908E0,-1.445289731E0,1.070061326E0
6.514800000E-1,-1.259394646E0,-1.441467404E0,1.074738860E0
6.534800000E-1,-1.255362988E0,-1.440228224E0,1.081702709E0
6.554800000E-1,-1.250266552E0,-1.439407945E0,1.090202451E0
6.574800000E-1,-1.243756533E0,-1.439076304E0,1.100307941E0
6.594800000E-1,-1.236059666E0,-1.440524936E0,1.112298369E0
6.614800000E-1,-1.226617336E0,-1.440804243E0,1.126016617E0
6.634800000E-1,-1.215831280E0,-1.437749863E0,1.140764594E0
6.654800000E-1,-1.204504013E0,-1.433351636E0,1.155285835E0
6.674800000E-1,-1.191990018E0,-1.427469850E0,1.169719696E0
6.694800000E-1,-1.177433968E0,-1.419389009E0,1.184118629E0
6.714800000E-1,-1.160766125E0,-1.409772277E0,1.197871804E0
6.734800000E-1,-1.142632127E0,-1.399562120E0,1.211031556E0
6.754800000E-1,-1.123887300E0,-1.390032530E0,1.223353624E0
6.774800000E-1,-1.105194807E0,-1.382998943E0,1.233720899E0
6.794800000E-1,-1.086240530E0,-1.379194021E0,1.242360234E0
6.814800000E-1,-1.067460775E0,-1.378897429E0,1.249673247E0
6.834800000E-1,-1.046883345E0,-1.384464979E0,1.255799294E0
6.854800000E-1,-1.029046178E0,-1.393034577E0,1.260511637E0
6.874800000E-1,-1.015467405E0,-1.403471589E0,1.263688207E0
6.894800000E-1,-1.001731753E0,-1.418463945E0,1.264665604E0
6.914800000E-1,-9.879261851E-1,-1.435288906E0,1.263792872E0
6.934800000E-1,-9.737889767E-1,-1.453178525E0,1.262815475E0
6.954800000E-1,-9.591980577E-1,-1.470893621E0,1.261139989E0
6.974800000E-1,-9.441009760E-1,-1.485973358E0,1.258260250E0
6.994800000E-1,-9.284977317E-1,-1.498435020E0,1.255188465E0
7.014800000E-1,-9.114109278E-1,-1.507301211E0,1.252046824E0
7.034800000E-1,-8.889834285E-1,-1.509954095E0,1.248870373E0
7.054800000E-1,-8.669224977E-1,-1.507562995E0,1.246322155E0
7.074800000E-1,-8.478285670E-1,-1.500913382E0,1.243704200E0
7.094800000E-1,-8.258548975E-1,-1.489673376E0,1.241068721E0
7.114800000E-1,-8.017693758E-1,-1.474698544E0,1.238398314E0
7.134800000E-1,-7.777535915E-1,-1.458484411E0,1.236059666E0
7.154800000E-1,-7.572460175E-1,-1.446214676E0,1.235431314E0
7.174800000E-1,-7.410144210E-1,-1.437435746E0,1.236740351E0
7.194800000E-1,-7.268249393E-1,-1.427225590E0,1.238223791E0
7.214800000E-1,-7.125306726E-1,-1.413612008E0,1.237560630E0
7.234800000E-1,-6.975557208E-1,-1.393540740E0,1.232568979E0
7.254800000E-1,-6.848322749E-1,-1.372107983E0,1.225482941E0
7.274800000E-1,-6.733480096E-1,-1.349820137E0,1.216913342E0
7.294800000E-1,-6.588792205E-1,-1.320236802E0,1.203963041E0
7.314800000E-1,-6.438345313E-1,-1.286412358E0,1.188272476E0
7.334800000E-1,-6.263462901E-1,-1.247700930E0,1.171779156E0
7.354800000E-1,-6.059783101E-1,-1.209844828E0,1.154971600E0
7.374800000E-1,-5.897991061E-1,-1.182774782E0,1.138024449E0
7.394800000E-1,-5.781577826E-1,-1.165740252E0,1.120396614E0
7.414800000E-1,-5.674239993E-1,-1.154709816E0,1.100273013E0
7.434800000E-1,-5.561142564E-1,-1.150538445E0,1.077252150E0
7.454800000E-1,-5.433035493E-1,-1.154517889E0,1.052730203E0
7.474800000E-1,-5.295677781E-1,-1.164658189E0,1.026340842E0
7.494800000E-1,-5.154480934E-1,-1.179842591E0,9.972811341E-1
7.514800000E-1,-5.027595162E-1,-1.201170444E0,9.665284157E-1
7.534800000E-1,-4.931776822E-1,-1.230055690E0,9.347459674E-1
7.554800000E-1,-4.867374301E-1,-1.267370820E0,9.006596804E-1
7.574800000E-1,-4.838052690E-1,-1.311929107E0,8.634318113E-1
7.594800000E-1,-4.823042750E-1,-1.357831240E0,8.245982528E-1
7.614800000E-1,-4.804367721E-1,-1.400818706E0,7.867071629E-1
7.634800000E-1,-4.787088931E-1,-1.444207549E0,7.517133355E-1
7.654800000E-1,-4.786565602E-1,-1.491855025E0,7.191454768E-1
7.674800000E-1,-4.808382094E-1,-1.542172909E0,6.875898838E-1
7.694800000E-1,-4.839274287E-1,-1.592962027E0,6.580240130E-1
7.714800000E-1,-4.870864749E-1,-1.642354846E0,6.311459541E-1
7.734800000E-1,-4.965810776E-1,-1.673823118E0,6.056815982E-1
7.754800000E-1,-5.234766006E-1,-1.668656945E0,5.804964900E-1
7.774800000E-1,-5.666385889E-1,-1.639387727E0,5.560269952E-1
7.794800000E-1,-6.151238680E-1,-1.606645346E0,5.359731317E-1
7.814800000E-1,-6.626491547E-1,-1.576590776E0,5.249601603E-1
7.834800000E-1,-7.088131309E-1,-1.552051544E0,5.223770142E-1
7.854800000E-1,-7.550643086E-1,-1.537320852E0,5.200732350E-1
7.874800000E-1,-8.007221222E-1,-1.535435915E0,5.099677444E-1
7.894800000E-1,-8.442506790E-1,-1.543185234E0,4.894426763E-1
7.914800000E-1,-8.862782121E-1,-1.555193067E0,4.577300549E-1
7.934800000E-1,-9.251466990E-1,-1.560690880E0,4.167322516E-1
7.954800000E-1,-9.646609426E-1,-1.560411572E0,3.684739172E-1
7.974800000E-1,-1.010091901E0,-1.560306907E0,3.131644130E-1
7.994800000E-1,-1.058245540E0,-1.557095528E0,2.559350729E-1
8.014800000E-1,-1.105631113E0,-1.549171686E0,2.001368999E-1
8.034800000E-1,-1.149543643E0,-1.537739754E0,1.442689151E-1
8.054800000E-1,-1.188883424E0,-1.520443559E0,8.649851382E-2
8.074800000E-1,-1.224138975E0,-1.487526655E0,2.541199327E-2
8.094800000E-1,-1.256811619E0,-1.440053701E0,-4.235913977E-2
8.114800000E-1,-1.289030313E0,-1.385686755E0,-1.204451695E-1
8.134800000E-1,-1.321720362E0,-1.327881455E0,-2.071531266E-1
8.154800000E-1,-1.354288220E0,-1.270268083E0,-2.998999357E-1
8.174800000E-1,-1.383016348E0,-1.212410450E0,-3.969925940E-1
8.194800000E-1,-1.406054735E0,-1.155076385E0,-4.952197075E-1
8.214800000E-1,-1.423961759E0,-1.107132196E0,-5.926614404E-1
8.234800000E-1,-1.431885600E0,-1.072138309E0,-6.888116598E-1
8.254800000E-1,-1.425637245E0,-1.046220183E0,-7.812966108E-1
8.274800000E-1,-1.404798031E0,-1.027143717E0,-8.678649664E-1
8.294800000E-1,-1.371689200E0,-1.014961362E0,-9.485689998E-1
8.314800000E-1,-1.332646132E0,-1.015380144E0,-1.027178645E0
8.334800000E-1,-1.294964433E0,-1.034474134E0,-1.107149601E0
8.354800000E-1,-1.265119314E0,-1.068769813E0,-1.186108351E0
8.374800000E-1,-1.246967912E0,-1.113345504E0,-1.262117386E0
8.394800000E-1,-1.238625288E0,-1.164309144E0,-1.336939692E0
8.414800000E-1,-1.233354330E0,-1.216319919E0,-1.413786530E0
8.434800000E-1,-1.224889517E0,-1.264316559E0,-1.494001865E0
8.454800000E-1,-1.209757566E0,-1.300881147E0,-1.575892687E0
8.474800000E-1,-1.187190413E0,-1.317671180E0,-1.659092546E0
8.494800000E-1,-1.158113241E0,-1.311876774E0,-1.742205143E0
8.514800000E-1,-1.123555660E0,-1.286796331E0,-1.824951172E0
8.534800000E-1,-1.085175872E0,-1.251645446E0,-1.907243490E0
8.554800000E-1,-1.037371397E0,-1.231347203E0,-1.984928012E0
8.574800000E-1,-9.793915153E-1,-1.227490067E0,-2.049068928E0
8.594800000E-1,-9.179210067E-1,-1.224994183E0,-2.096314907E0
8.614800000E-1,-8.524886370E-1,-1.230596781E0,-2.135759354E0
8.634800000E-1,-7.838796973E-1,-1.242028594E0,-2.171695709E0
8.654800000E-1,-7.180808187E-1,-1.235326529E0,-2.189794779E0
8.674800000E-1,-6.534163356E-1,-1.214592099E0,-2.182953119E0
8.694800000E-1,-5.825908780E-1,-1.200472355E0,-2.163440228E0
8.714800000E-1,-5.079955459E-1,-1.181169033E0,-2.133403301E0
8.734800000E-1,-4.359658062E-1,-1.137623072E0,-2.082666397E0
8.754800000E-1,-3.674965203E-1,-1.069729805E0,-2.009938717E0
8.774800000E-1,-2.960776389E-1,-1.002307653E0,-1.926354766E0
8.794800000E-1,-2.177647352E-1,-9.470854402E-1,-1.838041186E0
8.814800000E-1,-1.391725540E-1,-8.839045167E-1,-1.737702131E0
8.834800000E-1,-6.583382189E-2,-8.089426756E-1,-1.623959064E0
8.854800000E-1,6.300638430E-3,-7.405431867E-1,-1.507894635E0
8.874800000E-1,7.922049612E-2,-6.855653524E-1,-1.395303488E0
8.894800000E-1,1.461538672E-1,-6.256132722E-1,-1.280670285E0
8.914800000E-1,2.005557865E-1,-5.440889597E-1,-1.159212828E0
8.934800000E-1,2.441541106E-1,-4.556705654E-1,-1.037476063E0
8.954800000E-1,2.852566242E-1,-3.868522346E-1,-9.279566407E-1
8.974800000E-1,3.288200200E-1,-3.481059074E-1,-8.395033479E-1
8.994800000E-1,3.740065992E-1,-3.345447183E-1,-7.719416618E-1
9.014800000E-1,4.176572859E-1,-3.318569064E-1,-7.201228738E-1
9.034800000E-1,4.531049132E-1,-3.159394860E-1,-6.753551364E-1
9.054800000E-1,4.760560095E-1,-2.731440365E-1,-6.299940348E-1
9.074800000E-1,4.885525703E-1,-2.099631131E-1,-5.850169063E-1
9.094800000E-1,4.933173060E-1,-1.397485137E-1,-5.465149283E-1
9.114800000E-1,4.939979911E-1,-7.422885299E-2,-5.188340545E-1
9.134800000E-1,4.939630926E-1,-2.230530791E-2,-5.041034222E-1
9.154800000E-1,4.952022731E-1,8.272860199E-3,-5.053600669E-1
9.174800000E-1,5.004557371E-1,1.378810126E-2,-5.229181051E-1
9.194800000E-1,5.107880831E-1,-1.623156248E-3,-5.556430221E-1
9.214800000E-1,5.241572857E-1,-2.652900480E-2,-6.024178267E-1
9.234800000E-1,5.384340882E-1,-5.150466785E-2,-6.599613428E-1
9.254800000E-1,5.521349311E-1,-7.176794112E-2,-7.253588438E-1
9.274800000E-1,5.621356368E-1,-7.655014098E-2,-7.936535478E-1
9.294800000E-1,5.658881068E-1,-5.892231688E-2,-8.599586487E-1
9.314800000E-1,5.645616651E-1,-2.680825815E-2,-9.238725901E-1
9.334800000E-1,5.593082309E-1,1.213003788E-2,-9.865124226E-1
9.354800000E-1,5.499008894E-1,5.448918045E-2,-1.048942924E0
9.374800000E-1,5.391321778E-1,9.131562710E-2,-1.114741802E0
9.394800000E-1,5.300041437E-1,1.160818487E-1,-1.189197540E0
9.414800000E-1,5.240874887E-1,1.305855364E-1,-1.273165345E0
9.434800000E-1,5.229355693E-1,1.358564347E-1,-1.364480972E0
9.454800000E-1,5.268799663E-1,1.326275766E-1,-1.462236881E0
9.474800000E-1,5.338613391E-1,1.259604096E-1,-1.562645674E0
9.494800000E-1,5.398652554E-1,1.270250678E-1,-1.656858563E0
9.514800000E-1,5.410346389E-1,1.438849419E-1,-1.740023494E0
9.534800000E-1,5.380501151E-1,1.715658605E-1,-1.811128139E0
9.554800000E-1,5.349259377E-1,2.020916790E-1,-1.870050430E0
9.574800000E-1,5.336693525E-1,2.302961946E-1,-1.918029547E0
9.594800000E-1,5.340881944E-1,2.512575984E-1,-1.956182480E0
9.614800000E-1,5.367934704E-1,2.613630593E-1,-1.988121986E0
9.634800000E-1,5.445252657E-1,2.610488832E-1,-2.017530680E0
9.654800000E-1,5.593430996E-1,2.508212626E-1,-2.046869755E0
9.674800000E-1,5.789605975E-1,2.312037647E-1,-2.078390360E0
9.694800000E-1,6.008296013E-1,2.077465355E-1,-2.111097813E0
9.714800000E-1,6.248802543E-1,1.893507689E-1,-2.143979788E0
9.734800000E-1,6.507634521E-1,1.875530779E-1,-2.173772573E0
9.754800000E-1,6.777113676E-1,2.066993415E-1,-2.197264910E0
9.774800000E-1,7.050955892E-1,2.432290763E-1,-2.214403868E0
9.794800000E-1,7.342425585E-1,2.915572524E-1,-2.225486755E0
9.814800000E-1,7.653617859E-1,3.481582701E-1,-2.230321407E0
9.834800000E-1,7.985404730E-1,4.090702832E-1,-2.227546215E0
9.854800000E-1,8.360301852E-1,4.666835964E-1,-2.219465494E0
9.874800000E-1,8.768534064E-1,5.172981620E-1,-2.209237814E0
9.894800000E-1,9.184097052E-1,5.609313846E-1,-2.197509050E0
9.914800000E-1,9.586918950E-1,5.973215103E-1,-2.184209824E0
9.934800000E-1,9.943315387E-1,6.234839559E-1,-2.170578718E0
9.954800000E-1,1.022413850E0,6.376211047E-1,-2.159670353E0
9.974800000E-1,1.043008804E0,6.376909614E-1,-2.151764154E0
9.994800000E-1,1.057058692E0,6.228731275E-1,-2.145690203E0
1.001480000E0,1.064685702E0,5.969549417E-1,-2.141972780E0
1.003480000E0,1.068420768E0,5.576850772E-1,-2.139494419E0
1.005480000E0,1.072138309E0,4.981518686E-1,-2.138499498E0
1.007480000E0,1.076501608E0,4.180412591E-1,-2.138726473E0
1.009480000E0,1.085210800E0,3.185225725E-1,-2.137871265E0
1.011480000E0,1.097916842E0,2.117258906E-1,-2.134991407E0
1.013480000E0,1.105613708E0,1.215272769E-1,-2.130662918E0
1.015480000E0,1.106538773E0,5.420992523E-2,-2.125741243E0
1.017480000E0,1.106591105E0,-4.747295752E-3,-2.121535063E0
1.019480000E0,1.108825088E0,-6.379178166E-2,-2.117922068E0
1.021480000E0,1.111006737E0,-1.159073189E-1,-2.113611221E0
1.023480000E0,1.111251116E0,-1.579522938E-1,-2.110609293E0
1.025480000E0,1.109785080E0,-1.905375868E-1,-2.109998226E0
1.027480000E0,1.106975079E0,-2.116909772E-1,-2.111970663E0
1.029480000E0,1.103623986E0,-2.272418737E-1,-2.117503166E0
1.031480000E0,1.101931095E0,-2.480985522E-1,-2.125758648E0
1.033480000E0,1.102524519E0,-2.761634588E-1,-2.136998653E0
1.035480000E0,1.104007959E0,-3.046297729E-1,-2.152008295E0
1.037480000E0,1.106207132E0,-3.326248527E-1,-2.169793367E0
1.039480000E0,1.109942079E0,-3.623303473E-1,-2.189969301E0
1.041480000E0,1.115562081E0,-3.962071836E-1,-2.214596033E0
1.043480000E0,1.121950030E0,-4.396484494E-1,-2.244825125E0
1.045480000E0,1.128023744E0,-4.885874689E-1,-2.279539585E0
1.047480000E0,1.133329511E0,-5.309291482E-1,-2.317657709E0
1.049480000E0,1.137710333E0,-5.645616651E-1,-2.359056711E0
1.051480000E0,1.142649651E0,-6.025749445E-1,-2.404313326E0
1.053480000E0,1.150328994E0,-6.464524865E-1,-2.453985214E0
1.055480000E0,1.160417080E0,-6.813416481E-1,-2.506711721E0
1.057480000E0,1.170505047E0,-7.021808624E-1,-2.560048819E0
1.059480000E0,1.179982185E0,-7.166671157E-1,-2.613019705E0
1.061480000E0,1.189843297E0,-7.351850271E-1,-2.663616657E0
1.063480000E0,1.200158238E0,-7.616617084E-1,-2.710094929E0
1.065480000E0,1.212881684E0,-7.964286208E-1,-2.754897594E0
1.067480000E0,1.228484869E0,-8.304625750E-1,-2.800904274E0
1.069480000E0,1.244297624E0,-8.515810370E-1,-2.846789122E0
1.071480000E0,1.257370114E0,-8.630129695E-1,-2.890701532E0
1.073480000E0,1.264578342E0,-8.714603186E-1,-2.933845997E0
1.075480000E0,1.267824650E0,-8.837299943E-1,-2.977584124E0
1.077480000E0,1.271995902E0,-9.083042741E-1,-3.023503780E0
1.079480000E0,1.278750420E0,-9.501746893E-1,-3.073105812E0
1.081480000E0,1.287808657E0,-1.012046576E0,-3.125500679E0
1.083480000E0,1.300636768E0,-1.095298767E0,-3.180914879E0
1.085480000E0,1.318491578E0,-1.194852352E0,-3.241041422E0
1.087480000E0,1.338702440E0,-1.302294850E0,-3.304327250E0
1.089480000E0,1.358285069E0,-1.411674619E0,-3.368293524E0
1.091480000E0,1.377309084E0,-1.522799730E0,-3.432521582E0
1.093480000E0,1.395163894E0,-1.637782097E0,-3.496540308E0
1.095480000E0,1.409370780E0,-1.751193523E0,-3.559843302E0
1.097480000E0,1.418306947E0,-1.853853822E0,-3.622535467E0
1.099480000E0,1.421308875E0,-1.939532042E0,-3.683726788E0
1.101480000E0,1.419057369E0,-2.012591600E0,-3.744935513E0
1.103480000E0,1.412774205E0,-2.085877895E0,-3.810577393E0
1.105480000E0,1.404536247E0,-2.163073778E0,-3.880530119E0
1.107480000E0,1.395512938E0,-2.237093210E0,-3.951617479E0
1.109480000E0,1.383627176E0,-2.304166317E0,-4.022530079E0
1.111480000E0,1.366470575E0,-2.365549564E0,-4.092116356E0
1.113480000E0,1.344653964E0,-2.416094065E0,-4.164948940E0
1.115480000E0,1.318735838E0,-2.453409433E0,-4.245094299E0
1.117480000E0,1.287669063E0,-2.484371424E0,-4.329795361E0
1.119480000E0,1.251662850E0,-2.501405954E0,-4.415735245E0
1.121480000E0,1.213021278E0,-2.488752127E0,-4.498691082E0
1.123480000E0,1.173611760E0,-2.446375608E0,-4.579482079E0
1.125480000E0,1.135162115E0,-2.385236740E0,-4.662559986E0
1.127480000E0,1.098998904E0,-2.313329220E0,-4.749721527E0
1.129480000E0,1.064074874E0,-2.235121012E0,-4.841700554E0
1.131480000E0,1.029342771E0,-2.154696226E0,-4.937850475E0
1.133480000E0,9.931098223E-1,-2.085336924E0,-5.038224697E0
1.135480000E0,9.562658668E-1,-2.032802343E0,-5.144096375E0
1.137480000E0,9.194918275E-1,-1.975747585E0,-5.254418373E0
1.139480000E0,8.840092421E-1,-1.897277594E0,-5.371931553E0
1.141480000E0,8.484045267E-1,-1.805682778E0,-5.496460438E0
1.143480000E0,8.077208996E-1,-1.719795108E0,-5.623223782E0
1.145480000E0,7.618013024E-1,-1.646002531E0,-5.752465725E0
1.147480000E0,7.128099203E-1,-1.580936670E0,-5.886209965E0
1.149480000E0,6.609910727E-1,-1.523829460E0,-6.026499748E0
1.151480000E0,6.054896116E-1,-1.477229238E0,-6.172286987E0
1.153480000E0,5.466021895E-1,-1.441223025E0,-6.319697380E0
1.155480000E0,4.847477376E-1,-1.410138726E0,-6.464926243E0
1.157480000E0,4.191757143E-1,-1.388025403E0,-6.606123447E0
1.159480000E0,3.489262164E-1,-1.387554169E0,-6.743445873E0
1.161480000E0,2.764601409E-1,-1.401551723E0,-6.875096321E0
1.163480000E0,2.034006715E-1,-1.409143925E0,-6.998124599E0
1.165480000E0,1.282118857E-1,-1.397415280E0,-7.107224941E0
1.167480000E0,4.804891348E-2,-1.358860970E0,-7.196149349E0
1.169480000E0,-3.853686899E-2,-1.293917298E0,-7.266119957E0
1.171480000E0,-1.312487572E-1,-1.211939216E0,-7.324256897E0
1.173480000E0,-2.261074036E-1,-1.111966729E0,-7.364975452E0
1.175480000E0,-3.152239025E-1,-9.854128957E-1,-7.378082752E0
1.177480000E0,-3.934844732E-1,-8.328885436E-1,-7.365097523E0
1.179480000E0,-4.616395831E-1,-6.641327143E-1,-7.330470085E0
1.181480000E0,-5.228308439E-1,-4.890587032E-1,-7.279122353E0
1.183480000E0,-5.805663466E-1,-3.130073547E-1,-7.214039326E0
1.185480000E0,-6.391046643E-1,-1.396961510E-1,-7.138606071E0
1.187480000E0,-6.976604462E-1,2.961823717E-2,-7.053940296E0
1.189480000E0,-7.536855340E-1,1.954419762E-1,-6.958871841E0
1.191480000E0,-8.077383637E-1,3.585953414E-1,-6.857032299E0
1.193480000E0,-8.587892652E-1,5.171585083E-1,-6.751509666E0
1.195480000E0,-9.086009264E-1,6.685134768E-1,-6.643229485E0
1.197480000E0,-9.601230621E-1,8.115606308E-1,-6.533168793E0
1.199480000E0,-1.011086702E0,9.420589209E-1,-6.417052269E0
1.201480000E0,-1.058978558E0,1.064947605E0,-6.290236473E0
1.203480000E0,-1.102454662E0,1.191344261E0,-6.150226116E0
1.205480000E0,-1.140991569E0,1.319503784E0,-5.996654510E0
1.207480000E0,-1.175287247E0,1.442374945E0,-5.835665226E0
1.209480000E0,-1.204730988E0,1.558037996E0,-5.672599316E0
1.211480000E0,-1.229322672E0,1.666667223E0,-5.509009361E0
1.213480000E0,-1.249446273E0,1.770235062E0,-5.344878674E0
1.215480000E0,-1.264578342E0,1.870783567E0,-5.179595947E0
1.217480000E0,-1.276097536E0,1.967265368E0,-5.012882233E0
1.219480000E0,-1.285522223E0,2.059244156E0,-4.842764854E0
1.221480000E0,-1.290321946E0,2.146877050E0,-4.668092728E0
1.223480000E0,-1.290374279E0,2.231787443E0,-4.493454933E0
1.225480000E0,-1.286604404E0,2.314009905E0,-4.324838638E0
1.227480000E0,-1.276237130E0,2.397977591E0,-4.164983749E0
1.229480000E0,-1.250859976E0,2.499398708E0,-4.009946346E0
1.231480000E0,-1.204556465E0,2.628413439E0,-3.854995966E0
1.233480000E0,-1.139612675E0,2.782264233E0,-3.698492289E0
1.235480000E0,-1.061421990E0,2.947145462E0,-3.542302847E0
1.237480000E0,-9.809797406E-1,3.098866940E0,-3.392239332E0
1.239480000E0,-9.053022861E-1,3.224373579E0,-3.252246618E0
1.241480000E0,-8.375834823E-1,3.322810173E0,-3.122027397E0
1.243480000E0,-7.793942094E-1,3.396026850E0,-2.999592543E0
1.245480000E0,-7.257253528E-1,3.455804348E0,-2.883772612E0
1.247480000E0,-6.735749245E-1,3.502561569E0,-2.771931887E0
1.249480000E0,-6.267826557E-1,3.519683361E0,-2.657595396E0
1.251480000E0,-5.805837512E-1,3.506139517E0,-2.527411222E0
1.253480000E0,-5.308418870E-1,3.465595484E0,-2.371832609E0
1.255480000E0,-4.869294167E-1,3.384385347E0,-2.196758747E0
1.257480000E0,-4.520053566E-1,3.262631178E0,-2.008402824E0
1.259480000E0,-4.172733128E-1,3.115534782E0,-1.806415796E0
1.261480000E0,-3.794694841E-1,2.941403389E0,-1.591321349E0
1.263480000E0,-3.454530239E-1,2.742366076E0,-1.362351656E0
1.265480000E0,-3.196221590E-1,2.536679029E0,-1.118913174E0
1.267480000E0,-3.008947670E-1,2.333313227E0,-8.635714650E-1
1.269480000E0,-2.844363153E-1,2.128062487E0,-5.986479521E-1
1.271480000E0,-2.650980651E-1,1.912269950E0,-3.254166245E-1
1.273480000E0,-2.468244582E-1,1.672287226E0,-4.502949491E-2
1.275480000E0,-2.314830124E-1,1.407625437E0,2.436479628E-1
1.277480000E0,-2.170316875E-1,1.125353336E0,5.404412150E-1
1.279480000E0,-2.045351416E-1,8.194844127E-1,8.424355388E-1
1.281480000E0,-1.928065270E-1,4.907516837E-1,1.146855831E0
1.283480000E0,-1.788787991E-1,1.461015046E-1,1.450996876E0
1.285480000E0,-1.602735817E-1,-2.141693532E-1,1.751874208E0
1.287480000E0,-1.372352391E-1,-5.871462226E-1,2.044478655E0
1.289480000E0,-1.108109504E-1,-9.703332186E-1,2.320781708E0
1.291480000E0,-8.175121993E-2,-1.364306450E0,2.575285673E0
1.293480000E0,-4.939281940E-2,-1.768036008E0,2.803557158E0
1.295480000E0,-1.445132587E-2,-2.177943945E0,2.999994040E0
1.297480000E0,1.994911395E-2,-2.587520361E0,3.160459757E0
1.299480000E0,5.386086181E-2,-2.992227316E0,3.282894611E0
1.301480000E0,8.943066746E-2,-3.386130810E0,3.372185469E0
1.303480000E0,1.263269335E-1,-3.764256239E0,3.434423923E0
1.305480000E0,1.634326279E-1,-4.123654366E0,3.470796585E0
1.307480000E0,2.056870461E-1,-4.452073097E0,3.482141256E0
1.309480000E0,2.629687488E-1,-4.721168041E0,3.468440533E0
1.311480000E0,3.336371481E-1,-4.923503876E0,3.428472519E0
1.313480000E0,4.053352773E-1,-5.082241535E0,3.363581181E0
1.315480000E0,4.711167216E-1,-5.208097458E0,3.275302410E0
1.317480000E0,5.275781155E-1,-5.301298141E0,3.165835381E0
1.319480000E0,5.707575679E-1,-5.371128559E0,3.043609858E0
1.321480000E0,6.015975475E-1,-5.416908741E0,2.911488533E0
1.323480000E0,6.239203215E-1,-5.425757408E0,2.762070894E0
1.325480000E0,6.352300048E-1,-5.398739815E0,2.592651606E0
1.327480000E0,6.240424514E-1,-5.344809055E0,2.405971289E0
1.329480000E0,5.847725868E-1,-5.256896973E0,2.210040569E0
1.331480000E0,5.227086544E-1,-5.115996361E0,2.012224913E0
1.333480000E0,4.387234151E-1,-4.919123173E0,1.812402248E0
1.335480000E0,3.328866363E-1,-4.674864292E0,1.614900827E0
1.337480000E0,2.105914205E-1,-4.386361599E0,1.426248193E0
1.339480000E0,7.588691264E-2,-4.059024811E0,1.242761731E0
1.341480000E0,-6.981316954E-2,-3.707358599E0,1.062975287E0
1.343480000E0,-2.219360620E-1,-3.345778704E0,8.928755522E-1
1.345480000E0,-3.728721440E-1,-2.984914541E0,7.368431091E-1
1.347480000E0,-5.163730979E-1,-2.631904125E0,5.953667164E-1
1.349480000E0,-6.486515999E-1,-2.291268349E0,4.648684561E-1
1.351480000E0,-7.671943903E-1,-1.965746880E0,3.397806883E-1
1.353480000E0,-8.719490170E-1,-1.658376932E0,2.162637413E-1
1.355480000E0,-9.641373158E-1,-1.374167562E0,9.433504939E-2
1.357480000E0,-1.041123748E0,-1.112979054E0,-2.471386269E-2
1.359480000E0,-1.100238085E0,-8.731358647E-1,-1.385267824E-1
1.361480000E0,-1.140712261E0,-6.543064713E-1,-2.435607016E-1
1.363480000E0,-1.161603928E0,-4.519180954E-1,-3.371278048E-1
1.365480000E0,-1.163174629E0,-2.631607354E-1,-4.165751934E-1
1.367480000E0,-1.147396922E0,-9.164723754E-2,-4.795117676E-1
1.369480000E0,-1.116347551E0,5.801474303E-2,-5.247157812E-1
1.371480000E0,-1.070881724E0,1.830152273E-1,-5.500579476E-1
1.373480000E0,-1.012605071E0,2.828305960E-1,-5.553113818E-1
1.375480000E0,-9.434376955E-1,3.588047922E-1,-5.429370403E-1
1.377480000E0,-8.641474247E-1,4.124562144E-1,-5.164428949E-1
1.379480000E0,-7.769507766E-1,4.443957210E-1,-4.788136184E-1
1.381480000E0,-6.827378869E-1,4.551818669E-1,-4.319515228E-1
1.383480000E0,-5.825385451E-1,4.466471970E-1,-3.787713647E-1
1.385480000E0,-4.782900214E-1,4.210606813E-1,-3.214721978E-1
1.387480000E0,-3.711617291E-1,3.803595901E-1,-2.624626160E-1
1.389480000E0,-2.615899444E-1,3.281044364E-1,-2.046747655E-1
1.391480000E0,-1.500634104E-1,2.667561173E-1,-1.489638537E-1
1.393480000E0,-3.932226822E-2,1.998052895E-1,-9.756390750E-2
1.395480000E0,6.853908300E-2,1.337271333E-1,-5.359905958E-2
1.397480000E0,1.736951619E-1,7.400196046E-2,-1.675515994E-2
1.399480000E0,2.742435932E-1,2.539454028E-2,1.336922217E-2
1.401480000E0,3.678979576E-1,-9.215338156E-3,3.637266159E-2
1.403480000E0,4.536808729E-1,-2.993239649E-2,5.298819765E-2
1.405480000E0,5.305801034E-1,-3.679154068E-2,6.448991597E-2
1.407480000E0,5.984908342E-1,-3.010693006E-2,7.232644409E-2
1.409480000E0,6.570640802E-1,-1.319468953E-2,7.742280513E-2
1.411480000E0,7.067885399E-1,1.040216256E-2,8.107054234E-2
1.413480000E0,7.475594282E-1,3.926990926E-2,8.349654824E-2
1.415480000E0,7.789753675E-1,7.216936350E-2,8.449138701E-2
1.417480000E0,8.015599251E-1,1.067094281E-1,8.489281684E-2
1.419480000E0,8.161159754E-1,1.406560838E-1,8.504989743E-2
1.421480000E0,8.242492080E-1,1.734159142E-1,8.417722583E-2
1.423480000E0,8.266053796E-1,2.041162550E-1,8.255407214E-2
1.425480000E0,8.231496215E-1,2.320764363E-1,8.157669008E-2
1.427480000E0,8.141786456E-1,2.573313415E-1,8.086110651E-2
1.429480000E0,8.004080057E-1,2.780483961E-1,8.025024086E-2
1.431480000E0,7.821867466E-1,2.949955463E-1,7.969173044E-2
1.433480000E0,7.605621219E-1,3.088360131E-1,7.915068418E-2
1.435480000E0,7.366161942E-1,3.169867098E-1,7.892379165E-2
1.437480000E0,7.104537487E-1,3.203202784E-1,7.915068418E-2
1.439480000E0,6.824411750E-1,3.219783306E-1,8.019787818E-2
1.441480000E0,6.533640027E-1,3.217165470E-1,8.250171691E-2
1.443480000E0,6.235363483E-1,3.193952441E-1,8.566076308E-2
1.445480000E0,5.930803418E-1,3.159220517E-1,8.883725852E-2
1.447480000E0,5.633399487E-1,3.116808832E-1,9.203121066E-2
1.449480000E0,5.344896317E-1,3.071081340E-1,9.553932399E-2
1.451480000E0,5.063374639E-1,3.030240536E-1,9.979792684E-2
1.453480000E0,4.787787199E-1,2.988527119E-1,1.040565297E-1
1.455480000E0,4.520926476E-1,2.936691046E-1,1.080009714E-1
1.457480000E0,4.276580215E-1,2.887298167E-1,1.115090847E-1
1.459480000E0,4.054050744E-1,2.832494974E-1,1.138827354E-1
1.461480000E0,3.846705556E-1,2.772280872E-1,1.157851443E-1
1.463480000E0,3.651752472E-1,2.716081440E-1,1.171988621E-1
1.465480000E0,3.477742970E-1,2.658660114E-1,1.168323383E-1
1.467480000E0,3.334276974E-1,2.590941191E-1,1.144586951E-1
1.469480000E0,3.212802112E-1,2.516066730E-1,1.109854877E-1
1.471480000E0,3.106511533E-1,2.438225001E-1,1.060811132E-1
1.473480000E0,3.022212088E-1,2.349736691E-1,9.904743731E-2
1.475480000E0,2.962696254E-1,2.260026783E-1,9.112364054E-2
1.477480000E0,2.916445136E-1,2.160543054E-1,8.253662288E-2
1.479480000E0,2.878571451E-1,2.037846446E-1,7.304202765E-2
1.481480000E0,2.847330272E-1,1.899616420E-1,6.318091601E-2
1.483480000E0,2.818881273E-1,1.745503843E-1,5.318018049E-2
1.485480000E0,2.801078856E-1,1.581617296E-1,4.342379048E-2
1.487480000E0,2.790606916E-1,1.407782584E-1,3.408627957E-2
1.489480000E0,2.776818871E-1,1.223301291E-1,2.492330223E-2
1.491480000E0,2.764950693E-1,1.034456640E-1,1.518436428E-2
1.493480000E0,2.750639021E-1,8.536405116E-2,5.864306353E-3
1.495480000E0,2.722713649E-1,6.789331138E-2,-2.652900526E-3
1.497480000E0,2.692344785E-1,5.037020147E-2,-1.054178830E-2
1.499480000E0,2.661103606E-1,3.312635049E-2,-1.754055917E-2
1.501480000E0,2.616946697E-1,1.727875881E-2,-2.385865152E-2
1.503480000E0,2.557780147E-1,3.874630900E-3,-2.864085324E-2
1.505480000E0,2.492679209E-1,-9.442231618E-3,-3.279473633E-2
1.507480000E0,2.425134927E-1,-2.309070528E-2,-3.701843321E-2
1.509480000E0,2.350434959E-1,-3.464478627E-2,-4.000294581E-2
1.511480000E0,2.256710678E-1,-4.469788074E-2,-4.279547185E-2
1.513480000E0,2.158797681E-1,-5.448918045E-2,-4.581489414E-2
1.515480000E0,2.068215162E-1,-6.319837272E-2,-4.768239334E-2
1.517480000E0,1.965240687E-1,-7.052875310E-2,-4.970697686E-2
1.519480000E0,1.850572526E-1,-7.604399323E-2,-5.209807679E-2
1.521480000E0,1.740965992E-1,-7.955210656E-2,-5.372123420E-2
1.523480000E0,1.629962921E-1,-8.223991096E-2,-5.530948564E-2
1.525480000E0,1.518436372E-1,-8.428195119E-2,-5.691518635E-2
1.527480000E0,1.416334659E-1,-8.511970937E-2,-5.787511915E-2
1.529480000E0,1.314756572E-1,-8.513715863E-2,-5.859070271E-2
1.531480000E0,1.213352904E-1,-8.513715863E-2,-5.920156837E-2
1.533480000E0,1.115265414E-1,-8.450884372E-2,-5.976007506E-2
1.535480000E0,1.021715775E-1,-8.363617957E-2,-6.030112505E-2
1.537480000E0,9.395107627E-2,-8.264134079E-2,-6.084217876E-2
1.539480000E0,8.681267500E-2,-8.127998561E-2,-6.167993695E-2
1.541480000E0,8.107054234E-2,-7.979645580E-2,-6.265731901E-2
1.543480000E0,7.620107383E-2,-7.822565734E-2,-6.337290257E-2
1.545480000E0,7.106980681E-2,-7.634069771E-2,-6.398376822E-2
1.547480000E0,6.740461290E-2,-7.429866493E-2,-6.485643238E-2
1.549480000E0,6.590363383E-2,-7.285004109E-2,-6.616543233E-2
1.551480000E0,6.497860700E-2,-7.129669935E-2,-6.764896214E-2
1.553480000E0,6.429792941E-2,-6.878342479E-2,-6.920230389E-2
1.555480000E0,6.464699656E-2,-6.586872786E-2,-7.014477998E-2
1.557480000E0,6.667158008E-2,-6.403613091E-2,-7.052875310E-2
1.559480000E0,6.939429045E-2,-6.298892945E-2,-7.194247097E-2
1.561480000E0,7.239625603E-2,-6.098180264E-2,-7.314674556E-2
1.563480000E0,7.552039623E-2,-5.825908855E-2,-7.332128286E-2
1.565480000E0,7.836528122E-2,-5.558873713E-2,-7.309439033E-2
1.567480000E0,8.204792440E-2,-5.354670063E-2,-7.267551124E-2
1.569480000E0,8.607963473E-2,-5.239478499E-2,-7.218682021E-2
1.571480000E0,9.023351967E-2,-5.129522830E-2,-7.168067247E-2
1.573480000E0,9.508553892E-2,-4.958480224E-2,-7.082545757E-2
1.575480000E0,9.958848357E-2,-4.794419557E-2,-6.955137104E-2
1.577480000E0,1.036201939E-1,-4.728097096E-2,-6.838200241E-2
1.579480000E0,1.071632132E-1,-4.668755829E-2,-6.728244573E-2
1.581480000E0,1.101826355E-1,-4.614650458E-2,-6.620033830E-2
1.583480000E0,1.139350906E-1,-4.591961205E-2,-6.513568759E-2
1.585480000E0,1.182984188E-1,-4.677482322E-2,-6.375687569E-2
1.587480000E0,1.222952232E-1,-4.869468510E-2,-6.255260110E-2
1.589480000E0,1.258033365E-1,-5.073672161E-2,-6.112143025E-2
1.591480000E0,1.291369051E-1,-5.283111706E-2,-5.864306167E-2
1.593480000E0,1.320690662E-1,-5.431464687E-2,-5.605997518E-2
1.595480000E0,1.345299780E-1,-5.555383116E-2,-5.342452973E-2
1.597480000E0,1.370956153E-1,-5.763076991E-2,-5.047492310E-2
1.599480000E0,1.403593719E-1,-5.974261835E-2,-4.736823589E-2
1.601480000E0,1.435882300E-1,-6.092944369E-2,-4.420918971E-2
1.603480000E0,1.464680284E-1,-6.202900037E-2,-4.166100919E-2
1.605480000E0,1.492256522E-1,-6.248278543E-2,-3.967133537E-2
1.607480000E0,1.522450745E-1,-6.202900037E-2,-3.761184588E-2
1.609480000E0,1.556833684E-1,-6.185446680E-2,-3.518583626E-2
1.611480000E0,1.586504281E-1,-6.082472578E-2,-3.389429301E-2
1.613480000E0,1.617571115E-1,-5.820672959E-2,-3.431317210E-2
1.615480000E0,1.655444801E-1,-5.335471407E-2,-3.447025269E-2
1.617537812E0,1.699252576E-1,-4.694935679E-2,-3.422590718E-2
1.619480000E0,1.739220619E-1,-4.024729133E-2,-3.412118554E-2
1.621480000E0,1.780759394E-1,-3.246312216E-2,-3.377212211E-2
1.623480000E0,1.832421124E-1,-2.361430414E-2,-3.267256171E-2
1.625480000E0,1.884955615E-1,-1.432915311E-2,-3.064798191E-2
1.627480000E0,1.934697479E-1,-5.829399452E-3,-2.762856148E-2
1.629480000E0,1.986533701E-1,2.042035107E-3,-2.481858246E-2
1.631480000E0,2.039242685E-1,9.983283468E-3,-2.272418700E-2
1.633480000E0,2.089159042E-1,1.764527895E-2,-2.124065720E-2
1.635480000E0,2.140995413E-1,2.453932911E-2,-2.000147291E-2
1.637480000E0,2.187246680E-1,2.956587821E-2,-1.792453043E-2
1.639480000E0,2.225120217E-1,3.349286690E-2,-1.581268385E-2
1.641480000E0,2.262644768E-1,3.668681905E-2,-1.527163107E-2
1.643480000E0,2.299994826E-1,3.923500329E-2,-1.535889693E-2
1.645480000E0,2.334203273E-1,4.059635848E-2,-1.476548519E-2
1.647480000E0,2.367015481E-1,3.988077492E-2,-1.389282104E-2
1.649480000E0,2.396162450E-1,3.769911081E-2,-1.260127686E-2
1.651480000E0,2.423738688E-1,3.492403775E-2,-1.174606569E-2
1.653480000E0,2.450791299E-1,3.251548484E-2,-1.108284108E-2
1.655480000E0,2.477494925E-1,2.996730246E-2,-1.050688233E-2
1.657480000E0,2.504198253E-1,2.703515068E-2,-1.057669520E-2
1.659480000E0,2.530902028E-1,2.553416602E-2,-9.354964830E-3
1.661480000E0,2.560746968E-1,2.617993951E-2,-7.592182141E-3
1.663480000E0,2.585356236E-1,2.769837528E-2,-7.819075137E-3
1.665480000E0,2.601762414E-1,3.021164984E-2,-7.592182141E-3
1.667480000E0,2.617993951E-1,3.345796093E-2,-5.934119225E-3
1.669480000E0,2.634050846E-1,3.698352724E-2,-3.979350906E-3
1.671480000E0,2.637366951E-1,4.125958309E-2,-1.937315450E-3
1.673480000E0,2.638763189E-1,4.614650458E-2,-7.853981806E-4
1.675480000E0,2.645570040E-1,5.160938576E-2,-3.141592606E-4
1.677480000E0,2.645221055E-1,5.794493109E-2,1.745329209E-4
1.679480000E0,2.645046413E-1,6.525786221E-2,1.640609466E-3
1.681480000E0,2.648188174E-1,7.360053062E-2,3.193952609E-3
1.683480000E0,2.649409771E-1,8.171631396E-2,4.136430100E-3
1.685484687E0,2.640508711E-1,8.913396299E-2,4.834562074E-3
1.687480000E0,2.627418637E-1,9.688322991E-2,5.427973811E-3
1.689480000E0,2.615724802E-1,1.060462072E-1,6.318091881E-3
1.691480000E0,2.601587772E-1,1.151393726E-1,6.352998316E-3
1.693480000E0,2.586228848E-1,1.235693097E-1,5.742133129E-3
1.695480000E0,2.570520937E-1,1.329940856E-1,5.166174378E-3
1.697480000E0,2.557954490E-1,1.418952644E-1,4.939281847E-3
1.699480000E0,2.543293834E-1,1.496096253E-1,4.852015525E-3
1.701480000E0,2.527760267E-1,1.562244147E-1,4.171337001E-3
1.703480000E0,2.512052357E-1,1.623854339E-1,3.909537569E-3
1.705480000E0,2.493028343E-1,1.686860770E-1,4.118977115E-3
1.707480000E0,2.479065657E-1,1.740965992E-1,4.817108624E-3
1.709480000E0,2.470164448E-1,1.797689050E-1,4.799655639E-3
1.711480000E0,2.453932911E-1,1.855459511E-1,3.525565146E-3
1.713480000E0,2.434559762E-1,1.907295734E-1,2.373647876E-3
1.715480000E0,2.417280972E-1,1.953721493E-1,1.274090377E-3
1.717480000E0,2.404016554E-1,1.994736791E-1,-1.047197584E-4
1.719480000E0,2.398605943E-1,2.036624700E-1,-6.632251316E-4
1.721480000E0,2.393195480E-1,2.072753012E-1,-5.759586347E-4
1.723480000E0,2.387784868E-1,2.106263340E-1,-5.410520826E-4
1.725480000E0,2.385690510E-1,2.142042518E-1,-2.094395168E-4
1.727480000E0,2.378534675E-1,2.175552845E-1,-8.726646047E-5
1.729480000E0,2.369284481E-1,2.198591232E-1,-3.490658492E-5
1.731480000E0,2.365444750E-1,2.220756859E-1,2.967059845E-4
1.733480000E0,2.360732406E-1,2.251823843E-1,7.504915702E-4
1.735480000E0,2.349387705E-1,2.283414304E-1,6.108652451E-4
1.737480000E0,2.338392138E-1,2.308896035E-1,2.443460980E-4
1.739480000E0,2.337170392E-1,2.338043004E-1,8.726646047E-5
1.741480000E0,2.330363542E-1,2.372076958E-1,-2.617993741E-4
1.743480000E0,2.314830124E-1,2.404889166E-1,-1.361356815E-3
1.745480000E0,2.299122214E-1,2.443460971E-1,-2.443460980E-3
1.747480000E0,2.283239663E-1,2.478193045E-1,-2.879793290E-3
1.749480000E0,2.267357260E-1,2.508037984E-1,-3.054326167E-3
1.751480000E0,2.248158604E-1,2.539105117E-1,-2.495820867E-3
1.753480000E0,2.234195918E-1,2.570695579E-1,-1.326450263E-3
1.755480000E0,2.225294858E-1,2.602635026E-1,-2.268928074E-4
1.757480000E0,2.212204784E-1,2.634399831E-1,5.235987483E-4
1.759480000E0,2.200511098E-1,2.669481039E-1,1.151917269E-3
1.761480000E0,2.192657143E-1,2.712241709E-1,2.670353744E-3
1.763480000E0,2.186199427E-1,2.748544514E-1,4.241149873E-3
1.765480000E0,2.186897546E-1,2.779087722E-1,4.555309191E-3
1.767480000E0,2.196496874E-1,2.823069990E-1,4.694935866E-3
1.769480000E0,2.213077545E-1,2.872637510E-1,4.747295752E-3
1.771480000E0,2.238733768E-1,2.911732793E-1,4.450589418E-3
1.773480000E0,2.268229872E-1,2.952747941E-1,3.700098023E-3
1.775480000E0,2.292838991E-1,3.007376790E-1,2.443460980E-3
1.777480000E0,2.321636975E-1,3.073873818E-1,1.937315450E-3
1.779480000E0,2.361954004E-1,3.154508173E-1,1.099557383E-3
1.781480000E0,2.406634539E-1,3.237934709E-1,-4.886921961E-4
1.783480000E0,2.450093180E-1,3.297101557E-1,-1.448623254E-3
1.785480000E0,2.483603507E-1,3.321186900E-1,-1.535889693E-3
1.787480000E0,2.497217059E-1,3.318394423E-1,-6.108652451E-4
1.789480000E0,2.496518940E-1,3.279299140E-1,3.665191471E-4
1.791480000E0,2.486745119E-1,3.200410306E-1,1.413716702E-3
1.793480000E0,2.463706732E-1,3.108256757E-1,2.460914198E-3
1.795480000E0,2.422866076E-1,3.020117581E-1,3.211405827E-3
1.797480000E0,2.371553332E-1,2.937040031E-1,3.508111695E-3
1.799480000E0,2.315877378E-1,2.862165570E-1,3.630284918E-3
1.801480000E0,2.255314440E-1,2.800031602E-1,3.054326167E-3
1.803480000E0,2.195973247E-1,2.752733231E-1,1.239183708E-3
1.805480000E0,2.137155682E-1,2.720793784E-1,-1.221730490E-4
1.807480000E0,2.075370997E-1,2.688854337E-1,-6.632251316E-4
1.809480000E0,2.009048462E-1,2.650631666E-1,-5.759586347E-4
1.811480000E0,1.944296807E-1,2.616074085E-1,-5.410520826E-4
1.813480000E0,1.889493465E-1,2.583087385E-1,-8.552113432E-4
1.815480000E0,1.838704348E-1,2.557081878E-1,-9.773843922E-4
1.817480000E0,1.786518991E-1,2.543293834E-1,-1.343903481E-3
1.819480000E0,1.736951619E-1,2.537708580E-1,-1.483529806E-3
1.821480000E0,1.700823307E-1,2.535439730E-1,-1.553343027E-3
1.823480000E0,1.676737815E-1,2.540850341E-1,-2.199114766E-3
1.825480000E0,1.660680771E-1,2.555685639E-1,-2.792526735E-3
1.827480000E0,1.657190174E-1,2.568077445E-1,-3.647738136E-3
1.829480000E0,1.658935398E-1,2.576280534E-1,-4.956734832E-3
1.831480000E0,1.662949771E-1,2.585879862E-1,-6.108652335E-3
1.833480000E0,1.670803726E-1,2.592861056E-1,-7.225662936E-3
1.835480000E0,1.680228412E-1,2.589544952E-1,-7.976154797E-3
1.837480000E0,1.703092307E-1,2.575407922E-1,-8.918632753E-3
1.839480000E0,1.734508276E-1,2.563539743E-1,-9.616764262E-3
1.841480000E0,1.766273230E-1,2.552194893E-1,-9.913469665E-3
1.843480000E0,1.801179796E-1,2.538232207E-1,-1.097812131E-2
1.845480000E0,1.837482601E-1,2.526189685E-1,-1.204277202E-2
1.847480000E0,1.877625138E-1,2.524444163E-1,-1.310742274E-2
1.849480000E0,1.916022450E-1,2.523746192E-1,-1.448623277E-2
1.851480000E0,1.950580031E-1,2.520255446E-1,-1.535889693E-2
1.853480000E0,1.983566731E-1,2.522000670E-1,-1.602212340E-2
1.855480000E0,2.015855312E-1,2.526015043E-1,-1.692969352E-2
1.857480000E0,2.047969401E-1,2.530727386E-1,-1.794198528E-2
1.859480000E0,2.076941729E-1,2.529505789E-1,-1.834340952E-2
1.861480000E0,2.107659578E-1,2.525840402E-1,-1.881464943E-2
1.863480000E0,2.145358771E-1,2.521128058E-1,-1.933824830E-2
1.865480000E0,2.182708681E-1,2.516066730E-1,-1.954768784E-2
1.867480000E0,2.216917276E-1,2.513972223E-1,-2.026327327E-2
1.869480000E0,2.259328663E-1,2.513274252E-1,-2.118829638E-2
1.871480000E0,2.304881811E-1,2.503325641E-1,-2.186897583E-2
1.873480000E0,2.345547974E-1,2.480461895E-1,-2.246238664E-2
1.875480000E0,2.390577495E-1,2.455329150E-1,-2.176425606E-2
1.877480000E0,2.437352240E-1,2.435607016E-1,-2.021091245E-2
1.879480000E0,2.487792373E-1,2.418153733E-1,-1.895427518E-2
1.881480000E0,2.543119192E-1,2.401573062E-1,-1.654572040E-2
1.883480000E0,2.594082952E-1,2.391624600E-1,-1.399754081E-2
1.885480000E0,2.646442652E-1,2.384468764E-1,-1.169370580E-2
1.887480000E0,2.708750963E-1,2.378360182E-1,-9.477137588E-3
1.889480000E0,2.775073647E-1,2.385341525E-1,-7.644542027E-3
1.891480000E0,2.836858034E-1,2.404016554E-1,-5.951572675E-3
1.893480000E0,2.890439630E-1,2.421120703E-1,-4.939281847E-3
1.895480000E0,2.943672240E-1,2.443809956E-1,-4.206243437E-3
1.897480000E0,3.000220954E-1,2.478367537E-1,-3.281218931E-3
1.899480000E0,3.054675162E-1,2.504896522E-1,-2.914699726E-3
1.901480000E0,3.108431399E-1,2.531599998E-1,-3.071779385E-3
1.903480000E0,3.158871531E-1,2.567728460E-1,-3.455751808E-3
1.905480000E0,3.204424381E-1,2.598097026E-1,-4.241149873E-3
1.907480000E0,3.242123723E-1,2.623229921E-1,-4.869468510E-3
1.909480000E0,3.276332021E-1,2.646093667E-1,-4.502949305E-3
1.911480000E0,3.306002617E-1,2.674193382E-1,-3.717551241E-3
1.913480000E0,3.327470124E-1,2.707878351E-1,-3.717551241E-3
1.915480000E0,3.345796168E-1,2.734058201E-1,-4.031710327E-3
1.917480000E0,3.359584212E-1,2.748020887E-1,-3.839724232E-3
1.919480000E0,3.371452391E-1,2.763030827E-1,-3.455751808E-3
1.921480000E0,3.373197913E-1,2.778738737E-1,-3.612831468E-3
1.923480000E0,3.364296556E-1,2.791305184E-1,-4.310963210E-3
1.925480000E0,3.357664347E-1,2.812249064E-1,-4.276056774E-3
1.927480000E0,3.339163959E-1,2.827084363E-1,-3.630284918E-3
1.929480000E0,3.303210139E-1,2.830051482E-1,-3.368485486E-3
1.931480000E0,3.260100484E-1,2.831273079E-1,-3.263765713E-3
1.933480000E0,3.211056888E-1,2.822197378E-1,-3.525565146E-3
1.935480000E0,3.153111935E-1,2.805965841E-1,-3.961897455E-3
1.937480000E0,3.085393012E-1,2.796191871E-1,-4.450589418E-3
1.939480000E0,3.016801476E-1,2.785894573E-1,-4.956734832E-3
1.941480000E0,2.944719493E-1,2.765823305E-1,-5.480333697E-3
1.943480000E0,2.871241271E-1,2.738770545E-1,-6.335545331E-3
1.945480000E0,2.793923020E-1,2.712067068E-1,-6.352998316E-3
1.947480000E0,2.705609500E-1,2.682222128E-1,-6.684611086E-3
1.949480000E0,2.616074085E-1,2.641555667E-1,-7.766715251E-3
1.951480000E0,2.532123625E-1,2.599842548E-1,-7.888888009E-3
1.953480000E0,2.453932911E-1,2.557605505E-1,-7.627088577E-3
1.955480000E0,2.374694943E-1,2.515194118E-1,-7.522369269E-3
1.957480000E0,2.298249602E-1,2.478891164E-1,-6.841690745E-3
1.959480000E0,2.226167470E-1,2.448347807E-1,-6.248278543E-3
1.961480000E0,2.158797681E-1,2.417106479E-1,-6.003932562E-3
1.963480000E0,2.099980116E-1,2.388483137E-1,-4.974188283E-3
1.965480000E0,2.044304162E-1,2.361081392E-1,-3.595378250E-3
1.967480000E0,1.993340552E-1,2.327920198E-1,-2.722713631E-3
1.969480000E0,1.950405389E-1,2.301740199E-1,-2.356194425E-3
1.971480000E0,1.910960972E-1,2.278352827E-1,-2.216568217E-3
1.973480000E0,1.872738302E-1,2.250078470E-1,-1.850049011E-3
1.975480000E0,1.841496825E-1,2.222676724E-1,-1.378810150E-3
1.977480000E0,1.809731871E-1,2.192657143E-1,-1.500983140E-3
1.979480000E0,1.768367589E-1,2.155132592E-1,-2.181661548E-3
1.981480000E0,1.739046127E-1,2.117782533E-1,-2.460914198E-3
1.983480000E0,1.717578471E-1,2.083574086E-1,-1.937315450E-3
1.985480000E0,1.683544517E-1,2.057045102E-1,-1.727875904E-3
1.987480000E0,1.653873920E-1,2.033657581E-1,-2.268928103E-3
1.989480000E0,1.629264802E-1,2.008350343E-1,-3.124139272E-3
1.991480000E0,1.606575549E-1,1.988628209E-1,-4.433136433E-3
1.993480000E0,1.584758908E-1,1.964717060E-1,-5.585053470E-3
1.995480000E0,1.556833684E-1,1.942376941E-1,-5.742133129E-3
1.997480000E0,1.532922685E-1,1.927018017E-1,-5.794493016E-3
1.999480000E0,1.513724029E-1,1.914451718E-1,-6.457718089E-3
2.001480000E0,1.490162164E-1,1.909215599E-1,-6.719517522E-3
2.003480000E0,1.461538672E-1,1.903979629E-1,-7.155850064E-3
2.005480000E0,1.430995464E-1,1.911310107E-1,-7.958701812E-3
2.007480000E0,1.399579495E-1,1.927018017E-1,-9.232792072E-3
2.009480000E0,1.374272257E-1,1.936442852E-1,-1.069886796E-2
2.011480000E0,1.354375482E-1,1.949881762E-1,-1.223475765E-2
2.013480000E0,1.333780587E-1,1.964717060E-1,-1.317723561E-2
2.015480000E0,1.315803677E-1,1.980250627E-1,-1.324704941E-2
2.017480000E0,1.295906901E-1,1.983392090E-1,-1.422443334E-2
2.019480000E0,1.275137514E-1,1.981646866E-1,-1.525417715E-2
2.021480000E0,1.257335246E-1,1.983915716E-1,-1.630137488E-2
2.023480000E0,1.246863231E-1,1.984962970E-1,-1.736602560E-2
2.025480000E0,1.245816052E-1,1.985311955E-1,-1.747074537E-2
2.027480000E0,1.242150813E-1,1.979203373E-1,-1.689478755E-2
2.029480000E0,1.240754575E-1,1.976759881E-1,-1.665044017E-2
2.031480000E0,1.246339604E-1,1.981995851E-1,-1.750565320E-2
2.033480000E0,1.261349469E-1,1.990373433E-1,-1.879719645E-2
2.035480000E0,1.273741275E-1,2.000147253E-1,-1.900663599E-2
2.037480000E0,1.285085976E-1,2.020044029E-1,-1.909390278E-2
2.039480000E0,1.308647841E-1,2.046922147E-1,-1.944296807E-2
2.041480000E0,1.334129721E-1,2.064200938E-1,-1.926843449E-2
2.043480000E0,1.353851855E-1,2.080781460E-1,-1.888446324E-2
2.045480000E0,1.374446750E-1,2.109579444E-1,-1.872738265E-2
2.047480000E0,1.398706883E-1,2.140297294E-1,-1.865756884E-2
2.049480000E0,1.421221644E-1,2.162113935E-1,-1.832595654E-2
2.051480000E0,1.446179748E-1,2.180614322E-1,-1.818633080E-2
2.053480000E0,1.475152224E-1,2.203827202E-1,-1.781981252E-2
2.055480000E0,1.499761492E-1,2.216568142E-1,-1.640609466E-2
2.057480000E0,1.519134641E-1,2.218488008E-1,-1.549852360E-2
2.059480000E0,1.542870998E-1,2.216044515E-1,-1.514945831E-2
2.061480000E0,1.568178385E-1,2.205747068E-1,-1.404990070E-2
2.063480000E0,1.594358236E-1,2.195100635E-1,-1.328195538E-2
2.065480000E0,1.617571115E-1,2.181312442E-1,-1.298524998E-2
2.067480000E0,1.630312055E-1,2.166302651E-1,-1.221730467E-2
2.069480000E0,1.641656756E-1,2.150769234E-1,-1.127482671E-2
2.071480000E0,1.649510711E-1,2.138028294E-1,-1.122246683E-2
2.073480000E0,1.649510711E-1,2.132966816E-1,-1.118756086E-2
2.075480000E0,1.649510711E-1,2.127556354E-1,-9.913469665E-3
2.077480000E0,1.646369100E-1,2.122320384E-1,-9.075712413E-3
2.079480000E0,1.635722518E-1,2.120226026E-1,-9.058258496E-3
2.081480000E0,1.621759981E-1,2.122494876E-1,-8.412486874E-3
2.083480000E0,1.616174877E-1,2.126509100E-1,-7.836528122E-3
2.085480000E0,1.610764414E-1,2.128254473E-1,-6.963863503E-3
2.087480000E0,1.595929116E-1,2.132094204E-1,-5.358160939E-3
2.089480000E0,1.583537161E-1,2.139948159E-1,-4.066617228E-3
2.091480000E0,1.569050997E-1,2.143089771E-1,-3.228859045E-3
2.093480000E0,1.544267386E-1,2.141344398E-1,-2.251474652E-3
2.095480000E0,1.511978656E-1,2.134188563E-1,-1.535889693E-3
2.097480000E0,1.479864717E-1,2.121796757E-1,-1.256637042E-3
2.099480000E0,1.444783509E-1,2.110452056E-1,-1.134464052E-3
2.101480000E0,1.405164599E-1,2.096489519E-1,-1.082104165E-3
2.103480000E0,1.363800317E-1,2.084446698E-1,-7.504915702E-4
2.105480000E0,1.324879378E-1,2.076243609E-1,-2.967059845E-4
2.107480000E0,1.290147305E-1,2.063502818E-1,1.745329209E-4
2.109480000E0,1.253844500E-1,2.045700401E-1,1.326450263E-3
2.111480000E0,1.217018068E-1,2.029119730E-1,2.426007763E-3
2.113480000E0,1.176875532E-1,2.022313029E-1,3.193952609E-3
2.115480000E0,1.138303727E-1,2.025803626E-1,4.450589418E-3
2.117480000E0,1.106887832E-1,2.030341476E-1,5.602506921E-3
2.119480000E0,1.071981192E-1,2.029119730E-1,6.370451767E-3
2.121480000E0,1.035678387E-1,2.028596252E-1,7.016223390E-3
2.123480000E0,1.008276716E-1,2.021963894E-1,7.592182141E-3
2.125480000E0,9.845402092E-2,2.013062686E-1,8.133234456E-3
2.127480000E0,9.653416276E-2,2.003114372E-1,8.360126987E-3
2.129480000E0,9.417796880E-2,1.983217597E-1,8.761553094E-3
2.131480000E0,9.164723754E-2,1.965764314E-1,9.564404376E-3
2.133480000E0,8.934340626E-2,1.946042180E-1,1.050688233E-2
2.135480000E0,8.651597053E-2,1.922131032E-1,1.090830751E-2
2.137480000E0,8.314748853E-2,1.896649301E-1,1.075122785E-2
2.139480000E0,8.021533489E-2,1.861044616E-1,1.130973361E-2
2.141480000E0,7.710864395E-2,1.818109453E-1,1.186823845E-2
2.143480000E0,7.396705449E-2,1.775348932E-1,1.207767799E-2
2.145480000E0,7.110471278E-2,1.735904515E-1,1.312487572E-2
2.147480000E0,6.773623079E-2,1.697681695E-1,1.385791413E-2
2.149480000E0,6.476917118E-2,1.663298756E-1,1.352630183E-2
2.151480000E0,6.199409440E-2,1.633453667E-1,1.338667516E-2
2.153480000E0,5.866051465E-2,1.596103609E-1,1.396263391E-2
2.155480000E0,5.539675057E-2,1.561895162E-1,1.483529899E-2
2.157480000E0,5.218534544E-2,1.532224566E-1,1.645845547E-2
2.159480000E0,4.960225895E-2,1.507440805E-1,1.741838641E-2
2.161480000E0,4.792674258E-2,1.491209269E-1,1.781981252E-2
2.163480000E0,4.630358517E-2,1.474977732E-1,1.891936921E-2
2.165480000E0,4.469788074E-2,1.455779076E-1,1.968731359E-2
2.167480000E0,4.340633750E-2,1.438500434E-1,2.062979154E-2
2.169480000E0,4.288274050E-2,1.425235868E-1,2.165953629E-2
2.171480000E0,4.267330095E-2,1.410226077E-1,2.302089334E-2
2.173480000E0,4.290019348E-2,1.410575062E-1,2.452187613E-2
2.175480000E0,4.298745841E-2,1.417032778E-1,2.480112948E-2
2.177480000E0,4.365068302E-2,1.416334659E-1,2.556907386E-2
2.179480000E0,4.551818594E-2,1.419301778E-1,2.680825815E-2
2.181480000E0,4.752531648E-2,1.417381912E-1,2.733185515E-2
2.183480000E0,4.991641641E-2,1.416509151E-1,2.752384171E-2
2.185480000E0,5.279621109E-2,1.425759494E-1,2.698278986E-2
2.187480000E0,5.585053563E-2,1.435707808E-1,2.612757869E-2
2.189480000E0,5.867796764E-2,1.443038285E-1,2.546435408E-2
2.191480000E0,6.141813472E-2,1.442863643E-1,2.457423508E-2
2.193480000E0,6.442010403E-2,1.436405927E-1,2.356194519E-2
2.195480000E0,6.689847261E-2,1.424363256E-1,2.253220044E-2
2.197480000E0,6.916739792E-2,1.409876943E-1,2.179916203E-2
2.199480000E0,7.105235010E-2,1.394692659E-1,2.085668407E-2
2.201480000E0,7.243116200E-2,1.375668496E-1,1.921607554E-2
2.203480000E0,7.300712168E-2,1.349139512E-1,1.792453043E-2
2.205480000E0,7.291985303E-2,1.319294423E-1,1.706931926E-2
2.207480000E0,7.257079333E-2,1.285085976E-1,1.546361670E-2
2.209480000E0,7.084291428E-2,1.242848933E-1,1.354375482E-2
2.211480000E0,6.920230389E-2,1.206720620E-1,1.246165112E-2
2.213480000E0,6.726498902E-2,1.166578084E-1,1.137954649E-2
2.215480000E0,6.396631896E-2,1.125213802E-1,1.031489577E-2
2.217480000E0,6.040584669E-2,1.095543131E-1,9.878563695E-3
2.219480000E0,5.736897141E-2,1.061509252E-1,9.372417815E-3
2.221480000E0,5.455899239E-2,1.025555432E-1,8.552113548E-3
2.223480000E0,5.089380220E-2,1.001469940E-1,7.574729156E-3
2.225480000E0,4.687954485E-2,9.820967913E-2,6.876597181E-3
2.227480000E0,4.366813600E-2,9.679596126E-2,7.208209950E-3
2.229480000E0,4.141666368E-2,9.527752548E-2,7.661995478E-3
2.231480000E0,3.923500329E-2,9.276425093E-2,6.911503617E-3
2.233480000E0,3.707079217E-2,9.047786891E-2,5.969026126E-3
2.235480000E0,3.556980938E-2,8.827875555E-2,5.585053470E-3
2.237480000E0,3.401646763E-2,8.613199741E-2,6.056292448E-3
2.239480000E0,3.274237737E-2,8.398524672E-2,6.248278543E-3
2.241480000E0,3.159045801E-2,8.248426020E-2,5.689773243E-3
2.243480000E0,3.017674200E-2,8.155923337E-2,5.462880712E-3
2.245480000E0,2.865830623E-2,7.960446924E-2,5.689773243E-3
2.247480000E0,2.677335031E-2,7.658504695E-2,6.108652335E-3
2.249480000E0,2.537708730E-2,7.379251719E-2,6.265731994E-3
2.251480000E0,2.481858246E-2,7.138396800E-2,6.021386012E-3
2.253480000E0,2.457423508E-2,6.883578748E-2,5.916666240E-3
2.255480000E0,2.417281084E-2,6.684610993E-2,5.881759338E-3
2.257480000E0,2.368411794E-2,6.414084882E-2,5.235987715E-3
2.259480000E0,2.254965343E-2,5.956808850E-2,4.956734832E-3
2.261480000E0,2.113593742E-2,5.518731102E-2,5.166174378E-3
2.263480000E0,2.118829638E-2,5.213298276E-2,4.625122529E-3
2.265480000E0,2.151990868E-2,4.995132238E-2,3.769911127E-3
2.267480000E0,2.134537697E-2,4.778711498E-2,3.735004691E-3
2.269480000E0,2.096140385E-2,4.534365237E-2,4.049163777E-3
2.271480000E0,2.111848444E-2,4.338888451E-2,3.857177682E-3
2.273480000E0,2.244493365E-2,4.260348529E-2,3.141592722E-3
2.275480000E0,2.392846346E-2,4.291764647E-2,3.176499158E-3
2.277480000E0,2.548180707E-2,4.398229718E-2,3.176499158E-3
2.279480000E0,2.707005665E-2,4.504694790E-2,2.862340072E-3
2.281480000E0,2.834414691E-2,4.642575979E-2,2.426007763E-3
2.283480000E0,2.981022373E-2,4.888667166E-2,1.291543595E-3
2.285480000E0,3.197443113E-2,5.115560070E-2,1.151917269E-3
2.287480000E0,3.380702808E-2,5.302310362E-2,1.413716702E-3
2.289480000E0,3.518583626E-2,5.567600206E-2,1.518436475E-3
2.291480000E0,3.733259439E-2,5.895722285E-2,2.199114766E-3
2.293480000E0,3.883357719E-2,6.124360487E-2,2.460914198E-3
2.295480000E0,3.975860029E-2,6.312856078E-2,2.583087189E-3
2.297480000E0,4.139921069E-2,6.452482194E-2,2.932153177E-3
2.299480000E0,4.300491139E-2,6.572909653E-2,3.089232836E-3
2.301480000E0,4.429645464E-2,6.778858602E-2,3.141592722E-3
2.303480000E0,4.482005537E-2,6.831218302E-2,3.490658477E-3
2.305480000E0,4.471533373E-2,6.820746511E-2,4.572762642E-3
2.307480000E0,4.499458894E-2,6.880088151E-2,5.637413356E-3
2.309480000E0,4.509930685E-2,6.841690838E-2,6.073745899E-3
2.311480000E0,4.483750835E-2,6.729989499E-2,6.265731994E-3
2.313480000E0,4.408701509E-2,6.558947265E-2,6.649704650E-3
2.315480000E0,4.221951589E-2,6.363470107E-2,7.749261800E-3
2.317480000E0,4.050909355E-2,6.220353395E-2,9.145525284E-3
2.319480000E0,3.918264061E-2,6.098180264E-2,9.721484035E-3
2.321480000E0,3.736750036E-2,5.892231688E-2,9.948376566E-3
2.323480000E0,3.537782282E-2,5.743878707E-2,1.034980267E-2
2.325480000E0,3.330088034E-2,5.653121322E-2,1.021017600E-2
2.327480000E0,3.150319308E-2,5.489060655E-2,1.014036313E-2
2.329480000E0,2.888519876E-2,5.391322076E-2,1.043706853E-2
2.331480000E0,2.528982051E-2,5.288347602E-2,1.087340154E-2
2.333480000E0,2.193878777E-2,5.087634921E-2,1.073377486E-2
2.335480000E0,1.930334233E-2,4.879940674E-2,1.068141498E-2
2.337480000E0,1.729621366E-2,4.733332992E-2,1.097812131E-2
2.339480000E0,1.425934024E-2,4.577998444E-2,1.076868176E-2
2.341480000E0,1.050688233E-2,4.326671362E-2,1.007054932E-2
2.343480000E0,7.400196046E-3,4.033455998E-2,9.145525284E-3
2.345480000E0,4.241149873E-3,3.726277873E-2,8.447393775E-3
2.347480000E0,1.047197497E-3,3.410373256E-2,7.853982039E-3
2.349480000E0,-2.740166849E-3,3.092723340E-2,7.609635592E-3
2.351480000E0,-6.824237294E-3,2.679080330E-2,7.504915819E-3
2.353480000E0,-1.038470864E-2,2.289872058E-2,7.470009383E-3
2.355480000E0,-1.434660610E-2,1.942551509E-2,7.138396613E-3
2.357480000E0,-1.818633080E-2,1.548107062E-2,6.684611086E-3
2.359480000E0,-2.099631168E-2,1.199041214E-2,6.510077976E-3
2.361480000E0,-2.340486459E-2,9.302604944E-3,6.440265104E-3
2.363480000E0,-2.722713538E-2,7.260569837E-3,7.033676840E-3
2.365480000E0,-3.131120652E-2,5.480333697E-3,7.906341925E-3
2.367480000E0,-3.392919898E-2,3.490658477E-3,7.627088577E-3
2.369480000E0,-3.593632951E-2,2.059488557E-3,7.522369269E-3
2.371480000E0,-3.769911081E-2,1.466076588E-3,7.784168236E-3
2.373480000E0,-3.935717419E-2,1.239183708E-3,7.278022822E-3
2.375480000E0,-4.098033160E-2,1.134464052E-3,7.382742595E-3
2.377480000E0,-4.258603230E-2,7.853981806E-4,8.674286306E-3
2.379480000E0,-4.387757555E-2,-2.967059845E-4,9.529497474E-3
2.381480000E0,-4.440117627E-2,-1.361356815E-3,9.232792072E-3
2.383480000E0,-4.492477328E-2,-2.757620299E-3,9.128072299E-3
2.385480000E0,-4.672246426E-2,-4.572762642E-3,9.389871731E-3
2.387480000E0,-4.902629927E-2,-6.265731994E-3,8.866272867E-3
2.389480000E0,-5.124286562E-2,-7.906341925E-3,8.028514683E-3
2.391480000E0,-5.338962004E-2,-9.826203808E-3,7.679448463E-3
2.393480000E0,-5.585053563E-2,-1.188569237E-2,7.539822254E-3
2.395480000E0,-5.906194076E-2,-1.366592757E-2,7.801621687E-3
2.397480000E0,-6.257005036E-2,-1.596976258E-2,7.592182141E-3
2.399480000E0,-6.653194875E-2,-1.911135577E-2,6.562437862E-3
2.401480000E0,-7.035422325E-2,-2.228785492E-2,6.143558770E-3
2.403480000E0,-7.316420227E-2,-2.483603545E-2,5.969026126E-3
2.405480000E0,-7.621853054E-2,-2.745402977E-2,5.270894151E-3
2.407480000E0,-7.965682447E-2,-3.073524870E-2,3.717551241E-3
2.409480000E0,-8.264134079E-2,-3.427826613E-2,2.146754880E-3
2.411480000E0,-8.606218547E-2,-3.761184588E-2,8.726646192E-4
2.413480000E0,-8.934340626E-2,-4.117231816E-2,-5.759586347E-4
2.415480000E0,-9.131562710E-2,-4.577998444E-2,-1.815142459E-3
2.417480000E0,-9.243264049E-2,-5.050982907E-2,-2.617993858E-3
2.419480000E0,-9.320057929E-2,-5.462880433E-2,-3.595378250E-3
2.421480000E0,-9.382890165E-2,-5.914920941E-2,-4.921828397E-3
2.423480000E0,-9.409070015E-2,-6.384414434E-2,-6.736970972E-3
2.425480000E0,-9.356710315E-2,-6.794566661E-2,-9.040805511E-3
2.427480000E0,-9.271188825E-2,-7.183775306E-2,-1.062905509E-2
2.429480000E0,-9.175195545E-2,-7.562511414E-2,-1.157153305E-2
2.431480000E0,-8.944812417E-2,-7.937757671E-2,-1.291543618E-2
2.433480000E0,-8.630653471E-2,-8.248426020E-2,-1.439896598E-2
2.435480000E0,-8.408996463E-2,-8.501498401E-2,-1.595230959E-2
2.437480000E0,-8.223991096E-2,-8.730136603E-2,-1.754055917E-2
2.439480000E0,-7.958701253E-2,-8.855800331E-2,-1.818633080E-2
2.441480000E0,-7.566002011E-2,-8.874998987E-2,-1.844812930E-2
2.443480000E0,-7.091272622E-2,-8.819148690E-2,-1.918116771E-2
2.445480000E0,-6.709045917E-2,-8.702211827E-2,-1.947787404E-2
2.447480000E0,-6.394886225E-2,-8.559094369E-2,-1.991420612E-2
2.449480000E0,-6.014404446E-2,-8.407250792E-2,-2.008873969E-2
2.451480000E0,-5.639158934E-2,-8.218755573E-2,-2.049016580E-2
2.453480000E0,-5.202826485E-2,-8.016297221E-2,-2.158972248E-2
2.455480000E0,-4.740314186E-2,-7.775441557E-2,-2.267182618E-2
2.457480000E0,-4.363323003E-2,-7.424630970E-2,-2.310816012E-2
2.459480000E0,-3.925245628E-2,-7.030186057E-2,-2.265437320E-2
2.461480000E0,-3.399901465E-2,-6.647959352E-2,-2.216568217E-2
2.463480000E0,-2.902482450E-2,-6.239552051E-2,-2.132792398E-2
2.465480000E0,-2.446951531E-2,-5.852089077E-2,-2.035053819E-2
2.467480000E0,-2.071705833E-2,-5.443681777E-2,-1.963495463E-2
2.469480000E0,-1.698205434E-2,-4.991641641E-2,-1.904154196E-2
2.471480000E0,-1.261873078E-2,-4.523893446E-2,-1.783726551E-2
2.473480000E0,-8.325220086E-3,-4.080579802E-2,-1.703441329E-2
2.475480000E0,-4.363323096E-3,-3.616322204E-2,-1.703441329E-2
2.477480000E0,-1.169370604E-3,-3.111921996E-2,-1.672025397E-2
2.479480000E0,2.007128671E-3,-2.686061710E-2,-1.595230959E-2
2.481480000E0,4.886921961E-3,-2.323033288E-2,-1.532399096E-2
2.483480000E0,7.627088577E-3,-1.954768784E-2,-1.506219152E-2
2.485480000E0,1.064650808E-2,-1.614429615E-2,-1.401499379E-2
2.487480000E0,1.312487572E-2,-1.350884791E-2,-1.328195538E-2
2.489480000E0,1.509709843E-2,-1.085594762E-2,-1.328195538E-2
2.491480000E0,1.588249579E-2,-8.499753661E-3,-1.233947743E-2
2.493480000E0,1.621410809E-2,-6.283185445E-3,-1.101302728E-2
2.495480000E0,1.635373570E-2,-4.764748737E-3,-1.015781611E-2
2.497480000E0,1.609193534E-2,-3.822271014E-3,-1.012290921E-2
2.499480000E0,1.534144394E-2,-2.495820867E-3,-1.010545623E-2
2.501480000E0,1.347394194E-2,-1.954768784E-3,-9.162978269E-3
2.503480000E0,1.111774705E-2,-2.670353744E-3,-8.133234456E-3
2.505480000E0,8.272860199E-3,-3.909537569E-3,-7.417649496E-3
2.507480000E0,4.590216093E-3,-5.375613924E-3,-6.475171540E-3
2.509480000E0,5.759586347E-4,-7.853982039E-3,-5.166174378E-3
2.511480000E0,-4.520402756E-3,-1.075122785E-2,-3.979350906E-3
2.513480000E0,-1.038470864E-2,-1.384046115E-2,-3.193952609E-3
2.515480000E0,-1.593485661E-2,-1.761037298E-2,-2.234021435E-3
2.517480000E0,-2.165953629E-2,-2.136282995E-2,-1.221730490E-3
2.519480000E0,-2.841396071E-2,-2.572615258E-2,-4.886921961E-4
2.521480000E0,-3.590142354E-2,-3.097959422E-2,1.047197584E-4
2.523480000E0,-4.337143153E-2,-3.689625859E-2,1.308996929E-3
2.525480000E0,-5.113814771E-2,-4.309218004E-2,2.426007763E-3
2.527480000E0,-5.967280641E-2,-4.783947393E-2,2.565633971E-3
2.529480000E0,-6.913249195E-2,-5.197590590E-2,2.303834539E-3
2.531480000E0,-7.899360359E-2,-5.649630725E-2,2.199114766E-3
2.533480000E0,-8.773770183E-2,-6.117378920E-2,2.146754880E-3
2.535480000E0,-9.634217620E-2,-6.592108309E-2,1.815142459E-3
2.537480000E0,-1.055226028E-1,-7.005751878E-2,1.361356815E-3
2.539480000E0,-1.143190637E-1,-7.459536940E-2,8.726646192E-4
2.541480000E0,-1.226268336E-1,-7.990117371E-2,3.490658492E-5
2.543480000E0,-1.294859797E-1,-8.491026610E-2,-9.250245057E-4
2.545480000E0,-1.351233870E-1,-8.820894361E-2,-1.623156248E-3
2.547480000E0,-1.405688226E-1,-9.143780172E-2,-2.548180753E-3
2.549480000E0,-1.446703374E-1,-9.592329711E-2,-4.188789986E-3
2.551480000E0,-1.469916254E-1,-9.964084625E-2,-5.480333697E-3
2.553480000E0,-1.476024985E-1,-1.027300805E-1,-6.963863503E-3
2.555480000E0,-1.465902030E-1,-1.049291939E-1,-8.517206647E-3
2.557480000E0,-1.442863643E-1,-1.064650863E-1,-1.040216256E-2
2.559480000E0,-1.408306211E-1,-1.070759520E-1,-1.242674422E-2
2.561480000E0,-1.362578571E-1,-1.060636565E-1,-1.420698036E-2
2.563480000E0,-1.303062886E-1,-1.040739864E-1,-1.619665511E-2
2.565480000E0,-1.228188202E-1,-1.013861746E-1,-1.731366664E-2
2.567480000E0,-1.134638563E-1,-9.807004780E-2,-1.841322333E-2
2.569480000E0,-1.027126238E-1,-9.356710315E-2,-1.947787404E-2
2.571480000E0,-9.138543904E-2,-8.826129884E-2,-2.022836544E-2
2.573480000E0,-7.920303941E-2,-8.262388408E-2,-2.148500271E-2
2.575480000E0,-6.729989499E-2,-7.623597980E-2,-2.263692021E-2
2.577480000E0,-5.551892146E-2,-6.888814270E-2,-2.277654596E-2
2.579480000E0,-4.283038154E-2,-6.148795038E-2,-2.316051908E-2
2.581480000E0,-3.040363453E-2,-5.405284837E-2,-2.361430414E-2
2.583480000E0,-1.870992966E-2,-4.628613219E-2,-2.349213138E-2
2.585480000E0,-7.958701812E-3,-3.967133537E-2,-2.408554405E-2
2.587480000E0,2.391101094E-3,-3.412118554E-2,-2.431243658E-2
2.589480000E0,1.261873078E-2,-2.902482450E-2,-2.377138473E-2
2.591480000E0,2.214822732E-2,-2.378883772E-2,-2.356194519E-2
2.593480000E0,3.138101846E-2,-1.820378378E-2,-2.284635976E-2
2.595480000E0,3.988077492E-2,-1.275835652E-2,-2.192133479E-2
2.597480000E0,4.712389037E-2,-8.342674002E-3,-2.059488557E-2
2.599480000E0,5.386086181E-2,-4.956734832E-3,-1.848303713E-2
2.601480000E0,5.976007506E-2,-1.692969352E-3,-1.698205434E-2
2.603480000E0,6.501351297E-2,1.832595677E-3,-1.542871073E-2
2.605480000E0,7.030186057E-2,5.166174378E-3,-1.321214251E-2
2.607480000E0,7.466518879E-2,7.470009383E-3,-1.137954649E-2
2.609480000E0,7.864453644E-2,9.983283468E-3,-9.040805511E-3
2.611480000E0,8.217009902E-2,1.322959550E-2,-6.510077976E-3
2.613480000E0,8.454374969E-2,1.485275198E-2,-4.852015525E-3
2.615480000E0,8.613199741E-2,1.488765888E-2,-4.171337001E-3
2.617480000E0,8.710937947E-2,1.553343050E-2,-3.595378250E-3
2.619480000E0,8.749335259E-2,1.610938832E-2,-2.408554312E-3
2.621480000E0,8.670795709E-2,1.539380383E-2,-1.291543595E-3
2.623480000E0,8.417722583E-2,1.352630183E-2,-5.235987483E-4
2.625480000E0,7.967428118E-2,1.024508290E-2,-2.094395168E-4
2.627480000E0,7.436847687E-2,6.073745899E-3,5.410520826E-4
2.629480000E0,6.812020391E-2,1.518436475E-3,1.483529806E-3
2.631480000E0,5.988224596E-2,-3.455751808E-3,1.535889693E-3
2.633480000E0,5.052728206E-2,-8.656833321E-3,1.570796361E-3
2.635480000E0,4.073598608E-2,-1.392772701E-2,1.902408898E-3
2.637480000E0,2.979277074E-2,-1.860520989E-2,2.338741207E-3
2.639480000E0,1.713913307E-2,-2.396337129E-2,2.530727303E-3
2.641480000E0,4.101523664E-3,-3.026400879E-2,2.286381321E-3
2.643480000E0,-8.447393775E-3,-3.661700711E-2,2.181661548E-3
2.645480000E0,-2.115339041E-2,-4.234168679E-2,2.146754880E-3
2.647480000E0,-3.324852139E-2,-4.689699784E-2,1.815142459E-3
2.649480000E0,-4.513421282E-2,-5.253440887E-2,7.330382941E-4
2.651480000E0,-5.626941472E-2,-5.860815570E-2,-9.424777818E-4
2.653480000E0,-6.555456668E-2,-6.393141299E-2,-2.583087189E-3
2.655480000E0,-7.279768586E-2,-6.988298148E-2,-3.892084118E-3
2.657480000E0,-7.890633494E-2,-7.641051710E-2,-5.044001620E-3
2.659480000E0,-8.391542733E-2,-8.159413934E-2,-6.161012221E-3
2.661480000E0,-8.721410483E-2,-8.527678996E-2,-8.185594343E-3
2.663480000E0,-8.981464058E-2,-8.868017793E-2,-1.057669520E-2
2.665480000E0,-9.150761366E-2,-9.131562710E-2,-1.251401100E-2
2.667480000E0,-9.124581516E-2,-9.271188825E-2,-1.392772701E-2
2.669480000E0,-8.988445252E-2,-9.295623749E-2,-1.481784508E-2
2.671480000E0,-8.901178837E-2,-9.306095541E-2,-1.644100063E-2
2.673480000E0,-8.770279586E-2,-9.215338528E-2,-1.867502369E-2
2.675480000E0,-8.560840040E-2,-9.053023160E-2,-2.022836544E-2
2.677480000E0,-8.379326016E-2,-8.986700326E-2,-2.148500271E-2
2.679480000E0,-8.180358261E-2,-8.864527196E-2,-2.261946723E-2
2.681480000E0,-7.972663641E-2,-8.656833321E-2,-2.371902391E-2
2.683480000E0,-7.792895287E-2,-8.382816613E-2,-2.417281084E-2
2.685480000E0,-7.562511414E-2,-8.051203936E-2,-2.371902391E-2
2.687480000E0,-7.248352468E-2,-7.757988572E-2,-2.385865152E-2
2.689480000E0,-6.962118298E-2,-7.511897385E-2,-2.422516979E-2
2.691480000E0,-6.688101590E-2,-7.286749780E-2,-2.405063622E-2
2.693480000E0,-6.386159360E-2,-7.068583369E-2,-2.366666496E-2
2.695480000E0,-6.105161831E-2,-6.883578748E-2,-2.319542505E-2
2.697480000E0,-5.738642439E-2,-6.745697558E-2,-2.237512171E-2
2.699480000E0,-5.337216705E-2,-6.658431143E-2,-2.204350755E-2
2.701480000E0,-4.953244328E-2,-6.623524427E-2,-2.190388180E-2
2.703480000E0,-4.480260238E-2,-6.640977412E-2,-2.090904489E-2
2.705480000E0,-4.005530477E-2,-6.551966071E-2,-1.954768784E-2
2.707480000E0,-3.558726236E-2,-6.358234584E-2,-1.900663599E-2
2.709480000E0,-3.061307408E-2,-6.154030934E-2,-1.909390278E-2
2.711480000E0,-2.542944625E-2,-5.913175642E-2,-1.881464943E-2
2.713480000E0,-2.047271281E-2,-5.688028038E-2,-1.806415804E-2
2.715480000E0,-1.593485661E-2,-5.469861999E-2,-1.682497375E-2
2.717480000E0,-1.125737373E-2,-5.286602303E-2,-1.598721556E-2
2.719480000E0,-6.824237294E-3,-5.085889250E-2,-1.565560326E-2
2.721480000E0,-3.124139272E-3,-4.941027239E-2,-1.457349956E-2
2.723480000E0,-3.490658492E-5,-4.818854108E-2,-1.382300723E-2
2.725480000E0,2.460914198E-3,-4.611159861E-2,-1.350884791E-2
2.727480000E0,4.747295752E-3,-4.433136433E-2,-1.275835652E-2
2.729480000E0,6.632251199E-3,-4.297000542E-2,-1.213003788E-2
2.731480000E0,7.714355364E-3,-4.241150245E-2,-1.155408006E-2
2.733480000E0,7.522369269E-3,-4.249876738E-2,-1.101302728E-2
2.735480000E0,6.492624991E-3,-4.190535471E-2,-1.078613475E-2
2.737480000E0,5.445427261E-3,-4.166100919E-2,-1.007054932E-2
2.739480000E0,4.066617228E-3,-4.251622036E-2,-9.459684603E-3
2.741480000E0,2.251474652E-3,-4.286528751E-2,-9.215338156E-3
2.743480000E0,8.726646192E-4,-4.300491139E-2,-8.796459064E-3
2.745480000E0,-6.108652451E-4,-4.431391135E-2,-7.993607782E-3
2.747480000E0,-2.809980186E-3,-4.611159861E-2,-7.033676840E-3
2.749480000E0,-4.328416660E-3,-4.684463516E-2,-6.335545331E-3
2.751480000E0,-5.899212789E-3,-4.682718217E-2,-5.410520826E-3
2.753480000E0,-7.470009383E-3,-4.714134336E-2,-4.729842301E-3
2.755480000E0,-7.801621687E-3,-4.726351425E-2,-4.433136433E-3
2.757480000E0,-8.255407214E-3,-4.605923966E-2,-4.328416660E-3
2.759480000E0,-9.075712413E-3,-4.429645464E-2,-4.904375412E-3
2.761480000E0,-9.093165398E-3,-4.263839498E-2,-6.091198884E-3
2.763480000E0,-9.093165398E-3,-4.070107639E-2,-6.579891313E-3
2.765480000E0,-9.407324716E-3,-3.864159063E-2,-6.457718089E-3
2.767480000E0,-9.232792072E-3,-3.750712425E-2,-6.405358203E-3
2.769480000E0,-9.145525284E-3,-3.703588620E-2,-6.702064537E-3
2.771480000E0,-9.756390937E-3,-3.652974218E-2,-7.452555932E-3
2.773480000E0,-9.669124149E-3,-3.600614145E-2,-8.080874570E-3
2.775480000E0,-9.337511845E-3,-3.515093029E-2,-8.325220086E-3
2.777480000E0,-9.512044489E-3,-3.481931984E-2,-8.744099177E-3
2.779480000E0,-1.021017600E-2,-3.530801088E-2,-8.918632753E-3
2.781480000E0,-1.176351868E-2,-3.581415489E-2,-8.674286306E-3
2.783480000E0,-1.396263391E-2,-3.666936606E-2,-8.255407214E-3
2.785480000E0,-1.644100063E-2,-3.700098023E-2,-8.098327555E-3
2.787480000E0,-1.870992966E-2,-3.619812801E-2,-8.656833321E-3
2.789480000E0,-2.122320421E-2,-3.586651757E-2,-8.883725852E-3
2.791480000E0,-2.349213138E-2,-3.605850041E-2,-8.970992640E-3
2.793480000E0,-2.537708730E-2,-3.612831607E-2,-1.027998887E-2
2.795480000E0,-2.677335031E-2,-3.583160788E-2,-1.174606569E-2
2.797480000E0,-2.733185515E-2,-3.541272879E-2,-1.267109066E-2
2.799480000E0,-2.726204321E-2,-3.523819894E-2,-1.303760987E-2
2.801480000E0,-2.626720443E-2,-3.516838327E-2,-1.382300723E-2
2.803480000E0,-2.492330223E-2,-3.450515866E-2,-1.541125681E-2
2.805480000E0,-2.375393175E-2,-3.328342736E-2,-1.637118869E-2
2.807480000E0,-2.232276089E-2,-3.216641769E-2,-1.675515994E-2
2.809480000E0,-1.984439418E-2,-3.106686100E-2,-1.722639985E-2
2.811480000E0,-1.663298719E-2,-3.031636961E-2,-1.773254573E-2
2.813480000E0,-1.373574138E-2,-3.000221029E-2,-1.762782596E-2
2.815480000E0,-1.066396199E-2,-2.956587821E-2,-1.790707745E-2
2.817480000E0,-7.208209950E-3,-2.937389165E-2,-1.864011586E-2
2.819480000E0,-3.909537569E-3,-2.930407785E-2,-1.895427518E-2
2.821480000E0,-3.490658419E-4,-2.801253460E-2,-1.907644793E-2
2.823480000E0,2.652900526E-3,-2.686061710E-2,-1.911135577E-2
2.825480000E0,4.834562074E-3,-2.733185515E-2,-1.818633080E-2
2.827480000E0,7.295476273E-3,-2.783800103E-2,-1.750565320E-2
2.829480000E0,1.019272301E-2,-2.804744057E-2,-1.754055917E-2
2.831480000E0,1.200786512E-2,-2.844886668E-2,-1.691224054E-2
2.833480000E0,1.305506285E-2,-2.860594541E-2,-1.635373570E-2
2.835480000E0,1.380555425E-2,-2.867575921E-2,-1.610938832E-2
2.837480000E0,1.378810126E-2,-2.965314314E-2,-1.633628085E-2
2.839480000E0,1.345648803E-2,-3.099704720E-2,-1.642354764E-2
2.841480000E0,1.207767799E-2,-3.153809905E-2,-1.645845547E-2
2.843480000E0,1.024508290E-2,-3.207915276E-2,-1.647590846E-2
2.845480000E0,8.552113548E-3,-3.293436393E-2,-1.680752076E-2
2.847480000E0,6.597344764E-3,-3.391174600E-2,-1.788962446E-2
2.849480000E0,4.223696887E-3,-3.494149074E-2,-1.832595654E-2
2.851480000E0,1.989675453E-3,-3.661700711E-2,-1.850049011E-2
2.853480000E0,4.537856148E-4,-3.825761750E-2,-1.888446324E-2
2.855480000E0,-1.099557383E-3,-3.954916075E-2,-1.904154196E-2
2.857480000E0,-3.316125600E-3,-4.132939503E-2,-1.973967440E-2
2.859480000E0,-5.480333697E-3,-4.269075394E-2,-2.033308521E-2
2.861480000E0,-7.312929723E-3,-4.387757555E-2,-2.026327327E-2
2.863480000E0,-9.634217247E-3,-4.593706504E-2,-2.024581842E-2
2.865480000E0,-1.183333248E-2,-4.804891348E-2,-2.085668407E-2
2.867480000E0,-1.242674422E-2,-4.825835302E-2,-2.174680308E-2
2.869480000E0,-1.296779606E-2,-4.646066576E-2,-2.178170905E-2
2.871480000E0,-1.384046115E-2,-4.509930685E-2,-2.179916203E-2
2.873480000E0,-1.354375482E-2,-4.548327997E-2,-2.213077433E-2
2.875480000E0,-1.281071641E-2,-4.597197101E-2,-2.225294709E-2
2.877480000E0,-1.218239777E-2,-4.488986731E-2,-2.199114859E-2
2.879480000E0,-1.193805225E-2,-4.319689795E-2,-2.125811018E-2
2.881480000E0,-1.183333248E-2,-4.187044874E-2,-2.064724453E-2
2.883480000E0,-1.052433532E-2,-3.944443911E-2,-2.038544603E-2
2.885480000E0,-8.412486874E-3,-3.625048697E-2,-1.996656694E-2
2.887480000E0,-7.557275705E-3,-3.303908184E-2,-1.853539608E-2
2.889480000E0,-6.894050632E-3,-2.953097038E-2,-1.733111963E-2
2.891480000E0,-5.358160939E-3,-2.621484548E-2,-1.713913307E-2
2.893480000E0,-3.787364578E-3,-2.328269184E-2,-1.706931926E-2
2.895480000E0,-2.827433404E-3,-2.050761878E-2,-1.736602560E-2
2.897480000E0,-1.500983140E-3,-1.748819835E-2,-1.684242673E-2
2.899480000E0,6.108652451E-4,-1.499237865E-2,-1.537635084E-2
2.901480000E0,2.426007763E-3,-1.303760987E-2,-1.476548519E-2
2.903480000E0,3.787364578E-3,-1.066396199E-2,-1.453859266E-2
2.905480000E0,4.660028964E-3,-9.058258496E-3,-1.380555425E-2
2.907480000E0,5.323254038E-3,-8.412486874E-3,-1.350884791E-2
2.909480000E0,5.916666240E-3,-7.836528122E-3,-1.338667516E-2
2.911480000E0,6.475171540E-3,-7.278022822E-3,-1.302015595E-2
2.913480000E0,6.702064537E-3,-7.051130291E-3,-1.349139493E-2
2.915480000E0,5.846852902E-3,-7.278022822E-3,-1.401499379E-2
2.917480000E0,4.869468510E-3,-7.365289610E-3,-1.359611470E-2
2.919480000E0,4.153883550E-3,-8.028514683E-3,-1.342158206E-2
2.921480000E0,2.600540640E-3,-9.250245057E-3,-1.366592757E-2
2.923480000E0,-5.410520826E-4,-1.038470864E-2,-1.375319436E-2
2.925480000E0,-4.031710327E-3,-1.146681327E-2,-1.380555425E-2
2.927480000E0,-6.405358203E-3,-1.254891697E-2,-1.350884791E-2
2.929480000E0,-8.953538723E-3,-1.329940930E-2,-1.307251584E-2
2.931480000E0,-1.314232964E-2,-1.361356769E-2,-1.288053021E-2
2.933480000E0,-1.736602560E-2,-1.373574138E-2,-1.281071641E-2
2.935480000E0,-2.066469751E-2,-1.378810126E-2,-1.342158206E-2
2.937480000E0,-2.391101047E-2,-1.411971357E-2,-1.398008689E-2
2.939480000E0,-2.806489356E-2,-1.363102160E-2,-1.389282104E-2
2.941480000E0,-3.260274976E-2,-1.279326342E-2,-1.354375482E-2
2.943480000E0,-3.633775562E-2,-1.150172018E-2,-1.307251584E-2
2.945480000E0,-3.944443911E-2,-9.407324716E-3,-1.258382387E-2
2.947480000E0,-4.227187485E-2,-7.923794910E-3,-1.237438433E-2
2.949480000E0,-4.469788074E-2,-6.056292448E-3,-1.260127686E-2
2.951480000E0,-4.757767543E-2,-3.403391922E-3,-1.302015595E-2
2.953480000E0,-5.096361414E-2,-1.361356815E-3,-1.254891697E-2
2.955480000E0,-5.265658349E-2,-2.268928074E-4,-1.110029407E-2
2.957480000E0,-5.365142226E-2,1.797689125E-3,-1.050688233E-2
2.959480000E0,-5.469861999E-2,3.892084118E-3,-1.026253588E-2
2.961480000E0,-5.543165654E-2,5.061454605E-3,-9.232792072E-3
2.963480000E0,-5.668829381E-2,5.846852902E-3,-7.853982039E-3
2.965480000E0,-5.750859901E-2,6.178465672E-3,-6.981316954E-3
2.967480000E0,-5.784020945E-2,5.986479111E-3,-6.614797749E-3
2.969480000E0,-5.829399824E-2,5.916666240E-3,-6.161012221E-3
2.971480000E0,-5.815437064E-2,5.567600485E-3,-5.340707488E-3
2.973480000E0,-5.810201168E-2,4.153883550E-3,-4.694935866E-3
2.975480000E0,-5.808455870E-2,2.321287990E-3,-4.433136433E-3
2.977480000E0,-5.681046844E-2,1.588249579E-3,-3.682644805E-3
2.979480000E0,-5.503023043E-2,9.599310579E-4,-2.443460980E-3
2.981480000E0,-5.368632823E-2,-8.552113432E-4,-1.308996929E-3
2.983480000E0,-5.281366408E-2,-2.862340072E-3,-1.466076588E-3
2.985480000E0,-5.150466785E-2,-4.939281847E-3,-2.478367416E-3
2.987480000E0,-4.972442985E-2,-7.051130291E-3,-3.839724232E-3
2.989480000E0,-4.804891348E-2,-9.477137588E-3,-5.986479111E-3
2.991480000E0,-4.640830308E-2,-1.300270297E-2,-7.801621687E-3
2.993480000E0,-4.480260238E-2,-1.665044017E-2,-9.162978269E-3
2.995480000E0,-4.382521659E-2,-2.033308521E-2,-1.097812131E-2
2.997480000E0,-4.344124347E-2,-2.467895485E-2,-1.329940930E-2
2.999480000E0,-4.201007634E-2,-2.834414691E-2,-1.520181727E-2
3.001480000E0,-3.986331820E-2,-3.173008561E-2,-1.722639985E-2
3.003480000E0,-3.740240633E-2,-3.593632951E-2,-1.994911395E-2
3.005480000E0,-3.513347730E-2,-4.049163684E-2,-2.200860158E-2
3.007480000E0,-3.326597437E-2,-4.392993823E-2,-2.473131567E-2
3.009480000E0,-3.155555204E-2,-4.660028964E-2,-2.867575921E-2
3.011480000E0,-2.991494350E-2,-4.925319180E-2,-3.218387067E-2
3.013480000E0,-2.768092230E-2,-5.192354321E-2,-3.549999744E-2
3.015480000E0,-2.487094142E-2,-5.394812673E-2,-3.843215108E-2
3.017480000E0,-2.183406800E-2,-5.508258939E-2,-4.120722413E-2
3.019480000E0,-1.837831736E-2,-5.555383116E-2,-4.359832406E-2
3.021480000E0,-1.413716655E-2,-5.574581772E-2,-4.551818594E-2
3.023480000E0,-9.878563695E-3,-5.581562966E-2,-4.818854108E-2
3.025480000E0,-5.637413356E-3,-5.490805954E-2,-5.054473504E-2
3.027480000E0,-1.378810150E-3,-5.326744914E-2,-5.213298276E-2
3.029480000E0,3.490658477E-3,-5.134758726E-2,-5.403539166E-2
3.031480000E0,1.022762898E-2,-4.960225895E-2,-5.607742816E-2
3.033480000E0,1.738347858E-2,-4.827580601E-2,-5.817182362E-2
3.035480000E0,2.439970337E-2,-4.614650458E-2,-6.028367206E-2
3.037480000E0,3.167772666E-2,-4.307472706E-2,-6.147049740E-2
3.039480000E0,3.872885555E-2,-4.024729133E-2,-6.225589290E-2
3.041480000E0,4.602433369E-2,-3.783873841E-2,-6.352998316E-2
3.043480000E0,5.373868719E-2,-3.590142354E-2,-6.436774135E-2
3.045480000E0,6.098180264E-2,-3.417354822E-2,-6.595598906E-2
3.047480000E0,6.803293526E-2,-3.251548484E-2,-6.787585467E-2
3.049480000E0,7.468263805E-2,-3.089232743E-2,-6.866125017E-2
3.051480000E0,8.023278415E-2,-2.960078418E-2,-6.960373372E-2
3.053480000E0,8.564330637E-2,-2.907718532E-2,-7.061602175E-2
3.055480000E0,9.037315100E-2,-2.918190509E-2,-7.072073966E-2
3.057480000E0,9.419541806E-2,-2.986258268E-2,-7.075564563E-2
3.059480000E0,9.796532989E-2,-3.012438305E-2,-7.108726352E-2
3.061480000E0,1.007578596E-1,-3.056071512E-2,-7.154104859E-2
3.063480000E0,1.031489596E-1,-3.167772666E-2,-7.236135006E-2
3.065480000E0,1.044405028E-1,-3.309144080E-2,-7.269296050E-2
3.067480000E0,1.037074625E-1,-3.460988030E-2,-7.251843065E-2
3.069480000E0,1.027824357E-1,-3.584906086E-2,-7.211700082E-2
3.071480000E0,1.014559865E-1,-3.698352724E-2,-7.133160532E-2
3.073480000E0,9.902998060E-2,-3.808308393E-2,-7.101744413E-2
3.075480000E0,9.581857920E-2,-3.947934881E-2,-7.087782025E-2
3.077480000E0,9.199630469E-2,-4.099778458E-2,-7.019714266E-2
3.079480000E0,8.791223168E-2,-4.223696887E-2,-6.928957254E-2
3.081480000E0,8.340928704E-2,-4.370304570E-2,-6.796312332E-2
3.083480000E0,7.841764390E-2,-4.396484420E-2,-6.647959352E-2
3.085480000E0,7.260569930E-2,-4.377285764E-2,-6.524040550E-2
3.087480000E0,6.613052636E-2,-4.494222626E-2,-6.412339956E-2
3.089480000E0,6.002187356E-2,-4.605923966E-2,-6.302383542E-2
3.091480000E0,5.407030135E-2,-4.682718217E-2,-6.194173545E-2
3.093480000E0,4.817108810E-2,-4.808381945E-2,-6.087708473E-2
3.095480000E0,4.291764647E-2,-4.986405745E-2,-5.981243402E-2
3.097480000E0,3.794345632E-2,-5.185373127E-2,-5.937610194E-2
3.099480000E0,3.246312216E-2,-5.328490213E-2,-5.951572582E-2
3.101480000E0,2.769837528E-2,-5.356415361E-2,-5.893976986E-2
3.103480000E0,2.385865152E-2,-5.366887525E-2,-5.743878707E-2
3.105480000E0,2.040289901E-2,-5.466371030E-2,-5.588544160E-2
3.107480000E0,1.741838641E-2,-5.506513640E-2,-5.462880433E-2
3.109480000E0,1.462585945E-2,-5.490805954E-2,-5.347688869E-2
3.111480000E0,1.254891697E-2,-5.485569686E-2,-5.174901336E-2
3.113480000E0,1.106538717E-2,-5.356415361E-2,-4.977678880E-2
3.115480000E0,9.512044489E-3,-5.209807679E-2,-4.865977913E-2
3.117480000E0,8.255407214E-3,-5.117305368E-2,-4.726351425E-2
3.119480000E0,7.749261800E-3,-4.986405745E-2,-4.543092102E-2
3.121480000E0,7.539822254E-3,-4.773475602E-2,-4.436627030E-2
3.123480000E0,7.452555932E-3,-4.562290758E-2,-4.330161959E-2
3.125480000E0,7.103490178E-3,-4.443608224E-2,-4.192280769E-2
3.127480000E0,6.946410518E-3,-4.331907257E-2,-4.136430472E-2
3.129480000E0,6.894050632E-3,-4.192280769E-2,-4.176572710E-2
3.131480000E0,6.562437862E-3,-4.040437192E-2,-4.225442186E-2
3.133480000E0,6.108652335E-3,-3.885103017E-2,-4.213224724E-2
3.135480000E0,5.602506921E-3,-3.789109737E-2,-4.207988828E-2
3.137480000E0,5.078908056E-3,-3.750712425E-2,-4.237659276E-2
3.139480000E0,3.926991019E-3,-3.735004738E-2,-4.249876738E-2
3.141480000E0,2.199114766E-3,-3.696607426E-2,-4.221951589E-2
3.143480000E0,8.552113432E-4,-3.618067503E-2,-4.148647562E-2
3.145480000E0,-2.967059845E-4,-3.586651757E-2,-4.087560996E-2
3.147480000E0,-2.356194425E-3,-3.604104742E-2,-4.124213010E-2
3.149480000E0,-4.468042869E-3,-3.612831607E-2,-4.235913977E-2
3.151480000E0,-5.951572675E-3,-3.616322204E-2,-4.279547185E-2
3.153480000E0,-7.190756500E-3,-3.679154068E-2,-4.267330095E-2
3.155480000E0,-7.993607782E-3,-3.738495335E-2,-4.228932783E-2
3.157480000E0,-8.656833321E-3,-3.729768470E-2,-4.183554277E-2
3.159480000E0,-9.232792072E-3,-3.789109737E-2,-4.227187485E-2
3.161480000E0,-9.459684603E-3,-3.844960406E-2,-4.340633750E-2
3.163480000E0,-9.878563695E-3,-3.773401678E-2,-4.448844120E-2
3.165480000E0,-1.005309634E-2,-3.649483621E-2,-4.492477328E-2
3.167480000E0,-8.848818950E-3,-3.536036983E-2,-4.511675984E-2
3.169480000E0,-7.417649496E-3,-3.394665569E-2,-4.550073296E-2
3.171480000E0,-5.567600485E-3,-3.211405873E-2,-4.534365237E-2
3.173480000E0,-2.617993858E-3,-2.979277074E-2,-4.591961205E-2
3.175480000E0,1.099557383E-3,-2.726204321E-2,-4.771730304E-2
3.177480000E0,4.834562074E-3,-2.528982051E-2,-4.878195375E-2
3.179480000E0,8.866272867E-3,-2.354449220E-2,-4.951499030E-2
3.181480000E0,1.366592757E-2,-2.124065720E-2,-5.045747012E-2
3.183480000E0,1.909390278E-2,-1.872738265E-2,-5.082398653E-2
3.185480000E0,2.384119667E-2,-1.677261479E-2,-5.194099993E-2
3.187480000E0,2.766346931E-2,-1.502728462E-2,-5.300565064E-2
3.189480000E0,3.235840425E-2,-1.303760987E-2,-5.314527452E-2
3.191480000E0,3.712315485E-2,-1.129228063E-2,-5.318018049E-2
3.193480000E0,4.190535471E-2,-1.089085452E-2,-5.290092900E-2
3.195480000E0,4.700171575E-2,-1.104793418E-2,-5.246459693E-2
3.197480000E0,5.160938576E-2,-1.111774705E-2,-5.258677155E-2
3.199480000E0,5.537929758E-2,-1.207767799E-2,-5.297074094E-2
3.201480000E0,5.785766616E-2,-1.279326342E-2,-5.279621109E-2
3.203480000E0,5.981243402E-2,-1.308996975E-2,-5.274384841E-2
3.205480000E0,6.218608096E-2,-1.352630183E-2,-5.239478499E-2
3.207480000E0,6.410594285E-2,-1.370083448E-2,-5.162683874E-2
3.209480000E0,6.550220400E-2,-1.345648803E-2,-5.131268129E-2
3.211480000E0,6.670648605E-2,-1.240929123E-2,-5.085889250E-2
3.213480000E0,6.752678752E-2,-1.071632188E-2,-5.005604401E-2
3.215480000E0,6.815510988E-2,-9.093165398E-3,-4.909611121E-2
3.217480000E0,6.843435764E-2,-7.784168236E-3,-4.806636646E-2
3.219480000E0,6.789331138E-2,-6.632251199E-3,-4.796164855E-2
3.221480000E0,6.736970693E-2,-5.532693584E-3,-4.855506122E-2
3.223480000E0,6.716027111E-2,-4.450589418E-3,-4.817108810E-2
3.225480000E0,6.613052636E-2,-3.368485486E-3,-4.801400751E-2
3.227480000E0,6.538003683E-2,-2.932153177E-3,-4.825835302E-2
3.229480000E0,6.539748609E-2,-3.071779385E-3,-4.742059484E-2
3.231480000E0,6.445501000E-2,-3.455751808E-3,-4.675737023E-2
3.233480000E0,6.375687569E-2,-4.555309191E-3,-4.680972919E-2
3.235480000E0,6.379178166E-2,-5.934119225E-3,-4.651302472E-2
3.237480000E0,6.349507719E-2,-6.824237294E-3,-4.574507847E-2
3.239480000E0,6.337290257E-2,-7.504915819E-3,-4.513421282E-2
3.241480000E0,6.300638616E-2,-8.412486874E-3,-4.518657550E-2
3.243480000E0,6.222098693E-2,-9.407324716E-3,-4.522148147E-2
3.245480000E0,6.190682948E-2,-1.108284108E-2,-4.523893446E-2
3.247480000E0,6.113888323E-2,-1.302015595E-2,-4.555309191E-2
3.249480000E0,5.988224596E-2,-1.443387289E-2,-4.567526653E-2
3.251480000E0,5.874778330E-2,-1.596976258E-2,-4.541346803E-2
3.253480000E0,5.796238407E-2,-1.816887781E-2,-4.530874640E-2
3.255480000E0,5.670574680E-2,-2.062979154E-2,-4.558800161E-2
3.257480000E0,5.429719388E-2,-2.289872058E-2,-4.537856206E-2
3.259480000E0,5.173156038E-2,-2.541199327E-2,-4.529129341E-2
3.261480000E0,4.942772537E-2,-2.801253460E-2,-4.588470608E-2
3.263480000E0,4.628613219E-2,-3.033382259E-2,-4.550073296E-2
3.265480000E0,4.248131439E-2,-3.284709528E-2,-4.440117627E-2
3.267480000E0,3.902556375E-2,-3.513347730E-2,-4.331907257E-2
3.269480000E0,3.605850041E-2,-3.670427576E-2,-4.192280769E-2
3.271480000E0,3.420845419E-2,-3.733259439E-2,-4.105014354E-2
3.273480000E0,3.186971322E-2,-3.759439290E-2,-4.070107639E-2
3.275480000E0,2.904227935E-2,-3.769911081E-2,-4.022983834E-2
3.277480000E0,2.787290886E-2,-3.741985932E-2,-3.909537569E-2
3.279480000E0,2.771582827E-2,-3.731513768E-2,-3.832742944E-2
3.281480000E0,2.734931000E-2,-3.728023171E-2,-3.864159063E-2
3.283480000E0,2.750638872E-2,-3.661700711E-2,-3.970624134E-2
3.285480000E0,2.883283980E-2,-3.541272879E-2,-4.045673087E-2
3.287480000E0,2.968805097E-2,-3.396410868E-2,-4.077089205E-2
3.289480000E0,3.003711626E-2,-3.244566917E-2,-4.183554277E-2
3.291480000E0,3.145083413E-2,-3.022910282E-2,-4.258603230E-2
3.293480000E0,3.422590718E-2,-2.617993951E-2,-4.321435094E-2
3.295480000E0,3.693116829E-2,-2.200860158E-2,-4.379031062E-2
3.297480000E0,3.899065405E-2,-1.872738265E-2,-4.370304570E-2
3.299480000E0,4.108504951E-2,-1.581268385E-2,-4.335397854E-2
3.301480000E0,4.351105914E-2,-1.242674422E-2,-4.288274050E-2
3.303480000E0,4.639085010E-2,-9.459684603E-3,-4.207988828E-2
3.305480000E0,4.946263134E-2,-7.941247895E-3,-4.141666368E-2
3.307480000E0,5.229006335E-2,-6.684611086E-3,-4.178318381E-2
3.309480000E0,5.407030135E-2,-5.550147034E-3,-4.256857932E-2
3.311480000E0,5.605997518E-2,-5.078908056E-3,-4.288274050E-2
3.313480000E0,5.845107511E-2,-5.532693584E-3,-4.270820692E-2
3.315480000E0,5.911429971E-2,-6.963863503E-3,-4.262094200E-2
3.317480000E0,5.906194076E-2,-9.145525284E-3,-4.260348529E-2
3.319480000E0,5.904448777E-2,-1.158898603E-2,-4.290019348E-2
3.321480000E0,5.808455870E-2,-1.448623277E-2,-4.270820692E-2
3.323480000E0,5.579817668E-2,-1.724385284E-2,-4.167846218E-2
3.325480000E0,5.328490213E-2,-1.963495463E-2,-4.094542563E-2
3.327480000E0,5.101597309E-2,-2.249729447E-2,-4.064871743E-2
3.329480000E0,4.818854108E-2,-2.619739249E-2,-4.084070399E-2
3.331480000E0,4.513421282E-2,-2.958333120E-2,-4.061381146E-2
3.333480000E0,4.169591516E-2,-3.286454827E-2,-3.956661373E-2
3.335480000E0,3.871140257E-2,-3.515093029E-2,-3.977605328E-2
3.337480000E0,3.623303398E-2,-3.701843321E-2,-4.333652556E-2
3.339480000E0,3.333579004E-2,-4.188790172E-2,-5.014330894E-2
3.341480000E0,3.057816811E-2,-5.143485218E-2,-5.859070271E-2
3.343480000E0,2.661627159E-2,-6.543239206E-2,-6.771877408E-2
3.345480000E0,1.963495463E-2,-8.185594529E-2,-7.648032904E-2
3.347480000E0,1.078613475E-2,-1.018050537E-1,-8.384561539E-2
3.349480000E0,5.759586347E-4,-1.288576573E-1,-9.030333161E-2
3.351480000E0,-1.178097259E-2,-1.625948697E-1,-9.546951205E-2
3.353480000E0,-2.628465928E-2,-1.990548074E-1,-9.724974632E-2
3.355480000E0,-4.166100919E-2,-2.353576422E-1,-9.482374042E-2
3.357480000E0,-5.707226694E-2,-2.706656456E-1,-8.782497048E-2
3.359480000E0,-7.534586638E-2,-3.112271130E-1,-7.993607968E-2
3.361480000E0,-1.010894701E-1,-3.697130978E-1,-7.892379165E-2
3.363480000E0,-1.358738840E-1,-4.475024045E-1,-8.925613761E-2
3.365480000E0,-1.755975783E-1,-5.350306630E-1,-1.079835221E-1
3.367480000E0,-2.163859159E-1,-6.246358752E-1,-1.288576573E-1
3.369480000E0,-2.563365102E-1,-7.094065547E-1,-1.474454105E-1
3.371480000E0,-2.928138971E-1,-7.843160629E-1,-1.622807086E-1
3.373480000E0,-3.253293633E-1,-8.473049998E-1,-1.733635515E-1
3.375480000E0,-3.540400267E-1,-8.975704908E-1,-1.810429990E-1
3.377480000E0,-3.786666393E-1,-9.363342524E-1,-1.857379377E-1
3.379480000E0,-3.978303373E-1,-9.634915590E-1,-1.866978705E-1
3.381480000E0,-4.119500518E-1,-9.786410332E-1,-1.839402467E-1
3.383480000E0,-4.224394858E-1,-9.851161838E-1,-1.790358722E-1
3.385480000E0,-4.295429885E-1,-9.868091345E-1,-1.722989082E-1
3.387480000E0,-4.330685437E-1,-9.849765301E-1,-1.638689637E-1
3.389480000E0,-4.344997108E-1,-9.794962406E-1,-1.538158655E-1
3.391480000E0,-4.354072809E-1,-9.715724587E-1,-1.421396136E-1
3.393480000E0,-4.341855645E-1,-9.629853964E-1,-1.298175901E-1
3.395480000E0,-4.308519661E-1,-9.531941414E-1,-1.166054457E-1
3.397480000E0,-4.244466126E-1,-9.400343299E-1,-1.023810133E-1
3.399480000E0,-4.145855010E-1,-9.230173826E-1,-8.712683618E-2
3.401480000E0,-4.020365775E-1,-9.021955729E-1,-6.955137104E-2
3.403480000E0,-3.868347704E-1,-8.785638213E-1,-5.103342608E-2
3.405480000E0,-3.692942262E-1,-8.531693220E-1,-3.370230645E-2
3.407480000E0,-3.504621089E-1,-8.260992169E-1,-1.750565320E-2
3.409480000E0,-3.308097124E-1,-7.980343699E-1,-2.059488557E-3
3.411480000E0,-3.101799190E-1,-7.698822021E-1,1.240929123E-2
3.413480000E0,-2.894802988E-1,-7.429517508E-1,2.523746155E-2
3.415480000E0,-2.684141994E-1,-7.174699306E-1,3.551745042E-2
3.417480000E0,-2.478542030E-1,-6.935240030E-1,4.286528751E-2
3.419480000E0,-2.284286916E-1,-6.705380678E-1,4.775220901E-2
3.421480000E0,-2.101201862E-1,-6.485468745E-1,5.037020147E-2
3.423480000E0,-1.928763390E-1,-6.276029348E-1,5.016076192E-2
3.425480000E0,-1.770112962E-1,-6.073920131E-1,4.756022245E-2
3.427480000E0,-1.636246145E-1,-5.874952674E-1,4.270820692E-2
3.429480000E0,-1.553168446E-1,-5.696056485E-1,3.569198400E-2
3.431480000E0,-1.614255011E-1,-5.645267367E-1,2.747148275E-2
3.433480000E0,-1.866280586E-1,-5.757317543E-1,1.811651699E-2
3.435480000E0,-2.221280485E-1,-5.913349986E-1,1.083849464E-2
3.437480000E0,-2.571044564E-1,-6.002012491E-1,8.203047328E-3
3.439480000E0,-2.871241271E-1,-5.974960327E-1,8.691739291E-3
3.441480000E0,-3.116459846E-1,-5.840919018E-1,8.901178837E-3
3.443480000E0,-3.311064243E-1,-5.612804294E-1,6.143558770E-3
3.445480000E0,-3.453308344E-1,-5.295852423E-1,1.239183708E-3
3.447480000E0,-3.536560535E-1,-4.914149046E-1,-5.480333697E-3
3.449480000E0,-3.560995162E-1,-4.490557611E-1,-1.391027402E-2
3.451480000E0,-3.539353311E-1,-4.040437341E-1,-2.206096239E-2
3.453480000E0,-3.470587134E-1,-3.585779071E-1,-2.981022373E-2
3.455480000E0,-3.357315361E-1,-3.157649636E-1,-3.707079217E-2
3.457480000E0,-3.219608963E-1,-2.762332559E-1,-4.159119725E-2
3.459480000E0,-3.062703907E-1,-2.418502718E-1,-4.344124347E-2
3.461480000E0,-2.891486883E-1,-2.129999846E-1,-4.387757555E-2
3.463480000E0,-2.711194456E-1,-1.889667958E-1,-4.214970022E-2
3.465480000E0,-2.524269819E-1,-1.706408411E-1,-3.830997646E-2
3.467480000E0,-2.337694019E-1,-1.578301191E-1,-3.358013555E-2
3.469480000E0,-2.160717547E-1,-1.507091820E-1,-2.691297606E-2
3.471480000E0,-1.990897059E-1,-1.487718672E-1,-1.820378378E-2
3.473480000E0,-1.827010661E-1,-1.517563760E-1,-9.302604944E-3
3.475480000E0,-1.687733382E-1,-1.596103609E-1,3.141592606E-4
3.477480000E0,-1.574286968E-1,-1.719672978E-1,9.913469665E-3
3.479480000E0,-1.487020552E-1,-1.899267286E-1,1.823868975E-2
3.481480000E0,-1.441991031E-1,-2.136632055E-1,2.509783395E-2
3.483480000E0,-1.423665136E-1,-2.400351316E-1,2.946115844E-2
3.485480000E0,-1.419476271E-1,-2.656216621E-1,3.345796093E-2
3.487480000E0,-1.430297345E-1,-2.877000868E-1,3.824016452E-2
3.489480000E0,-1.456826329E-1,-3.055373430E-1,4.427900165E-2
3.491480000E0,-1.508662552E-1,-3.194301724E-1,5.211552978E-2
3.493480000E0,-1.570796371E-1,-3.288549483E-1,5.719443783E-2
3.495480000E0,-1.630835682E-1,-3.349112272E-1,5.736897141E-2
3.497480000E0,-1.699427068E-1,-3.376863003E-1,5.490805954E-2
3.499480000E0,-1.771509200E-1,-3.378782868E-1,5.044001341E-2
3.501480000E0,-1.841845959E-1,-3.376339376E-1,4.546582699E-2
3.503480000E0,-1.921083927E-1,-3.365867436E-1,4.059635848E-2
3.505480000E0,-2.000670880E-1,-3.345970809E-1,3.515093029E-2
3.507480000E0,-2.080432475E-1,-3.331484497E-1,3.040363453E-2
3.509480000E0,-2.160194069E-1,-3.338116705E-1,2.658136375E-2
3.511480000E0,-2.239955515E-1,-3.381924331E-1,2.312561311E-2
3.513480000E0,-2.338741124E-1,-3.456624448E-1,1.982693933E-2
3.515480000E0,-2.451664060E-1,-3.572165370E-1,1.532399096E-2
3.517480000E0,-2.585879862E-1,-3.783350289E-1,9.389871731E-3
3.519480000E0,-2.757271230E-1,-4.115486443E-1,1.605702913E-3
3.521480000E0,-2.950304449E-1,-4.531747401E-1,-8.482299745E-3
3.523480000E0,-3.158173263E-1,-4.972442985E-1,-1.923352852E-2
3.525480000E0,-3.375292122E-1,-5.414011478E-1,-2.707005665E-2
3.527480000E0,-3.596425354E-1,-5.855579376E-1,-3.153809905E-2
3.529480000E0,-3.822096586E-1,-6.278473139E-1,-3.366740048E-2
3.531480000E0,-4.036946595E-1,-6.677803993E-1,-3.295181692E-2
3.533480000E0,-4.244466126E-1,-7.070852518E-1,-3.139847144E-2
3.535480000E0,-4.445702732E-1,-7.470707297E-1,-3.108431399E-2
3.537480000E0,-4.619188309E-1,-7.866896987E-1,-3.253293782E-2
3.539480000E0,-4.771730304E-1,-8.233416080E-1,-3.628539667E-2
3.541480000E0,-4.919210374E-1,-8.565726876E-1,-4.159119725E-2
3.543480000E0,-5.051680803E-1,-8.871334195E-1,-4.722860828E-2
3.545480000E0,-5.156226158E-1,-9.166294932E-1,-5.330235511E-2
3.547480000E0,-5.239827633E-1,-9.456717372E-1,-6.051056460E-2
3.549480000E0,-5.311560631E-1,-9.735969901E-1,-6.976080686E-2
3.551480000E0,-5.381897092E-1,-1.002010942E0,-8.079128712E-2
3.553480000E0,-5.457819104E-1,-1.033147693E0,-9.316567332E-2
3.555480000E0,-5.526759624E-1,-1.066012144E0,-1.067268848E-1
3.557480000E0,-5.576850772E-1,-1.098963976E0,-1.220334172E-1
3.559480000E0,-5.609837174E-1,-1.131322384E0,-1.393121779E-1
3.561480000E0,-5.635842681E-1,-1.161219954E0,-1.567654759E-1
3.563480000E0,-5.630781054E-1,-1.186021090E0,-1.720720083E-1
3.565480000E0,-5.584355593E-1,-1.203997970E0,-1.842893213E-1
3.567480000E0,-5.511924028E-1,-1.216686487E0,-1.940107942E-1
3.569480000E0,-5.419247150E-1,-1.226582527E0,-2.004859746E-1
3.571480000E0,-5.318367481E-1,-1.234715700E0,-2.024931014E-1
3.573480000E0,-5.211029649E-1,-1.244332433E0,-2.020393163E-1
3.575480000E0,-5.101073980E-1,-1.256462574E0,-2.021789402E-1
3.577480000E0,-4.990070760E-1,-1.268016577E0,-2.041337043E-1
3.579480000E0,-4.859694839E-1,-1.276516318E0,-2.068215162E-1
3.581480000E0,-4.708723724E-1,-1.279343843E0,-2.088635564E-1
3.583480000E0,-4.555658400E-1,-1.278279185E0,-2.112721056E-1
3.585480000E0,-4.408178031E-1,-1.277546048E0,-2.144486010E-1
3.587480000E0,-4.256683588E-1,-1.276603580E0,-2.173283994E-1
3.589480000E0,-4.097160399E-1,-1.275277138E0,-2.200860232E-1
3.591480000E0,-3.937462866E-1,-1.274421930E0,-2.224596590E-1
3.593480000E0,-3.777765036E-1,-1.270913839E0,-2.240653634E-1
3.595480000E0,-3.618067503E-1,-1.266009450E0,-2.259852290E-1
3.597480000E0,-3.445803523E-1,-1.261820674E0,-2.289697379E-1
3.599480000E0,-3.246312439E-1,-1.254106283E0,-2.330189049E-1
3.601480000E0,-2.985036671E-1,-1.240230918E0,-2.384643406E-1
3.603480000E0,-2.654645741E-1,-1.223545671E0,-2.444682717E-1
3.605480000E0,-2.296155095E-1,-1.211380720E0,-2.497566193E-1
3.607480000E0,-1.932253987E-1,-1.205167294E0,-2.528458536E-1
3.609480000E0,-1.563291401E-1,-1.203579068E0,-2.528458536E-1
3.611537812E0,-1.220508739E-1,-1.211467981E0,-2.515892088E-1
3.613480000E0,-9.580112249E-2,-1.231399655E0,-2.498089820E-1
3.615480000E0,-8.005825430E-2,-1.260668755E0,-2.465626597E-1
3.617480000E0,-7.585200667E-2,-1.296256065E0,-2.436479628E-1
3.619480000E0,-8.236208558E-2,-1.335037231E0,-2.418502718E-1
3.621480000E0,-9.667378664E-2,-1.370397568E0,-2.398431450E-1
3.623480000E0,-1.170243248E-1,-1.396787047E0,-2.380803674E-1
3.625480000E0,-1.426806599E-1,-1.408149123E0,-2.370506227E-1
3.627480000E0,-1.704663038E-1,-1.397328019E0,-2.356892675E-1
3.629480000E0,-1.972571164E-1,-1.362927556E0,-2.338566631E-1
3.631480000E0,-2.226691097E-1,-1.308194041E0,-2.334377915E-1
3.633480000E0,-2.465975732E-1,-1.237002134E0,-2.342057377E-1
3.635480000E0,-2.676985860E-1,-1.152475834E0,-2.342057377E-1
3.637480000E0,-2.854311466E-1,-1.059659243E0,-2.335774153E-1
3.639480000E0,-3.008598685E-1,-9.644340277E-1,-2.336472273E-1
3.641480000E0,-3.147177696E-1,-8.710763454E-1,-2.346071601E-1
3.643480000E0,-3.247883320E-1,-7.819424272E-1,-2.343802601E-1
3.645480000E0,-3.298148811E-1,-6.967354417E-1,-2.301740199E-1
3.647480000E0,-3.306177258E-1,-6.150191426E-1,-2.221455127E-1
3.649480000E0,-3.265161812E-1,-5.378755927E-1,-2.103645355E-1
3.651480000E0,-3.169517815E-1,-4.654444158E-1,-1.957735866E-1
3.653480000E0,-3.010692894E-1,-3.943047822E-1,-1.800656170E-1
3.655480000E0,-2.794446647E-1,-3.236713111E-1,-1.638689637E-1
3.657480000E0,-2.548704445E-1,-2.608394623E-1,-1.481435448E-1
3.659480000E0,-2.284461409E-1,-2.099980116E-1,-1.332035214E-1
3.661480000E0,-2.009746581E-1,-1.672199965E-1,-1.192408949E-1
3.663480000E0,-1.721069217E-1,-1.273915768E-1,-1.062905490E-1
3.665480000E0,-1.411098689E-1,-8.972737938E-2,-9.534733742E-2
3.667480000E0,-1.085943878E-1,-5.354670063E-2,-8.646360785E-2
3.669480000E0,-7.548549026E-2,-1.862266287E-2,-7.937757671E-2
3.671480000E0,-4.368559271E-2,1.450368576E-2,-7.490953058E-2
3.673480000E0,-1.466076542E-2,4.598942399E-2,-7.340855151E-2
3.675480000E0,1.165879890E-2,7.333873212E-2,-7.470009476E-2
3.677480000E0,3.438298777E-2,9.644689411E-2,-7.838273793E-2
3.679480000E0,5.372123420E-2,1.175479218E-1,-8.398524672E-2
3.681480000E0,6.981316954E-2,1.362229437E-1,-9.162978828E-2
3.683480000E0,8.203047514E-2,1.533097178E-1,-1.013687253E-1
3.685480000E0,9.175195545E-2,1.694016606E-1,-1.129053459E-1
3.687480000E0,9.822712839E-2,1.838529855E-1,-1.264491081E-1
3.689480000E0,1.018050537E-1,1.973094642E-1,-1.414240301E-1
3.691480000E0,1.042136103E-1,2.103645355E-1,-1.591914743E-1
3.693480000E0,1.048768312E-1,2.235592157E-1,-1.799958050E-1
3.695480000E0,1.048419252E-1,2.396686077E-1,-2.007826716E-1
3.697480000E0,1.057669520E-1,2.582214475E-1,-2.212379426E-1
3.699480000E0,1.061334684E-1,2.777691483E-1,-2.421818823E-1
3.701480000E0,1.056622341E-1,2.993065119E-1,-2.627069652E-1
3.703480000E0,1.051560864E-1,3.216292858E-1,-2.811725438E-1
3.705480000E0,1.043183282E-1,3.436727822E-1,-2.965663373E-1
3.707480000E0,1.042834222E-1,3.652625084E-1,-3.097784817E-1
3.709480000E0,1.058542207E-1,3.885626495E-1,-3.236887753E-1
3.711480000E0,1.080707833E-1,4.160515964E-1,-3.403915763E-1
3.713480000E0,1.102349982E-1,4.458618164E-1,-3.601312339E-1
3.715480000E0,1.126959100E-1,4.743979275E-1,-3.811101019E-1
3.717480000E0,1.149648353E-1,5.017995834E-1,-4.003785253E-1
3.719480000E0,1.174606606E-1,5.300041437E-1,-4.180063605E-1
3.721480000E0,1.210036799E-1,5.585228205E-1,-4.359134436E-1
3.723480000E0,1.233947799E-1,5.837079287E-1,-4.539426863E-1
3.725480000E0,1.240405515E-1,6.028017998E-1,-4.691619575E-1
3.727480000E0,1.249481216E-1,6.197314858E-1,-4.819901288E-1
3.729480000E0,1.259429604E-1,6.351427436E-1,-4.960400164E-1
3.731480000E0,1.244594306E-1,6.410943270E-1,-5.096535683E-1
3.733480000E0,1.206895187E-1,6.372022629E-1,-5.177344680E-1
3.735480000E0,1.175828278E-1,6.324723959E-1,-5.207015276E-1
3.737480000E0,1.156804189E-1,6.286501288E-1,-5.212774873E-1
3.739480000E0,1.136558428E-1,6.207786798E-1,-5.193052888E-1
3.741480000E0,1.115614474E-1,6.099925637E-1,-5.156575441E-1
3.743480000E0,1.107062325E-1,5.992937088E-1,-5.125857592E-1
3.745480000E0,1.097288504E-1,5.842140317E-1,-5.104041100E-1
3.747480000E0,1.071283072E-1,5.622926950E-1,-5.091823339E-1
3.749480000E0,1.048070192E-1,5.375788808E-1,-5.115385652E-1
3.751480000E0,1.032187715E-1,5.111021996E-1,-5.197590590E-1
3.753480000E0,9.974556416E-2,4.813967049E-1,-5.316272974E-1
3.755480000E0,9.485864639E-2,4.497364461E-1,-5.452932119E-1
3.757480000E0,8.970992267E-2,4.153709114E-1,-5.606346726E-1
3.759480000E0,8.192575723E-2,3.745650947E-1,-5.744576454E-1
3.761480000E0,7.276277989E-2,3.273364902E-1,-5.835682750E-1
3.763480000E0,6.461209059E-2,2.793923020E-1,-5.882108808E-1
3.765480000E0,5.656611919E-2,2.333505154E-1,-5.913699269E-1
3.767480000E0,4.855506122E-2,1.865233332E-1,-5.942322612E-1
3.769480000E0,4.213224724E-2,1.406386346E-1,-5.985432267E-1
3.771480000E0,3.762929887E-2,1.001819000E-1,-6.066240668E-1
3.773480000E0,3.548254445E-2,7.108726352E-2,-6.181083322E-1
3.775480000E0,3.649483621E-2,5.607742816E-2,-6.297322512E-1
3.777480000E0,4.038691893E-2,5.344198272E-2,-6.385636330E-1
3.779480000E0,4.576253146E-2,5.963790044E-2,-6.446897388E-1
3.781480000E0,5.047492310E-2,6.815510988E-2,-6.471855640E-1
3.783480000E0,5.522221699E-2,7.667231560E-2,-6.456670761E-1
3.785480000E0,6.126105785E-2,8.581783623E-2,-6.418972015E-1
3.787480000E0,6.688101590E-2,9.491100162E-2,-6.375338435E-1
3.789480000E0,7.232644409E-2,1.045975834E-1,-6.313204765E-1
3.791480000E0,7.864453644E-2,1.192758009E-1,-6.212325096E-1
3.793480000E0,8.658578247E-2,1.404117346E-1,-6.070080400E-1
3.795480000E0,9.485864639E-2,1.613207757E-1,-5.923996568E-1
3.797480000E0,1.001295373E-1,1.758244634E-1,-5.842314959E-1
3.799480000E0,1.029046103E-1,1.836260855E-1,-5.840569735E-1
3.801480000E0,1.046673954E-1,1.852143407E-1,-5.871462226E-1
3.803480000E0,1.053829789E-1,1.836609989E-1,-5.887344480E-1
3.805480000E0,1.059763953E-1,1.830326766E-1,-5.874778032E-1
3.807480000E0,1.071806699E-1,1.830850393E-1,-5.838126540E-1
3.809480000E0,1.082976833E-1,1.846907437E-1,-5.769534707E-1
3.811480000E0,1.093797833E-1,1.884955615E-1,-5.653121471E-1
3.813480000E0,1.107760444E-1,1.935221106E-1,-5.492202044E-1
3.815480000E0,1.122770309E-1,1.993515044E-1,-5.303531885E-1
3.817480000E0,1.135336682E-1,2.045700401E-1,-5.103691816E-1
3.819480000E0,1.143539697E-1,2.095267773E-1,-4.902455211E-1
3.821480000E0,1.143714264E-1,2.134363204E-1,-4.700520635E-1
3.823480000E0,1.131147891E-1,2.153561711E-1,-4.514119625E-1
3.825480000E0,1.113520041E-1,2.151816487E-1,-4.359483421E-1
3.827480000E0,1.090481728E-1,2.116386294E-1,-4.217588007E-1
3.829480000E0,1.055749655E-1,2.064026296E-1,-4.084070325E-1
3.831480000E0,1.010196581E-1,1.989151686E-1,-3.982317746E-1
3.833480000E0,9.473647177E-2,1.864011586E-1,-3.940953314E-1
3.835480000E0,8.777260780E-2,1.718276590E-1,-3.996629417E-1
3.837480000E0,8.239699155E-2,1.605353802E-1,-4.145680666E-1
3.839480000E0,7.801621407E-2,1.518261880E-1,-4.319864511E-1
3.841480000E0,7.368779927E-2,1.416683793E-1,-4.457047284E-1
3.843480000E0,6.972590089E-2,1.302713752E-1,-4.531922042E-1
3.845480000E0,6.590363383E-2,1.196248680E-1,-4.546582699E-1
3.847480000E0,6.150540337E-2,1.083500385E-1,-4.517784715E-1
3.849480000E0,5.562364310E-2,9.430013597E-2,-4.442910254E-1
3.851480000E0,4.942772537E-2,8.068656921E-2,-4.336794019E-1
3.853480000E0,4.406956211E-2,6.819001585E-2,-4.236612320E-1
3.855480000E0,3.778637946E-2,5.143485218E-2,-4.180237949E-1
3.857480000E0,2.923426405E-2,3.040363453E-2,-4.172907770E-1
3.859480000E0,2.007128671E-2,1.048942842E-2,-4.195247889E-1
3.861480000E0,1.317723561E-2,-2.652900526E-3,-4.258079827E-1
3.863480000E0,9.738937020E-3,-8.011061698E-3,-4.346742630E-1
3.865480000E0,6.771877408E-3,-1.050688233E-2,-4.439594150E-1
3.867480000E0,2.722713631E-3,-1.658062823E-2,-4.562639594E-1
3.869480000E0,-2.391101094E-3,-2.724459022E-2,-4.732634723E-1
3.871480000E0,-8.883725852E-3,-3.822271153E-2,-4.940677881E-1
3.873480000E0,-1.375319436E-2,-4.522148147E-2,-5.189561844E-1
3.875480000E0,-1.603957638E-2,-4.712389037E-2,-5.483475327E-1
3.877480000E0,-1.696459949E-2,-4.567526653E-2,-5.789257288E-1
3.879480000E0,-1.672025397E-2,-4.288274050E-2,-6.093642712E-1
3.881480000E0,-1.755801216E-2,-4.206243530E-2,-6.413212419E-1
3.883480000E0,-2.169444226E-2,-4.298745841E-2,-6.723357439E-1
3.885480000E0,-2.874557301E-2,-4.494222626E-2,-6.991440058E-1
3.887480000E0,-3.761184588E-2,-4.984660447E-2,-7.195469141E-1
3.889480000E0,-4.752531648E-2,-5.436700583E-2,-7.338411212E-1
3.891480000E0,-5.946336687E-2,-5.619960278E-2,-7.453428507E-1
3.893480000E0,-7.251843065E-2,-5.569345504E-2,-7.538077235E-1
3.895480000E0,-8.321730047E-2,-4.853760451E-2,-7.569318414E-1
3.897480000E0,-9.072221071E-2,-3.078760765E-2,-7.534760833E-1
3.899480000E0,-9.534733742E-2,-4.939281847E-3,-7.419743538E-1
3.901480000E0,-9.944885969E-2,2.197369561E-2,-7.246606946E-1
3.903480000E0,-1.045801267E-1,4.619886354E-2,-7.056191564E-1
3.905480000E0,-1.092052534E-1,7.056365907E-2,-6.833487749E-1
3.907480000E0,-1.123468429E-1,9.848892689E-2,-6.559820175E-1
3.909480000E0,-1.129926145E-1,1.291020066E-1,-6.240075827E-1
3.911480000E0,-1.113520041E-1,1.617745608E-1,-5.888915658E-1
3.913480000E0,-1.088038236E-1,1.958957613E-1,-5.531297326E-1
3.915480000E0,-1.049117446E-1,2.309419662E-1,-5.180661082E-1
3.917480000E0,-1.001819000E-1,2.682396472E-1,-4.851666093E-1
3.919480000E0,-9.478883445E-2,3.058340549E-1,-4.559847116E-1
3.921480000E0,-8.880235255E-2,3.429223001E-1,-4.308519661E-1
3.923480000E0,-8.319984376E-2,3.788411617E-1,-4.080056250E-1
3.925480000E0,-7.871434838E-2,4.108330607E-1,-3.870267570E-1
3.927480000E0,-7.625343651E-2,4.408876300E-1,-3.702715933E-1
3.929480000E0,-7.494443655E-2,4.730191231E-1,-3.568325639E-1
3.931480000E0,-7.251843065E-2,5.104041100E-1,-3.447199762E-1
3.933480000E0,-6.867870688E-2,5.530773997E-1,-3.328517377E-1
3.935480000E0,-6.555456668E-2,5.953841805E-1,-3.201282918E-1
3.937480000E0,-6.457718462E-2,6.337465048E-1,-3.061133027E-1
3.939480000E0,-6.609562039E-2,6.667332053E-1,-2.915747166E-1
3.941480000E0,-7.017968595E-2,6.927735209E-1,-2.780832946E-1
3.943480000E0,-7.656759769E-2,7.141188979E-1,-2.662674189E-1
3.945480000E0,-8.454374969E-2,7.319561839E-1,-2.579945624E-1
3.947480000E0,-9.409070015E-2,7.455173731E-1,-2.536835968E-1
3.949480000E0,-1.046150327E-1,7.545232773E-1,-2.528632879E-1
3.951480000E0,-1.158374995E-1,7.603875995E-1,-2.560048997E-1
3.953480000E0,-1.289274693E-1,7.637386322E-1,-2.617121339E-1
3.955480000E0,-1.440420300E-1,7.619234920E-1,-2.706482112E-1
3.957480000E0,-1.593485624E-1,7.558322549E-1,-2.834589183E-1
3.959480000E0,-1.740965992E-1,7.464075089E-1,-2.993937731E-1
