"Time (s)","Gyroscope x (rad/s)","Gyroscope y (rad/s)","Gyroscope z (rad/s)"
2.497344000E-3,-4.008054137E-1,-5.179844052E-2,1.623195261E-1
4.994635000E-3,-3.880222440E-1,-4.540685937E-2,1.644500494E-1
7.491927000E-3,-3.645864427E-1,-2.197105996E-2,1.580584794E-1
9.989271000E-3,-3.358243406E-1,-5.992107093E-3,1.569932103E-1
1.248656200E-2,-3.017359078E-1,4.660528153E-3,1.601890028E-1
1.498390600E-2,-2.623211443E-1,2.170474455E-2,1.601890028E-1
1.748119800E-2,-2.346242964E-1,4.301001504E-2,1.633847952E-1
1.997848900E-2,-2.154495418E-1,5.898896605E-2,1.665805876E-1
2.247583300E-2,-1.952095479E-1,7.603318244E-2,1.751026958E-1
2.497312500E-2,-1.824263781E-1,8.988160640E-2,1.868205965E-1
2.747041600E-2,-1.685779542E-1,1.005342454E-1,2.038648129E-1
2.996776000E-2,-1.600558460E-1,1.133174077E-1,2.155826986E-1
3.246505200E-2,-1.557947844E-1,1.282310933E-1,2.326269150E-1
3.496239600E-2,-1.536642611E-1,1.356879473E-1,2.464753538E-1
3.745968700E-2,-1.525990069E-1,1.442100555E-1,2.613890469E-1
3.995697900E-2,-1.536642611E-1,1.484711021E-1,2.752374709E-1
4.245432300E-2,-1.536642611E-1,1.516668946E-1,2.901511490E-1
4.495161400E-2,-1.643168926E-1,1.548626870E-1,3.082606196E-1
4.744890600E-2,-1.813611090E-1,1.580584794E-1,3.242395818E-1
4.994625000E-2,-1.962748021E-1,1.591237336E-1,3.423490524E-1
5.244354100E-2,-2.122537643E-1,1.559279412E-1,3.657848537E-1
5.494088500E-2,-2.335590273E-1,1.580584794E-1,3.838943541E-1
5.743817700E-2,-2.495379746E-1,1.623195261E-1,4.041343629E-1
5.993546900E-2,-2.633863986E-1,1.655153185E-1,4.211785793E-1
6.243281200E-2,-2.783001065E-1,1.687111109E-1,4.297006726E-1
6.493010400E-2,-2.900179923E-1,1.793637425E-1,4.382227957E-1
6.742739600E-2,-2.974748313E-1,1.857553273E-1,4.456796348E-1
6.992473900E-2,-3.070622087E-1,1.889511198E-1,4.478101432E-1
7.242203100E-2,-3.187801242E-1,1.846900582E-1,4.531364739E-1
7.491937500E-2,-3.230411708E-1,1.900163740E-1,4.573975205E-1
7.741666600E-2,-3.209106326E-1,2.134521753E-1,4.616585672E-1
7.991395800E-2,-3.134537935E-1,2.443448156E-1,4.669848979E-1
8.241130200E-2,-3.006706238E-1,2.688458860E-1,4.669848979E-1
8.490859400E-2,-2.878874540E-1,3.018690646E-1,4.669848979E-1
8.740588500E-2,-2.729737759E-1,3.263701200E-1,4.680501521E-1
8.990322900E-2,-2.559295595E-1,3.380880058E-1,4.755069911E-1
9.240052100E-2,-2.378200889E-1,3.412837982E-1,4.840291142E-1
9.489786400E-2,-2.207758725E-1,3.370227516E-1,4.904206991E-1
9.739515600E-2,-2.016011178E-1,3.274353743E-1,5.053343773E-1
9.989244800E-2,-1.834916472E-1,3.061301112E-1,5.223786235E-1
1.023897910E-1,-1.621863693E-1,2.986732721E-1,5.340964794E-1
1.048870830E-1,-1.440768987E-1,2.826943099E-1,5.458143950E-1
1.073843750E-1,-1.323589981E-1,2.773679793E-1,5.575323105E-1
1.098817190E-1,-1.163800433E-1,2.794985175E-1,5.724459887E-1
1.123790100E-1,-1.067926660E-1,2.794985175E-1,5.894901752E-1
1.148763540E-1,-1.014663503E-1,2.826943099E-1,6.001428366E-1
1.173736460E-1,-9.400950372E-2,2.954774797E-1,6.150565147E-1
1.198709370E-1,-9.294424206E-2,3.093259037E-1,6.267744303E-1
1.223682810E-1,-9.507477283E-2,3.167827427E-1,6.299701929E-1
1.248655730E-1,-1.046621427E-1,3.135869503E-1,6.193175912E-1
1.273628640E-1,-1.121189892E-1,3.157174885E-1,5.990775824E-1
1.298602080E-1,-1.291632056E-1,3.423490524E-1,5.830986500E-1
1.323575000E-1,-1.483379453E-1,3.870901465E-1,5.671196580E-1
1.348548440E-1,-1.696432233E-1,4.297006726E-1,5.564670563E-1
1.373521350E-1,-1.952095479E-1,4.712459445E-1,5.479449034E-1
1.398494270E-1,-2.335590273E-1,5.010733008E-1,5.340964794E-1
1.423467710E-1,-2.729737759E-1,5.245091319E-1,5.255743861E-1
1.448440620E-1,-3.049316704E-1,5.436838865E-1,5.266396403E-1
1.473413540E-1,-3.336938024E-1,5.607280731E-1,5.309007168E-1
1.498386980E-1,-3.581948578E-1,5.777723193E-1,5.415533185E-1
1.523359890E-1,-3.816306591E-1,6.001428366E-1,5.554017425E-1
1.548333330E-1,-3.954790831E-1,6.299701929E-1,5.777723193E-1
1.573306250E-1,-4.071969688E-1,6.576670408E-1,5.969470739E-1
1.598279160E-1,-4.125232995E-1,6.928207874E-1,6.214480996E-1
1.623252600E-1,-4.061317146E-1,7.343660593E-1,6.470144391E-1
1.648225520E-1,-3.944138288E-1,7.705850005E-1,6.779070497E-1
1.673198440E-1,-3.773696125E-1,8.014776707E-1,7.098649740E-1
1.698171870E-1,-3.486074805E-1,8.259786963E-1,7.396923304E-1
1.723144790E-1,-3.166495860E-1,8.376966119E-1,7.652586699E-1
1.748118230E-1,-2.804306149E-1,8.302397728E-1,7.897597551E-1
1.773091140E-1,-2.442116588E-1,8.068039417E-1,8.153260946E-1
1.798064060E-1,-2.090579718E-1,7.631281614E-1,8.366313577E-1
1.823037500E-1,-1.781653315E-1,7.151913047E-1,8.568713665E-1
1.848010410E-1,-1.483379453E-1,6.725807786E-1,8.792418838E-1
1.872983330E-1,-1.206410974E-1,6.214480996E-1,9.016124010E-1
1.897956770E-1,-1.004010886E-1,5.617933273E-1,9.186566472E-1
1.922929690E-1,-8.868318796E-2,5.000080466E-1,9.335703254E-1
1.947903120E-1,-8.761792630E-2,4.424838424E-1,9.442229271E-1
1.972876040E-1,-9.081371874E-2,3.956122398E-1,9.506145120E-1
1.997848960E-1,-8.974844962E-2,3.615238070E-1,9.623324275E-1
2.022822390E-1,-8.974844962E-2,3.359574974E-1,9.644629359E-1
2.047795310E-1,-9.081371874E-2,3.093259037E-1,9.538103342E-1
2.072768230E-1,-9.507477283E-2,2.869553566E-1,9.378314018E-1
2.097741660E-1,-9.720529616E-2,2.656500936E-1,9.175913930E-1
2.122714580E-1,-9.933582693E-2,2.432795614E-1,8.898945451E-1
2.147688020E-1,-1.078579351E-1,2.102563828E-1,8.621976376E-1
2.172660940E-1,-1.195758283E-1,1.601890028E-1,8.345007896E-1
2.197633850E-1,-1.366200447E-1,9.627319127E-2,8.014776707E-1
2.222607290E-1,-1.579253227E-1,2.490053512E-2,7.641934156E-1
2.247580210E-1,-1.941442788E-1,-4.966791347E-2,7.226481438E-1
2.272553120E-1,-2.410158664E-1,-1.306279451E-1,6.832333803E-1
2.297526560E-1,-3.049316704E-1,-1.988048106E-1,6.470144391E-1
2.322499480E-1,-3.752390742E-1,-2.467416674E-1,6.118607521E-1
2.347472910E-1,-4.487422705E-1,-2.573943138E-1,5.735112429E-1
2.372445830E-1,-5.297023058E-1,-2.456763983E-1,5.372923017E-1
2.397418750E-1,-6.117275953E-1,-2.083921731E-1,4.946817458E-1
2.422392190E-1,-6.937528849E-1,-1.466068923E-1,4.478101432E-1
2.447365100E-1,-7.747129202E-1,-7.523423433E-2,4.041343629E-1
2.472338020E-1,-8.503466249E-1,1.105210930E-2,3.647195995E-1
2.497311460E-1,-9.153276682E-1,1.005342454E-1,3.263701200E-1
2.522284370E-1,-9.600687623E-1,1.942774355E-1,2.944121957E-1
2.547257810E-1,-9.835045338E-1,2.763027251E-1,2.709763944E-1
2.572230730E-1,-9.898961186E-1,3.423490524E-1,2.518016696E-1
2.597203640E-1,-9.749824405E-1,3.913511932E-1,2.358227074E-1
2.622177080E-1,-9.462203383E-1,4.137217104E-1,2.304963917E-1
2.647150000E-1,-9.068055749E-1,4.137217104E-1,2.379532456E-1
2.672122910E-1,-8.567382097E-1,3.924164474E-1,2.539321780E-1
2.697096350E-1,-7.949529290E-1,3.647195995E-1,2.826943099E-1
2.722069270E-1,-7.246454954E-1,3.253048360E-1,3.167827427E-1
2.747042710E-1,-6.426202059E-1,2.816290557E-1,3.519364297E-1
2.772015620E-1,-5.510075688E-1,2.486058772E-1,3.817638159E-1
2.796988540E-1,-4.625906944E-1,2.081258595E-1,4.030690789E-1
2.821961980E-1,-3.741738200E-1,1.516668946E-1,4.179827869E-1
2.846934890E-1,-2.932137847E-1,9.414266050E-2,4.307659268E-1
2.871907810E-1,-2.261021882E-1,3.022685274E-2,4.424838424E-1
2.896881250E-1,-1.685779542E-1,-3.262369707E-2,4.616585672E-1
2.921854160E-1,-1.312937289E-1,-9.334371984E-2,4.818985760E-1
2.946827600E-1,-1.046621427E-1,-1.487374157E-1,5.000080466E-1
2.971800520E-1,-9.187898040E-2,-1.956090182E-1,5.181175470E-1
2.996773440E-1,-8.868318796E-2,-2.137184888E-1,5.298354626E-1
3.021746870E-1,-8.868318796E-2,-2.020006031E-1,5.298354626E-1
3.046719790E-1,-8.761792630E-2,-1.711079478E-1,5.191828012E-1
3.071692710E-1,-8.761792630E-2,-1.263668835E-1,5.042691231E-1
3.096666140E-1,-8.974844962E-2,-7.949528843E-2,4.882901609E-1
3.121639060E-1,-8.761792630E-2,-4.221106693E-2,4.680501521E-1
3.146612500E-1,-8.442213386E-2,-2.410158701E-2,4.478101432E-1
3.171585410E-1,-8.442213386E-2,-1.877526939E-2,4.350270033E-1
3.196558330E-1,-8.974844962E-2,-2.516685054E-2,4.254396260E-1
3.221531770E-1,-9.720529616E-2,-3.262369707E-2,4.254396260E-1
3.246504690E-1,-1.035968810E-1,-3.475422412E-2,4.265048802E-1
3.271477600E-1,-1.185105667E-1,-2.942790464E-2,4.275701344E-1
3.296451040E-1,-1.366200447E-1,-5.992107093E-3,4.360922575E-1
3.321423960E-1,-1.579253227E-1,3.235737979E-2,4.403533041E-1
3.346397390E-1,-1.866874397E-1,7.390265912E-2,4.467448890E-1
3.371370310E-1,-2.197106034E-1,1.271658391E-1,4.542017281E-1
3.396344270E-1,-2.580600977E-1,1.836248040E-1,4.531364739E-1
3.421318230E-1,-2.932137847E-1,2.379532456E-1,4.584627748E-1
3.446292190E-1,-3.241064250E-1,3.039995730E-1,4.691154361E-1
3.471266140E-1,-3.549990654E-1,3.668501377E-1,4.818985760E-1
3.496240100E-1,-3.837611973E-1,4.350270033E-1,4.946817458E-1
3.521214060E-1,-4.050664604E-1,4.978775382E-1,5.074648857E-1
3.546188020E-1,-4.210454226E-1,5.479449034E-1,5.202480555E-1
3.571161980E-1,-4.306327701E-1,5.916207433E-1,5.372923017E-1
3.596135940E-1,-4.306327701E-1,6.289049387E-1,5.532712340E-1
3.621109890E-1,-4.263717234E-1,6.534060240E-1,5.735112429E-1
3.646083330E-1,-4.135885537E-1,6.693849564E-1,5.937512517E-1
3.671057290E-1,-3.922832906E-1,6.811028719E-1,6.107954979E-1
3.696031250E-1,-3.656516969E-1,6.864292026E-1,6.257091761E-1
3.721005210E-1,-3.379548490E-1,6.928207874E-1,6.395576000E-1
3.745979160E-1,-3.017359078E-1,6.970818043E-1,6.534060240E-1
3.770953120E-1,-2.548643053E-1,6.928207874E-1,6.661891937E-1
3.795927080E-1,-2.143842876E-1,6.842986345E-1,6.757765412E-1
3.820901040E-1,-1.707084775E-1,6.736460328E-1,6.789723635E-1
3.845875000E-1,-1.238368824E-1,6.502102017E-1,6.800376177E-1
3.870848960E-1,-7.803055644E-2,6.235786080E-1,6.768417954E-1
3.895822910E-1,-3.222422302E-2,5.937512517E-1,6.715154648E-1
3.920796870E-1,1.251684688E-2,5.522059798E-1,6.629933715E-1
3.945770830E-1,5.406212434E-2,5.138564706E-1,6.544712782E-1
3.970744790E-1,9.134634584E-2,4.733764827E-1,6.427533627E-1
3.995718750E-1,1.265000403E-1,4.265048802E-1,6.289049387E-1
4.020692710E-1,1.563274264E-1,3.753722310E-1,6.054691672E-1
4.045666660E-1,1.755021662E-1,3.402185440E-1,5.724459887E-1
4.070640620E-1,1.968074292E-1,3.157174885E-1,5.340964794E-1
4.095614580E-1,2.149169147E-1,3.061301112E-1,4.861596525E-1
4.120588540E-1,2.234390229E-1,3.103911579E-1,4.307659268E-1
4.145562500E-1,2.308958620E-1,3.306311667E-1,3.700459301E-1
4.170535940E-1,2.404832393E-1,3.647195995E-1,3.039995730E-1
4.195509890E-1,2.447443008E-1,4.094606638E-1,2.347574532E-1
4.220483850E-1,2.511358857E-1,4.595280588E-1,1.474058330E-1
4.245457810E-1,2.596579790E-1,5.170522928E-1,4.514054209E-2
4.270431770E-1,2.692453563E-1,5.799028277E-1,-7.523423433E-2
4.295405730E-1,2.820285261E-1,6.661891937E-1,-2.190448195E-1
4.320379690E-1,2.990727425E-1,8.110650182E-1,-3.937480450E-1
4.345353640E-1,3.299653828E-1,9.953556061E-1,-5.918870568E-1
4.370327600E-1,3.757717013E-1,1.135970354E0,-7.846997380E-1
4.395301560E-1,4.418180585E-1,1.197755694E0,-9.519461393E-1
4.420275520E-1,5.291696787E-1,1.205212474E0,-1.068059802E0
4.445249480E-1,6.207823157E-1,1.172189355E0,-1.134106159E0
4.470223440E-1,7.113296986E-1,1.104012489E0,-1.161803007E0
4.495197390E-1,7.837676406E-1,1.019856691E0,-1.161803007E0
4.520171350E-1,8.455529213E-1,9.357008338E-1,-1.151150346E0
4.545145310E-1,8.924245238E-1,8.547407985E-1,-1.141563058E0
4.570119270E-1,9.137297869E-1,7.886945009E-1,-1.127714634E0
4.595093230E-1,9.179908633E-1,7.269092202E-1,-1.109605074E0
4.620067190E-1,9.126645327E-1,6.629933715E-1,-1.084038854E0
4.645041140E-1,8.966856003E-1,5.980123281E-1,-1.047819853E0
4.670014580E-1,8.743150234E-1,5.340964794E-1,-1.002013445E0
4.694988540E-1,8.455529213E-1,4.787027836E-1,-9.476850629E-1
4.719962500E-1,8.189213276E-1,4.499406815E-1,-8.922913671E-1
4.744936460E-1,7.933549881E-1,4.275701344E-1,-8.379629254E-1
4.769910410E-1,7.688539624E-1,4.094606638E-1,-7.921565771E-1
4.794884370E-1,7.422223687E-1,4.179827869E-1,-7.463502288E-1
4.819858330E-1,7.134602666E-1,4.286354184E-1,-7.069355249E-1
4.844832290E-1,6.846981049E-1,4.435490966E-1,-6.728470922E-1
4.869806250E-1,6.591318250E-1,4.680501521E-1,-6.344975829E-1
4.894780210E-1,6.293044090E-1,4.968122840E-1,-5.961480737E-1
4.919754160E-1,5.952159762E-1,5.159870386E-1,-5.588638783E-1
4.944728120E-1,5.526054502E-1,5.223786235E-1,-5.119922757E-1
4.969702080E-1,5.121254325E-1,5.309007168E-1,-4.576638341E-1
4.994676040E-1,4.599275291E-1,5.415533185E-1,-4.054659307E-1
5.019650000E-1,4.066643417E-1,5.458143950E-1,-3.522027433E-1
5.044623960E-1,3.544664383E-1,5.458143950E-1,-2.978743017E-1
5.069597910E-1,2.990727425E-1,5.362270474E-1,-2.392848134E-1
5.094571870E-1,2.372874469E-1,5.266396403E-1,-1.849563867E-1
5.119545830E-1,1.744368970E-1,5.138564706E-1,-1.359542608E-1
5.144519790E-1,8.175897598E-2,5.010733008E-1,-7.736476511E-2
5.169493230E-1,-9.187898040E-2,4.776375294E-1,-7.057370618E-3
5.194467190E-1,-2.985401154E-1,4.808333218E-1,5.792370439E-2
5.219441140E-1,-4.647212029E-1,5.287702084E-1,1.143826693E-1
5.244415100E-1,-5.925528407E-1,5.969470739E-1,1.708416343E-1
5.269389060E-1,-7.342329025E-1,6.534060240E-1,2.326269150E-1
5.294363020E-1,-8.727171421E-1,6.992123723E-1,2.933469415E-1
5.319336980E-1,-1.001613975E0,7.524755001E-1,3.572627604E-1
5.344310940E-1,-1.107075095E0,8.206523657E-1,4.126564562E-1
5.369284890E-1,-1.183774114E0,8.941555619E-1,4.648543596E-1
5.394258850E-1,-1.244494081E0,9.644629359E-1,5.159870386E-1
5.419232810E-1,-1.292430997E0,1.007073522E0,5.543364882E-1
5.444206770E-1,-1.328649879E0,1.027313471E0,5.873596668E-1
5.469180730E-1,-1.359542608E0,1.043292522E0,6.097301841E-1
5.494154690E-1,-1.397892118E0,1.044357777E0,5.958817601E-1
5.519128640E-1,-1.485243678E0,9.921598434E-1,5.671196580E-1
5.544102600E-1,-1.577921629E0,9.591366649E-1,5.554017425E-1
5.569076560E-1,-1.654620528E0,9.719198346E-1,5.490102172E-1
5.594050520E-1,-1.723862648E0,9.889640212E-1,5.415533185E-1
5.619024480E-1,-1.796300650E0,9.825724363E-1,5.330312252E-1
5.643998440E-1,-1.852759600E0,9.687240124E-1,5.181175470E-1
5.668972390E-1,-1.892174363E0,9.495492578E-1,4.872249067E-1
5.693945830E-1,-1.928393245E0,9.101344943E-1,4.531364739E-1
5.718919790E-1,-1.956090093E0,8.664587140E-1,4.360922575E-1
5.743893750E-1,-1.973134398E0,8.600671291E-1,4.190480411E-1
5.768867710E-1,-1.977395415E0,8.749808073E-1,4.051996171E-1
5.793841660E-1,-1.985917568E0,8.930903077E-1,3.998732865E-1
5.818815620E-1,-1.996570110E0,9.410271645E-1,3.966774940E-1
5.843789580E-1,-2.014679670E0,1.052879810E0,4.243743420E-1
5.868763540E-1,-2.043441772E0,1.146623015E0,4.680501521E-1
5.893737500E-1,-2.066877604E0,1.203081965E0,5.074648857E-1
5.918711460E-1,-2.099900723E0,1.265932560E0,5.468796492E-1
5.943685410E-1,-2.133989096E0,1.343696833E0,5.852291584E-1
5.968659370E-1,-2.171273470E0,1.426787376E0,6.257091761E-1
5.993633330E-1,-2.190448046E0,1.498160005E0,6.811028719E-1
6.018607290E-1,-2.162751198E0,1.488572598E0,7.705850005E-1
6.043581250E-1,-2.074334383E0,1.392698884E0,8.856334686E-1
6.068555210E-1,-1.948633313E0,1.253149390E0,1.016660929E0
6.093529160E-1,-1.823997498E0,1.121056676E0,1.139166236E0
6.118503120E-1,-1.727058530E0,1.028378725E0,1.239300966E0
6.143477080E-1,-1.664207935E0,1.000681877E0,1.318130493E0
6.168451040E-1,-1.636511087E0,9.953556061E-1,1.377785206E0
6.193424480E-1,-1.605618477E0,9.761808515E-1,1.423591495E0
6.218398440E-1,-1.570464730E0,9.250482321E-1,1.466202140E0
6.243372390E-1,-1.543833137E0,8.462187052E-1,1.503486276E0
6.268346350E-1,-1.527854204E0,7.546060681E-1,1.522661090E0
6.293320310E-1,-1.520397425E0,6.779070497E-1,1.534379005E0
6.318294270E-1,-1.523593187E0,6.097301841E-1,1.530117869E0
6.343268230E-1,-1.533180475E0,5.585975647E-1,1.516269445E0
6.368242190E-1,-1.540637374E0,5.032038689E-1,1.487507343E0
6.393216140E-1,-1.553420544E0,4.307659268E-1,1.435309410E0
6.418190100E-1,-1.575791121E0,3.423490524E-1,1.368197799E0
6.443164060E-1,-1.605618477E0,2.390184999E-1,1.288303018E0
6.468138020E-1,-1.646098495E0,1.506016254E-1,1.198820949E0
6.493111980E-1,-1.695100546E0,8.242476732E-2,1.106142998E0
6.518085940E-1,-1.757951140E0,4.194474965E-2,1.016660929E0
6.543059890E-1,-1.838911176E0,3.874896094E-2,9.303745031E-1
6.568033850E-1,-1.951829076E0,6.111949310E-2,8.334355354E-1
6.593007810E-1,-2.066877604E0,1.378184706E-1,7.396923304E-1
6.617981770E-1,-2.173403978E0,2.571279705E-1,6.629933715E-1
6.642955730E-1,-2.274603844E0,4.009385705E-1,6.001428366E-1
6.667929690E-1,-2.363020897E0,5.532712340E-1,5.383575559E-1
6.692903640E-1,-2.442915678E0,6.970818043E-1,4.765722752E-1
6.717877080E-1,-2.501505136E0,8.217176795E-1,4.115912020E-1
6.742851040E-1,-2.538789272E0,9.133303165E-1,3.487406373E-1
6.767825000E-1,-2.555833578E0,9.889640212E-1,2.848248482E-1
6.792798960E-1,-2.555833578E0,1.050749302E0,2.251700759E-1
6.817772910E-1,-2.543050289E0,1.105077744E0,1.729721576E-1
6.842746870E-1,-2.512157679E0,1.154079914E0,1.324921548E-1
6.867720830E-1,-2.467416525E0,1.194559932E0,9.840371460E-2
6.892694790E-1,-2.416284084E0,1.227583051E0,6.964160502E-2
6.917668750E-1,-2.380064964E0,1.193494678E0,4.407527670E-2
6.942642710E-1,-2.328932285E0,1.174319863E0,2.916158922E-2
6.967616660E-1,-2.245841742E0,1.195625186E0,9.986845776E-3
6.992590620E-1,-2.153163910E0,1.214799881E0,-2.796316752E-3
7.017564580E-1,-2.075399637E0,1.196690440E0,-8.122634143E-3
7.042538540E-1,-1.996570110E0,1.160471439E0,-1.025316119E-2
7.067512500E-1,-1.912414312E0,1.123187184E0,-1.451421529E-2
7.092486460E-1,-1.835715413E0,1.094425082E0,-2.303632349E-2
7.117460410E-1,-1.750494242E0,1.092294574E0,-3.581948578E-2
7.142434370E-1,-1.672730088E0,1.085903049E0,-3.901527822E-2
7.167408330E-1,-1.607748985E0,1.083772421E0,-2.836264111E-2
7.192382290E-1,-1.545963645E0,1.089098811E0,-2.090579644E-2
7.217355730E-1,-1.490569949E0,1.101881981E0,-1.771000586E-2
7.242329690E-1,-1.435176253E0,1.113599896E0,-1.131842472E-2
7.267303640E-1,-1.385108948E0,1.123187184E0,-3.861580277E-3
7.292277600E-1,-1.342498302E0,1.130644083E0,1.464737346E-3
7.317251560E-1,-1.312670946E0,1.148753524E0,5.725791678E-3
7.342225520E-1,-1.283908844E0,1.167928338E0,7.856318727E-3
7.367199480E-1,-1.258342505E0,1.192429304E0,1.105210930E-2
7.392173440E-1,-1.238102555E0,1.209473610E0,1.318263635E-2
7.417147390E-1,-1.224254131E0,1.222256780E0,6.791055202E-3
7.442121350E-1,-1.219992995E0,1.230778813E0,-4.926843569E-3
7.467095310E-1,-1.223188877E0,1.242496729E0,-1.344895177E-2
7.492069270E-1,-1.229580402E0,1.254214644E0,-2.836264111E-2
7.517043230E-1,-1.246624589E0,1.276585221E0,-4.327633232E-2
7.542017190E-1,-1.262603641E0,1.314934611E0,-6.138581038E-2
7.566991140E-1,-1.273256183E0,1.367132545E0,-8.269108087E-2
7.591965100E-1,-1.274321437E0,1.423591495E0,-1.061268821E-1
7.616939060E-1,-1.271125674E0,1.471528411E0,-1.306279451E-1
7.641913020E-1,-1.254081488E0,1.507747412E0,-1.583247930E-1
7.666886980E-1,-1.232776165E0,1.531183124E0,-1.849563867E-1
7.691860940E-1,-1.201883554E0,1.547162056E0,-2.201100737E-1
7.716834370E-1,-1.164599299E0,1.549292684E0,-2.563290298E-1
7.741808330E-1,-1.129445672E0,1.520530581E0,-3.000048399E-1
7.766782290E-1,-1.102814078E0,1.455549479E0,-3.447459042E-1
7.791756250E-1,-1.049550891E0,1.425722122E0,-3.724427521E-1
7.816730210E-1,-9.973529577E-1,1.396959901E0,-3.884217143E-1
7.841704160E-1,-9.440897703E-1,1.358610511E0,-3.905522525E-1
7.866678120E-1,-8.908266425E-1,1.317065239E0,-3.788343370E-1
7.891652080E-1,-8.364982009E-1,1.281911492E0,-3.564638197E-1
7.916626040E-1,-7.864307761E-1,1.227583051E0,-3.266364336E-1
7.941600000E-1,-7.384939194E-1,1.166863084E0,-2.893522084E-1
7.966573960E-1,-6.905570626E-1,1.107208252E0,-2.435458750E-1
7.991547910E-1,-6.458160281E-1,1.058206201E0,-1.860216409E-1
8.016521870E-1,-6.010749340E-1,1.011334538E0,-1.253016293E-1
8.041495830E-1,-5.552685857E-1,9.633976817E-1,-6.351634115E-2
8.066469790E-1,-5.105275512E-1,9.069387317E-1,-6.657897029E-4
8.091443750E-1,-4.625906944E-1,8.515450358E-1,6.644581258E-2
8.116417710E-1,-4.199801385E-1,7.993471026E-1,1.271658391E-1
8.141391660E-1,-3.890874982E-1,7.524755001E-1,1.825595349E-1
8.166365620E-1,-3.667169809E-1,7.247786522E-1,2.379532456E-1
8.191339580E-1,-3.454116881E-1,7.119954824E-1,2.890858948E-1
8.216313540E-1,-3.326285481E-1,7.162565589E-1,3.359574974E-1
8.241286980E-1,-3.198453784E-1,7.237133980E-1,3.743069768E-1
8.266260940E-1,-3.166495860E-1,7.290397286E-1,4.009385705E-1
8.291234890E-1,-3.198453784E-1,7.386270761E-1,4.094606638E-1
8.316208850E-1,-3.304980099E-1,7.514102459E-1,4.115912020E-1
8.341182810E-1,-3.518032730E-1,7.695197463E-1,3.977427781E-1
8.366156250E-1,-3.784348667E-1,8.025429249E-1,3.743069768E-1
8.391129160E-1,-4.157190919E-1,8.515450358E-1,3.498059213E-1
8.416102600E-1,-4.540685713E-1,9.090692401E-1,3.189132810E-1
8.441075520E-1,-4.849612117E-1,9.676587582E-1,3.071953654E-1
8.466048960E-1,-4.998749197E-1,1.013465047E0,3.071953654E-1
8.491021870E-1,-5.424854755E-1,1.042227149E0,2.443448156E-1
8.515995310E-1,-5.733780861E-1,1.107208252E0,1.676458418E-1
8.540968230E-1,-6.053360105E-1,1.161536694E0,1.271658391E-1
8.565941660E-1,-6.404896975E-1,1.189233541E0,1.079910919E-1
8.590914580E-1,-6.735128760E-1,1.204147220E0,6.751107424E-2
8.615888020E-1,-7.097318172E-1,1.204147220E0,9.986845776E-3
8.640860940E-1,-7.470160723E-1,1.207343102E0,-4.434159398E-2
8.665834370E-1,-7.725823522E-1,1.192429304E0,-8.908266574E-2
8.690807810E-1,-8.013445139E-1,1.176450372E0,-1.157142520E-1
8.715780730E-1,-8.375634551E-1,1.172189355E0,-1.242363602E-1
8.740754160E-1,-8.791087270E-1,1.127448320E0,-1.327584684E-1
8.765727080E-1,-9.206539989E-1,1.057140946E0,-1.444763690E-1
8.790700520E-1,-9.590035081E-1,9.719198346E-1,-1.423458457E-1
8.815673440E-1,-9.973529577E-1,9.026776552E-1,-1.338237375E-1
8.840646870E-1,-1.032506704E0,8.558061123E-1,-1.210405678E-1
8.865619790E-1,-1.058073044E0,8.206523657E-1,-1.071921438E-1
8.890593230E-1,-1.084704638E0,7.812376618E-1,-9.121318907E-2
8.915566140E-1,-1.111336231E0,7.460839152E-1,-7.843002677E-2
8.940539580E-1,-1.136902452E0,7.173218131E-1,-6.351634115E-2
8.965512500E-1,-1.165664554E0,6.906902194E-1,-4.860264808E-2
8.990485940E-1,-1.193361521E0,6.821681261E-1,-3.475422412E-2
9.015459370E-1,-1.227449894E0,6.693849564E-1,-3.368895873E-2
9.040432290E-1,-1.263668895E0,6.480796933E-1,-4.114580527E-2
9.065405730E-1,-1.294561505E0,6.480796933E-1,-4.434159398E-2
9.090378640E-1,-1.323323607E0,6.651239395E-1,-4.647212103E-2
9.115352080E-1,-1.354216218E0,6.779070497E-1,-4.860264808E-2
9.140325000E-1,-1.386174202E0,6.960165501E-1,-5.179844052E-2
9.165298440E-1,-1.411740541E0,7.258439064E-1,-5.286370218E-2
9.190271350E-1,-1.438372016E0,7.514102459E-1,-5.499422923E-2
9.215244790E-1,-1.466068983E0,7.940207720E-1,-6.032054871E-2
9.240217710E-1,-1.504418373E0,8.366313577E-1,-7.097318023E-2
9.265191140E-1,-1.547028899E0,8.835029602E-1,-8.695213497E-2
9.290164060E-1,-1.587508917E0,9.335703254E-1,-9.760477394E-2
9.315137500E-1,-1.637576342E0,1.017726183E0,-1.018658280E-1
9.340110410E-1,-1.698296428E0,1.074185133E0,-1.103879362E-1
9.365083850E-1,-1.772864819E0,1.086968303E0,-1.348889917E-1
9.390057290E-1,-1.852759600E0,1.068858743E0,-1.796300560E-1
9.415030210E-1,-1.931589127E0,1.051814556E0,-2.360890359E-1
9.440003640E-1,-2.010418653E0,1.050749302E0,-2.936132550E-1
9.464976560E-1,-2.081791162E0,1.063532472E0,-3.522027433E-1
9.489950000E-1,-2.153163910E0,1.079511404E0,-4.129227698E-1
9.514922910E-1,-2.212818623E0,1.096555591E0,-4.725775421E-1
9.539896350E-1,-2.271408081E0,1.106142998E0,-5.311670303E-1
9.564869270E-1,-2.322540760E0,1.125317812E0,-5.737775564E-1
9.589842710E-1,-2.368347168E0,1.147688270E0,-6.131923199E-1
9.614815620E-1,-2.407761812E0,1.161536694E0,-6.430196762E-1
9.639789060E-1,-2.439719677E0,1.182842016E0,-6.643249393E-1
9.664761980E-1,-2.464220762E0,1.195625186E0,-6.739123464E-1
9.689735410E-1,-2.475938797E0,1.205212474E0,-6.781733632E-1
9.714708850E-1,-2.485526085E0,1.211604118E0,-6.771081090E-1
9.739681770E-1,-2.499374628E0,1.262736797E0,-6.483460069E-1
9.764655210E-1,-2.501505136E0,1.323456764E0,-6.025396585E-1
9.789628120E-1,-2.510027170E0,1.333044171E0,-5.599291325E-1
9.814601560E-1,-2.523875713E0,1.300020933E0,-5.247754455E-1
9.839574480E-1,-2.532397747E0,1.252084136E0,-4.874912202E-1
9.864547910E-1,-2.535593510E0,1.217995644E0,-4.523375332E-1
9.889520830E-1,-2.529201984E0,1.183907270E0,-4.182491004E-1
9.914494270E-1,-2.514288187E0,1.141296744E0,-3.841606677E-1
9.939467190E-1,-2.492982864E0,1.089098811E0,-3.500722349E-1
9.964440620E-1,-2.472743034E0,1.031574607E0,-3.223753870E-1
9.989413540E-1,-2.443980932E0,9.761808515E-1,-2.978743017E-1
1.001438698E0,-2.412022829E0,9.250482321E-1,-2.765690386E-1
1.003935989E0,-2.375803947E0,8.920250535E-1,-2.616553605E-1
1.006433333E0,-2.347041845E0,8.930903077E-1,-2.403500825E-1
1.008930677E0,-2.319344997E0,9.165260792E-1,-2.179795504E-1
1.011427969E0,-2.305496693E0,9.452882409E-1,-2.020006031E-1
1.013925312E0,-2.304431438E0,9.676587582E-1,-1.966742724E-1
1.016422604E0,-2.320410252E0,1.001747131E0,-1.966742724E-1
1.018919948E0,-2.340650320E0,1.045423031E0,-2.030658573E-1
1.021417239E0,-2.377934456E0,1.079511404E0,-2.190448195E-1
1.023914583E0,-2.421610355E0,1.106142998E0,-2.382195592E-1
1.026411875E0,-2.472743034E0,1.130644083E0,-2.573943138E-1
1.028909219E0,-2.527071476E0,1.147688270E0,-2.808300853E-1
1.031406510E0,-2.582465172E0,1.176450372E0,-3.042658865E-1
1.033903854E0,-2.632532597E0,1.212669373E0,-3.245058954E-1
1.036401146E0,-2.682599783E0,1.307477832E0,-3.202448487E-1
1.038898489E0,-2.746515751E0,1.407612562E0,-3.021353781E-1
1.041395833E0,-2.816823006E0,1.440635800E0,-3.095922172E-1
1.043893125E0,-2.894587278E0,1.438505173E0,-3.308974802E-1
1.046390469E0,-2.975547314E0,1.448092580E0,-3.596596122E-1
1.048887760E0,-3.051181078E0,1.470463157E0,-3.894869685E-1
1.051385104E0,-3.108705282E0,1.486442089E0,-4.235754013E-1
1.053882396E0,-3.148119926E0,1.475789428E0,-4.597943723E-1
1.056379739E0,-3.172621012E0,1.443831563E0,-4.960133433E-1
1.058877031E0,-3.181143284E0,1.407612562E0,-5.322322845E-1
1.061374375E0,-3.177947521E0,1.373524189E0,-5.641902089E-1
1.063871666E0,-3.163033724E0,1.349023104E0,-5.972133875E-1
1.066369010E0,-3.144924164E0,1.321326256E0,-6.344975829E-1
1.068866302E0,-3.120423079E0,1.286172509E0,-6.653902531E-1
1.071363646E0,-3.091660976E0,1.253149390E0,-6.920218468E-1
1.073860937E0,-3.060768366E0,1.219060898E0,-7.143923640E-1
1.076358281E0,-3.024549484E0,1.174319863E0,-7.346323729E-1
1.078855625E0,-2.987265348E0,1.131709337E0,-7.623292208E-1
1.081352916E0,-2.945719957E0,1.093359828E0,-7.921565771E-1
1.083850260E0,-2.896717787E0,1.061401963E0,-8.145270944E-1
1.086347552E0,-2.851976871E0,1.050749302E0,-8.326365948E-1
1.088844896E0,-2.809366226E0,1.059271455E0,-8.454197645E-1
1.091342187E0,-2.778473616E0,1.084837794E0,-8.507460952E-1
1.093839531E0,-2.763559818E0,1.116795659E0,-8.518113494E-1
1.096336823E0,-2.757168293E0,1.163667202E0,-8.443545103E-1
1.098834166E0,-2.757168293E0,1.208408356E0,-8.368976712E-1
1.101331458E0,-2.764625072E0,1.236105204E0,-8.273102641E-1
1.103828802E0,-2.773147345E0,1.245692492E0,-8.038744926E-1
1.106326094E0,-2.789126158E0,1.247823119E0,-7.740471363E-1
1.108823437E0,-2.811496735E0,1.247823119E0,-7.442197204E-1
1.111320781E0,-2.835997820E0,1.240366220E0,-7.069355249E-1
1.113818073E0,-2.861564159E0,1.227583051E0,-6.717818379E-1
1.116315416E0,-2.889261007E0,1.214799881E0,-6.281059980E-1
1.118812708E0,-2.913762093E0,1.190298796E0,-5.844302177E-1
1.121310052E0,-2.938263178E0,1.147688270E0,-5.386238694E-1
1.123807344E0,-2.959568501E0,1.098686218E0,-4.885564744E-1
1.126304687E0,-2.974482059E0,1.042227149E0,-4.384891093E-1
1.128801979E0,-2.981938839E0,9.878987670E-1,-3.916175067E-1
1.131299323E0,-2.991526365E0,9.314398170E-1,-3.447459042E-1
1.133796614E0,-2.993656874E0,8.621976376E-1,-3.042658865E-1
1.136293958E0,-2.996852636E0,7.982818484E-1,-2.616553605E-1
1.138791250E0,-3.004309416E0,7.290397286E-1,-2.201100737E-1
1.141288594E0,-3.011766195E0,6.619281173E-1,-1.817605942E-1
1.143785885E0,-3.017092705E0,6.012080908E-1,-1.380847842E-1
1.146283229E0,-3.017092705E0,5.458143950E-1,-9.547424316E-2
1.148780573E0,-3.010700941E0,4.904206991E-1,-6.138581038E-2
1.151277864E0,-3.006439924E0,4.328964651E-1,-3.581948578E-2
1.153775208E0,-3.004309416E0,3.796332777E-1,-1.984053291E-2
1.156272500E0,-3.000048399E0,3.295659125E-1,-1.238368824E-2
1.158769844E0,-3.006439924E0,2.826943099E-1,-1.238368824E-2
1.161267135E0,-3.029875755E0,2.368879765E-1,-2.516685054E-2
1.163764479E0,-3.052246332E0,1.932121664E-1,-3.688475117E-2
1.166261771E0,-3.072486401E0,1.463405788E-1,-5.286370218E-2
1.168759114E0,-3.102313757E0,1.047952995E-1,-7.097318023E-2
1.171256406E0,-3.137467384E0,8.029423654E-2,-9.121318907E-2
1.173753750E0,-3.166229486E0,6.218475848E-2,-1.071921438E-1
1.176251041E0,-3.192861080E0,4.833633080E-2,-1.306279451E-1
1.178748385E0,-3.213101149E0,4.620580375E-2,-1.615205854E-1
1.181245729E0,-3.231210470E0,5.153212324E-2,-1.977395415E-1
1.183743021E0,-3.241863251E0,6.644581258E-2,-2.328932434E-1
1.186240364E0,-3.252515793E0,9.094687551E-2,-2.712427378E-1
1.188737656E0,-3.258907557E0,1.410142630E-1,-3.117227256E-1
1.191235000E0,-3.258907557E0,2.006690204E-1,-3.468764424E-1
1.193732291E0,-3.253581047E0,2.667153478E-1,-3.862911761E-1
1.196229635E0,-3.242928505E0,3.327617049E-1,-4.246406853E-1
1.198726927E0,-3.230145216E0,3.828290701E-1,-4.704470038E-1
1.201224271E0,-3.220557928E0,4.083954096E-1,-5.226449370E-1
1.203721562E0,-3.223753691E0,4.009385705E-1,-5.791038871E-1
1.206218906E0,-3.233341217E0,3.593932688E-1,-6.323670745E-1
1.208716198E0,-3.257842064E0,2.837595642E-1,-6.664555073E-1
1.211213541E0,-3.290865421E0,1.708416343E-1,-6.771081090E-1
1.213710885E0,-3.323888540E0,1.105210930E-2,-6.547375917E-1
1.216208177E0,-3.351585388E0,-1.700426936E-1,-6.089312434E-1
1.218705521E0,-3.359042168E0,-3.596596122E-1,-5.514070392E-1
1.221202812E0,-3.348389626E0,-5.418196321E-1,-4.715122581E-1
1.223700156E0,-3.314301252E0,-7.048049569E-1,-3.649859130E-1
1.226197448E0,-3.264233828E0,-8.294408321E-1,-2.339584976E-1
1.228694791E0,-3.193926334E0,-9.285103083E-1,-8.162581921E-2
1.231192083E0,-3.102313757E0,-1.005209327E0,6.431528181E-2
1.233689427E0,-2.993656874E0,-1.091495633E0,1.921469122E-1
1.236186719E0,-2.878608465E0,-1.201217771E0,2.912164032E-1
1.238684062E0,-2.758233547E0,-1.329049349E0,3.753722310E-1
1.241181354E0,-2.639989376E0,-1.457946301E0,4.627238512E-1
1.243678698E0,-2.553703070E0,-1.596430540E0,5.585975647E-1
1.246175989E0,-2.488721848E0,-1.744502187E0,6.672544479E-1
1.248673333E0,-2.416284084E0,-1.903226495E0,7.769765854E-1
1.251170677E0,-2.332128286E0,-2.064081192E0,8.824376464E-1
1.253667969E0,-2.243711233E0,-2.231327534E0,9.804419279E-1
1.256165312E0,-2.169142962E0,-2.401769876E0,1.066728234E0
1.258662604E0,-2.115879774E0,-2.540254116E0,1.142361999E0
1.261159948E0,-2.080725908E0,-2.657433033E0,1.197755694E0
1.263657239E0,-2.060486078E0,-2.741588831E0,1.239300966E0
1.266154583E0,-2.057290077E0,-2.762894154E0,1.262736797E0
1.268651875E0,-2.072203875E0,-2.724544525E0,1.264867306E0
1.271149219E0,-2.113749266E0,-2.631866693E0,1.243561983E0
1.273646510E0,-2.175534487E0,-2.480599165E0,1.199886203E0
1.276143854E0,-2.208557606E0,-2.334658146E0,1.116795659E0
1.278641146E0,-2.204296589E0,-2.232392788E0,9.974861145E-1
1.281138489E0,-2.171273470E0,-2.129062414E0,8.547407985E-1
1.283635833E0,-2.140380621E0,-1.976729631E0,7.194523811E-1
1.286133125E0,-2.135054350E0,-1.774329543E0,6.065344214E-1
1.288630469E0,-2.120140791E0,-1.601756811E0,5.042691231E-1
1.291127760E0,-2.082856417E0,-1.513339996E0,4.062648714E-1
1.293625104E0,-2.033854485E0,-1.467533708E0,2.986732721E-1
1.296122396E0,-1.975264907E0,-1.439836860E0,1.953427047E-1
1.298619739E0,-1.904957533E0,-1.419596791E0,1.026647687E-1
1.301117031E0,-1.830389023E0,-1.427053690E0,1.105210930E-2
1.303614375E0,-1.756885886E0,-1.435575724E0,-7.203844935E-2
1.306111666E0,-1.686578512E0,-1.450489402E0,-1.316931993E-1
1.308609010E0,-1.608814240E0,-1.464337826E0,-1.838911176E-1
1.311106302E0,-1.520397425E0,-1.472859979E0,-2.243711352E-1
1.313603646E0,-1.437306762E0,-1.493100047E0,-2.605900764E-1
1.316100937E0,-1.342498302E0,-1.510144234E0,-2.840258777E-1
1.318598281E0,-1.241298318E0,-1.544232607E0,-3.000048399E-1
1.321095625E0,-1.142228842E0,-1.569798946E0,-3.074616790E-1
1.323592916E0,-1.044224620E0,-1.595365286E0,-3.053311706E-1
1.326090260E0,-9.430245161E-1,-1.620931625E0,-2.989395857E-1
1.328587552E0,-8.450202942E-1,-1.643302202E0,-2.882869542E-1
1.331084896E0,-7.459507585E-1,-1.647563219E0,-2.637858689E-1
1.333582187E0,-6.468812823E-1,-1.617735863E0,-2.201100737E-1
1.336079531E0,-5.520728230E-1,-1.582582116E0,-1.700426936E-1
1.338576979E0,-4.753738344E-1,-1.539971590E0,-1.263668835E-1
1.341074427E0,-4.061317146E-1,-1.484577894E0,-9.121318907E-2
1.343571875E0,-3.454116881E-1,-1.423857808E0,-6.032054871E-2
1.346069323E0,-2.910832465E-1,-1.396160960E0,-3.688475117E-2
1.348566771E0,-2.452769279E-1,-1.369529366E0,-2.197105996E-2
1.351064219E0,-2.111884952E-1,-1.352485180E0,-1.025316119E-2
1.353561666E0,-1.920137554E-1,-1.323723078E0,8.921582252E-3
1.356059114E0,-1.696432233E-1,-1.287504077E0,3.874896094E-2
1.358556562E0,-1.536642611E-1,-1.261937857E0,6.111949310E-2
1.361054010E0,-1.504684687E-1,-1.235306263E0,7.496792078E-2
1.363551458E0,-1.547295302E-1,-1.223588347E0,8.562055230E-2
1.366048906E0,-1.611211151E-1,-1.203348279E0,9.946898371E-2
1.368546354E0,-1.653821617E-1,-1.160737753E0,1.165132001E-1
1.371043802E0,-1.749695390E-1,-1.127714634E0,1.292963624E-1
1.373541302E0,-2.079927027E-1,-1.094691396E0,1.548626870E-1
1.376038750E0,-2.580600977E-1,-1.055276632E0,1.868205965E-1
1.378536198E0,-3.145190477E-1,-1.073386192E0,1.932121664E-1
1.381033646E0,-3.890874982E-1,-1.131975651E0,1.814942658E-1
1.383531094E0,-4.700475335E-1,-1.166064143E0,1.719069034E-1
1.386028541E0,-5.499423146E-1,-1.193760991E0,1.708416343E-1
1.388525989E0,-6.106623411E-1,-1.291765213E0,1.527321637E-1
1.391023437E0,-6.596644521E-1,-1.392965198E0,1.527321637E-1
1.393520885E0,-7.139928937E-1,-1.456881046E0,1.825595349E-1
1.396018333E0,-7.736476064E-1,-1.575125337E0,1.974732280E-1
1.398515781E0,-8.247802854E-1,-1.685912728E0,2.422142923E-1
1.401013229E0,-8.791087270E-1,-1.799895883E0,2.901511490E-1
1.403510677E0,-9.440897703E-1,-1.937314868E0,3.316964209E-1
1.406008125E0,-1.009070873E0,-2.084321260E0,3.689806461E-1
1.408505573E0,-1.077247739E0,-2.249437094E0,4.020038247E-1
1.411003021E0,-1.150750875E0,-2.403900385E0,4.403533041E-1
1.413500469E0,-1.214666724E0,-2.535992861E0,4.914859533E-1
1.415997916E0,-1.262603641E0,-2.648910999E0,5.671196580E-1
1.418495364E0,-1.306279421E0,-2.736262560E0,6.555365324E-1
1.420992812E0,-1.349955201E0,-2.808700323E0,7.482144833E-1
1.423490260E0,-1.389369965E0,-2.855571985E0,8.376966119E-1
1.425987708E0,-1.424523592E0,-2.887529850E0,9.154608250E-1
1.428485156E0,-1.453285813E0,-2.871551037E0,9.942903519E-1
1.430982604E0,-1.479917407E0,-2.807635069E0,1.079511404E0
1.433480052E0,-1.498026848E0,-2.727740526E0,1.170058846E0
1.435977500E0,-1.511875272E0,-2.625475168E0,1.261671543E0
1.438474948E0,-1.527854204E0,-2.488056183E0,1.355414629E0
1.440972396E0,-1.550224781E0,-2.300569773E0,1.445962071E0
1.443469844E0,-1.580052137E0,-2.047037125E0,1.523726344E0
1.445967291E0,-1.617336392E0,-1.721066356E0,1.583381057E0
1.448464739E0,-1.647163749E0,-1.374855757E0,1.622795820E0
1.450962187E0,-1.680186868E0,-1.002013445E0,1.657949567E0
1.453459635E0,-1.708948970E0,-6.270407438E-1,1.696298957E0
1.455957083E0,-1.715340614E0,-2.478069216E-1,1.742105365E0
1.458454531E0,-1.702557445E0,1.388837248E-1,1.812412739E0
1.460951979E0,-1.674860597E0,5.340964794E-1,1.889111757E0
1.463449427E0,-1.630119562E0,9.474187493E-1,1.984985471E0
1.465946875E0,-1.574725747E0,1.352218866E0,2.089381218E0
1.468444323E0,-1.514005780E0,1.757019043E0,2.191646576E0
1.470941771E0,-1.456481576E0,2.141579151E0,2.280063391E0
1.473439219E0,-1.404283643E0,2.490985632E0,2.356762409E0
1.475936666E0,-1.368064642E0,2.795650959E0,2.418547630E0
1.478434114E0,-1.342498302E0,3.056640625E0,2.468615055E0
1.480931562E0,-1.341433048E0,3.256910086E0,2.511225700E0
1.483429010E0,-1.373391032E0,3.392198563E0,2.546379328E0
1.485926458E0,-1.424523592E0,3.449722767E0,2.568749905E0
1.488423906E0,-1.509744763E0,3.442265987E0,2.578337193E0
1.490921354E0,-1.620532155E0,3.383676529E0,2.570880413E0
1.493418802E0,-1.744102716E0,3.268627882E0,2.541053057E0
1.495916250E0,-1.870869040E0,3.125882626E0,2.499507666E0
1.498413698E0,-1.996570110E0,2.982072115E0,2.440918207E0
1.500911146E0,-2.114814520E0,2.825478315E0,2.367414951E0
1.503408594E0,-2.234123945E0,2.658231974E0,2.285389662E0
1.505906041E0,-2.355563879E0,2.486724615E0,2.194842339E0
1.508403489E0,-2.486591339E0,2.301368713E0,2.093642235E0
1.510900937E0,-2.618684053E0,2.122404337E0,1.988181233E0
1.513398385E0,-2.761429310E0,1.951962233E0,1.880589604E0
1.515895885E0,-2.899913549E0,1.783650637E0,1.765541077E0
1.518393333E0,-3.038397789E0,1.601490498E0,1.640905261E0
1.520890781E0,-3.168359995E0,1.410808325E0,1.507747412E0
1.523388229E0,-3.291930676E0,1.211604118E0,1.358610511E0
1.525885677E0,-3.398457050E0,1.028378725E0,1.200951457E0
1.528383125E0,-3.493265390E0,8.419576287E-1,1.025182962E0
1.530880573E0,-3.583812714E0,6.470144391E-1,8.345007896E-1
1.533378021E0,-3.660511732E0,4.605933130E-1,6.395576000E-1
1.535875469E0,-3.721231699E0,2.731069326E-1,4.382227957E-1
1.538372916E0,-3.776625395E0,6.538055092E-2,2.368879765E-1
1.540870364E0,-3.814975023E0,-1.284974068E-1,5.046685785E-2
1.543367812E0,-3.836280346E0,-2.904174626E-1,-1.167795137E-1
1.545865260E0,-3.842671871E0,-4.278364778E-1,-2.563290298E-1
1.548362708E0,-3.826692820E0,-5.205143690E-1,-3.617901206E-1
1.550860156E0,-3.794734955E0,-5.631249547E-1,-4.374238253E-1
1.553357604E0,-3.754255056E0,-5.822996497E-1,-4.853606820E-1
1.555855052E0,-3.705252886E0,-5.918870568E-1,-5.205143690E-1
1.558352500E0,-3.660511732E0,-6.291712523E-1,-5.460807085E-1
1.560849948E0,-3.614705563E0,-6.760428548E-1,-5.673859715E-1
1.563347396E0,-3.560377121E0,-7.069355249E-1,-5.737775564E-1
1.565844844E0,-3.509244442E0,-7.346323729E-1,-5.695165396E-1
1.568342291E0,-3.460242271E0,-7.410239577E-1,-5.535375476E-1
1.570839739E0,-3.406979084E0,-7.165228724E-1,-5.343627930E-1
1.573337187E0,-3.352650642E0,-6.824344397E-1,-5.194491148E-1
1.575834635E0,-3.301517963E0,-6.451502442E-1,-5.024049282E-1
1.578332083E0,-3.245059013E0,-5.961480737E-1,-4.896217585E-1
1.580829531E0,-3.194991589E0,-5.258406997E-1,-4.747080505E-1
1.583326979E0,-3.154511690E0,-5.066659451E-1,-4.704470038E-1
1.585824427E0,-3.115096807E0,-5.087965131E-1,-4.725775421E-1
1.588321875E0,-3.059703112E0,-5.024049282E-1,-4.619249105E-1
1.590819323E0,-2.993656874E0,-5.226449370E-1,-4.523375332E-1
1.593316771E0,-2.922284126E0,-5.631249547E-1,-4.416849017E-1
1.595814219E0,-2.815757751E0,-5.599291325E-1,-4.075964689E-1
1.598311666E0,-2.692187309E0,-6.057354808E-1,-3.980090916E-1
1.600809114E0,-2.549441814E0,-6.749776006E-1,-4.022701383E-1
1.603306562E0,-2.373673439E0,-7.410239577E-1,-3.958785534E-1
1.605804010E0,-2.147837639E0,-7.538071275E-1,-3.639206588E-1
1.608301458E0,-1.900696397E0,-7.857649922E-1,-3.053311706E-1
1.610798906E0,-1.684448004E0,-9.050745368E-1,-2.850911617E-1
1.613296354E0,-1.465003610E0,-1.059537768E0,-3.010700941E-1
1.615793802E0,-1.230645657E0,-1.186304092E0,-3.245058954E-1
1.618291250E0,-9.898961186E-1,-1.323723078E0,-3.468764424E-1
1.620788698E0,-7.512770891E-1,-1.455815792E0,-3.724427521E-1
1.623286146E0,-5.190496445E-1,-1.534645319E0,-4.075964689E-1
1.625783594E0,-2.942790389E-1,-1.561276913E0,-4.438154101E-1
1.628281041E0,-1.004010886E-1,-1.561276913E0,-4.789691269E-1
1.630778489E0,5.725791305E-2,-1.552754760E0,-5.151880980E-1
1.633275937E0,2.117211223E-1,-1.523992658E0,-5.396891236E-1
1.635773385E0,3.576622307E-1,-1.500556827E0,-5.503417850E-1
1.638270833E0,4.929507077E-1,-1.479251504E0,-5.524722934E-1
1.640768281E0,6.143907309E-1,-1.470729470E0,-5.482112169E-1
1.643265729E0,7.337002754E-1,-1.488838911E0,-5.386238694E-1
1.645763177E0,8.434224129E-1,-1.531449437E0,-5.311670303E-1
1.648260625E0,9.467529655E-1,-1.532514691E0,-5.269059539E-1
1.650758073E0,1.050083518E0,-1.483512640E0,-5.173186064E-1
1.653255521E0,1.141696215E0,-1.427053690E0,-5.109270215E-1
1.655752969E0,1.218395114E0,-1.369529366E0,-5.215796828E-1
1.658250416E0,1.267397285E0,-1.346093655E0,-5.428849459E-1
1.660747916E0,1.222656250E0,-1.547428370E0,-6.526070833E-1
1.663245364E0,1.273788810E0,-1.433445215E0,-7.282407880E-1
1.665742812E0,1.373923659E0,-1.112800956E0,-5.822996497E-1
1.668240260E0,1.369662523E0,-1.010535598E0,-5.322322845E-1
1.670737708E0,1.377119422E0,-8.603334427E-1,-5.503417850E-1
1.673235156E0,1.401620507E0,-7.186533809E-1,-5.514070392E-1
1.675732604E0,1.393098354E0,-6.291712523E-1,-5.641902089E-1
1.678230052E0,1.361140490E0,-5.620596409E-1,-5.844302177E-1
1.680727500E0,1.305746794E0,-4.938828051E-1,-5.982786417E-1
1.683224948E0,1.229047775E0,-4.651206732E-1,-6.089312434E-1
1.685722396E0,1.157675147E0,-4.821648896E-1,-6.036049724E-1
1.688219844E0,1.082041383E0,-5.311670303E-1,-5.972133875E-1
1.690717291E0,9.968203306E-1,-5.876259804E-1,-5.908218026E-1
1.693214739E0,9.179908633E-1,-6.419544220E-1,-5.812343955E-1
1.695712187E0,8.508792520E-1,-6.973481178E-1,-5.620596409E-1
1.698209635E0,7.890939713E-1,-7.580681443E-1,-5.311670303E-1
1.700707083E0,7.326349616E-1,-8.305060863E-1,-5.077311993E-1
1.703204531E0,6.846981049E-1,-9.125313759E-1,-4.949480593E-1
1.705701979E0,6.495444179E-1,-1.000948191E0,-4.917522669E-1
1.708199427E0,6.143907309E-1,-1.087234616E0,-4.906870127E-1
1.710696875E0,5.920202136E-1,-1.176716685E0,-4.917522669E-1
1.713194323E0,5.813675523E-1,-1.254480958E0,-5.045354366E-1
1.715691771E0,5.589970350E-1,-1.307744145E0,-5.418196321E-1
1.718189219E0,5.270391107E-1,-1.342897773E0,-5.854954720E-1
1.720686666E0,4.897549152E-1,-1.369529366E0,-6.206491590E-1
1.723184114E0,4.609927833E-1,-1.361007333E0,-6.589986682E-1
1.725681562E0,4.173169732E-1,-1.364203095E0,-7.058702707E-1
1.728179010E0,3.715106547E-1,-1.354615688E0,-7.655249834E-1
1.730676458E0,3.299653828E-1,-1.336506248E0,-8.283755779E-1
1.733173906E0,2.756369412E-1,-1.338636756E0,-8.965524435E-1
1.735671354E0,2.191779763E-1,-1.327984095E0,-9.540766478E-1
1.738168802E0,1.701758504E-1,-1.323723078E0,-1.002013445E0
1.740666250E0,1.169126704E-1,-1.325853586E0,-1.037167192E0
1.743163698E0,6.684528291E-2,-1.309874654E0,-1.068059802E0
1.745661146E0,1.358211040E-2,-1.270459890E0,-1.092560887E0
1.748158594E0,-4.074633121E-2,-1.212935686E0,-1.098952532E0
1.750656041E0,-8.761792630E-2,-1.146889329E0,-1.091495633E0
1.753153489E0,-1.280979365E-1,-1.086169362E0,-1.068059802E0
1.755650937E0,-1.739042699E-1,-1.039297700E0,-1.035036683E0
1.758148385E0,-2.090579718E-1,-9.817734957E-1,-9.881650805E-1
1.760645833E0,-2.431464046E-1,-9.114661217E-1,-9.295755625E-1
1.763143281E0,-2.719085217E-1,-8.603334427E-1,-8.656597733E-1
1.765640729E0,-2.964095771E-1,-8.028092384E-1,-7.942871451E-1
1.768138177E0,-3.070622087E-1,-7.325018048E-1,-7.143923640E-1
1.770635625E0,-3.177148402E-1,-6.536723375E-1,-6.355628371E-1
1.773133073E0,-3.283674717E-1,-5.695165396E-1,-5.546028018E-1
1.775630521E0,-3.315632641E-1,-4.832301736E-1,-4.747080505E-1
1.778127969E0,-3.294327557E-1,-4.075964689E-1,-4.022701383E-1
1.780625416E0,-3.251716793E-1,-3.404848576E-1,-3.383543193E-1
1.783122864E0,-3.251716793E-1,-2.573943138E-1,-2.850911617E-1
1.785620312E0,-3.219758868E-1,-1.934784949E-1,-2.435458750E-1
1.788117760E0,-3.028011620E-1,-1.519332081E-1,-2.179795504E-1
1.790615208E0,-2.761695683E-1,-1.210405678E-1,-1.977395415E-1
1.793112656E0,-2.516685128E-1,-8.801739663E-2,-1.817605942E-1
1.795610104E0,-2.314285040E-1,-5.925528333E-2,-1.774995327E-1
1.798107552E0,-2.111884952E-1,-3.688475117E-2,-1.913479567E-1
1.800605000E0,-1.984053254E-1,-6.657897029E-4,-2.094574422E-1
1.803102500E0,-1.866874397E-1,1.637842692E-2,-2.360890359E-1
1.805599948E0,-1.834916472E-1,-3.795001283E-2,-2.808300853E-1
1.808097396E0,-1.941442788E-1,-1.125184596E-1,-3.308974802E-1
1.810594844E0,-2.111884952E-1,-2.115879655E-1,-3.905522525E-1
1.813092291E0,-2.303632349E-1,-3.042658865E-1,-4.565985799E-1
1.815589739E0,-2.484727204E-1,-4.107922614E-1,-5.205143690E-1
1.818087187E0,-2.729737759E-1,-5.322322845E-1,-5.876259804E-1
1.820584635E0,-2.942790389E-1,-6.430196762E-1,-6.472807527E-1
1.823082083E0,-3.113232553E-1,-7.399587035E-1,-6.898912787E-1
1.825579531E0,-3.379548490E-1,-8.539418578E-1,-7.229144573E-1
1.828076979E0,-3.805654049E-1,-1.020123005E0,-7.687208056E-1
1.830574427E0,-6.117275953E-1,-1.665672660E0,-1.102148294E0
1.833071875E0,-6.681865454E-1,-1.603887439E0,-1.417466283E0
1.835569323E0,-7.608644962E-1,-1.313070416E0,-1.332245231E0
1.838066719E0,-9.291760921E-1,-1.178847194E0,-1.178847194E0
1.840564114E0,-1.022919297E0,-1.128779888E0,-1.064864039E0
1.843061510E0,-9.632645249E-1,-1.203348279E0,-1.003078818E0
1.845558906E0,-8.450202942E-1,-1.340767264E0,-9.146618843E-1
1.848056354E0,-7.566034198E-1,-1.501622081E0,-8.123965859E-1
1.850553750E0,-7.118623257E-1,-1.570864201E0,-7.282407880E-1
1.853051146E0,-6.692517996E-1,-1.575125337E0,-6.664555073E-1
1.855548541E0,-6.436854601E-1,-1.487773657E0,-6.153228283E-1
1.858045937E0,-6.447507739E-1,-1.264068365E0,-5.460807085E-1
1.860543385E0,-6.713823080E-1,-9.285103083E-1,-4.608596265E-1
1.863040781E0,-7.022749782E-1,-5.535375476E-1,-3.735080361E-1
1.865538177E0,-7.342329025E-1,-1.998700649E-1,-2.765690386E-1
1.868035573E0,-7.331676483E-1,9.201213717E-2,-1.860216409E-1
1.870532969E0,-6.649907827E-1,2.571279705E-1,-1.210405678E-1
1.873030416E0,-5.488770604E-1,4.350270033E-1,-1.157142520E-1
1.875527812E0,-4.636559486E-1,6.459491849E-1,-1.199753061E-1
1.878025208E0,-4.380896389E-1,8.483492136E-1,-1.114531979E-1
1.880522604E0,-4.316980541E-1,1.027313471E0,-1.146489903E-1
1.883020000E0,-4.221106768E-1,1.129578829E0,-1.231710985E-1
1.885517448E0,-4.125232995E-1,1.182842016E0,-1.274321526E-1
1.888014844E0,-4.082622528E-1,1.192429304E0,-1.274321526E-1
1.890512239E0,-4.210454226E-1,1.155145168E0,-1.221058294E-1
1.893009635E0,-4.402201474E-1,1.068858743E0,-1.125184596E-1
1.895507031E0,-4.583296180E-1,9.570060968E-1,-1.008005589E-1
1.898004479E0,-4.700475335E-1,8.238481879E-1,-9.867003560E-2
1.900501875E0,-4.828307033E-1,6.800376177E-1,-9.653950483E-2
1.902999271E0,-4.934833348E-1,5.649891496E-1,-9.653950483E-2
1.905496666E0,-5.062664747E-1,4.925512075E-1,-9.867003560E-2
1.907994062E0,-5.265064836E-1,4.829638600E-1,-1.008005589E-1
1.910491510E0,-5.520728230E-1,5.181175470E-1,-1.018658280E-1
1.912988906E0,-5.744433403E-1,5.884249210E-1,-8.375634253E-2
1.915486302E0,-6.010749340E-1,6.608628631E-1,-8.801739663E-2
1.917983698E0,-6.607297063E-1,6.832333803E-1,-1.093226671E-1
1.920481094E0,-7.267760634E-1,6.672544479E-1,-1.231710985E-1
1.922978541E0,-7.768434286E-1,6.203828454E-1,-1.508679539E-1
1.925475937E0,-8.205192089E-1,5.692501664E-1,-1.913479567E-1
1.927973333E0,-8.546076417E-1,5.394228101E-1,-2.382195592E-1
1.930470729E0,-8.812392354E-1,5.287702084E-1,-2.797648311E-1
1.932968125E0,-8.908266425E-1,5.596628189E-1,-3.074616790E-1
1.935465573E0,-9.078708291E-1,6.182523370E-1,-3.330280185E-1
1.937962969E0,-9.313066602E-1,6.693849564E-1,-3.607248664E-1
1.940460364E0,-9.472855926E-1,6.960165501E-1,-3.777690828E-1
1.942957760E0,-9.611340165E-1,7.183870673E-1,-4.107922614E-1
1.945455156E0,-9.568729401E-1,7.503449917E-1,-4.597943723E-1
1.947952604E0,-9.483508468E-1,7.918902636E-1,-5.130575299E-1
1.950450000E0,-9.419592619E-1,8.472839594E-1,-5.652554631E-1
1.952947396E0,-9.302413464E-1,9.143955708E-1,-6.068007350E-1
1.955444791E0,-9.142624140E-1,9.900292754E-1,-6.344975829E-1
1.957942187E0,-8.993487358E-1,1.065662980E0,-6.600639224E-1
1.960439583E0,-9.068055749E-1,1.098686218E0,-6.781733632E-1
1.962937031E0,-9.249150753E-1,1.107208252E0,-6.792386770E-1
1.965434427E0,-9.355676770E-1,1.109338760E0,-6.877607703E-1
1.967931823E0,-9.302413464E-1,1.113599896E0,-7.165228724E-1
1.970429219E0,-9.291760921E-1,1.133839846E0,-7.484807968E-1
1.972926614E0,-9.366329312E-1,1.157275677E0,-7.580681443E-1
1.975424062E0,-9.558076859E-1,1.182842016E0,-7.623292208E-1
1.977921458E0,-9.877656102E-1,1.200951457E0,-7.591333985E-1
1.980418854E0,-1.025049806E0,1.197755694E0,-7.527418137E-1
1.982916250E0,-1.066595078E0,1.167928338E0,-7.431544662E-1
1.985413646E0,-1.114531994E0,1.114665151E0,-7.271755338E-1
1.987911094E0,-1.156077266E0,1.050749302E0,-7.207839489E-1
1.990408489E0,-1.185904622E0,9.974861145E-1,-7.154576182E-1
1.992905885E0,-1.206144571E0,9.452882409E-1,-7.122617960E-1
1.995403281E0,-1.207209945E0,9.101344943E-1,-7.122617960E-1
1.997900677E0,-1.195492029E0,8.962860703E-1,-7.314365506E-1
2.000398125E0,-1.184839368E0,8.930903077E-1,-7.570028901E-1
2.002895521E0,-1.174186707E0,8.962860703E-1,-7.932218313E-1
2.005392916E0,-1.156077266E0,9.239829779E-1,-8.337018490E-1
2.007890312E0,-1.133706689E0,9.665935040E-1,-8.763124347E-1
2.010387708E0,-1.109205604E0,1.040096641E0,-9.306408763E-1
2.012885156E0,-1.076182485E0,1.128513575E0,-9.870998263E-1
2.015382552E0,-1.023984551E0,1.229713559E0,-1.036101937E0
2.017879948E0,-9.558076859E-1,1.344762087E0,-1.100017786E0
2.020377344E0,-8.972182274E-1,1.440635800E0,-1.155411482E0
2.022874739E0,-8.535423875E-1,1.490703106E0,-1.188434601E0
2.025372187E0,-8.024097681E-1,1.520530581E0,-1.220392585E0
2.027869583E0,-7.480813265E-1,1.540770531E0,-1.256611466E0
2.030366979E0,-6.948181391E-1,1.561010480E0,-1.293895721E0
2.032864375E0,-6.372938752E-1,1.557814717E0,-1.335440993E0
2.035361771E0,-5.787044168E-1,1.540770531E0,-1.379116774E0
2.037859219E0,-5.094622970E-1,1.534379005E0,-1.419596791E0
2.040356614E0,-4.466117322E-1,1.523726344E0,-1.462207317E0
2.042854010E0,-3.954790831E-1,1.497094750E0,-1.503752589E0
2.045351406E0,-3.603253961E-1,1.449157834E0,-1.546363115E0
2.047848802E0,-3.390201032E-1,1.374589443E0,-1.583647370E0
2.050346250E0,-3.273022175E-1,1.272324085E0,-1.599626303E0
2.052843646E0,-3.283674717E-1,1.161536694E0,-1.610278964E0
2.055341041E0,-3.273022175E-1,1.060336709E0,-1.627323151E0
2.057838437E0,-3.336938024E-1,9.665935040E-1,-1.631584287E0
2.060335833E0,-3.549990654E-1,8.664587140E-1,-1.630519032E0
2.062833281E0,-3.741738200E-1,7.854986787E-1,-1.628388405E0
2.065330677E0,-4.061317146E-1,7.333008051E-1,-1.628388405E0
2.067828073E0,-4.455464780E-1,6.842986345E-1,-1.625192642E0
2.070325469E0,-4.796349108E-1,6.459491849E-1,-1.624127388E0
2.072822864E0,-5.052012205E-1,6.267744303E-1,-1.615605235E0
2.075320312E0,-5.339633226E-1,6.289049387E-1,-1.597495794E0
2.077817708E0,-5.510075688E-1,6.267744303E-1,-1.580451608E0
2.080315104E0,-5.563338995E-1,6.033385992E-1,-1.557015777E0
2.082812500E0,-5.595296621E-1,5.884249210E-1,-1.522927403E0
2.085309896E0,-5.637907386E-1,6.001428366E-1,-1.485643148E0
2.087807344E0,-5.563338995E-1,6.097301841E-1,-1.445163131E0
2.090304739E0,-5.297023058E-1,6.139912605E-1,-1.414270520E0
2.092802135E0,-4.796349108E-1,6.395576000E-1,-1.413205266E0
2.095299531E0,-4.327633083E-1,6.523407698E-1,-1.423857808E0
2.097796927E0,-3.837611973E-1,6.640586257E-1,-1.449424148E0
2.100294375E0,-3.230411708E-1,6.789723635E-1,-1.495230556E0
2.102791771E0,-2.495379746E-1,6.906902194E-1,-1.546363115E0
2.105289166E0,-1.600558460E-1,6.896249652E-1,-1.606017947E0
2.107786562E0,-7.376950234E-2,6.928207874E-1,-1.667803168E0
2.110283958E0,6.125265267E-3,7.013428807E-1,-1.740241170E0
2.112781406E0,8.069371432E-2,7.311702371E-1,-1.815874815E0
2.115278802E0,1.360874176E-1,7.663239241E-1,-1.888312697E0
2.117776198E0,1.765674353E-1,8.025429249E-1,-1.961815953E0
2.120273594E0,2.053295374E-1,8.345007896E-1,-2.025731802E0
2.122770989E0,2.106558681E-1,8.621976376E-1,-2.078994989E0
2.125268437E0,1.925463825E-1,8.792418838E-1,-2.127997160E0
2.127765833E0,1.680453271E-1,8.920250535E-1,-2.164216042E0
2.130263229E0,1.296958327E-1,8.792418838E-1,-2.184456110E0
2.132760625E0,8.495476842E-2,8.462187052E-1,-2.200434923E0
2.135258021E0,2.636527270E-2,7.652586699E-1,-2.204695940E0
2.137755469E0,-3.861580417E-2,6.427533627E-1,-2.201500177E0
2.140252864E0,-9.720529616E-2,5.703154802E-1,-2.202565432E0
2.142750260E0,-1.621863693E-1,4.978775382E-1,-2.195108652E0
2.145247656E0,-2.197106034E-1,4.328964651E-1,-2.180194855E0
2.147745052E0,-2.719085217E-1,4.030690789E-1,-2.159955025E0
2.150242500E0,-3.187801242E-1,3.956122398E-1,-2.125866413E0
2.152739896E0,-3.518032730E-1,4.073301256E-1,-2.075799227E0
2.155237291E0,-3.613906503E-1,4.307659268E-1,-2.020405531E0
2.157734687E0,-3.358243406E-1,4.424838424E-1,-1.955424309E0
2.160232083E0,-2.804306149E-1,4.115912020E-1,-1.889378071E0
2.162729531E0,-2.165148109E-1,3.764374852E-1,-1.825462222E0
2.165226927E0,-1.334242523E-1,3.189132810E-1,-1.759415865E0
2.167724323E0,-3.542001173E-2,2.358227074E-1,-1.693369508E0
2.170221719E0,3.914843500E-2,1.814942658E-1,-1.641171575E0
2.172719114E0,9.560739994E-2,1.633847952E-1,-1.593234777E0
2.175216562E0,1.478053182E-1,1.591237336E-1,-1.543167353E0
2.177713958E0,1.936116517E-1,1.676458418E-1,-1.496295810E0
2.180211354E0,2.340916544E-1,1.889511198E-1,-1.466468453E0
2.182708750E0,2.724411488E-1,2.123869210E-1,-1.448358893E0
2.185206146E0,3.086601198E-1,2.315616608E-1,-1.443032622E0
2.187703541E0,3.406180143E-1,2.667153478E-1,-1.446228385E0
2.190200989E0,3.757717013E-1,2.901511490E-1,-1.448358893E0
2.192698385E0,3.992075026E-1,3.050648272E-1,-1.447293639E0
2.195195781E0,4.119906723E-1,3.071953654E-1,-1.439836860E0
2.197693177E0,4.173169732E-1,3.466101289E-1,-1.439836860E0
2.200190573E0,4.034685493E-1,4.083954096E-1,-1.447293639E0
2.202688021E0,3.960117102E-1,3.881554008E-1,-1.437706232E0
2.205185416E0,3.970769644E-1,4.478101432E-1,-1.435575724E0
2.207682812E0,3.842938244E-1,5.372923017E-1,-1.410009384E0
2.210180208E0,3.416832685E-1,6.374270320E-1,-1.361007333E0
2.212677604E0,2.990727425E-1,7.215828896E-1,-1.316266298E0
2.215175052E0,2.628537714E-1,8.739155531E-1,-1.287504077E0
2.217672448E0,2.372874469E-1,9.303745031E-1,-1.245958805E0
2.220169844E0,2.394179702E-1,9.314398170E-1,-1.190565109E0
2.222667239E0,2.404832393E-1,9.346355796E-1,-1.142628312E0
2.225164635E0,2.213084996E-1,8.866987228E-1,-1.085104108E0
2.227662083E0,1.893505901E-1,9.016124010E-1,-1.022253513E0
2.230159479E0,1.989379674E-1,9.793766737E-1,-9.551419020E-1
2.232656875E0,2.362221926E-1,9.527450800E-1,-8.763124347E-1
2.235154271E0,2.617885172E-1,9.261134863E-1,-8.134618402E-1
2.237651666E0,2.639190257E-1,8.994818926E-1,-7.804386616E-1
2.240149062E0,2.458095551E-1,8.185218573E-1,-7.665902376E-1
2.242646510E0,2.543316782E-1,7.535408139E-1,-7.804386616E-1
2.245143906E0,2.756369412E-1,7.226481438E-1,-8.198534250E-1
2.247641354E0,2.830937803E-1,7.695197463E-1,-8.592681885E-1
2.250138802E0,3.235737979E-1,8.078691959E-1,-8.709861040E-1
2.252636198E0,3.896201253E-1,8.323702812E-1,-8.677902818E-1
2.255133646E0,4.311653972E-1,8.419576287E-1,-8.464850187E-1
2.257631094E0,4.950812161E-1,9.048082232E-1,-8.262450099E-1
2.260128489E0,5.749759674E-1,9.804419279E-1,-8.060050011E-1
2.262625937E0,6.261086464E-1,1.033705115E0,-7.761776447E-1
2.265123385E0,6.580665708E-1,1.049684048E0,-7.655249834E-1
2.267620833E0,6.772412658E-1,9.697892666E-1,-7.804386616E-1
2.270118229E0,6.793718338E-1,9.069387317E-1,-8.273102641E-1
2.272615677E0,6.804370880E-1,8.771113753E-1,-8.731166124E-1
2.275113125E0,6.740455031E-1,8.526102901E-1,-9.040092826E-1
2.277610521E0,6.452834010E-1,8.472839594E-1,-9.061397910E-1
2.280107969E0,5.984117985E-1,8.366313577E-1,-8.869650364E-1
2.282605416E0,5.568665266E-1,8.430229425E-1,-8.709861040E-1
2.285102812E0,5.153212547E-1,8.323702812E-1,-8.571376801E-1
2.287600260E0,4.705801606E-1,7.897597551E-1,-8.518113494E-1
2.290097708E0,4.173169732E-1,7.247786522E-1,-8.432892561E-1
2.292595104E0,3.544664383E-1,6.363617778E-1,-8.262450099E-1
2.295092552E0,2.926811576E-1,5.628586411E-1,-7.974829078E-1
2.297590000E0,2.436790317E-1,5.170522928E-1,-7.644597292E-1
2.300087396E0,1.968074292E-1,4.925512075E-1,-7.378281355E-1
2.302584844E0,1.755021662E-1,4.861596525E-1,-7.154576182E-1
2.305082291E0,1.605884731E-1,5.127912164E-1,-7.069355249E-1
2.307579739E0,1.435442567E-1,5.671196580E-1,-7.143923640E-1
2.310077135E0,1.328916252E-1,6.139912605E-1,-7.218492031E-1
2.312574583E0,1.392832100E-1,6.523407698E-1,-7.207839489E-1
2.315072031E0,1.584579498E-1,6.651239395E-1,-7.133271098E-1
2.317569427E0,1.573926806E-1,6.874944568E-1,-7.271755338E-1
2.320066875E0,1.371526718E-1,7.311702371E-1,-7.420892119E-1
2.322564323E0,1.424790025E-1,7.269092202E-1,-7.410239577E-1
2.325061719E0,1.786979586E-1,6.832333803E-1,-7.239797115E-1
2.327559166E0,2.042642832E-1,6.747112870E-1,-7.293060422E-1
2.330056614E0,2.234390229E-1,6.864292026E-1,-7.356976271E-1
2.332554010E0,2.213084996E-1,7.279744744E-1,-7.399587035E-1
2.335051458E0,2.468748242E-1,7.279744744E-1,-7.293060422E-1
2.337548906E0,3.012032509E-1,6.853639483E-1,-7.069355249E-1
2.340046302E0,3.257043362E-1,6.842986345E-1,-7.122617960E-1
2.342543750E0,3.214432597E-1,7.002776265E-1,-7.197186947E-1
2.345041198E0,3.033337891E-1,6.960165501E-1,-7.111965418E-1
2.347538646E0,2.862895727E-1,6.842986345E-1,-7.016091943E-1
2.350036041E0,2.585927248E-1,7.077344656E-1,-7.101312876E-1
2.352533489E0,2.085253298E-1,7.482144833E-1,-7.154576182E-1
2.355030937E0,1.904158592E-1,7.077344656E-1,-6.792386770E-1
2.357528333E0,1.797632128E-1,6.448839307E-1,-6.206491590E-1
2.360025781E0,1.382179409E-1,6.022733450E-1,-5.791038871E-1
2.362523229E0,7.643266022E-2,5.596628189E-1,-5.418196321E-1
2.365020625E0,1.784316450E-2,5.202480555E-1,-5.013396740E-1
2.367518073E0,-2.583264001E-2,4.925512075E-1,-4.597943723E-1
2.370015521E0,-5.033370107E-2,4.605933130E-1,-4.267711937E-1
2.372512916E0,-5.992107466E-2,4.169175029E-1,-4.012048841E-1
2.375010364E0,-7.590002567E-2,3.849596083E-1,-3.788343370E-1
2.377507812E0,-1.004010886E-1,3.775027692E-1,-3.596596122E-1
2.380005208E0,-1.089231968E-1,3.636543453E-1,-3.340932727E-1
2.382502656E0,-1.099884585E-1,3.743069768E-1,-3.085269630E-1
2.385000104E0,-1.291632056E-1,3.934817016E-1,-2.893522084E-1
2.387497500E0,-1.611211151E-1,4.382227957E-1,-2.882869542E-1
2.389994948E0,-1.728390008E-1,4.755069911E-1,-2.797648311E-1
2.392492396E0,-1.280979365E-1,4.275701344E-1,-2.424806058E-1
2.394989844E0,-1.046621427E-1,3.679153919E-1,-2.105227113E-1
2.397487239E0,-1.035968810E-1,3.050648272E-1,-1.913479567E-1
2.399984687E0,-1.004010886E-1,2.507364154E-1,-1.561942697E-1
2.402482135E0,-8.335687220E-2,1.878858507E-1,-1.210405678E-1
2.404979531E0,-9.507477283E-2,1.569932103E-1,-1.167795137E-1
2.407476979E0,-1.217063591E-1,1.548626870E-1,-1.306279451E-1
2.409974427E0,-1.099884585E-1,1.410142630E-1,-1.306279451E-1
2.412471823E0,-6.418212503E-2,8.988160640E-2,-1.253016293E-1
2.414969271E0,-5.992107466E-2,9.307739884E-2,-1.338237375E-1
2.417466719E0,-1.291632056E-1,1.751026958E-1,-1.721732169E-1
2.419964114E0,-1.259674132E-1,1.452753097E-1,-1.679121703E-1
2.422461562E0,-9.827055782E-2,1.047952995E-1,-1.529984772E-1
2.424959010E0,-8.655266464E-2,7.177212834E-2,-1.466068923E-1
2.427456406E0,-6.524739414E-2,2.809632570E-2,-1.157142520E-1
2.429953854E0,-5.779054761E-2,-2.303632349E-2,-9.121318907E-2
2.432451302E0,-6.205160171E-2,-4.114580527E-2,-6.990791857E-2
2.434948750E0,-5.459475517E-2,-6.032054871E-2,-4.327633232E-2
2.437446146E0,-5.566002056E-2,-5.286370218E-2,-3.901527822E-2
2.439943594E0,-5.672528222E-2,-3.155843168E-2,-4.966791347E-2
2.442441041E0,-5.459475517E-2,-1.557947882E-2,-4.114580527E-2
2.444938437E0,-5.672528222E-2,-1.731053228E-3,-3.581948578E-2
2.447435885E0,-6.950844824E-2,2.277000807E-2,-5.392896757E-2
2.449933333E0,-8.442213386E-2,8.029423654E-2,-7.949528843E-2
2.452430729E0,-1.355547905E-1,1.420795172E-1,-1.167795137E-1
2.454928177E0,-1.504684687E-1,1.580584794E-1,-1.306279451E-1
2.457425625E0,-1.291632056E-1,1.506016254E-1,-1.082574055E-1
2.459923021E0,-1.099884585E-1,9.520792961E-2,-9.760477394E-2
2.462420469E0,-1.291632056E-1,4.301001504E-2,-9.227845073E-2
2.464917916E0,-1.451421529E-1,-3.049316816E-2,-8.695213497E-2
2.467415312E0,-1.600558460E-1,-1.093226671E-1,-1.189100444E-1
2.469912760E0,-1.643168926E-1,-1.625858396E-1,-1.284974068E-1
2.472410208E0,-1.462074220E-1,-2.233058661E-1,-1.167795137E-1
2.474907656E0,-1.334242523E-1,-2.691121995E-1,-1.370195150E-1
2.477405052E0,-1.344895214E-1,-2.861564159E-1,-1.221058294E-1
2.479902500E0,-1.238368824E-1,-3.191795945E-1,-1.093226671E-1
2.482399948E0,-1.142495126E-1,-3.447459042E-1,-1.359542608E-1
2.484897344E0,-1.025316119E-1,-3.681817055E-1,-1.316931993E-1
2.487394791E0,-9.081371874E-2,-4.054659307E-1,-1.604553163E-1
2.489892239E0,-7.696528733E-2,-4.150533080E-1,-1.668469012E-1
2.492389635E0,-7.696528733E-2,-3.937480450E-1,-1.668469012E-1
2.494887083E0,-1.014663503E-1,-3.074616790E-1,-1.902827024E-1
2.497384531E0,-1.408811063E-1,-2.222405970E-1,-2.275669277E-1
2.499881927E0,-1.419463605E-1,-1.988048106E-1,-2.382195592E-1
2.502379375E0,-1.270326823E-1,-1.988048106E-1,-2.414153516E-1
2.504876823E0,-1.099884585E-1,-1.924132258E-1,-2.488721907E-1
2.507374219E0,-9.294424206E-2,-1.860216409E-1,-2.648511529E-1
2.509871666E0,-7.483476400E-2,-1.913479567E-1,-2.861564159E-1
2.512369114E0,-6.205160171E-2,-1.913479567E-1,-3.053311706E-1
2.514866562E0,-5.352949351E-2,-1.796300560E-1,-3.085269630E-1
2.517363958E0,-4.926843941E-2,-1.551290005E-1,-3.095922172E-1
2.519861406E0,-5.672528222E-2,-1.135837212E-1,-2.925480008E-1
2.522358854E0,-7.057370991E-2,-4.327633232E-2,-2.691121995E-1
2.524856250E0,-8.761792630E-2,3.555316851E-2,-2.605900764E-1
2.527353698E0,-1.057274044E-1,1.090563536E-1,-2.691121995E-1
2.529851146E0,-1.142495126E-1,1.836248040E-1,-2.648511529E-1
2.532348541E0,-1.217063591E-1,1.974732280E-1,-2.456763983E-1
2.534845989E0,-1.280979365E-1,1.303616166E-1,-2.169142812E-1
2.537343437E0,-1.291632056E-1,3.235737979E-2,-1.838911176E-1
2.539840833E0,-1.227716208E-1,-6.138581038E-2,-1.540637314E-1
2.542338281E0,-9.933582693E-2,-1.146489903E-1,-1.338237375E-1
2.544835729E0,-7.270423323E-2,-1.348889917E-1,-1.199753061E-1
2.547333125E0,-5.672528222E-2,-1.444763690E-1,-1.135837212E-1
2.549830573E0,-5.352949351E-2,-1.604553163E-1,-1.082574055E-1
2.552328021E0,-5.992107466E-2,-1.657816321E-1,-9.653950483E-2
2.554825469E0,-7.803055644E-2,-1.519332081E-1,-8.482161164E-2
2.557322864E0,-9.720529616E-2,-1.348889917E-1,-8.375634253E-2
2.559820312E0,-1.078579351E-1,-1.231710985E-1,-8.801739663E-2
2.562317760E0,-1.163800433E-1,-1.178447753E-1,-9.334371984E-2
2.564815156E0,-1.217063591E-1,-1.263668835E-1,-1.071921438E-1
2.567312604E0,-1.249021515E-1,-1.380847842E-1,-1.178447753E-1
2.569810052E0,-1.312937289E-1,-1.412805766E-1,-1.316931993E-1
2.572307448E0,-1.398158371E-1,-1.434110999E-1,-1.434110999E-1
2.574804896E0,-1.547295302E-1,-1.391500533E-1,-1.657816321E-1
2.577302344E0,-1.760347933E-1,-1.050616130E-1,-2.009353340E-1
2.579799739E0,-2.122537643E-1,-3.901527822E-2,-2.541985214E-1
2.582297187E0,-2.559295595E-1,3.981422260E-2,-3.106574714E-1
2.584794635E0,-2.921485305E-1,1.015995070E-1,-3.500722349E-1
2.587292031E0,-3.049316704E-1,1.314268857E-1,-3.660511672E-1
2.589789479E0,-3.006706238E-1,1.804290116E-1,-3.905522525E-1
2.592286927E0,-2.974748313E-1,2.049300671E-1,-4.139880240E-1
2.594784375E0,-2.729737759E-1,1.782984883E-1,-4.139880240E-1
2.597281771E0,-2.388853431E-1,1.580584794E-1,-4.320975244E-1
2.599779219E0,-2.218411267E-1,1.516668946E-1,-4.544680417E-1
2.602276666E0,-1.888179630E-1,1.548626870E-1,-4.587291181E-1
2.604774062E0,-1.259674132E-1,2.081258595E-1,-4.896217585E-1
2.607271510E0,-9.827055782E-2,2.102563828E-1,-5.215796828E-1
2.609768958E0,-1.078579351E-1,1.623195261E-1,-5.056006908E-1
2.612266354E0,-1.110537201E-1,1.111868769E-1,-4.534027874E-1
2.614763802E0,-1.089231968E-1,7.709844410E-2,-4.065311849E-1
2.617261250E0,-1.035968810E-1,4.301001504E-2,-3.585943282E-1
2.619758646E0,-9.400950372E-2,1.318263635E-2,-3.042658865E-1
2.622256094E0,-7.590002567E-2,-1.664474234E-2,-2.478069216E-1
2.624753541E0,-4.820317402E-2,-3.901527822E-2,-1.945437491E-1
2.627250937E0,-2.157158591E-2,-5.073317513E-2,-1.455416232E-1
2.629748385E0,7.989476435E-4,-4.753738642E-2,-9.760477394E-2
2.632245833E0,1.358211040E-2,-4.008053988E-2,-6.245107576E-2
2.634743281E0,9.321056306E-3,-2.836264111E-2,-3.368895873E-2
2.637240677E0,-5.592633504E-3,-5.992107093E-3,-9.187897667E-3
2.639738125E0,-2.476737648E-2,2.063948102E-2,1.424789988E-2
2.642235573E0,-5.139896646E-2,4.727106914E-2,3.555316851E-2
2.644732969E0,-7.163897157E-2,8.562055230E-2,5.259738490E-2
2.647230416E0,-1.025316119E-1,1.282310933E-1,7.283739001E-2
2.649727864E0,-1.249021515E-1,1.708416343E-1,9.094687551E-2
2.652225260E0,-1.494032145E-1,2.091911286E-1,1.058605611E-1
2.654722708E0,-1.568600535E-1,2.230395526E-1,1.143826693E-1
2.657220156E0,-1.589905769E-1,2.262353450E-1,1.154479310E-1
2.659717552E0,-1.579253227E-1,2.411490232E-1,1.111868769E-1
2.662215000E0,-1.430116296E-1,2.826943099E-1,9.201213717E-2
2.664712448E0,-1.408811063E-1,3.071953654E-1,6.751107424E-2
2.667209844E0,-1.653821617E-1,3.114564121E-1,6.218475848E-2
2.669707291E0,-1.930790097E-1,3.050648272E-1,6.964160502E-2
2.672204739E0,-2.005358636E-1,2.933469415E-1,7.496792078E-2
2.674702187E0,-2.026663870E-1,2.944121957E-1,7.496792078E-2
2.677199583E0,-2.005358636E-1,3.050648272E-1,6.751107424E-2
2.679697031E0,-1.898832172E-1,3.199785352E-1,4.514054209E-2
2.682194479E0,-1.877526939E-1,3.157174885E-1,2.383527160E-2
2.684691875E0,-1.898832172E-1,3.199785352E-1,1.105210930E-2
2.687189323E0,-1.930790097E-1,3.242395818E-1,4.660528153E-3
2.689686771E0,-1.856221706E-1,3.189132810E-1,3.595264396E-3
2.692184166E0,-1.664474308E-1,3.178479970E-1,1.464737346E-3
2.694681614E0,-1.430116296E-1,2.986732721E-1,3.994738217E-4
2.697179062E0,-1.195758283E-1,2.901511490E-1,-2.796316752E-3
2.699676458E0,-9.187898040E-2,2.954774797E-1,2.530000871E-3
2.702173906E0,-6.311686337E-2,2.858901024E-1,5.725791678E-3
2.704671354E0,-3.968106583E-2,2.784332633E-1,1.464737346E-3
2.707168750E0,-1.837579533E-2,2.731069326E-1,3.994738217E-4
2.709666198E0,3.994738217E-3,2.816290557E-1,-5.992107093E-3
2.712163646E0,2.636527270E-2,3.050648272E-1,-1.557947882E-2
2.714661094E0,4.127896205E-2,3.316964209E-1,-2.303632349E-2
2.717158489E0,6.151896715E-2,3.679153919E-1,-3.901527822E-2
2.719655937E0,7.323686779E-2,4.179827869E-1,-6.458160281E-2
2.722153385E0,7.962844521E-2,4.563322663E-1,-8.375634253E-2
2.724650781E0,7.962844521E-2,4.989427924E-1,-9.334371984E-2
2.727148229E0,7.217160612E-2,5.458143950E-1,-1.029310897E-1
2.729645677E0,5.619265139E-2,5.916207433E-1,-1.125184596E-1
2.732143073E0,2.956106327E-2,6.278396845E-1,-1.125184596E-1
2.734640521E0,-1.331579406E-3,6.704502106E-1,-1.210405678E-1
2.737137969E0,-4.607264698E-2,7.514102459E-1,-1.444763690E-1
2.739635364E0,-1.078579351E-1,8.888292313E-1,-2.041311264E-1
2.742132812E0,-1.643168926E-1,1.010269284E0,-2.648511529E-1
2.744630260E0,-2.079927027E-1,1.104012489E0,-3.053311706E-1
2.747127656E0,-2.474074513E-1,1.192429304E0,-3.340932727E-1
2.749625104E0,-2.846916914E-1,1.261671543E0,-3.692469597E-1
2.752122552E0,-3.070622087E-1,1.308543086E0,-3.990743458E-1
2.754620000E0,-3.262369633E-1,1.342631459E0,-4.246406853E-1
2.757117396E0,-3.411506414E-1,1.352218866E0,-4.597943723E-1
2.759614844E0,-3.379548490E-1,1.315999985E0,-4.821648896E-1
2.762112291E0,-3.198453784E-1,1.268063068E0,-4.949480593E-1
2.764609687E0,-2.825611532E-1,1.262736797E0,-5.066659451E-1
2.767107135E0,-2.410158664E-1,1.296825171E0,-5.301017761E-1
2.769604583E0,-2.197106034E-1,1.290433645E0,-5.769733787E-1
2.772101979E0,-1.973400712E-1,1.306412578E0,-5.940175653E-1
2.774599427E0,-1.749695390E-1,1.345827341E0,-6.099964976E-1
2.777096875E0,-1.568600535E-1,1.354349375E0,-6.142575741E-1
2.779594271E0,-1.344895214E-1,1.396959901E0,-6.036049724E-1
2.782091719E0,-1.099884585E-1,1.433178902E0,-6.046702266E-1
2.784589166E0,-8.761792630E-2,1.467267394E0,-5.950828195E-1
2.787086562E0,-6.418212503E-2,1.494964242E0,-5.769733787E-1
2.789584010E0,-3.222422302E-2,1.516269445E0,-5.396891236E-1
2.792081458E0,1.038631983E-2,1.536509514E0,-4.832301736E-1
2.794578854E0,5.832317844E-2,1.539705276E0,-4.246406853E-1
2.797076302E0,1.392832100E-1,1.494964242E0,-3.745732903E-1
2.799573750E0,2.479400784E-1,1.439570546E0,-3.245058954E-1
2.802071198E0,3.363569677E-1,1.400155783E0,-2.797648311E-1
2.804568594E0,4.034685493E-1,1.379915714E0,-2.424806058E-1
2.807066041E0,4.492748976E-1,1.385242105E0,-2.265016586E-1
2.809563489E0,4.663191140E-1,1.399090528E0,-2.105227113E-1
2.812060885E0,4.663191140E-1,1.404416800E0,-1.966742724E-1
2.814558333E0,4.577969909E-1,1.394829392E0,-1.870869100E-1
2.817055781E0,4.343611896E-1,1.351153612E0,-1.902827024E-1
2.819553177E0,4.034685493E-1,1.295759916E0,-1.977395415E-1
2.822050625E0,3.800327480E-1,1.262736797E0,-2.115879655E-1
2.824548073E0,3.523359001E-1,1.228648305E0,-2.222405970E-1
2.827045469E0,3.139864206E-1,1.195625186E0,-2.360890359E-1
2.829542916E0,2.692453563E-1,1.173254609E0,-2.510027289E-1
2.832040364E0,2.117211223E-1,1.144492507E0,-2.616553605E-1
2.834537760E0,1.531316340E-1,1.096555591E0,-2.723079920E-1
2.837035104E0,1.041295081E-1,1.046488285E0,-2.808300853E-1
2.839532448E0,6.258422881E-2,9.740503430E-1,-2.893522084E-1
2.842029739E0,4.021369666E-2,8.941555619E-1,-2.946785092E-1
2.844527083E0,3.595264256E-2,8.185218573E-1,-3.021353781E-1
2.847024375E0,3.808316961E-2,7.375618219E-1,-3.191795945E-1
2.849521719E0,4.980107024E-2,6.438186169E-1,-3.340932727E-1
2.852019010E0,5.725791305E-2,5.628586411E-1,-3.490069509E-1
2.854516354E0,5.938844010E-2,4.850943685E-1,-3.585943282E-1
2.857013698E0,5.086633191E-2,4.115912020E-1,-3.681817055E-1
2.859510989E0,3.914843500E-2,3.679153919E-1,-3.713774979E-1
2.862008333E0,3.701790795E-2,3.434143364E-1,-3.596596122E-1
2.864505625E0,3.914843500E-2,3.285006285E-1,-3.426153958E-1
2.867002969E0,3.169158846E-2,3.231743276E-1,-3.287669420E-1
2.869500260E0,3.595264256E-2,3.231743276E-1,-3.191795945E-1
2.871997604E0,4.660527781E-2,3.316964209E-1,-3.181143105E-1
2.874494948E0,5.619265139E-2,3.391532600E-1,-3.351585269E-1
2.876992239E0,6.045370549E-2,3.370227516E-1,-3.596596122E-1
2.879489583E0,7.217160612E-2,3.498059213E-1,-3.852259219E-1
2.881986875E0,8.388949931E-2,3.348922133E-1,-4.022701383E-1
2.884484219E0,9.028108418E-2,3.348922133E-1,-4.075964689E-1
2.886981510E0,9.347687662E-2,3.412837982E-1,-4.054659307E-1
2.889478854E0,1.030642465E-1,3.295659125E-1,-3.852259219E-1
2.891976146E0,1.083905622E-1,3.295659125E-1,-3.607248664E-1
2.894473489E0,1.201084629E-1,3.348922133E-1,-3.511374891E-1
2.896970833E0,1.211737245E-1,3.370227516E-1,-3.490069509E-1
2.899468125E0,1.254347861E-1,2.784332633E-1,-3.223753870E-1
2.901965469E0,1.765674353E-1,3.050648272E-1,-3.159838021E-1
2.904462760E0,1.605884731E-1,3.668501377E-1,-3.426153958E-1
2.906960104E0,1.499358416E-1,2.741721869E-1,-3.287669420E-1
2.909457396E0,1.414137334E-1,2.539321780E-1,-3.202448487E-1
2.911954739E0,1.115863547E-1,2.294311374E-1,-3.074616790E-1
2.914452031E0,7.110633701E-2,2.059953362E-1,-2.914827466E-1
2.916949375E0,3.169158846E-2,1.974732280E-1,-2.712427378E-1
2.919446719E0,-1.837579533E-2,1.900163740E-1,-2.541985214E-1
2.921944010E0,-7.270423323E-2,1.761679500E-1,-2.424806058E-1
2.924441354E0,-1.366200447E-1,1.687111109E-1,-2.478069216E-1
2.926938646E0,-2.026663870E-1,1.452753097E-1,-2.563290298E-1
2.929435989E0,-2.537990212E-1,1.271658391E-1,-2.573943138E-1
2.931933281E0,-2.804306149E-1,1.250353009E-1,-2.499374598E-1
2.934430625E0,-2.825611532E-1,1.261005700E-1,-2.446111441E-1
2.936927916E0,-2.729737759E-1,1.090563536E-1,-2.510027289E-1
2.939425260E0,-2.772348225E-1,5.792370439E-2,-2.584595680E-1
2.941922604E0,-2.569948137E-1,8.242476732E-2,-2.510027289E-1
2.944419896E0,-2.186453342E-1,1.452753097E-1,-2.424806058E-1
2.946917239E0,-1.888179630E-1,1.878858507E-1,-2.414153516E-1
2.949414531E0,-1.675126851E-1,1.985384822E-1,-2.456763983E-1
2.951911875E0,-1.312937289E-1,2.432795614E-1,-2.595248222E-1
2.954409166E0,-1.110537201E-1,2.486058772E-1,-2.818953693E-1
2.956906510E0,-9.720529616E-2,2.379532456E-1,-2.989395857E-1
2.959403802E0,-8.016107976E-2,2.315616608E-1,-3.063964248E-1
2.961901146E0,-5.779054761E-2,2.209090292E-1,-3.010700941E-1
2.964398489E0,-3.009369411E-2,2.113216519E-1,-2.968090475E-1
2.966895781E0,-5.592633504E-3,2.006690204E-1,-3.063964248E-1
2.969393125E0,1.464737393E-2,2.017342746E-1,-3.159838021E-1
2.971890416E0,2.956106327E-2,2.081258595E-1,-3.223753870E-1
2.974387760E0,4.447475076E-2,2.102563828E-1,-3.277016878E-1
2.976885052E0,5.299685895E-2,2.091911286E-1,-3.340932727E-1
2.979382396E0,5.193159729E-2,1.996037513E-1,-3.308974802E-1
2.981879687E0,4.767054319E-2,1.836248040E-1,-3.170490563E-1
2.984377031E0,4.554001614E-2,1.580584794E-1,-3.106574714E-1
2.986874375E0,4.980107024E-2,1.282310933E-1,-3.021353781E-1
2.989371666E0,5.619265139E-2,9.094687551E-2,-2.957437932E-1
2.991869010E0,5.086633191E-2,3.129211441E-2,-3.063964248E-1
2.994366302E0,3.808316961E-2,-3.049316816E-2,-3.277016878E-1
2.996863646E0,2.956106327E-2,-8.056055754E-2,-3.404848576E-1
2.999360937E0,3.488738090E-2,-1.231710985E-1,-3.553985357E-1
3.001858281E0,4.660527781E-2,-1.593900621E-1,-3.735080361E-1
3.004355625E0,5.725791305E-2,-2.009353340E-1,-3.980090916E-1
3.006852916E0,6.578002125E-2,-2.488721907E-1,-4.299669862E-1
3.009350260E0,7.856318355E-2,-2.904174626E-1,-4.480764568E-1
3.011847552E0,9.986845404E-2,-3.213101029E-1,-4.640554190E-1
3.014344896E0,1.222389862E-1,-3.436806500E-1,-4.874912202E-1
3.016842187E0,1.350221485E-1,-3.830953836E-1,-5.066659451E-1
3.019339531E0,1.541968882E-1,-4.107922614E-1,-5.045354366E-1
3.021836823E0,1.776326895E-1,-4.097269773E-1,-5.024049282E-1
3.024334166E0,1.925463825E-1,-4.267711937E-1,-4.949480593E-1
3.026831510E0,2.149169147E-1,-4.161185622E-1,-4.832301736E-1
3.029328802E0,2.330264002E-1,-3.617901206E-1,-4.715122581E-1
3.031826146E0,2.319611311E-1,-2.786995769E-1,-4.608596265E-1
3.034323437E0,2.181127071E-1,-1.838911176E-1,-4.512722492E-1
3.036820781E0,1.829590052E-1,-1.178447753E-1,-4.161185622E-1
3.039318073E0,1.595232189E-1,-2.836264111E-2,-3.575290740E-1
3.041815416E0,1.403484643E-1,6.218475848E-2,-2.946785092E-1
3.044312708E0,1.158474088E-1,1.015995070E-1,-2.424806058E-1
3.046810052E0,1.019989848E-1,1.506016254E-1,-2.051963806E-1
3.049307396E0,9.347687662E-2,2.219742835E-1,-1.956090182E-1
3.051804687E0,7.004107535E-2,2.752374709E-1,-2.030658573E-1
3.054302031E0,4.127896205E-2,3.253048360E-1,-2.094574422E-1
3.056799323E0,1.358211040E-2,3.775027692E-1,-2.211753428E-1
3.059296666E0,-1.198421419E-2,4.286354184E-1,-2.275669277E-1
3.061793958E0,-4.500738531E-2,4.669848979E-1,-2.520679832E-1
3.064291302E0,-8.229161054E-2,5.000080466E-1,-2.669816613E-1
3.066788594E0,-1.078579351E-1,5.447491407E-1,-2.691121995E-1
3.069285937E0,-1.355547905E-1,5.756417513E-1,-2.680469453E-1
3.071783281E0,-1.568600535E-1,6.086649299E-1,-2.531332374E-1
3.074280573E0,-1.696432233E-1,6.651239395E-1,-2.360890359E-1
3.076777916E0,-1.866874397E-1,7.087997198E-1,-2.179795504E-1
3.079275208E0,-2.069274336E-1,7.194523811E-1,-1.828258485E-1
3.081772552E0,-2.324937582E-1,7.194523811E-1,-1.540637314E-1
3.084269844E0,-2.612558901E-1,7.056038976E-1,-1.455416232E-1
3.086767187E0,-2.921485305E-1,6.576670408E-1,-1.327584684E-1
3.089264479E0,-3.230411708E-1,6.257091761E-1,-1.103879362E-1
3.091761823E0,-3.443464339E-1,5.916207433E-1,-9.973529726E-2
3.094259166E0,-3.549990654E-1,5.543364882E-1,-1.008005589E-1
3.096756458E0,-3.805654049E-1,5.138564706E-1,-1.103879362E-1
3.099253802E0,-3.976096213E-1,4.307659268E-1,-1.103879362E-1
3.101751094E0,-3.944138288E-1,3.519364297E-1,-1.039963514E-1
3.104248437E0,-3.731085360E-1,2.816290557E-1,-1.039963514E-1
3.106745729E0,-3.475422263E-1,2.155826986E-1,-1.114531979E-1
3.109243073E0,-3.102580011E-1,1.335574090E-1,-9.973529726E-2
3.111740364E0,-2.292979807E-1,6.538055092E-2,-9.653950483E-2
3.114237708E0,-1.557947844E-1,9.520792961E-2,-1.348889917E-1
3.116735052E0,-1.334242523E-1,5.046685785E-2,-1.423458457E-1
3.119232344E0,-1.206410974E-1,-2.836264111E-2,-1.306279451E-1
3.121729687E0,-1.046621427E-1,-7.310371101E-2,-1.061268821E-1
3.124226979E0,-9.720529616E-2,-9.867003560E-2,-8.056055754E-2
3.126724323E0,-8.974844962E-2,-1.327584684E-1,-5.286370218E-2
3.129221614E0,-8.761792630E-2,-2.126532346E-1,-5.992107093E-3
3.131718958E0,-2.263684943E-2,-1.806953251E-1,4.660528153E-3
3.134216302E0,7.190528791E-3,-7.523423433E-2,-2.410158701E-2
3.136713594E0,8.255792782E-3,-9.653950483E-2,-4.221106693E-2
3.139210937E0,2.103895508E-2,-1.167795137E-1,-5.286370218E-2
3.141708229E0,2.849579975E-2,-9.973529726E-2,-5.925528333E-2
3.144205573E0,3.595264256E-2,-7.416897267E-2,-6.245107576E-2
3.146702864E0,4.234422371E-2,-5.499422923E-2,-6.458160281E-2
3.149200208E0,4.554001614E-2,-4.221106693E-2,-6.351634115E-2
3.151697500E0,3.808316961E-2,-3.475422412E-2,-5.925528333E-2
3.154194844E0,3.275685385E-2,-1.025316119E-2,-5.925528333E-2
3.156692187E0,1.997369155E-2,3.595264396E-3,-5.712475628E-2
3.159189479E0,7.190528791E-3,1.531316340E-2,-4.327633232E-2
3.161686823E0,-4.527369980E-3,3.129211441E-2,-2.729737759E-2
3.164184114E0,-2.796316706E-2,5.153212324E-2,-3.861580277E-3
3.166681458E0,-6.524739414E-2,7.390265912E-2,3.129211441E-2
3.169178750E0,-9.933582693E-2,9.307739884E-2,6.857633591E-2
3.171676094E0,-1.259674132E-1,1.047952995E-1,1.058605611E-1
3.174173385E0,-1.430116296E-1,1.079910919E-1,1.378184706E-1
3.176670729E0,-1.451421529E-1,9.733845294E-2,1.633847952E-1
3.179168073E0,-1.366200447E-1,7.922897488E-2,1.857553273E-1
3.181665364E0,-1.249021515E-1,4.833633080E-2,2.049300671E-1
3.184162708E0,-1.185105667E-1,1.464737346E-3,2.177132368E-1
3.186660000E0,-1.057274044E-1,6.791055202E-3,2.251700759E-1
3.189157344E0,-9.400950372E-2,4.660528153E-3,2.368879765E-1
3.191654635E0,-8.761792630E-2,-6.657897029E-4,2.603237629E-1
3.194151979E0,-8.548739552E-2,-1.664474234E-2,2.773679793E-1
3.196649271E0,-1.004010886E-1,-4.434159398E-2,2.837595642E-1
3.199146614E0,-1.035968810E-1,-2.303632349E-2,2.794985175E-1
3.201643958E0,-1.025316119E-1,-1.984053291E-2,2.677806318E-1
3.204141250E0,-7.270423323E-2,-4.647212103E-2,2.475406080E-1
3.206638594E0,-3.648527712E-2,-8.482161164E-2,2.283658683E-1
3.209135885E0,-3.861580417E-2,-9.227845073E-2,2.592585087E-1
3.211633229E0,-4.287685826E-2,-6.671212614E-2,3.018690646E-1
3.214130521E0,-5.459475517E-2,-5.605949461E-2,3.178479970E-1
3.216627864E0,-6.737791747E-2,-2.836264111E-2,3.146522045E-1
3.219125156E0,-7.483476400E-2,1.211737283E-2,3.125216961E-1
3.221622500E0,-8.761792630E-2,3.661843389E-2,3.199785352E-1
3.224119844E0,-1.014663503E-1,1.005342454E-1,3.306311667E-1
3.226617135E0,-1.014663503E-1,1.420795172E-1,3.647195995E-1
3.229114479E0,-8.122634143E-2,1.463405788E-1,3.806985617E-1
3.231611771E0,-1.206410974E-1,1.047952995E-1,2.986732721E-1
3.234109114E0,-1.259674132E-1,6.644581258E-2,1.378184706E-1
3.236606406E0,-1.046621427E-1,5.685843900E-2,-2.090579644E-2
3.239103750E0,-7.803055644E-2,3.235737979E-2,-1.380847842E-1
3.241601041E0,-4.074633121E-2,-2.090579644E-2,-1.902827024E-1
3.244098385E0,8.255792782E-3,-6.564686447E-2,-2.265016586E-1
3.246595729E0,5.725791305E-2,-1.327584684E-1,-2.637858689E-1
3.249093021E0,1.179779321E-1,-1.902827024E-1,-3.063964248E-1
3.251590364E0,1.712411046E-1,-2.659164071E-1,-3.436806500E-1
3.254087656E0,2.191779763E-1,-3.362238109E-1,-3.777690828E-1
3.256585000E0,2.447443008E-1,-4.033353925E-1,-4.022701383E-1
3.259082291E0,2.500706017E-1,-4.331627786E-1,-4.075964689E-1
3.261579635E0,2.234390229E-1,-4.736427963E-1,-3.873564601E-1
3.264076927E0,2.063948065E-1,-5.226449370E-1,-3.820301294E-1
3.266574271E0,2.479400784E-1,-6.387586594E-1,-4.704470038E-1
3.269071614E0,3.075948358E-1,-7.250449657E-1,-5.546028018E-1
3.271568906E0,3.480748534E-1,-7.804386616E-1,-5.886912346E-1
3.274066250E0,3.693801165E-1,-8.720513582E-1,-6.089312434E-1
3.276563541E0,3.874896169E-1,-9.370324016E-1,-6.270407438E-1
3.279060885E0,4.215780497E-1,-9.647293091E-1,-6.558028460E-1
3.281558177E0,4.652538300E-1,-9.892303348E-1,-6.920218468E-1
3.284055521E0,5.259738564E-1,-9.998829961E-1,-7.431544662E-1
3.286552864E0,5.866938829E-1,-1.031840920E0,-7.932218313E-1
3.289050156E0,6.463486552E-1,-1.071255684E0,-8.358324170E-1
3.291547500E0,7.060034275E-1,-1.103213549E0,-8.816387057E-1
3.294044791E0,7.592665553E-1,-1.114931464E0,-9.167923927E-1
3.296542135E0,8.040076494E-1,-1.111735702E0,-9.338366389E-1
3.299039427E0,8.295739889E-1,-1.077647209E0,-9.359671474E-1
3.301536771E0,8.231824040E-1,-1.091495633E0,-9.157271385E-1
3.304034062E0,7.922897339E-1,-1.106409311E0,-8.656597733E-1
3.306531406E0,7.496792078E-1,-1.079777718E0,-7.932218313E-1
3.309028750E0,6.868286729E-1,-1.041428208E0,-7.026744485E-1
3.311526041E0,6.250433922E-1,-9.753819108E-1,-5.950828195E-1
3.314023385E0,5.600622892E-1,-9.040092826E-1,-4.704470038E-1
3.316520677E0,4.844285846E-1,-8.209186792E-1,-3.522027433E-1
3.319018021E0,4.024032950E-1,-7.090660334E-1,-2.701774538E-1
3.321515312E0,3.161169589E-1,-6.057354808E-1,-2.083921731E-1
3.324012656E0,2.340916544E-1,-5.269059539E-1,-1.647163779E-1
3.326509948E0,1.691105813E-1,-4.395543635E-1,-1.295626760E-1
3.329007291E0,1.105210930E-1,-3.447459042E-1,-9.973529726E-2
3.331504635E0,5.299685895E-2,-2.488721907E-1,-7.629950345E-2
3.334001927E0,-4.527369980E-3,-1.625858396E-1,-5.073317513E-2
3.336499219E0,-4.926843941E-2,-7.203844935E-2,-2.410158701E-2
3.338996562E0,-7.483476400E-2,8.921582252E-3,-6.657897029E-4
3.341493854E0,-8.229161054E-2,5.792370439E-2,2.170474455E-2
3.343991198E0,-6.844317913E-2,7.070686668E-2,4.087948799E-2
3.346488541E0,-3.648527712E-2,5.153212324E-2,5.685843900E-2
3.348985885E0,5.060001742E-3,1.637842692E-2,6.431528181E-2
3.351483229E0,6.045370549E-2,-1.771000586E-2,6.538055092E-2
3.353980521E0,1.147821471E-1,-5.073317513E-2,6.538055092E-2
3.356477864E0,1.637842655E-1,-8.056055754E-2,6.644581258E-2
3.358975208E0,2.149169147E-1,-1.274321526E-1,7.283739001E-2
3.361472552E0,2.340916544E-1,-2.936132550E-1,7.070686668E-2
3.363969896E0,2.362221926E-1,-4.651206732E-1,6.857633591E-2
3.366467187E0,2.958769500E-1,-5.822996497E-1,5.259738490E-2
3.368964531E0,3.800327480E-1,-7.942871451E-1,-1.025316119E-2
3.371461875E0,4.854938388E-1,-1.031840920E0,-2.836264111E-2
3.373959219E0,5.920202136E-1,-1.207609415E0,-3.901527822E-2
3.376456510E0,6.719149947E-1,-1.381247282E0,-4.966791347E-2
3.378953854E0,7.422223687E-1,-1.543167353E0,-5.392896757E-2
3.381451198E0,8.040076494E-1,-1.696565270E0,-5.925528333E-2
3.383948541E0,8.647276759E-1,-1.833984375E0,-4.753738642E-2
3.386445885E0,9.243824482E-1,-1.950098038E0,-4.008053988E-2
3.388943177E0,9.616666436E-1,-2.070472717E0,-3.262369707E-2
3.391440521E0,9.840371609E-1,-2.143975973E0,-2.942790464E-2
3.393937864E0,1.011734009E0,-2.156759262E0,-3.368895873E-2
3.396435208E0,1.021321416E0,-2.146106482E0,-4.753738642E-2
3.398932500E0,1.015995145E0,-2.105626583E0,-6.884265691E-2
3.401429844E0,9.978855848E-1,-2.068342209E0,-8.482161164E-2
3.403927187E0,9.744498134E-1,-2.025731802E0,-9.760477394E-2
3.406424531E0,9.403613806E-1,-1.971403360E0,-1.125184596E-1
3.408921875E0,9.105340242E-1,-1.908552766E0,-1.093226671E-1
3.411419166E0,8.689886928E-1,-1.822266459E0,-1.029310897E-1
3.413916510E0,8.231824040E-1,-1.699761152E0,-8.482161164E-2
3.416413854E0,7.677887082E-1,-1.574059963E0,-5.073317513E-2
3.418911198E0,7.230476141E-1,-1.411074638E0,-2.836264111E-2
3.421408541E0,6.836328506E-1,-1.268329382E0,-3.901527822E-2
3.423905833E0,6.559360027E-1,-1.170325160E0,-6.458160281E-2
3.426403177E0,6.452834010E-1,-1.106409311E0,-8.801739663E-2
3.428900521E0,6.282391548E-1,-1.100017786E0,-1.146489903E-1
3.431397864E0,6.175865531E-1,-1.103213549E0,-1.210405678E-1
3.433895156E0,5.994770527E-1,-1.113866210E0,-1.253016293E-1
3.436392500E0,5.856286287E-1,-1.102148294E0,-1.295626760E-1
3.438889844E0,5.675191283E-1,-1.080842972E0,-1.295626760E-1
3.441387187E0,5.589970350E-1,-1.041428208E0,-1.242363602E-1
3.443884531E0,5.440833569E-1,-9.721861482E-1,-1.167795137E-1
3.446381823E0,5.227780938E-1,-8.784429431E-1,-1.146489903E-1
3.448879166E0,5.089296699E-1,-7.516765594E-1,-1.221058294E-1
3.451376510E0,4.897549152E-1,-6.259754896E-1,-1.327584684E-1
3.453873854E0,4.780369997E-1,-5.183838606E-1,-1.487374157E-1
3.456371146E0,4.769717455E-1,-4.523375332E-1,-1.625858396E-1
3.458868489E0,4.801675379E-1,-4.129227698E-1,-1.679121703E-1
3.461365833E0,4.961465001E-1,-3.958785534E-1,-1.636511087E-1
3.463863177E0,5.153212547E-1,-4.320975244E-1,-1.636511087E-1
3.466360521E0,5.451486111E-1,-4.800343812E-1,-1.583247930E-1
3.468857812E0,5.685843825E-1,-5.151880980E-1,-1.476721615E-1
3.471355156E0,5.749759674E-1,-5.471459627E-1,-1.402153075E-1
3.473852500E0,5.696496964E-1,-5.705817938E-1,-1.221058294E-1
3.476349844E0,5.430181026E-1,-6.004091501E-1,-8.588687330E-2
3.478847187E0,4.865591228E-1,-6.334323287E-1,-3.475422412E-2
3.481344479E0,3.960117102E-1,-6.334323287E-1,2.596579865E-2
3.483841823E0,2.798979878E-1,-6.302365065E-1,7.390265912E-2
3.486339166E0,2.234390229E-1,-5.993438959E-1,1.079910919E-1
3.488836510E0,2.308958620E-1,-6.110618114E-1,1.410142630E-1
3.491333802E0,2.628537714E-1,-6.866955161E-1,1.015995070E-1
3.493831146E0,3.864243329E-1,-8.241145015E-1,-6.351634115E-2
3.496328489E0,5.313001871E-1,-1.021188259E0,-2.520679832E-1
3.498825833E0,6.090644002E-1,-1.192695618E0,-4.107922614E-1
3.501323177E0,5.579317808E-1,-1.396160960E0,-4.981438518E-1
3.503820469E0,4.844285846E-1,-1.591104269E0,-5.556681156E-1
3.506317812E0,4.972117543E-1,-1.541036844E0,-6.174533963E-1
3.508815156E0,4.908201694E-1,-1.467533708E0,-6.621944308E-1
3.511312500E0,4.673843682E-1,-1.376986265E0,-6.792386770E-1
3.513809791E0,5.941507220E-1,-9.828387499E-1,-7.218492031E-1
3.516307135E0,9.339697957E-1,-1.945437491E-1,-8.230492473E-1
3.518804479E0,1.601889968E0,1.100816727E0,-9.444893003E-1
3.521301823E0,2.181393385E0,2.037183285E0,-1.021188259E0
3.523799166E0,2.010951281E0,1.590837955E0,-1.052080870E0
3.526296458E0,1.679654241E0,6.544712782E-1,-1.069125056E0
3.528793802E0,1.720134258E0,3.263701200E-1,-1.094691396E0
3.531291146E0,1.459144711E0,-3.223753870E-1,-1.087234616E0
3.533788489E0,1.166197300E0,-7.335671186E-1,-1.041428208E0
3.536285833E0,9.147950411E-1,-7.506113052E-1,-9.679250717E-1
3.538783125E0,6.836328506E-1,-4.502069950E-1,-8.688555360E-1
3.541280469E0,4.556664824E-1,1.637842692E-2,-7.516765594E-1
3.543777812E0,2.617885172E-1,4.701806903E-1,-6.323670745E-1
3.546275156E0,1.350221485E-1,9.111998081E-1,-5.141227841E-1
3.548772448E0,6.045370549E-2,1.272324085E0,-4.225101471E-1
3.551269791E0,2.956106327E-2,1.558879972E0,-3.564638197E-1
3.553767135E0,2.530000918E-2,1.680320024E0,-3.053311706E-1
3.556264479E0,-9.933582693E-2,1.383111477E0,-2.989395857E-1
3.558761823E0,-6.950844824E-2,1.317065239E0,-3.074616790E-1
3.561259114E0,-8.655266464E-2,1.179646254E0,-2.936132550E-1
3.563756458E0,-9.187898040E-2,1.053945065E0,-2.957437932E-1
3.566253802E0,-6.311686337E-2,1.026248217E0,-3.170490563E-1
3.568751146E0,-3.328948468E-2,1.000681877E0,-3.532680273E-1
3.571248437E0,8.255792782E-3,1.051814556E0,-4.182491004E-1
3.573745781E0,4.234422371E-2,1.113599896E0,-4.757733345E-1
3.576243125E0,2.426137626E-1,1.455549479E0,-5.205143690E-1
3.578740469E0,5.142559409E-1,1.862480164E0,-5.524722934E-1
3.581237812E0,5.792370439E-1,1.908286452E0,-5.982786417E-1
3.583735104E0,7.603318691E-1,2.175667524E0,-6.313018203E-1
3.586232448E0,9.957550764E-1,2.504833937E0,-6.408891678E-1
3.588729791E0,1.095889807E0,2.558097124E0,-6.387586594E-1
3.591227135E0,1.107607722E0,2.452636003E0,-6.313018203E-1
3.593724479E0,1.090563536E0,2.289650679E0,-6.259754896E-1
3.596221771E0,1.038365602E0,2.093642235E0,-6.004091501E-1
3.598719114E0,9.584708810E-1,1.856088519E0,-5.673859715E-1
3.601216458E0,8.498139977E-1,1.586576819E0,-5.269059539E-1
3.603713802E0,7.379612923E-1,1.336239934E0,-4.779038429E-1
3.606211094E0,6.303696632E-1,1.141296744E0,-4.406196177E-1
3.608708437E0,5.366265178E-1,9.847029448E-1,-4.022701383E-1
3.611205781E0,4.588622749E-1,8.664587140E-1,-3.585943282E-1
3.613703125E0,4.013380408E-1,7.886945009E-1,-3.181143105E-1
3.616200469E0,3.779022396E-1,7.428881526E-1,-2.914827466E-1
3.618697760E0,3.704454005E-1,6.949512959E-1,-2.776342928E-1
3.621195104E0,3.821632862E-1,6.608628631E-1,-2.755037844E-1
3.623692448E0,4.460791051E-1,7.024081349E-1,-2.755037844E-1
3.626189791E0,5.728454590E-1,8.515450358E-1,-2.605900764E-1
3.628687135E0,7.283739448E-1,1.082707167E0,-2.339584976E-1
3.631184427E0,8.636624217E-1,1.336239934E0,-2.020006031E-1
3.633681771E0,9.733845592E-1,1.557814717E0,-1.700426936E-1
3.636179114E0,1.058605671E0,1.771932721E0,-1.199753061E-1
3.638676458E0,1.135304570E0,1.999899149E0,-6.351634115E-2
3.641173750E0,1.214134097E0,2.239583492E0,1.464737346E-3
3.643671094E0,1.297224641E0,2.488855124E0,7.709844410E-2
3.646168437E0,1.340900421E0,2.667819262E0,1.442100555E-1
3.648665781E0,1.340900421E0,2.767954111E0,1.910816431E-1
3.651163125E0,1.311073065E0,2.824413061E0,2.368879765E-1
3.653660416E0,1.243961453E0,2.841457367E0,2.624543011E-1
3.656157760E0,1.147022486E0,2.816956282E0,2.848248482E-1
3.658655104E0,1.021321416E0,2.745583534E0,2.933469415E-1
3.661152448E0,8.583360910E-1,2.643318176E0,2.805637717E-1
3.663649739E0,6.729802489E-1,2.514421463E0,2.613890469E-1
3.666147083E0,4.791022837E-1,2.347175121E0,2.368879765E-1
3.668644427E0,2.745716870E-1,2.134122372E0,2.038648129E-1
3.671141771E0,7.004107535E-2,1.865675926E0,1.793637425E-1
3.673639114E0,-1.302284598E-1,1.549292684E0,1.729721576E-1
3.676136406E0,-3.091927469E-1,1.212669373E0,1.751026958E-1
3.678633750E0,-4.807001650E-1,8.994818926E-1,1.868205965E-1
3.681131094E0,-6.287717819E-1,6.203828454E-1,1.932121664E-1
3.683628437E0,-7.512770891E-1,3.785680234E-1,1.964079589E-1
3.686125781E0,-8.460855484E-1,1.900163740E-1,2.006690204E-1
3.688623073E0,-9.078708291E-1,5.366265029E-2,2.113216519E-1
3.691120416E0,-9.483508468E-1,-3.262369707E-2,2.166479677E-1
3.693617760E0,-9.611340165E-1,-7.416897267E-2,2.187784910E-1
3.696115104E0,-9.440897703E-1,-7.416897267E-2,2.166479677E-1
3.698612396E0,-9.046750665E-1,-3.688475117E-2,2.113216519E-1
3.701109739E0,-8.460855484E-1,2.809632570E-2,1.932121664E-1
3.703607083E0,-7.661907673E-1,1.047952995E-1,1.719069034E-1
3.706104427E0,-6.767086387E-1,1.900163740E-1,1.537974179E-1
3.708601771E0,-5.787044168E-1,2.805637717E-1,1.282310933E-1
3.711099062E0,-4.807001650E-1,3.593932688E-1,1.090563536E-1
3.713596406E0,-3.912180364E-1,4.254396260E-1,9.201213717E-2
3.716093750E0,-3.123885393E-1,4.755069911E-1,8.881634474E-2
3.718591094E0,-2.548643053E-1,5.063996315E-1,8.988160640E-2
3.721088385E0,-2.175800800E-1,5.277048945E-1,9.733845294E-2
3.723585729E0,-1.973400712E-1,5.383575559E-1,1.090563536E-1
3.726083073E0,-1.941442788E-1,5.458143950E-1,1.218395159E-1
3.728580416E0,-2.111884952E-1,5.490102172E-1,1.431447864E-1
3.731077760E0,-2.399506122E-1,5.479449034E-1,1.633847952E-1
3.733575052E0,-2.804306149E-1,5.426186323E-1,1.942774355E-1
3.736072396E0,-3.251716793E-1,5.426186323E-1,2.315616608E-1
3.738569739E0,-3.709780276E-1,5.490102172E-1,2.635195553E-1
3.741067083E0,-4.114580452E-1,5.692501664E-1,3.008037806E-1
3.743564427E0,-4.583296180E-1,5.894901752E-1,3.285006285E-1
3.746061719E0,-5.030707121E-1,5.841639042E-1,3.519364297E-1
3.748559062E0,-5.520728230E-1,5.703154802E-1,3.721764386E-1
3.751056406E0,-5.914875865E-1,5.490102172E-1,3.945469856E-1
3.753553750E0,-6.277065277E-1,5.255743861E-1,4.190480411E-1
3.756051041E0,-6.532728672E-1,5.021386147E-1,4.371575117E-1
3.758548385E0,-6.777738929E-1,4.776375294E-1,4.488754272E-1
3.761045729E0,-6.958833933E-1,4.488754272E-1,4.573975205E-1
3.763543073E0,-7.054707408E-1,4.137217104E-1,4.659196436E-1
3.766040416E0,-7.054707408E-1,3.870901465E-1,4.680501521E-1
3.768537708E0,-7.076013088E-1,3.785680234E-1,4.627238512E-1
3.771035052E0,-7.118623257E-1,3.881554008E-1,4.563322663E-1
3.773532396E0,-7.150581479E-1,4.211785793E-1,4.424838424E-1
3.776029739E0,-7.203844786E-1,4.797680676E-1,4.222438335E-1
3.778527031E0,-7.225149870E-1,5.543364882E-1,4.083954096E-1
3.781024375E0,-7.097318172E-1,5.852291584E-1,3.945469856E-1
3.783521719E0,-6.958833933E-1,5.990775824E-1,3.924164474E-1
3.786019062E0,-7.022749782E-1,6.470144391E-1,3.817638159E-1
3.788516406E0,-7.193192244E-1,7.375618219E-1,3.647195995E-1
3.791013698E0,-7.331676483E-1,7.908250093E-1,3.615238070E-1
3.793511041E0,-7.427549958E-1,8.313050270E-1,3.604585528E-1
3.796008385E0,-7.608644962E-1,9.229176641E-1,3.476753831E-1
3.798505729E0,-7.800391912E-1,1.045423031E0,3.221090436E-1
3.801003073E0,-7.960181832E-1,1.176450372E0,3.008037806E-1
3.803500364E0,-7.960181832E-1,1.307477832E0,2.763027251E-1
3.805997708E0,-7.917571068E-1,1.426787376E0,2.571279705E-1
3.808495052E0,-7.811045051E-1,1.539705276E0,2.454100847E-1
3.810992396E0,-7.640602589E-1,1.621730566E0,2.496711314E-1
3.813489687E0,-7.470160723E-1,1.686711669E0,2.677806318E-1
3.815987031E0,-7.267760634E-1,1.730387449E0,2.933469415E-1
3.818484375E0,-7.076013088E-1,1.753823280E0,3.167827427E-1
3.820981719E0,-7.001444697E-1,1.770867467E0,3.316964209E-1
3.823479062E0,-6.894918084E-1,1.749562144E0,3.540669680E-1
3.825976354E0,-6.809697151E-1,1.721865296E0,3.679153919E-1
3.828473698E0,-6.735128760E-1,1.681385279E0,3.689806461E-1
3.830971041E0,-6.554033756E-1,1.603621125E0,3.636543453E-1
3.833468385E0,-6.511423588E-1,1.538640022E0,3.327617049E-1
3.835965677E0,-6.458160281E-1,1.475789428E0,2.880206108E-1
3.838462916E0,-6.202496886E-1,1.383111477E0,2.549974620E-1
3.840960156E0,-5.989444256E-1,1.302151442E0,2.187784910E-1
3.843457396E0,-5.829654932E-1,1.220126152E0,1.740374267E-1
3.845954635E0,-5.648559928E-1,1.127448320E0,1.356879473E-1
3.848451875E0,-5.424854755E-1,1.031574607E0,1.037300378E-1
3.850949114E0,-5.179843903E-1,9.410271645E-1,7.177212834E-2
3.853446354E0,-5.009401441E-1,8.515450358E-1,3.661843389E-2
3.855943594E0,-4.764391184E-1,7.450186610E-1,1.105210930E-2
3.858440833E0,-4.498075247E-1,6.384923458E-1,-8.122634143E-3
3.860938073E0,-4.274369776E-1,5.351617336E-1,-3.262369707E-2
3.863435312E0,-4.061317146E-1,4.456796348E-1,-5.925528333E-2
3.865932552E0,-3.922832906E-1,3.764374852E-1,-9.334371984E-2
3.868429791E0,-3.763043284E-1,2.997385263E-1,-1.167795137E-1
3.870927031E0,-3.581948578E-1,2.166479677E-1,-1.210405678E-1
3.873424271E0,-3.454116881E-1,1.378184706E-1,-1.146489903E-1
3.875921510E0,-3.347590566E-1,6.005423144E-2,-1.082574055E-1
3.878418750E0,-3.251716793E-1,-2.796316752E-3,-1.082574055E-1
3.880915989E0,-3.166495860E-1,-5.499422923E-2,-9.867003560E-2
3.883413229E0,-3.059969544E-1,-9.867003560E-2,-9.653950483E-2
3.885910469E0,-2.996053696E-1,-1.306279451E-1,-1.008005589E-1
3.888407708E0,-2.932137847E-1,-1.519332081E-1,-1.082574055E-1
3.890904948E0,-2.804306149E-1,-1.700426936E-1,-1.103879362E-1
3.893402187E0,-2.708432376E-1,-1.796300560E-1,-1.135837212E-1
3.895899427E0,-2.676474750E-1,-1.966742724E-1,-1.135837212E-1
3.898396666E0,-2.687127292E-1,-2.062616497E-1,-1.135837212E-1
3.900893906E0,-2.687127292E-1,-2.041311264E-1,-1.178447753E-1
3.903391146E0,-2.719085217E-1,-2.137184888E-1,-1.316931993E-1
3.905888385E0,-2.687127292E-1,-2.179795504E-1,-1.583247930E-1
3.908385625E0,-2.687127292E-1,-2.073269188E-1,-1.913479567E-1
3.910882864E0,-2.751043141E-1,-2.030658573E-1,-2.254363894E-1
3.913380104E0,-2.825611532E-1,-1.924132258E-1,-2.552637756E-1
3.915877344E0,-2.857569456E-1,-1.636511087E-1,-2.829606235E-1
3.918374583E0,-2.910832465E-1,-1.327584684E-1,-3.074616790E-1
3.920871823E0,-2.953443229E-1,-8.908266574E-2,-3.298322260E-1
3.923369062E0,-2.996053696E-1,-3.901527822E-2,-3.522027433E-1
3.925866302E0,-3.017359078E-1,1.637842692E-2,-3.756385446E-1
3.928363541E0,-3.081274629E-1,6.644581258E-2,-3.937480450E-1
3.930860781E0,-3.187801242E-1,1.111868769E-1,-4.086617231E-1
3.933358021E0,-3.230411708E-1,1.452753097E-1,-4.171838164E-1
3.935855260E0,-3.251716793E-1,1.751026958E-1,-4.235754013E-1
3.938352500E0,-3.273022175E-1,1.964079589E-1,-4.289017320E-1
3.940849739E0,-3.262369633E-1,2.091911286E-1,-4.299669862E-1
3.943346979E0,-3.187801242E-1,2.198437601E-1,-4.267711937E-1
3.945844219E0,-3.134537935E-1,2.177132368E-1,-4.161185622E-1
3.948341458E0,-3.049316704E-1,2.145174444E-1,-3.969438076E-1
3.950838698E0,-2.932137847E-1,2.113216519E-1,-3.703122437E-1
3.953335937E0,-2.783001065E-1,2.006690204E-1,-3.394196033E-1
3.955833177E0,-2.623211443E-1,1.793637425E-1,-3.000048399E-1
3.958330416E0,-2.463421971E-1,1.548626870E-1,-2.563290298E-1
3.960827656E0,-2.197106034E-1,1.218395159E-1,-2.041311264E-1
3.963324896E0,-1.898832172E-1,8.988160640E-2,-1.370195150E-1
3.965822135E0,-1.579253227E-1,7.603318244E-2,-6.138581038E-2
3.968319375E0,-1.280979365E-1,7.603318244E-2,1.464737346E-3
3.970816614E0,-1.078579351E-1,8.029423654E-2,4.087948799E-2
3.973313854E0,-9.400950372E-2,9.627319127E-2,6.005423144E-2
3.975811094E0,-8.548739552E-2,1.037300378E-1,7.283739001E-2
3.978308333E0,-7.696528733E-2,9.201213717E-2,6.751107424E-2
3.980805573E0,-6.844317913E-2,6.538055092E-2,4.940159619E-2
3.983302812E0,-6.205160171E-2,2.490053512E-2,3.235737979E-2
3.985800052E0,-6.205160171E-2,-1.557947882E-2,1.637842692E-2
3.988297291E0,-6.098633632E-2,-4.860264808E-2,-6.657897029E-4
3.990794531E0,-5.779054761E-2,-6.777739525E-2,-1.238368824E-2
3.993291771E0,-4.926843941E-2,-5.925528333E-2,-2.090579644E-2
3.995789010E0,-4.394211993E-2,-3.475422412E-2,-2.623211406E-2
3.998286250E0,-3.542001173E-2,-2.796316752E-3,-2.836264111E-2
4.000783489E0,-3.009369411E-2,3.129211441E-2,-3.049316816E-2
4.003280729E0,-2.689790353E-2,6.218475848E-2,-3.262369707E-2
4.005778021E0,-2.370211296E-2,8.349002898E-2,-3.688475117E-2
4.008275260E0,-2.050632238E-2,9.840371460E-2,-4.221106693E-2
4.010772500E0,-2.370211296E-2,9.520792961E-2,-4.860264808E-2
4.013269739E0,-2.476737648E-2,8.988160640E-2,-4.966791347E-2
4.015766979E0,-3.328948468E-2,9.094687551E-2,-5.179844052E-2
4.018264219E0,-3.968106583E-2,8.988160640E-2,-5.392896757E-2
4.020761458E0,-4.287685826E-2,8.775108308E-2,-5.499422923E-2
4.023258698E0,-5.139896646E-2,8.242476732E-2,-4.860264808E-2
4.025755937E0,-5.566002056E-2,7.816371322E-2,-4.434159398E-2
4.028253177E0,-6.631265581E-2,7.283739001E-2,-4.114580527E-2
4.030750416E0,-7.696528733E-2,6.005423144E-2,-3.688475117E-2
4.033247656E0,-8.548739552E-2,4.514054209E-2,-3.049316816E-2
4.035744896E0,-9.081371874E-2,2.916158922E-2,-2.516685054E-2
4.038242135E0,-1.057274044E-1,1.637842692E-2,-2.197105996E-2
4.040739375E0,-1.153147742E-1,5.725791678E-3,-1.984053291E-2
4.043236614E0,-1.217063591E-1,-6.657897029E-4,-1.664474234E-2
4.045733854E0,-1.280979365E-1,-3.861580277E-3,-1.557947882E-2
4.048231094E0,-1.355547905E-1,-5.992107093E-3,-1.344895177E-2
4.050728333E0,-1.344895214E-1,-3.861580277E-3,-7.057370618E-3
4.053225573E0,-1.334242523E-1,4.660528153E-3,-6.657897029E-4
4.055722812E0,-1.312937289E-1,1.105210930E-2,-6.657897029E-4
4.058220052E0,-1.291632056E-1,1.637842692E-2,7.856318727E-3
4.060717291E0,-1.270326823E-1,1.531316340E-2,9.986845776E-3
4.063214531E0,-1.174453050E-1,1.637842692E-2,1.211737283E-2
4.065711771E0,-1.185105667E-1,1.850895397E-2,1.424789988E-2
4.068209010E0,-1.153147742E-1,1.957421750E-2,1.957421750E-2
4.070706250E0,-1.099884585E-1,1.744369045E-2,1.957421750E-2
4.073203489E0,-1.067926660E-1,9.986845776E-3,2.170474455E-2
4.075700729E0,-1.004010886E-1,6.791055202E-3,2.170474455E-2
4.078197969E0,-9.081371874E-2,5.725791678E-3,2.490053512E-2
4.080695208E0,-8.655266464E-2,1.464737346E-3,2.596579865E-2
4.083192448E0,-7.803055644E-2,-6.657897029E-4,2.703106217E-2
4.085689687E0,-6.844317913E-2,3.994738217E-4,3.129211441E-2
4.088186927E0,-5.779054761E-2,2.530000871E-3,3.022685274E-2
4.090684166E0,-4.926843941E-2,-6.657897029E-4,3.555316851E-2
4.093181406E0,-4.181159288E-2,-1.731053228E-3,4.087948799E-2
4.095678646E0,-2.796316706E-2,-3.861580277E-3,4.514054209E-2
4.098175885E0,-1.518000476E-2,-5.992107093E-3,4.727106914E-2
4.100673125E0,-8.788423613E-3,-1.238368824E-2,5.046685785E-2
4.103170364E0,7.989476435E-4,-1.877526939E-2,5.259738490E-2
4.105667604E0,8.255792782E-3,-3.049316816E-2,5.792370439E-2
4.108164844E0,1.571263745E-2,-4.753738642E-2,5.472791195E-2
4.110662083E0,2.103895508E-2,-6.564686447E-2,5.579317734E-2
4.113159323E0,3.062632680E-2,-7.843002677E-2,5.685843900E-2
4.115656562E0,4.127896205E-2,-9.227845073E-2,5.898896605E-2
4.118153802E0,4.554001614E-2,-1.061268821E-1,6.005423144E-2
4.120651041E0,5.193159729E-2,-1.189100444E-1,6.538055092E-2
4.123148281E0,5.832317844E-2,-1.284974068E-1,7.070686668E-2
4.125645521E0,6.684528291E-2,-1.359542608E-1,7.177212834E-2
4.128142760E0,7.004107535E-2,-1.444763690E-1,7.603318244E-2
4.130640000E0,7.323686779E-2,-1.540637314E-1,8.029423654E-2
4.133137239E0,7.962844521E-2,-1.647163779E-1,8.242476732E-2
4.135634479E0,7.962844521E-2,-1.785648018E-1,8.242476732E-2
4.138131719E0,7.749792188E-2,-1.892174333E-1,8.242476732E-2
4.140628958E0,7.110633701E-2,-2.030658573E-1,8.029423654E-2
4.143126198E0,6.684528291E-2,-2.115879655E-1,7.922897488E-2
4.145623437E0,6.151896715E-2,-2.265016586E-1,7.390265912E-2
4.148120677E0,4.980107024E-2,-2.382195592E-1,7.177212834E-2
4.150617916E0,3.914843500E-2,-2.446111441E-1,6.857633591E-2
4.153115156E0,2.849579975E-2,-2.595248222E-1,6.218475848E-2
4.155612396E0,1.677790098E-2,-2.616553605E-1,6.005423144E-2
4.158109635E0,3.994738217E-3,-2.573943138E-1,5.685843900E-2
4.160606875E0,-5.592633504E-3,-2.499374598E-1,5.579317734E-2
4.163104114E0,-1.518000476E-2,-2.414153516E-1,4.940159619E-2
4.165601354E0,-3.115895763E-2,-2.328932434E-1,4.514054209E-2
4.168098594E0,-4.074633121E-2,-2.265016586E-1,3.661843389E-2
4.170595833E0,-5.566002056E-2,-2.243711352E-1,3.022685274E-2
4.173093073E0,-6.844317913E-2,-2.190448195E-1,1.957421750E-2
4.175590312E0,-8.016107976E-2,-2.201100737E-1,4.660528153E-3
4.178087552E0,-8.974844962E-2,-2.211753428E-1,-5.992107093E-3
4.180584791E0,-9.827055782E-2,-2.233058661E-1,-1.877526939E-2
4.183082031E0,-1.099884585E-1,-2.233058661E-1,-3.262369707E-2
4.185579271E0,-1.238368824E-1,-2.265016586E-1,-4.327633232E-2
4.188076510E0,-1.227716208E-1,-2.179795504E-1,-4.647212103E-2
4.190573750E0,-1.217063591E-1,-1.892174333E-1,-4.114580527E-2
4.193070989E0,-1.195758283E-1,-1.636511087E-1,-3.688475117E-2
4.195568229E0,-1.195758283E-1,-1.338237375E-1,-3.901527822E-2
4.198065469E0,-1.249021515E-1,-1.189100444E-1,-4.540685937E-2
4.200562708E0,-1.259674132E-1,-1.189100444E-1,-5.073317513E-2
4.203059948E0,-1.302284598E-1,-1.284974068E-1,-6.032054871E-2
4.205557187E0,-1.366200447E-1,-1.487374157E-1,-6.884265691E-2
4.208054427E0,-1.419463605E-1,-1.732384861E-1,-7.416897267E-2
4.210551666E0,-1.451421529E-1,-2.009353340E-1,-7.843002677E-2
4.213048906E0,-1.494032145E-1,-2.211753428E-1,-8.269108087E-2
4.215546146E0,-1.525990069E-1,-2.392848134E-1,-8.695213497E-2
4.218043385E0,-1.557947844E-1,-2.552637756E-1,-8.908266574E-2
4.220540625E0,-1.632516384E-1,-2.755037844E-1,-8.695213497E-2
4.223037864E0,-1.621863693E-1,-2.893522084E-1,-8.269108087E-2
4.225535104E0,-1.643168926E-1,-3.010700941E-1,-7.629950345E-2
4.228032344E0,-1.728390008E-1,-3.085269630E-1,-6.671212614E-2
4.230529583E0,-1.717737466E-1,-3.223753870E-1,-5.605949461E-2
4.233026823E0,-1.728390008E-1,-3.330280185E-1,-4.434159398E-2
4.235524062E0,-1.813611090E-1,-3.372890651E-1,-3.368895873E-2
4.238021302E0,-1.802958548E-1,-3.500722349E-1,-2.410158701E-2
4.240518541E0,-1.856221706E-1,-3.575290740E-1,-1.344895177E-2
4.243015781E0,-1.909484863E-1,-3.681817055E-1,-5.992107093E-3
4.245513021E0,-1.973400712E-1,-3.745732903E-1,4.660528153E-3
4.248010260E0,-2.026663870E-1,-3.841606677E-1,1.424789988E-2
4.250507500E0,-2.111884952E-1,-3.969438076E-1,1.637842692E-2
4.253004739E0,-2.143842876E-1,-4.097269773E-1,1.744369045E-2
4.255501979E0,-2.207758725E-1,-4.299669862E-1,1.957421750E-2
4.257999219E0,-2.261021882E-1,-4.502069950E-1,1.318263635E-2
4.260496458E0,-2.335590273E-1,-4.693817496E-1,1.464737346E-3
4.262993698E0,-2.399506122E-1,-4.757733345E-1,-4.926843569E-3
4.265490937E0,-2.442116588E-1,-4.768385887E-1,-1.131842472E-2
4.267988177E0,-2.506032586E-1,-4.661859572E-1,-1.984053291E-2
4.270485416E0,-2.559295595E-1,-4.470112026E-1,-2.942790464E-2
4.272982656E0,-2.591253519E-1,-4.203796089E-1,-4.221106693E-2
4.275479896E0,-2.655169368E-1,-3.862911761E-1,-5.392896757E-2
4.277977135E0,-2.697779834E-1,-3.500722349E-1,-6.671212614E-2
4.280474375E0,-2.708432376E-1,-3.127880096E-1,-7.949528843E-2
4.282971614E0,-2.719085217E-1,-2.776342928E-1,-9.760477394E-2
4.285468854E0,-2.655169368E-1,-2.488721907E-1,-1.135837212E-1
4.287966146E0,-2.559295595E-1,-2.265016586E-1,-1.338237375E-1
4.290463385E0,-2.431464046E-1,-2.179795504E-1,-1.508679539E-1
4.292960625E0,-2.314285040E-1,-2.137184888E-1,-1.700426936E-1
4.295457864E0,-2.218411267E-1,-2.115879655E-1,-1.892174333E-1
4.297955104E0,-2.090579718E-1,-2.201100737E-1,-2.051963806E-1
4.300452344E0,-2.005358636E-1,-2.350237668E-1,-2.222405970E-1
4.302949583E0,-1.920137554E-1,-2.541985214E-1,-2.360890359E-1
4.305446823E0,-1.781653315E-1,-2.776342928E-1,-2.499374598E-1
4.307944062E0,-1.653821617E-1,-3.042658865E-1,-2.616553605E-1
4.310441302E0,-1.494032145E-1,-3.362238109E-1,-2.712427378E-1
4.312938541E0,-1.366200447E-1,-3.767038286E-1,-2.818953693E-1
4.315435781E0,-1.249021515E-1,-4.246406853E-1,-2.925480008E-1
4.317933021E0,-1.153147742E-1,-4.832301736E-1,-3.021353781E-1
4.320430260E0,-1.121189892E-1,-5.460807085E-1,-3.255711794E-1
4.322927500E0,-1.110537201E-1,-6.131923199E-1,-3.543332815E-1
4.325424739E0,-1.025316119E-1,-6.760428548E-1,-3.756385446E-1
4.327921979E0,-9.933582693E-2,-7.378281355E-1,-3.926827610E-1
4.330419219E0,-8.761792630E-2,-7.974829078E-1,-4.065311849E-1
4.332916458E0,-8.335687220E-2,-8.432892561E-1,-4.203796089E-1
4.335413698E0,-7.590002567E-2,-8.869650364E-1,-4.342280328E-1
4.337911146E0,-6.418212503E-2,-9.242492914E-1,-4.459459484E-1
4.340408646E0,-5.566002056E-2,-9.540766478E-1,-4.565985799E-1
4.342906094E0,-4.607264698E-2,-9.807082415E-1,-4.661859572E-1
4.345403594E0,-3.542001173E-2,-9.945566654E-1,-4.715122581E-1
4.347901041E0,-2.370211296E-2,-1.008405089E0,-4.832301736E-1
4.350398541E0,-1.198421419E-2,-1.026514530E0,-4.885564744E-1
4.352895989E0,2.929474693E-3,-1.041428208E0,-4.874912202E-1
4.355393437E0,1.251684688E-2,-1.061668277E0,-4.832301736E-1
4.357890937E0,2.423474565E-2,-1.078712463E0,-4.779038429E-1
4.360388385E0,3.701790795E-2,-1.090430379E0,-4.565985799E-1
4.362885885E0,5.086633191E-2,-1.093626142E0,-4.352933168E-1
4.365383333E0,6.364949793E-2,-1.091495633E0,-4.118575156E-1
4.367880833E0,8.815055341E-2,-1.086169362E0,-3.852259219E-1
4.370378281E0,1.126516163E-1,-1.066994548E0,-3.490069509E-1
4.372875781E0,1.563274264E-1,-1.070190310E0,-3.085269630E-1
4.375373229E0,2.479400784E-1,-1.145824075E0,-2.520679832E-1
4.377870729E0,3.683148623E-1,-1.239567280E0,-1.881521642E-1
4.380368177E0,4.684496224E-1,-1.299221992E0,-1.316931993E-1
4.382865677E0,5.472791195E-1,-1.308809400E0,-8.056055754E-2
4.385363125E0,6.048033834E-1,-1.254480958E0,-3.155843168E-2
4.387860573E0,6.367612481E-1,-1.155411482E0,6.791055202E-3
4.390358073E0,6.591318250E-1,-1.019057751E0,3.768369555E-2
4.392855521E0,6.815023422E-1,-8.699208498E-1,6.431528181E-2
4.395353021E0,6.942855120E-1,-7.207839489E-1,8.349002898E-2
4.397850469E0,6.996118426E-1,-5.844302177E-1,9.840371460E-2
4.400347969E0,7.006770968E-1,-4.896217585E-1,1.069258228E-1
4.402845416E0,6.910896897E-1,-4.352933168E-1,1.111868769E-1
4.405342916E0,6.825675964E-1,-4.235754013E-1,1.122521460E-1
4.407840364E0,6.804370880E-1,-4.470112026E-1,1.079910919E-1
4.410337864E0,6.804370880E-1,-5.173186064E-1,8.988160640E-2
4.412835312E0,6.783065200E-1,-5.854954720E-1,6.644581258E-2
4.415332812E0,6.612623334E-1,-6.206491590E-1,5.259738490E-2
4.417830260E0,6.356959939E-1,-6.259754896E-1,4.940159619E-2
4.420327760E0,6.101296544E-1,-6.313018203E-1,4.940159619E-2
4.422825208E0,5.856286287E-1,-6.313018203E-1,6.005423144E-2
4.425322656E0,5.653886199E-1,-6.217144132E-1,6.857633591E-2
4.427820156E0,5.494096875E-1,-6.078659892E-1,6.857633591E-2
4.430317604E0,5.270391107E-1,-5.929523110E-1,6.325002015E-2
4.432815104E0,5.131906867E-1,-5.769733787E-1,5.579317734E-2
4.435312552E0,4.929507077E-1,-5.652554631E-1,4.727106914E-2
4.437810052E0,4.631233215E-1,-5.588638783E-1,3.874896094E-2
4.440307500E0,4.471443594E-1,-5.673859715E-1,2.383527160E-2
4.442805000E0,4.460791051E-1,-6.036049724E-1,2.530000871E-3
4.445302448E0,4.460791051E-1,-6.387586594E-1,-1.557947882E-2
4.447799948E0,4.428833127E-1,-6.568681002E-1,-2.836264111E-2
4.450297396E0,4.428833127E-1,-6.717818379E-1,-4.114580527E-2
4.452794896E0,4.428833127E-1,-6.760428548E-1,-5.605949461E-2
4.455292344E0,4.492748976E-1,-6.739123464E-1,-6.458160281E-2
4.457789791E0,4.727106988E-1,-6.941523552E-1,-7.203844935E-2
4.460287291E0,4.940159619E-1,-7.069355249E-1,-7.523423433E-2
4.462784739E0,5.036033392E-1,-6.909565330E-1,-7.416897267E-2
4.465282239E0,5.089296699E-1,-6.707165241E-1,-6.351634115E-2
4.467779687E0,5.185170174E-1,-6.568681002E-1,-4.753738642E-2
4.470277187E0,5.313001871E-1,-6.504765153E-1,-4.221106693E-2
4.472774635E0,5.888243914E-1,-7.335671186E-1,-5.925528333E-2
4.475272135E0,6.825675964E-1,-8.677902818E-1,-9.973529726E-2
4.477769583E0,7.390265465E-1,-9.604682326E-1,-1.242363602E-1
4.480267083E0,7.560707927E-1,-9.828387499E-1,-1.359542608E-1
4.482764531E0,7.539402843E-1,-9.668598175E-1,-1.402153075E-1
4.485262031E0,7.454181314E-1,-9.317061305E-1,-1.444763690E-1
4.487759479E0,7.326349616E-1,-8.848345280E-1,-1.455416232E-1
4.490256979E0,7.049381137E-1,-8.123965859E-1,-1.370195150E-1
4.492754427E0,6.623275876E-1,-7.133271098E-1,-1.189100444E-1
4.495251875E0,6.261086464E-1,-6.110618114E-1,-1.071921438E-1
4.497749375E0,6.005423069E-1,-5.258406997E-1,-1.018658280E-1
4.500246823E0,6.005423069E-1,-4.917522669E-1,-1.018658280E-1
4.502744323E0,6.005423069E-1,-4.853606820E-1,-9.760477394E-2
4.505241771E0,5.856286287E-1,-4.938828051E-1,-8.908266574E-2
4.507739271E0,5.536707044E-1,-5.066659451E-1,-8.908266574E-2
4.510236719E0,5.206475258E-1,-5.151880980E-1,-9.227845073E-2
4.512734219E0,4.908201694E-1,-5.450154543E-1,-9.121318907E-2
4.515231666E0,4.812327921E-1,-5.961480737E-1,-1.082574055E-1
4.517729166E0,4.684496224E-1,-6.419544220E-1,-1.380847842E-1
4.520226614E0,4.620580673E-1,-6.707165241E-1,-1.625858396E-1
4.522724114E0,4.503401518E-1,-6.941523552E-1,-1.657816321E-1
4.525221562E0,4.418180585E-1,-7.325018048E-1,-1.391500533E-1
4.527719010E0,4.301001430E-1,-7.580681443E-1,-1.093226671E-1
4.530216510E0,4.098601341E-1,-7.559376359E-1,-8.162581921E-2
4.532713958E0,3.810980320E-1,-7.346323729E-1,-5.819002166E-2
4.535211458E0,3.448790610E-1,-7.005439401E-1,-3.688475117E-2
4.537708906E0,2.958769500E-1,-6.366280913E-1,-1.771000586E-2
4.540206406E0,2.479400784E-1,-5.652554631E-1,7.856318727E-3
4.542703854E0,1.904158592E-1,-4.874912202E-1,3.661843389E-2
4.545201354E0,1.233042553E-1,-3.873564601E-1,6.325002015E-2
4.547698802E0,6.045370549E-2,-2.893522084E-1,8.455529064E-2
4.550196302E0,6.125265267E-3,-2.051963806E-1,1.015995070E-1
4.552693750E0,-3.648527712E-2,-1.402153075E-1,1.079910919E-1
4.555191250E0,-7.163897157E-2,-9.653950483E-2,1.079910919E-1
4.557688698E0,-1.046621427E-1,-7.203844935E-2,9.840371460E-2
4.560186198E0,-1.259674132E-1,-6.671212614E-2,8.029423654E-2
4.562683646E0,-1.355547905E-1,-8.056055754E-2,4.087948799E-2
4.565181094E0,-1.259674132E-1,-1.071921438E-1,-1.131842472E-2
4.567678594E0,-1.067926660E-1,-1.242363602E-1,-5.392896757E-2
4.570176041E0,-8.548739552E-2,-1.189100444E-1,-8.482161164E-2
4.572673541E0,-6.950844824E-2,-8.269108087E-2,-9.973529726E-2
4.575170989E0,-4.074633121E-2,-4.008053988E-2,-1.018658280E-1
4.577668489E0,-1.837579533E-2,1.464737346E-3,-9.760477394E-2
4.580165937E0,2.929474693E-3,3.874896094E-2,-7.949528843E-2
4.582663437E0,2.743053623E-2,5.259738490E-2,-6.351634115E-2
4.585160885E0,4.447475076E-2,4.727106914E-2,-5.179844052E-2
4.587658385E0,6.151896715E-2,3.448790684E-2,-4.114580527E-2
4.590155833E0,7.110633701E-2,-1.731053228E-3,-3.475422412E-2
4.592653333E0,7.536739111E-2,-4.327633232E-2,-2.729737759E-2
4.595150781E0,8.495476842E-2,-1.071921438E-1,-3.049316816E-2
4.597648229E0,1.169126704E-1,-1.892174333E-1,-4.860264808E-2
4.600145729E0,1.488705724E-1,-2.424806058E-1,-6.458160281E-2
4.602643177E0,1.723063737E-1,-2.882869542E-1,-7.843002677E-2
4.605140677E0,2.031990141E-1,-3.511374891E-1,-1.008005589E-1
4.607638125E0,2.479400784E-1,-4.384891093E-1,-1.359542608E-1
4.610135625E0,3.107906282E-1,-5.471459627E-1,-1.849563867E-1
4.612633073E0,3.864243329E-1,-6.771081090E-1,-2.584595680E-1
4.615130573E0,4.673843682E-1,-8.262450099E-1,-3.394196033E-1
4.617628021E0,5.547359586E-1,-9.881650805E-1,-4.384891093E-1
4.620125521E0,6.325002313E-1,-1.126649380E0,-5.482112169E-1
4.622622969E0,6.889591813E-1,-1.215066195E0,-6.419544220E-1
4.625120469E0,7.166560292E-1,-1.234241009E0,-7.122617960E-1
4.627617916E0,7.091991901E-1,-1.196956754E0,-7.612639666E-1
4.630115416E0,6.751107574E-1,-1.098952532E0,-7.783081532E-1
4.632612864E0,6.218475699E-1,-9.753819108E-1,-7.538071275E-1
4.635110312E0,5.462138653E-1,-8.518113494E-1,-7.080007792E-1
4.637607812E0,4.567317367E-1,-7.048049569E-1,-6.600639224E-1
4.640105260E0,3.608580232E-1,-5.535375476E-1,-6.142575741E-1
4.642602760E0,2.724411488E-1,-4.107922614E-1,-5.524722934E-1
4.645100208E0,1.904158592E-1,-2.840258777E-1,-4.779038429E-1
4.647597708E0,1.190432012E-1,-1.998700649E-1,-4.097269773E-1
4.650095156E0,6.578002125E-2,-1.253016293E-1,-3.436806500E-1
4.652592656E0,3.488738090E-2,-5.392896757E-2,-2.914827466E-1
4.655090104E0,3.275685385E-2,-1.238368824E-2,-2.573943138E-1
4.657587604E0,4.980107024E-2,-1.664474234E-2,-2.414153516E-1
4.660085052E0,7.536739111E-2,-4.647212103E-2,-2.392848134E-1
4.662582552E0,1.041295081E-1,-9.653950483E-2,-2.488721907E-1
4.665080000E0,1.403484643E-1,-1.668469012E-1,-2.680469453E-1
4.667577448E0,1.744368970E-1,-2.467416674E-1,-2.978743017E-1
4.670074948E0,2.106558681E-1,-3.319627345E-1,-3.308974802E-1
4.672572396E0,2.490053475E-1,-4.214448929E-1,-3.713774979E-1
4.675069896E0,2.777674496E-1,-5.077311993E-1,-4.161185622E-1
4.677567344E0,3.107906282E-1,-5.854954720E-1,-4.661859572E-1
4.680064844E0,3.331611753E-1,-6.355628371E-1,-5.162533522E-1
4.682562291E0,3.555316925E-1,-6.717818379E-1,-5.577986240E-1
4.685059791E0,3.640538156E-1,-6.920218468E-1,-5.918870568E-1
4.687557239E0,3.565969765E-1,-6.930871010E-1,-6.195839047E-1
4.690054739E0,3.470095992E-1,-6.845649481E-1,-6.408891678E-1
4.692552187E0,3.225085437E-1,-6.675207615E-1,-6.494112611E-1
4.695049687E0,3.001379967E-1,-6.366280913E-1,-6.515418291E-1
4.697547135E0,2.756369412E-1,-5.908218026E-1,-6.483460069E-1
4.700044635E0,2.351569235E-1,-5.173186064E-1,-6.323670745E-1
4.702542083E0,2.031990141E-1,-4.491417408E-1,-6.121270657E-1
4.705039531E0,1.723063737E-1,-3.852259219E-1,-5.886912346E-1
4.707537031E0,1.552621573E-1,-3.458111584E-1,-5.673859715E-1
4.710034479E0,1.510011107E-1,-3.255711794E-1,-5.428849459E-1
4.712531979E0,1.435442567E-1,-3.085269630E-1,-5.205143690E-1
4.715029427E0,1.275653094E-1,-2.616553605E-1,-4.747080505E-1
4.717526927E0,1.030642465E-1,-2.009353340E-1,-4.246406853E-1
4.720024375E0,7.430212945E-2,-1.455416232E-1,-3.745732903E-1
4.722521875E0,3.595264256E-2,-6.671212614E-2,-3.095922172E-1
4.725019323E0,-2.396842930E-3,2.809632570E-2,-2.371542901E-1
4.727516823E0,-3.861580417E-2,1.047952995E-1,-1.679121703E-1
4.730014271E0,-5.992107466E-2,1.463405788E-1,-1.082574055E-1
4.732511771E0,-7.803055644E-2,1.527321637E-1,-6.351634115E-2
4.735009219E0,-9.187898040E-2,1.303616166E-1,-3.475422412E-2
4.737506666E0,-1.142495126E-1,1.111868769E-1,-1.131842472E-2
4.740004166E0,-1.344895214E-1,8.775108308E-2,1.211737283E-2
4.742501614E0,-1.483379453E-1,7.070686668E-2,1.850895397E-2
4.744999114E0,-1.643168926E-1,7.816371322E-2,1.957421750E-2
4.747496562E0,-1.834916472E-1,1.026647687E-1,1.850895397E-2
4.749994062E0,-1.994705945E-1,1.133174077E-1,5.725791678E-3
4.752491510E0,-1.994705945E-1,1.133174077E-1,-4.926843569E-3
4.754989010E0,-1.984053254E-1,1.143826693E-1,-1.557947882E-2
4.757486458E0,-2.026663870E-1,1.303616166E-1,-2.303632349E-2
4.759983958E0,-2.037316561E-1,1.431447864E-1,-3.049316816E-2
4.762481406E0,-1.973400712E-1,1.495363712E-1,-4.221106693E-2
4.764978906E0,-1.994705945E-1,1.644500494E-1,-5.073317513E-2
4.767476354E0,-2.026663870E-1,1.782984883E-1,-5.286370218E-2
4.769973854E0,-1.984053254E-1,1.825595349E-1,-5.286370218E-2
4.772471302E0,-2.005358636E-1,2.027995437E-1,-5.179844052E-2
4.774968750E0,-2.058621794E-1,2.251700759E-1,-4.647212103E-2
4.777466250E0,-2.122537643E-1,2.496711314E-1,-4.540685937E-2
4.779963698E0,-2.175800800E-1,2.667153478E-1,-4.540685937E-2
4.782461198E0,-2.282327116E-1,2.805637717E-1,-4.221106693E-2
4.784958646E0,-2.378200889E-1,2.954774797E-1,-4.540685937E-2
4.787456146E0,-2.431464046E-1,3.125216961E-1,-5.286370218E-2
4.789953594E0,-2.463421971E-1,3.210437894E-1,-6.138581038E-2
4.792451094E0,-2.452769279E-1,3.348922133E-1,-7.310371101E-2
4.794948541E0,-2.431464046E-1,3.455448449E-1,-8.056055754E-2
4.797446041E0,-2.410158664E-1,3.561974764E-1,-8.695213497E-2
4.799943489E0,-2.442116588E-1,3.732416928E-1,-8.588687330E-2
4.802440989E0,-2.527337670E-1,3.988080323E-1,-8.482161164E-2
4.804938437E0,-2.633863986E-1,4.275701344E-1,-7.629950345E-2
4.807435885E0,-2.655169368E-1,4.488754272E-1,-5.499422923E-2
4.809933385E0,-2.719085217E-1,4.669848979E-1,-2.623211406E-2
4.812430833E0,-2.708432376E-1,4.776375294E-1,5.725791678E-3
4.814928333E0,-2.708432376E-1,4.712459445E-1,3.342264146E-2
4.817425781E0,-2.623211443E-1,4.531364739E-1,6.325002015E-2
4.819923281E0,-2.474074513E-1,4.307659268E-1,9.201213717E-2
4.822420729E0,-2.431464046E-1,4.094606638E-1,1.111868769E-1
4.824918229E0,-2.271674424E-1,3.892206550E-1,1.271658391E-1
4.827415677E0,-2.154495418E-1,3.657848537E-1,1.335574090E-1
4.829913177E0,-2.069274336E-1,3.380880058E-1,1.250353009E-1
4.832410625E0,-1.920137554E-1,3.061301112E-1,1.165132001E-1
4.834908125E0,-1.792305857E-1,2.688458860E-1,9.946898371E-2
4.837405469E0,-1.696432233E-1,2.304963917E-1,6.857633591E-2
4.839902760E0,-1.611211151E-1,1.868205965E-1,4.301001504E-2
4.842400052E0,-1.557947844E-1,1.495363712E-1,2.490053512E-2
4.844897291E0,-1.547295302E-1,1.186437234E-1,5.725791678E-3
4.847394583E0,-1.494032145E-1,9.946898371E-2,-5.992107093E-3
4.849891875E0,-1.419463605E-1,8.668582141E-2,-1.131842472E-2
4.852389166E0,-1.302284598E-1,8.349002898E-2,-1.131842472E-2
4.854886406E0,-1.238368824E-1,8.988160640E-2,-9.187897667E-3
4.857383698E0,-1.174453050E-1,1.058605611E-1,-3.861580277E-3
4.859880989E0,-1.078579351E-1,1.197089851E-1,4.660528153E-3
4.862378281E0,-1.046621427E-1,1.292963624E-1,9.986845776E-3
4.864875521E0,-9.827055782E-2,1.324921548E-1,1.744369045E-2
4.867372812E0,-9.400950372E-2,1.388837248E-1,2.916158922E-2
4.869870104E0,-9.294424206E-2,1.399489939E-1,3.874896094E-2
4.872367396E0,-9.294424206E-2,1.420795172E-1,4.514054209E-2
4.874864635E0,-8.442213386E-2,1.324921548E-1,5.153212324E-2
4.877361927E0,-7.696528733E-2,1.133174077E-1,5.685843900E-2
4.879859219E0,-6.950844824E-2,8.881634474E-2,5.898896605E-2
4.882356510E0,-6.631265581E-2,6.857633591E-2,6.218475848E-2
4.884853750E0,-5.779054761E-2,5.046685785E-2,6.857633591E-2
4.887351041E0,-5.246422812E-2,3.235737979E-2,7.070686668E-2
4.889848333E0,-4.820317402E-2,1.957421750E-2,7.709844410E-2
4.892345625E0,-4.074633121E-2,5.725791678E-3,8.242476732E-2
4.894842864E0,-2.689790353E-2,-8.122634143E-3,8.455529064E-2
4.897340156E0,-1.411474124E-2,-1.771000586E-2,9.094687551E-2
4.899837448E0,-4.527369980E-3,-2.303632349E-2,9.414266050E-2
4.902334739E0,2.929474693E-3,-2.090579644E-2,9.414266050E-2
4.904831979E0,3.994738217E-3,-1.664474234E-2,9.307739884E-2
4.907329271E0,1.864211168E-3,-1.557947882E-2,8.562055230E-2
4.909826562E0,-2.396842930E-3,-7.057370618E-3,7.922897488E-2
4.912323854E0,-8.788423613E-3,-2.796316752E-3,7.496792078E-2
4.914821094E0,-1.518000476E-2,-6.657897029E-4,6.644581258E-2
4.917318385E0,-2.902843058E-2,1.464737346E-3,5.579317734E-2
4.919815677E0,-3.435475007E-2,-4.926843569E-3,4.620580375E-2
4.922312969E0,-3.861580417E-2,-1.557947882E-2,3.129211441E-2
4.924810260E0,-4.394211993E-2,-2.516685054E-2,1.744369045E-2
4.927307500E0,-4.287685826E-2,-4.114580527E-2,-1.731053228E-3
4.929804791E0,-3.861580417E-2,-6.032054871E-2,-2.090579644E-2
4.932302083E0,-3.755053878E-2,-6.777739525E-2,-3.368895873E-2
4.934799375E0,-3.222422302E-2,-7.843002677E-2,-4.540685937E-2
4.937296614E0,-2.476737648E-2,-9.014792740E-2,-5.605949461E-2
4.939793906E0,-2.050632238E-2,-9.440898150E-2,-6.245107576E-2
4.942291198E0,-1.411474124E-2,-9.760477394E-2,-5.819002166E-2
4.944788489E0,-2.396842930E-3,-1.008005589E-1,-5.925528333E-2
4.947285729E0,3.994738217E-3,-9.973529726E-2,-5.499422923E-2
4.949783021E0,1.145158336E-2,-9.440898150E-2,-4.327633232E-2
4.952280312E0,2.103895508E-2,-8.482161164E-2,-3.688475117E-2
4.954777604E0,2.636527270E-2,-8.162581921E-2,-3.795001283E-2
4.957274844E0,3.169158846E-2,-7.416897267E-2,-2.836264111E-2
4.959772135E0,3.808316961E-2,-7.416897267E-2,-2.303632349E-2
