"Time (s)","Acceleration x (m/s^2)","Acceleration y (m/s^2)","Acceleration z (m/s^2)"
0.000000000E0,-2.950853586E0,4.420893669E0,9.546878815E0
2.169487500E-2,-3.890577793E0,3.746925592E0,1.012148762E1
3.750017800E-2,-4.484339714E0,3.066972494E0,9.081207275E0
5.040052200E-2,-4.825513363E0,3.019088268E0,7.839813232E0
6.185396300E-2,-4.789600372E0,3.183091164E0,6.994660378E0
7.258062600E-2,-4.495113850E0,3.590105534E0,6.523002625E0
8.295172600E-2,-3.989937067E0,3.989937067E0,6.876147270E0
9.313356500E-2,-3.697844505E0,4.352658749E0,7.510610580E0
1.032243880E-1,-3.873818398E0,4.574122429E0,7.830236435E0
1.132625690E-1,-4.176684856E0,4.509479046E0,8.074444771E0
1.232839090E-1,-4.255693436E0,4.185064793E0,8.628703117E0
1.333020410E-1,-4.149151325E0,3.888183594E0,8.200140953E0
1.433032220E-1,-4.261679173E0,3.806780815E0,7.114370346E0
1.533797360E-1,-4.042609692E0,3.884592295E0,6.138733387E0
1.633527040E-1,-3.900154591E0,3.957615376E0,5.699397087E0
1.733313040E-1,-4.289212227E0,4.012681961E0,5.849034786E0
1.833265080E-1,-4.820724964E0,3.702632904E0,7.019799232E0
1.933294560E-1,-4.960785866E0,3.523067713E0,8.213309288E0
2.033280070E-1,-5.220556736E0,3.391386747E0,8.037335396E0
2.133154740E-1,-5.895721912E0,2.868253708E0,7.223306656E0
2.233100730E-1,-5.857414246E0,1.899798989E0,6.865373611E0
2.333075840E-1,-4.912901878E0,1.018732786E0,6.217741966E0
2.433187240E-1,-3.967192173E0,7.841010690E-1,6.461950302E0
2.533088910E-1,-4.177882195E0,1.710657120E0,7.174225330E0
2.633027050E-1,-3.866635799E0,2.499546528E0,7.365761757E0
2.733010930E-1,-3.248931646E0,2.774879694E0,7.966706276E0
2.833046710E-1,-3.920505285E0,2.906560898E0,8.459911346E0
2.933035370E-1,-2.955641985E0,2.776076794E0,8.285135269E0
3.033038360E-1,-3.363853455E0,2.748543501E0,9.350554466E0
3.133097740E-1,-3.438073635E0,2.797624588E0,9.755174637E0
3.233967620E-1,-2.886210203E0,2.396595955E0,1.012148762E1
3.333956790E-1,-2.303221941E0,1.723825216E0,1.074038887E1
3.433490990E-1,-1.495178938E0,1.996764183E0,1.136767006E1
3.533226740E-1,-1.522712231E0,2.549824715E0,1.112226391E1
3.634404420E-1,-1.468842745E0,3.092111588E0,1.083017159E1
3.733916530E-1,-1.551442742E0,3.326743364E0,1.068651962E1
3.833462400E-1,-1.631648421E0,2.880224705E0,1.034893703E1
3.933263020E-1,-1.770512104E0,2.196680069E0,1.033696556E1
4.033138910E-1,-2.044648170E0,2.540247917E0,9.815030098E0
4.133071660E-1,-2.214636564E0,2.557007313E0,9.475052834E0
4.233006310E-1,-1.604115129E0,2.661155224E0,9.211690903E0
4.332994790E-1,-1.320402265E0,3.882198095E0,8.926780701E0
4.432972680E-1,-7.242460251E-1,4.004302502E0,9.674968719E0
4.532985660E-1,-1.247379065E0,2.755726099E0,1.032738876E1
4.632958880E-1,-1.150413871E0,2.337938070E0,1.147062016E1
4.732939530E-1,-2.394201756E0,3.041833162E0,1.046026707E1
4.832998700E-1,-2.450465441E0,1.862688899E0,1.003170490E1
4.932965980E-1,-3.242946148E0,2.282871246E0,9.888052940E0
5.032979620E-1,-3.466804028E0,5.040991783E0,7.957129478E0
5.133057020E-1,-3.022679567E0,1.905784607E0,7.995436668E0
5.233088990E-1,-3.367444754E0,8.224082589E-1,8.206126213E0
5.333083820E-1,-3.957615376E0,2.149993181E0,8.440757751E0
5.433058540E-1,-3.512293816E0,3.681085110E0,8.507795334E0
5.533290900E-1,-3.531447411E0,4.173093796E0,7.987056732E0
5.633194000E-1,-3.496731520E0,3.681085110E0,8.033743858E0
5.733167280E-1,-5.145139217E0,1.118092179E0,6.795941353E0
5.833200850E-1,-6.252457619E0,-1.748964310E0,6.509834290E0
5.933151090E-1,-6.173449039E0,-3.226186752E0,6.345831394E0
6.033141210E-1,-5.838260651E0,1.584961534E0,5.517437935E0
6.133203390E-1,-4.091690540E0,3.081337690E0,7.196970463E0
6.234997360E-1,-1.914164305E0,1.681926727E0,8.846575737E0
6.334055120E-1,-1.996764183E0,-1.908178806E0,1.030584145E1
6.433596310E-1,-3.307589531E0,3.434482336E0,3.351882458E0
6.533336900E-1,-8.451532125E-1,5.506663799E0,9.451110840E0
6.635188730E-1,-1.547851443E0,7.380126953E0,8.858546257E0
6.734117730E-1,-5.770025849E-1,7.189787865E0,9.441534042E0
6.836946840E-1,1.074996591E0,5.374982834E0,8.076839447E0
6.935025820E-1,2.163161278E0,5.676652431E0,8.966285706E0
7.034066660E-1,1.613691926E0,4.839878559E0,8.662221909E0
7.133583420E-1,2.837128937E-1,2.726995707E0,9.940725327E0
7.233273730E-1,3.687070608E-1,6.069301367E-1,9.963470459E0
7.333125420E-1,8.212111592E-1,-9.253589511E-1,8.185775757E0
7.433082800E-1,1.078587890E0,-2.631227732E0,6.106411457E0
7.533027070E-1,1.479616642E0,-3.387795448E0,3.945644379E0
7.633064970E-1,1.764526606E0,-3.458424330E0,3.269282341E0
7.733017960E-1,1.516726732E0,-2.245761156E0,2.580949545E0
7.833520610E-1,1.313219666E0,-3.999513865E0,4.521450043E0
7.933387510E-1,5.135562420E-1,-5.843049049E0,6.533776283E0
8.033591150E-1,-1.041477770E-1,-4.866214752E0,6.410475254E0
8.133503170E-1,6.584054977E-2,-3.742137194E0,5.294776917E0
8.233350520E-1,5.063736439E-1,-4.201824188E0,5.146336555E0
8.333298810E-1,7.817068696E-1,-7.131129742E0,6.918045998E0
8.433232570E-1,-1.006761789E0,-8.208520889E0,1.672349930E0
8.533229650E-1,-2.540247917E0,-1.009395409E1,1.798045516E0
8.633438380E-1,-4.547786236E0,-9.914389610E0,3.493140221E0
8.733372740E-1,-5.942408562E0,-8.629899979E0,5.012261391E0
8.833258770E-1,-6.813898087E0,-7.416039944E0,6.791152954E0
8.933203130E-1,-7.195773125E0,-6.245275021E0,8.616731644E0
9.033215500E-1,-7.072471619E0,-6.162675381E0,8.736441612E0
9.133234960E-1,-7.028179169E0,-7.035361767E0,8.419210434E0
9.233567570E-1,-7.350199223E0,-7.724891663E0,7.734468460E0
9.333485220E-1,-7.916428089E0,-8.222886086E0,6.835445881E0
9.433370780E-1,-8.273163795E0,-8.238448143E0,6.098031521E0
9.533264330E-1,-8.881291389E0,-8.962694168E0,5.645527840E0
9.633310530E-1,-1.075834560E1,-1.016697788E1,4.094084740E0
9.733296320E-1,-1.291312695E1,-1.166335392E1,2.925714493E0
9.833276520E-1,-1.482609367E1,-1.296340466E1,2.446874142E0
9.933256040E-1,-1.628536034E1,-1.344104862E1,2.647987127E0
1.003320273E0,-1.656308746E1,-1.227986050E1,3.980360270E0
1.013378588E0,-1.574427032E1,-1.028549004E1,5.771223068E0
1.023354072E0,-1.483447361E1,-7.606379032E0,7.201758862E0
1.033333410E0,-1.434845066E1,-5.527014732E0,7.949946880E0
1.043328791E0,-1.359667110E1,-4.745307922E0,8.736441612E0
1.053328289E0,-1.295023727E1,-5.096058369E0,8.364143372E0
1.063327865E0,-1.361223412E1,-6.137536049E0,6.758831501E0
1.073321845E0,-1.437957573E1,-7.559691906E0,4.856637955E0
1.083313989E0,-1.510861015E1,-1.004966164E1,4.777629375E0
1.093309292E0,-1.665765762E1,-1.119289303E1,4.317942619E0
1.103310597E0,-1.767758751E1,-1.016458321E1,3.417722940E0
1.113318500E0,-1.692341423E1,-7.382521152E0,3.845088005E0
1.123313105E0,-1.632007599E1,-6.556521416E0,4.382586002E0
1.133324408E0,-1.634282112E1,-5.714959621E0,9.238027573E0
1.146280752E0,-1.559822369E1,-1.936909199E0,2.019868279E1
1.163325288E0,-1.379539013E1,-1.637633920E0,2.037705040E1
1.174155365E0,-1.314536476E1,-5.617994308E0,1.244506073E1
1.183315019E0,-1.340872669E1,-8.259995461E0,7.297526836E0
1.193322865E0,-1.275989819E1,-8.974664688E0,4.560954094E0
1.203327288E0,-1.241273880E1,-1.107318306E1,2.979583979E0
1.213309942E0,-1.348534107E1,-1.159272480E1,4.716577232E-1
1.223326249E0,-1.194586945E1,-9.630676270E0,-2.331952572E0
1.233304672E0,-8.317456245E0,-7.631517887E0,-6.703764796E-1
1.243334019E0,-5.934029102E0,-6.939593792E0,-8.044517636E-1
1.253305557E0,-4.019864559E0,-6.744466305E0,-2.742558002E0
1.263298788E0,-2.205059767E0,-6.605602264E0,-1.221042871E0
1.273312672E0,-1.974019289E0,-6.886921406E0,2.371456861E0
1.283292903E0,-4.630385876E0,-7.728483200E0,3.530250311E0
1.293299288E0,-5.000290394E0,-7.335834026E0,1.740584612E0
1.303292788E0,-3.570951939E0,-6.847416878E0,-1.175553083E0
1.313293442E0,-3.464409828E0,-7.461529732E0,-2.937685490E0
1.323372018E0,-1.590947032E0,-5.129577160E0,-1.426944256E0
1.333314595E0,-2.631227732E0,-4.456806660E0,5.851428986E0
1.343295480E0,-5.924452305E0,-4.520252705E0,5.808333397E0
1.353294288E0,-7.784746647E0,-4.588487625E0,2.298433542E0
1.363323365E0,-7.714118004E0,-4.463989258E0,1.221042871E-1
1.373318672E0,-7.013813972E0,-4.757278919E0,-9.959878922E-1
1.383304249E0,-7.516596317E0,-4.927267075E0,-1.810016513E0
1.393318557E0,-1.576222706E1,-5.052962780E0,-4.577713490E0
1.403312288E0,-1.205360889E1,-4.868608952E0,-6.138733387E0
1.413331018E0,-5.125985622E0,2.920926213E-1,-7.902062893E0
1.423321595E0,1.491587639E0,3.471592441E-2,9.696517140E-2
1.433322903E0,4.680664539E0,-1.927332431E-1,4.764461517E-1
1.443577865E0,2.585737705E-1,-3.481169224E0,-1.960851192E0
1.453449518E0,-7.062895298E-1,-4.624400616E0,-3.831919909E0
1.463317134E0,4.967968464E-1,-5.203797340E0,-1.369483352E0
1.473321711E0,1.889025092E0,-4.230554581E0,6.200982332E-1
1.483318749E0,3.471592367E-1,-5.464765549E0,7.206547260E-1
1.493316326E0,-1.425747156E0,-4.568136692E0,-2.729389966E-1
1.503313672E0,-2.029085875E0,-3.679888010E0,-5.518634915E-1
1.513329288E0,-2.279279947E0,-3.854664803E0,2.250549644E-1
1.523349249E0,-3.050212860E0,-4.596867263E-1,-2.908954918E-1
1.533309249E0,-4.606443882E0,-3.585317135E0,7.936778665E-1
1.543315711E0,-5.401319027E0,-3.488351822E0,-1.672349930E0
1.553308711E0,-6.433219910E0,-3.604470730E0,-3.548206806E0
1.563578864E0,-7.553706169E0,-4.759673119E0,-4.244919777E0
1.573319903E0,-7.630321026E0,-6.402095318E0,-4.914099216E0
1.583311864E0,-7.680599213E0,-8.880094528E0,-4.273650169E0
1.593299326E0,-6.228515625E0,-1.146104336E1,-3.371036053E0
1.603299595E0,-6.847416878E0,-1.294544888E1,-5.060145378E0
1.613298595E0,-5.789179802E0,-1.273954678E1,-4.035427094E0
1.623302941E0,-7.208941460E0,-1.059913063E1,-3.702632904E0
1.633296018E0,-7.898471355E0,-1.139640045E1,1.401805043E0
1.643298864E0,-7.381323814E0,-1.038245583E1,1.515529633E0
1.653480557E0,-5.228936672E0,-9.655815125E0,-8.774749041E-1
1.663421634E0,-5.045780182E0,-1.123000336E1,-4.668693244E-1
1.673347480E0,-7.357381821E0,-1.368046856E1,-3.292027235E0
1.683325557E0,-8.985439301E0,-1.460941887E1,-6.113594055E0
1.693331980E0,-8.793902397E0,-1.435683060E1,-5.916072369E0
1.703327557E0,-6.305130005E0,-1.150413895E1,-5.195417881E0
1.713316749E0,-4.212597847E0,-1.045787334E1,-4.744110584E0
1.723377903E0,-2.572569609E0,-1.007958889E1,-6.117185116E0
1.733332749E0,-2.928108692E0,-1.010353088E1,-6.062118530E0
1.743350287E0,-2.959233284E0,-7.839813232E0,-4.316745758E0
1.753324941E0,-1.768117905E0,-6.937199593E0,-1.233013868E-1
1.763321441E0,-7.900865674E-1,-4.904522419E0,2.901772499E0
1.773325095E0,-2.126051188E0,-4.168305397E0,2.087743998E0
1.783307749E0,-3.799597979E0,-6.021417141E0,2.426523447E0
1.793329864E0,-8.615534782E0,-7.098807812E0,-1.957259893E0
1.803318595E0,-1.445259857E1,-6.494272232E0,-4.104858875E0
1.813306480E0,-1.518163300E1,-4.213795185E0,-2.116474390E0
1.823316326E0,-8.825027466E0,-1.535880446E0,-2.354697466E0
1.833301941E0,-4.197035789E0,-1.076193690E0,4.525041282E-1
1.843316172E0,-2.363077164E0,-2.509123325E0,-1.568202078E-1
1.853309249E0,-2.570175409E0,-3.547009706E0,7.613561153E-1
1.863316210E0,-3.746925592E0,-4.070142746E0,5.099649429E-1
1.873332941E0,-2.693476915E0,-7.921216488E0,3.676296711E0
1.883316057E0,-3.229778051E0,-3.393780947E0,-3.746925592E-1
1.893302057E0,-4.897339344E0,-5.081693172E0,-5.498284340E0
1.903322941E0,-4.562151432E0,-6.388927460E0,-3.240551949E0
1.913303980E0,-3.315969467E0,-5.341464043E0,-3.890577853E-1
1.923314018E0,-1.659181833E0,-3.219004154E0,-6.300341606E0
1.933324557E0,-1.964442492E0,-1.086847878E1,-3.381809950E0
1.943295249E0,-2.868253708E0,-8.888473511E0,-1.121683478E0
1.953333056E0,-3.523067713E0,-7.501033783E0,-2.764105797E0
1.963313403E0,-3.076549292E0,-1.595136929E1,-2.913743496E0
1.973301095E0,-1.788468719E0,-8.663418770E0,-4.341884613E0
1.983309056E0,-2.625242233E0,-5.307945251E0,-2.710236311E0
1.993296210E0,2.226607651E-1,-8.538920403E0,-1.146343803E1
2.003467403E0,1.038844109E1,-1.197938824E1,1.574187636E0
2.013323287E0,1.118211937E1,-9.472659111E0,2.628833532E0
2.023304826E0,6.986280441E0,-1.325310326E1,2.535459518E0
2.033306826E0,2.497152328E0,-1.497692871E1,1.807622313E0
2.043299287E0,1.598129630E0,-1.606868553E1,9.588778019E-1
2.053314672E0,2.633621991E-1,-1.673906136E1,1.660378933E0
2.063336056E0,-2.681505978E-1,-1.518163300E1,1.137245774E0
2.073303210E0,-1.388636976E-1,-1.385165405E1,9.947907925E-1
2.083290172E0,5.398924947E-1,-1.227626896E1,1.248576164E0
2.093292710E0,3.628412724E0,-8.319850922E0,2.810792685E0
2.103310672E0,2.966415882E0,-1.010592556E1,9.576806799E-3
2.113294018E0,-8.966285586E-1,-1.042914295E1,-1.284489155E0
2.123300518E0,-2.342726469E0,-8.732851028E0,-1.003170490E0
2.133301095E0,-3.511096716E0,-7.951143742E0,-1.091755986E0
2.143298133E0,-4.635174274E0,-8.093599319E0,-8.870517015E-1
2.153318787E0,-7.115567684E0,-1.127070427E1,-1.079784989E0
2.163299595E0,-6.479907036E0,-9.813833237E0,1.033097982E0
2.173310595E0,-3.564966440E0,-8.738836288E0,7.793126702E-1
2.183297172E0,6.189011335E-1,-3.882198095E0,3.715801001E0
2.193336056E0,-2.226607651E-1,-1.007839203E1,-5.937620401E-1
2.203320018E0,7.182604820E-2,-8.390480042E0,3.866635859E-1
2.213303364E0,-4.010287821E-1,-6.829460144E0,1.042674899E0
2.223308172E0,-2.154781483E-2,-1.188721180E1,7.074866295E-1
2.233300479E0,1.564610839E0,-1.459864521E1,7.757213712E-1
2.243298172E0,2.647987127E0,-1.451245403E1,5.554547906E-1
2.253305133E0,2.861071110E0,-1.448731422E1,7.062895298E-1
2.263301325E0,4.499902248E0,-1.956062698E1,6.392518282E-1
2.273599172E0,2.858676910E0,-1.532528496E1,1.561019540E0
2.283306479E0,6.248866320E-1,-1.589989376E1,3.238157749E0
2.293313595E0,-1.424550056E0,-1.815762520E1,4.577713490E0
2.303326018E0,-1.708262920E0,-1.876695061E1,5.289988518E0
2.313355325E0,-7.074866295E-1,-1.742619705E1,4.058171749E0
2.323334095E0,1.352723986E-1,-1.181897640E1,1.915361360E-2
2.333389287E0,4.237737060E-1,-2.749740601E0,-9.612720013E-1
2.343312441E0,2.966415882E0,-1.077390742E-2,-2.668337822E0
2.353373133E0,3.059789658E0,-3.427299738E0,-2.946065187E0
2.363305479E0,1.895010591E0,-5.019443989E0,3.890577853E-1
2.373305210E0,-9.181763530E-1,1.823184609E0,1.723825216E0
2.383301210E0,-6.260837317E-1,-4.796782970E0,-9.433154464E-1
2.393312864E0,5.051765442E-1,-9.894038200E0,-1.173158810E-1
2.403307787E0,1.446097851E0,-1.236365795E1,1.430535555E0
2.413303710E0,2.298433542E0,-1.267250919E1,2.592920542E0
2.423637287E0,2.124854088E0,-1.148738003E1,2.784456491E0
2.433303402E0,1.521515131E0,-1.013345909E1,1.814804912E0
2.443306979E0,1.739387512E0,-9.376891136E0,1.647210717E0
2.453306710E0,1.662773132E0,-9.646238327E0,1.813607812E0
2.463306210E0,1.259350061E0,-9.249998093E0,1.145625472E0
2.473301595E0,7.074866295E-1,4.065354347E0,7.852981687E-1
2.483295864E0,2.755726099E0,2.831143618E0,4.495113850E0
2.493295248E0,2.938882589E0,4.424484730E0,-2.238578647E-1
2.503309171E0,1.984793186E0,3.974374831E-1,1.186326981E0
2.513293210E0,-1.228225470E0,-1.375468850E0,7.133523941E0
2.523293671E0,-1.999158382E0,-4.708197594E0,5.544970989E0
2.533301056E0,-5.890933514E0,-1.080742645E1,9.006986618E0
2.543313479E0,-4.595670223E0,-1.058237171E1,4.906916618E0
2.553326748E0,4.896142483E-1,-6.739677906E0,-6.217741966E0
2.563354864E0,-2.023100406E-1,-1.018014526E1,6.823474914E-2
2.573315748E0,-4.118026793E-1,-1.387679291E1,-5.985504016E-3
2.583322402E0,-2.766499996E0,-1.823663521E1,4.046200752E0
2.593326018E0,-6.174646378E0,-2.371935654E1,3.881000996E0
2.603329210E0,-6.836642742E0,-2.251507187E1,3.329137564E0
2.613318094E0,-6.184223175E0,-1.739148140E1,7.374141216E-1
2.623301556E0,-2.961627483E0,-1.648407936E1,8.259996027E-2
2.633318556E0,1.843535304E0,-1.682285881E1,9.504981041E-1
2.643312248E0,6.424840450E0,-1.764526558E1,2.881421804E0
2.653311248E0,8.570044518E0,-1.615248108E1,6.822277546E0
2.663310864E0,6.785167694E0,-1.109832191E1,4.709394932E0
2.673319402E0,3.021482468E0,-6.270414352E0,3.420117140E0
2.683323056E0,1.091755986E0,-3.800795317E0,1.778891921E0
2.693324364E0,4.525041282E-1,-4.471171856E0,2.257732153E0
2.703342517E0,6.584054828E-1,-8.039729118E0,2.419340849E0
2.713314479E0,-7.182605099E-3,-9.567230225E0,2.841917515E0
2.723331287E0,-2.214636505E-1,-1.046984386E1,2.646790028E0
2.733321556E0,4.967968464E-1,-1.009515190E1,3.035847664E0
2.743320133E0,9.109937549E-1,-9.544485092E0,3.041833162E0
2.753333441E0,1.268926859E0,-9.173383713E0,3.055001259E0
2.763316287E0,1.392228246E0,-8.786720276E0,2.931699991E0
2.773323671E0,1.438915253E0,-8.513781548E0,2.780865192E0
2.783327017E0,1.216254473E0,-8.390480042E0,2.801215887E0
2.793309710E0,9.265560508E-1,-8.477868080E0,3.026270866E0
2.803360864E0,5.494692922E-1,-8.526948929E0,3.259705544E0
2.813345210E0,3.040636182E-1,-8.672995567E0,3.544615507E0
2.823326440E0,1.472434103E-1,-8.998606682E0,3.679888010E0
2.833325556E0,6.584054977E-2,-9.115922928E0,3.647566319E0
2.843324671E0,1.891419291E-1,-9.178172112E0,3.714603901E0
2.853496787E0,3.124433160E-1,-9.259574890E0,3.708618402E0
2.863325440E0,4.656722248E-1,-9.374496460E0,3.683479309E0
2.873334248E0,4.477157295E-1,-9.147047997E0,3.731363297E0
2.883330248E0,4.118026793E-1,-9.089587212E0,3.701435804E0
2.893334287E0,3.758896589E-1,-9.185355186E0,3.766079187E0
2.903378325E0,2.082955539E-1,-9.119514465E0,3.748122692E0
2.913309748E0,1.328781992E-1,-9.114726067E0,3.703830004E0
2.923332440E0,4.668693244E-2,-9.085995674E0,3.616441727E0
2.933342825E0,6.464344263E-2,-9.048885345E0,3.552995205E0
2.943301517E0,1.256955862E-1,-8.956708908E0,3.494337320E0
2.953299479E0,2.358288616E-1,-8.962694168E0,3.468001127E0
2.963303287E0,2.130839527E-1,-8.734047890E0,3.541024208E0
2.973304594E0,1.987187415E-1,-8.672995567E0,3.755305290E0
2.983342787E0,1.556231081E-1,-8.718485832E0,3.981557369E0
2.993302594E0,4.548983276E-2,-8.689755440E0,4.163516521E0
3.003311517E0,-1.747767180E-1,-8.664615631E0,4.131195068E0
3.013301094E0,-1.711854190E-1,-8.700529099E0,3.938461781E0
3.023303171E0,-1.268926859E-1,-8.771158218E0,3.779247284E0
3.033312594E0,-8.619125932E-2,-8.823830605E0,3.714603901E0
3.043300940E0,-2.035071515E-2,-8.927978516E0,3.818751812E0
3.053304517E0,5.746084079E-2,-9.150638580E0,4.016273499E0
3.063303863E0,9.935937077E-2,-9.265560150E0,4.217386246E0
3.073300748E0,9.816227108E-2,-9.276334763E0,4.490325451E0
3.083319479E0,5.506663769E-2,-9.123106003E0,4.727351189E0
3.093302825E0,5.506663769E-2,-8.876502991E0,4.776432514E0
3.103437440E0,7.781155407E-2,-8.625111580E0,4.566939831E0
3.113318325E0,1.400607973E-1,-8.330624580E0,4.328716755E0
3.123303671E0,2.657563984E-1,-8.097189903E0,3.956418276E0
3.133317633E0,3.866635859E-1,-8.049305916E0,3.713406801E0
3.143309440E0,4.632780254E-1,-8.178592682E0,3.622427225E0
3.153316863E0,5.901707411E-1,-8.330624580E0,3.333925962E0
3.163313671E0,7.110779285E-1,-8.567650795E0,3.215412855E0
3.173307709E0,7.326257229E-1,-8.825027466E0,3.512293816E0
3.183749363E0,5.638344884E-1,-8.941145897E0,3.927687883E0
3.194198940E0,6.919242740E-1,-9.132682800E0,4.135983467E0
3.203951209E0,9.229647517E-1,-9.427168846E0,4.422090530E0
3.213305671E0,9.636662006E-1,-9.653421402E0,4.452018261E0
3.223298286E0,8.367735147E-1,-9.781511307E0,4.351461411E0
3.233305286E0,6.607996821E-1,-9.793481827E0,4.429273129E0
3.243310171E0,6.344634295E-1,-9.995792389E0,4.309563160E0
3.253299940E0,6.739677787E-1,-1.034774017E1,3.361459255E0
3.263305517E0,6.739677787E-1,-1.034774017E1,3.361459255E0
3.273304325E0,3.124433160E-1,-1.028429317E1,2.926911592E0
3.283911825E0,1.233013868E-1,-1.020408726E1,2.503137827E0
3.293304286E0,-3.567360640E-1,-9.895236015E0,1.958456993E0
3.303305709E0,-8.678981066E-1,-9.497797966E0,1.403002143E0
3.313316748E0,-1.429338455E0,-9.309853554E0,7.098808289E-1
3.323303748E0,-1.880645394E0,-9.481039047E0,1.963245422E-1
3.333444363E0,-2.246958256E0,-9.714473724E0,-2.454056740E-1
3.343488248E0,-2.431311846E0,-9.847352028E0,-4.967968464E-1
3.353308286E0,-2.403778553E0,-9.841365814E0,-2.178723514E-1
3.363314979E0,-2.205059767E0,-9.691728592E0,2.430114746E-1
3.373314825E0,-1.848323703E0,-9.348160744E0,4.932055473E-1
3.383307786E0,-1.335964561E0,-9.087192535E0,1.144428372E0
3.393333479E0,-7.745242715E-1,-8.914810181E0,2.157175779E0
3.403311017E0,-3.603273630E-1,-8.765172005E0,3.027467966E0
3.413304671E0,-1.197100878E-1,-8.768763542E0,3.288435936E0
3.423304632E0,-7.900865376E-2,-8.907627106E0,2.785653591E0
3.433303286E0,-1.580173075E-1,-8.962694168E0,1.887827992E0
3.443319171E0,-5.889736414E-1,-8.918401718E0,1.308431268E0
3.453411209E0,-1.027112484E0,-9.076418877E0,7.888894677E-1
3.463296402E0,-1.345541358E0,-9.521739960E0,4.046200812E-1
3.473301094E0,-1.750161409E0,-9.940725327E0,-1.568202078E-1
3.483310748E0,-2.230198860E0,-1.008916569E1,-4.501099288E-1
3.493305402E0,-2.571372509E0,-9.758766174E0,-4.537012279E-1
3.503300978E0,-2.828749418E0,-9.192537308E0,-2.286462635E-1
3.513307632E0,-2.845508814E0,-8.769960403E0,-4.788403399E-3
3.523295671E0,-2.828749418E0,-8.667010307E0,-2.873042040E-2
3.533309325E0,-2.829946518E0,-8.840589523E0,-2.154781520E-1
3.543303555E0,-2.594117641E0,-9.265560150E0,-4.046200812E-1
3.553315748E0,-2.298433542E0,-9.229647636E0,-2.262520641E-1
3.563309555E0,-1.947683096E0,-9.169792175E0,1.173158810E-1
3.573316248E0,-1.477222443E0,-9.145850182E0,5.135562420E-1
3.583316209E0,-1.076193690E0,-9.181763649E0,4.584896266E-1
3.593294094E0,-7.613561153E-1,-9.191340446E0,1.628057212E-1
3.603319401E0,-5.279214978E-1,-9.130288124E0,-1.233013868E-1
3.613307748E0,-3.543418646E-1,-8.977059364E0,-3.208230138E-1
3.623294555E0,-3.507505357E-1,-8.823830605E0,-2.442085743E-1
3.633295594E0,-4.453215301E-1,-8.754398346E0,-8.858546615E-2
3.643324555E0,-6.057330370E-1,-8.842984200E0,-4.908113554E-2
3.653296978E0,-7.338228226E-1,-8.978256226E0,2.885012925E-1
3.663437786E0,-7.026981711E-1,-9.232041359E0,5.506663918E-1
3.673300055E0,-5.973533392E-1,-9.599552155E0,6.500257850E-1
3.683302748E0,-6.284779310E-1,-9.892841339E0,6.811503768E-1
3.693297940E0,-4.776432514E-1,-9.708487511E0,2.801215947E-1
3.703296132E0,-8.858546019E-1,-9.429563522E0,1.759738177E-1
3.720033632E0,-1.278503656E0,-9.199720383E0,-5.722141862E-1
3.733322171E0,-1.364694953E0,-9.186552048E0,-7.398083210E-1
3.743313671E0,-1.562216640E0,-9.330204010E0,-5.087678432E-1
3.753318248E0,-1.635239720E0,-9.753977776E0,-3.172317147E-1
3.764030632E0,-1.684320927E0,-1.022084713E1,-2.705447972E-1
3.773300594E0,-1.711854219E0,-1.031900978E1,-1.400607973E-1
3.783314517E0,-2.024297476E0,-1.036928749E1,-1.496376097E-1
3.793304594E0,-2.661155224E0,-1.060751057E1,-3.842693865E-1
3.803319978E0,-3.150769472E0,-1.091037750E1,-6.177040339E-1
3.813319863E0,-2.780865192E0,-1.097382355E1,9.576806799E-3
3.823308324E0,-2.155978680E0,-1.089601231E1,6.129156351E-1
3.833309247E0,-1.557428241E0,-1.092833328E1,1.149216771E0
3.843299786E0,-1.480813742E0,-1.093791008E1,1.813607812E0
3.853303978E0,-2.250549555E0,-1.092713642E1,2.436100245E0
3.863309363E0,-3.751713991E0,-1.127668953E1,2.703053713E0
3.873301940E0,-5.189432144E0,-1.243668079E1,2.185906172E0
3.883298209E0,-6.222530365E0,-1.396537876E1,1.413776159E0
3.893295440E0,-6.807912350E0,-1.457350540E1,8.571242094E-1
3.903307978E0,-6.423643112E0,-1.314536476E1,1.145625472E0
3.913320286E0,-5.297171116E0,-1.148378849E1,1.337161660E0
3.923298901E0,-3.885789394E0,-1.077151299E1,1.185129881E0
3.933302017E0,-2.287659645E0,-1.070088482E1,1.480813742E0
3.943297786E0,-3.603273630E-1,-1.080383492E1,1.783680320E0
3.953300401E0,1.570596337E0,-1.082059479E1,1.782483220E0
3.963319478E0,2.925714493E0,-1.117254257E1,6.751648784E-1
3.973308901E0,3.414131641E0,-1.225591850E1,-1.138442874E0
3.983338132E0,3.600879431E0,-1.437239265E1,-2.292448044E0
3.993305440E0,3.484760523E0,-1.642542076E1,-2.171540976E0
4.003310478E0,2.820369720E0,-1.805108452E1,-1.175553083E0
4.013320555E0,1.617283225E0,-1.863407135E1,5.147533417E-1
4.023308478E0,1.879448295E-1,-1.775420189E1,2.493561029E0
4.033320170E0,-4.800374508E-1,-1.672110558E1,3.388992548E0
4.043308478E0,-5.063736439E-1,-1.579574585E1,2.821566820E0
4.053316940E0,-8.738835901E-2,-1.475666237E1,1.957259893E0
4.063323170E0,5.482721925E-1,-1.424669743E1,9.696516991E-1
4.073299440E0,8.882488012E-1,-1.390672016E1,-3.292027414E-1
4.083314940E0,-1.492784739E0,-1.170405483E1,6.165069342E-1
4.093315593E0,-2.740163803E0,-1.097861195E1,1.347935557E0
4.103321478E0,-3.520673513E0,-1.098220348E1,5.351040959E-1
4.113349824E0,-3.460818529E0,-1.066018295E1,-1.089361757E-1
4.123310478E0,-2.564189911E0,-9.325415611E0,-1.189918280E0
4.133319440E0,-1.918952703E0,-7.963114738E0,-1.963245392E0
4.143311863E0,-1.070208192E0,-6.877344608E0,-2.080561161E0
4.153363247E0,-5.530605912E-1,-5.208585739E0,-2.197877169E0
4.163323170E0,-5.865794420E-1,-3.186682463E0,-1.602918029E0
4.173307786E0,-4.273650050E-1,-2.025494576E0,-8.092401624E-1
4.183449709E0,-4.548983276E-2,-1.677138329E0,-7.505822182E-1
4.193298593E0,2.406172752E-1,-1.476025343E0,-3.052607179E-1
4.203297709E0,4.955997467E-1,-1.437718153E0,2.418143749E-1
4.213330901E0,7.218518257E-1,-1.309628367E0,9.744400978E-1
4.223305286E0,8.128314614E-1,-1.211466074E0,1.074996591E0
4.233546401E0,1.017535686E0,-1.198297977E0,1.116895080E0
4.243298209E0,1.217451572E0,-1.097741485E0,1.367089152E0
4.253309939E0,1.223437071E0,-1.248576164E0,1.944091797E0
4.263329786E0,7.122750282E-1,-1.659181833E0,2.652775526E0
4.273295901E0,8.858546615E-2,-2.061407566E0,3.038241863E0
4.283304016E0,-4.261679053E-1,-2.488772631E0,3.047818661E0
4.293542439E0,-7.661445141E-1,-2.766499996E0,3.562572241E0
4.303304516E0,-1.334767461E0,-3.181894064E0,4.295197964E0
4.313309016E0,-2.121262789E0,-4.080916882E0,4.766855717E0
4.323300824E0,-2.902969599E0,-5.093664169E0,5.067327976E0
4.333303362E0,-3.521870613E0,-6.107608318E0,4.969165802E0
4.343364093E0,-3.936067581E0,-7.268796444E0,4.501099110E0
4.353306593E0,-4.424484730E0,-1.465610600E1,6.051344872E0
4.363575016E0,-4.083311081E0,-2.100552940E1,9.232041359E0
4.373298939E0,-3.627215624E0,-2.646789932E1,1.324113274E1
4.383309055E0,-3.501519918E0,-2.472851181E1,1.496256351E1
4.393379324E0,-2.144007683E0,-1.641225243E1,1.433288860E1
4.403296709E0,-5.374982953E-1,-8.916007042E0,1.396298409E1
4.413330247E0,8.391677141E-1,-5.487510204E0,1.299333286E1
4.423300093E0,1.665167332E0,-5.578489780E0,1.091636276E1
4.433309439E0,2.003946781E0,-9.062053680E0,1.000776291E1
4.443299516E0,1.971625090E0,-1.237084007E1,7.317877293E0
4.453302939E0,1.024718285E0,-1.313578796E1,5.626373768E0
4.463324747E0,1.771709323E-1,-1.352604294E1,6.941987991E0
4.473460862E0,-1.167173386E0,-1.419761562E1,1.049019432E1
4.483307170E0,-2.849100113E0,-1.396537876E1,1.138682365E1
4.493311016E0,-2.752134800E0,-1.049019432E1,7.092822552E0
4.503314593E0,-2.035071403E-1,-3.957615376E0,6.859387755E-1
4.513323209E0,2.838326216E0,-3.375824392E-1,-4.854243755E0
4.523307478E0,4.606443882E0,-6.200982332E-1,-5.321113110E0
4.533316555E0,6.161478043E0,-1.538274646E0,-5.020640850E0
4.543292516E0,5.482721806E0,-3.738545895E0,1.757344007E0
4.553298093E0,4.333505034E-1,-8.230068207E0,8.766369820E0
4.563324016E0,-2.744952202E0,-1.145026970E1,5.236119270E0
4.573298285E0,-3.366247654E0,-1.316332054E1,-9.864110947E-1
4.583314785E0,-3.174711466E0,-1.423592377E1,-3.927687883E0
4.593849170E0,-2.571372509E0,-1.489911747E1,-1.134851575E0
4.603310170E0,-2.627636433E0,-1.464892292E1,2.347514868E0
4.613325747E0,-3.460818529E0,-1.291312695E1,2.825158119E0
4.623322247E0,-2.716221809E0,-9.680954933E0,3.056198359E0
4.633306208E0,-2.001552582E0,-8.677783966E0,2.883816004E0
4.643310939E0,-1.580173135E0,-8.218097687E0,2.582146645E0
4.653298939E0,-1.341950059E0,-8.464699745E0,2.752134800E0
4.663306901E0,-1.316810966E0,-8.985439301E0,2.762908697E0
4.673297170E0,-1.363497853E0,-9.418789864E0,2.438494444E0
4.683296708E0,-1.248576164E0,-9.555258751E0,1.842338204E0
4.693295824E0,-1.115697980E0,-9.544485092E0,9.959878922E-1
4.703316862E0,-1.041477680E0,-9.627084732E0,1.783680320E-1
4.713313362E0,-8.068459630E-1,-9.542090416E0,4.177882075E-1
4.723305631E0,-5.195417404E-1,-9.169792175E0,3.016694188E-1
4.733311593E0,-1.568202078E-1,-8.306682587E0,-8.499415964E-2
4.743311439E0,4.249708056E-1,-7.116764545E0,-4.812345505E-1
4.753327978E0,1.163581967E0,-6.089652061E0,-6.057330370E-1
4.763390478E0,1.867477298E0,-5.822698593E0,-9.337386489E-2
4.773315593E0,2.076969862E0,-5.755661011E0,6.320692301E-1
4.783326131E0,1.865083098E0,-6.052541733E0,1.329979062E0
4.794583939E0,1.437718153E0,-6.896498203E0,1.810016513E0
4.803310824E0,6.907271743E-1,-7.557297707E0,1.847126603E0
4.813312401E0,-2.621650994E-1,-7.923610687E0,1.045069098E0
4.823306747E0,-1.077390790E0,-8.016983986E0,1.544260085E-1
4.833473862E0,-1.596932530E0,-8.038532257E0,-4.764461517E-1
4.844307824E0,-1.716642618E0,-7.854178905E0,-1.186326981E0
4.853303477E0,-1.505952835E0,-7.292738438E0,-1.528697729E0
4.863309554E0,-1.082179189E0,-6.744466305E0,-1.186326981E0
4.873295054E0,-7.386112213E-1,-6.602011204E0,-3.794809580E-1
4.883296439E0,-3.986345828E-1,-7.207744122E0,3.926490843E-1
4.893322247E0,-5.746084079E-2,-8.653841972E0,1.249773264E0
4.903305824E0,-7.362170219E-1,-9.526528358E0,1.295263171E0
4.913319016E0,-1.620874524E0,-1.015620327E1,8.595184088E-1
4.923319439E0,-2.311601639E0,-1.065898609E1,7.757213712E-1
4.933359708E0,-2.296039343E0,-1.062905884E1,1.156399369E0
4.943314554E0,-2.032677174E0,-1.032260036E1,1.003170490E0
4.953334824E0,-1.759738207E0,-1.073799419E1,-1.023521185E0
4.963315708E0,-2.351106167E0,-1.008677197E1,-3.860650301E0
4.973313785E0,-4.041412354E0,-8.549694061E0,-5.084087372E0
4.983310439E0,-5.730521679E0,-9.965864182E0,-2.942473888E0
4.993344054E0,-4.855441093E0,-1.420001030E1,1.183932781E0
5.003328554E0,-3.049015760E0,-1.680250740E1,4.623203278E0
5.013337247E0,-1.449689150E0,-1.513734055E1,4.515464306E0
5.023302247E0,-1.417367458E0,-1.309748077E1,2.993949175E0
5.033858131E0,-3.224989653E0,-1.478898430E1,9.074024558E-1
5.043316016E0,-5.425261021E0,-1.783440781E1,-1.053448796E0
5.053305670E0,-6.180631638E0,-1.776617432E1,-2.011129409E-1
5.063307285E0,-5.293580055E0,-1.480694008E1,1.221042871E0
5.073307323E0,-4.210203648E0,-1.403840160E1,1.069011092E0
5.083364400E0,-3.116053581E0,-1.386362457E1,1.836352706E0
5.093499670E0,-1.279700756E0,-1.290355015E1,2.681505919E0
5.103317554E0,1.102529883E0,-1.112824917E1,2.438494444E0
5.113310785E0,3.111265182E0,-9.827000618E0,6.141127348E-1
5.123303285E0,4.114435673E0,-1.030823517E1,-2.916137695E0
5.133310823E0,4.441244125E0,-1.209550667E1,-6.215347767E0
5.143319516E0,4.119224072E0,-1.416649151E1,-7.048529625E0
5.153318170E0,3.380612850E0,-1.550485039E1,1.622071624E0
5.163339131E0,-1.309628367E0,-1.923262215E1,5.537788391E0
5.173324131E0,-2.901772499E0,-1.949718094E1,5.786785603E0
5.183346208E0,-2.971204281E0,-1.822226906E1,3.410540342E0
5.193339670E0,-1.936909199E0,-1.630092239E1,7.194576263E-1
5.203302939E0,-8.044517636E-1,-1.481891155E1,-1.128866076E0
5.213318054E0,3.746925592E-1,-1.319803715E1,-1.426944256E0
5.223304593E0,1.197100850E-3,-1.203804588E1,-1.437718153E0
5.233323670E0,-1.371877551E0,-1.075714779E1,-5.853823423E-1
5.243319593E0,-2.358288765E0,-9.579200745E0,-7.158663273E-1
5.253301323E0,-2.062604666E0,-8.667010307E0,-1.078587890E0
5.263341246E0,-9.301473498E-1,-8.009801865E0,-1.588552833E0
5.273317246E0,-2.861070931E-1,-7.308300495E0,-1.934514999E0
5.283335054E0,-1.436521020E-2,-5.972336292E0,-1.723825216E0
5.294200746E0,5.985504389E-2,-4.766855717E0,-1.199495077E0
5.303316669E0,1.651999205E-1,-3.768473387E0,-1.328781962E0
5.313321516E0,2.023100406E-1,-2.966415882E0,-1.582567334E0
5.323306977E0,2.430114746E-1,-2.138022184E0,-1.364694953E0
5.333329516E0,5.949591398E-1,-1.908178806E0,-8.331822157E-1
5.343542362E0,6.524199843E-1,-1.625662923E0,-7.517793179E-1
5.353554131E0,4.644751251E-1,-1.212663174E0,-5.039794445E-1
5.363824208E0,3.579331636E-1,-1.022324085E0,-7.661445439E-2
5.373424093E0,2.801215947E-1,-1.294066072E0,1.017535701E-1
5.384913592E0,1.304839998E-1,-2.045845270E0,7.026981711E-1
5.393949900E0,1.304839998E-1,-2.045845270E0,7.026981711E-1
5.404200092E0,-3.651157618E-1,-2.337938070E0,1.318008065E0
5.413311977E0,-3.651157618E-1,-2.337938070E0,1.318008065E0
5.423350939E0,-5.111620426E-1,-2.199074268E0,2.831143618E0
5.433310323E0,-6.165069342E-1,-2.234987259E0,3.525461912E0
5.444092516E0,-8.188169599E-1,-2.290053844E0,3.725377798E0
5.453301708E0,-1.030703783E0,-2.559401512E0,4.163516521E0
5.463968169E0,-1.403002143E0,-3.552995205E0,4.990713596E0
5.474291400E0,-1.534683347E0,-5.754463673E0,6.469132900E0
5.483318092E0,-1.189918280E0,-8.981847763E0,8.028955460E0
5.493315592E0,-1.865083098E0,-1.272039318E1,1.075595093E1
5.503323054E0,-3.699041605E0,-2.025015831E1,1.318008041E1
5.516187477E0,-3.907337189E0,-3.193625641E1,8.819042206E0
5.529428727E0,-2.431311846E0,-3.273113251E1,8.461109161E0
5.543334208E0,-8.798691034E-1,-2.006340981E1,1.154484081E1
5.553369092E0,-7.888894677E-1,-7.378929615E0,1.308550930E1
5.563421900E0,-1.765723705E0,3.277662039E0,1.455315495E1
5.573582400E0,-2.199074268E0,9.018958092E0,1.262582302E1
5.583754054E0,-3.363853395E-1,6.423643112E0,8.437167168E0
5.593317554E0,-8.092401624E-1,-1.508347094E-1,7.275979042E0
5.603313092E0,-1.722628117E0,-7.095216751E0,7.105990410E0
5.613317746E0,-2.443282843E0,-1.458068848E1,6.397306919E0
5.623362785E0,-3.652354717E0,-1.982039833E1,5.072116375E0
5.633305823E0,-4.485537052E0,-2.222178268E1,2.217030764E0
5.643313285E0,-4.197035789E0,-1.985391808E1,-5.267243981E-1
5.653308131E0,-1.361103654E0,-1.314656162E1,-3.816357613E0
5.663311015E0,2.140416384E0,-8.021772385E0,-7.023390770E0
5.673314246E0,5.317522049E0,-3.895366192E0,-2.668337822E0
5.683301708E0,8.590395927E0,-1.000776291E0,3.156754971E0
5.693302746E0,4.666299343E0,-1.959654093E0,5.735310078E0
5.703314861E0,-5.159504414E-1,-4.173093796E0,2.215833664E0
5.713303515E0,-2.524685621E0,-6.270414352E0,-3.252522945E0
5.723347169E0,-1.302445769E0,-9.124302864E0,-6.111199856E0
5.733309861E0,-4.955997467E-1,-1.393784523E1,-3.482366323E0
5.743422246E0,-1.879448295E0,-1.931881332E1,7.805097699E-1
5.753410977E0,-3.690661907E0,-2.173336601E1,3.094505787E0
5.763308631E0,-4.285621166E0,-1.998559952E1,1.702277422E0
5.773310708E0,-4.529829502E0,-1.568441486E1,9.983820915E-1
5.783316477E0,-4.024652958E0,-1.150653362E1,1.025915384E0
5.793336208E0,-2.827552319E0,-9.393650055E0,1.171961784E0
5.803350785E0,-1.748964310E0,-8.501810074E0,7.936778665E-1
5.813739477E0,-1.215057373E0,-8.050502777E0,1.951274425E-1
5.823624169E0,-1.097741485E0,-7.735665798E0,-6.488286853E-1
5.833303631E0,-7.936778665E-1,-7.076063156E0,-7.493851185E-1
5.843307400E0,-1.340752989E-1,-6.409277916E0,-1.651999205E-1
5.853330169E0,8.511387110E-1,-5.877765179E0,2.980781198E-1
5.863335131E0,1.739387512E0,-5.633556366E0,3.722983599E-1
5.873531246E0,2.322375536E0,-5.835866451E0,3.495534360E-1
5.883338284E0,2.225410461E0,-6.179434776E0,3.998316824E-1
5.893311246E0,1.632845521E0,-6.774393559E0,7.493851185E-1
5.903312361E0,8.140285611E-1,-7.447164536E0,1.029506683E0
5.913362515E0,2.035071403E-1,-7.866149902E0,1.514332533E0
5.924629092E0,-4.908113480E-1,-7.851784706E0,1.011550188E0
5.933309938E0,-4.908113480E-1,-7.851784706E0,1.011550188E0
5.943316092E0,-6.955155730E-1,-7.687781811E0,-2.346317619E-1
5.953314169E0,-6.655880809E-1,-7.507019520E0,-1.041477680E0
5.963308169E0,9.816227108E-2,-6.851007938E0,-1.903390288E-1
5.973314861E0,2.130839527E-1,-6.797138691E0,6.512228847E-1
5.983294823E0,-1.987187415E-1,-7.213729858E0,1.571793437E0
5.993306477E0,-8.236053586E-1,-7.888894558E0,1.989581585E0
6.003299784E0,-1.289277673E0,-8.602366447E0,1.476025343E0
6.013309131E0,-1.714248419E0,-9.356540680E0,6.177040339E-1
6.023310707E0,-2.036268473E0,-1.025077438E1,2.849099934E-1
6.033305361E0,-2.414552450E0,-1.076911926E1,1.148019671E0
6.043300746E0,-2.505532026E0,-1.033936024E1,2.167949677E0
6.053301169E0,-2.203862667E0,-9.330204010E0,1.648407817E0
6.063302861E0,-2.163161278E0,-9.108740807E0,-1.197100803E-2
6.073462707E0,-2.582146645E0,-9.668983459E0,-1.696291924E0
6.083301823E0,-3.183091164E0,-1.037886429E1,-3.488351822E0
6.093307169E0,-4.867412090E0,-9.289502144E0,-4.724956989E0
6.103298400E0,-6.713341713E0,-9.742006302E0,-2.922123194E0
6.113291746E0,-6.121973515E0,-1.335964584E1,3.244143426E-1
6.123307515E0,-3.578134537E0,-1.566167068E1,3.336320162E0
6.133294861E0,-1.528697729E0,-1.462498093E1,3.663128614E0
6.143299130E0,-8.810662031E-1,-1.232894135E1,3.333925962E0
6.153296592E0,-1.821987510E0,-1.318486881E1,2.786850691E0
6.163296246E0,-3.296815634E0,-1.696651077E1,1.711854219E0
6.173306284E0,-4.623203278E0,-1.778891945E1,2.172738075E0
6.183296823E0,-4.649539471E0,-1.539351940E1,3.854664803E0
6.193305553E0,-4.079719543E0,-1.330936718E1,3.927687883E0
6.203300784E0,-2.777273893E0,-1.211346340E1,2.145204782E0
6.213299938E0,-4.465186298E-1,-1.102410126E1,-6.236895323E-1
6.223338092E0,2.385822058E0,-1.073799419E1,-2.517503023E0
6.233295400E0,5.943605900E0,-1.425028896E1,-4.450820923E0
6.243296284E0,6.090848923E0,-1.664688492E1,-4.589684486E0
6.253297053E0,5.400122166E0,-1.821508598E1,-1.704671621E0
6.263299400E0,2.108094692E0,-1.954626274E1,2.444479942E0
6.273301361E0,-1.748964310E0,-2.018431664E1,4.229357243E0
6.283293976E0,-4.283226967E0,-1.975455856E1,3.587711334E0
6.293298053E0,-5.226542473E0,-1.847126579E1,1.704671621E0
6.303312669E0,-4.839878559E0,-1.683961678E1,-8.858546615E-2
6.313319207E0,-3.493140221E0,-1.498171711E1,-6.009446383E-1
6.323311861E0,-2.426523447E0,-1.365892029E1,-2.238578647E-1
6.333322284E0,-2.133233786E0,-1.226190376E1,1.233013868E-1
6.343314361E0,-1.710657120E0,-1.064701462E1,-3.184288144E-1
6.353315938E0,-1.440112352E0,-9.672574997E0,-1.399410844E0
6.363317938E0,-9.301473498E-1,-8.967482567E0,-1.754949808E0
6.373318053E0,-3.208230138E-1,-8.268375397E0,-1.976413488E0
6.383450592E0,4.908113480E-1,-7.301117897E0,-1.745373011E0
6.393315630E0,9.983820915E-1,-5.979518890E0,-1.600523829E0
6.403316938E0,1.089361787E0,-4.631583214E0,-1.650802016E0
6.413308015E0,1.170764685E0,-3.331531763E0,-1.586158633E0
6.423304284E0,1.200692177E0,-2.434903145E0,-1.416170359E0
6.433295861E0,9.947907925E-1,-1.309628367E0,-1.128866076E0
6.443297976E0,7.278373241E-1,-7.781155705E-1,-1.233013868E0
6.453293476E0,4.297592044E-1,-8.068459630E-1,-1.070208192E0
6.463341515E0,1.053448766E-1,-7.888894677E-1,-3.112462163E-1
6.473302322E0,4.788403213E-2,-1.209071875E0,2.406172752E-1
6.483306207E0,2.609679997E-1,-1.819593310E0,4.046200812E-1
6.493322169E0,6.296750307E-1,-2.454056740E0,5.686228871E-1
6.503338707E0,9.026140571E-1,-3.448847532E0,9.337386489E-1
6.513308092E0,7.493851185E-1,-3.585317135E0,1.495178938E0
6.523312899E0,5.494692922E-1,-3.491943121E0,2.211045265E0
6.533314822E0,4.273650050E-1,-3.263296843E0,2.744952202E0
6.543316322E0,3.627215624E-1,-3.101688385E0,3.080140591E0
6.553317130E0,2.741360962E-1,-3.069366693E0,3.400963545E0
6.563310053E0,1.340752989E-1,-2.984372377E0,3.652354717E0
6.573337092E0,-1.244984865E-1,-2.936488390E0,3.836708307E0
6.583341169E0,-5.626373887E-1,-3.375824451E0,4.134786129E0
6.593328899E0,-9.469067454E-1,-5.299565315E0,5.591658115E0
6.603323169E0,-1.080982089E0,-8.963891029E0,7.101202011E0
6.613307476E0,-1.951274395E0,-1.357632065E1,8.741230011E0
6.623316284E0,-4.599261284E0,-2.244683838E1,1.355477333E1
6.633316707E0,-6.162675381E0,-3.174112892E1,1.274672985E1
6.643303207E0,-5.394136429E0,-3.580528641E1,1.168729591E1
6.653312669E0,-1.904587507E0,-3.084330368E1,1.226908684E1
6.663316361E0,-3.770867586E-1,-1.829289818E1,1.333211231E1
6.673313938E0,-2.076969862E0,-5.410895824E0,1.268088913E1
6.683310438E0,-3.532644510E0,3.800795317E0,1.065060616E1
6.693347707E0,-2.020706177E0,5.349843502E0,9.670180321E0
6.703309322E0,2.501940727E-1,-8.559271097E-1,8.668207169E0
6.713309476E0,-1.136048675E0,-8.686163902E0,3.309983969E0
6.723318438E0,-1.971625090E0,-1.432810020E1,1.410184860E0
6.733323476E0,-1.788468719E0,-1.675342560E1,3.463212729E0
6.743310245E0,-3.390189648E0,-1.955823326E1,3.956418276E0
6.753312130E0,-4.928464413E0,-1.850358772E1,2.668337822E0
6.763309976E0,-4.205415249E0,-1.240914726E1,2.917334795E0
6.773312438E0,3.719392300E0,-3.224989653E0,-4.315548420E0
6.783303861E0,7.463923931E0,-8.044517636E-1,-2.695871115E0
6.793300899E0,9.744400978E0,-5.506663918E-1,1.704671621E0
6.803393399E0,7.832630634E0,-9.744400978E-1,6.416460514E0
6.813304361E0,2.671929121E0,-3.197456360E0,7.317877293E0
6.823323938E0,-2.580949545E0,-6.388927460E0,3.466804028E0
6.833307976E0,-4.104858875E0,-9.528923035E0,-3.040636063E0
6.843309938E0,-3.558980942E0,-1.274433517E1,-7.076063156E0
6.854530745E0,-3.077746391E0,-1.690306473E1,-3.967192173E0
6.863321591E0,-3.669114113E0,-2.016516304E1,9.014169574E-1
6.873309015E0,-4.535815239E0,-1.973181343E1,2.422932148E0
6.883304745E0,-4.551377296E0,-1.568082428E1,1.733402014E0
6.893306707E0,-3.569754839E0,-1.154962921E1,1.553836942E0
6.903451861E0,-1.977610588E0,-9.096769333E0,2.201468468E0
6.913309976E0,-7.290344238E-1,-8.000225067E0,2.054224968E0
6.923311553E0,-1.735796183E-1,-7.763198853E0,1.089361787E0
6.933335399E0,-5.626374111E-2,-7.619546890E0,3.447650373E-1
6.943300014E0,2.394201756E-1,-8.172607422E0,2.394201756E-1
6.953303245E0,7.254431248E-1,-8.677783966E0,5.386953950E-1
6.963297207E0,9.552865028E-1,-8.671798706E0,6.524199843E-1
6.973303668E0,1.128866076E0,-8.382100105E0,1.043871999E0
6.983301976E0,1.259350061E0,-7.809885979E0,1.268926859E0
6.993300207E0,1.371877551E0,-7.163451672E0,1.387439847E0
7.003305361E0,1.416170359E0,-6.811503887E0,1.139639974E0
7.013311899E0,1.350329757E0,-6.709750175E0,1.005564690E0
7.023301668E0,1.112106681E0,-6.886921406E0,8.858546019E-1
7.033309476E0,8.427590132E-1,-7.264008045E0,9.900023937E-1
7.043297784E0,-1.256955862E-1,-8.109161377E0,1.514332533E0
7.053308207E0,-8.918401599E-1,-7.997830868E0,1.206677675E0
7.063303745E0,-1.381454349E0,-7.570465565E0,1.723825186E-1
7.073451361E0,-1.414973259E0,-7.353790283E0,-9.528923035E-1
7.083316668E0,-9.397241473E-1,-7.094019413E0,-1.400607944E0
7.093311745E0,-2.537853718E-1,-6.572083473E0,-1.212663174E0
7.103733130E0,2.753331959E-1,-6.481103897E0,-8.571242094E-1
7.113299784E0,4.489128292E-1,-7.122750282E0,-1.376665980E-1
7.123298284E0,3.280056417E-1,-8.092401505E0,7.326257229E-1
7.133297822E0,-7.781155407E-2,-8.791508675E0,1.088164687E0
7.143296130E0,-6.631938815E-1,-9.059659004E0,9.038111567E-1
7.153315360E0,-1.441309452E0,-9.132682800E0,2.286462635E-1
7.163305899E0,-2.365471363E0,-8.968679428E0,1.125274822E-1
7.173306514E0,-2.753331900E0,-9.124302864E0,9.720458984E-1
7.183311053E0,-2.096123695E0,-1.048540592E1,1.535880446E0
7.193333245E0,-1.017535686E0,-1.077510452E1,1.485602140E0
7.203300245E0,-8.295909166E-1,-1.042914295E1,6.189011335E-1
7.213300360E0,-1.397016644E0,-1.072961521E1,-1.149216771E0
7.223298091E0,-2.578555346E0,-1.025077438E1,-3.472789526E0
7.233295014E0,-4.495113850E0,-9.616311073E0,-3.566163540E0
7.243330091E0,-4.899733543E0,-1.192551899E1,-1.155202270E0
7.253310707E0,-3.620033026E0,-1.416649151E1,1.364694953E0
7.263303514E0,-2.546233416E0,-1.445978069E1,2.503137827E0
7.273336053E0,-2.580949545E0,-1.349850941E1,2.450465441E0
7.283292130E0,-3.236960649E0,-1.426465416E1,2.007538080E0
7.293353822E0,-4.203021049E0,-1.632007599E1,1.271321058E0
7.303317707E0,-4.703409195E0,-1.705389786E1,1.224634171E0
7.313302207E0,-3.763684988E0,-1.440710831E1,1.980004787E0
7.323301976E0,-2.968810081E0,-1.374870300E1,2.165555477E0
7.333305245E0,-1.266532660E0,-1.242470932E1,1.983596087E0
7.343340706E0,1.369483352E0,-1.066856289E1,1.173158884E0
7.353320976E0,3.818751812E0,-1.018373680E1,-6.105214357E-1
7.363313091E0,5.013458252E0,-1.111029339E1,-2.868253708E0
7.373306706E0,4.824316502E0,-1.295502567E1,-5.171475887E0
7.383311206E0,3.552995205E0,-1.419402504E1,-6.187814236E0
7.393307514E0,1.977610588E0,-1.477342129E1,-3.708618402E0
7.403301706E0,-6.739677787E-1,-1.659780312E1,5.913678408E-1
7.413303514E0,-3.379415751E0,-1.838746834E1,4.635174274E0
7.423305168E0,-5.409698963E0,-1.899559593E1,6.013037682E0
7.433323014E0,-5.680243492E0,-1.780807304E1,3.876212597E0
7.443330514E0,-4.466383457E0,-1.572990513E1,9.947907925E-1
7.453324322E0,-2.925714493E0,-1.379419327E1,-9.935936928E-1
7.463304245E0,-1.625662923E0,-1.283052731E1,-2.254140854E0
7.473358937E0,-1.532289028E0,-1.164180565E1,-1.229422569E0
7.483352437E0,-1.540668845E0,-1.018732834E1,-7.422025204E-1
7.493313860E0,-1.358709455E0,-9.302670479E0,-9.828197956E-1
7.504191745E0,-9.014169574E-1,-8.556877136E0,-1.040280581E0
7.513401283E0,-1.436520964E-1,-7.922413349E0,-1.283292055E0
7.523325860E0,4.141969085E-1,-7.237671852E0,-1.347935557E0
7.533318745E0,7.194576263E-1,-6.202179432E0,-1.094150186E0
7.543317822E0,8.798691034E-1,-5.209783077E0,-5.781996846E-1
7.553328322E0,1.006761789E0,-4.362235546E0,-3.459621370E-1
7.563322706E0,1.037886381E0,-4.006696701E0,-3.938461840E-1
7.573330360E0,8.894459605E-1,-3.687070608E0,-3.471592367E-1
7.583322245E0,3.902548850E-1,-2.565387011E0,-3.711012751E-2
7.593310206E0,2.908954918E-1,-2.566584110E0,6.224924326E-2
7.603388399E0,2.896983922E-1,-2.606088638E0,1.520318091E-1
7.613319822E0,4.333505034E-1,-2.760514498E0,4.034229815E-1
7.623309552E0,5.590460896E-1,-2.833537817E0,5.829881430E-1
7.633433052E0,5.554547906E-1,-2.932897091E0,5.626373887E-1
7.643308091E0,3.830722570E-1,-3.179499865E0,4.489128292E-1
7.653308552E0,1.077390760E-1,-3.191470861E0,7.900865674E-1
7.663298783E0,1.556231081E-2,-3.092111588E0,1.556231141E0
7.673299937E0,2.035071515E-2,-2.851494312E0,2.261323452E0
7.683308783E0,-1.436520964E-1,-2.602497339E0,2.828749418E0
7.693301745E0,-2.861070931E-1,-2.785653591E0,3.400963545E0
7.703312822E0,-5.793967843E-1,-3.155557871E0,3.707421303E0
7.713298860E0,-8.858546019E-1,-3.837905407E0,4.059369087E0
7.723293514E0,-1.016338587E0,-5.589263916E0,4.643554211E0
7.733300168E0,-8.619126081E-1,-8.902838707E0,6.278793812E0
7.743299899E0,-9.540894032E-1,-1.282693577E1,7.399280548E0
7.753294475E0,-1.776497602E0,-1.811093903E1,9.166201591E0
7.763294822E0,-3.053804159E0,-2.576639938E1,1.253005505E1
7.773332129E0,-4.209006786E0,-2.904047012E1,1.122521496E1
7.783393822E0,-2.297236443E0,-2.777992249E1,1.090080070E1
7.793370552E0,-3.184288144E-1,-2.278322411E1,1.185369301E1
7.803370937E0,-1.012747288E0,-1.421078396E1,1.363976669E1
7.813371437E0,-3.889380693E0,-4.276044369E0,1.468363857E1
7.823370822E0,-6.590040207E0,2.788047791E0,1.163701725E1
7.833388706E0,-4.891354084E0,-1.711854190E-1,1.016099167E1
7.843376283E0,-5.373785496E0,-1.636077690E1,5.258863926E0
7.853318091E0,-7.754819393E0,-2.244444466E1,7.565677166E0
7.863321283E0,-1.071405220E1,-2.638290596E1,6.687005520E0
7.873325168E0,-9.854534149E0,-1.795890617E1,-5.738901615E0
7.883328860E0,-1.382651448E0,-4.684255600E0,-1.266053867E1
7.893307975E0,6.023811340E0,3.339911461E0,-1.243907452E1
7.903321975E0,1.045069027E1,3.688267708E0,-1.723825216E0
7.913323437E0,1.340154362E1,2.819172382E0,6.793547153E0
7.923310206E0,7.432799339E0,5.386953801E-2,1.082418633E1
7.933317014E0,-4.429273009E-1,-3.470395327E0,4.344278812E0
7.943360552E0,-5.404910564E0,-5.791574001E0,-3.059789658E0
7.953357783E0,-3.424905539E0,-8.574832916E0,-7.149086475E0
7.963317898E0,-4.393360019E-1,-1.355237865E1,-4.929661274E0
7.973319052E0,6.584054977E-2,-1.975815010E1,-3.770867586E-1
7.983332514E0,-2.373851061E0,-2.231156540E1,1.550245643E0
7.993308591E0,-4.052186489E0,-2.034832001E1,1.197100878E0
8.003381975E0,-3.537432909E0,-1.692820358E1,1.090558887E0
8.013399744E0,-2.111685991E0,-1.307712936E1,1.854309201E0
8.023376783E0,-6.129156351E-1,-1.060870743E1,2.622848034E0
8.033324244E0,4.273650050E-1,-9.508571625E0,2.418143749E0
8.043320937E0,7.505822182E-1,-9.064447403E0,1.747767210E0
8.053332821E0,5.458779931E-1,-8.957905769E0,8.367735147E-1
8.063326014E0,5.698199868E-1,-9.188945770E0,1.963245422E-1
8.073321860E0,4.848258495E-1,-9.094375610E0,1.879448295E-1
8.083326667E0,2.693476975E-1,-8.532935143E0,1.116895080E0
8.093313206E0,3.232172132E-2,-8.347384453E0,1.854309201E0
8.103373283E0,1.711854190E-1,-8.220491409E0,1.456871748E0
8.113302860E0,5.303156972E-1,-8.080430984E0,8.523358107E-1
8.123305860E0,9.217676520E-1,-7.104793549E0,5.578489900E-1
8.133323321E0,1.260547161E0,-6.301538944E0,5.267243981E-1
8.143306821E0,1.612494826E0,-5.919663906E0,7.984662652E-1
8.153325052E0,1.697489023E0,-6.159083843E0,1.426944256E0
8.163310398E0,1.373074651E0,-6.564900875E0,2.032677174E0
8.173336244E0,6.428431273E-1,-7.151480675E0,1.879448295E0
8.183311552E0,-2.130839527E-1,-7.633912086E0,1.148019671E0
8.193312552E0,-1.047463298E0,-7.959523678E0,3.363853395E-1
8.203376744E0,-1.447294950E0,-8.100781441E0,-1.795651317E-1
8.213390860E0,-1.240196466E0,-7.790732384E0,-3.555389643E-1
8.223353744E0,-6.177040339E-1,-7.186196327E0,-6.248866320E-1
8.233460744E0,-8.738835901E-2,-6.872556210E0,-7.793126702E-1
8.243395052E0,8.858546615E-2,-7.168240070E0,-5.470750928E-1
8.253355129E0,-1.209071875E-1,-7.801506042E0,-2.154781520E-1
8.263310975E0,-4.728548229E-1,-8.371326447E0,-4.548983276E-2
8.273308706E0,-9.780313969E-1,-8.704120636E0,-1.292868853E-1
8.283313437E0,-1.379060149E0,-8.963891029E0,2.190694511E-1
8.293309283E0,-1.510741234E0,-9.501389503E0,1.054645896E0
8.303299821E0,-1.018732786E0,-1.088763237E1,2.044648170E0
8.313305552E0,-3.315969408E-1,-1.080503273E1,2.601300240E0
8.323333821E0,-5.063736439E-1,-9.855731010E0,2.093729496E0
8.333306590E0,-1.277306557E0,-1.011669922E1,-3.112462163E-1
8.343296552E0,-2.167949677E0,-1.041956615E1,-3.426102638E0
8.353299360E0,-3.610456228E0,-1.003170490E1,-4.704606533E0
8.363296629E0,-5.080495834E0,-1.083017159E1,-2.468421936E0
8.373410013E0,-4.669890404E0,-1.315972996E1,1.143231273E0
8.383336206E0,-1.965639591E0,-1.366730022E1,3.268085241E0
8.393327052E0,-1.855506301E0,-1.210987186E1,3.005920172E0
8.403336744E0,-2.567781210E0,-1.342309189E1,2.792836189E0
8.413308629E0,-3.611653328E0,-1.566167068E1,2.102109194E0
8.423317321E0,-3.974374771E0,-1.581370258E1,2.595314741E0
8.433315475E0,-4.066551685E0,-1.438436413E1,3.259705544E0
8.443348860E0,-4.341884613E0,-1.299572659E1,2.780865192E0
8.453314052E0,-4.187458992E0,-1.255040550E1,2.123656988E0
8.463301590E0,-3.077746391E0,-1.170046329E1,2.729389966E-1
8.473303975E0,-3.555389643E-1,-9.861717224E0,-2.597708941E0
8.483324321E0,2.516305923E0,-9.781511307E0,-4.274847031E0
8.493322552E0,4.109647274E0,-1.185010147E1,-4.394556999E0
8.503324590E0,4.535815239E0,-1.398213768E1,-4.532223701E0
8.513330936E0,3.939658880E0,-1.502361584E1,-4.880579948E0
8.523320052E0,3.359065056E0,-1.648288155E1,-1.662773132E0
8.533336859E0,1.555034041E0,-1.827135086E1,3.967192173E0
8.543335552E0,-1.074996591E0,-1.943972015E1,6.970718384E0
8.553314321E0,-3.056198359E0,-1.912248802E1,5.365406036E0
8.563310629E0,-3.661931515E0,-1.770033264E1,1.551442742E0
8.573334821E0,-3.293224335E0,-1.545816326E1,-9.600749016E-1
8.583324129E0,-2.015917778E0,-1.354280186E1,-1.563413739E0
8.593306552E0,-1.151610970E0,-1.188481712E1,-1.073799491E0
8.603307321E0,-1.234210968E0,-1.010592556E1,-3.112462163E-2
8.613306859E0,-1.399410844E0,-8.774748802E0,-9.205705523E-1
8.623331706E0,-1.055842996E0,-8.252813339E0,-1.708262920E0
8.633321936E0,-4.525041282E-1,-7.945158482E0,-1.297657371E0
8.643346744E0,1.364694983E-1,-7.448361397E0,-1.098938584E0
8.653404782E0,1.039083481E0,-6.087257862E0,-7.050924301E-1
8.663365782E0,1.164779186E0,-5.357026100E0,-5.279214978E-1
8.673340782E0,9.888052940E-1,-4.503493309E0,-2.358288616E-1
8.683355859E0,6.596025825E-1,-3.462015629E0,8.259996027E-2
8.693312436E0,3.603273630E-1,-2.956839085E0,2.717418969E-1
8.703329398E0,-6.584054977E-2,-3.066972494E0,-5.985504016E-3
8.713313590E0,-5.374982953E-1,-2.865859509E0,-3.974374831E-1
8.723341321E0,-7.661445141E-1,-2.615665436E0,-4.297592044E-1
8.733316629E0,-6.153098345E-1,-2.699462414E0,-2.035071515E-2
8.743308282E0,-2.693476975E-1,-2.912546396E0,5.650315881E-1
8.753360705E0,9.337386489E-2,-2.955641985E0,7.326257229E-1
8.763313167E0,4.429273009E-1,-3.059789658E0,7.841010690E-1
8.773307629E0,5.997475386E-1,-3.171120167E0,9.588778019E-1
8.783311167E0,5.590460896E-1,-3.129221678E0,1.441309452E0
8.793304513E0,5.135562420E-1,-3.113659382E0,2.209848166E0
8.803343667E0,3.447650373E-1,-3.177105665E0,3.051409960E0
8.813430282E0,-1.017535701E-1,-3.227383852E0,3.803189516E0
8.823334821E0,-8.116343617E-1,-3.618835926E0,4.419696331E0
8.833345128E0,-1.339555860E0,-4.534617901E0,4.778826714E0
8.843338128E0,-1.514332533E0,-5.975927353E0,4.727351189E0
8.854197475E0,-1.607706428E0,-8.698134422E0,5.730521679E0
8.863314821E0,-1.687912226E0,-1.224275017E1,6.853402138E0
8.873299052E0,-1.303642869E0,-1.726099777E1,8.327033043E0
8.883319975E0,-1.188721180E0,-2.541564751E1,1.065659142E1
8.893303205E0,-2.319981337E0,-2.815820694E1,1.712452698E1
8.903321128E0,-1.476025343E0,-2.529234695E1,1.246062279E1
8.913317244E0,-1.322796464E0,-1.898601913E1,1.230021095E1
8.923316552E0,-5.931634903E0,-8.583213091E-1,1.332732391E1
8.933320936E0,-8.169015884E0,4.967968464E0,9.765948296E0
8.943306898E0,-7.475894928E0,4.213795185E0,6.963535786E0
8.953295244E0,-6.457161903E0,-2.038662672E0,8.572439194E0
8.963421090E0,-6.628347397E0,-6.722918510E0,7.718906403E0
8.973304859E0,-4.469974518E0,-1.037527275E1,-2.857479811E0
8.983311128E0,-2.379836559E0,-1.343147182E1,-6.848613739E0
8.993294282E0,7.900865376E-2,-1.754949760E1,-7.539340973E0
9.003316282E0,1.446097851E0,-2.375527000E1,-6.279991150E0
9.013313744E0,2.705447972E-1,-2.726995659E1,2.358288765E0
9.023297667E0,9.576806799E-3,-1.968153572E1,7.692570210E0
9.033301513E0,3.339911461E0,-7.708132267E0,4.302380562E0
9.043295744E0,4.452018261E0,1.131260276E0,1.316810958E-2
9.053296321E0,4.619612217E0,2.719813108E0,-2.255337954E0
9.063317667E0,3.772064686E0,-3.052607179E-1,-3.096899986E0
9.073312013E0,1.801636815E0,-3.260902643E0,-5.303156853E0
9.083331474E0,-7.170634270E-1,-6.746860504E0,-5.203797340E0
9.093320205E0,-2.553416014E0,-1.161906052E1,-1.638831019E0
9.103325936E0,-3.711012602E0,-1.728374290E1,2.364274263E0
9.113327167E0,-3.985148668E0,-2.131078911E1,2.943670988E0
9.123440321E0,-3.211821556E0,-2.232593155E1,1.072602391E0
9.133309936E0,-2.076969862E0,-2.061048508E1,-5.674257874E-1
9.143312436E0,-1.511938334E0,-1.593221474E1,-1.747767180E-1
9.153325782E0,-5.961562395E-1,-1.182735634E1,1.300051570E0
9.163411474E0,1.663970202E-1,-9.629479408E0,1.388636947E0
9.173402513E0,8.786720037E-1,-8.735244751E0,1.080982089E0
9.183317628E0,1.167173386E0,-8.402450562E0,7.541735172E-1
9.193385744E0,8.475474119E-1,-8.084021568E0,3.064578176E-1
9.203328859E0,7.709329724E-1,-7.982268333E0,5.386953950E-1
9.213357667E0,9.085995555E-1,-7.758410454E0,8.690952063E-1
9.223313051E0,1.242590666E0,-7.146692276E0,1.118092179E0
9.233329244E0,1.651999116E0,-6.489483833E0,9.600749016E-1
9.243313013E0,2.045845270E0,-6.133944988E0,1.124077678E0
9.253336167E0,2.183511972E0,-6.084863663E0,1.399410844E0
9.264221205E0,2.026691675E0,-6.373364925E0,1.164779186E0
9.273311590E0,1.685518026E0,-6.762422562E0,8.080430627E-1
9.283339513E0,1.386242747E0,-7.078457355E0,2.238578647E-1
9.293310551E0,4.273650050E-1,-7.422025204E0,-1.847126603E0
9.303319936E0,-5.267243832E-2,-7.353790283E0,-2.346317768E0
9.313327474E0,1.364694983E-1,-6.782773495E0,-7.637503147E-1
9.323313744E0,6.284779310E-1,-6.630741596E0,7.661445439E-2
9.333348936E0,6.189011335E-1,-6.679822922E0,4.321534038E-1
9.343322897E0,5.853823423E-1,-6.963535786E0,5.853823423E-1
9.353327128E0,6.943184733E-1,-7.262810707E0,1.635239720E0
9.363314320E0,5.183446407E-1,-7.914033890E0,1.667561531E0
9.373321090E0,-1.699883193E-1,-8.374917984E0,9.038111567E-1
9.383327128E0,-9.014169574E-1,-9.029731750E0,4.572925270E-1
9.393308551E0,-1.413776159E0,-9.522936821E0,4.584896266E-1
9.403305551E0,-1.656787634E0,-9.661801338E0,9.421183467E-1
9.413338859E0,-1.623268723E0,-9.363722801E0,1.710657120E0
9.423352282E0,-1.016338587E0,-9.973047256E0,2.031480074E0
9.433308474E0,-2.944868207E-1,-1.012029076E1,1.826775908E0
9.443310090E0,-7.182605267E-1,-9.448717117E0,1.394622445E0
9.453325397E0,-1.958456993E0,-9.827000618E0,8.499415964E-2
9.464436936E0,-4.532223701E0,-9.860519409E0,-3.822343111E0
9.473322666E0,-6.157886982E0,-1.048301220E1,-1.939303398E0
9.483316128E0,-6.562506676E0,-1.267610073E1,1.161187768E0
9.493344705E0,-5.481524944E0,-1.421557236E1,2.540247917E0
9.503308974E0,-4.507084846E0,-1.388038445E1,1.807622313E0
9.513441243E0,-4.049792290E0,-1.414015484E1,1.807622313E0
9.523302397E0,-3.831919909E0,-1.532169342E1,2.725798607E0
9.533307205E0,-3.848679304E0,-1.570835781E1,3.799597979E0
9.543293590E0,-3.347094059E0,-1.504995155E1,4.845864296E0
9.553301820E0,-2.066195965E0,-1.448611736E1,5.167884350E0
9.563316128E0,-3.950432837E-1,-1.317289734E1,3.549403906E0
9.573303974E0,1.801636815E0,-1.211825180E1,1.163581967E0
9.583317359E0,4.406527996E0,-1.278144550E1,-5.147533417E-1
9.593299782E0,5.571307182E0,-1.437478733E1,-2.772485495E0
9.603323089E0,4.642356873E0,-1.582327938E1,-6.332663536E0
9.613318666E0,3.343502760E0,-1.665047646E1,-7.096413612E0
9.623295205E0,2.771288395E0,-1.675462341E1,-3.339911461E0
9.633304936E0,1.209071875E-1,-1.805706978E1,1.823184609E0
9.643309436E0,-4.133589268E0,-1.837908936E1,5.359420300E0
9.653311397E0,-6.666654587E0,-1.782483101E1,4.891354084E0
9.663317205E0,-6.381744862E0,-1.624465942E1,4.094084799E-1
9.673307974E0,-4.645948410E0,-1.530014610E1,-2.220622063E0
9.683298705E0,-3.673902512E0,-1.477701283E1,-1.516726732E0
9.693296820E0,-3.292027235E0,-1.345661068E1,4.860229492E-1
9.703305397E0,-2.163161278E0,-1.170405483E1,1.090558887E0
9.713316243E0,-1.416170359E0,-1.077031612E1,6.823474914E-2
9.723299320E0,-1.049857497E0,-1.022443867E1,-1.191115379E0
9.733301474E0,-2.717418969E-1,-8.853757858E0,-1.094150186E0
9.743307512E0,4.201824069E-1,-8.037335396E0,-9.002198577E-1
9.753293397E0,1.095347285E0,-7.006631374E0,-8.248024583E-1
9.763316474E0,1.522712231E0,-5.986701488E0,-1.183932781E0
9.773308666E0,1.620874524E0,-4.596867085E0,-7.805097699E-1
9.783306205E0,1.625662923E0,-3.453635931E0,-1.352723986E-1
9.793403128E0,1.473631144E0,-2.504334927E0,4.393360019E-1
9.803305051E0,9.696516991E-1,-1.649604917E0,4.955997467E-1
9.813317359E0,4.979939461E-1,-1.511938334E0,2.370259613E-1
9.823304782E0,1.939303428E-1,-1.505952835E0,1.903390288E-1
9.833327166E0,1.352723986E-1,-1.675941229E0,6.093243361E-1
9.843450551E0,3.842693865E-1,-2.027888775E0,8.463503122E-1
9.853323589E0,7.038952708E-1,-2.503137827E0,5.746083856E-1
9.863341782E0,9.600749016E-1,-3.009511471E0,3.315969408E-1
9.873322820E0,9.481038451E-1,-3.378218651E0,2.310404629E-1
9.883325974E0,7.757213712E-1,-3.392583847E0,5.853823423E-1
9.893325935E0,6.224924326E-1,-3.099294186E0,1.392228246E0
9.903312128E0,5.494692922E-1,-2.883816004E0,2.178723574E0
9.913354089E0,4.608838260E-1,-2.954444885E0,2.779668093E0
9.923371782E0,3.399766386E-1,-2.977189779E0,3.388992548E0
9.933320974E0,1.484405100E-1,-2.946065187E0,3.910928488E0
9.943318551E0,-2.825157940E-1,-2.979583979E0,4.315548420E0
9.953332551E0,-1.000776291E0,-3.793612480E0,4.606443882E0
9.963315205E0,-1.492784739E0,-6.015431881E0,5.698200226E0
9.973307128E0,-1.672349930E0,-9.299078941E0,7.132327080E0
9.983361128E0,-2.600103140E0,-1.311184597E1,7.995436668E0
9.993320666E0,-4.420893669E0,-2.098637581E1,1.129344940E1
1.000335420E1,-3.863044500E0,-3.207751465E1,1.006522369E1
1.001331628E1,-1.264138460E0,-2.882858276E1,1.191235065E1
1.002330090E1,-8.882488012E-1,-1.909615326E1,1.485243034E1
1.003333113E1,-3.383007050E0,-7.346607685E0,1.463934612E1
1.004332144E1,-6.121973515E0,1.283292055E0,1.210628128E1
1.005330036E1,-6.367379189E0,2.673126221E0,1.229542255E1
1.006334001E1,-3.424905539E0,-4.973954201E0,9.969455719E0
1.007329874E1,-2.594117641E0,-1.256716442E1,1.635239720E0
1.008332482E1,-2.269703150E0,-1.957259941E1,-3.148375154E-1
1.009332171E1,-2.698265314E0,-2.384744644E1,-2.517503023E0
1.010333013E1,-1.819593310E0,-1.791820526E1,-6.781576157E0
1.011332736E1,1.327584863E0,-1.042435455E1,-7.224503517E0
1.012334170E1,4.062960148E0,-2.776076794E0,-4.193444252E0
1.013332301E1,7.319074631E0,1.736993313E0,1.394622445E0
1.014333251E1,7.590816498E0,2.446874142E0,6.968324184E0
1.015335109E1,2.566584110E0,-3.471592441E-2,5.963956356E0
1.016332528E1,-2.489969730E0,-2.964021683E0,-1.320402265E0
1.017330994E1,-3.993528366E0,-5.380968094E0,-7.981071472E0
1.018331736E1,-2.152387381E0,-9.227252960E0,-5.623979568E0
1.019541090E1,-7.685387731E-1,-1.628296661E1,1.223437071E0
1.021331740E1,-2.521094322E0,-2.421854782E1,2.121262789E0
1.022331817E1,-2.421735048E0,-2.173456383E1,1.221042871E-1
1.023331913E1,-2.846705914E0,-1.670075417E1,2.094926536E-1
1.024362840E1,-2.106897593E0,-1.193389797E1,1.929726601E0
1.025332517E1,-7.745242715E-1,-9.768342972E0,2.529474020E0
1.026330751E1,1.544260085E-1,-9.503783226E0,1.431732655E0
1.027330890E1,9.349357486E-1,-9.673771858E0,8.092401624E-1
1.028332178E1,9.229647517E-1,-9.197325706E0,7.709329724E-1
1.029332882E1,8.918401599E-1,-8.485051155E0,5.315127969E-1
1.030330886E1,9.217676520E-1,-7.908048153E0,6.500257850E-1
1.031333990E1,8.212111592E-1,-7.463923931E0,8.918401599E-1
1.032333536E1,1.017535686E0,-6.964732647E0,1.052251697E0
1.033334567E1,1.338358760E0,-6.428431511E0,7.852981687E-1
1.034333270E1,1.462857246E0,-5.844246387E0,1.819593310E-1
1.035333424E1,1.405396342E0,-5.445611954E0,8.978256583E-2
1.036447967E1,1.350329757E0,-5.476736546E0,4.704606235E-1
1.037351851E1,1.271321058E0,-5.973533154E0,8.726865053E-1
1.038331451E1,9.516952038E-1,-6.597222805E0,7.721300721E-1
1.039423805E1,-2.370259613E-1,-7.320271492E0,-6.739677787E-1
1.040331740E1,-2.370259613E-1,-7.320271492E0,-6.739677787E-1
1.041338801E1,-7.218518257E-1,-7.370550156E0,-1.006761789E0
1.042329905E1,-7.673416734E-1,-7.222109318E0,-9.097966552E-1
1.043329813E1,-2.765302956E-1,-6.910863400E0,-4.333505034E-1
1.044330490E1,4.764461517E-1,-6.602011204E0,2.501940727E-1
1.045329601E1,9.732429981E-1,-7.064092159E0,7.290344238E-1
1.046330736E1,8.271966577E-1,-7.882909298E0,1.053448796E0
1.047330120E1,1.711854190E-1,-8.584410667E0,1.107318282E0
1.048331951E1,-6.895300746E-1,-9.133879662E0,6.009446383E-1
1.049334117E1,-1.450886250E0,-9.410409927E0,3.878606856E-1
1.050333132E1,-1.909375906E0,-9.902418137E0,1.150413871E0
1.051333644E1,-1.741781712E0,-1.097382355E1,2.753331900E0
1.052331482E1,-1.150413871E0,-1.069729328E1,3.842693806E0
1.053331267E1,-1.291671872E0,-9.853337288E0,-2.885012925E-1
1.054333855E1,-2.594117641E0,-1.038125896E1,-3.670311213E0
1.055330974E1,-4.236539841E0,-9.885659218E0,-5.588066578E0
1.056333351E1,-6.364984989E0,-1.024957752E1,-3.163937569E0
1.057336894E1,-7.340622425E0,-1.241393566E1,1.294066072E0
1.058333001E1,-5.910087109E0,-1.488714600E1,3.463212729E0
1.059333220E1,-4.411316395E0,-1.486200714E1,2.570175409E0
1.060330801E1,-3.699041605E0,-1.430535507E1,1.483207941E0
1.061331978E1,-3.434482336E0,-1.516367626E1,7.038952708E-1
1.062331001E1,-3.258508444E0,-1.618001556E1,4.010287821E-1
1.063331670E1,-2.887407303E0,-1.583046150E1,1.080982089E0
1.064332301E1,-2.299630642E0,-1.512177753E1,2.281674147E0
1.065330451E1,-1.280897856E0,-1.468004799E1,3.353079557E0
1.066335047E1,5.015852451E-1,-1.293946266E1,2.631227732E0
1.067332597E1,3.104082584E0,-1.087326717E1,6.584054828E-1
1.068332347E1,5.087678432E0,-1.091157436E1,-1.361103654E0
1.069364451E1,6.251260757E0,-1.264737034E1,-3.014299870E0
1.070331201E1,6.416460514E0,-1.462857246E1,-4.717774391E0
1.071331182E1,5.787982464E0,-1.581250477E1,-4.728548527E0
1.072330751E1,4.374206543E0,-1.668399429E1,-2.464830637E0
1.073330590E1,1.006761789E0,-1.843295860E1,1.261744261E0
1.074332370E1,-2.364274263E0,-1.953070068E1,4.022258759E0
1.075330551E1,-4.735731125E0,-1.919431496E1,3.987542868E0
1.076331228E1,-5.297171116E0,-1.764047813E1,2.232593060E0
1.077331313E1,-4.278438568E0,-1.566286755E1,1.675941199E-1
1.078331824E1,-2.631227732E0,-1.414254951E1,-1.912967205E0
1.079331313E1,-1.821987510E0,-1.281855583E1,-1.538274646E0
1.080331701E1,-1.528697729E0,-9.437943459E0,-1.387439847E0
1.081332013E1,-1.001973391E0,-8.613141060E0,-2.030282974E0
1.082332440E1,-2.920926213E-1,-7.712920666E0,-2.030282974E0
1.083333728E1,3.890577853E-1,-6.868964672E0,-1.495178938E0
1.084333682E1,8.379706144E-1,-6.212953568E0,-1.152808070E0
1.085332240E1,1.143231273E0,-5.434837818E0,-8.894459605E-1
1.086398255E1,1.179144382E0,-4.378994942E0,-8.439561129E-1
1.087340459E1,9.864110947E-1,-3.394978046E0,-8.798691034E-1
1.088333051E1,8.128314614E-1,-2.610877037E0,-6.763619781E-1
1.089331124E1,6.500257850E-1,-1.926135302E0,-3.926490843E-1
1.090330644E1,2.537853718E-1,-1.574187636E0,-9.816227108E-2
1.091331624E1,-7.541735470E-2,-1.662773132E0,1.891419291E-1
1.092341797E1,-2.633621991E-1,-1.754949808E0,6.500257850E-1
1.093335416E1,-2.047042400E-1,-1.934514999E0,1.076193690E0
1.094333936E1,-7.302315533E-2,-2.292448044E0,1.171961784E0
1.095333313E1,1.292868853E-1,-2.621650934E0,8.643068075E-1
1.096332951E1,2.717418969E-1,-3.034650564E0,6.200982332E-1
1.097332913E1,2.741360962E-1,-3.371036053E0,5.781996846E-1
1.098332774E1,1.975216419E-1,-3.386598349E0,1.140837073E0
1.099333486E1,1.280897856E-1,-3.210624456E0,1.924938202E0
1.100330528E1,5.147533491E-2,-3.049015760E0,2.655169725E0
1.101329351E1,-4.548983276E-2,-3.056198359E0,3.246537447E0
1.102331240E1,-1.999158412E-1,-3.149572372E0,3.813963413E0
1.103329844E1,-5.099649429E-1,-3.292027235E0,4.192247391E0
1.104331870E1,-7.565677166E-1,-3.647566319E0,4.133589268E0
1.105329794E1,-9.935936928E-1,-5.215768337E0,4.659116745E0
1.106329766E1,-5.997475386E-1,-8.757989883E0,6.688202381E0
1.107334544E1,-1.647210717E0,-1.963724327E1,9.817423820E0
1.108334166E1,-2.633621931E0,-2.800018883E1,1.356195545E1
1.109338305E1,-3.669114113E0,-3.150410271E1,1.116775417E1
1.110333194E1,-2.322375536E0,-2.852451897E1,1.049378586E1
1.111333624E1,-6.224924326E-2,-2.103306198E1,1.111987019E1
1.112335701E1,-2.789244950E-1,-1.171842003E1,1.239717674E1
1.113333282E1,-2.813186884E0,-2.594117641E0,1.280538750E1
1.114332228E1,-4.953603268E0,3.836708307E0,1.039203262E1
1.115331194E1,-4.612429619E0,4.990713596E0,8.485051155E0
1.116340736E1,-5.578489900E-1,-2.017114878E0,1.102170753E1
1.117333520E1,-4.070143029E-2,-1.020528507E1,7.550115108E0
1.118340940E1,-1.895010591E0,-1.837190628E1,2.669534922E0
1.119334374E1,-2.536656618E0,-2.463872910E1,2.348711967E0
1.120330932E1,-3.242946148E0,-2.486139107E1,-2.015917778E0
1.121332682E1,-1.329979062E0,-1.513614273E1,-8.301894188E0
1.122333705E1,2.173935175E0,-7.879317760E0,-8.106766701E0
1.123331567E1,5.823895454E0,-3.302801132E0,-2.120065689E0
1.124334340E1,9.354146004E0,-4.932055473E-1,2.929305792E0
1.125416463E1,9.311050415E0,5.578489900E-1,7.261613846E0
1.126333405E1,4.786009312E0,-1.598129630E0,6.950367451E0
1.127333163E1,-8.140286058E-2,-4.344278812E0,2.163161278E0
1.128330882E1,-2.233790159E0,-5.595249176E0,-5.185841084E0
1.129332693E1,-1.143231273E0,-8.292317390E0,-7.450755596E0
1.130332293E1,-6.464344263E-2,-1.301966858E1,-2.697068214E0
1.131330113E1,-9.935936928E-1,-1.862210083E1,1.892616391E0
1.132332936E1,-3.159149170E0,-2.145803261E1,2.372653961E0
1.133331128E1,-4.012681961E0,-2.008854866E1,6.428431273E-1
1.134331136E1,-3.938461781E0,-1.369004536E1,9.193734527E-1
1.135331813E1,-3.112462282E0,-1.122042656E1,1.817199111E0
1.136329805E1,-2.094926596E0,-1.018613148E1,1.574187636E0
1.137331770E1,-1.126471877E0,-9.623494148E0,9.121908545E-1
1.138329405E1,-3.447650373E-1,-9.374496460E0,7.709329724E-1
1.139330574E1,2.406172752E-1,-9.005789757E0,9.528923035E-1
1.140329670E1,5.351040959E-1,-8.163030624E0,8.774749041E-1
1.141329859E1,8.236053586E-1,-7.353790283E0,9.074024558E-1
1.142330713E1,1.102529883E0,-6.783970356E0,9.971849918E-1
1.143329316E1,1.262941360E0,-6.323086739E0,7.529764175E-1
1.144330732E1,1.438915253E0,-6.238092422E0,3.387795389E-1
1.145329347E1,1.408987641E0,-6.390124321E0,-9.457096457E-2
1.146329240E1,1.101332784E0,-6.469132900E0,-3.232172430E-1
1.147330820E1,6.584054828E-1,-6.478709698E0,5.267243832E-2
1.148329409E1,1.939303428E-1,-6.523002625E0,6.260837317E-1
1.149330063E1,-1.005564705E-1,-6.725312710E0,9.097966552E-1
1.150330632E1,-3.064578176E-1,-7.018602371E0,2.896983922E-1
1.151331424E1,-4.860229492E-1,-7.285555840E0,-1.006761789E0
1.152332278E1,-5.614402890E-1,-7.449558735E0,-1.956062794E0
1.153331474E1,-4.285621047E-1,-7.275979042E0,-1.845929503E0
1.154331555E1,-1.699883193E-1,-6.957550049E0,-8.152256608E-1
1.155331386E1,7.661445439E-2,-6.868964672E0,3.351882398E-1
1.156333201E1,1.628057212E-1,-7.462726593E0,1.221042871E0
1.157334490E1,-1.735796183E-1,-8.299500465E0,1.574187636E0
1.158334516E1,-7.589619160E-1,-8.850166321E0,1.371877551E0
1.159332517E1,-1.441309452E0,-9.415198326E0,4.848258495E-1
1.160331124E1,-2.024297476E0,-9.946710587E0,-2.513911761E-2
1.161333917E1,-2.535459518E0,-9.485827446E0,2.246958256E0
1.162333078E1,-2.014720678E0,-8.609549522E0,2.676717520E0
1.163331455E1,-1.526303530E0,-8.718485832E0,1.564610839E0
1.164330947E1,-1.637633920E0,-9.756371498E0,1.544260085E-1
1.165330763E1,-2.029085875E0,-1.084214211E1,-7.182605267E-1
1.166332866E1,-3.154360771E0,-1.087326717E1,-2.238578558E0
1.167331578E1,-4.456806660E0,-9.902418137E0,-3.099294186E0
1.168330043E1,-5.366602898E0,-1.019451046E1,-1.555034041E0
1.169331274E1,-4.977545261E0,-1.273715305E1,5.961562395E-1
1.170331343E1,-3.426102638E0,-1.487876606E1,2.126051188E0
1.171331632E1,-2.445677042E0,-1.462378407E1,1.582567334E0
1.172331874E1,-2.491166830E0,-1.455794334E1,7.445967197E-1
1.173330559E1,-3.113659382E0,-1.559942150E1,4.082113802E-1
1.174331320E1,-3.484760523E0,-1.653435707E1,5.817909837E-1
1.175331559E1,-3.326743364E0,-1.649724770E1,9.959878922E-1
1.176330824E1,-2.756923199E0,-1.565448761E1,1.784877419E0
1.177338720E1,-1.443703651E0,-1.490749645E1,2.905363798E0
1.178421574E1,8.379706144E-1,-1.369243908E1,3.608062029E0
1.179332559E1,3.235763550E0,-1.229063416E1,1.965639591E0
1.180333405E1,5.249287128E0,-1.168490124E1,-8.619126081E-1
1.181337016E1,6.458359241E0,-1.236844635E1,-2.894589901E0
1.182334805E1,6.252457619E0,-1.362420464E1,-4.977545261E0
1.183332840E1,5.146336555E0,-1.432091713E1,-5.747281075E0
1.184330874E1,3.667917013E0,-1.507987976E1,-4.477157116E0
1.185330970E1,2.394201756E-1,-1.657745171E1,-1.465251446E0
1.186331028E1,-2.785653591E0,-1.824142265E1,3.049015760E0
1.187332413E1,-4.604049683E0,-1.855506325E1,5.351040840E0
1.188332093E1,-3.445256233E0,-1.586757183E1,1.572990537E0
1.189332516E1,-1.777694821E0,-1.405875206E1,-4.393360019E-1
1.190332009E1,-1.699883193E-1,-1.248097324E1,-1.692700624E0
1.191332451E1,-1.352723986E-1,-1.114860058E1,-1.461660147E0
1.192332047E1,-5.063736439E-1,-9.732429504E0,-7.362170219E-1
1.193330924E1,-4.141969085E-1,-8.773551941E0,-1.106121182E0
1.194332174E1,4.309562966E-2,-7.682993412E0,-9.349357486E-1
1.195332220E1,5.339069963E-1,-6.780379295E0,-8.164227605E-1
1.196335243E1,8.056488633E-1,-6.196194172E0,-7.589619160E-1
1.197336866E1,8.726865053E-1,-5.207388878E0,-5.243301988E-1
1.198333586E1,5.398924947E-1,-3.988739967E0,-7.386112213E-1
1.199333532E1,2.837128937E-1,-3.056198359E0,-7.565677166E-1
1.200332332E1,1.843535304E-1,-2.439691544E0,-4.429273009E-1
1.201332674E1,1.077390742E-2,-2.316390038E0,-9.217676520E-1
1.202331247E1,-3.687070608E-1,-1.697489023E0,-4.872200489E-1
1.203335228E1,-4.955997467E-1,-1.550245643E0,1.173158810E-1
1.204331032E1,-4.932055473E-1,-1.802833915E0,3.471592367E-1
1.205334167E1,-3.591302633E-1,-2.002749681E0,4.812345505E-1
1.206330893E1,-2.274491638E-2,-2.323572636E0,4.381389022E-1
1.207333901E1,3.579331636E-1,-2.646790028E0,2.537853718E-1
1.208331416E1,6.464344859E-1,-2.978386879E0,1.197100803E-2
1.209331782E1,8.044517636E-1,-3.195062160E0,6.943184882E-2
1.210331986E1,7.781155705E-1,-3.246537447E0,6.392518282E-1
1.211331270E1,5.973533392E-1,-3.150769472E0,1.465251446E0
1.212334224E1,4.740519226E-1,-3.327940464E0,2.175132275E0
1.213331751E1,3.220201433E-1,-3.664325714E0,2.882618904E0
1.214333790E1,-1.436520964E-1,-3.939658880E0,3.381809950E0
1.215331370E1,-1.436521053E0,-4.674678802E0,4.843470097E0
1.216333413E1,-1.605312228E0,-7.116764545E0,6.773196697E0
1.217332513E1,-1.294066072E0,-1.094868469E1,8.412027359E0
1.218332574E1,-1.600523829E0,-1.521874332E1,9.935936928E0
1.219336436E1,-3.125630379E0,-2.291370773E1,1.290594387E1
1.220333678E1,-2.771288395E0,-3.084449959E1,1.005564690E1
1.221343713E1,-1.189918280E0,-3.223553085E1,9.340977669E0
1.222331616E1,5.494692922E-1,-2.672168541E1,1.129704094E1
1.223330643E1,3.315969408E-1,-1.597650814E1,1.387559605E1
1.224331920E1,-2.616862535E0,-4.377797604E0,1.468363857E1
1.225332167E1,-5.045780182E0,4.265270233E0,1.300650120E1
1.226330924E1,-3.280056238E0,3.556586742E0,1.191235065E1
1.227336170E1,-8.236053586E-1,-5.598840714E0,9.062053680E0
1.228332413E1,-6.021417379E-1,-1.350210094E1,7.469909191E-1
1.229331520E1,4.908113480E-1,-1.999876595E1,3.615244627E-1
1.230337932E1,-1.604115129E0,-2.435860825E1,1.684320927E0
1.231335655E1,-4.141968727E0,-1.887947845E1,3.998316824E-1
1.232334055E1,-1.665167332E0,-9.963470459E0,-2.231395960E0
1.233330770E1,2.093729496E0,-3.107673883E0,-4.502296448E0
1.234331790E1,5.185841084E0,1.143231273E0,-3.213018656E0
1.235332120E1,7.370550156E0,1.440112352E0,-2.226607651E-1
1.236333709E1,5.924452305E0,-8.140286058E-2,3.428496838E0
1.237331274E1,1.149216771E0,-3.491943121E0,3.037044764E0
1.238330070E1,-2.893392801E0,-6.129156113E0,-1.356315255E0
1.239330490E1,-2.991554976E0,-8.543708801E0,-4.425682068E0
1.240332893E1,-1.229422569E0,-1.318127728E1,-2.876633406E0
1.241331624E1,-3.962403834E-1,-1.872864342E1,9.121908545E-1
1.242332659E1,-2.342726469E0,-2.055781364E1,-4.189853072E-1
1.243330924E1,-2.644395828E0,-1.754351234E1,-1.687912196E-1
1.244331566E1,-2.571372509E0,-1.304480839E1,1.326387763E0
1.245331609E1,-1.698686123E0,-1.003769016E1,1.964442492E0
1.246330770E1,-6.967126727E-1,-9.014169693E0,1.520318031E0
1.247331005E1,-1.628057212E-1,-9.080010414E0,5.997475386E-1
1.248331028E1,-1.915361360E-2,-9.176975250E0,1.448491961E-1
1.249333313E1,2.406172752E-1,-9.391256332E0,4.249708056E-1
1.250367551E1,3.854664862E-1,-9.036913872E0,7.290344238E-1
1.251331370E1,4.644751251E-1,-8.343792915E0,1.168370485E0
1.252332197E1,6.679822803E-1,-7.650671482E0,1.344344258E0
1.253330393E1,8.056488633E-1,-7.252037048E0,1.076193690E0
1.254330247E1,8.990227580E-1,-7.058106422E0,9.265560508E-1
1.255333120E1,9.062053561E-1,-6.760028362E0,4.991910458E-1
1.256330590E1,6.619967818E-1,-6.463147640E0,-9.217676520E-2
1.257331563E1,1.364694983E-1,-6.248866558E0,-3.232172430E-1
1.258329601E1,-3.603273630E-1,-6.257246017E0,-6.584054977E-2
1.259329732E1,-8.559271097E-1,-6.307524204E0,1.197100850E-3
1.260331378E1,-1.207874775E0,-6.537367821E0,-4.800374508E-1
1.261329228E1,-1.393425345E0,-6.914454460E0,-1.241393566E0
1.262329759E1,-1.261744261E0,-7.077260017E0,-1.687912226E0
1.263329728E1,-7.864952683E-1,-6.981492043E0,-1.510741234E0
1.264334143E1,-1.831564307E-1,-6.803123951E0,-7.015010715E-1
1.265332720E1,2.968810201E-1,-6.945579052E0,6.823474765E-1
1.266331243E1,2.992752194E-1,-7.714118004E0,1.997961283E0
1.267332547E1,-2.597708702E-1,-8.518569946E0,2.458845139E0
1.268330690E1,-8.271966577E-1,-8.973467827E0,2.035071373E0
1.269331078E1,-1.440112352E0,-8.522160530E0,4.548983276E-1
1.270336374E1,-1.388636947E0,-8.143877029E0,6.979097724E-1
1.271330659E1,-1.074996591E0,-8.061277390E0,1.163581967E0
1.272332405E1,-5.793967843E-1,-8.080430984E0,1.283292055E0
1.273331105E1,-6.428431273E-1,-8.622717857E0,7.266402245E-1
1.274330409E1,-1.316810966E0,-1.021965027E1,-3.375824392E-1
1.275330693E1,-1.966836691E0,-1.175193882E1,-1.374271750E0
1.276333128E1,-2.725798607E0,-1.188362026E1,-2.582146645E0
1.277331413E1,-3.834314108E0,-1.018852520E1,-3.355473757E0
1.278331636E1,-4.857835293E0,-9.928754807E0,-2.474407434E0
1.279334513E1,-3.466804028E0,-1.271560478E1,7.661445439E-2
1.280332332E1,-8.762778044E-1,-1.396178722E1,3.033453465E0
1.281332959E1,8.702923059E-1,-1.317648888E1,4.259284973E0
1.282332709E1,1.045069098E0,-1.176630402E1,4.218583584E0
1.283333497E1,-2.896983922E-1,-1.247738171E1,3.690661907E0
1.284331470E1,-2.401384354E0,-1.593939781E1,1.191115379E0
1.285336251E1,-4.363432407E0,-1.795531654E1,-1.352723986E-1
1.286332932E1,-4.819528103E0,-1.705868721E1,5.219359994E-1
1.287332016E1,-4.594472885E0,-1.521156025E1,1.165976286E0
1.288331905E1,-3.927687883E0,-1.380975533E1,8.511387110E-1
1.289332797E1,-1.733402014E0,-1.254681396E1,-8.810662031E-1
1.290330855E1,1.328781962E0,-1.186566353E1,-1.810016513E0
1.291331866E1,4.288015366E0,-1.181059742E1,-1.246181965E0
1.292330913E1,6.271611214E0,-1.215057373E1,-2.622848034E0
1.293330428E1,6.542156219E0,-1.336682796E1,-4.599261284E0
1.294329932E1,4.967968464E0,-1.413895798E1,-3.992331266E0
1.295332559E1,3.132812977E0,-1.546774006E1,-1.465251446E0
1.296331174E1,-3.239354849E0,-1.805706978E1,3.695450306E0
1.297332982E1,-4.496310711E0,-1.812171173E1,3.971980572E0
1.298395832E1,-4.337096214E0,-1.724423790E1,2.600103140E0
1.299330697E1,-3.308786631E0,-1.623867226E1,9.564836025E-1
1.300333097E1,-2.057816267E0,-1.494700146E1,-9.816227108E-2
1.301330982E1,-1.240196466E0,-1.359427738E1,-9.205705523E-1
1.302331809E1,-1.158793569E0,-1.250371838E1,-1.438915253E0
1.303331701E1,-1.635239720E0,-1.143470764E1,-1.060631394E0
1.304331309E1,-1.540668845E0,-1.022563553E1,-1.246181965E0
1.305333116E1,-8.152256608E-1,-8.974664688E0,-1.533486247E0
1.306333347E1,3.567360640E-1,-7.777564049E0,-1.349132657E0
1.307332809E1,1.361103654E0,-6.847416878E0,-1.374271750E0
1.308360386E1,1.892616391E0,-6.047753334E0,-1.543063045E0
1.309342401E1,2.106897593E0,-5.171475887E0,-1.523909330E0
1.310365190E1,1.960851192E0,-4.295197964E0,-1.280897856E0
1.311331690E1,1.489193439E0,-3.664325714E0,-1.127668977E0
1.312331574E1,1.029506683E0,-3.402160645E0,-8.044517636E-1
1.313333770E1,6.392518282E-1,-3.004723072E0,-8.307880163E-1
1.314342132E1,7.062894851E-2,-2.487575531E0,-9.026140571E-1
1.315332097E1,-4.525041282E-1,-1.869871497E0,-4.668693244E-1
1.316330851E1,-4.752490520E-1,-1.772906303E0,1.460463107E-1
1.317331716E1,-3.315969408E-1,-1.758541107E0,6.320692301E-1
1.318332178E1,-1.963245422E-1,-1.744175911E0,8.116343617E-1
1.319330755E1,-1.149216816E-1,-1.850717902E0,7.625532150E-1
1.320331409E1,-1.843535304E-1,-2.066195965E0,6.129156351E-1
1.321330632E1,-3.746925592E-1,-2.189497471E0,6.368576288E-1
1.322331332E1,-6.596025825E-1,-1.966836691E0,1.687912226E0
1.323331993E1,-7.398083210E-1,-1.545457244E0,2.360682964E0
1.324330520E1,-8.882488012E-1,-1.416170359E0,2.979583979E0
1.325332078E1,-1.066616893E0,-1.924938202E0,3.842693806E0
1.326331616E1,-1.425747156E0,-3.891774893E0,4.951209068E0
1.327333790E1,-1.790862918E0,-7.077260017E0,5.759252071E0
1.328332936E1,-1.727416515E0,-1.093671322E1,7.949946880E0
1.329331274E1,-2.237381458E0,-1.516128254E1,1.072482681E1
1.330336851E1,-3.439270735E0,-2.240853119E1,1.470758057E1
1.331338732E1,-2.407369852E0,-3.152445412E1,9.913191795E0
1.332332463E1,1.376665980E-1,-3.455551147E1,9.636661530E0
1.333333163E1,1.452083349E0,-2.852092743E1,1.160828686E1
1.334332239E1,1.155202270E0,-1.686475754E1,1.377384281E1
1.335334236E1,-1.569399238E0,-4.248510838E0,1.411621284E1
1.336332078E1,-4.049792290E0,5.718550682E0,1.242231560E1
1.337330870E1,-1.308431268E0,5.986701488E0,1.045308495E1
1.338333620E1,2.500743628E0,-3.298012733E0,1.026513958E1
1.339339159E1,6.751648784E-1,-1.218888092E1,1.352723956E0
1.340332186E1,1.371877551E0,-1.885433769E1,1.055842996E0
1.341331401E1,3.543418646E-1,-2.578435516E1,3.333925962E0
1.342333920E1,-3.404554844E0,-2.184110451E1,1.843535304E-1
1.343333736E1,-1.631648421E0,-1.021007347E1,-1.097741485E0
1.344333343E1,2.525882721E0,-2.964021683E0,-3.861847401E0
1.345332001E1,6.841431141E0,9.923965931E-1,-3.847482204E0
1.346332447E1,9.466673851E0,1.453280449E0,-6.452373862E-1
1.347331486E1,8.201337814E0,-5.985504389E-2,5.345055103E0
1.348333613E1,2.409764051E0,-4.193444252E0,6.546944618E0
1.349332005E1,-4.137180328E0,-8.920795441E0,-5.469553947E0
1.350331486E1,-2.401384354E0,-1.208832455E1,-4.818330765E0
1.351331366E1,-1.879448295E0,-1.801277733E1,3.315969408E-1
1.352331666E1,-3.652354717E0,-2.163999176E1,1.268926859E-1
1.353333459E1,-4.613626480E0,-2.137902451E1,-1.751358509E0
1.354330682E1,-4.509479046E0,-1.889982796E1,-9.911994934E-1
1.355333401E1,-3.854664803E0,-1.454238129E1,1.159990668E0
1.356333928E1,-2.622848034E0,-1.094988155E1,2.448071241E0
1.357331289E1,-1.209071875E0,-9.367314339E0,2.072181463E0
1.358336366E1,-2.609679997E-1,-9.306262016E0,9.241618514E-1
1.359332436E1,1.628057212E-1,-9.440337181E0,1.616086215E-1
1.360334166E1,7.876923680E-1,-9.807847023E0,6.596025825E-1
1.361337616E1,1.292868972E0,-9.569623947E0,9.756371975E-1
1.362449013E1,1.443703651E0,-8.643068314E0,8.643068075E-1
1.363350947E1,1.647210717E0,-7.820659637E0,9.421183467E-1
1.364330759E1,1.897404790E0,-7.303512096E0,1.259350061E0
1.365330336E1,2.049436569E0,-6.967126846E0,1.227028370E0
1.366330101E1,1.904587507E0,-6.764816761E0,5.781996846E-1
1.367331274E1,1.606509328E0,-6.961141586E0,2.992752194E-1
1.368330932E1,1.210268974E0,-7.362170219E0,3.699041605E-1
1.369330378E1,8.559271097E-1,-7.722497463E0,8.858546019E-1
1.370330778E1,5.087678432E-1,-7.990648270E0,1.623268723E0
1.371330216E1,-3.830722719E-2,-7.825448036E0,1.812410712E0
1.372329793E1,-5.422866940E-1,-7.343016624E0,1.449689150E0
1.373330505E1,-7.996633649E-1,-6.764816761E0,8.499416113E-1
1.374329801E1,-7.433996201E-1,-6.315904140E0,3.782838583E-1
1.375330255E1,-3.639186621E-1,-5.926846504E0,-6.344634295E-2
1.376329636E1,5.075707436E-1,-6.397306919E0,1.268926859E-1
1.377329578E1,3.830722570E-1,-7.262810707E0,9.828197956E-1
1.378330097E1,8.379706182E-3,-7.906851292E0,1.760935307E0
1.379329524E1,-5.075707436E-1,-8.426392555E0,1.672349930E0
1.380333305E1,-1.031900883E0,-8.929175377E0,6.991068721E-1
1.381333136E1,-1.503558636E0,-9.119514465E0,4.632780254E-1
1.382331093E1,-1.812410712E0,-8.959102631E0,1.261744261E0
1.383338559E1,-2.007538080E0,-8.857349396E0,1.896207690E0
1.384332362E1,-2.324769735E0,-9.238027573E0,1.313219666E0
1.385332101E1,-2.531868219E0,-9.703699112E0,-1.028309584E0
1.386338743E1,-2.990357876E0,-9.495404243E0,-4.374206543E0
1.387334055E1,-3.956418276E0,-9.702502251E0,-5.042188644E0
1.388346966E1,-5.108029366E0,-1.204163742E1,-2.545036316E0
1.389331251E1,-4.351461411E0,-1.596693134E1,2.576161146E0
1.390330789E1,-2.408566952E0,-1.673786354E1,5.294776917E0
1.391330670E1,-1.173158884E0,-1.443703651E1,6.192602634E0
1.392331463E1,-1.610100627E0,-1.320402241E1,5.489904404E0
1.393331797E1,-3.020285368E0,-1.523670006E1,3.288435936E0
1.394330255E1,-4.539406300E0,-1.758421516E1,5.398924947E-1
1.395331039E1,-5.011064053E0,-1.704791260E1,-4.944026470E-1
1.396340416E1,-4.102464676E0,-1.504755783E1,2.047042400E-1
1.397333539E1,-3.167528868E0,-1.318008041E1,1.310825467E0
1.398333493E1,-1.756146908E0,-1.140717411E1,2.266111851E0
1.399331839E1,3.232172132E-2,-1.010951710E1,1.563413739E0
1.400333543E1,2.425326347E0,-1.047343540E1,9.995791912E-1
1.401332520E1,4.430470467E0,-1.237922001E1,-8.535329103E-1
1.402362509E1,4.004302502E0,-1.567124748E1,-4.661510944E0
1.403423720E1,3.653551817E0,-1.685757446E1,-2.944868088E0
1.404373751E1,2.867056608E0,-1.874420547E1,2.717418969E-1
1.405331343E1,3.483563364E-1,-2.012805367E1,3.366247654E0
1.406331928E1,-2.238578558E0,-1.919311714E1,3.693056107E0
1.407331162E1,-3.275267839E0,-1.723825264E1,2.191891670E0
1.408332043E1,-3.025073767E0,-1.515769100E1,7.266402245E-1
1.409331593E1,-2.097320795E0,-1.373792934E1,-3.555389643E-1
1.410331378E1,-1.149216771E0,-1.296699619E1,-9.792284966E-1
1.411332266E1,-9.409212470E-1,-1.210029507E1,-7.829039693E-1
1.412335409E1,-1.677138329E0,-1.143470764E1,7.182605099E-3
1.413332328E1,-2.074575663E0,-1.103966427E1,2.992752194E-2
1.414333862E1,-1.684320927E0,-1.062067890E1,-7.553706169E-1
1.415333016E1,-6.835445762E-1,-9.768342972E0,-1.211466074E0
1.416333559E1,3.746925592E-1,-8.398859978E0,-1.505952835E0
1.417332751E1,1.322796464E0,-6.962338448E0,-1.479616642E0
1.418331820E1,1.939303398E0,-5.898116112E0,-1.583764434E0
1.419337578E1,2.136825085E0,-4.656722069E0,-1.526303530E0
1.420331489E1,1.723825216E0,-3.217807055E0,-1.474828243E0
1.421333189E1,1.266532660E0,-2.535459518E0,-1.264138460E0
1.422331582E1,9.253589511E-1,-2.304419041E0,-9.373299479E-1
1.423333832E1,4.991910458E-1,-2.175132275E0,-9.923965931E-1
1.424331763E1,1.963245422E-1,-2.070984364E0,-7.110779285E-1
1.425331524E1,2.454056740E-1,-1.877054095E0,2.849099934E-1
1.426331932E1,3.591302633E-1,-1.650802016E0,4.800374508E-1
1.427330543E1,5.482721925E-1,-1.674744129E0,3.711012602E-1
1.428334716E1,8.116343617E-1,-1.867477298E0,3.687070608E-1
1.429334562E1,8.319851160E-1,-2.353500366E0,3.399766386E-1
1.430331670E1,3.148375154E-1,-2.760514498E0,1.063025594E0
1.431331732E1,-6.464344263E-2,-2.815581083E0,1.818396211E0
1.432331920E1,-4.776432514E-1,-2.917334795E0,2.509123325E0
1.433332747E1,-9.074024558E-1,-3.252522945E0,3.197456360E0
1.434330997E1,-1.367089152E0,-3.605667830E0,3.664325714E0
1.435330847E1,-1.698686123E0,-4.256890774E0,4.485537052E0
1.436341509E1,-1.631648421E0,-6.014234543E0,6.599617004E0
1.437337224E1,-1.167173386E0,-9.114726067E0,8.831012726E0
1.438360747E1,-7.864952683E-1,-1.222000504E1,1.112824917E1
1.439332109E1,-1.222239971E0,-1.860773468E1,1.326507473E1
1.440331155E1,-1.344344258E0,-2.894948959E1,1.018493366E1
1.441336443E1,-1.073799491E0,-3.444777298E1,7.784746647E0
1.442331528E1,-1.505952835E0,-3.124313545E1,8.305485725E0
1.443330782E1,-1.329979062E0,-2.099355698E1,1.027711105E1
1.444329747E1,-2.261323452E0,-7.147889137E0,1.159871006E1
1.445332574E1,-2.919728994E0,2.554613113E0,1.321479607E1
1.446331036E1,-4.019864559E0,6.501454830E0,1.419641876E1
1.447329601E1,-3.851073503E0,4.054580688E0,1.195424938E1
1.448332266E1,-3.813963413E0,-2.105700493E0,1.046984386E1
1.449330193E1,-4.358644009E0,-7.878120899E0,9.718064308E0
1.450329928E1,-5.735310078E0,-1.283651257E1,6.461950302E0
1.451330816E1,-5.582081318E0,-1.592862415E1,8.258798599E0
1.452329724E1,-5.872976780E0,-1.854907799E1,8.699332237E0
1.453330528E1,-6.011840343E0,-1.744894218E1,6.193799973E0
1.454331662E1,-2.607285738E0,-1.142153931E1,-1.276109457E0
1.455333274E1,3.557783842E0,-5.098452568E0,-1.167532444E1
1.456333612E1,8.738836288E0,-1.898601890E0,-1.544379807E1
1.457346628E1,1.773145866E1,-3.495534360E-1,6.093243122E0
1.458506220E1,1.137126064E1,-1.112106681E0,1.205360889E1
1.459334174E1,2.488772631E0,-4.303577423E0,9.973047256E0
1.460330993E1,-3.895366192E0,-8.061277390E0,2.100912094E0
1.461334774E1,-3.804386616E0,-1.056680965E1,-8.410830498E0
1.462331009E1,-1.953668594E0,-1.365054131E1,-1.197100830E1
1.463332220E1,-1.319205165E0,-1.838866615E1,-5.747281075E0
1.464331166E1,-3.275267839E0,-2.294842339E1,2.968810081E0
1.465333974E1,-5.242104530E0,-2.348592186E1,4.459200859E0
1.466332593E1,-5.892130375E0,-1.981441307E1,1.683123827E0
1.467331386E1,-5.691017628E0,-1.451843929E1,1.577778935E0
1.468331432E1,-3.900154591E0,-1.087326717E1,2.185906172E0
1.469337282E1,-1.954865694E0,-9.557653427E0,1.318008065E0
1.470331359E1,-7.996633649E-1,-8.941145897E0,-3.998316824E-1
1.471331328E1,2.346317619E-1,-8.717288017E0,-7.254431248E-1
1.472332405E1,6.931213737E-1,-8.224082947E0,-9.038111567E-1
1.473332143E1,6.260837317E-1,-7.825448036E0,-8.942343593E-1
1.474330312E1,3.782838583E-1,-7.876923561E0,-3.052607179E-1
1.475331032E1,4.189853072E-1,-8.439560890E0,8.212111592E-1
1.476332155E1,8.104372621E-1,-8.854954720E0,1.843535304E0
1.477330589E1,1.473631144E0,-9.059659004E0,1.783680320E0
1.478331512E1,2.120065689E0,-8.892065048E0,1.483207941E0
1.479333197E1,2.450465441E0,-8.151060104E0,1.746570110E0
1.480332651E1,2.365471363E0,-7.222109318E0,2.086546898E0
1.481333597E1,1.920149803E0,-6.612784863E0,2.451662540E0
1.482332739E1,1.176750183E0,-6.408081055E0,2.534262419E0
1.483332986E1,4.237737060E-1,-6.391321659E0,2.104503393E0
1.484332189E1,-4.836287498E-1,-6.179434776E0,3.711012751E-2
1.485331997E1,-3.986345828E-1,-5.795165062E0,-9.145850539E-1
1.486346505E1,-4.788403399E-3,-5.110423565E0,-1.442506552E0
1.487335528E1,6.667851806E-1,-4.981136799E0,-1.352723956E0
1.488334997E1,1.015141487E0,-6.192602634E0,-5.099649429E-1
1.489352643E1,6.596025825E-1,-7.662642479E0,9.062053561E-1
1.490336032E1,6.823474914E-2,-8.274360657E0,1.588552833E0
1.491330424E1,-5.566518903E-1,-8.439560890E0,1.337161660E0
1.492331278E1,-1.121683478E0,-8.141483307E0,1.005564690E0
1.493329966E1,-1.624465823E0,-7.827842236E0,1.173158884E0
1.494330128E1,-1.651999116E0,-9.068038940E0,1.385045648E0
1.495330047E1,-1.016338587E0,-1.072243214E1,1.823184609E0
1.496331886E1,-6.763619781E-1,-1.093072796E1,2.102109194E0
1.497329620E1,-7.661445141E-1,-1.069849014E1,6.763619781E-1
1.498331124E1,-1.022324085E0,-1.039083576E1,-2.068590164E0
1.499333189E1,-1.897404790E0,-1.004367638E1,-3.769670486E0
1.500332051E1,-3.483563423E0,-1.126352215E1,-2.561795712E0
1.501332936E1,-4.431667328E0,-1.436880112E1,1.282094955E0
1.502331328E1,-4.805162907E0,-1.698087502E1,4.151545525E0
1.503345601E1,-5.256469727E0,-1.755189323E1,3.957615376E0
1.504333236E1,-5.160701752E0,-1.722269058E1,2.562992811E0
1.505334089E1,-4.702212334E0,-1.742260551E1,4.584896266E-1
1.506333224E1,-4.049792290E0,-1.756745529E1,-1.018732786E0
1.508029305E1,-2.179920673E0,-1.383728886E1,1.935712099E0
1.509412189E1,-1.262941360E0,-1.026513958E1,4.343081951E0
1.510332212E1,-1.262941360E0,-1.026513958E1,4.343081951E0
1.511331874E1,2.402581453E0,-1.212423706E1,6.259640217E0
1.512330943E1,3.564966440E0,-1.465490818E1,2.549824715E0
1.513331859E1,3.378218651E0,-1.548449993E1,-3.305195332E0
1.514333262E1,2.663549423E0,-1.552280712E1,-6.562506676E0
1.515332097E1,2.009932280E0,-1.607107925E1,-6.853402138E0
1.516332839E1,4.692635238E-1,-1.693299103E1,-5.573701382E0
1.517330559E1,-2.549824715E0,-1.676300240E1,-1.837549806E0
1.518329793E1,-4.711789131E0,-1.655590439E1,1.654393315E0
1.519332478E1,-5.639542103E0,-1.623747635E1,2.923320293E0
1.520330397E1,-5.146336555E0,-1.543182659E1,2.473210335E0
1.521331762E1,-3.327940464E0,-1.488954067E1,4.560954273E-1
1.522330286E1,-2.776076794E0,-1.482729149E1,-5.518634915E-1
1.523332651E1,-2.507926226E0,-1.383968258E1,-5.195417404E-1
1.524333162E1,-1.848323703E0,-1.223077965E1,-7.733271718E-1
1.525333632E1,-1.150413871E0,-1.117134476E1,-1.180341482E0
1.526330801E1,-4.273650050E-1,-1.025436592E1,-1.171961784E0
1.527330893E1,7.781155407E-2,-9.664195061E0,-1.094150186E0
1.528330739E1,2.334346622E-1,-9.404424667E0,-1.131260276E0
1.529330889E1,1.855506301E-1,-9.273940086E0,-1.723825216E0
1.530330786E1,2.789244950E-1,-8.352172852E0,-1.442506552E0
1.531333989E1,1.149216816E-1,-7.175422668E0,-1.173158884E0
1.532332459E1,2.346317619E-1,-6.830657482E0,-3.196259141E-1
1.533332697E1,6.224924326E-1,-5.875370979E0,-1.675941199E-1
1.534332605E1,9.612720013E-1,-4.375403404E0,4.632780254E-1
1.535337709E1,1.148019671E0,-2.644395828E0,1.373074651E0
1.536332743E1,9.864110947E-1,-1.795651317E0,1.104924083E0
1.537332478E1,6.679822803E-1,-1.430535555E0,8.068459630E-1
1.538334951E1,3.591302633E-1,-1.950077295E0,6.895300746E-1
1.539332270E1,2.885012925E-1,-2.517503023E0,6.212953329E-1
1.540331316E1,2.501940727E-1,-3.116053581E0,6.931213737E-1
1.541333309E1,1.556231081E-1,-3.598485231E0,9.349357486E-1
1.542331624E1,9.097966552E-2,-3.902548790E0,1.247379065E0
1.543331086E1,3.315969408E-1,-4.256890774E0,1.808819413E0
1.544334209E1,6.069301367E-1,-4.410119534E0,2.410961151E0
1.545333051E1,9.050082564E-1,-4.420893669E0,2.844311714E0
1.546333593E1,1.103726983E0,-4.551377296E0,3.138798475E0
1.547332158E1,9.181763530E-1,-5.159504890E0,3.715801001E0
1.548331224E1,2.801215947E-1,-6.404489517E0,4.631583214E0
1.549332551E1,-2.861070931E-1,-8.179790497E0,5.220556736E0
1.550332670E1,-7.374141216E-1,-9.633070946E0,5.991489887E0
1.551332639E1,-8.930372596E-1,-1.018134308E1,7.184999466E0
1.552331912E1,-1.092953086E0,-1.049857426E1,8.402450562E0
1.553333547E1,-1.675941229E0,-1.088404083E1,1.064102936E1
1.554334105E1,-3.315969467E0,-1.066975975E1,1.323873806E1
1.555352655E1,-5.224148273E0,-1.035252857E1,1.401206589E1
1.556331689E1,-6.722918510E0,-9.840168953E0,1.356913853E1
1.557331970E1,-7.736862659E0,-8.929175377E0,1.250730991E1
1.558332170E1,-8.079233170E0,-8.188169479E0,1.139400578E1
1.559332185E1,-7.762001991E0,-8.044517517E0,1.057758331E1
1.560331397E1,-6.889315605E0,-8.336610794E0,1.006402683E1
1.561335132E1,-6.384139061E0,-9.255983353E0,1.052131939E1
1.562334701E1,-5.459977150E0,-1.159871006E1,1.209670448E1
1.563332728E1,-4.958391666E0,-1.396418095E1,1.217092419E1
1.564334601E1,-4.507084846E0,-1.432810020E1,8.385691643E0
1.565335889E1,-2.657563925E0,-1.035013390E1,4.082113743E0
1.566330916E1,2.347514868E0,-6.379350662E0,-5.689820290E0
1.567342766E1,6.895300865E0,-4.791994572E0,-1.008198357E1
1.568332109E1,9.886856079E0,-4.079719543E0,-4.408922195E0
1.569335589E1,1.204403210E1,-3.697844505E0,2.394201756E0
1.570333097E1,9.284713745E0,-3.007117271E0,7.362170219E0
1.571332597E1,3.796006680E0,-4.689043999E0,8.925583839E0
1.572331228E1,-1.562216640E0,-7.247248650E0,5.395333767E0
1.573335828E1,-3.211821556E0,-8.968679428E0,-2.353500366E0
1.574332547E1,-1.483207941E0,-1.064701462E1,-1.179742908E1
1.575332070E1,-5.398924947E-1,-1.326986313E1,-1.102769279E1
1.576331789E1,-1.277306557E0,-1.685877037E1,-2.985569477E0
1.577331039E1,-3.313575268E0,-2.012446213E1,3.299209833E0
1.578332739E1,-4.402936935E0,-2.045127106E1,3.772064686E0
1.579332328E1,-4.687847137E0,-1.749802399E1,1.656787634E0
1.580331047E1,-4.205415249E0,-1.395699883E1,1.495178938E0
1.581341224E1,-2.450465441E0,-1.148977375E1,1.807622313E0
1.582331716E1,-9.708487988E-1,-9.919178009E0,7.386112213E-1
1.583333366E1,-1.161187813E-1,-8.862137794E0,-7.026981711E-1
1.584334212E1,5.877765417E-1,-8.470685959E0,-1.130063176E0
1.585331912E1,7.194576263E-1,-8.325836182E0,-1.420958757E0
1.586335708E1,5.470750928E-1,-8.374917984E0,-1.175553083E0
1.587335809E1,3.208230138E-1,-8.645462036E0,-6.560112834E-1
1.588333243E1,3.411737382E-1,-9.598354340E0,2.310404629E-1
1.589331266E1,7.242460251E-1,-1.066975975E1,6.991068721E-1
1.590330812E1,1.338358760E0,-1.058596325E1,7.984662652E-1
1.591331343E1,1.778891921E0,-9.302670479E0,1.672349930E0
1.592331508E1,1.610100627E0,-6.919242859E0,2.075772762E0
1.593330397E1,1.383848548E0,-6.364984989E0,2.475604534E0
1.594333824E1,1.291671872E0,-5.997475147E0,2.700659513E0
1.595333285E1,1.230619669E0,-6.053739071E0,1.667561531E0
1.596333501E1,1.211466074E0,-6.351817131E0,3.711012751E-2
1.597332532E1,1.327584863E0,-6.374562263E0,-1.344344258E0
1.598452489E1,1.537077546E0,-6.151901245E0,-1.837549806E0
1.599334728E1,1.723825216E0,-5.820304394E0,-1.128866076E0
1.600332855E1,1.731007814E0,-5.997475147E0,-7.422025502E-2
1.601331370E1,1.121683478E0,-6.755239964E0,5.458779931E-1
1.602330958E1,9.576806426E-2,-7.412448406E0,6.045359373E-1
1.603332062E1,-6.679822803E-1,-7.727285862E0,2.202665508E-1
1.604332355E1,-9.995791912E-1,-7.975085735E0,-5.111620426E-1
1.605330247E1,-8.283938169E-1,-8.288725853E0,-6.751648784E-1
1.606332082E1,-1.759738177E-1,-8.489839554E0,9.457096457E-2
1.607331228E1,7.062895298E-1,-8.461109161E0,1.373074651E0
1.608330043E1,9.995791912E-1,-8.720879555E0,2.486378431E0
1.609331028E1,3.028665185E-1,-9.889249802E0,2.406172752E0
1.610329585E1,-7.386112213E-1,-1.119887829E1,5.207388401E-1
1.611331128E1,-1.759738207E0,-1.158195114E1,-1.914164305E0
1.612334816E1,-3.064578056E0,-1.097621727E1,-3.420117140E0
1.613330351E1,-4.017470360E0,-1.132457447E1,-3.186682463E0
1.614330778E1,-4.678270340E0,-1.326148319E1,-1.771709204E0
1.615329316E1,-4.855441093E0,-1.563653088E1,4.261679053E-1
1.616329539E1,-3.976768970E0,-1.678096008E1,2.697068214E0
1.617331412E1,-2.790441990E0,-1.625662994E1,3.957615376E0
1.618329824E1,-1.974019289E0,-1.599087334E1,3.387795389E-1
1.619329420E1,-1.356315255E0,-1.689468384E1,-1.301248670E0
1.620329401E1,-3.256114423E-1,-1.549168205E1,-1.651999205E-1
1.621332770E1,4.668693244E-2,-1.324951267E1,1.685518026E0
1.622334128E1,1.316810995E-1,-1.140358257E1,3.081337690E0
1.623333489E1,4.046200812E-1,-1.088284397E1,4.313154221E0
1.624331882E1,1.031900883E0,-1.164659405E1,6.455965042E0
1.625333301E1,1.614889026E0,-1.208712769E1,8.271966934E0
1.626332535E1,1.953668594E0,-1.285207462E1,7.612364292E0
1.627345589E1,1.957259893E0,-1.334288597E1,3.040636063E0
1.628334297E1,1.486799240E0,-1.282095051E1,-3.776853085E0
1.629332716E1,9.409212470E-1,-1.291911221E1,-8.070854187E0
1.630331435E1,3.986345828E-1,-1.434845066E1,-8.670601845E0
1.631332989E1,-8.559271097E-1,-1.559942150E1,-7.742848396E0
1.632334632E1,-1.924938202E0,-1.641105461E1,-2.820369720E0
1.633330847E1,-2.697068214E0,-1.722269058E1,3.235763550E0
1.634332466E1,-3.122039080E0,-1.727655983E1,5.354631901E0
1.635331828E1,-2.489969730E0,-1.633803177E1,3.825934410E0
1.636332528E1,-9.349357486E-1,-1.520677185E1,1.892616391E0
1.637337212E1,5.590460896E-1,-1.424071217E1,-3.471592441E-2
1.638334820E1,1.052251697E0,-1.338478470E1,-1.048660398E0
1.639347547E1,1.114500880E0,-1.202009010E1,-1.185129806E-1
1.640347755E1,7.829039693E-1,-1.090678596E1,6.296750307E-1
1.641512928E1,1.723825186E-1,-9.742006302E0,-8.858546019E-1
1.642334805E1,2.849099934E-1,-9.072827339E0,-1.663970232E0
1.643330747E1,2.849099934E-1,-9.072827339E0,-1.663970232E0
1.644330666E1,3.555389643E-1,-8.376114845E0,-2.990357876E0
1.645329847E1,1.508347094E-1,-6.670246124E0,-3.523067713E0
1.646329616E1,-2.968810201E-1,-5.720944881E0,-2.871845007E0
1.647330889E1,-3.567360640E-1,-4.507084846E0,-6.823474765E-1
1.648329978E1,-3.112462163E-2,-3.762487888E0,6.344634295E-2
1.649329616E1,2.094926536E-1,-3.056198359E0,-9.217676520E-2
1.650329551E1,4.034229815E-1,-2.570175409E0,-1.915361360E-2
1.651329912E1,5.746083856E-1,-2.341529369E0,4.058171809E-1
1.652330770E1,7.996633649E-1,-2.014720678E0,7.278373241E-1
1.653330805E1,9.097966552E-1,-1.722628117E0,4.345476031E-1
1.654330855E1,9.050082564E-1,-1.784877419E0,2.837128937E-1
1.655330420E1,6.332663298E-1,-1.732204914E0,2.370259613E-1
1.656336535E1,2.382230759E-1,-1.663970232E0,3.064578176E-1
1.657332224E1,-7.182604820E-2,-1.412579060E0,6.895300746E-1
1.658332693E1,-4.393360019E-1,-1.088164687E0,1.022324085E0
1.659336589E1,-9.014169574E-1,-8.212111592E-1,1.345541358E0
1.660334651E1,-1.273715258E0,-7.326257229E-1,1.663970232E0
1.661333739E1,-1.416170359E0,-8.738836050E-1,1.926135302E0
1.662336451E1,-1.623268723E0,-1.667561531E0,3.238157749E0
1.663332316E1,-1.708262920E0,-3.928884983E0,5.054159641E0
1.664334032E1,-1.787271619E0,-6.743268967E0,7.023390770E0
1.665331216E1,-2.996343374E0,-1.110550499E1,1.148977375E1
1.666333001E1,-5.838260651E0,-2.027409935E1,1.681208420E1
1.667333632E1,-4.088099480E0,-2.806483269E1,7.765593052E0
1.668332570E1,-1.376665950E0,-3.349248886E1,6.224924564E0
1.669332132E1,-1.771709323E-1,-3.097857666E1,8.474276543E0
1.670331955E1,-2.298433632E-1,-1.784757614E1,8.494627953E0
1.671331489E1,-1.987187415E-1,-4.423287868E0,9.549273491E0
1.672333428E1,-1.590947032E0,4.085705280E0,1.405276680E1
1.673332374E1,-1.860294700E0,8.379706144E-1,1.187763500E1
1.674332647E1,-2.116474390E0,-4.272452831E0,8.175002098E0
1.675330662E1,-1.736993313E0,-9.713275909E0,6.811503887E0
1.676332628E1,-1.740584612E0,-1.351167774E1,7.015010834E0
1.677332135E1,-1.716642618E0,-1.348534107E1,8.367734909E0
1.678330297E1,-4.501099288E-1,-1.150174522E1,1.055603504E1
1.679331055E1,-2.477998734E-1,-1.132217979E1,1.272159100E1
1.680330651E1,-1.680729628E0,-1.178665543E1,1.337401104E1
1.681334997E1,-2.072181463E0,-1.016697788E1,1.075475407E1
1.682333205E1,-1.132457376E0,-6.640318394E0,4.604049683E0
1.683368182E1,1.094150186E0,-3.570951939E0,-9.888052940E-1
1.684332201E1,3.113659382E0,-2.443282843E0,-5.517437935E0
1.685332635E1,4.262876034E0,-2.166752577E0,-7.801506042E0
1.686332193E1,5.492298603E0,-1.871068597E0,-5.082890034E0
1.687333155E1,6.214150429E0,-2.346317768E0,1.158793569E0
1.688334670E1,3.721786499E0,-4.505887508E0,8.431180954E0
1.689330978E1,-6.560112834E-1,-8.359354973E0,9.745597839E0
1.690331539E1,-3.512293816E0,-1.120127296E1,4.528632641E0
1.691334139E1,-3.740940094E0,-1.215536213E1,-2.559401512E0
1.692333766E1,-2.298433542E0,-1.290474701E1,-4.289212227E0
1.693330728E1,-1.854309201E0,-1.463216400E1,1.807622313E-1
1.694330170E1,-2.261323452E0,-1.615248108E1,3.640383720E0
1.695330724E1,-2.946065187E0,-1.598608494E1,3.912125587E0
1.696330005E1,-3.059789658E0,-1.452203083E1,2.628833532E0
1.697330162E1,-2.662352324E0,-1.206318569E1,1.950077295E0
1.698329635E1,-2.239775658E0,-9.856928825E0,1.774103403E0
1.699329678E1,-1.528697729E0,-8.619126320E0,5.578489900E-1
1.700332105E1,-1.084573388E0,-9.463082314E0,9.576806799E-3
1.701332482E1,-5.410895944E-1,-1.020289040E1,-1.412578970E-1
1.702332258E1,-4.668693244E-1,-1.050455952E1,-6.584054977E-2
1.703332635E1,-6.129156351E-1,-1.050934792E1,3.136404157E-1
1.704333232E1,-9.385270476E-1,-1.027112484E1,5.853823423E-1
1.705331901E1,-7.745242715E-1,-9.985017776E0,7.900865674E-1
1.706330697E1,-6.105214357E-2,-9.489418030E0,9.995791912E-1
1.707332005E1,1.000776291E0,-8.670601845E0,1.511938334E0
1.708330662E1,1.982398987E0,-7.764396191E0,1.356315255E0
1.709367139E1,2.760514498E0,-7.556100368E0,9.289502501E-1
1.710331208E1,3.007117271E0,-7.602787495E0,1.063025594E0
1.711333489E1,2.486378431E0,-7.533355713E0,1.541865945E0
1.712342916E1,1.580173135E0,-7.297526836E0,2.196680069E0
1.713339043E1,7.254431248E-1,-7.048529625E0,2.424129248E0
1.714331074E1,2.358288616E-1,-6.673837185E0,1.856703401E0
1.715618951E1,1.747767180E-1,-6.321889400E0,9.409212470E-1
1.717332412E1,8.738836050E-1,-5.467159748E0,-1.268926859E-1
1.718331089E1,1.221042871E0,-5.577292919E0,4.189853072E-1
1.719331362E1,1.143231273E0,-6.677428722E0,1.212663174E0
1.720343428E1,4.824316502E-1,-7.757213593E0,1.699883223E0
1.721329820E1,-3.411737382E-1,-8.074444771E0,1.380257249E0
1.722331516E1,-9.708487988E-1,-7.746439457E0,1.113303825E-1
1.723330935E1,-1.152808070E0,-8.037335396E0,-1.996764183E0
1.724329655E1,-1.347935557E0,-8.701725960E0,-3.051409960E0
1.725329974E1,-1.856703401E0,-9.071630478E0,-1.909375906E0
1.726329324E1,-1.584961534E0,-9.483432770E0,-3.177105665E0
1.727329874E1,-1.865083098E0,-9.531316757E0,-3.649960518E0
1.728329647E1,-1.861491799E0,-1.158554173E1,-2.547430515E0
1.729333212E1,-8.020575643E-1,-1.452801609E1,9.337386489E-2
1.730331893E1,3.088520169E-1,-1.575265026E1,2.861071110E0
1.731333608E1,1.037886381E0,-1.451724243E1,5.388150692E0
1.732332412E1,5.961562395E-1,-1.425986576E1,5.675455093E0
1.733336432E1,-1.338358760E0,-1.606269836E1,3.877409697E0
1.734331597E1,-4.013879299E0,-1.869632149E1,1.140837073E0
1.735334120E1,-5.349843502E0,-1.922065163E1,-7.541735172E-1
1.736335135E1,-4.766855717E0,-1.669117737E1,-9.816227108E-2
1.737334582E1,-4.481945515E0,-1.478778648E1,2.466027737E-1
1.738331851E1,-4.296394825E0,-1.326507473E1,2.082955539E-1
1.739332539E1,-3.678690910E0,-1.229302883E1,2.238578647E-1
1.740332151E1,-2.589329243E0,-1.169208431E1,7.697358727E-1
1.741330793E1,-9.600749016E-1,-1.152089882E1,2.335543871E0
1.742332582E1,7.601590157E-1,-1.211705494E1,4.534617901E0
1.743330458E1,2.078166962E0,-1.266891861E1,4.553771496E0
1.744331658E1,2.628833532E0,-1.235168648E1,-3.411737382E-1
1.745335635E1,2.249352455E0,-1.207036781E1,-5.287594318E0
1.746341689E1,1.751358509E0,-1.332732391E1,-6.694188118E0
1.747337197E1,1.227028370E0,-1.472314358E1,-5.620388508E0
1.748337304E1,1.651999205E-1,-1.551562405E1,-3.265691042E0
1.749331893E1,-1.121683478E0,-1.569279480E1,3.591302410E-2
1.750338154E1,-1.952471495E0,-1.538992882E1,2.381033659E0
1.751331878E1,-2.195482969E0,-1.499488544E1,2.548627615E0
1.752331201E1,-2.035071373E0,-1.427183628E1,9.457096457E-1
1.753330624E1,-9.516952038E-1,-1.320641613E1,-1.055842996E0
1.754332535E1,-9.109937549E-1,-1.276708031E1,-3.663128614E-1
1.755332193E1,-9.792284966E-1,-1.204642582E1,3.902548850E-1
1.756330232E1,-8.990227580E-1,-1.123718548E1,-2.154781483E-2
1.757332216E1,-5.662286878E-1,-1.036809063E1,-8.643068075E-1
1.758332805E1,-6.224924326E-2,-9.470264435E0,-1.380257249E0
1.759332432E1,1.831564307E-1,-8.728062630E0,-1.956062794E0
1.760332016E1,2.286462635E-1,-8.115146637E0,-2.717418909E0
1.761332105E1,2.011129409E-1,-6.842628479E0,-2.597708941E0
1.762337608E1,-3.268085420E-1,-5.426458359E0,-2.251746655E0
1.763333243E1,-8.942343593E-1,-4.760869980E0,-1.630451322E0
1.764333331E1,-8.990227580E-1,-4.393360138E0,-8.690952063E-1
1.765334804E1,-5.877765417E-1,-3.999513865E0,-2.394201756E-1
1.766331585E1,-2.669534981E-1,-3.266888142E0,3.998316824E-1
1.767332658E1,-5.027823523E-2,-2.579752445E0,9.181763530E-1
1.768330401E1,3.232172132E-2,-2.436100245E0,1.028309584E0
1.769330793E1,-5.147533491E-2,-2.700659513E0,1.012747288E0
1.770339793E1,9.696517140E-2,-2.926911592E0,1.150413871E0
1.771330974E1,1.352723986E-1,-2.880224705E0,1.076193690E0
1.772336208E1,1.963245422E-1,-3.021482468E0,1.012747288E0
1.773330166E1,3.196259141E-1,-3.205836058E0,8.643068075E-1
1.774331897E1,4.237737060E-1,-3.117250681E0,8.571242094E-1
1.775331666E1,5.351040959E-1,-3.010708570E0,1.146822572E0
1.776330762E1,3.531447649E-1,-2.952050686E0,1.467645645E0
1.777330847E1,8.379705995E-2,-2.780865192E0,1.744175911E0
1.778330485E1,-2.202665508E-1,-2.633621931E0,2.011129379E0
1.779332628E1,-1.042674899E0,-3.123236179E0,2.533065319E0
1.780333381E1,-1.459265947E0,-4.164713860E0,3.801992416E0
1.781333808E1,-1.590947032E0,-7.036558628E0,6.135141850E0
1.782333581E1,-2.424129248E0,-9.776722908E0,7.835024834E0
1.783331412E1,-3.785232782E0,-1.342189503E1,1.052251625E1
1.784330678E1,-4.622006416E0,-1.957140160E1,1.328303146E1
1.785339805E1,-4.669890404E0,-2.511996460E1,1.278024864E1
1.786331312E1,-3.965995073E0,-2.654451370E1,1.077869606E1
1.787336389E1,-3.444059134E0,-2.345479774E1,1.071285534E1
1.788334604E1,-3.612850428E0,-1.494700146E1,1.007839203E1
1.789344078E1,-5.043385983E0,-6.408081055E0,9.950302124E0
1.790346028E1,-6.150704384E0,-8.571242094E-1,1.018972206E1
1.791376554E1,-6.550535679E0,3.675099611E-1,9.670180321E0
1.792333281E1,-6.793547153E0,-9.552865028E-1,9.722852707E0
1.793351058E1,-6.439205647E0,-4.471171856E0,9.077615738E0
1.794330758E1,-4.604049683E0,-8.723274231E0,7.483077526E0
1.795333247E1,-2.634819031E0,-1.241393566E1,6.129156113E0
1.796330366E1,-5.805938840E-1,-1.413776112E1,6.301538944E0
1.797330562E1,6.021417379E-1,-1.496136665E1,7.833827972E0
1.798330101E1,-4.010287821E-1,-1.618719864E1,9.400833130E0
1.799330405E1,-2.048239470E0,-1.557547951E1,8.376114845E0
1.800331674E1,-1.794454217E0,-1.233253288E1,4.534617901E0
1.801329843E1,1.051054597E0,-7.698555470E0,-3.094505787E0
1.802329739E1,4.726154327E0,-3.247734547E0,-1.013585281E1
1.803332958E1,7.481880188E0,-1.570596337E0,-7.286752701E0
1.804332920E1,9.249998093E0,-1.221042871E0,-2.513911761E-2
1.805332847E1,8.409633636E0,-1.167173386E0,5.948394299E0
1.806333047E1,3.251325846E0,-3.341108561E0,4.211400986E0
1.807332439E1,-2.875436306E0,-9.212887764E0,-2.778470993E0
1.808345754E1,-1.154005170E0,-1.160110474E1,-8.668207169E0
1.809334128E1,-2.741360962E-1,-1.412100124E1,-4.384980202E0
1.810331435E1,-1.104924083E0,-1.720473289E1,4.833893299E0
1.811335678E1,-2.899378300E0,-1.841141129E1,8.121131897E0
1.812331697E1,-3.957615376E0,-1.649245834E1,5.188235283E0
1.813331166E1,-3.782838583E0,-1.339795303E1,2.894589901E0
1.814331181E1,-3.013102770E0,-1.091277122E1,1.932120800E0
1.815333351E1,-2.303221941E0,-9.034520149E0,1.118092179E0
1.816332712E1,-1.906981707E0,-8.149862289E0,2.968810201E-1
1.817332474E1,-1.571793437E0,-7.886500359E0,-3.040636182E-1
1.818331962E1,-1.217451572E0,-7.821856976E0,-7.529764175E-1
1.819331066E1,-8.798691034E-1,-7.856573105E0,-6.619967818E-1
1.820334112E1,-5.279214978E-1,-7.841010571E0,-3.471592367E-1
1.821332820E1,-2.394201607E-2,-7.812280178E0,4.656722248E-1
1.822332866E1,3.902548850E-1,-7.771578789E0,1.155202270E0
1.823331551E1,8.810662031E-1,-7.902062893E0,1.407790542E0
1.824339931E1,1.343147159E0,-8.139088631E0,1.161187768E0
1.825331312E1,1.723825216E0,-8.294712067E0,7.805097699E-1
1.826330897E1,1.883039594E0,-8.075642586E0,5.075707436E-1
1.827330951E1,1.799242616E0,-7.837419033E0,4.357447028E-1
1.828333051E1,1.693897724E0,-7.764396191E0,1.019929886E0
1.829331047E1,1.192312479E0,-7.650671482E0,1.461660147E0
1.830330970E1,3.902548850E-1,-7.545326710E0,1.479616642E0
1.831331439E1,-1.675941199E-1,-7.538144112E0,7.398083210E-1
1.832353324E1,-3.746925592E-1,-7.365761757E0,-4.273650050E-1
1.833333616E1,1.400607973E-1,-6.305130005E0,-1.555034041E0
1.834331743E1,4.908113480E-1,-5.951985359E0,-1.669955730E0
1.835332516E1,7.362170219E-1,-6.345831394E0,-1.580173135E0
1.836331054E1,7.158663273E-1,-7.513004780E0,-1.058237195E0
1.837334204E1,4.560954273E-1,-8.889671326E0,-5.638344884E-1
1.838331785E1,-4.070143029E-2,-9.827000618E0,-5.698199868E-1
1.839331643E1,-6.979097724E-1,-1.023640919E1,-6.081272364E-1
1.840331997E1,-1.139639974E0,-1.062786102E1,-1.053448766E-1
1.841330047E1,-7.817068696E-1,-1.177827549E1,1.116895080E0
1.842329781E1,-8.379705995E-2,-1.232654762E1,2.194285870E0
1.843330585E1,1.113303825E-1,-1.151132202E1,2.488772631E0
1.844334108E1,-9.935937077E-2,-1.114261436E1,1.338358760E0
1.845330928E1,-6.392518282E-1,-1.078348446E1,-1.492784739E0
1.846329531E1,-1.552639842E0,-1.027711105E1,-3.537432909E0
1.847329328E1,-2.670732021E0,-1.087805557E1,-3.335123062E0
1.848331216E1,-2.996343374E0,-1.328781986E1,-9.205705523E-1
1.849329420E1,-2.534262419E0,-1.542584133E1,1.556231141E0
1.850332916E1,-1.952471495E0,-1.571075153E1,2.317587137E0
1.851331208E1,-2.013523579E0,-1.491587639E1,1.794454217E0
1.852332435E1,-2.737769604E0,-1.501164436E1,8.990227580E-1
1.853331839E1,-3.707421303E0,-1.565448761E1,-9.325415492E-1
1.854331835E1,-4.367023945E0,-1.615487671E1,-2.305616140E0
1.855335981E1,-4.147954464E0,-1.603037834E1,-1.125274777E0
1.856333712E1,-3.159149170E0,-1.503079796E1,1.486799240E0
1.857332466E1,-2.121262789E0,-1.364575291E1,2.735375404E0
1.858343439E1,-1.252167463E0,-1.238759995E1,3.444059134E0
1.859333208E1,-3.196259141E-1,-1.140477943E1,4.180276394E0
1.860333497E1,2.507926226E0,-1.061589050E1,4.570530891E0
1.861332770E1,3.219004154E0,-1.114740276E1,2.801215947E-1
1.862335962E1,2.679111719E0,-1.135809326E1,-5.204994678E0
1.863334251E1,1.948880196E0,-1.261265469E1,-8.022970200E0
1.864334728E1,1.332373261E0,-1.435084534E1,-7.461529732E0
1.865331955E1,-1.580173075E-1,-1.512776375E1,-4.365826607E0
1.866344908E1,-2.366668463E0,-1.491228485E1,9.421183467E-1
1.867331493E1,-3.693056107E0,-1.510861015E1,4.843470097E0
1.868331631E1,-3.276464939E0,-1.541865921E1,4.428076267E0
1.869330408E1,-1.777694821E0,-1.523430538E1,2.002749681E0
1.870330716E1,-3.435679376E-1,-1.470279217E1,2.944868207E-1
1.871330558E1,8.511387110E-1,-1.379419327E1,-3.495534360E-1
1.872330504E1,1.212663174E0,-1.261026001E1,-6.069301367E-1
1.873334947E1,7.577648163E-1,-1.112346077E1,-8.259996027E-2
1.874333024E1,2.430114746E-1,-9.719262123E0,6.979097724E-1
1.875332439E1,7.900865376E-2,-8.552088737E0,5.698199868E-1
1.876329839E1,1.771709323E-1,-7.892486095E0,-6.943184882E-2
1.877330220E1,3.387795389E-1,-7.392097950E0,-6.883329749E-1
1.878333166E1,7.182604820E-2,-7.000645638E0,-1.492784739E0
1.879331116E1,-2.741360962E-1,-6.924031258E0,-2.142810583E0
1.880333358E1,-6.272808313E-1,-6.332663536E0,-1.547851443E0
1.881330058E1,-1.047463298E0,-5.538985729E0,-1.505952835E0
1.882330824E1,-1.082179189E0,-4.618414879E0,-1.165976286E0
1.883331620E1,-8.882488012E-1,-3.744531393E0,-6.512228847E-1
1.884330166E1,-4.046200812E-1,-3.417722940E0,-2.011129409E-1
1.885330270E1,1.005564705E-1,-3.132812977E0,-2.753331885E-2
1.886330897E1,5.123591423E-1,-2.844311714E0,1.125274822E-1
1.887330866E1,7.733271718E-1,-2.073378563E0,8.702923059E-1
1.888331558E1,9.301473498E-1,-1.886630893E0,1.209071875E0
1.889330278E1,1.017535686E0,-2.011129379E0,1.541865945E0
1.890330881E1,8.331822157E-1,-2.299630642E0,1.820790410E0
1.891333389E1,2.717418969E-1,-2.640804529E0,1.994369984E0
1.892330254E1,-2.705447972E-1,-2.952050686E0,2.226607561E0
1.893331354E1,-7.386112213E-1,-3.263296843E0,2.619256735E0
1.894334747E1,-1.213860273E0,-3.527856112E0,3.145981073E0
1.895331104E1,-1.631648421E0,-3.827131510E0,3.365050554E0
1.896330070E1,-1.838746905E0,-4.121618271E0,3.664325714E0
1.897330593E1,-1.777694821E0,-4.838681698E0,4.390965939E0
1.898334708E1,-1.272518158E0,-6.543353081E0,6.406883717E0
1.899333981E1,-7.003039718E-1,-9.828198433E0,8.634688377E0
1.900333020E1,-1.780089021E0,-1.318008041E1,9.828198433E0
1.901334574E1,-3.493140221E0,-1.835514641E1,1.236724854E1
1.902331378E1,-3.933673382E0,-2.460999870E1,1.243189240E1
1.903333681E1,-3.645172119E0,-2.667499733E1,1.096185207E1
1.904335262E1,-2.952050686E0,-2.374808693E1,9.920374870E0
1.905332428E1,-2.129642487E0,-1.641823769E1,1.029267311E1
1.906333689E1,-1.960851192E0,-7.777564049E0,1.171243477E1
1.907334770E1,-2.742558002E0,-1.704671621E0,1.236964321E1
1.908334312E1,-3.602076530E0,4.285621047E-1,1.183214474E1
1.909330666E1,-4.015076160E0,7.541735470E-2,1.098340034E1
1.910331531E1,-4.369418144E0,-2.223016262E0,9.185355186E0
1.911336031E1,-4.446032524E0,-7.158663273E0,7.607575893E0
1.912331035E1,-4.296394825E0,-1.235527802E1,5.950788498E0
1.913332362E1,-2.297236443E0,-1.460103893E1,4.083311081E0
1.914330093E1,4.273650050E-1,-1.391150856E1,8.547300100E-1
1.915339643E1,5.135562420E-1,-1.434485912E1,-3.339911401E-1
1.916330043E1,5.674257874E-1,-1.285087776E1,8.439561129E-1
1.917329601E1,9.636662006E-1,-1.018972206E1,3.142389774E0
1.918330566E1,2.545036316E0,-5.877765179E0,-2.194285870E0
1.919329516E1,5.993884087E0,-3.083731890E0,6.224924326E-1
1.920329854E1,8.250418663E0,-1.970427990E0,4.025850296E0
1.921330078E1,6.740874767E0,-1.508347034E0,6.211756229E0
1.922332481E1,2.029085875E0,-2.207453966E0,6.054935932E0
1.923333904E1,-2.352303267E0,-4.681861401E0,5.482721925E-1
1.924331543E1,-3.452438831E0,-7.608773232E0,-5.459977150E0
1.925331162E1,-3.023876667E0,-1.096185207E1,-8.092401505E0
1.926331624E1,-2.740163803E0,-1.499727917E1,-4.757278919E0
1.927330970E1,-3.708618402E0,-1.867477417E1,1.825578809E0
1.928332928E1,-4.600458622E0,-2.028607178E1,3.962403774E0
1.929413039E1,-4.887762547E0,-1.749802399E1,1.849520802E0
1.930331928E1,-4.690241337E0,-1.264377880E1,1.051054597E0
1.931332285E1,-3.216609955E0,-9.489418030E0,1.472434044E0
1.932332789E1,-1.535880446E0,-8.060079575E0,1.071405292E0
1.933331631E1,-5.853823423E-1,-7.548917770E0,-3.567360640E-1
1.934330508E1,3.327940404E-1,-7.600393295E0,-9.038111567E-1
1.935330981E1,1.046266198E0,-7.467514992E0,-6.332663298E-1
1.936332328E1,1.398213744E0,-7.259219646E0,-2.956839204E-1
1.937332774E1,1.641225219E0,-7.190984726E0,1.161187813E-1
1.938330474E1,1.651999116E0,-7.259219646E0,4.979939461E-1
1.939330951E1,1.679532528E0,-7.378929615E0,1.043871999E0
1.940339770E1,1.739387512E0,-7.746439457E0,1.369483352E0
1.941332278E1,1.574187636E0,-8.165425301E0,9.911994934E-1
1.942331516E1,1.221042871E0,-7.916428089E0,8.176198602E-1
1.943330693E1,9.253589511E-1,-7.857769966E0,8.391677141E-1
1.944335124E1,7.529764175E-1,-7.997830868E0,9.744400978E-1
1.945331281E1,6.045359373E-1,-8.048109055E0,6.272808313E-1
1.946331685E1,4.537012279E-1,-8.010998726E0,-3.591302549E-3
1.947330654E1,4.596867263E-1,-7.726089001E0,-5.446808934E-1
1.948338839E1,6.057330370E-1,-7.250839710E0,-7.266402245E-1
1.949332158E1,7.661445141E-1,-6.856993675E0,-5.746083856E-1
1.950331766E1,8.307880163E-1,-6.945579052E0,-3.914519846E-1
1.951332720E1,6.607996821E-1,-7.534552574E0,-3.579331636E-1
1.952331274E1,3.028665185E-1,-8.267178535E0,-4.189853072E-1
1.953332808E1,-1.999158412E-1,-8.762778282E0,-3.699041605E-1
1.954330347E1,-8.104372621E-1,-9.096769333E0,-1.125274822E-1
1.955330278E1,-1.374271750E0,-9.485827446E0,5.817909837E-1
1.956331570E1,-1.432929754E0,-1.049977112E1,1.660378933E0
1.957331624E1,-1.152808070E0,-1.049258900E1,2.361880064E0
1.958331270E1,-1.159990668E0,-9.641449928E0,2.179920673E0
1.959330893E1,-1.842338204E0,-9.581595421E0,3.746925592E-1
1.960332912E1,-2.586935043E0,-1.035252857E1,-2.282871246E0
1.961333758E1,-3.433285236E0,-1.092115116E1,-4.234145641E0
1.962332300E1,-4.759673119E0,-1.103128433E1,-3.563769341E0
1.963332358E1,-5.013458252E0,-1.293228054E1,-1.197100803E-2
1.964331154E1,-3.721786499E0,-1.529176617E1,3.065775394E0
1.965343635E1,-2.730587006E0,-1.596094608E1,3.366247654E0
1.966331362E1,-2.306813240E0,-1.613332748E1,2.873042107E0
1.967331254E1,-2.359485865E0,-1.660977364E1,2.572569609E0
1.968334539E1,-3.089717388E0,-1.694496346E1,2.466027737E-1
1.969350774E1,-2.407369852E0,-1.604953194E1,1.438915253E0
1.970332712E1,-9.708487988E-1,-1.368645382E1,3.512293816E0
1.971331578E1,2.202665508E-1,-1.139280891E1,3.875015497E0
1.972331878E1,1.416170359E0,-9.879673004E0,3.016694069E0
1.973334404E1,2.557007313E0,-9.465476036E0,-1.711854190E-1
1.974332431E1,3.145981073E0,-1.056441498E1,-3.803189516E0
1.975332520E1,3.345896959E0,-1.244865131E1,-5.804741859E0
1.976333931E1,3.417722940E0,-1.425028896E1,-5.341464043E0
1.977332678E1,3.495534420E0,-1.611417389E1,-2.998737574E0
1.978330447E1,1.999158382E0,-1.784638023E1,8.822633028E-1
1.979331235E1,-4.429273009E-1,-1.848682785E1,3.760093689E0
1.980330339E1,-1.958456993E0,-1.813248634E1,3.538630009E0
1.981332612E1,-2.449268341E0,-1.706227875E1,1.630451322E0
1.982331547E1,-2.049436569E0,-1.563413715E1,-2.992752194E-2
1.983331331E1,-9.528923035E-1,-1.438915253E1,-7.948749661E-1
1.984331162E1,2.681505978E-1,-1.310226917E1,-1.205480576E0
1.985354258E1,5.386953950E-1,-1.178785229E1,-1.327584863E0
1.986331781E1,-2.920926213E-1,-1.027950478E1,-3.914519846E-1
1.987333054E1,-1.049857497E0,-9.232041359E0,3.675099611E-1
1.988331420E1,-1.230619669E0,-8.791508675E0,3.112462163E-1
1.989331116E1,-9.493009448E-1,-8.275558472E0,-3.818751574E-1
1.990332154E1,-4.153940082E-1,-7.687781811E0,-1.286883354E0
1.991333516E1,-3.363853395E-1,-6.817489147E0,-1.877054095E0
1.992330839E1,-4.525041282E-1,-5.977124691E0,-1.702277422E0
1.993331181E1,-7.781155705E-1,-5.094861031E0,-1.732204914E0
1.994330843E1,-1.181538582E0,-3.900154591E0,-1.298854470E0
1.995330427E1,-4.249708056E-1,-2.925714493E0,-3.615244627E-1
1.996331766E1,1.137245819E-1,-2.418143749E0,-2.454056740E-1
1.997330693E1,5.770025849E-1,-1.612494826E0,1.795651317E-1
1.998332247E1,8.547300100E-1,-9.277531505E-1,6.428431273E-1
1.999332820E1,1.051054597E0,-8.870517015E-1,7.709329724E-1
2.000333762E1,1.018732786E0,-1.000776291E0,9.648633003E-1
2.001333450E1,9.385270476E-1,-1.303642869E0,1.181538582E0
2.002331570E1,6.272808313E-1,-1.908178806E0,1.063025594E0
2.003331962E1,2.573766708E-1,-2.416946650E0,1.042674899E0
2.004331958E1,-1.268926859E-1,-2.489969730E0,1.331176162E0
2.005332993E1,-4.393360019E-1,-2.566584110E0,1.829170108E0
2.006331731E1,-7.254431248E-1,-2.700659513E0,2.360682964E0
2.007336720E1,-1.069011092E0,-2.841917515E0,2.822763920E0
2.008332508E1,-1.438915253E0,-2.895787001E0,3.106476784E0
2.009331451E1,-1.672349930E0,-3.186682463E0,3.335123062E0
2.010332785E1,-2.114080191E0,-4.072536945E0,4.302380562E0
2.011330931E1,-2.061407566E0,-7.005434036E0,6.982689381E0
2.012335693E1,-2.286462545E0,-1.147900009E1,9.536105156E0
2.013332662E1,-3.713406801E0,-1.740584564E1,1.305199051E1
2.014331658E1,-4.517858505E0,-2.621650887E1,1.495059204E1
2.015330293E1,-3.229778051E0,-3.255635452E1,1.132337666E1
2.016331466E1,-1.179144382E0,-3.166331673E1,1.002212811E1
2.017330731E1,1.448491961E-1,-2.373132706E1,1.061589050E1
2.018332331E1,-4.201824069E-1,-1.276468658E1,1.100375080E1
2.019336631E1,-2.349909067E0,-2.024297476E0,1.156758595E1
2.020330266E1,-3.226186752E0,3.954024076E0,1.238520527E1
2.021333935E1,-9.516952038E-1,1.887827992E0,1.191953278E1
2.022337224E1,-3.025073767E0,-1.358829212E1,6.071695328E0
2.023331777E1,-2.905363798E0,-1.697129822E1,4.307168961E0
2.024332212E1,-2.154781580E0,-1.996644592E1,4.495113850E0
2.025331474E1,-3.756502390E0,-2.348592186E1,3.586514235E0
2.026333974E1,-4.144362926E0,-1.722149277E1,1.471236944E0
2.027337335E1,1.400607973E-1,-7.232883453E0,-3.469198227E0
2.028332558E1,5.576095581E0,1.699883223E0,-1.117254257E1
2.029331951E1,9.555258751E0,1.941697598E0,-5.596446514E0
2.030426508E1,1.280658531E1,1.298854470E0,1.288080573E0
2.031330993E1,1.072482681E1,4.082113802E-1,8.743624687E0
2.032330581E1,3.459621429E0,-2.829946518E0,1.021965027E1
2.033330877E1,-3.263296843E0,-6.637924194E0,2.407369852E0
2.034332543E1,-2.930502892E0,-9.234436035E0,-6.593631268E0
2.035331427E1,-1.029506683E0,-1.352723980E1,-9.441534042E0
2.036332020E1,-8.846575022E-1,-1.950675774E1,-3.890577793E0
2.037332585E1,-3.450044632E0,-2.401264572E1,2.894589901E0
2.038332593E1,-5.708973885E0,-2.222537422E1,3.400963545E0
2.039330824E1,-6.222530365E0,-1.661575890E1,2.214636564E0
2.040330881E1,-5.029020786E0,-1.144667816E1,2.226607561E0
2.041330954E1,-2.938882589E0,-8.886079788E0,2.088941097E0
2.042330658E1,-1.329979062E0,-7.850587368E0,7.015010715E-1
2.043330881E1,-7.110779285E-1,-7.201758862E0,-9.911994934E-1
2.044333004E1,-4.991910458E-1,-6.657077789E0,-1.912967205E0
2.045330581E1,-2.023100406E-1,-6.305130005E0,-2.024297476E0
2.046331131E1,3.711012602E-1,-6.095637321E0,-1.443703651E0
2.047330004E1,9.528923035E-1,-5.990292549E0,6.464344263E-2
2.048329524E1,1.323993564E0,-5.872976780E0,1.143231273E0
2.049330658E1,1.793257117E0,-6.619967937E0,1.563413739E0
2.050329862E1,1.751358509E0,-7.176619530E0,1.199495077E0
2.051329731E1,1.497573137E0,-7.796717644E0,9.385270476E-1
2.052329704E1,9.481038451E-1,-8.360552788E0,6.847416759E-1
