"Time (s)","Gyroscope x (rad/s)","Gyroscope y (rad/s)","Gyroscope z (rad/s)"
2.512032000E-3,-6.285054982E-2,-4.249069989E-1,-6.258422881E-2
5.024011000E-3,-6.498107314E-2,-4.227764606E-1,-7.110633701E-2
7.535990000E-3,-5.326317623E-2,-4.110585749E-1,-7.217160612E-2
1.004802100E-2,-5.113264918E-2,-3.822964430E-1,-7.962844521E-2
1.256000000E-2,-4.900212213E-2,-3.471427560E-1,-8.815055341E-2
1.507203200E-2,-4.687159508E-2,-3.066627383E-1,-9.347687662E-2
1.758401100E-2,-4.474106804E-2,-2.693785131E-1,-1.019989848E-1
2.009599000E-2,-3.515369445E-2,-2.374206036E-1,-9.986845404E-2
2.260802100E-2,-2.024000697E-2,-2.129195482E-1,-9.773793072E-2
2.512000000E-2,-2.130527049E-3,-1.873532236E-1,-1.019989848E-1
2.763197900E-2,1.491368935E-2,-1.575258374E-1,-1.073253006E-1
3.014401100E-2,2.876211517E-2,-1.245026737E-1,-1.147821471E-1
3.265599000E-2,3.941474855E-2,-1.010668799E-1,-1.169126704E-1
3.516796900E-2,5.219791085E-2,-7.763107866E-2,-1.201084629E-1
3.768000000E-2,5.965475738E-2,-5.845633522E-2,-1.201084629E-1
4.019197900E-2,6.285054982E-2,-4.886896536E-2,-1.158474088E-1
4.270395900E-2,6.072001904E-2,-2.436790243E-2,-1.126516163E-1
4.521599000E-2,5.858949572E-2,5.459475331E-3,-1.094558239E-1
4.772796900E-2,5.539370328E-2,2.996053733E-2,-1.115863547E-1
5.023994800E-2,5.539370328E-2,5.765738711E-2,-1.147821471E-1
5.275197900E-2,4.474106804E-2,8.535423875E-2,-1.201084629E-1
5.526395900E-2,3.941474855E-2,1.055942476E-1,-1.275653094E-1
5.777593800E-2,3.834948689E-2,1.173121482E-1,-1.296958327E-1
6.028796900E-2,3.089264221E-2,1.183774099E-1,-1.254347861E-1
6.279994800E-2,2.556632459E-2,1.173121482E-1,-1.286305636E-1
6.531192700E-2,2.024000697E-2,1.045289859E-1,-1.318263561E-1
6.782395900E-2,1.065263525E-2,8.002792299E-2,-1.265000403E-1
7.033593800E-2,3.195790574E-3,5.765738711E-2,-1.233042553E-1
7.284791700E-2,-6.391581148E-3,3.528685495E-2,-1.233042553E-1
7.535994800E-2,-1.171789877E-2,1.398158353E-2,-1.179779321E-1
7.787192700E-2,-1.384842582E-2,-5.193159916E-3,-1.137168780E-1
8.038390700E-2,-1.065263525E-2,-2.649842948E-2,-1.073253006E-1
8.289593800E-2,-6.391581148E-3,-3.928159177E-2,-9.880319238E-2
8.540791700E-2,2.130527049E-3,-4.780369997E-2,-8.282423764E-2
8.791994800E-2,1.491368935E-2,-5.739107355E-2,-6.364949793E-2
9.043192700E-2,1.065263525E-2,-4.780369997E-2,-2.530000918E-2
9.294390700E-2,-1.597895287E-2,-9.454214014E-3,6.098633632E-2
9.545593800E-2,-4.261054099E-2,2.356895618E-2,1.366200447E-1
9.796791700E-2,-6.072001904E-2,4.274369776E-2,1.696432233E-1
1.004798960E-1,-7.030738890E-2,5.233107135E-2,1.760347933E-1
1.029919270E-1,-7.669897377E-2,5.020054430E-2,1.717737466E-1
1.055039070E-1,-7.456845045E-2,3.741738200E-2,1.643168926E-1
1.080158860E-1,-7.030738890E-2,2.463421971E-2,1.515337378E-1
1.105279170E-1,-5.965475738E-2,3.328948515E-3,1.387505680E-1
1.130398960E-1,-4.474106804E-2,-2.436790243E-2,1.334242523E-1
1.155518750E-1,-2.876211517E-2,-4.886896536E-2,1.249021515E-1
1.180639070E-1,-1.384842582E-2,-7.017423213E-2,1.195758283E-1
1.205758860E-1,-2.130527049E-3,-8.721844852E-2,1.153147742E-1
1.230878650E-1,7.456844673E-3,-1.053279340E-1,1.121189892E-1
1.255998960E-1,1.278316230E-2,-1.223721504E-1,1.057274044E-1
1.281118750E-1,2.024000697E-2,-1.330247819E-1,9.614003450E-2
1.306238540E-1,2.237053402E-2,-1.372858435E-1,8.761792630E-2
1.331358860E-1,2.130527049E-2,-1.383510977E-1,7.696528733E-2
1.356478650E-1,2.237053402E-2,-1.383510977E-1,6.950844824E-2
1.381598440E-1,2.130527049E-2,-1.426121593E-1,6.311686337E-2
1.406718750E-1,2.343579754E-2,-1.500689983E-1,5.566002056E-2
1.431838540E-1,2.556632459E-2,-1.532647908E-1,5.139896646E-2
1.456958340E-1,2.663158812E-2,-1.649826914E-1,4.820317402E-2
1.482078650E-1,3.089264221E-2,-1.777658463E-1,4.926843941E-2
1.507198440E-1,3.515369445E-2,-1.852227002E-1,4.500738531E-2
1.532318750E-1,4.474106804E-2,-1.948100626E-1,4.287685826E-2
1.557436980E-1,4.793685675E-2,-2.033321708E-1,4.287685826E-2
1.582555730E-1,5.539370328E-2,-2.075932324E-1,4.181159288E-2
1.607674480E-1,6.178528443E-2,-2.129195482E-1,3.542001173E-2
1.632793230E-1,6.604634225E-2,-2.097237557E-1,3.009369411E-2
1.657911980E-1,7.456845045E-2,-2.054627091E-1,3.009369411E-2
1.683030730E-1,7.989476621E-2,-2.012016475E-1,2.689790353E-2
1.708149480E-1,8.522108197E-2,-2.001363784E-1,1.837579533E-2
1.733268230E-1,9.054739773E-2,-1.980058551E-1,1.837579533E-2
1.758386980E-1,9.693898261E-2,-1.958753318E-1,2.370211296E-2
1.783505730E-1,1.001347750E-1,-1.841574311E-1,3.328948468E-2
1.808624480E-1,1.001347750E-1,-1.671132147E-1,4.074633121E-2
1.833743230E-1,1.022652984E-1,-1.521995217E-1,4.181159288E-2
1.858861980E-1,1.001347750E-1,-1.308942586E-1,3.755053878E-2
1.883980730E-1,1.001347750E-1,-1.085237190E-1,3.542001173E-2
1.909099480E-1,9.693898261E-2,-1.063931957E-1,3.115895763E-2
1.934217710E-1,9.587371349E-2,-1.074584574E-1,2.689790353E-2
1.959336460E-1,9.693898261E-2,-1.053279340E-1,2.796316706E-2
1.984455210E-1,9.906950593E-2,-1.053279340E-1,2.902843058E-2
2.009573960E-1,9.693898261E-2,-1.074584574E-1,2.902843058E-2
2.034692710E-1,8.309055865E-2,-8.721844852E-2,2.902843058E-2
2.059811460E-1,1.491368935E-2,1.504684705E-2,2.796316706E-2
2.084930210E-1,-2.705769241E-1,3.996069729E-1,1.624526829E-2
2.110048960E-1,-6.519412994E-1,8.608660698E-1,-1.864211168E-3
2.135167710E-1,-7.275750041E-1,8.459523916E-1,-3.062632680E-2
2.160286460E-1,-5.209138393E-1,4.560659528E-1,-4.767054319E-2
2.185405210E-1,-2.450106144E-1,5.020054430E-2,-3.701790795E-2
2.210523960E-1,-3.195790574E-3,-2.395511419E-1,-1.145158336E-2
2.235642710E-1,1.917474270E-1,-4.089280367E-1,2.263684943E-2
2.260761460E-1,3.217095733E-1,-4.866922796E-1,4.926843941E-2
2.285880210E-1,3.856253922E-1,-5.048017502E-1,5.566002056E-2
2.310998960E-1,3.930822313E-1,-4.653870165E-1,4.926843941E-2
2.336117710E-1,3.771032989E-1,-4.131890833E-1,3.328948468E-2
2.361236460E-1,3.568632901E-1,-3.716438115E-1,1.944105886E-2
2.386355210E-1,3.366232812E-1,-3.545995951E-1,2.796316706E-2
2.411473960E-1,3.259706497E-1,-3.311637938E-1,5.566002056E-2
2.436592710E-1,3.206443191E-1,-2.938795686E-1,8.548739552E-2
2.461711460E-1,3.217095733E-1,-2.587258816E-1,9.294424206E-2
2.486830210E-1,3.131874800E-1,-2.384858727E-1,7.590002567E-2
2.511948960E-1,2.801643014E-1,-2.033321708E-1,5.033370107E-2
2.537067710E-1,2.247706056E-1,-1.394163668E-1,3.009369411E-2
2.562186460E-1,1.704421639E-1,-6.697844714E-2,3.115895763E-2
2.587305210E-1,1.352884620E-1,1.331579406E-4,4.181159288E-2
2.612423960E-1,1.012000367E-1,6.511422992E-2,4.394211993E-2
2.637542710E-1,6.285054982E-2,1.066595092E-1,2.583264001E-2
2.662661460E-1,3.302317113E-2,1.258342564E-1,2.396842930E-3
2.687780210E-1,1.704421639E-2,1.237037256E-1,-3.994738217E-3
2.712898960E-1,6.391581148E-3,1.205079332E-1,2.396842930E-3
2.738017710E-1,0.000000000E0,1.109205633E-1,3.462106455E-3
2.763136460E-1,3.195790574E-3,1.045289859E-1,-7.989476435E-4
2.788255210E-1,1.384842582E-2,1.002679318E-1,1.331579406E-3
2.813373960E-1,2.769685164E-2,8.641950041E-2,5.592633504E-3
2.838492710E-1,4.261054099E-2,7.257107645E-2,8.788423613E-3
2.863611460E-1,5.113264918E-2,4.807001725E-2,1.624526829E-2
2.888730210E-1,6.711160392E-2,2.889527380E-2,2.476737648E-2
2.913848960E-1,8.522108197E-2,2.143842913E-2,2.583264001E-2
2.938967710E-1,9.906950593E-2,2.037316561E-2,2.583264001E-2
2.964086460E-1,1.107874066E-1,3.102580085E-2,2.583264001E-2
2.989205210E-1,1.129179299E-1,4.593949020E-2,2.370211296E-2
3.014323960E-1,1.043958217E-1,5.872265249E-2,1.944105886E-2
3.039442710E-1,1.012000367E-1,7.150581479E-2,1.411474124E-2
3.064561460E-1,9.693898261E-2,8.002792299E-2,1.304947771E-2
3.089680210E-1,9.374319017E-2,8.855003119E-2,7.723160554E-3
3.114798960E-1,9.161266685E-2,8.855003119E-2,3.462106455E-3
3.139917710E-1,9.054739773E-2,8.641950041E-2,8.788423613E-3
3.165036460E-1,8.841687441E-2,8.748476952E-2,1.198421419E-2
3.190155210E-1,8.841687441E-2,7.683213055E-2,1.304947771E-2
3.215273960E-1,8.415582031E-2,7.363633811E-2,1.624526829E-2
3.240392710E-1,8.415582031E-2,8.002792299E-2,1.837579533E-2
3.265511460E-1,8.415582031E-2,8.428897709E-2,1.518000476E-2
3.290630210E-1,8.202528954E-2,9.068055451E-2,9.853687137E-3
3.315748960E-1,7.776423544E-2,1.034637168E-1,6.657897029E-3
3.340867710E-1,8.096002787E-2,1.162468791E-1,1.331579406E-3
3.365986460E-1,8.415582031E-2,1.247689873E-1,5.592633504E-3
3.391105210E-1,8.415582031E-2,1.290300488E-1,7.723160554E-3
3.416223960E-1,9.054739773E-2,1.311605722E-1,1.091895066E-2
3.441342710E-1,9.054739773E-2,1.290300488E-1,7.723160554E-3
3.466461460E-1,9.054739773E-2,1.311605722E-1,7.723160554E-3
3.491580210E-1,9.161266685E-2,1.258342564E-1,6.657897029E-3
3.516698960E-1,9.374319017E-2,1.258342564E-1,5.592633504E-3
3.541817710E-1,9.587371349E-2,1.226384640E-1,1.198421419E-2
3.566936460E-1,9.267792851E-2,1.226384640E-1,1.624526829E-2
3.592055210E-1,9.587371349E-2,1.226384640E-1,1.837579533E-2
3.617173960E-1,9.374319017E-2,1.183774099E-1,2.583264001E-2
3.642292710E-1,9.161266685E-2,1.173121482E-1,2.476737648E-2
3.667411460E-1,8.841687441E-2,1.130510941E-1,2.157158591E-2
3.692530210E-1,8.628634363E-2,1.034637168E-1,2.263684943E-2
3.717648960E-1,7.989476621E-2,9.387634695E-2,2.370211296E-2
3.742767710E-1,7.989476621E-2,9.387634695E-2,2.370211296E-2
3.767886460E-1,7.456845045E-2,8.855003119E-2,3.115895763E-2
3.793005210E-1,7.350318134E-2,8.322371542E-2,3.115895763E-2
3.818123960E-1,7.030738890E-2,7.363633811E-2,3.115895763E-2
3.843242710E-1,7.030738890E-2,6.298370659E-2,3.542001173E-2
3.868361460E-1,6.711160392E-2,5.659212545E-2,3.435475007E-2
3.893480210E-1,6.924212724E-2,5.020054430E-2,3.115895763E-2
3.918598960E-1,6.924212724E-2,4.913527891E-2,3.009369411E-2
3.943717190E-1,6.924212724E-2,4.593949020E-2,2.902843058E-2
3.968835940E-1,7.030738890E-2,4.380896315E-2,2.476737648E-2
3.993954690E-1,7.137265801E-2,4.167843610E-2,2.157158591E-2
4.019073440E-1,7.350318134E-2,3.635211661E-2,2.050632238E-2
4.044192190E-1,7.030738890E-2,2.996053733E-2,2.157158591E-2
4.069310940E-1,6.711160392E-2,2.676474676E-2,1.731053181E-2
4.094429690E-1,6.391581148E-2,2.356895618E-2,1.624526829E-2
4.119548440E-1,6.285054982E-2,2.356895618E-2,1.944105886E-2
4.144667190E-1,6.072001904E-2,2.250369266E-2,2.583264001E-2
4.169785940E-1,5.645896494E-2,1.398158353E-2,2.370211296E-2
4.194904690E-1,5.752423033E-2,1.398158353E-2,2.157158591E-2
4.220023440E-1,5.645896494E-2,1.611211151E-2,2.263684943E-2
4.245142190E-1,4.900212213E-2,1.398158353E-2,1.837579533E-2
4.270260940E-1,4.793685675E-2,1.291632000E-2,2.050632238E-2
4.295379690E-1,4.793685675E-2,1.398158353E-2,2.157158591E-2
4.320498440E-1,4.900212213E-2,1.717737503E-2,2.689790353E-2
4.345617190E-1,5.219791085E-2,8.655265905E-3,3.648527712E-2
4.370735940E-1,5.752423033E-2,-5.193159916E-3,4.074633121E-2
4.395854690E-1,6.391581148E-2,-1.158474106E-2,3.648527712E-2
4.420973440E-1,6.711160392E-2,-2.756369300E-2,3.435475007E-2
4.446092190E-1,6.604634225E-2,-3.289001063E-2,4.287685826E-2
4.471210940E-1,6.817686558E-2,-3.182474896E-2,6.098633632E-2
4.496329690E-1,7.243791968E-2,-3.821633011E-2,8.442213386E-2
4.521448440E-1,7.776423544E-2,-6.804370880E-2,8.655266464E-2
4.546567190E-1,7.243791968E-2,-1.042626649E-1,5.779054761E-2
4.571685940E-1,5.965475738E-2,-1.266331971E-1,2.476737648E-2
4.596804690E-1,4.580633342E-2,-1.138500422E-1,1.624526829E-2
4.621923440E-1,3.515369445E-2,-8.721844852E-2,2.157158591E-2
4.647042190E-1,2.237053402E-2,-6.484791636E-2,2.583264001E-2
4.672160940E-1,1.491368935E-2,-4.886896536E-2,4.287685826E-2
4.697279690E-1,1.384842582E-2,-5.313001946E-2,5.885580927E-2
4.722398440E-1,1.384842582E-2,-7.123950124E-2,6.844317913E-2
4.747517190E-1,1.704421639E-2,-1.000016108E-1,6.950844824E-2
4.772635940E-1,2.024000697E-2,-1.234374121E-1,7.270423323E-2
4.797754690E-1,1.917474344E-2,-1.319595128E-1,7.270423323E-2
4.822873440E-1,2.130527049E-2,-1.383510977E-1,7.163897157E-2
4.847992190E-1,2.237053402E-2,-1.383510977E-1,6.205160171E-2
4.873110940E-1,1.917474344E-2,-1.383510977E-1,5.139896646E-2
4.898229690E-1,1.384842582E-2,-1.394163668E-1,4.394211993E-2
4.923348440E-1,7.456844673E-3,-1.415468901E-1,3.861580417E-2
4.948467190E-1,6.391581148E-3,-1.500689983E-1,3.861580417E-2
4.973585940E-1,-2.130527049E-3,-1.628521681E-1,3.861580417E-2
4.998704690E-1,-1.065263525E-2,-1.724395305E-1,3.968106583E-2
5.023823440E-1,-1.491368935E-2,-1.724395305E-1,4.181159288E-2
5.048942190E-1,-2.024000697E-2,-1.798963845E-1,4.394211993E-2
5.074060940E-1,-2.237053402E-2,-1.830921620E-1,4.500738531E-2
5.099179690E-1,-2.769685164E-2,-1.862879544E-1,4.074633121E-2
5.124298440E-1,-2.663158812E-2,-1.884184927E-1,4.181159288E-2
5.149417190E-1,-2.450106107E-2,-1.884184927E-1,3.755053878E-2
5.174535940E-1,-2.450106107E-2,-1.905490160E-1,3.542001173E-2
5.199654690E-1,-2.237053402E-2,-1.969406009E-1,2.796316706E-2
5.224773440E-1,-2.237053402E-2,-1.969406009E-1,1.944105886E-2
5.249892190E-1,-2.556632459E-2,-1.894837469E-1,1.837579533E-2
5.275010940E-1,-2.982737869E-2,-1.873532236E-1,7.723160554E-3
5.300129690E-1,-2.982737869E-2,-1.841574311E-1,-3.994738217E-3
5.325248440E-1,-3.302317113E-2,-1.841574311E-1,-1.251684688E-2
5.350367190E-1,-3.621895984E-2,-1.809616387E-1,-1.571263745E-2
5.375485940E-1,-3.728422523E-2,-1.703090072E-1,-1.997369155E-2
5.400604690E-1,-4.154527932E-2,-1.585911065E-1,-1.571263745E-2
5.425723440E-1,-4.261054099E-2,-1.490037292E-1,-1.464737393E-2
5.450842190E-1,-4.687159508E-2,-1.447426826E-1,-1.571263745E-2
5.475960940E-1,-4.900212213E-2,-1.415468901E-1,-1.890842803E-2
5.501079690E-1,-4.900212213E-2,-1.372858435E-1,-2.210421860E-2
5.526198440E-1,-4.900212213E-2,-1.404816210E-1,-2.210421860E-2
5.551317190E-1,-4.687159508E-2,-1.479384750E-1,-2.316948213E-2
5.576435940E-1,-4.687159508E-2,-1.479384750E-1,-2.316948213E-2
5.601554690E-1,-4.261054099E-2,-1.490037292E-1,-2.530000918E-2
5.626673440E-1,-4.261054099E-2,-1.543300599E-1,-2.423474565E-2
5.651792190E-1,-4.580633342E-2,-1.564605832E-1,-1.890842803E-2
5.676910940E-1,-4.261054099E-2,-1.639174223E-1,-1.997369155E-2
5.702029690E-1,-4.261054099E-2,-1.596563756E-1,-1.890842803E-2
5.727148440E-1,-4.261054099E-2,-1.575258374E-1,-1.677790098E-2
5.752267190E-1,-4.048001394E-2,-1.511342674E-1,-1.784316450E-2
5.777385940E-1,-4.048001394E-2,-1.479384750E-1,-1.358211040E-2
5.802504690E-1,-4.154527932E-2,-1.490037292E-1,-1.145158336E-2
5.827623440E-1,-4.048001394E-2,-1.447426826E-1,-9.321056306E-3
5.852742190E-1,-3.621895984E-2,-1.415468901E-1,-1.145158336E-2
5.877860940E-1,-3.302317113E-2,-1.372858435E-1,-1.358211040E-2
5.902979690E-1,-2.556632459E-2,-1.372858435E-1,-2.530000918E-2
5.928098440E-1,-2.024000697E-2,-1.415468901E-1,-2.956106327E-2
5.953216670E-1,-1.810947992E-2,-1.383510977E-1,-1.890842803E-2
5.978335420E-1,-1.810947992E-2,-1.287637353E-1,-8.255792782E-3
6.003454170E-1,-2.024000697E-2,-1.276984662E-1,2.663158812E-4
6.028572920E-1,-2.876211517E-2,-1.319595128E-1,3.462106455E-3
6.053691670E-1,-3.621895984E-2,-1.351553053E-1,2.396842930E-3
6.078810420E-1,-3.941474855E-2,-1.415468901E-1,-1.864211168E-3
6.103929170E-1,-3.728422523E-2,-1.596563756E-1,-1.997369155E-2
6.129047920E-1,-3.834948689E-2,-1.862879544E-1,-3.808316961E-2
6.154166670E-1,-4.261054099E-2,-1.841574311E-1,-3.169158846E-2
6.179285420E-1,-4.261054099E-2,-1.490037292E-1,-3.994738217E-3
6.204404170E-1,-4.261054099E-2,-9.893634915E-2,2.476737648E-2
6.229522920E-1,-4.367580265E-2,-5.526054651E-2,4.607264698E-2
6.254641670E-1,-4.367580265E-2,-3.502053767E-2,5.459475517E-2
6.279760420E-1,-4.367580265E-2,-4.460791126E-2,6.737791747E-2
6.304879170E-1,-3.302317113E-2,-6.484791636E-2,6.524739414E-2
6.329997920E-1,-2.024000697E-2,-8.402266353E-2,5.885580927E-2
6.355116670E-1,-2.130527049E-3,-9.467529505E-2,4.820317402E-2
6.380235420E-1,1.278316230E-2,-9.467529505E-2,3.648527712E-2
6.405354170E-1,2.343579754E-2,-9.041424096E-2,2.370211296E-2
6.430472920E-1,3.302317113E-2,-7.976160944E-2,9.853687137E-3
6.455591670E-1,3.089264221E-2,-6.804370880E-2,2.663158812E-4
6.480710420E-1,2.556632459E-2,-6.165212765E-2,-5.060001742E-3
6.505829170E-1,1.597895287E-2,-5.526054651E-2,2.663158812E-4
6.530947920E-1,9.587371722E-3,-4.780369997E-2,2.663158812E-4
6.556066670E-1,7.456844673E-3,-4.354264587E-2,-1.864211168E-3
6.581184900E-1,4.261054099E-3,-3.821633011E-2,-7.989476435E-4
6.606303650E-1,-3.195790574E-3,-3.608580306E-2,2.396842930E-3
6.631421880E-1,-9.587371722E-3,-3.821633011E-2,3.462106455E-3
6.656540630E-1,-1.065263525E-2,-3.395527601E-2,3.462106455E-3
6.681659380E-1,-1.384842582E-2,-2.756369300E-2,2.396842930E-3
6.706777610E-1,-1.278316230E-2,-2.330263890E-2,2.396842930E-3
6.731896360E-1,-1.810947992E-2,-1.691105776E-2,-5.060001742E-3
6.757014590E-1,-1.491368935E-2,-8.388950489E-3,-7.190528791E-3
6.782133340E-1,-1.278316230E-2,-4.127896391E-3,-1.251684688E-2
6.807251570E-1,-4.261054099E-3,2.263684990E-3,-1.571263745E-2
6.832370320E-1,2.130527049E-3,4.394211806E-3,-1.997369155E-2
6.857489070E-1,6.391581148E-3,1.611211151E-2,-2.316948213E-2
6.882607290E-1,8.522108197E-3,1.824263856E-2,-2.956106327E-2
6.907726040E-1,1.278316230E-2,2.037316561E-2,-2.849579975E-2
6.932844270E-1,1.491368935E-2,2.250369266E-2,-3.062632680E-2
6.957963020E-1,1.384842582E-2,2.037316561E-2,-3.062632680E-2
6.983081250E-1,1.384842582E-2,1.717737503E-2,-2.530000918E-2
7.008200000E-1,1.171789877E-2,1.291632000E-2,-2.423474565E-2
7.033318750E-1,8.522108197E-3,7.590002380E-3,-1.890842803E-2
7.058436980E-1,3.195790574E-3,8.655265905E-3,-1.571263745E-2
7.083555730E-1,0.000000000E0,6.524738856E-3,-1.038631983E-2
7.108673960E-1,-5.326317623E-3,1.078579295E-2,-1.145158336E-2
7.133792710E-1,-3.195790574E-3,1.504684705E-2,-1.038631983E-2
7.158911460E-1,0.000000000E0,2.250369266E-2,-9.321056306E-3
7.184029690E-1,-3.195790574E-3,3.102580085E-2,-1.038631983E-2
7.209148440E-1,2.130527049E-3,4.061317071E-2,-1.145158336E-2
7.234266670E-1,5.326317623E-3,4.700475186E-2,-1.358211040E-2
7.259385420E-1,8.522108197E-3,4.807001725E-2,-1.571263745E-2
7.284503650E-1,1.171789877E-2,5.659212545E-2,-1.358211040E-2
7.309622400E-1,2.130527049E-2,6.298370659E-2,-8.255792782E-3
7.334741150E-1,2.663158812E-2,6.617949903E-2,-1.038631983E-2
7.359859380E-1,2.556632459E-2,6.724476069E-2,-1.145158336E-2
7.384978130E-1,2.982737869E-2,6.831002235E-2,-7.190528791E-3
7.410096360E-1,2.982737869E-2,6.831002235E-2,-8.255792782E-3
7.435215110E-1,3.089264221E-2,7.044055313E-2,-8.255792782E-3
7.460333340E-1,3.195790574E-2,6.937528402E-2,-9.321056306E-3
7.485452090E-1,3.089264221E-2,7.470160723E-2,-8.255792782E-3
7.510570840E-1,3.089264221E-2,7.363633811E-2,-5.060001742E-3
7.535689070E-1,3.089264221E-2,7.150581479E-2,-1.864211168E-3
7.560807820E-1,2.876211517E-2,7.363633811E-2,-7.989476435E-4
7.585926040E-1,2.343579754E-2,7.683213055E-2,1.331579406E-3
7.611044790E-1,2.343579754E-2,7.470160723E-2,-1.864211168E-3
7.636163020E-1,2.343579754E-2,7.789739221E-2,-2.929474693E-3
7.661281770E-1,2.450106107E-2,8.215844631E-2,2.663158812E-4
7.686400520E-1,2.450106107E-2,8.215844631E-2,2.663158812E-4
7.711518750E-1,2.024000697E-2,8.322371542E-2,-1.864211168E-3
7.736637500E-1,2.343579754E-2,8.535423875E-2,-2.929474693E-3
7.761755730E-1,2.556632459E-2,8.961529285E-2,-1.864211168E-3
7.786874480E-1,2.450106107E-2,8.961529285E-2,-2.929474693E-3
7.811992710E-1,2.343579754E-2,9.174582362E-2,-2.929474693E-3
7.837111460E-1,2.343579754E-2,9.068055451E-2,-7.989476435E-4
7.862230210E-1,2.450106107E-2,9.281108528E-2,-6.125265267E-3
7.887348440E-1,2.556632459E-2,9.920266271E-2,-3.994738217E-3
7.912467190E-1,2.663158812E-2,9.813740104E-2,-5.060001742E-3
7.937585420E-1,3.089264221E-2,9.707213938E-2,-5.060001742E-3
7.962704170E-1,3.195790574E-2,9.813740104E-2,-6.125265267E-3
7.987822400E-1,3.195790574E-2,9.707213938E-2,-5.060001742E-3
8.012941150E-1,3.195790574E-2,9.920266271E-2,-8.255792782E-3
8.038059900E-1,3.089264221E-2,9.600687772E-2,-8.255792782E-3
8.063178130E-1,3.515369445E-2,9.494160861E-2,-6.125265267E-3
8.088296880E-1,3.089264221E-2,9.281108528E-2,-6.125265267E-3
8.113415110E-1,3.089264221E-2,9.174582362E-2,-7.190528791E-3
8.138533860E-1,2.982737869E-2,8.855003119E-2,-6.125265267E-3
8.163652610E-1,2.769685164E-2,8.855003119E-2,-8.255792782E-3
8.188770840E-1,3.089264221E-2,9.068055451E-2,-7.190528791E-3
8.213889590E-1,2.982737869E-2,7.363633811E-2,1.331579406E-3
8.239007820E-1,2.663158812E-2,4.807001725E-2,1.091895066E-2
8.264126570E-1,3.302317113E-2,3.848264366E-2,9.853687137E-3
8.289244790E-1,3.834948689E-2,4.487422481E-2,4.527369980E-3
8.314363540E-1,3.941474855E-2,5.659212545E-2,2.663158812E-4
8.339482290E-1,3.834948689E-2,7.044055313E-2,-3.994738217E-3
8.364600520E-1,3.728422523E-2,8.855003119E-2,-6.125265267E-3
8.389719270E-1,3.941474855E-2,1.098553017E-1,-8.255792782E-3
8.414837500E-1,4.261054099E-2,1.173121482E-1,-1.145158336E-2
8.439956250E-1,4.261054099E-2,1.173121482E-1,-1.464737393E-2
8.465074480E-1,4.367580265E-2,1.194426715E-1,-1.464737393E-2
8.490193230E-1,4.261054099E-2,1.226384640E-1,-1.251684688E-2
8.515311980E-1,4.580633342E-2,1.109205633E-1,-1.145158336E-2
8.540430210E-1,4.474106804E-2,9.813740104E-2,-1.571263745E-2
8.565548960E-1,4.261054099E-2,9.174582362E-2,-1.464737393E-2
8.590667190E-1,3.728422523E-2,8.535423875E-2,-2.103895508E-2
8.615785940E-1,3.728422523E-2,8.748476952E-2,-1.890842803E-2
8.640904170E-1,3.621895984E-2,8.748476952E-2,-1.997369155E-2
8.666022920E-1,2.982737869E-2,8.641950041E-2,-1.890842803E-2
8.691141670E-1,2.556632459E-2,8.855003119E-2,-2.210421860E-2
8.716259900E-1,2.450106107E-2,9.068055451E-2,-2.530000918E-2
8.741378650E-1,2.237053402E-2,8.428897709E-2,-2.530000918E-2
8.766496880E-1,1.917474344E-2,8.748476952E-2,-2.956106327E-2
8.791615630E-1,1.597895287E-2,8.428897709E-2,-3.169158846E-2
8.816733860E-1,1.491368935E-2,8.215844631E-2,-3.595264256E-2
8.841852610E-1,1.171789877E-2,7.789739221E-2,-3.595264256E-2
8.866971360E-1,1.065263525E-2,7.044055313E-2,-3.488738090E-2
8.892089590E-1,8.522108197E-3,7.363633811E-2,-3.595264256E-2
8.917208340E-1,6.391581148E-3,7.257107645E-2,-3.488738090E-2
8.942326570E-1,5.326317623E-3,7.150581479E-2,-3.275685385E-2
8.967445320E-1,3.195790574E-3,7.044055313E-2,-3.062632680E-2
8.992563540E-1,-2.130527049E-3,6.937528402E-2,-3.062632680E-2
9.017682290E-1,-2.130527049E-3,7.044055313E-2,-3.169158846E-2
9.042801040E-1,-3.195790574E-3,6.937528402E-2,-2.956106327E-2
9.067919270E-1,-4.261054099E-3,6.511422992E-2,-2.423474565E-2
9.093038020E-1,-4.261054099E-3,6.724476069E-2,-1.997369155E-2
9.118156250E-1,-1.065263525E-3,6.831002235E-2,-1.145158336E-2
9.143275000E-1,-2.130527049E-3,6.298370659E-2,-3.994738217E-3
9.168393750E-1,2.130527049E-3,5.552686006E-2,1.331579406E-3
9.193511980E-1,-1.065263525E-3,5.446159840E-2,2.396842930E-3
9.218630730E-1,0.000000000E0,5.020054430E-2,1.198421419E-2
9.243748960E-1,7.456844673E-3,4.487422481E-2,1.624526829E-2
9.268867710E-1,7.456844673E-3,4.061317071E-2,1.304947771E-2
9.293985940E-1,9.587371722E-3,3.315632790E-2,1.198421419E-2
9.319104690E-1,1.065263525E-2,2.676474676E-2,1.624526829E-2
9.344223440E-1,8.522108197E-3,2.143842913E-2,2.263684943E-2
9.369341670E-1,8.522108197E-3,1.291632000E-2,2.263684943E-2
9.394460420E-1,9.587371722E-3,4.394211806E-3,2.050632238E-2
9.419578650E-1,6.391581148E-3,-1.478053164E-2,1.731053181E-2
9.444697400E-1,8.522108197E-3,-5.845633522E-2,1.624526829E-2
9.469815630E-1,8.522108197E-3,-9.574055672E-2,1.304947771E-2
9.494934380E-1,6.391581148E-3,-1.202416196E-1,9.853687137E-3
9.520053130E-1,3.195790574E-3,-1.479384750E-1,5.592633504E-3
9.545171360E-1,-1.065263525E-3,-1.553953141E-1,5.592633504E-3
9.570290110E-1,2.130527049E-3,-1.585911065E-1,5.592633504E-3
9.595408340E-1,3.195790574E-3,-1.532647908E-1,7.723160554E-3
9.620527090E-1,4.261054099E-3,-1.447426826E-1,5.592633504E-3
9.645645320E-1,1.065263525E-3,-1.436774135E-1,7.723160554E-3
9.670764070E-1,-8.522108197E-3,-1.426121593E-1,7.723160554E-3
9.695882820E-1,-2.130527049E-2,-1.426121593E-1,8.788423613E-3
9.721001040E-1,-3.408843279E-2,-1.468732059E-1,1.091895066E-2
9.746119790E-1,-5.006738752E-2,-1.607216299E-1,9.853687137E-3
9.771238020E-1,-6.604634225E-2,-1.724395305E-1,1.198421419E-2
9.796356770E-1,-7.456845045E-2,-1.905490160E-1,1.091895066E-2
9.821475000E-1,-8.309055865E-2,-2.033321708E-1,8.788423613E-3
9.846593750E-1,-9.054739773E-2,-2.182458639E-1,4.527369980E-3
9.871712500E-1,-9.161266685E-2,-2.225069255E-1,2.396842930E-3
9.896830730E-1,-9.267792851E-2,-2.171805948E-1,8.788423613E-3
9.921949480E-1,-9.161266685E-2,-2.086584866E-1,8.788423613E-3
9.947067710E-1,-8.415582031E-2,-1.948100626E-1,4.527369980E-3
9.972186460E-1,-7.669897377E-2,-1.820269078E-1,2.396842930E-3
9.997305210E-1,-6.711160392E-2,-1.628521681E-1,2.663158812E-4
1.002242344E0,-5.326317623E-2,-1.468732059E-1,-1.251684688E-2
1.004754219E0,-3.302317113E-2,-1.362205744E-1,-2.316948213E-2
1.007266042E0,-2.343579754E-2,-1.223721504E-1,-3.595264256E-2
1.009777917E0,-1.597895287E-2,-1.213068813E-1,-4.447475076E-2
1.012289740E0,-9.587371722E-3,-1.159805655E-1,-5.193159729E-2
1.014801615E0,-1.171789877E-2,-1.149153039E-1,-5.832317844E-2
1.017313490E0,-1.065263525E-2,-1.149153039E-1,-5.938844010E-2
1.019825313E0,-1.491368935E-2,-1.234374121E-1,-6.258422881E-2
1.022337188E0,-3.515369445E-2,-1.447426826E-1,-7.110633701E-2
1.024849011E0,-5.645896494E-2,-1.777658463E-1,-6.471475959E-2
1.027360886E0,-7.882949710E-2,-2.235721797E-1,-6.578002125E-2
1.029872709E0,-1.107874066E-1,-2.789658904E-1,-7.323686779E-2
1.032384584E0,-1.640505791E-1,-3.375553787E-1,-7.856318355E-2
1.034896459E0,-2.588590384E-1,-3.972101510E-1,-7.110633701E-2
1.037408282E0,-3.685811758E-1,-4.536691010E-1,-4.340948910E-2
1.039920157E0,-4.612590969E-1,-4.984101653E-1,3.462106455E-3
1.042431979E0,-5.390233397E-1,-5.410206914E-1,6.311686337E-2
1.044943854E0,-6.093307137E-1,-5.825659633E-1,1.259674132E-1
1.047455677E0,-6.615286469E-1,-6.166543961E-1,1.834916472E-1
1.049967552E0,-6.998781562E-1,-6.550039053E-1,2.388853431E-1
1.052479427E0,-7.169223428E-1,-6.944186687E-1,2.932137847E-1
1.054991250E0,-7.179875970E-1,-7.231807709E-1,3.507380188E-1
1.057503125E0,-7.073349953E-1,-7.487471104E-1,3.965443373E-1
1.060014948E0,-6.924213171E-1,-7.711176276E-1,4.285022616E-1
1.062526823E0,-6.753770709E-1,-7.828355432E-1,4.583296180E-1
1.065038646E0,-6.498107314E-1,-7.796397209E-1,4.764391184E-1
1.067550521E0,-6.231791377E-1,-7.700523734E-1,4.796349108E-1
1.070062396E0,-5.997433662E-1,-7.455512881E-1,4.743085802E-1
1.072574219E0,-5.763075948E-1,-7.242460251E-1,4.615254104E-1
1.075086094E0,-5.464801788E-1,-6.976144314E-1,4.423506856E-1
1.077597917E0,-5.155875683E-1,-6.667218208E-1,4.167843461E-1
1.080109792E0,-4.825643897E-1,-6.390249729E-1,3.922832906E-1
1.082621615E0,-4.474106729E-1,-6.006754637E-1,3.603253961E-1
1.085133490E0,-4.133222401E-1,-5.601954460E-1,3.273022175E-1
1.087645365E0,-3.813643456E-1,-5.143890977E-1,2.964095771E-1
1.090157188E0,-3.462106586E-1,-4.664522707E-1,2.644516826E-1
1.092669063E0,-3.163832724E-1,-4.195806682E-1,2.346242964E-1
1.095180886E0,-2.876211405E-1,-3.854922354E-1,2.026663870E-1
1.097692761E0,-2.588590384E-1,-3.492732644E-1,1.707084775E-1
1.100204636E0,-2.311621904E-1,-3.141195774E-1,1.440768987E-1
1.102716459E0,-2.077263892E-1,-2.800311446E-1,1.195758283E-1
1.105228334E0,-1.864211112E-1,-2.491385043E-1,1.014663503E-1
1.107740157E0,-1.715074331E-1,-2.182458639E-1,8.761792630E-2
1.110252032E0,-1.533979475E-1,-1.905490160E-1,7.270423323E-2
1.112763854E0,-1.374190003E-1,-1.724395305E-1,5.885580927E-2
1.115275729E0,-1.257010996E-1,-1.511342674E-1,4.607264698E-2
1.117787604E0,-1.171789914E-1,-1.308942586E-1,3.542001173E-2
1.120299427E0,-1.086568832E-1,-1.149153039E-1,3.115895763E-2
1.122811302E0,-1.022652984E-1,-1.031974033E-1,2.796316706E-2
1.125323125E0,-9.587371349E-2,-9.574055672E-2,2.476737648E-2
1.127835000E0,-9.054739773E-2,-9.254477173E-2,2.796316706E-2
1.130346823E0,-9.267792851E-2,-1.010668799E-1,3.115895763E-2
1.132858698E0,-9.587371349E-2,-1.074584574E-1,3.328948468E-2
1.135370573E0,-9.693898261E-2,-1.117195114E-1,3.435475007E-2
1.137882396E0,-1.022652984E-1,-1.191763580E-1,3.115895763E-2
1.140394271E0,-1.001347750E-1,-1.276984662E-1,3.222422302E-2
1.142906094E0,-1.054610908E-1,-1.298289895E-1,3.115895763E-2
1.145417969E0,-1.129179299E-1,-1.351553053E-1,3.115895763E-2
1.147929792E0,-1.171789914E-1,-1.383510977E-1,3.542001173E-2
1.150441667E0,-1.182442531E-1,-1.436774135E-1,3.861580417E-2
1.152953542E0,-1.171789914E-1,-1.404816210E-1,4.181159288E-2
1.155465365E0,-1.139831990E-1,-1.319595128E-1,4.074633121E-2
1.157977344E0,-1.097221449E-1,-1.404816210E-1,3.861580417E-2
1.160489323E0,-1.065263525E-1,-1.415468901E-1,3.755053878E-2
1.163001302E0,-1.033305600E-1,-1.383510977E-1,3.861580417E-2
1.165513282E0,-1.001347750E-1,-1.426121593E-1,3.861580417E-2
1.168025261E0,-9.587371349E-2,-1.426121593E-1,3.968106583E-2
1.170537240E0,-9.054739773E-2,-1.426121593E-1,3.755053878E-2
1.173049167E0,-8.202528954E-2,-1.415468901E-1,3.542001173E-2
1.175561146E0,-8.309055865E-2,-1.383510977E-1,3.542001173E-2
1.178073125E0,-7.456845045E-2,-1.362205744E-1,3.222422302E-2
1.180585104E0,-6.711160392E-2,-1.308942586E-1,3.009369411E-2
1.183097084E0,-6.924212724E-2,-1.298289895E-1,2.796316706E-2
1.185609063E0,-6.498107314E-2,-1.298289895E-1,2.583264001E-2
1.188121042E0,-6.498107314E-2,-1.308942586E-1,2.263684943E-2
1.190633021E0,-6.285054982E-2,-1.266331971E-1,1.837579533E-2
1.193145000E0,-7.030738890E-2,-1.191763580E-1,1.731053181E-2
1.195656979E0,-7.882949710E-2,-1.138500422E-1,1.304947771E-2
1.198168959E0,-8.202528954E-2,-1.000016108E-1,7.723160554E-3
1.200680938E0,-8.628634363E-2,-8.402266353E-2,9.853687137E-3
1.203192917E0,-9.587371349E-2,-5.845633522E-2,3.462106455E-3
1.205704896E0,-1.086568832E-1,-2.436790243E-2,-3.994738217E-3
1.208216875E0,-1.246358305E-1,3.328948515E-3,-9.321056306E-3
1.210728854E0,-1.384842545E-1,3.315632790E-2,-1.038631983E-2
1.213240782E0,-1.533979475E-1,5.552686006E-2,-1.038631983E-2
1.215752761E0,-1.693768948E-1,7.044055313E-2,-1.251684688E-2
1.218264740E0,-1.789642721E-1,7.576686889E-2,-1.890842803E-2
1.220776719E0,-1.821600646E-1,7.683213055E-2,-1.464737393E-2
1.223288698E0,-1.832253337E-1,7.257107645E-2,-1.358211040E-2
1.225800677E0,-1.832253337E-1,6.511422992E-2,-1.997369155E-2
1.228312657E0,-1.874863803E-1,5.552686006E-2,-1.464737393E-2
1.230824636E0,-1.917474270E-1,4.913527891E-2,-1.251684688E-2
1.233336615E0,-1.949432194E-1,5.446159840E-2,-8.255792782E-3
1.235848594E0,-1.981390119E-1,4.913527891E-2,-3.994738217E-3
1.238360573E0,-2.013348043E-1,3.954790905E-2,-2.929474693E-3
1.240872552E0,-2.034653276E-1,4.380896315E-2,-7.989476435E-4
1.243384532E0,-2.034653276E-1,4.593949020E-2,2.396842930E-3
1.245896511E0,-2.055958658E-1,4.700475186E-2,5.592633504E-3
1.248408490E0,-2.034653276E-1,4.807001725E-2,8.788423613E-3
1.250920469E0,-1.928126961E-1,4.593949020E-2,1.091895066E-2
1.253432448E0,-1.864211112E-1,4.700475186E-2,1.091895066E-2
1.255944375E0,-1.810947955E-1,5.233107135E-2,9.853687137E-3
1.258456354E0,-1.651158482E-1,5.126580596E-2,1.518000476E-2
1.260968334E0,-1.459411085E-1,5.339633301E-2,1.837579533E-2
1.263480313E0,-1.299621463E-1,7.150581479E-2,1.624526829E-2
1.265992292E0,-1.150484607E-1,8.748476952E-2,1.944105886E-2
1.268504271E0,-1.001347750E-1,8.961529285E-2,2.050632238E-2
1.271016250E0,-8.948213607E-2,8.215844631E-2,2.370211296E-2
1.273528229E0,-8.096002787E-2,8.322371542E-2,2.157158591E-2
1.276040209E0,-6.817686558E-2,8.322371542E-2,2.263684943E-2
1.278552188E0,-5.539370328E-2,8.961529285E-2,2.157158591E-2
1.281064167E0,-5.219791085E-2,9.920266271E-2,2.157158591E-2
1.283576146E0,-4.580633342E-2,1.162468791E-1,2.263684943E-2
1.286088125E0,-4.154527932E-2,1.247689873E-1,1.624526829E-2
1.288600104E0,-3.621895984E-2,1.268995106E-1,1.518000476E-2
1.291112084E0,-3.302317113E-2,1.300953031E-1,1.091895066E-2
1.293624063E0,-2.450106107E-2,1.194426715E-1,6.657897029E-3
1.296135990E0,-1.704421639E-2,1.119858250E-1,1.331579406E-3
1.298647969E0,-1.278316230E-2,1.066595092E-1,1.331579406E-3
1.301159948E0,0.000000000E0,9.707213938E-2,2.396842930E-3
1.303671927E0,1.065263525E-3,8.109318465E-2,-7.989476435E-4
1.306183907E0,0.000000000E0,6.724476069E-2,-1.864211168E-3
1.308695886E0,1.065263525E-3,6.085317954E-2,-6.125265267E-3
1.311207865E0,1.065263525E-3,5.978791416E-2,-7.190528791E-3
1.313719844E0,0.000000000E0,4.913527891E-2,-8.255792782E-3
1.316231823E0,-5.326317623E-3,4.487422481E-2,-8.255792782E-3
1.318743802E0,-1.171789877E-2,4.274369776E-2,-1.145158336E-2
1.321255782E0,-2.130527049E-2,4.274369776E-2,-1.251684688E-2
1.323767761E0,-3.302317113E-2,4.380896315E-2,-1.251684688E-2
1.326279740E0,-4.580633342E-2,5.126580596E-2,-1.038631983E-2
1.328791719E0,-4.793685675E-2,6.298370659E-2,-7.190528791E-3
1.331303698E0,-5.858949572E-2,7.576686889E-2,-5.060001742E-3
1.333815677E0,-7.137265801E-2,7.896266133E-2,-7.190528791E-3
1.336327657E0,-7.989476621E-2,7.363633811E-2,-8.255792782E-3
1.338839584E0,-8.415582031E-2,6.724476069E-2,-9.321056306E-3
1.341351563E0,-8.522108197E-2,6.511422992E-2,-1.038631983E-2
1.343863542E0,-8.415582031E-2,7.044055313E-2,-1.145158336E-2
1.346375521E0,-8.202528954E-2,7.789739221E-2,-8.255792782E-3
1.348887500E0,-7.669897377E-2,8.109318465E-2,-8.255792782E-3
1.351399479E0,-7.137265801E-2,8.215844631E-2,-3.994738217E-3
1.353911459E0,-7.243791968E-2,8.535423875E-2,2.396842930E-3
1.356423438E0,-6.498107314E-2,8.215844631E-2,7.723160554E-3
1.358935417E0,-5.752423033E-2,6.724476069E-2,1.304947771E-2
1.361447396E0,-4.793685675E-2,5.126580596E-2,1.518000476E-2
1.363959375E0,-2.982737869E-2,2.996053733E-2,2.050632238E-2
1.366471354E0,-1.491368935E-2,2.463421971E-2,2.263684943E-2
1.368983334E0,4.261054099E-3,2.143842913E-2,1.944105886E-2
1.371495313E0,2.130527049E-2,1.078579295E-2,1.731053181E-2
1.374007292E0,3.302317113E-2,2.263684990E-3,1.304947771E-2
1.376519271E0,4.474106804E-2,2.263684990E-3,1.411474124E-2
1.379031250E0,4.793685675E-2,4.394211806E-3,9.853687137E-3
1.381543177E0,5.432844162E-2,-3.062632633E-3,4.527369980E-3
1.384055157E0,5.858949572E-2,-6.258423440E-3,-7.989476435E-4
1.386567136E0,6.604634225E-2,-1.584579423E-2,-3.994738217E-3
1.389079115E0,7.030738890E-2,-3.715106472E-2,2.396842930E-3
1.391591094E0,7.669897377E-2,-5.632580817E-2,5.592633504E-3
1.394103073E0,9.054739773E-2,-7.230476290E-2,7.723160554E-3
1.396615052E0,1.065263525E-1,-8.402266353E-2,1.944105886E-2
1.399127032E0,1.246358305E-1,-1.074584574E-1,3.648527712E-2
1.401639011E0,1.406147778E-1,-1.330247819E-1,4.394211993E-2
1.404150990E0,1.491369009E-1,-1.660479456E-1,4.926843941E-2
1.406662969E0,1.480716318E-1,-1.852227002E-1,5.033370107E-2
1.409174948E0,1.331579387E-1,-1.862879544E-1,4.500738531E-2
1.411686927E0,1.097221449E-1,-1.681784838E-1,3.542001173E-2
1.414198907E0,8.841687441E-2,-1.585911065E-1,3.542001173E-2
1.416710886E0,8.309055865E-2,-1.628521681E-1,4.394211993E-2
1.419222865E0,9.054739773E-2,-1.767005920E-1,5.566002056E-2
1.421734792E0,1.129179299E-1,-1.905490160E-1,7.590002567E-2
1.424246771E0,1.448758394E-1,-2.374206036E-1,8.974844962E-2
1.426758750E0,1.821600646E-1,-3.109237850E-1,9.507477283E-2
1.429270729E0,2.439453453E-1,-3.918838203E-1,8.548739552E-2
1.431782709E0,2.876211405E-1,-4.131890833E-1,6.311686337E-2
1.434294688E0,2.801643014E-1,-3.801659346E-1,5.566002056E-2
1.436806667E0,2.535327077E-1,-3.290332854E-1,5.352949351E-2
1.439318646E0,2.300969213E-1,-2.427469194E-1,3.755053878E-2
1.441830625E0,1.906821728E-1,-1.436774135E-1,3.435475007E-2
1.444342604E0,1.363537312E-1,-5.845633522E-2,4.607264698E-2
1.446854584E0,8.309055865E-2,1.331579406E-4,5.566002056E-2
1.449366563E0,4.900212213E-2,2.463421971E-2,5.566002056E-2
1.451878542E0,3.515369445E-2,2.569948323E-2,4.607264698E-2
1.454390521E0,4.367580265E-2,9.720529430E-3,4.074633121E-2
1.456902500E0,5.113264918E-2,-1.478053164E-2,3.861580417E-2
1.459414479E0,5.645896494E-2,-5.313001946E-2,3.968106583E-2
1.461926459E0,5.326317623E-2,-8.615318686E-2,4.500738531E-2
1.464438386E0,3.515369445E-2,-9.254477173E-2,5.246422812E-2
1.466950365E0,7.456844673E-3,-6.697844714E-2,5.779054761E-2
1.469462344E0,-2.876211517E-2,-3.928159177E-2,6.418212503E-2
1.471974323E0,-6.391581148E-2,-1.478053164E-2,6.631265581E-2
1.474486302E0,-8.202528954E-2,5.459475331E-3,5.459475517E-2
1.476998282E0,-7.030738890E-2,-1.997369109E-3,3.861580417E-2
1.479510261E0,-4.154527932E-2,-3.608580306E-2,2.157158591E-2
1.482022240E0,-2.130527049E-3,-6.271739304E-2,6.657897029E-3
1.484534219E0,2.982737869E-2,-5.419528112E-2,1.331579406E-3
1.487046198E0,4.474106804E-2,-1.797632128E-2,6.657897029E-3
1.489558177E0,3.515369445E-2,6.524738856E-3,6.657897029E-3
1.492070157E0,1.704421639E-2,2.569948323E-2,5.592633504E-3
1.494582136E0,2.130527049E-3,1.824263856E-2,3.462106455E-3
1.497094115E0,-8.522108197E-3,-1.997369109E-3,2.396842930E-3
1.499606094E0,-8.522108197E-3,-2.756369300E-2,2.396842930E-3
1.502118073E0,-3.195790574E-3,-5.526054651E-2,5.592633504E-3
1.504630000E0,6.391581148E-3,-8.082687110E-2,6.657897029E-3
1.507141979E0,1.171789877E-2,-9.041424096E-2,2.396842930E-3
1.509653959E0,8.522108197E-3,-8.402266353E-2,1.331579406E-3
1.512165938E0,-2.130527049E-3,-6.910897046E-2,3.462106455E-3
1.514677917E0,-8.522108197E-3,-6.165212765E-2,3.462106455E-3
1.517189896E0,-5.326317623E-3,-6.484791636E-2,-3.994738217E-3
1.519701875E0,-9.587371722E-3,-3.928159177E-2,-1.145158336E-2
1.522213854E0,-1.810947992E-2,1.504684705E-2,-3.994738217E-3
1.524725834E0,-1.491368935E-2,4.487422481E-2,-5.060001742E-3
1.527237813E0,-1.917474344E-2,4.487422481E-2,-1.145158336E-2
1.529749792E0,-2.130527049E-2,2.356895618E-2,-1.890842803E-2
1.532261771E0,-3.089264221E-2,2.263684990E-3,-2.210421860E-2
1.534773750E0,-3.515369445E-2,-3.062632633E-3,-2.636527270E-2
1.537285729E0,-4.048001394E-2,5.459475331E-3,-2.743053623E-2
1.539797709E0,-4.261054099E-2,9.720529430E-3,-2.743053623E-2
1.542309688E0,-4.900212213E-2,-1.997369109E-3,-2.636527270E-2
1.544821667E0,-5.219791085E-2,-2.436790243E-2,-2.530000918E-2
1.547333594E0,-5.539370328E-2,-4.034685716E-2,-2.316948213E-2
1.549845573E0,-5.858949572E-2,-3.928159177E-2,-2.210421860E-2
1.552357552E0,-6.817686558E-2,-2.756369300E-2,-1.997369155E-2
1.554869532E0,-7.669897377E-2,-8.388950489E-3,-1.890842803E-2
1.557381511E0,-8.415582031E-2,6.524738856E-3,-1.784316450E-2
1.559893490E0,-8.522108197E-2,5.459475331E-3,-1.464737393E-2
1.562405469E0,-8.309055865E-2,4.394211806E-3,-1.251684688E-2
1.564917448E0,-7.563371211E-2,-7.323686965E-3,-1.038631983E-2
1.567429427E0,-6.711160392E-2,-1.051947754E-2,-9.321056306E-3
1.569941407E0,-7.137265801E-2,-7.323686965E-3,-8.255792782E-3
1.572453386E0,-7.776423544E-2,-3.062632633E-3,-8.255792782E-3
1.574965365E0,-7.776423544E-2,7.590002380E-3,-7.989476435E-4
1.577477344E0,-8.628634363E-2,1.824263856E-2,4.527369980E-3
1.579989323E0,-8.948213607E-2,2.996053733E-2,6.657897029E-3
1.582501302E0,-9.480845183E-2,3.954790905E-2,9.853687137E-3
1.585013282E0,-9.800424427E-2,4.274369776E-2,1.518000476E-2
1.587525209E0,-9.906950593E-2,4.380896315E-2,1.837579533E-2
1.590037188E0,-9.800424427E-2,4.700475186E-2,1.944105886E-2
1.592549167E0,-9.693898261E-2,4.487422481E-2,2.050632238E-2
1.595061146E0,-9.693898261E-2,4.380896315E-2,2.263684943E-2
1.597573125E0,-9.693898261E-2,5.765738711E-2,2.050632238E-2
1.600085104E0,-9.161266685E-2,6.831002235E-2,1.837579533E-2
1.602597084E0,-9.054739773E-2,7.576686889E-2,2.157158591E-2
1.605109063E0,-8.628634363E-2,7.789739221E-2,2.370211296E-2
1.607621042E0,-8.415582031E-2,8.215844631E-2,1.944105886E-2
1.610133021E0,-7.989476621E-2,8.322371542E-2,1.624526829E-2
1.612645000E0,-7.669897377E-2,8.961529285E-2,1.944105886E-2
1.615156979E0,-7.350318134E-2,9.387634695E-2,1.944105886E-2
1.617668959E0,-6.817686558E-2,9.707213938E-2,2.157158591E-2
1.620180938E0,-6.391581148E-2,1.023984551E-1,1.944105886E-2
1.622692917E0,-5.539370328E-2,1.023984551E-1,1.944105886E-2
1.625204896E0,-5.006738752E-2,1.066595092E-1,2.050632238E-2
1.627716875E0,-4.474106804E-2,1.066595092E-1,1.731053181E-2
1.630228802E0,-3.941474855E-2,1.077247709E-1,1.731053181E-2
1.632740782E0,-3.834948689E-2,1.130510941E-1,1.518000476E-2
1.635252761E0,-3.941474855E-2,1.226384640E-1,1.411474124E-2
1.637764740E0,-4.048001394E-2,1.247689873E-1,1.304947771E-2
1.640276719E0,-4.474106804E-2,1.247689873E-1,1.198421419E-2
1.642788698E0,-4.474106804E-2,1.290300488E-1,1.304947771E-2
1.645300677E0,-4.367580265E-2,1.332910955E-1,8.788423613E-3
1.647812657E0,-4.474106804E-2,1.343563646E-1,7.723160554E-3
1.650324636E0,-4.367580265E-2,1.290300488E-1,9.853687137E-3
1.652836615E0,-4.048001394E-2,1.247689873E-1,1.091895066E-2
1.655348594E0,-3.941474855E-2,1.194426715E-1,9.853687137E-3
1.657860573E0,-4.367580265E-2,1.162468791E-1,9.853687137E-3
1.660372500E0,-4.580633342E-2,1.077247709E-1,8.788423613E-3
1.662884479E0,-4.474106804E-2,1.045289859E-1,4.527369980E-3
1.665396459E0,-4.900212213E-2,1.034637168E-1,-7.989476435E-4
1.667908438E0,-5.113264918E-2,9.920266271E-2,-7.989476435E-4
1.670420417E0,-5.858949572E-2,9.920266271E-2,-2.929474693E-3
1.672932396E0,-6.498107314E-2,9.920266271E-2,-8.255792782E-3
1.675444323E0,-6.817686558E-2,1.002679318E-1,-1.145158336E-2
1.677956302E0,-7.350318134E-2,1.034637168E-1,-1.145158336E-2
1.680468282E0,-7.882949710E-2,1.034637168E-1,-1.145158336E-2
1.682980261E0,-8.948213607E-2,1.055942476E-1,-1.358211040E-2
1.685492240E0,-9.161266685E-2,1.002679318E-1,-1.571263745E-2
1.688004219E0,-9.161266685E-2,9.387634695E-2,-1.464737393E-2
1.690516146E0,-8.841687441E-2,8.748476952E-2,-1.571263745E-2
1.693028125E0,-8.628634363E-2,8.748476952E-2,-1.251684688E-2
1.695540104E0,-8.309055865E-2,8.748476952E-2,-1.251684688E-2
1.698052084E0,-7.989476621E-2,8.002792299E-2,-1.571263745E-2
1.700564063E0,-7.882949710E-2,7.896266133E-2,-1.784316450E-2
1.703076042E0,-7.669897377E-2,7.576686889E-2,-1.251684688E-2
1.705587969E0,-6.711160392E-2,7.576686889E-2,-1.145158336E-2
1.708099948E0,-5.645896494E-2,6.404896826E-2,-1.464737393E-2
1.710611927E0,-4.580633342E-2,5.126580596E-2,-1.251684688E-2
1.713123907E0,-3.621895984E-2,4.593949020E-2,-7.190528791E-3
1.715635886E0,-2.130527049E-2,3.635211661E-2,-3.994738217E-3
1.718147865E0,-7.456844673E-3,2.783001028E-2,-3.994738217E-3
1.720659792E0,-3.195790574E-3,1.717737503E-2,-1.864211168E-3
1.723171771E0,9.587371722E-3,5.459475331E-3,-2.929474693E-3
1.725683750E0,2.663158812E-2,-6.258423440E-3,-1.864211168E-3
1.728195729E0,3.728422523E-2,-1.797632128E-2,2.663158812E-4
1.730707709E0,4.900212213E-2,-2.117211185E-2,-2.929474693E-3
1.733219688E0,5.752423033E-2,-3.608580306E-2,-5.060001742E-3
1.735731667E0,6.817686558E-2,-4.780369997E-2,-5.060001742E-3
1.738243594E0,7.563371211E-2,-5.206475407E-2,-3.994738217E-3
1.740755573E0,7.989476621E-2,-6.484791636E-2,-7.190528791E-3
1.743267552E0,8.415582031E-2,-6.910897046E-2,-7.190528791E-3
1.745779532E0,9.161266685E-2,-7.017423213E-2,-8.255792782E-3
1.748291511E0,1.001347750E-1,-7.550055534E-2,-3.994738217E-3
1.750803490E0,1.139831990E-1,-9.041424096E-2,2.396842930E-3
1.753315417E0,1.320926845E-1,-1.213068813E-1,1.198421419E-2
1.755827396E0,1.523326784E-1,-1.532647908E-1,2.050632238E-2
1.758339375E0,1.661811173E-1,-1.745700538E-1,2.476737648E-2
1.760851354E0,1.810947955E-1,-1.852227002E-1,3.222422302E-2
1.763363334E0,1.970737576E-1,-1.862879544E-1,3.542001173E-2
1.765875313E0,2.013348043E-1,-1.756353229E-1,3.115895763E-2
1.768387240E0,1.949432194E-1,-1.500689983E-1,2.583264001E-2
1.770899219E0,1.906821728E-1,-1.287637353E-1,2.370211296E-2
1.773411198E0,1.800295413E-1,-1.106542498E-1,1.837579533E-2
1.775923177E0,1.725726873E-1,-8.615318686E-2,1.411474124E-2
1.778435157E0,1.747032106E-1,-7.017423213E-2,1.411474124E-2
1.780947136E0,1.757684797E-1,-7.123950124E-2,1.518000476E-2
1.783459063E0,1.736379564E-1,-7.123950124E-2,1.624526829E-2
1.785971042E0,1.693768948E-1,-7.550055534E-2,1.198421419E-2
1.788483021E0,1.683116406E-1,-7.123950124E-2,1.304947771E-2
1.790995000E0,1.725726873E-1,-5.952160060E-2,9.853687137E-3
1.793506979E0,1.789642721E-1,-5.526054651E-2,6.657897029E-3
1.796018959E0,1.789642721E-1,-5.526054651E-2,8.788423613E-3
1.798530886E0,1.778990030E-1,-4.567317292E-2,1.331579406E-3
1.801042865E0,1.715074331E-1,-3.075948358E-2,-6.125265267E-3
1.803554844E0,1.725726873E-1,-2.223737538E-2,-7.190528791E-3
1.806066823E0,1.715074331E-1,-1.797632128E-2,-8.255792782E-3
1.808578802E0,1.629853249E-1,-1.691105776E-2,-5.060001742E-3
1.811090782E0,1.544632167E-1,-1.158474106E-2,-7.190528791E-3
1.813602761E0,1.555284709E-1,-1.051947754E-2,-9.321056306E-3
1.816114688E0,1.544632167E-1,-1.584579423E-2,-1.038631983E-2
1.818626667E0,1.480716318E-1,-2.649842948E-2,-8.255792782E-3
1.821138646E0,1.395495236E-1,-2.969422005E-2,-3.994738217E-3
1.823650625E0,1.267663538E-1,-3.928159177E-2,3.462106455E-3
1.826162604E0,1.225053072E-1,-4.993422702E-2,2.396842930E-3
1.828674584E0,1.139831990E-1,-5.739107355E-2,2.663158812E-4
1.831186511E0,1.129179299E-1,-7.123950124E-2,3.462106455E-3
1.833698490E0,1.097221449E-1,-7.763107866E-2,7.723160554E-3
1.836210469E0,1.012000367E-1,-8.934897929E-2,1.411474124E-2
1.838722448E0,8.735160530E-2,-1.042626649E-1,2.050632238E-2
1.841234427E0,7.882949710E-2,-1.138500422E-1,2.263684943E-2
1.843746407E0,6.604634225E-2,-1.245026737E-1,1.944105886E-2
1.846258334E0,5.965475738E-2,-1.245026737E-1,1.837579533E-2
1.848770313E0,5.752423033E-2,-1.245026737E-1,1.624526829E-2
1.851282292E0,4.687159508E-2,-1.308942586E-1,1.624526829E-2
1.853794271E0,3.621895984E-2,-1.383510977E-1,1.944105886E-2
1.856306250E0,2.450106107E-2,-1.383510977E-1,2.263684943E-2
1.858818229E0,1.704421639E-2,-1.404816210E-1,2.370211296E-2
1.861330157E0,2.343579754E-2,-1.404816210E-1,1.837579533E-2
1.863842136E0,3.302317113E-2,-1.351553053E-1,2.050632238E-2
1.866354115E0,3.834948689E-2,-1.340900511E-1,2.050632238E-2
1.868866094E0,4.687159508E-2,-1.340900511E-1,2.050632238E-2
1.871378073E0,5.645896494E-2,-1.404816210E-1,1.304947771E-2
1.873890052E0,7.350318134E-2,-1.447426826E-1,8.788423613E-3
1.876401979E0,9.587371349E-2,-1.500689983E-1,3.462106455E-3
1.878913959E0,1.097221449E-1,-1.553953141E-1,-3.994738217E-3
1.881425938E0,1.129179299E-1,-1.585911065E-1,-1.038631983E-2
1.883937917E0,1.107874066E-1,-1.468732059E-1,-1.890842803E-2
1.886449896E0,9.906950593E-2,-1.298289895E-1,-1.997369155E-2
1.888961875E0,8.309055865E-2,-1.138500422E-1,-1.997369155E-2
1.891473802E0,5.752423033E-2,-9.680582583E-2,-1.145158336E-2
1.893985782E0,2.876211517E-2,-8.295739442E-2,-3.994738217E-3
1.896497761E0,0.000000000E0,-6.910897046E-2,-1.864211168E-3
1.899009740E0,-2.876211517E-2,-5.419528112E-2,1.331579406E-3
1.901521719E0,-4.580633342E-2,-4.780369997E-2,-7.989476435E-4
1.904033698E0,-6.178528443E-2,-4.886896536E-2,-1.864211168E-3
1.906545677E0,-7.669897377E-2,-4.673843831E-2,-5.060001742E-3
1.909057604E0,-8.841687441E-2,-4.673843831E-2,-6.125265267E-3
1.911569584E0,-9.480845183E-2,-4.780369997E-2,-7.190528791E-3
1.914081563E0,-1.012000367E-1,-4.567317292E-2,-8.255792782E-3
1.916593542E0,-9.800424427E-2,-4.460791126E-2,-1.251684688E-2
1.919105521E0,-9.587371349E-2,-4.673843831E-2,-1.571263745E-2
1.921617500E0,-9.267792851E-2,-5.419528112E-2,-1.571263745E-2
1.924129427E0,-8.522108197E-2,-6.165212765E-2,-1.890842803E-2
1.926641407E0,-7.669897377E-2,-6.591317803E-2,-2.103895508E-2
1.929153386E0,-6.924212724E-2,-7.230476290E-2,-1.890842803E-2
1.931665365E0,-6.072001904E-2,-7.656581700E-2,-2.103895508E-2
1.934177344E0,-6.072001904E-2,-7.976160944E-2,-2.103895508E-2
1.936689323E0,-5.326317623E-2,-8.508792520E-2,-1.890842803E-2
1.939201250E0,-4.900212213E-2,-8.508792520E-2,-1.784316450E-2
1.941713229E0,-4.580633342E-2,-8.508792520E-2,-1.890842803E-2
1.944225209E0,-4.474106804E-2,-8.082687110E-2,-1.997369155E-2
1.946737188E0,-4.367580265E-2,-7.230476290E-2,-1.677790098E-2
1.949249167E0,-4.154527932E-2,-7.017423213E-2,-1.784316450E-2
1.951761146E0,-3.834948689E-2,-6.804370880E-2,-1.358211040E-2
1.954273073E0,-3.941474855E-2,-5.845633522E-2,-1.251684688E-2
1.956785052E0,-3.728422523E-2,-5.099949241E-2,-1.358211040E-2
1.959297032E0,-3.408843279E-2,-4.780369997E-2,-1.038631983E-2
1.961809011E0,-3.408843279E-2,-4.247738421E-2,-8.255792782E-3
1.964320990E0,-3.302317113E-2,-3.928159177E-2,-9.321056306E-3
1.966832969E0,-2.769685164E-2,-3.821633011E-2,-5.060001742E-3
1.969344896E0,-2.556632459E-2,-3.395527601E-2,-6.125265267E-3
1.971856875E0,-2.237053402E-2,-2.756369300E-2,-2.929474693E-3
1.974368854E0,-2.556632459E-2,-2.969422005E-2,2.663158812E-4
1.976880834E0,-2.343579754E-2,-2.862895653E-2,1.331579406E-3
1.979392813E0,-1.597895287E-2,-2.330263890E-2,2.663158812E-4
1.981904792E0,-1.704421639E-2,-2.117211185E-2,2.663158812E-4
1.984416771E0,-1.597895287E-2,-1.584579423E-2,2.663158812E-4
1.986928698E0,-1.384842582E-2,-1.371526811E-2,1.331579406E-3
1.989440677E0,-9.587371722E-3,-1.371526811E-2,3.462106455E-3
1.991952657E0,-1.065263525E-2,-8.388950489E-3,4.527369980E-3
1.994464636E0,-9.587371722E-3,-6.258423440E-3,2.396842930E-3
1.996976615E0,-7.456844673E-3,-4.127896391E-3,2.663158812E-4
1.999488594E0,-5.326317623E-3,-1.997369109E-3,-7.989476435E-4
2.002000521E0,-4.261054099E-3,1.331579406E-4,-2.929474693E-3
2.004512500E0,-6.391581148E-3,5.459475331E-3,-1.864211168E-3
2.007024479E0,-5.326317623E-3,6.524738856E-3,2.663158812E-4
2.009536459E0,-7.456844673E-3,8.655265905E-3,-1.864211168E-3
2.012048438E0,-1.065263525E-2,8.655265905E-3,-2.929474693E-3
2.014560417E0,-1.278316230E-2,1.185105648E-2,-3.994738217E-3
2.017072344E0,-9.587371722E-3,1.504684705E-2,-3.994738217E-3
2.019584323E0,-8.522108197E-3,1.398158353E-2,-6.125265267E-3
2.022096302E0,-7.456844673E-3,1.930790208E-2,-5.060001742E-3
2.024608282E0,-7.456844673E-3,1.930790208E-2,-9.321056306E-3
2.027120261E0,-7.456844673E-3,1.930790208E-2,-7.190528791E-3
2.029632240E0,-9.587371722E-3,2.037316561E-2,-8.255792782E-3
2.032144167E0,-8.522108197E-3,2.463421971E-2,-1.038631983E-2
2.034656146E0,-6.391581148E-3,2.463421971E-2,-9.321056306E-3
2.037168125E0,-5.326317623E-3,2.889527380E-2,-7.190528791E-3
2.039680104E0,-6.391581148E-3,2.783001028E-2,-1.038631983E-2
2.042192084E0,-7.456844673E-3,2.783001028E-2,-1.677790098E-2
2.044704063E0,-6.391581148E-3,2.996053733E-2,-1.145158336E-2
2.047215990E0,-5.326317623E-3,3.209106252E-2,-9.321056306E-3
2.049727969E0,-2.130527049E-3,3.315632790E-2,-1.038631983E-2
2.052239948E0,-4.261054099E-3,3.635211661E-2,-1.358211040E-2
2.054751927E0,-2.130527049E-3,3.741738200E-2,-1.251684688E-2
2.057263907E0,0.000000000E0,3.528685495E-2,-1.038631983E-2
2.059775886E0,-2.130527049E-3,3.635211661E-2,-1.145158336E-2
2.062287813E0,-2.130527049E-3,3.528685495E-2,-1.251684688E-2
2.064799792E0,-2.130527049E-3,3.422158957E-2,-1.251684688E-2
2.067311771E0,-2.130527049E-3,3.209106252E-2,-1.571263745E-2
2.069823750E0,-2.130527049E-3,3.422158957E-2,-1.464737393E-2
2.072335729E0,0.000000000E0,3.209106252E-2,-1.145158336E-2
2.074847709E0,-4.261054099E-3,2.889527380E-2,-1.038631983E-2
2.077359688E0,-4.261054099E-3,2.889527380E-2,-1.038631983E-2
2.079871615E0,-4.261054099E-3,2.676474676E-2,-7.190528791E-3
2.082383594E0,-2.130527049E-3,2.037316561E-2,-8.255792782E-3
2.084895573E0,-2.130527049E-3,1.824263856E-2,-7.190528791E-3
2.087407552E0,-8.522108197E-3,2.143842913E-2,-7.190528791E-3
2.089919532E0,-8.522108197E-3,1.824263856E-2,-9.321056306E-3
2.092431511E0,-5.326317623E-3,1.717737503E-2,-9.321056306E-3
2.094943438E0,0.000000000E0,1.611211151E-2,-6.125265267E-3
2.097455417E0,-3.195790574E-3,1.504684705E-2,-7.190528791E-3
2.099967396E0,-8.522108197E-3,1.717737503E-2,-8.255792782E-3
2.102479375E0,-5.326317623E-3,1.717737503E-2,-6.125265267E-3
2.104991354E0,-6.391581148E-3,2.037316561E-2,-3.994738217E-3
2.107503334E0,-8.522108197E-3,2.356895618E-2,-6.125265267E-3
2.110015261E0,-9.587371722E-3,2.250369266E-2,-8.255792782E-3
2.112527240E0,-1.065263525E-2,2.250369266E-2,-7.190528791E-3
2.115039219E0,-8.522108197E-3,2.676474676E-2,-7.190528791E-3
2.117551198E0,-5.326317623E-3,2.250369266E-2,-8.255792782E-3
2.120063177E0,-6.391581148E-3,1.930790208E-2,-9.321056306E-3
2.122575157E0,-1.384842582E-2,2.356895618E-2,-1.145158336E-2
2.125087084E0,-1.065263525E-2,2.463421971E-2,-9.321056306E-3
2.127599063E0,-1.384842582E-2,2.889527380E-2,-9.321056306E-3
2.130111042E0,-1.704421639E-2,2.783001028E-2,-1.038631983E-2
2.132623021E0,-1.491368935E-2,3.102580085E-2,-1.038631983E-2
2.135135000E0,-1.704421639E-2,2.996053733E-2,-1.038631983E-2
2.137646979E0,-1.491368935E-2,2.889527380E-2,-1.251684688E-2
2.140158907E0,-1.917474344E-2,2.889527380E-2,-1.145158336E-2
2.142670886E0,-2.024000697E-2,2.996053733E-2,-1.251684688E-2
2.145182865E0,-1.810947992E-2,2.996053733E-2,-1.464737393E-2
2.147694844E0,-1.597895287E-2,3.209106252E-2,-1.251684688E-2
2.150206823E0,-1.597895287E-2,2.569948323E-2,-1.145158336E-2
2.152718802E0,-2.237053402E-2,2.676474676E-2,-1.145158336E-2
2.155230729E0,-1.810947992E-2,2.889527380E-2,-1.145158336E-2
2.157742657E0,-2.024000697E-2,2.996053733E-2,-1.145158336E-2
2.160254636E0,-2.556632459E-2,3.102580085E-2,-1.251684688E-2
2.162766615E0,-2.663158812E-2,2.783001028E-2,-1.251684688E-2
2.165278542E0,-2.982737869E-2,2.463421971E-2,-1.358211040E-2
2.167790521E0,-3.089264221E-2,2.356895618E-2,-1.038631983E-2
2.170302500E0,-3.089264221E-2,1.930790208E-2,-1.358211040E-2
2.172814479E0,-2.876211517E-2,2.037316561E-2,-1.358211040E-2
2.175326407E0,-3.302317113E-2,1.398158353E-2,-1.251684688E-2
2.177838386E0,-3.408843279E-2,1.291632000E-2,-1.038631983E-2
2.180350365E0,-3.728422523E-2,1.611211151E-2,-1.358211040E-2
2.182862344E0,-3.834948689E-2,1.185105648E-2,-1.145158336E-2
2.185374271E0,-3.302317113E-2,7.590002380E-3,-1.038631983E-2
2.187886250E0,-3.728422523E-2,9.720529430E-3,-1.358211040E-2
2.190398229E0,-3.834948689E-2,3.328948515E-3,-1.358211040E-2
2.192910157E0,-4.048001394E-2,3.328948515E-3,-1.464737393E-2
2.195422136E0,-3.941474855E-2,2.263684990E-3,-1.145158336E-2
2.197934115E0,-3.941474855E-2,-1.997369109E-3,-1.038631983E-2
2.200446094E0,-3.834948689E-2,-9.321055841E-4,-1.358211040E-2
2.202958021E0,-3.621895984E-2,-4.127896391E-3,-9.321056306E-3
2.205470000E0,-3.515369445E-2,-3.062632633E-3,-9.321056306E-3
2.207981979E0,-3.728422523E-2,-5.193159916E-3,-1.251684688E-2
2.210493959E0,-3.621895984E-2,-7.323686965E-3,-1.145158336E-2
2.213005886E0,-3.515369445E-2,-8.388950489E-3,-7.190528791E-3
2.215517865E0,-3.089264221E-2,-1.051947754E-2,-7.190528791E-3
2.218029844E0,-3.089264221E-2,-8.388950489E-3,-9.321056306E-3
2.220541771E0,-2.876211517E-2,-5.193159916E-3,-1.038631983E-2
2.223053750E0,-3.089264221E-2,-9.454214014E-3,-1.038631983E-2
2.225565729E0,-2.876211517E-2,-1.051947754E-2,-7.190528791E-3
2.228077709E0,-3.195790574E-2,-1.158474106E-2,-5.060001742E-3
2.230589636E0,-2.876211517E-2,-1.265000459E-2,-6.125265267E-3
2.233101615E0,-2.769685164E-2,-1.371526811E-2,-6.125265267E-3
2.235613594E0,-2.876211517E-2,-8.388950489E-3,-6.125265267E-3
2.238125521E0,-2.343579754E-2,-1.371526811E-2,-8.255792782E-3
2.240637500E0,-2.663158812E-2,-1.797632128E-2,-9.321056306E-3
2.243149479E0,-2.556632459E-2,-1.371526811E-2,-5.060001742E-3
2.245661459E0,-2.450106107E-2,-1.478053164E-2,-5.060001742E-3
2.248173386E0,-2.343579754E-2,-1.371526811E-2,-7.190528791E-3
2.250685365E0,-2.237053402E-2,-1.371526811E-2,-6.125265267E-3
2.253197344E0,-2.343579754E-2,-1.371526811E-2,-7.190528791E-3
2.255709323E0,-2.237053402E-2,-9.454214014E-3,-6.125265267E-3
2.258221250E0,-2.024000697E-2,-1.371526811E-2,-7.190528791E-3
2.260733229E0,-1.597895287E-2,-1.584579423E-2,-7.190528791E-3
2.263245209E0,-1.704421639E-2,-1.691105776E-2,-5.060001742E-3
2.265757136E0,-1.704421639E-2,-1.904158480E-2,-2.929474693E-3
2.268269115E0,-1.704421639E-2,-1.371526811E-2,-5.060001742E-3
2.270781094E0,-1.704421639E-2,-1.158474106E-2,-2.929474693E-3
2.273293073E0,-1.491368935E-2,-1.371526811E-2,-3.994738217E-3
2.275805000E0,-1.278316230E-2,-1.265000459E-2,-2.929474693E-3
2.278316979E0,-1.171789877E-2,-9.454214014E-3,-1.864211168E-3
2.280828959E0,-1.065263525E-2,-6.258423440E-3,-2.929474693E-3
2.283340886E0,-9.587371722E-3,-8.388950489E-3,-1.864211168E-3
2.285852865E0,-1.171789877E-2,-5.193159916E-3,-7.989476435E-4
2.288364844E0,-1.278316230E-2,-7.323686965E-3,1.331579406E-3
2.290876823E0,-1.384842582E-2,-4.127896391E-3,1.331579406E-3
2.293388750E0,-1.065263525E-2,-1.997369109E-3,1.331579406E-3
2.295900729E0,-8.522108197E-3,-4.127896391E-3,3.462106455E-3
2.298412709E0,-9.587371722E-3,-1.997369109E-3,2.396842930E-3
2.300924688E0,-8.522108197E-3,-1.997369109E-3,3.462106455E-3
2.303436615E0,-2.130527049E-3,-5.193159916E-3,2.396842930E-3
2.305948594E0,-3.195790574E-3,-7.323686965E-3,3.462106455E-3
2.308460573E0,-2.130527049E-3,-7.323686965E-3,5.592633504E-3
2.310972500E0,-1.065263525E-3,-8.388950489E-3,3.462106455E-3
2.313484479E0,3.195790574E-3,-9.454214014E-3,4.527369980E-3
2.315996459E0,3.195790574E-3,-1.158474106E-2,6.657897029E-3
2.318508438E0,7.456844673E-3,-1.158474106E-2,5.592633504E-3
2.321020365E0,8.522108197E-3,-1.158474106E-2,6.657897029E-3
2.323532344E0,1.278316230E-2,-1.584579423E-2,2.396842930E-3
2.326044323E0,1.384842582E-2,-1.265000459E-2,4.527369980E-3
2.328556302E0,1.597895287E-2,-1.478053164E-2,4.527369980E-3
2.331068229E0,1.491368935E-2,-2.010684833E-2,4.527369980E-3
2.333580209E0,1.384842582E-2,-1.478053164E-2,4.527369980E-3
2.336092188E0,1.278316230E-2,-1.371526811E-2,3.462106455E-3
2.338604115E0,1.704421639E-2,-1.478053164E-2,3.462106455E-3
2.341116094E0,1.810947992E-2,-1.691105776E-2,1.331579406E-3
2.343628073E0,1.917474344E-2,-1.371526811E-2,1.331579406E-3
2.346140052E0,1.810947992E-2,-1.797632128E-2,3.462106455E-3
2.348651979E0,2.130527049E-2,-1.904158480E-2,2.396842930E-3
2.351163959E0,2.130527049E-2,-1.265000459E-2,2.396842930E-3
2.353675938E0,2.556632459E-2,-1.478053164E-2,3.462106455E-3
2.356187865E0,2.556632459E-2,-1.371526811E-2,4.527369980E-3
2.358699844E0,2.769685164E-2,-1.371526811E-2,2.396842930E-3
2.361211823E0,2.769685164E-2,-1.265000459E-2,1.331579406E-3
2.363723802E0,2.663158812E-2,-1.478053164E-2,2.663158812E-4
2.366235729E0,2.663158812E-2,-1.478053164E-2,1.331579406E-3
2.368747709E0,2.982737869E-2,-1.158474106E-2,2.396842930E-3
2.371259688E0,3.089264221E-2,-1.158474106E-2,2.396842930E-3
2.373771667E0,2.556632459E-2,-1.158474106E-2,3.462106455E-3
2.376283594E0,2.343579754E-2,-1.691105776E-2,8.788423613E-3
2.378795573E0,2.663158812E-2,-1.051947754E-2,7.723160554E-3
2.381307552E0,2.450106107E-2,-1.158474106E-2,6.657897029E-3
2.383819479E0,2.024000697E-2,-9.454214014E-3,7.723160554E-3
2.386331459E0,1.810947992E-2,-7.323686965E-3,4.527369980E-3
2.388843438E0,1.810947992E-2,-4.127896391E-3,4.527369980E-3
2.391355417E0,2.024000697E-2,1.331579406E-4,4.527369980E-3
2.393867344E0,1.597895287E-2,1.198421465E-3,5.592633504E-3
2.396379323E0,1.704421639E-2,5.459475331E-3,5.592633504E-3
2.398891302E0,1.597895287E-2,9.720529430E-3,3.462106455E-3
2.401403229E0,1.278316230E-2,9.720529430E-3,5.592633504E-3
2.403915209E0,1.278316230E-2,1.398158353E-2,6.657897029E-3
2.406427188E0,1.384842582E-2,1.504684705E-2,6.657897029E-3
2.408939167E0,1.171789877E-2,1.611211151E-2,5.592633504E-3
2.411451094E0,1.278316230E-2,1.824263856E-2,5.592633504E-3
2.413963073E0,8.522108197E-3,1.824263856E-2,6.657897029E-3
2.416475052E0,1.384842582E-2,2.143842913E-2,4.527369980E-3
2.418987032E0,1.278316230E-2,1.717737503E-2,8.788423613E-3
2.421498959E0,8.522108197E-3,2.143842913E-2,7.723160554E-3
2.424010938E0,1.065263525E-2,1.504684705E-2,5.592633504E-3
2.426522917E0,8.522108197E-3,1.611211151E-2,5.592633504E-3
2.429034844E0,1.065263525E-2,1.504684705E-2,3.462106455E-3
2.431546823E0,1.278316230E-2,1.824263856E-2,3.462106455E-3
2.434058802E0,8.522108197E-3,1.717737503E-2,2.396842930E-3
2.436570782E0,1.065263525E-2,1.824263856E-2,1.331579406E-3
2.439082709E0,1.278316230E-2,2.569948323E-2,2.396842930E-3
2.441594688E0,1.278316230E-2,2.250369266E-2,4.527369980E-3
2.444106667E0,1.384842582E-2,1.930790208E-2,5.592633504E-3
2.446618646E0,1.278316230E-2,2.143842913E-2,2.396842930E-3
2.449130573E0,8.522108197E-3,2.569948323E-2,2.396842930E-3
2.451642552E0,1.065263525E-2,2.250369266E-2,3.462106455E-3
2.454154532E0,1.384842582E-2,1.824263856E-2,2.396842930E-3
2.456666459E0,1.491368935E-2,1.930790208E-2,4.527369980E-3
2.459178438E0,1.491368935E-2,1.291632000E-2,5.592633504E-3
2.461690417E0,1.704421639E-2,8.655265905E-3,1.331579406E-3
2.464202396E0,1.704421639E-2,5.459475331E-3,3.462106455E-3
2.466714323E0,1.810947992E-2,-5.193159916E-3,1.331579406E-3
2.469226302E0,2.130527049E-2,-1.371526811E-2,2.396842930E-3
2.471738282E0,2.130527049E-2,-2.543316595E-2,4.527369980E-3
2.474250209E0,2.237053402E-2,-3.169158846E-2,3.462106455E-3
2.476762188E0,2.876211517E-2,-4.447475076E-2,4.527369980E-3
2.479274167E0,2.982737869E-2,-5.512738600E-2,3.462106455E-3
2.481786146E0,2.876211517E-2,-5.619265139E-2,1.331579406E-3
2.484298073E0,3.408843279E-2,-6.684528291E-2,3.462106455E-3
2.486810052E0,3.515369445E-2,-7.217160612E-2,4.527369980E-3
2.489322032E0,3.621895984E-2,-7.749792188E-2,8.788423613E-3
2.491834011E0,3.728422523E-2,-7.643266022E-2,6.657897029E-3
2.494345938E0,3.515369445E-2,-7.643266022E-2,7.723160554E-3
2.496857917E0,3.728422523E-2,-7.962844521E-2,7.723160554E-3
2.499369896E0,4.261054099E-2,-8.495476842E-2,9.853687137E-3
2.501881823E0,4.154527932E-2,-8.175897598E-2,1.091895066E-2
2.504393802E0,4.261054099E-2,-8.602003008E-2,1.518000476E-2
2.506905782E0,4.367580265E-2,-8.282423764E-2,1.624526829E-2
2.509417761E0,4.154527932E-2,-8.708529174E-2,1.731053181E-2
2.511929688E0,4.474106804E-2,-8.388949931E-2,1.624526829E-2
2.514441667E0,4.687159508E-2,-8.921582252E-2,1.624526829E-2
2.516953646E0,4.261054099E-2,-9.454213828E-2,1.624526829E-2
2.519465573E0,4.154527932E-2,-1.009337157E-1,1.624526829E-2
2.521977552E0,3.728422523E-2,-1.030642465E-1,1.731053181E-2
2.524489532E0,3.728422523E-2,-1.062600389E-1,1.624526829E-2
2.527001511E0,3.834948689E-2,-1.094558239E-1,1.518000476E-2
2.529513438E0,3.834948689E-2,-1.073253006E-1,1.091895066E-2
2.532025417E0,3.302317113E-2,-1.073253006E-1,1.091895066E-2
2.534537396E0,2.982737869E-2,-1.030642465E-1,9.853687137E-3
2.537049375E0,2.876211517E-2,-9.986845404E-2,6.657897029E-3
2.539561302E0,2.663158812E-2,-9.773793072E-2,5.592633504E-3
2.542073282E0,2.450106107E-2,-8.388949931E-2,3.462106455E-3
2.544585261E0,2.237053402E-2,-7.643266022E-2,-7.989476435E-4
2.547097188E0,1.917474344E-2,-6.791055202E-2,-2.929474693E-3
2.549609167E0,1.917474344E-2,-6.151896715E-2,-3.994738217E-3
2.552121146E0,2.024000697E-2,-5.193159729E-2,-8.255792782E-3
2.554633125E0,2.237053402E-2,-4.554001614E-2,-1.038631983E-2
2.557145052E0,2.237053402E-2,-4.127896205E-2,-1.145158336E-2
2.559657032E0,2.450106107E-2,-3.701790795E-2,-1.358211040E-2
2.562169011E0,2.343579754E-2,-3.169158846E-2,-1.358211040E-2
2.564680938E0,2.663158812E-2,-3.062632680E-2,-1.464737393E-2
2.567192917E0,2.876211517E-2,-3.062632680E-2,-1.464737393E-2
2.569704896E0,3.408843279E-2,-3.488738090E-2,-1.464737393E-2
2.572216875E0,3.834948689E-2,-3.275685385E-2,-1.677790098E-2
2.574728802E0,4.154527932E-2,-3.169158846E-2,-1.358211040E-2
2.577240782E0,4.793685675E-2,-3.275685385E-2,-1.571263745E-2
2.579752761E0,5.006738752E-2,-3.595264256E-2,-1.571263745E-2
2.582264740E0,5.326317623E-2,-3.488738090E-2,-1.571263745E-2
2.584776667E0,5.752423033E-2,-3.701790795E-2,-1.571263745E-2
2.587288646E0,6.178528443E-2,-3.382211551E-2,-1.571263745E-2
2.589800625E0,6.498107314E-2,-3.275685385E-2,-1.784316450E-2
2.592312552E0,6.817686558E-2,-3.275685385E-2,-1.677790098E-2
2.594824532E0,7.456845045E-2,-3.169158846E-2,-1.784316450E-2
2.597336511E0,7.669897377E-2,-3.382211551E-2,-1.571263745E-2
2.599848490E0,7.669897377E-2,-3.595264256E-2,-1.464737393E-2
2.602360417E0,7.989476621E-2,-3.275685385E-2,-1.784316450E-2
2.604872396E0,8.202528954E-2,-3.169158846E-2,-1.784316450E-2
2.607384375E0,8.202528954E-2,-3.488738090E-2,-1.784316450E-2
2.609896354E0,8.522108197E-2,-3.808316961E-2,-1.784316450E-2
2.612408282E0,8.948213607E-2,-3.808316961E-2,-1.890842803E-2
2.614920261E0,9.161266685E-2,-3.595264256E-2,-1.890842803E-2
2.617432240E0,9.161266685E-2,-4.127896205E-2,-1.890842803E-2
2.619944167E0,9.480845183E-2,-3.701790795E-2,-1.784316450E-2
2.622456146E0,9.800424427E-2,-3.595264256E-2,-1.784316450E-2
2.624968125E0,9.480845183E-2,-3.701790795E-2,-2.210421860E-2
2.627480104E0,9.693898261E-2,-4.340948910E-2,-2.103895508E-2
2.629992032E0,1.001347750E-1,-4.021369666E-2,-1.677790098E-2
2.632504011E0,1.012000367E-1,-3.275685385E-2,-1.784316450E-2
2.635015990E0,9.587371349E-2,-3.382211551E-2,-1.784316450E-2
2.637527917E0,9.587371349E-2,-3.382211551E-2,-1.677790098E-2
2.640039896E0,9.587371349E-2,-3.062632680E-2,-1.677790098E-2
2.642551875E0,9.480845183E-2,-2.423474565E-2,-1.358211040E-2
2.645063854E0,9.161266685E-2,-2.423474565E-2,-1.251684688E-2
2.647575782E0,9.267792851E-2,-2.316948213E-2,-1.358211040E-2
2.650087761E0,9.161266685E-2,-2.316948213E-2,-1.145158336E-2
2.652599740E0,9.267792851E-2,-1.677790098E-2,-1.251684688E-2
2.655111719E0,9.161266685E-2,-1.997369155E-2,-1.251684688E-2
2.657623802E0,9.054739773E-2,-2.316948213E-2,-1.038631983E-2
2.660135938E0,9.054739773E-2,-2.530000918E-2,-8.255792782E-3
2.662648021E0,8.841687441E-2,-3.169158846E-2,-7.190528791E-3
2.665160104E0,9.267792851E-2,-3.701790795E-2,-6.125265267E-3
2.667672188E0,9.374319017E-2,-4.447475076E-2,-2.929474693E-3
2.670184271E0,9.800424427E-2,-5.938844010E-2,1.331579406E-3
2.672696354E0,1.033305600E-1,-7.217160612E-2,1.331579406E-3
2.675208438E0,1.043958217E-1,-8.069371432E-2,2.663158812E-4
2.677720573E0,1.086568832E-1,-9.028108418E-2,2.663158812E-4
2.680232657E0,1.107874066E-1,-9.241160750E-2,2.663158812E-4
2.682744740E0,1.118526682E-1,-9.347687662E-2,3.462106455E-3
2.685256823E0,1.193095148E-1,-1.030642465E-1,3.462106455E-3
2.687768907E0,1.278316230E-1,-1.073253006E-1,3.462106455E-3
2.690280990E0,1.384842545E-1,-1.169126704E-1,4.527369980E-3
2.692793125E0,1.416800469E-1,-1.318263561E-1,5.592633504E-3
2.695305209E0,1.523326784E-1,-1.541968882E-1,6.657897029E-3
2.697817292E0,1.651158482E-1,-1.765674353E-1,7.723160554E-3
2.700329375E0,1.757684797E-1,-2.031990141E-1,8.788423613E-3
2.702841459E0,1.842905879E-1,-2.255695462E-1,4.527369980E-3
2.705353542E0,1.960084885E-1,-2.436790317E-1,6.657897029E-3
2.707865625E0,2.013348043E-1,-2.724411488E-1,5.592633504E-3
2.710377761E0,2.087916434E-1,-2.948116660E-1,7.723160554E-3
2.712889844E0,2.194442898E-1,-3.161169589E-1,7.723160554E-3
2.715401927E0,2.290316522E-1,-3.363569677E-1,5.592633504E-3
2.717914011E0,2.407495528E-1,-3.555316925E-1,7.723160554E-3
2.720426094E0,2.428800762E-1,-3.715106547E-1,1.091895066E-2
2.722938177E0,2.439453453E-1,-3.800327480E-1,7.723160554E-3
2.725450313E0,2.450106144E-1,-3.853590786E-1,1.411474124E-2
2.727962396E0,2.439453453E-1,-3.768369853E-1,1.731053181E-2
2.730474479E0,2.396842986E-1,-3.619232774E-1,1.944105886E-2
2.732986563E0,2.343579829E-1,-3.438138068E-1,2.370211296E-2
2.735498646E0,2.290316522E-1,-3.246390522E-1,2.476737648E-2
2.738010729E0,2.205095440E-1,-3.012032509E-1,2.796316706E-2
2.740522813E0,2.119874358E-1,-2.820285261E-1,3.222422302E-2
2.743034948E0,2.055958658E-1,-2.703106105E-1,3.222422302E-2
2.745547032E0,1.981390119E-1,-2.628537714E-1,3.009369411E-2
2.748059115E0,1.917474270E-1,-2.511358857E-1,3.115895763E-2
2.750571198E0,1.832253337E-1,-2.426137626E-1,3.115895763E-2
2.753083282E0,1.747032106E-1,-2.383527160E-1,2.796316706E-2
2.755595365E0,1.683116406E-1,-2.308958620E-1,2.689790353E-2
2.758107500E0,1.619200557E-1,-2.287653387E-1,2.370211296E-2
2.760619584E0,1.587242633E-1,-2.298306078E-1,2.157158591E-2
2.763131667E0,1.491369009E-1,-2.287653387E-1,2.583264001E-2
2.765643750E0,1.406147778E-1,-2.266348153E-1,2.583264001E-2
2.768155834E0,1.310274154E-1,-2.170474380E-1,2.583264001E-2
2.770667917E0,1.161137223E-1,-2.053295374E-1,2.689790353E-2
2.773180000E0,9.800424427E-2,-1.872200668E-1,2.796316706E-2
2.775692136E0,7.989476621E-2,-1.637842655E-1,2.689790353E-2
2.778204219E0,6.072001904E-2,-1.318263561E-1,3.542001173E-2
2.780716302E0,4.261054099E-2,-9.347687662E-2,3.009369411E-2
2.783228386E0,2.663158812E-2,-5.725791305E-2,2.902843058E-2
2.785740469E0,9.587371722E-3,-2.103895508E-2,3.115895763E-2
2.788252552E0,-4.261054099E-3,1.518000476E-2,3.328948468E-2
2.790764688E0,-1.597895287E-2,4.926843941E-2,3.435475007E-2
2.793276771E0,-2.876211517E-2,8.016107976E-2,3.755053878E-2
2.795788854E0,-3.621895984E-2,1.121189892E-1,3.648527712E-2
2.798300938E0,-3.941474855E-2,1.344895214E-1,3.542001173E-2
2.800813021E0,-4.474106804E-2,1.515337378E-1,3.542001173E-2
2.803325104E0,-5.006738752E-2,1.643168926E-1,3.009369411E-2
2.805837188E0,-4.793685675E-2,1.675126851E-1,2.583264001E-2
2.808349323E0,-4.687159508E-2,1.643168926E-1,1.944105886E-2
2.810861407E0,-4.048001394E-2,1.547295302E-1,1.624526829E-2
2.813373490E0,-3.408843279E-2,1.334242523E-1,1.304947771E-2
2.815885573E0,-2.663158812E-2,1.121189892E-1,7.723160554E-3
2.818397657E0,-2.663158812E-2,8.655266464E-2,2.396842930E-3
2.820909740E0,-2.237053402E-2,6.098633632E-2,-3.994738217E-3
2.823421875E0,-2.343579754E-2,3.861580417E-2,-6.125265267E-3
2.825933959E0,-2.876211517E-2,1.091895066E-2,-1.251684688E-2
2.828446042E0,-3.515369445E-2,-1.677790098E-2,-1.145158336E-2
2.830958125E0,-4.367580265E-2,-3.595264256E-2,-1.038631983E-2
2.833470209E0,-5.432844162E-2,-5.619265139E-2,-1.251684688E-2
2.835982292E0,-6.817686558E-2,-6.471475959E-2,-1.358211040E-2
2.838494375E0,-8.096002787E-2,-7.004107535E-2,-9.321056306E-3
2.841006511E0,-9.374319017E-2,-6.364949793E-2,-8.255792782E-3
2.843518594E0,-1.129179299E-1,-4.127896205E-2,-1.038631983E-2
2.846030677E0,-1.278316230E-1,-1.677790098E-2,-9.321056306E-3
2.848542761E0,-1.395495236E-1,1.837579533E-2,-1.358211040E-2
2.851054844E0,-1.576589942E-1,6.311686337E-2,-2.103895508E-2
2.853566927E0,-1.672463715E-1,1.153147742E-1,-2.636527270E-2
2.856079011E0,-1.725726873E-1,1.653821617E-1,-3.382211551E-2
2.858591146E0,-1.800295413E-1,2.186453342E-1,-4.340948910E-2
2.861103229E0,-1.810947955E-1,2.623211443E-1,-5.725791305E-2
2.863615313E0,-1.715074331E-1,2.974748313E-1,-7.323686779E-2
2.866127396E0,-1.640505791E-1,3.166495860E-1,-8.708529174E-2
2.868639479E0,-1.459411085E-1,3.177148402E-1,-1.009337157E-1
2.871151563E0,-1.225053072E-1,3.113232553E-1,-1.179779321E-1
2.873663698E0,-9.267792851E-2,2.921485305E-1,-1.318263561E-1
2.876175782E0,-5.858949572E-2,2.633863986E-1,-1.456747800E-1
2.878687865E0,-2.237053402E-2,2.324937582E-1,-1.541968882E-1
2.881199948E0,1.065263525E-2,1.941442788E-1,-1.648495346E-1
2.883712032E0,4.048001394E-2,1.515337378E-1,-1.691105813E-1
2.886224115E0,7.563371211E-2,1.142495126E-1,-1.776326895E-1
2.888736198E0,1.065263525E-1,7.483476400E-2,-1.797632128E-1
2.891248334E0,1.342232078E-1,3.542001173E-2,-1.797632128E-1
2.893760417E0,1.533979475E-1,2.663158812E-4,-1.840242743E-1
2.896272500E0,1.693768948E-1,-2.636527270E-2,-1.882853210E-1
2.898784584E0,1.821600646E-1,-5.938844010E-2,-1.882853210E-1
2.901296667E0,1.917474270E-1,-9.880319238E-2,-1.882853210E-1
2.903808750E0,2.024000734E-1,-1.307611018E-1,-1.850895435E-1
2.906320886E0,2.119874358E-1,-1.541968882E-1,-1.850895435E-1
2.908832969E0,2.205095440E-1,-1.701758504E-1,-1.850895435E-1
2.911345052E0,2.247706056E-1,-1.797632128E-1,-1.829590052E-1
2.913857136E0,2.300969213E-1,-1.786979586E-1,-1.818937510E-1
2.916369219E0,2.354232371E-1,-1.776326895E-1,-1.808284819E-1
2.918881302E0,2.375537604E-1,-1.691105813E-1,-1.755021662E-1
2.921393386E0,2.364885062E-1,-1.563274264E-1,-1.733716428E-1
2.923905521E0,2.386190295E-1,-1.435442567E-1,-1.701758504E-1
2.926417604E0,2.396842986E-1,-1.243695170E-1,-1.701758504E-1
2.928929688E0,2.386190295E-1,-1.147821471E-1,-1.659147888E-1
2.931441771E0,2.428800762E-1,-9.986845404E-2,-1.659147888E-1
2.933953854E0,2.492716610E-1,-8.602003008E-2,-1.627189964E-1
2.936465938E0,2.514021993E-1,-7.856318355E-2,-1.637842655E-1
2.938978073E0,2.545979917E-1,-7.536739111E-2,-1.637842655E-1
2.941490157E0,2.609895766E-1,-7.430212945E-2,-1.648495346E-1
2.944002240E0,2.663158774E-1,-7.749792188E-2,-1.669800580E-1
2.946514323E0,2.727074623E-1,-8.175897598E-2,-1.669800580E-1
2.949026407E0,2.833600938E-1,-8.815055341E-2,-1.680453271E-1
2.951538490E0,2.908169329E-1,-1.009337157E-1,-1.723063737E-1
2.954050573E0,2.982738018E-1,-1.062600389E-1,-1.786979586E-1
2.956562709E0,3.110569417E-1,-1.190432012E-1,-1.797632128E-1
2.959074792E0,3.206443191E-1,-1.350221485E-1,-1.840242743E-1
2.961586875E0,3.259706497E-1,-1.446095258E-1,-1.925463825E-1
2.964098959E0,3.355579972E-1,-1.573926806E-1,-1.946769059E-1
2.966611042E0,3.419495821E-1,-1.637842655E-1,-1.989379674E-1
2.969123125E0,3.451453745E-1,-1.712411046E-1,-2.063948065E-1
2.971635261E0,3.504717052E-1,-1.744368970E-1,-2.127863914E-1
2.974147344E0,3.536674976E-1,-1.755021662E-1,-2.191779763E-1
2.976659427E0,3.515369594E-1,-1.776326895E-1,-2.319611311E-1
2.979171511E0,3.557980061E-1,-1.765674353E-1,-2.372874469E-1
2.981683594E0,3.579285443E-1,-1.818937510E-1,-2.447443008E-1
2.984195677E0,3.568632901E-1,-1.808284819E-1,-2.522011399E-1
2.986707761E0,3.536674976E-1,-1.808284819E-1,-2.596579790E-1
2.989219896E0,3.568632901E-1,-1.808284819E-1,-2.671148181E-1
2.991731979E0,3.557980061E-1,-1.808284819E-1,-2.713758945E-1
2.994244063E0,3.483411670E-1,-1.818937510E-1,-2.724411488E-1
2.996756146E0,3.430148661E-1,-1.797632128E-1,-2.724411488E-1
2.999268229E0,3.312969506E-1,-1.648495346E-1,-2.747048438E-1
3.001780313E0,3.238401115E-1,-1.541968882E-1,-2.747048438E-1
3.004292448E0,3.153179884E-1,-1.414137334E-1,-2.672479749E-1
3.006804532E0,3.036001027E-1,-1.318263561E-1,-2.629869282E-1
3.009316615E0,2.950780094E-1,-1.211737245E-1,-2.555300891E-1
3.011828698E0,2.833600938E-1,-1.201084629E-1,-2.470079809E-1
3.014340782E0,2.695116699E-1,-1.169126704E-1,-2.374206036E-1
3.016852865E0,2.556632459E-1,-1.179779321E-1,-2.288984954E-1
3.019364948E0,2.428800762E-1,-1.233042553E-1,-2.193111330E-1
3.021877084E0,2.322274446E-1,-1.286305636E-1,-2.054627091E-1
3.024389167E0,2.258358598E-1,-1.307611018E-1,-1.905490160E-1
3.026901250E0,2.162484974E-1,-1.286305636E-1,-1.756353229E-1
3.029413334E0,2.045305967E-1,-1.286305636E-1,-1.596563756E-1
3.031925417E0,1.960084885E-1,-1.265000403E-1,-1.394163668E-1
3.034437500E0,1.864211112E-1,-1.243695170E-1,-1.223721504E-1
3.036949636E0,1.821600646E-1,-1.243695170E-1,-1.053279340E-1
3.039461719E0,1.778990030E-1,-1.265000403E-1,-8.828371763E-2
3.041973802E0,1.704421639E-1,-1.286305636E-1,-7.337002456E-2
3.044485886E0,1.683116406E-1,-1.360874176E-1,-5.739107355E-2
3.046997969E0,1.640505791E-1,-1.382179409E-1,-4.141211882E-2
3.049510052E0,1.629853249E-1,-1.403484643E-1,-2.756369300E-2
3.052022136E0,1.640505791E-1,-1.446095258E-1,-2.010684833E-2
3.054534271E0,1.651158482E-1,-1.446095258E-1,-1.691105776E-2
3.057046354E0,1.683116406E-1,-1.414137334E-1,-1.158474106E-2
3.059558438E0,1.715074331E-1,-1.403484643E-1,-1.158474106E-2
3.062070521E0,1.747032106E-1,-1.424790025E-1,-1.158474106E-2
3.064582604E0,1.810947955E-1,-1.488705724E-1,-1.478053164E-2
3.067094688E0,1.842905879E-1,-1.595232189E-1,-2.117211185E-2
3.069606823E0,1.885516495E-1,-1.595232189E-1,-3.608580306E-2
3.072118907E0,1.938779652E-1,-1.616537422E-1,-4.780369997E-2
3.074630990E0,2.087916434E-1,-1.723063737E-1,-6.058686227E-2
3.077143073E0,2.162484974E-1,-1.904158592E-1,-7.443528622E-2
3.079655157E0,2.215748131E-1,-2.085253298E-1,-9.147950262E-2
3.082167240E0,2.322274446E-1,-2.181127071E-1,-1.095889881E-1
3.084679323E0,2.439453453E-1,-2.255695462E-1,-1.266331971E-1
3.087191459E0,2.535327077E-1,-2.277000844E-1,-1.490037292E-1
3.089703542E0,2.609895766E-1,-2.202432305E-1,-1.671132147E-1
3.092215625E0,2.673811316E-1,-2.085253298E-1,-1.852227002E-1
3.094727709E0,2.673811316E-1,-1.914811134E-1,-1.990711242E-1
3.097239792E0,2.652506232E-1,-1.765674353E-1,-2.129195482E-1
3.099751875E0,2.567285001E-1,-1.595232189E-1,-2.267679721E-1
3.102264011E0,2.556632459E-1,-1.403484643E-1,-2.374206036E-1
3.104776094E0,2.460758686E-1,-1.243695170E-1,-2.480732501E-1
3.107288177E0,2.343579829E-1,-1.009337157E-1,-2.555300891E-1
3.109800261E0,2.300969213E-1,-7.962844521E-2,-2.608564198E-1
3.112312344E0,2.269011289E-1,-5.086633191E-2,-2.672479749E-1
3.114824427E0,2.258358598E-1,-2.423474565E-2,-2.715090513E-1
3.117336511E0,2.237053365E-1,1.331579406E-3,-2.747048438E-1
3.119848646E0,2.279663980E-1,2.583264001E-2,-2.757700980E-1
3.122360729E0,2.311621904E-1,4.607264698E-2,-2.725743055E-1
3.124872813E0,2.386190295E-1,7.057370991E-2,-2.704437673E-1
3.127384896E0,2.460758686E-1,9.720529616E-2,-2.672479749E-1
3.129896979E0,2.556632459E-1,1.259674132E-1,-2.672479749E-1
3.132409063E0,2.631200850E-1,1.579253227E-1,-2.544648349E-1
3.134921198E0,2.748380005E-1,1.994705945E-1,-2.438121885E-1
3.137433282E0,2.801643014E-1,2.431464046E-1,-2.352900803E-1
3.139945365E0,2.844253480E-1,2.868221998E-1,-2.235721797E-1
3.142457448E0,2.833600938E-1,3.336938024E-1,-2.086584866E-1
3.144969532E0,2.865558863E-1,3.731085360E-1,-1.926795393E-1
3.147481615E0,2.854906321E-1,4.125232995E-1,-1.788311154E-1
3.149993698E0,2.854906321E-1,4.412854016E-1,-1.575258374E-1
3.152505834E0,2.876211405E-1,4.647212029E-1,-1.436774135E-1
3.155017761E0,2.908169329E-1,4.849612117E-1,-1.276984662E-1
3.157529636E0,2.918822169E-1,4.988096356E-1,-1.074584574E-1
3.160041563E0,2.940127254E-1,5.094622970E-1,-8.615318686E-2
3.162553438E0,2.982738018E-1,5.147886276E-1,-6.697844714E-2
3.165065365E0,2.929474711E-1,5.233107209E-1,-5.313001946E-2
3.167577240E0,2.950780094E-1,5.265064836E-1,-4.034685716E-2
3.170089167E0,3.036001027E-1,5.233107209E-1,-3.075948358E-2
3.172601042E0,3.142527342E-1,5.211801529E-1,-1.797632128E-2
3.175112969E0,3.259706497E-1,5.179843903E-1,-8.388950489E-3
3.177624844E0,3.366232812E-1,5.137233138E-1,-1.265000459E-2
3.180136771E0,3.526022136E-1,5.105275512E-1,-1.584579423E-2
3.182648646E0,3.707117140E-1,5.020054579E-1,-2.649842948E-2
3.185160573E0,3.909517229E-1,4.849612117E-1,-3.395527601E-2
3.187672448E0,4.133222401E-1,4.636559486E-1,-4.673843831E-2
3.190184375E0,4.420843720E-1,4.455464780E-1,-6.165212765E-2
3.192696250E0,4.655201733E-1,4.253064692E-1,-7.337002456E-2
3.195208177E0,4.857601523E-1,3.944138288E-1,-8.615318686E-2
3.197720052E0,4.985433221E-1,3.635211885E-1,-9.574055672E-2
3.200231979E0,5.091959834E-1,3.283674717E-1,-1.021321416E-1
3.202743854E0,5.209138393E-1,2.910832465E-1,-1.117195114E-1
3.205255782E0,5.262401700E-1,2.516685128E-1,-1.234374121E-1
3.207767657E0,5.336970091E-1,2.165148109E-1,-1.362205744E-1
3.210279584E0,5.422191620E-1,1.845569015E-1,-1.458079517E-1
3.212791459E0,5.518065095E-1,1.547295302E-1,-1.575258374E-1
3.215303386E0,5.635244250E-1,1.217063591E-1,-1.628521681E-1
3.217815261E0,5.731117725E-1,9.187898040E-2,-1.649826914E-1
3.220327188E0,5.763075948E-1,6.631265581E-2,-1.681784838E-1
3.222839063E0,5.795033574E-1,4.394211993E-2,-1.724395305E-1
3.225350990E0,5.816338658E-1,2.583264001E-2,-1.713742763E-1
3.227862865E0,5.752422810E-1,4.527369980E-3,-1.649826914E-1
3.230374792E0,5.720465183E-1,-2.849579975E-2,-1.564605832E-1
3.232886667E0,5.677854419E-1,-5.299685895E-2,-1.490037292E-1
3.235398594E0,5.624591112E-1,-7.643266022E-2,-1.426121593E-1
3.237910469E0,5.581980944E-1,-9.773793072E-2,-1.330247819E-1
3.240422396E0,5.550022721E-1,-1.158474088E-1,-1.213068813E-1
3.242934271E0,5.411538482E-1,-1.339568943E-1,-1.085237190E-1
3.245446198E0,5.368928313E-1,-1.456747800E-1,-9.467529505E-2
3.247958073E0,5.315665007E-1,-1.446095258E-1,-7.976160944E-2
3.250470000E0,5.241096616E-1,-1.403484643E-1,-6.271739304E-2
3.252981875E0,5.123917460E-1,-1.360874176E-1,-4.460791126E-2
3.255493802E0,5.017391443E-1,-1.158474088E-1,-3.608580306E-2
3.258005677E0,4.932170212E-1,-9.347687662E-2,-1.904158480E-2
3.260517604E0,4.836296439E-1,-7.430212945E-2,-3.062632633E-3
3.263029479E0,4.740422666E-1,-4.873580486E-2,1.398158353E-2
3.265541407E0,4.697812200E-1,-2.423474565E-2,2.783001028E-2
3.268053282E0,4.687159657E-1,4.527369980E-3,3.528685495E-2
3.270565209E0,4.729770124E-1,3.222422302E-2,4.061317071E-2
3.273077084E0,4.825643897E-1,5.566002056E-2,4.700475186E-2
3.275589011E0,4.921517372E-1,7.590002567E-2,5.765738711E-2
3.278100886E0,5.017391443E-1,1.025316119E-1,6.085317954E-2
3.280612813E0,5.177180767E-1,1.249021515E-1,6.404896826E-2
3.283124688E0,5.326317549E-1,1.366200447E-1,6.617949903E-2
3.285636615E0,5.443496704E-1,1.536642611E-1,6.404896826E-2
3.288148490E0,5.571328402E-1,1.696432233E-1,6.085317954E-2
3.290660417E0,5.709812641E-1,1.792305857E-1,6.298370659E-2
3.293172292E0,5.858949423E-1,1.898832172E-1,6.191844121E-2
3.295684219E0,5.976128578E-1,1.994705945E-1,6.191844121E-2
3.298196094E0,6.050696969E-1,2.186453342E-1,5.978791416E-2
3.300708021E0,6.125265360E-1,2.378200889E-1,5.659212545E-2
3.303219896E0,6.221138835E-1,2.612558901E-1,5.020054430E-2
3.305731823E0,6.348970532E-1,2.783001065E-1,3.954790905E-2
3.308243698E0,6.476802230E-1,2.900179923E-1,4.167843610E-2
3.310755625E0,6.583328843E-1,3.017359078E-1,4.167843610E-2
3.313267500E0,6.625939012E-1,3.145190477E-1,4.380896315E-2
3.315779427E0,6.689854860E-1,3.294327557E-1,3.954790905E-2
3.318291302E0,6.743118167E-1,3.464769721E-1,3.635211661E-2
3.320803229E0,6.807034016E-1,3.592601120E-1,3.102580085E-2
3.323315104E0,6.838991642E-1,3.667169809E-1,2.889527380E-2
3.325827032E0,6.945518255E-1,3.699127734E-1,2.783001028E-2
3.328338907E0,7.009434104E-1,3.752390742E-1,3.528685495E-2
3.330850834E0,7.030739188E-1,3.805654049E-1,4.061317071E-2
3.333362709E0,7.062697411E-1,3.858917058E-1,4.487422481E-2
3.335874636E0,7.137265801E-1,3.912180364E-1,4.167843610E-2
3.338386511E0,7.169223428E-1,3.997401297E-1,4.274369776E-2
3.340898438E0,7.275750041E-1,4.050664604E-1,4.487422481E-2
3.343410313E0,7.339665890E-1,4.082622528E-1,4.700475186E-2
3.345922240E0,7.371623516E-1,4.146538377E-1,4.807001725E-2
3.348434115E0,7.435539365E-1,4.231759310E-1,4.593949020E-2
3.350946042E0,7.520760298E-1,4.295675159E-1,4.807001725E-2
3.353457917E0,7.542065978E-1,4.359591007E-1,5.126580596E-2
3.355969844E0,7.552718520E-1,4.455464780E-1,5.552686006E-2
3.358481719E0,7.595328689E-1,4.487422705E-1,5.978791416E-2
3.360993646E0,7.616634369E-1,4.530033171E-1,6.511422992E-2
3.363505521E0,7.627286911E-1,4.583296180E-1,7.150581479E-2
3.366017448E0,7.648591995E-1,4.593949020E-1,7.683213055E-2
3.368529323E0,7.648591995E-1,4.625906944E-1,7.896266133E-2
3.371041250E0,7.669897079E-1,4.636559486E-1,8.002792299E-2
3.373553125E0,7.701855302E-1,4.593949020E-1,8.428897709E-2
3.376065052E0,7.712507844E-1,4.551338553E-1,8.641950041E-2
3.378576927E0,7.797728777E-1,4.583296180E-1,9.281108528E-2
3.381088854E0,7.850992084E-1,4.604601562E-1,9.600687772E-2
3.383600729E0,7.872297168E-1,4.615254104E-1,9.600687772E-2
3.386112657E0,7.957518697E-1,4.647212029E-1,9.387634695E-2
3.388624532E0,8.042739630E-1,4.657864869E-1,8.748476952E-2
3.391136459E0,8.106655478E-1,4.604601562E-1,8.535423875E-2
3.393648334E0,8.181223869E-1,4.647212029E-1,8.855003119E-2
3.396160261E0,8.266444802E-1,4.689822793E-1,9.281108528E-2
3.398672136E0,8.287750483E-1,4.764391184E-1,9.813740104E-2
3.401184063E0,8.319708109E-1,4.902875423E-1,1.034637168E-1
3.403695938E0,8.255792260E-1,5.030707121E-1,1.098553017E-1
3.406207865E0,8.138613105E-1,5.115928054E-1,1.183774099E-1
3.408719740E0,7.978823781E-1,5.062664747E-1,1.311605722E-1
3.411231667E0,7.840339541E-1,4.934833348E-1,1.407479495E-1
3.413743542E0,7.765771151E-1,4.721780717E-1,1.471395195E-1
3.416255469E0,7.637939453E-1,4.519380629E-1,1.577921659E-1
3.418767344E0,7.510107756E-1,4.295675159E-1,1.705753207E-1
3.421279271E0,7.360970974E-1,4.029359221E-1,1.833584905E-1
3.423791146E0,7.211834192E-1,3.858917058E-1,1.950763762E-1
3.426303073E0,7.126613259E-1,3.741738200E-1,2.025332302E-1
3.428814948E0,7.009434104E-1,3.603253961E-1,2.163816541E-1
3.431326875E0,6.870949864E-1,3.454116881E-1,2.344911397E-1
3.433838750E0,6.743118167E-1,3.326285481E-1,2.462090254E-1
3.436350677E0,6.604633927E-1,3.262369633E-1,2.600574493E-1
3.438862552E0,6.487454772E-1,3.059969544E-1,2.707100809E-1
3.441374479E0,6.348970532E-1,2.932137847E-1,2.802974582E-1
3.443886354E0,6.274402142E-1,2.761695683E-1,2.898848355E-1
3.446398282E0,6.221138835E-1,2.633863986E-1,2.984069586E-1
3.448910157E0,6.167875528E-1,2.516685128E-1,3.090595901E-1
3.451422084E0,6.125265360E-1,2.452769279E-1,3.165164292E-1
3.453933959E0,6.135917902E-1,2.431464046E-1,3.175816834E-1
3.456445886E0,6.167875528E-1,2.452769279E-1,3.175816834E-1
3.458957761E0,6.263749599E-1,2.537990212E-1,3.186469376E-1
3.461469688E0,6.348970532E-1,2.687127292E-1,3.175816834E-1
3.463981563E0,6.466149688E-1,2.825611532E-1,3.175816834E-1
3.466493490E0,6.540718079E-1,2.996053696E-1,3.133206367E-1
3.469005365E0,6.636591554E-1,3.230411708E-1,3.079943061E-1
3.471517292E0,6.711159945E-1,3.464769721E-1,3.026680052E-1
3.474029167E0,6.817686558E-1,3.656516969E-1,2.984069586E-1
3.476541094E0,6.913560033E-1,3.869569898E-1,2.888195813E-1
3.479052969E0,6.977475882E-1,4.093275070E-1,2.824279964E-1
3.481564896E0,7.030739188E-1,4.316980541E-1,2.792322040E-1
3.484076771E0,7.084002495E-1,4.519380629E-1,2.781669497E-1
3.486588698E0,7.094655037E-1,4.711127877E-1,2.771016657E-1
3.489100573E0,7.084002495E-1,4.892222881E-1,2.781669497E-1
3.491612500E0,7.073349953E-1,5.105275512E-1,2.792322040E-1
3.494124375E0,7.052044272E-1,5.328980684E-1,2.802974582E-1
3.496636302E0,6.956170797E-1,5.488770604E-1,2.813627422E-1
3.499148177E0,6.870949864E-1,5.584644079E-1,2.845585048E-1
3.501660104E0,6.785728931E-1,5.733780861E-1,2.898848355E-1
3.504171979E0,6.679202318E-1,5.850960016E-1,2.994722128E-1
3.506683907E0,6.551370621E-1,6.010749340E-1,3.079943061E-1
3.509195782E0,6.370275617E-1,6.106623411E-1,3.175816834E-1
3.511707709E0,6.167875528E-1,6.138581038E-1,3.261038065E-1
3.514219636E0,5.954822898E-1,6.127928495E-1,3.356911540E-1
3.516731511E0,5.741770267E-1,6.085317731E-1,3.431480229E-1
3.519243438E0,5.550022721E-1,6.032054424E-1,3.484743237E-1
3.521755313E0,5.315665007E-1,5.946833491E-1,3.559311628E-1
3.524267240E0,5.081307292E-1,5.850960016E-1,3.633880317E-1
3.526779115E0,4.868254364E-1,5.723128319E-1,3.740406632E-1
3.529291042E0,4.644548893E-1,5.563338995E-1,3.846932948E-1
3.531802917E0,4.431496263E-1,5.414201617E-1,3.910848796E-1
3.534314844E0,4.250401556E-1,5.307675600E-1,3.974764645E-1
3.536826719E0,4.069306552E-1,5.211801529E-1,4.070638120E-1
3.539338646E0,3.866906464E-1,5.126580596E-1,4.123901427E-1
3.541850521E0,3.696464300E-1,5.052012205E-1,4.209122360E-1
3.544362448E0,3.536674976E-1,4.988096356E-1,4.219775200E-1
3.546874323E0,3.387537897E-1,4.860264957E-1,4.262385666E-1
3.549386250E0,3.217095733E-1,4.785696268E-1,4.294343591E-1
3.551898125E0,3.078611493E-1,4.785696268E-1,4.273038208E-1
3.554410052E0,2.940127254E-1,4.743085802E-1,4.241080284E-1
3.556921927E0,2.801643014E-1,4.711127877E-1,4.262385666E-1
3.559433854E0,2.631200850E-1,4.700475335E-1,4.251733124E-1
3.561945729E0,2.418148220E-1,4.764391184E-1,4.230427742E-1
3.564457657E0,2.247706056E-1,4.796349108E-1,4.230427742E-1
3.566969532E0,2.034653276E-1,4.828307033E-1,4.219775200E-1
3.569481459E0,1.768337488E-1,4.881570041E-1,4.187817276E-1
3.571993334E0,1.470063627E-1,4.913527966E-1,4.145206809E-1
3.574505261E0,1.086568832E-1,4.924180508E-1,4.102596045E-1
3.577017136E0,7.030738890E-2,4.945485890E-1,4.091943502E-1
3.579529063E0,2.982737869E-2,4.881570041E-1,4.028027654E-1
3.582040938E0,-1.917474344E-2,4.881570041E-1,3.964111805E-1
3.584552865E0,-6.285054982E-2,4.870917499E-1,3.825627565E-1
3.587064740E0,-1.118526682E-1,4.870917499E-1,3.665838242E-1
3.589576667E0,-1.629853249E-1,4.860264957E-1,3.484743237E-1
3.592088542E0,-2.066611201E-1,4.796349108E-1,3.229080141E-1
3.594600469E0,-2.545979917E-1,4.828307033E-1,2.962764204E-1
3.597112344E0,-3.004043102E-1,4.775043726E-1,2.653837800E-1
3.599624271E0,-3.451453745E-1,4.689822793E-1,2.323606014E-1
3.602136146E0,-3.866906464E-1,4.636559486E-1,1.982721686E-1
3.604648073E0,-4.282359481E-1,4.647212029E-1,1.652490050E-1
3.607159948E0,-4.665854275E-1,4.689822793E-1,1.279647797E-1
3.609671875E0,-5.091959834E-1,4.700475335E-1,9.174582362E-2
3.612183750E0,-5.443496704E-1,4.817654192E-1,5.339633301E-2
3.614695677E0,-5.912212729E-1,4.977443814E-1,1.930790208E-2
3.617207552E0,-6.348970532E-1,5.115928054E-1,-1.584579423E-2
3.619719479E0,-6.785728931E-1,5.318328142E-1,-4.780369997E-2
3.622231354E0,-7.286402583E-1,5.520728230E-1,-8.615318686E-2
3.624743282E0,-7.797728777E-1,5.755085945E-1,-1.234374121E-1
3.627255157E0,-8.341013193E-1,5.968139172E-1,-1.564605832E-1
3.629767084E0,-8.980171680E-1,6.170539260E-1,-1.862879544E-1
3.632278959E0,-9.598024487E-1,6.340981126E-1,-2.139848173E-1
3.634790886E0,-1.029044509E0,6.617949605E-1,-2.395511419E-1
3.637302761E0,-1.101482511E0,6.948181391E-1,-2.651174664E-1
3.639814688E0,-1.170724630E0,7.246454954E-1,-2.906837761E-1
3.642326563E0,-1.246358275E0,7.544729114E-1,-3.109237850E-1
3.644838490E0,-1.326253057E0,7.949529290E-1,-3.279680014E-1
3.647350365E0,-1.410408854E0,8.301066160E-1,-3.460775018E-1
3.649862292E0,-1.493499517E0,8.652603030E-1,-3.631217182E-1
3.652374167E0,-1.573394179E0,8.940224051E-1,-3.801659346E-1
3.654886094E0,-1.649027944E0,9.110666513E-1,-3.929490745E-1
3.657398125E0,-1.720400572E0,9.185234904E-1,-4.131890833E-1
3.659910104E0,-1.790707946E0,9.153276682E-1,-4.270375073E-1
3.662422084E0,-1.857819557E0,9.046750665E-1,-4.398206770E-1
3.664934115E0,-1.922800660E0,8.897613883E-1,-4.494080544E-1
3.667446094E0,-1.984586000E0,8.695213795E-1,-4.589954317E-1
3.669958073E0,-2.050632238E0,8.514118791E-1,-4.685827792E-1
3.672470104E0,-2.125200748E0,8.407592177E-1,-4.749743640E-1
3.674982084E0,-2.204030275E0,8.386287093E-1,-4.771049023E-1
3.677494063E0,-2.288186073E0,8.311718702E-1,-4.749743640E-1
3.680006094E0,-2.378733397E0,8.205192089E-1,-4.781701565E-1
3.682518073E0,-2.472476721E0,8.066707850E-1,-4.845617414E-1
3.685030052E0,-2.563024044E0,7.960181832E-1,-4.941491187E-1
3.687542084E0,-2.656767130E0,7.949529290E-1,-5.090628266E-1
3.690054063E0,-2.751575708E0,8.034750223E-1,-5.303680897E-1
3.692566042E0,-2.838927269E0,8.194539547E-1,-5.591301918E-1
3.695078021E0,-2.916691542E0,8.482160568E-1,-5.900228620E-1
3.697590052E0,-2.982737780E0,8.801739812E-1,-6.273070574E-1
3.700102032E0,-3.044523239E0,9.068055749E-1,-6.613954902E-1
3.702614011E0,-3.089264154E0,9.291760921E-1,-6.933534145E-1
3.705126042E0,-3.120156765E0,9.504813552E-1,-7.263765931E-1
3.707638021E0,-3.137201071E0,9.685908556E-1,-7.593997121E-1
3.710150000E0,-3.131874800E0,9.803087711E-1,-7.839007974E-1
3.712662032E0,-3.106308460E0,9.898961186E-1,-8.094671369E-1
3.715174011E0,-3.067958832E0,9.803087711E-1,-8.211849928E-1
3.717685990E0,-3.017891645E0,9.696561098E-1,-8.286418915E-1
3.720198021E0,-2.965693712E0,9.515466690E-1,-8.350334167E-1
3.722710000E0,-2.915626287E0,9.408940077E-1,-8.360987306E-1
3.725221979E0,-2.862363100E0,9.291760921E-1,-8.414250016E-1
3.727734011E0,-2.810165167E0,9.249150753E-1,-8.510124087E-1
3.730245990E0,-2.768620014E0,9.291760921E-1,-8.595345020E-1
3.732757969E0,-2.729205132E0,9.334371686E-1,-8.637955785E-1
3.735270000E0,-2.699377775E0,9.419592619E-1,-8.701871634E-1
3.737781979E0,-2.685529232E0,9.408940077E-1,-8.659260869E-1
3.740293959E0,-2.674876690E0,9.355676770E-1,-8.584692478E-1
3.742805938E0,-2.664224148E0,9.100013375E-1,-8.424903154E-1
3.745317969E0,-2.661028385E0,8.716518879E-1,-8.265113235E-1
3.747829948E0,-2.658897877E0,8.205192089E-1,-8.073365688E-1
3.750341927E0,-2.666354656E0,7.619297504E-1,-7.817702889E-1
3.752853959E0,-2.669550419E0,6.948181391E-1,-7.572692037E-1
3.755365938E0,-2.673811436E0,6.255760193E-1,-7.306376100E-1
3.757877917E0,-2.675941944E0,5.573991537E-1,-7.008102536E-1
3.760389948E0,-2.675941944E0,4.838959575E-1,-6.709828377E-1
3.762901927E0,-2.666354656E0,4.040012062E-1,-6.432859898E-1
3.765413907E0,-2.657832384E0,3.028011620E-1,-6.198502183E-1
3.767925938E0,-2.636527300E0,1.962748021E-1,-5.996102095E-1
3.770437917E0,-2.600308180E0,9.720529616E-2,-5.825659633E-1
3.772949896E0,-2.563024044E0,1.518000476E-2,-5.729786158E-1
3.775461927E0,-2.518282890E0,-6.578002125E-2,-5.633912683E-1
3.777973907E0,-2.469280958E0,-1.339568943E-1,-5.612607002E-1
3.780485886E0,-2.419213533E0,-1.936116517E-1,-5.601954460E-1
3.782997865E0,-2.369146109E0,-2.362221926E-1,-5.655217767E-1
3.785509896E0,-2.323339701E0,-2.681801021E-1,-5.740438700E-1
3.788021875E0,-2.279664040E0,-2.937464118E-1,-5.793702006E-1
3.790533854E0,-2.243444920E0,-3.193127513E-1,-5.815007091E-1
3.793045886E0,-2.208291292E0,-3.448790610E-1,-5.783049464E-1
3.795557865E0,-2.177398682E0,-3.789674938E-1,-5.729786158E-1
3.798069844E0,-2.147571325E0,-4.194475114E-1,-5.676522851E-1
3.800581875E0,-2.120939732E0,-4.695149064E-1,-5.708481073E-1
3.803093854E0,-2.100699663E0,-5.153212547E-1,-5.772396922E-1
3.805605834E0,-2.087916613E0,-5.558012724E-1,-5.953491330E-1
3.808117865E0,-2.085785866E0,-5.920202136E-1,-6.219807267E-1
3.810629844E0,-2.098569155E0,-6.218475699E-1,-6.550039053E-1
3.813141823E0,-2.126266003E0,-6.399570704E-1,-6.880270839E-1
3.815653854E0,-2.166745901E0,-6.474139094E-1,-7.189196944E-1
3.818165834E0,-2.222139597E0,-6.399570704E-1,-7.476818562E-1
3.820677813E0,-2.277533531E0,-6.229128242E-1,-7.753787041E-1
3.823189844E0,-2.329731226E0,-5.973465443E-1,-8.009449840E-1
3.825701823E0,-2.381929159E0,-5.685843825E-1,-8.286418915E-1
3.828213802E0,-2.423474550E0,-5.323654413E-1,-8.563387394E-1
3.830725782E0,-2.454367161E0,-4.972117543E-1,-8.797745109E-1
3.833237813E0,-2.476737738E0,-4.588622749E-1,-9.010797739E-1
3.835749792E0,-2.489520788E0,-4.332959354E-1,-9.181240201E-1
3.838261771E0,-2.498043060E0,-4.215780497E-1,-9.277113676E-1
3.840773802E0,-2.498043060E0,-4.162517190E-1,-9.351682067E-1
3.843285782E0,-2.485259771E0,-4.258390963E-1,-9.458208680E-1
3.845797761E0,-2.466084957E0,-4.407527745E-1,-9.586040378E-1
3.848309792E0,-2.446910381E0,-4.652538300E-1,-9.671261311E-1
3.850821771E0,-2.423474550E0,-5.036033392E-1,-9.745829701E-1
3.853333750E0,-2.406430244E0,-5.472791195E-1,-9.799093008E-1
3.855845782E0,-2.389386177E0,-5.941507220E-1,-9.841703176E-1
3.858357761E0,-2.368080854E0,-6.420875788E-1,-9.873661399E-1
3.860869740E0,-2.347840786E0,-6.878939271E-1,-9.958882332E-1
3.863381771E0,-2.328665972E0,-7.326349616E-1,-1.007606149E0
3.865893750E0,-2.311621904E0,-7.731149793E-1,-1.016128302E0
3.868405729E0,-2.287120819E0,-8.263781667E-1,-1.022519827E0
3.870917709E0,-2.274337530E0,-8.807066083E-1,-1.026780844E0
3.873429740E0,-2.253032446E0,-9.254477024E-1,-1.033172488E0
3.875941719E0,-2.224270344E0,-9.563403130E-1,-1.035302997E0
3.878453698E0,-2.190181732E0,-9.691234827E-1,-1.035302997E0
3.880965729E0,-2.161419630E0,-9.723193049E-1,-1.031041980E0
3.883477709E0,-2.133722782E0,-9.659277201E-1,-1.022519827E0
3.885989688E0,-2.099634409E0,-9.520792961E-1,-1.010801911E0
3.888501719E0,-2.060219765E0,-9.339697957E-1,-9.969534874E-1
3.891013698E0,-2.026131153E0,-9.147950411E-1,-9.788440466E-1
3.893525677E0,-1.994173288E0,-8.934897780E-1,-9.639303088E-1
3.896037709E0,-1.955823779E0,-8.700540066E-1,-9.447556138E-1
3.898549688E0,-1.913213253E0,-8.317044973E-1,-9.223850369E-1
3.901061667E0,-1.873798490E0,-7.858981490E-1,-8.978840113E-1
3.903573698E0,-1.824796438E0,-7.486139536E-1,-8.733829260E-1
3.906085677E0,-1.782185912E0,-7.219823599E-1,-8.478165865E-1
3.908597657E0,-1.743836403E0,-6.996118426E-1,-8.243808150E-1
3.911109688E0,-1.706552148E0,-6.868286729E-1,-8.030755520E-1
3.913621667E0,-1.672463775E0,-6.708496809E-1,-7.743134499E-1
3.916133646E0,-1.636244774E0,-6.601970792E-1,-7.412902713E-1
3.918645625E0,-1.597895265E0,-6.548707485E-1,-7.040060163E-1
3.921157657E0,-1.557415247E0,-6.495444179E-1,-6.635259986E-1
3.923669636E0,-1.514804721E0,-6.431528330E-1,-6.251765490E-1
3.926181615E0,-1.471128941E0,-6.378265619E-1,-5.910881162E-1
3.928693646E0,-1.423192024E0,-6.261086464E-1,-5.612607002E-1
3.931205625E0,-1.376320481E0,-6.207823157E-1,-5.335638523E-1
3.933717604E0,-1.332644701E0,-6.133254766E-1,-5.037364960E-1
3.936229636E0,-1.283642530E0,-6.058686376E-1,-4.792354405E-1
3.938741615E0,-1.234640479E0,-5.994770527E-1,-4.589954317E-1
3.941253594E0,-1.189899325E0,-5.952159762E-1,-4.419512153E-1
3.943765625E0,-1.143027782E0,-6.026728153E-1,-4.238417149E-1
3.946277604E0,-1.099352002E0,-6.154559851E-1,-4.078627825E-1
3.948789584E0,-1.062067747E0,-6.250433922E-1,-3.918838203E-1
3.951301615E0,-1.024783492E0,-6.314349771E-1,-3.759048581E-1
3.953813594E0,-9.885645509E-1,-6.346307397E-1,-3.620564342E-1
3.956325573E0,-9.523456097E-1,-6.388918161E-1,-3.482080102E-1
3.958837604E0,-9.193224311E-1,-6.346307397E-1,-3.364901245E-1
3.961349584E0,-8.852339983E-1,-6.250433922E-1,-3.215764165E-1
3.963861563E0,-8.490150571E-1,-6.154559851E-1,-3.077279925E-1
3.966373542E0,-8.117308021E-1,-6.090644002E-1,-2.928143144E-1
3.968885573E0,-7.765771151E-1,-5.920202136E-1,-2.800311446E-1
3.971397552E0,-7.435539365E-1,-5.866938829E-1,-2.651174664E-1
3.973909532E0,-7.105307579E-1,-5.760412216E-1,-2.502037585E-1
3.976421563E0,-6.721813083E-1,-5.643233657E-1,-2.384858727E-1
3.978933542E0,-6.391581297E-1,-5.589970350E-1,-2.267679721E-1
3.981445521E0,-6.061349511E-1,-5.526054502E-1,-2.118542790E-1
3.983957552E0,-5.667201877E-1,-5.483443737E-1,-2.012016475E-1
3.986469532E0,-5.262401700E-1,-5.483443737E-1,-1.894837469E-1
3.988981511E0,-4.857601523E-1,-5.440833569E-1,-1.756353229E-1
3.991493542E0,-4.420843720E-1,-5.440833569E-1,-1.649826914E-1
3.994005521E0,-3.941475153E-1,-5.472791195E-1,-1.500689983E-1
3.996517500E0,-3.430148661E-1,-5.483443737E-1,-1.362205744E-1
3.999029532E0,-2.908169329E-1,-5.526054502E-1,-1.181110963E-1
4.001541511E0,-2.375537604E-1,-5.547359586E-1,-1.031974033E-1
4.004053490E0,-1.768337488E-1,-5.611275434E-1,-8.934897929E-2
4.006565469E0,-1.203747764E-1,-5.696496964E-1,-7.337002456E-2
4.009077500E0,-5.965475738E-2,-5.781717896E-1,-6.058686227E-2
4.011589479E0,3.195790574E-3,-5.824328065E-1,-4.567317292E-2
4.014101459E0,7.030738890E-2,-5.898897052E-1,-2.969422005E-2
4.016613490E0,1.374190003E-1,-6.090644002E-1,-1.691105776E-2
4.019125469E0,2.077263892E-1,-6.250433922E-1,-1.997369109E-3
4.021637448E0,2.833600938E-1,-6.442180872E-1,1.185105648E-2
4.024149479E0,3.547327518E-1,-6.644580960E-1,2.463421971E-2
4.026661459E0,4.303664565E-1,-6.857634187E-1,3.954790905E-2
4.029173438E0,5.006738305E-1,-7.102644444E-1,5.020054430E-2
4.031685469E0,5.731117725E-1,-7.294391990E-1,6.085317954E-2
4.034197448E0,6.455497146E-1,-7.464833856E-1,7.257107645E-2
4.036709427E0,7.126613259E-1,-7.667233944E-1,8.322371542E-2
4.039221459E0,7.787076235E-1,-7.869634032E-1,9.387634695E-2
4.041733438E0,8.426234722E-1,-8.008118272E-1,1.034637168E-1
4.044245417E0,9.086697698E-1,-8.114644885E-1,1.109205633E-1
4.046757448E0,9.715203047E-1,-8.199865818E-1,1.162468791E-1
4.049269427E0,1.029044509E0,-8.274434209E-1,1.237037256E-1
4.051781407E0,1.084438324E0,-8.349002600E-1,1.311605722E-1
4.054293386E0,1.131309867E0,-8.402265906E-1,1.311605722E-1
4.056805417E0,1.180312037E0,-8.498139977E-1,1.354216188E-1
4.059317396E0,1.219726682E0,-8.594013453E-1,1.428784728E-1
4.061829375E0,1.248488903E0,-8.657929301E-1,1.450089961E-1
4.064341407E0,1.277251005E0,-8.711192608E-1,1.460742652E-1
4.066853386E0,1.298556209E0,-8.753802776E-1,1.503353119E-1
4.069365365E0,1.318796277E0,-8.764455914E-1,1.492700577E-1
4.071877396E0,1.339036226E0,-8.956202865E-1,1.460742652E-1
4.074389375E0,1.345427871E0,-9.318392873E-1,1.471395195E-1
4.076901354E0,1.333709955E0,-9.659277201E-1,1.503353119E-1
4.079413386E0,1.311339378E0,-1.003211975E0,1.620532125E-1
4.081925365E0,1.274055123E0,-1.046887755E0,1.737711132E-1
4.084437344E0,1.221857309E0,-1.094824553E0,1.780321598E-1
4.086949375E0,1.161137223E0,-1.139565706E0,1.876195371E-1
4.089461354E0,1.091895103E0,-1.181110978E0,1.886848062E-1
4.091973334E0,1.014130831E0,-1.216264606E0,1.812279522E-1
4.094485313E0,9.267792702E-1,-1.252483606E0,1.748363823E-1
4.096997344E0,8.277097344E-1,-1.272723556E0,1.652490050E-1
4.099509323E0,7.211834192E-1,-1.282310963E0,1.492700577E-1
4.102021302E0,6.040044427E-1,-1.279115200E0,1.322258413E-1
4.104533334E0,4.772380590E-1,-1.255679369E0,1.087900400E-1
4.107045313E0,3.419495821E-1,-1.208807826E0,8.322371542E-2
4.109557292E0,1.960084885E-1,-1.144891977E0,5.765738711E-2
4.112069323E0,4.687159508E-2,-1.060736179E0,2.783001028E-2
4.114581302E0,-1.033305600E-1,-9.595361352E-1,-6.258423440E-3
4.117093282E0,-2.577937841E-1,-8.487486839E-1,-4.460791126E-2
4.119605313E0,-4.133222401E-1,-7.283739448E-1,-8.508792520E-2
4.122117292E0,-5.656549335E-1,-6.101296544E-1,-1.298289895E-1
4.124629271E0,-7.137265801E-1,-4.993422627E-1,-1.703090072E-1
4.127141302E0,-8.447539806E-1,-3.949464560E-1,-2.118542790E-1
4.129653282E0,-9.683245420E-1,-2.862895727E-1,-2.491385043E-1
4.132165261E0,-1.072720408E0,-1.829590052E-1,-2.821616828E-1
4.134677292E0,-1.156876206E0,-8.602003008E-2,-3.162501156E-1
4.137189271E0,-1.227183580E0,6.657897029E-3,-3.482080102E-1
4.139701250E0,-1.279381514E0,8.868318796E-2,-3.748396039E-1
4.142213229E0,-1.315600395E0,1.579253227E-1,-4.046669900E-1
4.144725261E0,-1.328383565E0,2.069274336E-1,-4.323638380E-1
4.147237240E0,-1.330514193E0,2.250369191E-1,-4.568648934E-1
4.149749219E0,-1.325187802E0,2.197106034E-1,-4.771049023E-1
4.152261250E0,-1.306013107E0,1.802958548E-1,-4.994754493E-1
4.154773073E0,-1.284707785E0,1.153147742E-1,-5.186501741E-1
4.157284896E0,-1.253815174E0,4.074633121E-2,-5.335638523E-1
4.159796667E0,-1.220792055E0,-4.660527781E-2,-5.506080985E-1
4.162308490E0,-1.184573054E0,-1.318263561E-1,-5.676522851E-1
4.164820261E0,-1.150484562E0,-2.181127071E-1,-5.857617855E-1
4.167332084E0,-1.111069798E0,-3.075948358E-1,-6.038712859E-1
4.169843854E0,-1.073785663E0,-3.960117102E-1,-6.230459809E-1
4.172355677E0,-1.035436153E0,-4.791022837E-1,-6.390249729E-1
4.174867448E0,-9.928256273E-1,-5.430181026E-1,-6.581997275E-1
4.177379219E0,-9.448887706E-1,-5.898897052E-1,-6.752439141E-1
4.179891042E0,-8.916255832E-1,-6.154559851E-1,-6.912228465E-1
4.182402813E0,-8.341013193E-1,-6.250433922E-1,-7.040060163E-1
4.184914636E0,-7.659244537E-1,-6.229128242E-1,-7.114628553E-1
4.187426407E0,-6.934865713E-1,-6.048033834E-1,-7.157239318E-1
4.189938229E0,-6.167875528E-1,-5.813675523E-1,-7.082670927E-1
4.192450000E0,-5.400885940E-1,-5.526054502E-1,-6.922881603E-1
4.194961823E0,-4.612590969E-1,-5.249086022E-1,-6.656565666E-1
4.197473594E0,-3.845601380E-1,-4.972117543E-1,-6.241112947E-1
4.199985417E0,-3.121222258E-1,-4.737759531E-1,-5.708481073E-1
4.202497188E0,-2.386190295E-1,-4.577969909E-1,-5.154544115E-1
4.205008959E0,-1.757684797E-1,-4.482096136E-1,-4.547343552E-1
4.207520782E0,-1.129179299E-1,-4.556664824E-1,-3.908185661E-1
4.210032552E0,-5.858949572E-2,-4.769717455E-1,-3.311637938E-1
4.212544375E0,-8.522108197E-3,-5.014728308E-1,-2.779006362E-1
4.215056146E0,3.621895984E-2,-5.217128396E-1,-2.278332412E-1
4.217567969E0,7.456845045E-2,-5.430181026E-1,-1.894837469E-1
4.220079740E0,1.129179299E-1,-5.632581115E-1,-1.500689983E-1
4.222591563E0,1.470063627E-1,-5.643233657E-1,-1.149153039E-1
4.225103334E0,1.832253337E-1,-5.632581115E-1,-8.189213276E-2
4.227615157E0,2.183790207E-1,-5.632581115E-1,-4.886896536E-2
4.230126927E0,2.567285001E-1,-5.568665266E-1,-2.010684833E-2
4.232638698E0,3.046653569E-1,-5.472791195E-1,6.524738856E-3
4.235150521E0,3.462106586E-1,-5.195822716E-1,2.996053733E-2
4.237662292E0,3.909517229E-1,-4.929507077E-1,5.339633301E-2
4.240174115E0,4.261054099E-1,-4.546011984E-1,7.470160723E-2
4.242685886E0,4.559327960E-1,-4.141211808E-1,8.961529285E-2
4.245197709E0,4.857601523E-1,-3.736411929E-1,1.055942476E-1
4.247709479E0,5.241096616E-1,-3.352916837E-1,1.215732023E-1
4.250221302E0,5.677854419E-1,-3.033337891E-1,1.354216188E-1
4.252733073E0,6.050696969E-1,-2.617885172E-1,1.439437270E-1
4.255244844E0,6.327665448E-1,-2.031990141E-1,1.492700577E-1
4.257756667E0,6.519412994E-1,-1.179779321E-1,1.450089961E-1
4.260268438E0,6.593981385E-1,3.462106455E-3,1.375521570E-1
4.262780261E0,6.476802230E-1,1.589905769E-1,1.247689873E-1
4.265292032E0,6.199833751E-1,3.379548490E-1,1.077247709E-1
4.267803854E0,5.848296881E-1,5.286370516E-1,8.109318465E-2
4.270315625E0,5.507412553E-1,7.193192244E-1,5.126580596E-2
4.272827448E0,5.251749158E-1,8.918918967E-1,1.611211151E-2
4.275339219E0,5.251749158E-1,1.031441450E0,-2.010684833E-2
4.277851042E0,5.581980944E-1,1.106009841E0,-5.313001946E-2
4.280362813E0,6.135917902E-1,1.123054028E0,-7.976160944E-2
4.282874584E0,6.934865713E-1,1.085769892E0,-9.467529505E-2
4.285386407E0,7.819034457E-1,9.930919409E-1,-1.074584574E-1
4.287898177E0,8.809729218E-1,8.684560657E-1,-1.117195114E-1
4.290410000E0,9.779118896E-1,7.267760634E-1,-1.117195114E-1
4.292921771E0,1.059937239E0,5.755085945E-1,-1.074584574E-1
4.295433594E0,1.125983596E0,4.263717234E-1,-1.000016108E-1
4.297945365E0,1.185638309E0,2.804306149E-1,-9.041424096E-2
4.300457188E0,1.231444597E0,1.344895214E-1,-8.402266353E-2
4.302968959E0,1.272989869E0,1.331579406E-3,-8.934897929E-2
4.305480782E0,1.306013107E0,-1.350221485E-1,-9.893634915E-2
4.307992552E0,1.342231989E0,-2.692453563E-1,-1.138500422E-1
4.310504323E0,1.376320481E0,-3.906854093E-1,-1.394163668E-1
4.313016146E0,1.416800499E0,-4.982770085E-1,-1.745700538E-1
4.315527917E0,1.462606788E0,-5.803022981E-1,-2.097237557E-1
4.318039740E0,1.511608958E0,-6.420875788E-1,-2.448774576E-1
4.320551511E0,1.562741637E0,-6.708496809E-1,-2.832269371E-1
4.323063334E0,1.618135333E0,-6.623275876E-1,-3.130543232E-1
4.325575104E0,1.675659537E0,-6.207823157E-1,-3.354248405E-1
4.328086927E0,1.726792216E0,-5.440833569E-1,-3.609911799E-1
4.330598698E0,1.769402742E0,-4.418180585E-1,-3.769701421E-1
4.333110521E0,1.817339540E0,-3.139864206E-1,-3.876227736E-1
4.335622292E0,1.863145947E0,-1.573926806E-1,-3.908185661E-1
4.338134063E0,1.908952236E0,4.527369980E-3,-3.854922354E-1
4.340645886E0,1.967541695E0,1.760347933E-1,-3.695132732E-1
4.343157657E0,2.030392170E0,3.443464339E-1,-3.386206329E-1
4.345669479E0,2.092177629E0,4.988096356E-1,-3.002711535E-1
4.348181250E0,2.152897596E0,6.234454513E-1,-2.544648349E-1
4.350693073E0,2.201899767E0,7.225149870E-1,-1.990711242E-1
4.353204844E0,2.247705936E0,7.928223610E-1,-1.404816210E-1
4.355716667E0,2.286055565E0,8.428897858E-1,-8.082687110E-2
4.358228438E0,2.323339701E0,8.855003119E-1,-2.223737538E-2
4.360740261E0,2.352101803E0,9.110666513E-1,2.996053733E-2
4.363252032E0,2.374472380E0,9.163929224E-1,7.576686889E-2
4.365763802E0,2.384059668E0,9.089360833E-1,1.119858250E-1
4.368275625E0,2.382994413E0,8.833698034E-1,1.418132037E-1
4.370787396E0,2.369146109E0,8.514118791E-1,1.673795283E-1
4.373299219E0,2.342514515E0,8.045402765E-1,1.854890138E-1
4.375810990E0,2.299903870E0,7.544729114E-1,1.961416453E-1
4.378322813E0,2.249836445E0,6.916223168E-1,1.982721686E-1
4.380834584E0,2.196573496E0,6.159886122E-1,1.972069144E-1
4.383346407E0,2.137983799E0,5.467464924E-1,1.886848062E-1
4.385858177E0,2.078329086E0,4.743085802E-1,1.716405898E-1
4.388370000E0,2.021870136E0,3.922832906E-1,1.535311043E-1
4.390881771E0,1.967541695E0,3.017359078E-1,1.354216188E-1
4.393393542E0,1.920670152E0,2.101232260E-1,1.215732023E-1
4.395905365E0,1.881255388E0,1.174453050E-1,1.034637168E-1
4.398417136E0,1.854623795E0,2.583264001E-2,8.215844631E-2
4.400928959E0,1.836514354E0,-5.938844010E-2,7.044055313E-2
4.403440729E0,1.827992201E0,-1.382179409E-1,5.978791416E-2
4.405952552E0,1.829057455E0,-1.989379674E-1,5.446159840E-2
4.408464323E0,1.832253218E0,-2.553969324E-1,5.552686006E-2
4.410976146E0,1.847166896E0,-3.043990433E-1,5.020054430E-2
4.413487917E0,1.867406964E0,-3.352916837E-1,4.700475186E-2
4.415999740E0,1.895103812E0,-3.395527601E-1,4.274369776E-2
4.418511511E0,1.927061677E0,-3.278348446E-1,3.741738200E-2
4.421023282E0,1.953693271E0,-3.278348446E-1,3.209106252E-2
4.423535104E0,1.985651255E0,-3.512706459E-1,2.143842913E-2
4.426046875E0,2.012282848E0,-3.725759089E-1,1.824263856E-2
4.428558698E0,2.038914442E0,-3.576622307E-1,2.356895618E-2
4.431070469E0,2.066611290E0,-3.033337891E-1,3.102580085E-2
4.433582292E0,2.095373392E0,-2.287653387E-1,4.061317071E-2
4.436094063E0,2.119874477E0,-1.467400491E-1,5.233107135E-2
4.438605886E0,2.144375563E0,-5.299685895E-2,6.617949903E-2
4.441117657E0,2.168876648E0,4.820317402E-2,7.576686889E-2
4.443629479E0,2.191246986E0,1.504684687E-1,8.748476952E-2
4.446141250E0,2.214682817E0,2.559295595E-1,9.068055451E-2
4.448653021E0,2.235988140E0,3.496727645E-1,9.068055451E-2
4.451164844E0,2.248771191E0,4.306327701E-1,9.068055451E-2
4.453676615E0,2.260489225E0,4.956138432E-1,8.855003119E-2
4.456188438E0,2.269011259E0,5.382243991E-1,8.855003119E-2
4.458700209E0,2.274337530E0,5.648559928E-1,8.215844631E-2
4.461212032E0,2.275402784E0,5.882917643E-1,7.470160723E-2
4.463723802E0,2.283925056E0,6.074665189E-1,6.831002235E-2
4.466235625E0,2.289251328E0,6.138581038E-1,5.978791416E-2
4.468747396E0,2.283925056E0,6.117275953E-1,5.233107135E-2
4.471259219E0,2.275402784E0,5.978791714E-1,4.593949020E-2
4.473770990E0,2.260489225E0,5.691170096E-1,4.167843610E-2
4.476282761E0,2.241314411E0,5.424854755E-1,4.167843610E-2
4.478794584E0,2.217878580E0,5.190496445E-1,4.807001725E-2
4.481306354E0,2.194442749E0,4.988096356E-1,5.552686006E-2
4.483818177E0,2.165680647E0,4.817654192E-1,6.298370659E-2
4.486329948E0,2.137983799E0,4.689822793E-1,8.215844631E-2
4.488841771E0,2.103895426E0,4.583296180E-1,1.013331935E-1
4.491353542E0,2.065546036E0,4.498075247E-1,1.173121482E-1
4.493865365E0,2.021870136E0,4.412854016E-1,1.386174113E-1
4.496377136E0,1.978194356E0,4.455464780E-1,1.599226892E-1
4.498888959E0,1.939844847E0,4.540685713E-1,1.833584905E-1
4.501400729E0,1.895103812E0,4.700475335E-1,2.067942768E-1
4.503912500E0,1.850362778E0,4.892222881E-1,2.249037623E-1
4.506424323E0,1.818404794E0,5.190496445E-1,2.387521863E-1
4.508936094E0,1.791773200E0,5.446159840E-1,2.504700720E-1
4.511447917E0,1.774729013E0,5.712475777E-1,2.526006103E-1
4.513959688E0,1.767272234E0,5.968139172E-1,2.536658645E-1
4.516471511E0,1.763011098E0,6.372938752E-1,2.568616569E-1
4.518983282E0,1.765141606E0,6.788392067E-1,2.536658645E-1
4.521495104E0,1.777924776E0,7.246454954E-1,2.494048178E-1
4.524006875E0,1.788577437E0,7.917571068E-1,2.621879876E-1
4.526518698E0,1.783251166E0,8.578034639E-1,2.781669497E-1
4.529030469E0,1.769402742E0,9.004139900E-1,2.856237888E-1
4.531542240E0,1.753423810E0,9.163929224E-1,2.941458821E-1
4.534054063E0,1.732118487E0,9.217192531E-1,3.016027212E-1
4.536565834E0,1.711878538E0,9.206539989E-1,3.111900985E-1
4.539077657E0,1.698030114E0,9.142624140E-1,3.154511750E-1
4.541589427E0,1.683116317E0,8.982834816E-1,3.197122216E-1
4.544101250E0,1.672463775E0,8.769782186E-1,3.239732683E-1
4.546613021E0,1.663941622E0,8.482160568E-1,3.197122216E-1
4.549124844E0,1.652223706E0,8.034750223E-1,3.186469376E-1
4.551636615E0,1.640505791E0,7.576686740E-1,3.197122216E-1
4.554148386E0,1.629853249E0,7.150581479E-1,3.218427300E-1
4.556660209E0,1.612808943E0,6.724476218E-1,3.271690607E-1
4.559171979E0,1.594699502E0,6.309023499E-1,3.207774758E-1
4.561683802E0,1.574459434E0,5.904223323E-1,3.165164292E-1
4.564195573E0,1.552088976E0,5.531380773E-1,3.143858910E-1
4.566707396E0,1.526522636E0,5.286370516E-1,3.122553825E-1
4.569219167E0,1.495630026E0,5.126580596E-1,3.122553825E-1
4.571730990E0,1.458345771E0,5.126580596E-1,3.133206367E-1
4.574242761E0,1.422126770E0,5.328980684E-1,3.143858910E-1
4.576754584E0,1.388038397E0,5.488770604E-1,3.165164292E-1
4.579266354E0,1.359276295E0,5.744433403E-1,3.111900985E-1
4.581778125E0,1.333709955E0,6.085317731E-1,2.994722128E-1
4.584289948E0,1.310274124E0,6.330328584E-1,2.973416746E-1
4.586801719E0,1.293229938E0,6.468812823E-1,2.909500897E-1
4.589313542E0,1.269794106E0,6.415549517E-1,2.781669497E-1
4.591825313E0,1.251684666E0,6.277065277E-1,2.664490342E-1
4.594337136E0,1.234640479E0,6.138581038E-1,2.536658645E-1
4.596848907E0,1.215465665E0,6.021401882E-1,2.387521863E-1
4.599360729E0,1.203747749E0,5.861612558E-1,2.280995548E-1
4.601872500E0,1.198421478E0,5.829654932E-1,2.227732390E-1
4.604384323E0,1.194160461E0,5.755085945E-1,2.057290226E-1
4.606896094E0,1.189899325E0,5.701823235E-1,1.918805987E-1
4.609407865E0,1.182442546E0,5.680517554E-1,1.801626980E-1
4.611919688E0,1.178181410E0,5.627254844E-1,1.727058440E-1
4.614431459E0,1.174985647E0,5.637907386E-1,1.609879434E-1
4.616943282E0,1.171789885E0,5.552685857E-1,1.567268968E-1
4.619455052E0,1.166463614E0,5.424854755E-1,1.535311043E-1
4.621966875E0,1.163267732E0,5.222454667E-1,1.567268968E-1
4.624478646E0,1.162202477E0,4.849612117E-1,1.577921659E-1
4.626990469E0,1.165398240E0,4.402201474E-1,1.599226892E-1
4.629502240E0,1.162202477E0,3.986748755E-1,1.684447974E-1
4.632014063E0,1.159006715E0,3.528685570E-1,1.748363823E-1
4.634525834E0,1.166463614E0,3.028011620E-1,1.812279522E-1
4.637037604E0,1.172855139E0,2.559295595E-1,1.886848062E-1
4.639549427E0,1.179246664E0,2.101232260E-1,1.972069144E-1
4.642061198E0,1.189899325E0,1.696432233E-1,2.046637535E-1
4.644573021E0,1.200551987E0,1.366200447E-1,2.195774466E-1
4.647084792E0,1.213335156E0,1.110537201E-1,2.291648090E-1
4.649596615E0,1.229314089E0,9.081371874E-2,2.387521863E-1
4.652108386E0,1.249554157E0,7.376950234E-2,2.547311485E-1
4.654620261E0,1.267663598E0,5.566002056E-2,2.685795724E-1
4.657132240E0,1.288968921E0,4.607264698E-2,2.834932506E-1
4.659644219E0,1.307078362E0,4.713791236E-2,2.952111661E-1
4.662156198E0,1.325187802E0,5.139896646E-2,3.037332594E-1
4.664668177E0,1.340101480E0,6.631265581E-2,3.101248443E-1
4.667180157E0,1.357145786E0,7.376950234E-2,3.261038065E-1
4.669692136E0,1.373124719E0,8.974844962E-2,3.388869464E-1
4.672204115E0,1.381646752E0,1.238368824E-1,3.506048620E-1
4.674716094E0,1.386973143E0,1.568600535E-1,3.644532859E-1
4.677228073E0,1.388038397E0,1.920137554E-1,3.761711717E-1
4.679740052E0,1.385907888E0,2.314285040E-1,3.900195956E-1
4.682252032E0,1.375255227E0,2.793653607E-1,4.006722569E-1
4.684764011E0,1.357145786E0,3.273022175E-1,4.166511893E-1
4.687275990E0,1.333709955E0,3.709780276E-1,4.326301515E-1
4.689787969E0,1.296425700E0,4.093275070E-1,4.422175288E-1
4.692299948E0,1.251684666E0,4.487422705E-1,4.550006688E-1
4.694811927E0,1.196290970E0,4.934833348E-1,4.667185843E-1
4.697323907E0,1.134505630E0,5.328980684E-1,4.773712158E-1
4.699835886E0,1.061002493E0,5.776391625E-1,4.837628007E-1
4.702347865E0,9.885645509E-1,6.138581038E-1,4.922848940E-1
4.704859844E0,9.150613546E-1,6.500770450E-1,4.965459704E-1
4.707371823E0,8.447539806E-1,6.799044609E-1,5.018723011E-1
4.709883802E0,7.787076235E-1,6.969486475E-1,4.997417629E-1
4.712395782E0,7.190528512E-1,7.107970715E-1,5.040028095E-1
4.714907761E0,6.668549776E-1,7.161234021E-1,5.125249028E-1
4.717419740E0,6.210486293E-1,7.171886563E-1,5.135901570E-1
4.719931719E0,5.826991200E-1,7.065360546E-1,5.146554112E-1
4.722443698E0,5.603286028E-1,6.980139017E-1,5.135901570E-1
4.724955677E0,5.454149246E-1,6.799044609E-1,5.135901570E-1
4.727467657E0,5.336970091E-1,6.617949605E-1,5.199817419E-1
4.729979636E0,5.305012465E-1,6.372938752E-1,5.189164877E-1
4.732491615E0,5.379580855E-1,6.095970273E-1,5.178512335E-1
4.735003594E0,5.486106873E-1,5.872265100E-1,5.082638860E-1
4.737515573E0,5.603286028E-1,5.563338995E-1,4.965459704E-1
4.740027552E0,5.805686116E-1,5.286370516E-1,4.805670083E-1
4.742539532E0,6.050696969E-1,5.094622970E-1,4.603269994E-1
4.745051511E0,6.306359768E-1,4.998749197E-1,4.379564524E-1
4.747563490E0,6.508759856E-1,5.030707121E-1,4.113248885E-1
4.750075469E0,6.732465625E-1,5.126580596E-1,3.814975023E-1
4.752587448E0,6.913560033E-1,5.360938907E-1,3.516701162E-1
4.755099427E0,7.030739188E-1,5.733780861E-1,3.218427300E-1
4.757611407E0,7.105307579E-1,6.213149428E-1,2.920153737E-1
4.760123386E0,7.084002495E-1,6.788392067E-1,2.632532418E-1
4.762635365E0,7.020086646E-1,7.438202500E-1,2.398174554E-1
4.765147344E0,6.849644184E-1,8.119971156E-1,2.185121775E-1
4.767659323E0,6.572675705E-1,8.695213795E-1,1.982721686E-1
4.770171302E0,6.231791377E-1,9.238498211E-1,1.844237447E-1
4.772683282E0,5.848296881E-1,9.685908556E-1,1.705753207E-1
4.775195261E0,5.486106873E-1,9.994835258E-1,1.599226892E-1
4.777707240E0,5.091959834E-1,1.019723535E0,1.567268968E-1
4.780219219E0,4.665854275E-1,1.039963484E0,1.482047886E-1
4.782731198E0,4.165180326E-1,1.059138298E0,1.439437270E-1
4.785243177E0,3.557980061E-1,1.077247739E0,1.460742652E-1
4.787755157E0,2.897516787E-1,1.094291925E0,1.471395195E-1
4.790267136E0,2.205095440E-1,1.114531994E0,1.514005810E-1
4.792779115E0,1.406147778E-1,1.131576180E0,1.641837358E-1
4.795291094E0,5.539370328E-2,1.150750875E0,1.737711132E-1
4.797803073E0,-3.941474855E-2,1.161403537E0,1.822932214E-1
4.800315052E0,-1.427453160E-1,1.170990944E0,1.940111220E-1
4.802827032E0,-2.471411377E-1,1.175251961E0,1.982721686E-1
4.805339011E0,-3.568632901E-1,1.172056198E0,1.993374377E-1
4.807850990E0,-4.697812200E-1,1.166729927E0,2.014679611E-1
4.810362969E0,-5.848296881E-1,1.149685621E0,1.918805987E-1
4.812874948E0,-7.041391730E-1,1.134771943E0,1.759016365E-1
4.815386927E0,-8.287750483E-1,1.125184655E0,1.631184816E-1
4.817898907E0,-9.619329572E-1,1.112401485E0,1.492700577E-1
4.820410886E0,-1.099352002E0,1.110270858E0,1.300953031E-1
4.822922865E0,-1.243162513E0,1.126249909E0,1.162468791E-1
4.825434844E0,-1.386973143E0,1.149685621E0,1.066595092E-1
4.827946823E0,-1.529718399E0,1.185904622E0,8.855003119E-2
4.830458802E0,-1.675659537E0,1.224254131E0,7.150581479E-2
4.832970782E0,-1.814143777E0,1.251950979E0,5.765738711E-2
4.835482761E0,-1.947301745E0,1.273256183E0,3.741738200E-2
4.837994740E0,-2.071937561E0,1.279647827E0,1.611211151E-2
4.840506719E0,-2.198704004E0,1.266864657E0,-9.454214014E-3
4.843018698E0,-2.330796480E0,1.232776165E0,-4.247738421E-2
4.845530677E0,-2.454367161E0,1.179513097E0,-7.230476290E-2
4.848042657E0,-2.573676586E0,1.119858265E0,-1.095889881E-1
4.850554636E0,-2.702573538E0,1.066595078E0,-1.564605832E-1
4.853066615E0,-2.831470490E0,1.018658280E0,-1.980058551E-1
4.855578594E0,-2.957171440E0,9.835045338E-1,-2.448774576E-1
4.858090573E0,-3.074350595E0,9.536771774E-1,-2.992058992E-1
4.860602552E0,-3.186203241E0,9.313066602E-1,-3.556648493E-1
4.863114532E0,-3.288468599E0,9.217192531E-1,-4.163848758E-1
4.865626511E0,-3.388603210E0,9.131971598E-1,-4.813659489E-1
4.868138490E0,-3.471693754E0,9.014792442E-1,-5.388901830E-1
4.870650469E0,-3.551588535E0,8.844350576E-1,-5.964143872E-1
4.873162448E0,-3.620830774E0,8.620644808E-1,-6.507428288E-1
4.875674427E0,-3.680485487E0,8.460855484E-1,-6.954839230E-1
4.878186407E0,-3.734813929E0,8.215845227E-1,-7.338334322E-1
4.880698386E0,-3.781685591E0,7.768434286E-1,-7.625955343E-1
4.883210365E0,-3.812578201E0,7.161234021E-1,-7.860313058E-1
4.885722344E0,-3.823230743E0,6.330328584E-1,-7.988144755E-1
4.888234323E0,-3.820034981E0,5.307675600E-1,-8.073365688E-1
4.890746302E0,-3.794468641E0,4.071969688E-1,-8.137281537E-1
4.893258282E0,-3.744401217E0,2.580600977E-1,-8.222503066E-1
4.895770261E0,-3.676224470E0,1.014663503E-1,-8.318376541E-1
4.898282240E0,-3.601655960E0,-3.808316961E-2,-8.350334167E-1
4.900794219E0,-3.522826433E0,-1.360874176E-1,-8.318376541E-1
4.903306198E0,-3.449323177E0,-1.840242743E-1,-8.211849928E-1
4.905818177E0,-3.386472702E0,-1.850895435E-1,-7.945534587E-1
4.908330157E0,-3.334274769E0,-1.563274264E-1,-7.551386952E-1
4.910842136E0,-3.289533854E0,-1.105210930E-1,-7.082670927E-1
4.913354115E0,-3.247988462E0,-5.299685895E-2,-6.518081427E-1
4.915866094E0,-3.216030598E0,-1.864211168E-3,-5.846965313E-1
4.918378073E0,-3.179811716E0,3.328948468E-2,-5.165196657E-1
4.920890052E0,-3.144657850E0,5.033370107E-2,-4.504733086E-1
4.923402032E0,-3.108438969E0,5.246422812E-2,-3.822964430E-1
4.925914011E0,-3.072220087E0,3.115895763E-2,-3.183806241E-1
4.928425990E0,-3.030674696E0,7.723160554E-3,-2.555300891E-1
4.930937969E0,-2.994455814E0,-2.530000918E-2,-1.948100626E-1
4.933449948E0,-2.955040932E0,-7.430212945E-2,-1.415468901E-1
4.935961927E0,-2.915626287E0,-1.254347861E-1,-9.574055672E-2
4.938473907E0,-2.877276897E0,-1.776326895E-1,-6.484791636E-2
4.940985886E0,-2.831470490E0,-2.340916544E-1,-5.099949241E-2
4.943497865E0,-2.776076794E0,-2.735064030E-1,-4.673843831E-2
4.946009844E0,-2.717487335E0,-3.075948358E-1,-6.484791636E-2
4.948521823E0,-2.653571367E0,-3.342264295E-1,-9.574055672E-2
4.951033802E0,-2.593916655E0,-3.384874761E-1,-1.383510977E-1
4.953545782E0,-2.551306248E0,-3.267695904E-1,-1.916142702E-1
4.956057761E0,-2.510826111E0,-2.926811576E-1,-2.533995509E-1
4.958569740E0,-2.477802992E0,-2.351569235E-1,-3.205111623E-1
4.961081719E0,-2.457562923E0,-1.637842655E-1,-3.950796127E-1
4.963593698E0,-2.456497669E0,-9.454213828E-2,-4.717785716E-1
4.966105677E0,-2.475672483E0,-2.956106327E-2,-5.388901830E-1
4.968617657E0,-2.514021873E0,1.411474124E-2,-5.910881162E-1
4.971129636E0,-2.557697773E0,3.648527712E-2,-6.283723116E-1
4.973641615E0,-2.605634689E0,5.246422812E-2,-6.507428288E-1
4.976153594E0,-2.659963131E0,7.696528733E-2,-6.613954902E-1
4.978665573E0,-2.712160826E0,9.720529616E-2,-6.603302360E-1
4.981177552E0,-2.773946285E0,1.174453050E-1,-6.486123204E-1
4.983689532E0,-2.810165167E0,1.312937289E-1,-6.336986423E-1
4.986201511E0,-2.831470490E0,1.302284598E-1,-6.241112947E-1
4.988713490E0,-2.844253540E0,1.089231968E-1,-6.166543961E-1
