"Time (s)","Acceleration x (m/s^2)","Acceleration y (m/s^2)","Acceleration z (m/s^2)"
0.000000000E0,1.055875182E0,9.239506721E0,-2.825244367E-1
2.000000000E-3,1.055875182E0,9.239506721E0,-2.825244367E-1
4.000000000E-3,1.055875182E0,9.239506721E0,-2.825244367E-1
6.000000000E-3,1.055875182E0,9.239506721E0,-2.825244367E-1
8.000000000E-3,-9.385557175E-1,1.017327404E1,1.204320192E0
1.000000000E-2,-1.053480864E0,1.020439911E1,1.304879785E0
1.200000000E-2,-1.132491946E0,1.021158218E1,1.364736676E0
1.399600000E-2,-1.156434774E0,1.022355366E1,1.352765322E0
1.599575000E-2,-1.166011810E0,1.024749660E1,1.333611012E0
1.799552700E-2,-1.161223292E0,1.027143860E1,1.300091267E0
1.999532700E-2,-1.113337755E0,1.030495834E1,1.194743156E0
2.199514500E-2,-9.385557175E-1,1.035523891E1,1.034326673E0
2.399497800E-2,-8.188419938E-1,1.036721039E1,9.409499764E-1
2.599482400E-2,-5.602602959E-1,1.036721039E1,7.110996246E-1
2.799468100E-2,-2.753416002E-1,1.039833546E1,4.285751879E-1
2.999441400E-2,-1.245022863E-1,1.041509533E1,2.825244367E-1
3.199416400E-2,3.280156553E-1,1.051086617E1,-2.226675600E-1
3.399234000E-2,4.620950520E-1,1.053241444E1,-3.950553536E-1
3.599211700E-2,5.842030644E-1,1.055156898E1,-5.530774593E-1
3.799190600E-2,8.427847624E-1,1.060424328E1,-8.523618579E-1
3.999170600E-2,9.553156495E-1,1.062339687E1,-9.912297726E-1
4.199151500E-2,1.106154919E0,1.067367744E1,-1.259388566E0
4.399133300E-2,1.192348838E0,1.065691757E1,-1.479661822E0
4.599107200E-2,1.245022893E0,1.064255142E1,-1.558672905E0
4.799082200E-2,1.331216812E0,1.057072353E1,-1.664021015E0
4.999058200E-2,1.357553840E0,1.044143200E1,-1.690358043E0
5.199035100E-2,1.312062621E0,1.023552513E1,-1.563461423E0
5.398916500E-2,1.312062621E0,1.023552513E1,-1.563461423E0
5.598895000E-2,1.304879785E0,1.018524456E1,-1.491633177E0
5.798874300E-2,1.261782765E0,1.008468533E1,-1.343188167E0
5.998847600E-2,1.175588965E0,9.960183144E0,-1.146857619E0
6.198820900E-2,1.149251938E0,9.917086601E0,-1.048692346E0
6.398794200E-2,1.053480864E0,9.845257759E0,-8.451790214E-1
6.598767500E-2,9.122186899E-1,9.799766541E0,-6.153286099E-1
6.798740800E-2,8.379961848E-1,9.799766541E0,-5.027977228E-1
6.998714100E-2,6.919454336E-1,9.780612946E0,-2.992843390E-1
7.198687400E-2,3.639297783E-1,9.744698524E0,7.901106775E-2
7.398664000E-2,3.639297783E-1,9.744698524E0,7.901106775E-2
7.598637300E-2,1.412622184E-1,9.778218269E0,3.112557232E-1
7.798610600E-2,1.675992459E-2,9.794978142E0,3.878725171E-1
7.998583900E-2,-2.322446555E-1,9.883566856E0,5.530774593E-1
8.198557200E-2,-5.554717779E-1,9.976943016E0,7.589851022E-1
8.398530500E-2,-7.015225291E-1,1.003440571E1,8.810931444E-1
8.598503800E-2,-9.840469360E-1,1.019482231E1,1.063058019E0
8.798477100E-2,-1.302485466E0,1.026186180E1,1.221080184E0
8.998457100E-2,-1.438959122E0,1.037678719E1,1.309668303E0
9.198433700E-2,-1.728666425E0,1.050607777E1,1.525153041E0
9.398413700E-2,-1.798100352E0,1.053002071E1,1.585009933E0
9.598390300E-2,-1.860351562E0,1.054438591E1,1.625712633E0
9.798366900E-2,-1.941756845E0,1.054917526E1,1.666415215E0
9.998343500E-2,-1.934574008E0,1.054678059E1,1.652049661E0
1.019832010E-1,-1.807677507E0,1.055396366E1,1.513181686E0
1.039829670E-1,-1.558672905E0,1.051326084E1,1.249811411E0
1.059828000E-1,-1.379102230E0,1.050368404E1,1.075029373E0
1.079826330E-1,-8.810931444E-1,1.052044392E1,6.680026650E-1
1.099824660E-1,-5.674431324E-1,1.056593513E1,4.333637357E-1
1.119822990E-1,7.015225291E-1,1.101605797E1,-5.746259689E-1
1.139820990E-1,7.015225291E-1,1.101605797E1,-5.746259689E-1
1.159819320E-1,9.984126091E-1,1.119562912E1,-8.068706393E-1
1.179817650E-1,1.412622094E0,1.165054131E1,-1.283331275E0
1.199816650E-1,1.496421814E0,1.215333939E1,-1.738243461E0
1.219815650E-1,1.474873304E0,1.242149734E1,-1.946545362E0
1.239814650E-1,1.264177084E0,1.301288319E1,-2.267378330E0
1.259813650E-1,1.060663700E0,1.328822517E1,-2.415823221E0
1.279812650E-1,5.674431324E-1,1.374074268E1,-2.681587696E0
1.299811650E-1,1.245022863E-1,1.405918121E1,-2.880312681E0
1.319810650E-1,-5.147690773E-1,1.421480942E1,-2.980872154E0
1.339809980E-1,-5.147690773E-1,1.421480942E1,-2.980872154E0
1.359809640E-1,-8.427847624E-1,1.420283794E1,-2.942563772E0
1.379808640E-1,-9.936240315E-1,1.415974140E1,-2.901860952E0
1.399807640E-1,-1.252205729E0,1.403284454E1,-2.818061352E0
1.419806640E-1,-1.415016413E0,1.398495960E1,-2.734261751E0
1.439805640E-1,-1.410227895E0,1.388200569E1,-2.705530643E0
1.459804640E-1,-1.256994247E0,1.386763954E1,-2.695953369E0
1.479803640E-1,-1.204320192E0,1.386285114E1,-2.724684715E0
1.499802640E-1,-1.288119793E0,1.382214832E1,-2.796513081E0
1.519801970E-1,-9.361614585E-1,1.384369659E1,-2.923409462E0
1.539800300E-1,-6.416656375E-1,1.388679409E1,-2.992843628E0
1.559798960E-1,-3.304099143E-1,1.393228531E1,-3.059883118E0
1.579797620E-1,3.232271075E-1,1.402805614E1,-3.189173937E0
1.599796280E-1,6.512427330E-1,1.407833576E1,-3.210722446E0
1.619794940E-1,1.132491946E0,1.412382698E1,-3.177202702E0
1.639793600E-1,1.206714511E0,1.408791256E1,-3.136499882E0
1.659792260E-1,1.259388566E0,1.398017025E1,-2.940169573E0
1.679790920E-1,1.132491946E0,1.379820538E1,-2.588211060E0
1.699788920E-1,1.019961119E0,1.369285774E1,-2.406246185E0
1.719786920E-1,4.094209969E-1,1.324991703E1,-1.865140080E0
1.739785250E-1,4.094209969E-1,1.324991703E1,-1.865140080E0
1.759783250E-1,2.298503816E-1,1.311104870E1,-1.769369125E0
1.779781250E-1,-9.098244458E-2,1.285007286E1,-1.541913033E0
1.799779250E-1,-2.442160249E-1,1.273035908E1,-1.405439258E0
1.819777250E-1,-4.884320498E-1,1.242868042E1,-1.103760719E0
1.839775250E-1,-6.536370516E-1,1.207911682E1,-8.044763207E-1
1.859772580E-1,-7.206767201E-1,1.191391182E1,-6.560313106E-1
1.879769910E-1,-8.691217303E-1,1.158829021E1,-3.567469418E-1
1.899767240E-1,-1.036720991E0,1.135843945E1,-1.436564922E-1
1.919764570E-1,-1.343188167E0,1.108549213E1,1.173194647E-1
1.939761570E-1,-1.343188167E0,1.108549213E1,1.173194647E-1
1.959758900E-1,-1.553884387E0,1.103760719E1,1.723877788E-1
1.979756900E-1,-1.673598051E0,1.102802944E1,1.532335877E-1
1.999754900E-1,-1.908236980E0,1.108788681E1,3.112557158E-2
2.019752230E-1,-2.013585091E0,1.115492630E1,-5.027977005E-2
2.039749560E-1,-2.250618219E0,1.133210278E1,-2.753416002E-1
2.059746890E-1,-2.463708878E0,1.160744381E1,-5.746259689E-1
2.079744220E-1,-2.564268351E0,1.178940868E1,-7.302538157E-1
2.099741550E-1,-2.736656189E0,1.219883060E1,-1.094183564E0
2.119738880E-1,-3.026363373E0,1.296978664E1,-1.721483588E0
2.139737210E-1,-3.026363373E0,1.296978664E1,-1.721483588E0
2.159734540E-1,-3.138894320E0,1.362102985E1,-2.133298874E0
2.179731870E-1,-3.181991339E0,1.393707371E1,-2.343995094E0
2.199729200E-1,-3.261002302E0,1.456676769E1,-2.753416061E0
2.219726530E-1,-3.328042030E0,1.530420494E1,-3.112557173E0
2.239723860E-1,-3.390293121E0,1.568728828E1,-3.256213665E0
2.259721190E-1,-3.531555414E0,1.646782303E1,-3.450150013E0
2.279718520E-1,-3.577046633E0,1.720286369E1,-3.474092722E0
2.299716520E-1,-3.567469358E0,1.754285240E1,-3.447755814E0
2.319713850E-1,-3.466909885E0,1.876393127E1,-3.165231228E0
2.339710850E-1,-3.466909885E0,1.876393127E1,-3.165231228E0
2.359707180E-1,-3.454938650E0,1.900575256E1,-3.074248791E0
2.379704510E-1,-3.366350412E0,1.940320396E1,-2.844398499E0
2.399701840E-1,-3.330436230E0,1.953728294E1,-2.717501879E0
2.419699170E-1,-3.258608103E0,1.966657257E1,-2.427794695E0
2.439696500E-1,-3.186779737E0,1.968333244E1,-2.083019018E0
2.459694500E-1,-3.148471355E0,1.964262962E1,-1.901054144E0
2.479691830E-1,-3.043123245E0,1.939602089E1,-1.489238977E0
2.499689160E-1,-2.889889717E0,1.917814064E1,-1.070240855E0
2.519686490E-1,-2.767781734E0,1.794748306E1,-7.398309112E-1
2.539684150E-1,-2.767781734E0,1.794748306E1,-7.398309112E-1
2.559681480E-1,-2.712713242E0,1.756439972E1,-7.087053657E-1
2.579678810E-1,-2.569056988E0,1.669527817E1,-7.110996246E-1
2.599676140E-1,-2.446948767E0,1.568249989E1,-8.236305118E-1
2.619674140E-1,-2.389486313E0,1.519406796E1,-8.978530765E-1
2.639671470E-1,-2.257801056E0,1.430818653E1,-1.007989645E0
2.659668800E-1,-2.140481710E0,1.349652672E1,-1.012778282E0
2.679666130E-1,-2.066259146E0,1.315653992E1,-9.984126091E-1
2.699663460E-1,-1.845985889E0,1.261064529E1,-8.643332124E-1
2.719660790E-1,-1.549095750E0,1.213179016E1,-5.961744189E-1
2.739657790E-1,-1.549095750E0,1.213179016E1,-5.961744189E-1
2.759647120E-1,-1.479661822E0,1.190672874E1,-3.256213665E-1
2.779645120E-1,-1.438959122E0,1.183968925E1,-1.747820675E-1
2.799642450E-1,-1.300091267E0,1.176546669E1,1.292908341E-1
2.819639780E-1,-1.132491946E0,1.181095791E1,4.189980924E-1
2.839637110E-1,-1.060663700E0,1.187560272E1,5.626545548E-1
2.859634440E-1,-1.043903828E0,1.198334503E1,8.451790214E-1
2.879631770E-1,-1.070240855E0,1.204559612E1,9.912297726E-1
2.899629100E-1,-1.154040456E0,1.216530991E1,1.307274103E0
2.919627100E-1,-1.225868702E0,1.246938324E1,1.608952641E0
2.939625430E-1,-1.209108829E0,1.261782837E1,1.556278586E0
2.959623760E-1,-1.180377483E0,1.277824497E1,1.438959122E0
2.979621090E-1,-1.189954638E0,1.311104870E1,1.101366401E0
2.999618420E-1,-1.218685865E0,1.330259037E1,9.217957854E-1
3.019615750E-1,-1.321639657E0,1.362102985E1,5.578660369E-1
3.039613080E-1,-1.434170604E0,1.373595428E1,1.771763414E-1
3.059610410E-1,-1.455719113E0,1.390115929E1,9.577099234E-3
3.079608410E-1,-1.383890867E0,1.401608467E1,-2.370332032E-1
3.099605740E-1,-1.309668303E0,1.403523922E1,-3.064671755E-1
3.119603070E-1,-8.763045669E-1,1.406157589E1,-4.046324492E-1
3.139600070E-1,-8.763045669E-1,1.406157589E1,-4.046324492E-1
3.159597400E-1,-7.661679387E-1,1.401847935E1,-4.429408312E-1
3.179594730E-1,-6.608198285E-1,1.393467903E1,-5.195576549E-1
3.199587730E-1,-6.895511150E-1,1.378144550E1,-5.578660369E-1
3.219585060E-1,-7.302538157E-1,1.367370319E1,-5.842030644E-1
3.239583060E-1,-8.547561169E-1,1.338160229E1,-6.201171875E-1
3.259580390E-1,-9.289786220E-1,1.319724274E1,-6.464542150E-1
3.279577720E-1,-1.130097747E0,1.280937004E1,-7.278595567E-1
3.299575050E-1,-1.316851139E0,1.239755535E1,-6.967339516E-1
3.319572380E-1,-1.601769805E0,1.166969585E1,-7.470137477E-1
3.339570040E-1,-1.601769805E0,1.166969585E1,-7.470137477E-1
3.359576040E-1,-1.776551962E0,1.108070374E1,-7.901107073E-1
3.379569040E-1,-1.877111435E0,1.080536175E1,-8.164477348E-1
3.399567040E-1,-2.085413456E0,1.028101635E1,-8.547561169E-1
3.419564370E-1,-2.166818619E0,1.003201103E1,-8.427847624E-1
3.439561700E-1,-2.298503876E0,9.550762177E0,-8.212362528E-1
3.459559030E-1,-2.439765930E0,9.067118645E0,-8.020820618E-1
3.479556360E-1,-2.475680113E0,8.813325882E0,-8.308133483E-1
3.499553690E-1,-2.487651587E0,8.310527802E0,-1.012778282E0
3.519551020E-1,-2.382303476E0,7.601822376E0,-1.285725594E0
3.539558680E-1,-2.288926601E0,7.393520832E0,-1.343188167E0
3.559556680E-1,-2.176395893E0,7.197190285E0,-1.407833576E0
3.579554010E-1,-1.893871427E0,7.010436535E0,-1.479661822E0
3.599551340E-1,-1.735849261E0,6.691998005E0,-1.455719113E0
3.619548670E-1,-1.455719113E0,6.442993641E0,-1.350371003E0
3.639546000E-1,-1.326428294E0,6.340039730E0,-1.261782765E0
3.659543330E-1,-1.101366401E0,6.160469055E0,-1.067846537E0
3.679540660E-1,-9.146129489E-1,6.007235527E0,-9.074301720E-1
3.699538660E-1,-8.403904438E-1,5.949772835E0,-8.379961848E-1
3.719536660E-1,-5.746259689E-1,5.652883053E0,-7.829278708E-1
3.739544320E-1,-5.746259689E-1,5.652883053E0,-7.829278708E-1
3.759541650E-1,-5.482889414E-1,5.585843086E0,-7.877163887E-1
3.779538980E-1,-5.171633363E-1,5.442186832E0,-7.637736797E-1
3.799540640E-1,-5.123748183E-1,5.351204395E0,-7.326480746E-1
3.819537970E-1,-4.980091453E-1,5.183605194E0,-6.799740195E-1
3.839535300E-1,-6.081457734E-1,5.185999393E0,-6.296942830E-1
3.859533300E-1,-7.326480746E-1,5.209941864E0,-4.860377908E-1
3.879530630E-1,-9.481328130E-1,5.037554264E0,-2.202732861E-1
3.899527960E-1,-8.475732803E-1,4.783761024E0,-2.801301479E-1
3.919525290E-1,-5.243461728E-1,4.544333458E0,-2.322446555E-1
3.939522620E-1,-5.243461728E-1,4.544333458E0,-2.322446555E-1
3.959519950E-1,-3.998439014E-1,4.491659641E0,-1.580221355E-1
3.979521610E-1,-2.705530524E-1,4.446168423E0,-3.591412306E-2
3.999518940E-1,-2.753416002E-1,4.369551659E0,1.197137404E-2
4.019516940E-1,-2.921015322E-1,4.319271564E0,5.027977005E-2
4.039514270E-1,-3.064671755E-1,4.235472202E0,1.628106833E-1
4.059511600E-1,-2.585816681E-1,4.161249638E0,3.040728867E-1
4.079508930E-1,-2.130904645E-1,4.137306690E0,3.759011328E-1
4.099506260E-1,-1.412622184E-1,4.103786945E0,4.525179267E-1
4.119503590E-1,-2.633702382E-2,4.079844475E0,4.261809289E-1
4.139490250E-1,9.577099234E-3,4.060689926E0,3.687183261E-1
4.159485580E-1,3.591412306E-2,4.043930054E0,2.944957912E-1
4.179483580E-1,4.070267081E-2,4.039141655E0,2.202732861E-1
4.199480910E-1,4.788549617E-2,4.029564381E0,1.077423692E-1
4.219478240E-1,5.985686928E-2,4.010410309E0,-1.436564885E-2
4.239475570E-1,5.506832153E-2,4.005621910E0,-7.422251999E-2
4.259472900E-1,3.351984918E-2,3.940976381E0,-1.867534369E-1
4.279470230E-1,5.506832153E-2,3.897879362E0,-3.567469418E-1
4.299467560E-1,7.901106775E-2,3.881119490E0,-4.381522834E-1
4.319464890E-1,1.173194647E-1,3.806896925E0,-7.422251701E-1
4.339452890E-1,1.436564922E-1,3.780560017E0,-8.547561169E-1
4.359450220E-1,1.723877788E-1,3.759011507E0,-9.577099085E-1
4.379447550E-1,1.628106833E-1,3.670423269E0,-1.010383964E0
4.399444880E-1,1.316851079E-1,3.622537851E0,-9.936240315E-1
4.419442210E-1,7.182824612E-2,3.605777979E0,-9.505270720E-1
4.439439540E-1,5.746259540E-2,3.639297724E0,-9.337671995E-1
4.459436870E-1,6.225114316E-2,3.665634632E0,-9.361614585E-1
4.479434870E-1,8.140534163E-2,3.768588543E0,-9.505270720E-1
4.499432870E-1,1.029538140E-1,3.802108288E0,-9.720755816E-1
4.519430200E-1,1.364736706E-1,3.869148016E0,-1.101366401E0
4.539427200E-1,1.364736706E-1,3.869148016E0,-1.101366401E0
4.559424530E-1,1.508393139E-1,3.864359617E0,-1.120520592E0
4.579421860E-1,1.101366431E-1,3.840416908E0,-1.110943556E0
4.599419190E-1,5.267404765E-2,3.790137053E0,-1.070240855E0
4.619416520E-1,2.394274808E-2,3.754222870E0,-1.053480864E0
4.639414520E-1,-2.394274808E-3,3.677606106E0,-1.055875182E0
4.659412520E-1,-3.830839694E-2,3.658451796E0,-1.029538155E0
4.679409850E-1,-6.943397224E-2,3.632114887E0,-1.000806928E0
4.699407180E-1,-1.173194647E-1,3.636903524E0,-9.313728809E-1
4.719404510E-1,-2.106961906E-1,3.584229469E0,-8.571503758E-1
4.739402170E-1,-2.106961906E-1,3.584229469E0,-8.571503758E-1
4.759401500E-1,-2.394274771E-1,3.548315287E0,-8.212362528E-1
4.779398830E-1,-2.705530524E-1,3.526766777E0,-7.877163887E-1
4.799396830E-1,-3.687183261E-1,3.478881359E0,-7.278595567E-1
4.819394160E-1,-4.812492430E-1,3.399870157E0,-6.536370516E-1
4.839391490E-1,-5.411061049E-1,3.347196102E0,-6.201171875E-1
4.859388820E-1,-6.680026650E-1,3.272973776E0,-5.554717779E-1
4.879386150E-1,-7.422251701E-1,3.234665155E0,-5.171633363E-1
4.899383480E-1,-8.834874034E-1,3.177202702E0,-4.189980924E-1
4.919380810E-1,-1.051086664E0,3.129317284E0,-2.681587934E-1
4.939377810E-1,-1.115732074E0,3.119740009E0,-2.106961906E-1
4.959375810E-1,-1.192348838E0,3.105374336E0,-1.723877788E-1
4.979373470E-1,-1.321639657E0,3.069460392E0,-7.661679387E-2
4.999371130E-1,-1.383890867E0,3.064671755E0,-4.788549617E-3
5.019368790E-1,-1.517970204E0,3.038334846E0,1.412622184E-1
5.039366450E-1,-1.549095750E0,3.031152010E0,2.083019018E-1
5.059364110E-1,-1.589798450E0,3.028757572E0,3.375927508E-1
5.079361770E-1,-1.687963724E0,3.047911882E0,5.027977228E-1
5.099359430E-1,-1.747820616E0,3.043123245E0,6.009629965E-1
5.119357760E-1,-1.872322917E0,3.069460392E0,9.696813226E-1
5.139355760E-1,-1.872322917E0,3.069460392E0,9.696813226E-1
5.159353420E-1,-1.881899953E0,3.076643229E0,1.067846537E0
5.179351080E-1,-1.889082789E0,3.112557173E0,1.256994247E0
5.199348740E-1,-1.889082789E0,3.119740009E0,1.482056141E0
5.219346400E-1,-1.886688590E0,3.126922846E0,1.594586968E0
5.239344060E-1,-1.862745762E0,3.177202702E0,1.807677507E0
5.259341720E-1,-1.843591571E0,3.217905283E0,1.922602654E0
5.279340050E-1,-1.810071707E0,3.289733648E0,2.133298874E0
5.299337710E-1,-1.769369125E0,3.390293121E0,2.348783493E0
5.319335370E-1,-1.702329397E0,3.533949614E0,2.652856588E0
5.339332700E-1,-1.702329397E0,3.533949614E0,2.652856588E0
5.359330360E-1,-1.640078187E0,3.632114887E0,2.856369734E0
5.379328020E-1,-1.613741279E0,3.677606106E0,2.964112282E0
5.399325680E-1,-1.570644259E0,3.787742853E0,3.158048391E0
5.419324010E-1,-1.541913033E0,3.838022470E0,3.246636629E0
5.439322340E-1,-1.522758722E0,3.931399345E0,3.407052994E0
5.459320000E-1,-1.467690468E0,4.015198708E0,3.603383541E0
5.479317660E-1,-1.441353440E0,4.058295727E0,3.699154615E0
5.499315320E-1,-1.364736676E0,4.158855438E0,3.900273561E0
5.519312980E-1,-1.266571403E0,4.355185986E0,4.137306690E0
5.539310980E-1,-1.216291547E0,4.450956821E0,4.213923454E0
5.559308640E-1,-1.156434774E0,4.546727657E0,4.290540695E0
5.579306640E-1,-1.087000728E0,4.654470444E0,4.355185986E0
5.599303970E-1,-9.553156495E-1,4.879531860E0,4.441379547E0
5.619301300E-1,-8.379961848E-1,5.111776829E0,4.517996788E0
5.639298630E-1,-7.565908432E-1,5.255433083E0,4.563488007E0
5.659295960E-1,-5.698373914E-1,5.547534943E0,4.640104771E0
5.679293290E-1,-3.782954216E-1,5.865973473E0,4.726298332E0
5.699290620E-1,-2.849186957E-1,6.045543671E0,4.776578426E0
5.719287950E-1,0.000000000E0,6.658478260E0,4.953754425E0
5.739285610E-1,1.077423692E-1,6.897905827E0,5.011217117E0
5.759282940E-1,2.466102988E-1,7.156487465E0,5.073468208E0
5.779280270E-1,5.578660369E-1,7.743084908E0,5.226701736E0
5.799277600E-1,7.302538157E-1,8.054340363E0,5.305713177E0
5.819274930E-1,1.055875182E0,8.741497040E0,5.451763630E0
5.839272260E-1,1.285725594E0,9.469356537E0,5.628940105E0
5.859269590E-1,1.393467903E0,9.852440834E0,5.727105141E0
5.879266920E-1,1.613741279E0,1.071677399E1,5.985687256E0
5.899264920E-1,1.711906433E0,1.160026169E1,6.239480019E0
5.919262250E-1,1.795706153E0,1.301527786E1,6.658478260E0
5.939259580E-1,1.795706153E0,1.301527786E1,6.658478260E0
5.959253580E-1,1.802888989E0,1.352525806E1,6.768614769E0
5.979250910E-1,1.750214934E0,1.454282475E1,6.931425571E0
5.999248240E-1,1.707117915E0,1.571601963E1,7.065505028E0
6.019245570E-1,1.678386688E0,1.636008072E1,7.139727592E0
6.039242900E-1,1.541913033E0,1.768650818E1,7.261835575E0
6.059240900E-1,1.261782765E0,1.901054192E1,7.496474266E0
6.079238230E-1,1.120520592E0,1.967136192E1,7.647313595E0
6.099235560E-1,8.451790214E-1,2.100018501E1,8.066311836E0
6.119232890E-1,1.939362586E-1,2.275518799E1,8.791776657E0
6.139229890E-1,1.939362586E-1,2.275518799E1,8.791776657E0
6.159227220E-1,-3.423812985E-1,2.364825249E1,9.316123009E0
6.179224550E-1,-6.225114465E-1,2.401936531E1,9.536396980E0
6.199222550E-1,-1.142069101E0,2.459638596E1,9.787795067E0
6.219220550E-1,-1.479661822E0,2.476877213E1,9.799766541E0
6.239217880E-1,-1.580221415E0,2.472328186E1,9.759063721E0
6.259215210E-1,-1.726272106E0,2.441202545E1,9.574705124E0
6.279212540E-1,-1.795706153E0,2.410795212E1,9.289786339E0
6.299209870E-1,-1.802888989E0,2.318615723E1,9.117398262E0
6.319202870E-1,-1.881899953E0,2.126594925E1,8.643332481E0
6.339205200E-1,-1.948939681E0,2.054048347E1,8.526012421E0
6.359203200E-1,-2.011190891E0,1.978389359E1,8.451789856E0
6.379200530E-1,-2.176395893E0,1.828507614E1,8.408693314E0
6.399197860E-1,-2.276955366E0,1.753327370E1,8.423058510E0
6.419195190E-1,-2.521171331E0,1.606797791E1,8.528407097E0
6.439192520E-1,-2.734261751E0,1.472239590E1,8.662486076E0
6.459189850E-1,-2.837215662E0,1.407115269E1,8.743891716E0
6.479187180E-1,-3.050306082E0,1.288359261E1,8.885153770E0
6.499184510E-1,-3.124528646E0,1.234488106E1,8.930644989E0
6.519182510E-1,-3.296916485E0,1.049889469E1,8.894730568E0
6.539179840E-1,-3.296916485E0,1.049889469E1,8.894730568E0
6.559176170E-1,-3.347196102E0,1.012059975E1,8.834874153E0
6.579173500E-1,-3.454938650E0,9.428654671E0,8.667274475E0
6.599170830E-1,-3.653663397E0,8.873182297E0,8.447001457E0
6.619168160E-1,-3.821262598E0,8.640937805E0,8.334470749E0
6.639165490E-1,-4.156461239E0,8.327287674E0,8.102226257E0
6.659162820E-1,-4.321666241E0,8.272219658E0,8.008849144E0
6.679160820E-1,-4.546727657E0,8.506858826E0,7.960963726E0
6.699158150E-1,-4.391099930E0,9.165284157E0,8.073494911E0
6.719155480E-1,-3.289733648E0,1.097535610E1,8.308133125E0
6.739153140E-1,-3.289733648E0,1.097535610E1,8.308133125E0
6.759146140E-1,-2.205127001E0,1.252923965E1,8.367990494E0
6.779143470E-1,-1.666415215E0,1.336005306E1,8.358413696E0
6.799140800E-1,-5.937801600E-1,1.521322250E1,8.078283310E0
6.819138130E-1,2.298503816E-1,1.615656662E1,7.762238979E0
6.839136130E-1,5.315290093E-1,1.796424294E1,6.706363678E0
6.859133460E-1,8.930644989E-1,1.968812180E1,4.927417755E0
6.879130790E-1,9.768640995E-1,2.051654053E1,3.864359617E0
6.899128120E-1,1.089395046E0,2.213507080E1,1.429382086E0
6.919129780E-1,9.361614585E-1,2.385176659E1,-2.214704275E0
6.939122110E-1,8.427847624E-1,2.385176659E1,-3.222693920E0
6.959119440E-1,7.206767201E-1,2.456525993E1,-4.122941017E0
6.979117440E-1,4.213923812E-1,2.497946930E1,-5.559505939E0
6.999115440E-1,2.729473412E-1,2.512552071E1,-6.076669693E0
7.019112770E-1,-7.422251999E-2,2.537212944E1,-6.651295185E0
7.039110100E-1,-2.657645047E-1,2.546071815E1,-6.703969479E0
7.059107430E-1,-6.943396926E-1,2.556846046E1,-6.392713547E0
7.079104760E-1,-1.209108829E0,2.540564919E1,-5.461340904E0
7.099102090E-1,-1.482056141E0,2.518777084E1,-4.862771988E0
7.119099420E-1,-2.444554567E0,2.341600800E1,-2.185972929E0
7.139097750E-1,-2.444554567E0,2.341600800E1,-2.185972929E0
7.159100080E-1,-2.681587696E0,2.264505196E1,-1.618529797E0
7.179097410E-1,-3.050306082E0,2.052611732E1,-1.055875182E0
7.199094740E-1,-3.131711483E0,1.919968987E1,-9.648927450E-1
7.219092070E-1,-2.966506481E0,1.617572021E1,-1.185166001E0
7.239089400E-1,-2.523565531E0,1.275430202E1,-1.774157643E0
7.259086730E-1,-2.363149166E0,1.095141315E1,-2.037527800E0
7.279084060E-1,-2.200338602E0,7.419857502E0,-2.521171331E0
7.299082060E-1,-2.075836182E0,4.240260601E0,-2.863552570E0
7.319079390E-1,-1.927391171E0,3.160442710E-1,-3.110162973E0
7.339076390E-1,-1.927391171E0,3.160442710E-1,-3.110162973E0
7.359078050E-1,-2.001613855E0,-7.661679387E-1,-3.138894320E0
7.379075380E-1,-2.061470509E0,-2.557085514E0,-3.069460392E0
7.399075710E-1,-2.241041183E0,-3.936187744E0,-2.899466753E0
7.419073040E-1,-2.315263748E0,-4.450956821E0,-2.798907280E0
7.439070370E-1,-2.324840784E0,-5.114171028E0,-2.619336605E0
7.459068370E-1,-2.090201855E0,-5.320078850E0,-2.442160368E0
7.479065700E-1,-1.908236980E0,-5.288952827E0,-2.315263748E0
7.499063030E-1,-1.498816013E0,-4.893897533E0,-2.025556564E0
7.519060360E-1,-1.070240855E0,-3.921822071E0,-1.510787368E0
7.539058020E-1,-1.098972082E0,-3.921822071E0,-1.338399649E0
7.559055350E-1,-1.185166001E0,-3.378321648E0,-1.154040456E0
7.579052680E-1,-1.328822494E0,-3.184385538E0,-9.912297726E-1
7.599050010E-1,-1.668809533E0,-2.961717844E0,-8.308133483E-1
7.619048010E-1,-1.972882390E0,-2.904255390E0,-8.786988258E-1
7.639045340E-1,-2.166818619E0,-2.897072554E0,-9.744698405E-1
7.659042670E-1,-2.583422422E0,-2.865947008E0,-1.254600048E0
7.679040000E-1,-2.887495518E0,-2.731867552E0,-1.606558442E0
7.699037330E-1,-2.959323645E0,-2.583422422E0,-1.802888989E0
7.719034660E-1,-2.633702278E0,-1.371919513E0,-2.581028223E0
7.739031660E-1,-2.633702278E0,-1.371919513E0,-2.581028223E0
7.759028990E-1,-2.497228622E0,-9.433442950E-1,-2.786935806E0
7.779026990E-1,-2.233858347E0,-1.675992459E-2,-3.203539610E0
7.799024320E-1,-2.102173328E0,4.836435020E-1,-3.399870157E0
7.819021650E-1,-1.800494671E0,1.525153041E0,-3.782954216E0
7.839018980E-1,-1.484450340E0,2.667222023E0,-4.187586784E0
7.859016310E-1,-1.340793848E0,3.234665155E0,-4.441379547E0
7.879013640E-1,-9.936240315E-1,4.369551659E0,-4.934600353E0
7.899010970E-1,-5.626545548E-1,4.901080608E0,-5.164450645E0
7.919008970E-1,1.652049571E-1,7.178035736E0,-5.856396198E0
7.939007300E-1,1.652049571E-1,7.178035736E0,-5.856396198E0
7.959004630E-1,3.950553536E-1,7.764633179E0,-5.992869854E0
7.979001960E-1,8.236305118E-1,9.024022102E0,-6.251451492E0
7.998996290E-1,1.161223292E0,1.039115238E1,-6.222720146E0
8.018993620E-1,1.304879785E0,1.111901188E1,-6.052726746E0
8.038990950E-1,1.568249941E0,1.257473087E1,-5.497254848E0
8.058988280E-1,1.810071707E0,1.397059345E1,-4.972908974E0
8.078986280E-1,1.913025618E0,1.467211628E1,-4.738269806E0
8.098983610E-1,2.135693073E0,1.615656662E1,-4.355185986E0
8.118980940E-1,2.396669149E0,1.826831627E1,-3.538738251E0
8.138977940E-1,2.396669149E0,1.826831627E1,-3.538738251E0
8.158975270E-1,2.621730804E0,1.939602089E1,-2.988054991E0
8.178972600E-1,2.705530643E0,1.985811615E1,-2.695953369E0
8.198969930E-1,2.806090117E0,2.051414680E1,-2.032739401E0
8.218967260E-1,2.798907280E0,2.096426964E1,-1.297696948E0
8.238965260E-1,2.774964571E0,2.113665771E1,-9.098244309E-1
8.258962590E-1,2.633702278E0,2.130904579E1,-2.873129845E-1
8.278959920E-1,2.487651587E0,2.125158310E1,0.000000000E0
8.298957250E-1,2.152452946E0,2.100018501E1,4.908263385E-1
8.318954580E-1,1.687963724E0,1.996585846E1,9.553156495E-1
8.338952240E-1,1.589798450E0,1.951573372E1,1.053480864E0
8.358949570E-1,1.522758722E0,1.901054192E1,1.122914910E0
8.378946900E-1,1.405439258E0,1.782298088E1,1.211503029E0
8.398944900E-1,1.393467903E0,1.715019035E1,1.252205729E0
8.418942230E-1,1.448536277E0,1.571841431E1,1.312062621E0
8.438939560E-1,1.589798450E0,1.502646828E1,1.345582485E0
8.458936890E-1,1.642472506E0,1.366412640E1,1.371919513E0
8.478924890E-1,1.714300752E0,1.230896664E1,1.383890867E0
8.498922220E-1,1.723877907E0,1.167687798E1,1.405439258E0
8.518919550E-1,1.604164124E0,9.636956215E0,1.443747759E0
8.538916550E-1,1.604164124E0,9.636956215E0,1.443747759E0
8.558914550E-1,1.498816013E0,9.256266594E0,1.429382086E0
8.578911880E-1,1.245022893E0,8.638543129E0,1.312062621E0
8.598909210E-1,9.672870040E-1,8.209968567E0,1.158828974E0
8.618906540E-1,8.116591573E-1,8.051946640E0,1.072635174E0
8.638903870E-1,4.932205975E-1,7.790970325E0,8.643332124E-1
8.658901200E-1,3.256213665E-1,7.673650742E0,7.757450342E-1
8.678898530E-1,5.985686928E-2,7.472531796E0,6.225114465E-1
8.698896530E-1,-2.226675600E-1,7.312115192E0,4.597007632E-1
8.718894530E-1,-5.315290093E-1,7.070293427E0,1.747820675E-1
8.738892190E-1,-5.315290093E-1,7.070293427E0,1.747820675E-1
8.758889520E-1,-7.254652381E-1,6.941002846E0,-1.675992459E-2
8.778886850E-1,-7.901107073E-1,6.905088425E0,-1.245022863E-1
8.798884180E-1,-8.571503758E-1,6.845231533E0,-3.543526828E-1
8.818881510E-1,-8.763045669E-1,6.794951916E0,-5.051919818E-1
8.838878840E-1,-9.050358534E-1,6.706363678E0,-7.565908432E-1
8.858876840E-1,-8.619389534E-1,6.646506786E0,-9.146129489E-1
8.878874170E-1,-8.212362528E-1,6.627352715E0,-1.015172482E0
8.898871500E-1,-7.518022656E-1,6.622564316E0,-1.211503029E0
8.918868830E-1,-7.110996246E-1,6.644112587E0,-1.472478986E0
8.938865830E-1,-7.110996246E-1,6.644112587E0,-1.472478986E0
8.958863160E-1,-6.895511150E-1,6.677632332E0,-1.587404251E0
8.978860490E-1,-5.865973234E-1,6.730306625E0,-1.671203852E0
8.998857820E-1,-4.980091453E-1,6.866780281E0,-1.970488191E0
9.018855820E-1,-3.136500120E-1,6.998465061E0,-2.355966330E0
9.038853480E-1,-2.537931204E-1,7.048745155E0,-2.482862949E0
9.058851140E-1,-2.059076279E-1,7.185218811E0,-2.621730804E0
9.078858140E-1,-1.508393139E-1,7.316903591E0,-2.643279314E0
9.098855800E-1,-1.221080124E-1,7.393520832E0,-2.640885115E0
9.118853460E-1,-5.746259540E-2,7.865192890E0,-2.379909277E0
9.138851460E-1,-5.746259540E-2,7.865192890E0,-2.379909277E0
9.158849120E-1,-4.788549617E-2,8.001666069E0,-2.298503876E0
9.178847450E-1,-3.112557158E-2,8.360807419E0,-2.164424419E0
9.198845110E-1,-9.577099234E-3,8.526012421E0,-2.099778891E0
9.218842770E-1,3.351984918E-2,8.851634026E0,-1.891477108E0
9.238840430E-1,1.245022863E-1,9.177255630E0,-1.582615614E0
9.258838090E-1,2.035133541E-1,9.342460632E0,-1.431776285E0
9.278835750E-1,3.950553536E-1,9.608224869E0,-1.132491946E0
9.298833410E-1,6.177229285E-1,9.866806030E0,-8.715160489E-1
9.318831070E-1,7.733507752E-1,1.012059975E1,-4.740664065E-1
9.338829070E-1,7.733507752E-1,1.012059975E1,-4.740664065E-1
9.358826730E-1,7.733507752E-1,1.015651417E1,-3.232271075E-1
9.378824390E-1,7.302538157E-1,1.020918751E1,-5.267404765E-2
9.398822050E-1,7.182824612E-1,1.020918751E1,1.508393139E-1
9.418819710E-1,6.991282701E-1,1.018763924E1,2.490045726E-1
9.438817370E-1,6.847625971E-1,1.012538815E1,4.597007632E-1
9.458815030E-1,6.871568561E-1,1.001525116E1,6.703969240E-1
9.478813360E-1,6.967339516E-1,9.960183144E0,7.877163887E-1
9.498811690E-1,7.565908432E-1,9.871595383E0,1.000806928E0
9.518809350E-1,7.518022656E-1,9.766246796E0,1.228263021E0
9.538807350E-1,7.398309112E-1,9.723150253E0,1.280937076E0
9.558809350E-1,7.230709791E-1,9.687235832E0,1.314456820E0
9.578807010E-1,6.991282701E-1,9.636956215E0,1.347976685E0
9.598804670E-1,6.320885420E-1,9.541185379E0,1.374313712E0
9.618802330E-1,5.099805593E-1,9.478934288E0,1.307274103E0
9.638800330E-1,4.405465722E-1,9.440625191E0,1.256994247E0
9.658798330E-1,2.705530524E-1,9.385557175E0,1.144463301E0
9.678795660E-1,6.225114316E-2,9.347249031E0,9.720755816E-1
9.698792990E-1,-3.112557158E-2,9.332882881E0,8.643332124E-1
9.718790320E-1,-2.561874092E-1,9.304151535E0,6.320885420E-1
9.738787320E-1,-3.208328187E-1,9.299363136E0,5.818088055E-1
9.758784650E-1,-3.735068738E-1,9.306546211E0,5.339232683E-1
9.778781980E-1,-4.740664065E-1,9.320911407E0,4.573064744E-1
9.798779980E-1,-5.147690773E-1,9.313729286E0,4.261809289E-1
9.818777310E-1,-5.913859010E-1,9.258660316E0,3.663240373E-1
9.838774640E-1,-6.943396926E-1,9.189227104E0,3.040728867E-1
9.858771970E-1,-7.374366522E-1,9.146129608E0,2.633702159E-1
9.878769300E-1,-7.877163887E-1,9.062330246E0,1.915419847E-1
9.898766630E-1,-8.284190893E-1,9.040781975E0,1.460507661E-1
9.918763960E-1,-8.786988258E-1,8.911490440E0,-4.070267081E-2
9.938761620E-1,-8.786988258E-1,8.911490440E0,-4.070267081E-2
9.958759620E-1,-8.451790214E-1,8.897125244E0,-1.029538140E-1
9.978756950E-1,-7.733507752E-1,8.870788574E0,-2.106961906E-1
9.998754280E-1,-7.063110471E-1,8.868393898E0,-2.944957912E-1
1.001875161E0,-7.039167881E-1,8.851634026E0,-3.639297783E-1
1.003874894E0,-7.661679387E-1,8.772623062E0,-5.075862408E-1
1.005874627E0,-7.877163887E-1,8.734314919E0,-5.530774593E-1
1.007874360E0,-7.829278708E-1,8.660092354E0,-6.440598965E-1
1.009874093E0,-7.877163887E-1,8.621783257E0,-7.158881426E-1
1.011873893E0,-7.877163887E-1,8.549955368E0,-8.427847624E-1
1.013873593E0,-7.877163887E-1,8.549955368E0,-8.427847624E-1
1.015872893E0,-7.733507752E-1,8.487704277E0,-9.433442950E-1
1.017872626E0,-7.565908432E-1,8.458972931E0,-1.000806928E0
1.019872359E0,-7.039167881E-1,8.420664787E0,-1.101366401E0
1.021872092E0,-6.871568561E-1,8.384750366E0,-1.218685865E0
1.023871825E0,-6.799740195E-1,8.377567291E0,-1.278542757E0
1.025871558E0,-6.775797606E-1,8.365595818E0,-1.376708031E0
1.027871358E0,-6.847625971E-1,8.370385170E0,-1.410227895E0
1.029871091E0,-6.991282701E-1,8.384750366E0,-1.467690468E0
1.031870824E0,-7.398309112E-1,8.408693314E0,-1.517970204E0
1.033870590E0,-7.541965842E-1,8.420664787E0,-1.529941559E0
1.035870323E0,-7.613793612E-1,8.430241585E0,-1.544307232E0
1.037870056E0,-7.709565163E-1,8.487704277E0,-1.534730196E0
1.039869789E0,-7.925049663E-1,8.499675751E0,-1.522758722E0
1.041869589E0,-8.403904438E-1,8.523618698E0,-1.508393168E0
1.043869389E0,-8.571503758E-1,8.545166969E0,-1.496421814E0
1.045869122E0,-8.571503758E-1,8.554743767E0,-1.453324795E0
1.047868855E0,-8.810931444E-1,8.593051910E0,-1.429382086E0
1.049868588E0,-8.906702399E-1,8.626572609E0,-1.407833576E0
1.051868321E0,-7.637736797E-1,8.736708641E0,-1.276148438E0
1.053868021E0,-7.637736797E-1,8.736708641E0,-1.276148438E0
1.055867754E0,-7.446194887E-1,8.755863190E0,-1.235445857E0
1.057867554E0,-7.518022656E-1,8.753468513E0,-1.146857619E0
1.059868454E0,-7.087053657E-1,8.772623062E0,-1.048692346E0
1.061868187E0,-6.656084061E-1,8.813325882E0,-9.960182905E-1
1.063867920E0,-5.626545548E-1,8.825297356E0,-8.739103079E-1
1.065867653E0,-5.075862408E-1,8.830085754E0,-8.188419938E-1
1.067867386E0,-4.285751879E-1,8.844450951E0,-7.039167881E-1
1.069867119E0,-3.375927508E-1,8.865999222E0,-6.033572555E-1
1.071866852E0,-2.059076279E-1,8.873182297E0,-4.740664065E-1
1.073866685E0,-2.059076279E-1,8.873182297E0,-4.740664065E-1
1.075866451E0,-1.053480953E-1,8.899519920E0,-4.405465722E-1
1.077866184E0,-5.267404765E-2,8.909096718E0,-4.261809289E-1
1.079865917E0,2.394274808E-3,8.925856590E0,-4.237866402E-1
1.081865650E0,2.633702382E-2,8.925856590E0,-4.285751879E-1
1.083865383E0,3.351984918E-2,8.911490440E0,-4.549122155E-1
1.085865116E0,4.788549617E-2,8.921068192E0,-5.075862408E-1
1.087864849E0,5.985686928E-2,8.930644989E0,-5.363175869E-1
1.089864649E0,7.661679387E-2,8.909096718E0,-5.937801600E-1
1.091864382E0,5.746259540E-2,8.880365372E0,-6.632141471E-1
1.093864082E0,5.746259540E-2,8.880365372E0,-6.632141471E-1
1.095863815E0,4.788549617E-2,8.904308319E0,-6.967339516E-1
1.097863548E0,5.027977005E-2,8.911490440E0,-7.158881426E-1
1.099863281E0,2.633702382E-2,8.911490440E0,-7.398309112E-1
1.101863014E0,-3.830839694E-2,8.937828064E0,-7.254652381E-1
1.103862747E0,-7.901106775E-2,8.959376335E0,-7.110996246E-1
1.105862547E0,-1.723877788E-1,9.038387299E0,-6.775797606E-1
1.107862280E0,-2.322446555E-1,9.158101082E0,-5.961744189E-1
1.109862013E0,-2.561874092E-1,9.234718323E0,-5.530774593E-1
1.111861746E0,-5.004034638E-1,9.454991341E0,-2.944957912E-1
1.113861512E0,-5.004034638E-1,9.526819229E0,-2.944957912E-1
1.115861245E0,-5.554717779E-1,9.608224869E0,-1.987248063E-1
1.117860978E0,-6.871568561E-1,9.763853073E0,-4.309694469E-2
1.119859544E0,-7.637736797E-1,9.818921089E0,4.070267081E-2
1.121859344E0,-9.146129489E-1,9.924268723E0,2.322446555E-1
1.123859077E0,-9.864411950E-1,9.988914490E0,4.285751879E-1
1.125858810E0,-1.019961119E0,1.002004051E1,5.219519138E-1
1.127858543E0,-1.103760719E0,1.002243423E1,7.039167881E-1
1.129858276E0,-1.166011810E0,9.988914490E0,8.643332124E-1
1.131858009E0,-1.108549237E0,9.926663399E0,1.065452337E0
1.133857709E0,-1.108549237E0,9.926663399E0,1.065452337E0
1.135858275E0,-1.034326673E0,9.936240196E0,1.098972082E0
1.137858008E0,-8.356019258E-1,9.955394745E0,1.144463301E0
1.139857741E0,-5.961744189E-1,9.988914490E0,1.127703428E0
1.141857474E0,-4.501236677E-1,1.002243423E1,1.087000728E0
1.143857207E0,-1.604164094E-1,1.009186840E1,9.601042271E-1
1.145856940E0,1.412622184E-1,1.017087936E1,7.901107073E-1
1.147856673E0,3.136500120E-1,1.022594738E1,6.919454336E-1
1.149856406E0,7.087053657E-1,1.034326744E1,4.357580245E-1
1.151856206E0,1.254600048E0,1.050368404E1,-2.633702382E-2
1.153856006E0,1.254600048E0,1.050368404E1,-2.633702382E-2
1.155856672E0,1.601769805E0,1.057311726E1,-3.639297783E-1
1.157856438E0,1.769369125E0,1.059706020E1,-5.075862408E-1
1.159856204E0,2.087807655E0,1.065691757E1,-7.661679387E-1
1.161855970E0,2.367937803E0,1.073592854E1,-1.039115310E0
1.163856203E0,2.473285913E0,1.076944828E1,-1.158828974E0
1.165855969E0,2.657644987E0,1.080296803E1,-1.336005330E0
1.167855802E0,2.767781734E0,1.081733322E1,-1.400650740E0
1.169855602E0,2.794118643E0,1.082691097E1,-1.479661822E0
1.171855402E0,2.789330244E0,1.082212257E1,-1.450930476E0
1.173855168E0,2.765387297E0,1.081493950E1,-1.410227895E0
1.175854601E0,2.710319042E0,1.080057335E1,-1.362342358E0
1.177854401E0,2.542719841E0,1.075268841E1,-1.252205729E0
1.179854267E0,2.454131603E0,1.071916866E1,-1.209108829E0
1.181854067E0,2.281744003E0,1.067128277E1,-1.067846537E0
1.183853933E0,2.056682110E0,1.068085957E1,-9.194015265E-1
1.185853799E0,1.932179809E0,1.068564892E1,-8.451790214E-1
1.187853665E0,1.616135478E0,1.070719719E1,-7.063110471E-1
1.189853531E0,1.450930476E0,1.074790001E1,-6.488484740E-1
1.191853397E0,7.565908432E-1,1.083409309E1,-3.711125851E-1
1.193853297E0,7.565908432E-1,1.083409309E1,-3.711125851E-1
1.195852363E0,5.506832004E-1,1.086521912E1,-2.825244367E-1
1.197852296E0,2.011190802E-1,1.094183540E1,-9.816526622E-2
1.199852229E0,-7.182824612E-2,1.104718399E1,5.985686928E-2
1.201852095E0,-2.011190802E-1,1.110704041E1,1.436564922E-1
1.203851961E0,-5.243461728E-1,1.121478367E1,3.543526828E-1
1.205851827E0,-6.991282701E-1,1.125309181E1,4.620950520E-1
1.207851693E0,-9.840469360E-1,1.133689117E1,7.039167881E-1
1.209851559E0,-1.185166001E0,1.139674854E1,9.074301720E-1
1.211851425E0,-1.443747759E0,1.145421028E1,1.185166001E0
1.213851291E0,-1.443747759E0,1.145421028E1,1.185166001E0
1.215850291E0,-1.570644259E0,1.150449085E1,1.386285067E0
1.217850124E0,-1.625712633E0,1.152603912E1,1.462901950E0
1.219849957E0,-1.774157643E0,1.152364445E1,1.640078187E0
1.221849790E0,-1.893871427E0,1.150449085E1,1.709512234E0
1.223849156E0,-1.929785490E0,1.149970150E1,1.766974807E0
1.225848989E0,-1.927391171E0,1.157392406E1,1.731060743E0
1.227848822E0,-1.903448462E0,1.160026169E1,1.675992370E0
1.229848688E0,-1.826831698E0,1.161941528E1,1.484450340E0
1.231848488E0,-1.319245458E0,1.174391747E1,9.002473354E-1
1.233848321E0,-1.091789365E0,1.178701496E1,6.656084061E-1
1.235848487E0,-8.499675393E-1,1.184447765E1,4.381522834E-1
1.237848287E0,-3.543526828E-1,1.201207638E1,-3.591412306E-2
1.239848087E0,-9.816526622E-2,1.212460804E1,-2.513988614E-1
1.241847887E0,3.830839694E-1,1.238797760E1,-6.440598965E-1
1.243847687E0,6.033572555E-1,1.255318260E1,-8.356019258E-1
1.245847487E0,8.978530765E-1,1.301527786E1,-1.175588965E0
1.247847220E0,9.289786220E-1,1.352765274E1,-1.472478986E0
1.249846953E0,8.715160489E-1,1.381975460E1,-1.611346960E0
1.251846686E0,7.901106775E-2,1.500970840E1,-2.044710636E0
1.253846386E0,7.901106775E-2,1.500970840E1,-2.044710636E0
1.255846119E0,-1.628106833E-1,1.526589584E1,-2.083019018E0
1.257845852E0,-5.985686779E-1,1.565376854E1,-2.099778891E0
1.259845585E0,-7.925049663E-1,1.578066540E1,-2.094990492E0
1.261845385E0,-1.055875182E0,1.589319611E1,-2.042316437E0
1.263845118E0,-1.134886265E0,1.582855034E1,-1.953728199E0
1.265844851E0,-1.154040456E0,1.574235725E1,-1.896265626E0
1.267845084E0,-1.019961119E0,1.547659206E1,-1.810071707E0
1.269844817E0,-5.842030644E-1,1.515575981E1,-1.824437380E0
1.271844550E0,1.460507661E-1,1.460986519E1,-2.044710636E0
1.273844316E0,1.460507661E-1,1.460986519E1,-2.044710636E0
1.275844049E0,5.842030644E-1,1.438480282E1,-2.135693073E0
1.277843849E0,7.326480746E-1,1.388918781E1,-2.382303476E0
1.279843582E0,1.039115310E0,1.340075588E1,-2.631308079E0
1.281843315E0,1.340793848E0,1.320203114E1,-2.762993097E0
1.283843048E0,1.960911036E0,1.292429543E1,-3.031152010E0
1.285842781E0,2.432583094E0,1.276148510E1,-3.258608103E0
1.287842514E0,2.590605259E0,1.270162773E1,-3.330436230E0
1.289842247E0,2.794118643E0,1.257712555E1,-3.373533249E0
1.291841713E0,2.887495518E0,1.246938324E1,-3.184385538E0
1.293842046E0,2.887495518E0,1.246938324E1,-3.184385538E0
1.295841779E0,2.844398499E0,1.243586349E1,-2.897072554E0
1.297841512E0,2.782147408E0,1.244544029E1,-2.727078915E0
1.299841245E0,2.789330244E0,1.247177792E1,-2.391880512E0
1.301840978E0,2.595393896E0,1.246459484E1,-2.006402254E0
1.303840711E0,2.446948767E0,1.243346882E1,-1.817254543E0
1.305840444E0,2.020767927E0,1.239994907E1,-1.637683988E0
1.307840244E0,1.513181686E0,1.238797760E1,-1.697540879E0
1.309839977E0,1.271359921E0,1.238797760E1,-1.771763325E0
1.311839377E0,2.035133541E-1,1.238558388E1,-1.731060743E0
1.313839077E0,2.035133541E-1,1.238558388E1,-1.731060743E0
1.315838810E0,-7.661679387E-2,1.241670895E1,-1.666415215E0
1.317838543E0,-5.794144869E-1,1.249571991E1,-1.482056141E0
1.319838276E0,-8.236305118E-1,1.253163433E1,-1.369525194E0
1.321838009E0,-1.268965602E0,1.262022209E1,-1.151646137E0
1.323837809E0,-1.704723716E0,1.271359921E1,-9.122186899E-1
1.325837542E0,-1.920208454E0,1.276866722E1,-8.116591573E-1
1.327836775E0,-2.336812258E0,1.290753555E1,-6.320885420E-1
1.329836508E0,-2.698347807E0,1.299133492E1,-5.674431324E-1
1.331836241E0,-3.129317284E0,1.347497845E1,-4.501236677E-1
1.333835974E0,-3.129317284E0,1.347497845E1,-4.501236677E-1
1.335835707E0,-3.237059593E0,1.364736652E1,-4.381522834E-1
1.337835440E0,-3.459727049E0,1.408312416E1,-4.333637357E-1
1.339835240E0,-3.605777979E0,1.463141346E1,-4.477293789E-1
1.341834973E0,-3.660846233E0,1.494506359E1,-4.788549542E-1
1.343834706E0,-3.761405706E0,1.558912373E1,-6.344828010E-1
1.345834439E0,-3.826051235E0,1.592192745E1,-8.810931444E-1
1.347834172E0,-3.845205307E0,1.656359291E1,-1.029538155E0
1.349833905E0,-4.000833035E0,1.718849945E1,-1.395862222E0
1.351833538E0,-4.302511692E0,1.808874702E1,-1.810071707E0
1.353832738E0,-4.302511692E0,1.808874702E1,-1.810071707E0
1.355832538E0,-4.587430477E0,1.855802345E1,-1.855562925E0
1.357832271E0,-4.728692532E0,1.873759460E1,-1.857957244E0
1.359832004E0,-5.006428719E0,1.897462845E1,-1.901054144E0
1.361831737E0,-5.147690773E0,1.903687859E1,-1.992036581E0
1.363831470E0,-5.162056446E0,1.900575256E1,-2.035133600E0
1.365831203E0,-5.178816319E0,1.883336639E1,-2.087807655E0
1.367830936E0,-5.224307537E0,1.867055511E1,-2.092596292E0
1.369830736E0,-5.332049847E0,1.816775703E1,-2.059076309E0
1.371830869E0,-5.387118340E0,1.728426933E1,-1.936968327E0
1.373830669E0,-5.372752666E0,1.697301483E1,-1.862745762E0
1.375830402E0,-5.384724140E0,1.663781548E1,-1.778946161E0
1.377830135E0,-5.413455486E0,1.597460175E1,-1.637683988E0
1.379829868E0,-5.396695614E0,1.565376854E1,-1.580221415E0
1.381829601E0,-5.308107376E0,1.497618866E1,-1.498816013E0
1.383829334E0,-5.248250484E0,1.461944199E1,-1.484450340E0
1.385829134E0,-5.056708336E0,1.386524582E1,-1.505998850E0
1.387828900E0,-4.709538460E0,1.329780197E1,-1.549095750E0
1.389828633E0,-4.434196949E0,1.309907722E1,-1.549095750E0
1.391828366E0,-2.980872154E0,1.222756100E1,-1.108549237E0
1.393828066E0,-2.980872154E0,1.222756100E1,-1.108549237E0
1.395827799E0,-2.636096478E0,1.200249958E1,-9.241901040E-1
1.397827532E0,-2.004008055E0,1.160265541E1,-6.273000240E-1
1.399827265E0,-1.541913033E0,1.142308521E1,-2.992843390E-1
1.401827065E0,-1.410227895E0,1.113098335E1,-1.292908341E-1
1.403826798E0,-1.233051538E0,1.095380688E1,2.561874092E-1
1.405826531E0,-1.144463301E0,1.086282444E1,5.554717779E-1
1.407826264E0,-9.744698405E-1,1.065452290E1,1.034326673E0
1.409825997E0,-6.488484740E-1,1.044143200E1,9.289786220E-1
1.411826163E0,-2.873129770E-2,1.048452950E1,-1.221080124E-1
1.413825896E0,-2.873129770E-2,1.048452950E1,-1.221080124E-1
1.415825629E0,2.322446555E-1,1.058269501E1,-1.197137356E0
1.417825429E0,2.849186957E-1,1.064733982E1,-1.692752242E0
1.419825162E0,4.046324492E-1,1.072156239E1,-2.547508478E0
1.421824895E0,4.884320498E-1,1.077423668E1,-2.851581335E0
1.423824628E0,6.608198285E-1,1.087479591E1,-3.064671755E0
1.425824361E0,9.433442950E-1,1.097056675E1,-3.007209063E0
1.427824094E0,1.166011810E0,1.103760719E1,-2.913832426E0
1.429823827E0,1.726272106E0,1.119323444E1,-2.648067951E0
1.431823560E0,2.418217659E0,1.138477707E1,-2.202732801E0
1.433823426E0,2.418217659E0,1.138477707E1,-2.202732801E0
1.435823159E0,2.633702278E0,1.142547894E1,-1.731060743E0
1.437822892E0,2.633702278E0,1.140153694E1,-1.417410731E0
1.439822625E0,2.391880512E0,1.121957207E1,-7.877163887E-1
1.441822358E0,1.829225898E0,1.087958431E1,-2.059076279E-1
1.443822091E0,1.441353440E0,1.065452290E1,6.703969836E-2
1.445821824E0,6.033572555E-1,1.017087936E1,4.525179267E-1
1.447821590E0,-1.340793967E-1,9.663292885E0,7.853221297E-1
1.449821390E0,-4.549122155E-1,9.423865318E0,9.313728809E-1
1.451821123E0,-1.561067224E0,8.631361008E0,1.288119793E0
1.453820889E0,-1.561067224E0,8.631361008E0,1.288119793E0
1.455820622E0,-1.781340480E0,8.447001457E0,1.268965602E0
1.457820355E0,-2.147664547E0,8.075888634E0,9.720755816E-1
1.459820088E0,-2.274561167E0,7.910684109E0,7.781392932E-1
1.461819821E0,-2.437371731E0,7.723930359E0,3.806896806E-1
1.463819621E0,-2.502017260E0,7.592245579E0,6.225114316E-2
1.465819421E0,-2.487651587E0,7.522811413E0,-7.901106775E-2
1.467819154E0,-2.303292274E0,7.374366283E0,-3.160442710E-1
1.469818887E0,-1.958516836E0,7.257047176E0,-4.956148863E-1
1.471818087E0,-1.561067224E0,7.290566921E0,-5.458946824E-1
1.473817753E0,-1.561067224E0,7.290566921E0,-5.458946824E-1
1.475817486E0,-1.508393168E0,7.319298267E0,-4.908263385E-1
1.477817219E0,-1.482056141E0,7.316903591E0,-4.429408312E-1
1.479817019E0,-1.415016413E0,7.295355320E0,-5.842030644E-1
1.481816752E0,-1.314456820E0,7.254652500E0,-7.110996246E-1
1.483816485E0,-1.072635174E0,7.199584484E0,-9.433442950E-1
1.485816218E0,-8.739103079E-1,7.163670063E0,-1.139674783E0
1.487815951E0,-7.661679387E-1,7.149304390E0,-1.242628574E0
1.489815684E0,-5.578660369E-1,7.118178844E0,-1.393467903E0
1.491815417E0,-2.035133541E-1,6.974522591E0,-1.613741279E0
1.493815083E0,-9.337671846E-2,6.878751755E0,-1.661626697E0
1.495814883E0,-1.915419847E-2,6.778192043E0,-1.680780888E0
1.497814616E0,1.436564885E-2,6.682421207E0,-1.671203852E0
1.499814349E0,2.873129770E-2,6.452570438E0,-1.541913033E0
1.501814082E0,2.154847234E-2,6.246663094E0,-1.355159521E0
1.503813815E0,1.436564885E-2,6.134131908E0,-1.247417212E0
1.505813548E0,-7.422251999E-2,5.916253090E0,-1.034326673E0
1.507813281E0,-1.819648892E-1,5.796539307E0,-8.092648983E-1
1.509813014E0,-2.226675600E-1,5.573871613E0,-6.991282701E-1
1.511812814E0,-3.423812985E-1,5.317684174E0,-3.639297783E-1
1.513812514E0,-3.759011328E-1,5.262616158E0,-2.346389294E-1
1.515812247E0,-3.998439014E-1,5.207547665E0,-1.340793967E-1
1.517811980E0,-4.429408312E-1,5.085439682E0,1.436564885E-2
1.519811713E0,-4.573064744E-1,5.042342663E0,5.746259540E-2
1.521811446E0,-4.357580245E-1,4.965725899E0,8.858817071E-2
1.523811179E0,-3.471698463E-1,4.905869007E0,1.364736706E-1
1.525810912E0,-3.184385598E-1,4.877137661E0,1.604164094E-1
1.527810712E0,-2.585816681E-1,4.831646442E0,1.412622184E-1
1.529810478E0,-2.394274771E-1,4.800520897E0,1.340793967E-1
1.531810778E0,-1.556278616E-1,4.678412914E0,1.053480953E-1
1.533810611E0,-1.556278616E-1,4.678412914E0,1.053480953E-1
1.535810377E0,-1.532335877E-1,4.661653042E0,7.182824612E-2
1.537810143E0,-1.795706153E-1,4.637710094E0,4.788549617E-3
1.539809909E0,-1.867534369E-1,4.618556023E0,-8.619388938E-2
1.541809742E0,-1.795706153E-1,4.604190350E0,-1.412622184E-1
1.543809575E0,-1.652049571E-1,4.594613552E0,-2.777358890E-1
1.545809341E0,-1.843591630E-1,4.601796150E0,-3.328042030E-1
1.547809107E0,-2.370332032E-1,4.573064804E0,-3.830839694E-1
1.549808873E0,-3.016786277E-1,4.534756660E0,-4.405465722E-1
1.551808639E0,-4.788549542E-1,4.486870766E0,-5.578660369E-1
1.553808372E0,-4.788549542E-1,4.486870766E0,-5.578660369E-1
1.555808138E0,-5.794144869E-1,4.453351021E0,-6.009629965E-1
1.557807971E0,-6.368771195E-1,4.443774223E0,-6.033572555E-1
1.559807737E0,-7.518022656E-1,4.410254002E0,-6.249057055E-1
1.561807503E0,-8.667274714E-1,4.395888329E0,-6.895511150E-1
1.563807269E0,-9.074301720E-1,4.391099930E0,-7.087053657E-1
1.565807035E0,-9.505270720E-1,4.381523132E0,-7.685621977E-1
1.567806801E0,-9.768640995E-1,4.383917332E0,-7.996878028E-1
1.569806567E0,-9.768640995E-1,4.381523132E0,-8.092648983E-1
1.571806333E0,-1.060663700E0,4.362368584E0,-7.709565163E-1
1.573806199E0,-1.072635174E0,4.357580185E0,-7.350423932E-1
1.575805965E0,-1.084606528E0,4.345608711E0,-6.895511150E-1
1.577805731E0,-1.098972082E0,4.316877365E0,-6.296942830E-1
1.579805497E0,-1.115732074E0,4.302511692E0,-5.770202279E-1
1.581805263E0,-1.146857619E0,4.288146019E0,-4.644893110E-1
1.583805029E0,-1.166011810E0,4.273780346E0,-4.070267081E-1
1.585805095E0,-1.177983165E0,4.252232075E0,-2.609759569E-1
1.587804861E0,-1.177983165E0,4.223500729E0,-9.577099234E-2
1.589804661E0,-1.187560320E0,4.221106529E0,-2.633702382E-2
1.591804394E0,-1.233051538E0,4.156461239E0,3.088614643E-1
1.593804094E0,-1.233051538E0,4.156461239E0,3.088614643E-1
1.595803827E0,-1.266571403E0,4.106181145E0,3.998439014E-1
1.597803560E0,-1.324033976E0,4.005621910E0,5.339232683E-1
1.599803293E0,-1.350371003E0,3.957736254E0,6.153286099E-1
1.601803026E0,-1.362342358E0,3.878725290E0,7.805336118E-1
1.603802759E0,-1.367130876E0,3.804502726E0,9.194015265E-1
1.605802559E0,-1.371919513E0,3.775771379E0,9.912297726E-1
1.607802292E0,-1.405439258E0,3.703943014E0,1.132491946E0
1.609802025E0,-1.462901950E0,3.634509087E0,1.259388566E0
1.611801758E0,-1.498816013E0,3.589017868E0,1.431776285E0
1.613801524E0,-1.498816013E0,3.589017868E0,1.431776285E0
1.615801257E0,-1.527547359E0,3.579440832E0,1.529941559E0
1.617800990E0,-1.553884387E0,3.553103924E0,1.582615614E0
1.619800790E0,-1.601769805E0,3.562680960E0,1.661626697E0
1.621800590E0,-1.613741279E0,3.557892323E0,1.709512234E0
1.623800323E0,-1.635289669E0,3.557892323E0,1.795706153E0
1.625800056E0,-1.654443860E0,3.584229469E0,1.841197371E0
1.627799789E0,-1.649655342E0,3.598595142E0,1.853168726E0
1.629799522E0,-1.656838179E0,3.632114887E0,1.893871427E0
1.631799255E0,-1.671203852E0,3.706337452E0,1.963305354E0
1.633798955E0,-1.671203852E0,3.706337452E0,1.963305354E0
1.635798755E0,-1.675992370E0,3.723097324E0,2.004008055E0
1.637798555E0,-1.661626697E0,3.711125851E0,2.027950764E0
1.639798288E0,-1.644866824E0,3.687183142E0,2.102173328E0
1.641798021E0,-1.618529797E0,3.687183142E0,2.176395893E0
1.643797754E0,-1.611346960E0,3.691971779E0,2.224281311E0
1.645797187E0,-1.592192769E0,3.725491524E0,2.346389294E0
1.647796920E0,-1.556278586E0,3.775771379E0,2.468497276E0
1.649796653E0,-1.541913033E0,3.806896925E0,2.528354168E0
1.651796453E0,-1.556278586E0,3.921822071E0,2.803695917E0
1.653796219E0,-1.556278586E0,3.921822071E0,2.803695917E0
1.655795952E0,-1.558672905E0,3.943370581E0,2.858764172E0
1.657795685E0,-1.556278586E0,4.008016109E0,2.942563772E0
1.659795418E0,-1.551490068E0,4.046324253E0,2.978477955E0
1.661795151E0,-1.503604531E0,4.146883965E0,3.023969173E0
1.663794884E0,-1.446141958E0,4.225894928E0,3.047911882E0
1.665794617E0,-1.405439258E0,4.278569221E0,3.059883118E0
1.667794417E0,-1.307274103E0,4.419831276E0,3.040729046E0
1.669794150E0,-1.216291547E0,4.508419514E0,3.004814863E0
1.671793883E0,-1.079817891E0,4.922628880E0,2.990449190E0
1.673793583E0,-1.079817891E0,4.922628880E0,2.990449190E0
1.675793316E0,-1.005595446E0,5.049525738E0,2.976083517E0
1.677793049E0,-8.427847624E-1,5.334444046E0,2.968900681E0
1.679792782E0,-6.895511150E-1,5.684008598E0,3.000026226E0
1.681792515E0,-6.225114465E-1,5.858790398E0,3.031152010E0
1.683792348E0,-4.956148863E-1,6.249057293E0,3.081431627E0
1.685792081E0,-4.046324492E-1,6.660872459E0,3.114951611E0
1.687791814E0,-3.495641351E-1,6.883540154E0,3.167625666E0
1.689791547E0,-1.891477108E-1,7.362394810E0,3.356773376E0
1.691791280E0,7.661679387E-2,8.238699913E0,3.727885962E0
1.693791046E0,7.661679387E-2,8.238699913E0,3.727885962E0
1.695790779E0,2.921015322E-1,8.877970695E0,3.964919090E0
1.697790512E0,4.094209969E-1,9.201197624E0,4.108575344E0
1.699790312E0,5.578660369E-1,9.859623909E0,4.407859802E0
1.701790045E0,6.440598965E-1,1.059945488E1,4.783761024E0
1.703789778E0,6.656084061E-1,1.096817303E1,4.987274647E0
1.705789511E0,7.972934842E-1,1.173194695E1,5.348809719E0
1.707789244E0,8.715160489E-1,1.214855003E1,5.509226322E0
1.709788977E0,9.840469360E-1,1.302724934E1,5.846818924E0
1.711788710E0,9.720755816E-1,1.435367775E1,6.304125786E0
1.713788476E0,9.481328130E-1,1.479183006E1,6.438204765E0
1.715788276E0,9.289786220E-1,1.526350212E1,6.555524349E0
1.717788009E0,8.882759809E-1,1.631937790E1,6.768614769E0
1.719787742E0,8.763045669E-1,1.687484932E1,6.866780281E0
1.721787475E0,8.332076073E-1,1.810071754E1,7.087053299E0
1.723787208E0,7.110996246E-1,1.875914383E1,7.424646378E0
1.725786941E0,6.009629965E-1,2.015261078E1,7.644919395E0
1.727786674E0,3.806896806E-1,2.164424515E1,8.164477348E0
1.729786474E0,2.561874092E-1,2.242477798E1,8.427846909E0
1.731786207E0,-6.249057055E-1,2.488130379E1,9.361614227E0
1.733785973E0,-6.249057055E-1,2.488130379E1,9.361614227E0
1.735785706E0,-8.930644989E-1,2.523565674E1,9.531607628E0
1.737785439E0,-1.307274103E0,2.571211624E1,9.730332375E0
1.739785172E0,-1.505998850E0,2.570972252E1,9.689630508E0
1.741784905E0,-1.565855742E0,2.547987175E1,9.603436470E0
1.743784605E0,-1.640078187E0,2.463229942E1,9.306546211E0
1.745784405E0,-1.654443860E0,2.408161545E1,9.115004539E0
1.747784138E0,-1.707117915E0,2.277194786E1,8.727131844E0
1.749783871E0,-1.771763325E0,2.125637245E1,8.372778893E0
1.751783771E0,-2.056682110E0,1.889322281E1,8.092648506E0
1.753783437E0,-2.056682110E0,1.889322281E1,8.092648506E0
1.755783170E0,-2.233858347E0,1.731300163E1,8.078283310E0
1.757782903E0,-2.339206457E0,1.654683304E1,8.123774529E0
1.759782636E0,-2.525959969E0,1.512702847E1,8.253065109E0
1.761782436E0,-2.600182533E0,1.447817993E1,8.320104599E0
1.763782169E0,-2.767781734E0,1.323794556E1,8.458972931E0
1.765781902E0,-2.856369734E0,1.211024189E1,8.624177933E0
1.767781635E0,-2.877918243E0,1.159068394E1,8.700794220E0
1.769781368E0,-2.880312681E0,1.064733982E1,8.834874153E0
1.771781101E0,-2.789330244E0,9.296969414E0,9.098244667E0
1.773780867E0,-2.786935806E0,8.849239349E0,9.162889481E0
1.775780600E0,-2.810878515E0,8.413481712E0,9.217958450E0
1.777780400E0,-2.786935806E0,7.965752125E0,9.284997940E0
1.779780133E0,-2.727078915E0,7.048745155E0,9.311334610E0
1.781779866E0,-2.590605259E0,6.167652130E0,9.364008904E0
1.783779599E0,-2.523565531E0,5.755836487E0,9.397528648E0
1.785779332E0,-2.509200096E0,4.968120098E0,9.409500122E0
1.787778698E0,-2.588211060E0,4.285751820E0,9.344854355E0
1.789778431E0,-2.660039425E0,4.022381783E0,9.330489159E0
1.791778231E0,-2.554691315E0,4.005621910E0,9.531607628E0
1.793777997E0,-2.554691315E0,4.264203548E0,9.622590065E0
1.795777730E0,-2.262589693E0,4.671230316E0,9.682447433E0
1.797777463E0,-1.249811411E0,5.854001999E0,9.613013268E0
1.799777196E0,-6.440598965E-1,6.584255695E0,9.459779739E0
1.801776929E0,6.225114465E-1,8.166871071E0,8.909096718E0
1.803776662E0,1.683175206E0,1.001285744E1,8.068706512E0
1.805776395E0,2.085413456E0,1.096098995E1,7.544359684E0
1.807776195E0,2.628913641E0,1.278063869E1,6.234691620E0
1.809775928E0,3.122134447E0,1.483492661E1,4.407859802E0
1.811775494E0,3.718308687E0,1.806480408E1,9.672870040E-1
1.813775260E0,3.718308687E0,1.806480408E1,9.672870040E-1
1.815774993E0,3.826051235E0,1.918292999E1,-2.418217510E-1
1.817774726E0,3.897879362E0,2.129946899E1,-2.470891714E0
1.819774459E0,3.723097324E0,2.335136223E1,-4.285751820E0
1.821774192E0,3.567469358E0,2.431385994E1,-5.025582790E0
1.823773992E0,3.112557173E0,2.599703598E1,-6.105400562E0
1.825773725E0,2.578634024E0,2.734022331E1,-6.557918549E0
1.827773458E0,2.291321039E0,2.794836998E1,-6.605803967E0
1.829773191E0,1.601769805E0,2.896354294E1,-6.442993641E0
1.831772924E0,3.423812985E-1,2.977041245E1,-5.923435688E0
1.833772624E0,3.423812985E-1,2.977041245E1,-5.923435688E0
1.835772357E0,-3.854782581E-1,2.984463501E1,-5.729499817E0
1.837772090E0,-6.488484740E-1,2.970576668E1,-5.700768471E0
1.839771890E0,-8.427847624E-1,2.894199371E1,-5.624151707E0
1.841771623E0,-6.105400920E-1,2.740486908E1,-5.691191196E0
1.843771356E0,-3.998439014E-1,2.625561714E1,-5.801327705E0
1.845771089E0,2.154847234E-2,2.332263184E1,-5.954561234E0
1.847771189E0,-2.873129770E-2,1.963065910E1,-5.976109982E0
1.849770922E0,-3.136500120E-1,1.753566933E1,-5.952167034E0
1.851770655E0,-2.707924843E0,8.387145042E0,-5.657671452E0
1.853770421E0,-2.707924843E0,8.387145042E0,-5.657671452E0
1.855770221E0,-3.402264595E0,6.201171875E0,-5.509226322E0
1.857769954E0,-4.632921696E0,2.267378330E0,-5.142902374E0
1.859769687E0,-5.190787792E0,5.506832004E-1,-4.932206154E0
1.861769420E0,-6.045543671E0,-2.375120640E0,-4.407859802E0
1.863769153E0,-6.629746914E0,-4.597007751E0,-3.720703125E0
1.865768886E0,-6.833260536E0,-5.444581032E0,-3.299310684E0
1.867768619E0,-6.986494064E0,-6.615381241E0,-2.308080912E0
1.869768419E0,-6.929031372E0,-6.967339516E0,-1.743032098E0
1.871768219E0,-6.342433929E0,-7.336058140E0,7.901107073E-1
1.873767952E0,-6.342433929E0,-7.336058140E0,7.901107073E-1
1.875767685E0,-6.067092419E0,-7.146910191E0,1.417410731E0
1.877767418E0,-5.564294815E0,-6.646506786E0,2.411034822E0
1.879767151E0,-5.238673210E0,-6.141314983E0,3.045517445E0
1.881766884E0,-5.157268047E0,-5.961744308E0,3.241847992E0
1.883766617E0,-5.284164429E0,-5.798933506E0,3.433390141E0
1.885766417E0,-5.676825523E0,-5.786962032E0,3.545921087E0
1.887766217E0,-5.885127544E0,-5.856396198E0,3.603383541E0
1.889765950E0,-6.098217964E0,-5.937801361E0,3.715914488E0
1.891765250E0,-5.712739468E0,-5.911464691E0,3.670423269E0
1.893765016E0,-5.712739468E0,-5.911464691E0,3.670423269E0
1.895764749E0,-5.176422119E0,-5.765413761E0,3.313676357E0
1.897764482E0,-4.874743462E0,-5.616968632E0,2.971295118E0
1.899764215E0,-4.257020473E0,-5.140508175E0,1.939362645E0
1.901764015E0,-3.703943014E0,-4.381523132E0,5.913859010E-1
1.903763748E0,-3.459727049E0,-3.885908127E0,-1.245022863E-1
1.905763481E0,-3.026363373E0,-2.758204460E0,-1.498816013E0
1.907763214E0,-2.786935806E0,-2.140481710E0,-2.128510237E0
1.909762947E0,-2.152452946E0,-7.254652381E-1,-3.217905283E0
1.911762680E0,-7.901107073E-1,1.757397652E0,-4.664047241E0
1.913762380E0,-2.633702159E-1,2.633702278E0,-5.205153465E0
1.915762113E0,2.897072434E-1,3.538738251E0,-5.695979595E0
1.917761913E0,1.256994247E0,5.336838722E0,-6.447782040E0
1.919761646E0,1.616135478E0,6.215537548E0,-6.751854897E0
1.921761379E0,2.102173328E0,7.977723598E0,-7.527599812E0
1.923761112E0,2.238646984E0,8.844450951E0,-7.980117798E0
1.925760845E0,2.408640385E0,1.061621475E1,-8.332076073E0
1.927760578E0,2.686376333E0,1.238558388E1,-7.122967720E0
1.929760311E0,2.911438227E0,1.315175152E1,-6.294548512E0
1.931760044E0,3.481275558E0,1.626670265E1,-4.484476566E0
1.933759877E0,3.481275558E0,1.626670265E1,-4.484476566E0
1.935759643E0,3.579440832E0,1.730581856E1,-4.508419514E0
1.937759409E0,3.917033672E0,1.967375565E1,-4.793338299E0
1.939759175E0,4.297723293E0,2.091159630E1,-4.872349262E0
1.941758941E0,4.458139896E0,2.309756851E1,-4.711932659E0
1.943758707E0,4.817280769E0,2.506805801E1,-4.759818554E0
1.945758473E0,4.925023079E0,2.591802406E1,-4.893897533E0
1.947758239E0,4.616161823E0,2.708164215E1,-4.920234680E0
1.949758072E0,3.840416908E0,2.756049728E1,-4.553910732E0
1.951758272E0,2.358360767E0,2.738092613E1,-2.810878515E0
1.953758005E0,2.358360767E0,2.738092613E1,-2.810878515E0
1.955757771E0,1.431776285E0,2.680869484E1,-1.563461423E0
1.957757537E0,1.005595446E0,2.633702278E1,-1.043903828E0
1.959757303E0,3.304099143E-1,2.511115456E1,-2.825244367E-1
1.961757069E0,1.628106833E-1,2.429949570E1,-2.154847234E-2
1.963756902E0,1.819648892E-1,2.232900620E1,3.184385598E-1
1.965756735E0,7.422251701E-1,2.001853180E1,4.692778587E-1
1.967756501E0,1.225868702E0,1.885012627E1,4.716721475E-1
1.969756267E0,2.353572130E0,1.653964996E1,4.094209969E-1
1.971757500E0,3.708731651E0,1.338878441E1,2.968900800E-1
1.973757266E0,3.955342054E0,1.247177792E1,2.442160249E-1
1.975757032E0,4.096604347E0,1.163856983E1,1.939362586E-1
1.977756798E0,4.166038036E0,1.089395046E1,1.364736706E-1
1.979756631E0,4.127729893E0,9.632167816E0,-3.591412306E-2
1.981756397E0,3.895485163E0,8.698400497E0,-3.375927508E-1
1.983756163E0,3.727885962E0,8.324893951E0,-5.051919818E-1
1.985755929E0,3.316070557E0,7.783787251E0,-8.068706393E-1
1.987755362E0,2.892283916E0,7.477320194E0,-9.960182905E-1
1.989755128E0,2.715107679E0,7.393520832E0,-1.063058019E0
1.991754894E0,2.276955366E0,7.336058140E0,-1.199531674E0
1.993754627E0,2.147664547E0,7.350423813E0,-1.213897347E0
1.995754427E0,2.006402254E0,7.367183685E0,-1.211503029E0
1.997754160E0,1.702329397E0,7.364789486E0,-1.213897347E0
1.999754026E0,1.551490068E0,7.336058140E0,-1.189954638E0
2.001753759E0,1.216291547E0,7.223526955E0,-1.180377483E0
2.003753492E0,8.715160489E-1,7.118178844E0,-1.134886265E0
2.005753225E0,7.015225291E-1,7.063110828E0,-1.108549237E0
2.007752958E0,2.944957912E-1,6.938608170E0,-1.058269501E0
2.009752691E0,-1.053480953E-1,6.780586243E0,-1.103760719E0
2.011752491E0,-6.536370516E-1,6.512427330E0,-1.182771802E0
2.013752224E0,-6.536370516E-1,6.512427330E0,-1.182771802E0
2.015751957E0,-8.068706393E-1,6.428627968E0,-1.223474383E0
2.017751690E0,-1.065452337E0,6.301731110E0,-1.362342358E0
2.019751423E0,-1.312062621E0,6.179623127E0,-1.654443860E0
2.021751156E0,-1.458113313E0,6.138920784E0,-1.903448462E0
2.023750889E0,-1.898659945E0,5.988081455E0,-2.415823221E0
2.025750622E0,-2.212309837E0,5.889915943E0,-2.873129845E0
2.027750422E0,-2.308080912E0,5.861184597E0,-3.167625666E0
2.029750155E0,-2.480468750E0,5.830059052E0,-3.854782343E0
2.031748421E0,-2.707924843E0,5.935407162E0,-4.434196949E0
2.033748154E0,-2.770175934E0,6.026389599E0,-4.494053841E0
2.035747887E0,-2.834821463E0,6.131737709E0,-4.510813713E0
2.037747620E0,-2.909043789E0,6.239480019E0,-4.508419514E0
2.039747353E0,-3.071854591E0,6.488484859E0,-4.374340057E0
2.041747153E0,-3.234665155E0,6.773403645E0,-4.091815472E0
2.043746953E0,-3.304099321E0,6.909877300E0,-3.866753817E0
2.045746686E0,-3.284945011E0,7.175641537E0,-3.272973776E0
2.047746752E0,-3.091008663E0,7.290566921E0,-2.633702278E0
2.049746485E0,-2.995237827E0,7.489291668E0,-2.312869549E0
2.051746218E0,-2.789330244E0,7.704776287E0,-1.477267504E0
2.053745984E0,-2.801301479E0,7.747873306E0,-1.197137356E0
2.055745717E0,-2.849187136E0,7.771816254E0,-9.194015265E-1
2.057745517E0,-2.942563772E0,7.855615616E0,-4.525179267E-1
2.059745117E0,-2.949746609E0,7.934626579E0,-2.777358890E-1
2.061744850E0,-2.851581335E0,8.126168251E0,-4.070267081E-2
2.063744583E0,-2.588211060E0,8.339259148E0,6.703969836E-2
2.065744316E0,-2.437371731E0,8.442213058E0,1.029538140E-1
2.067744049E0,-2.181184292E0,8.614601135E0,1.843591630E-1
2.069743782E0,-2.078230619E0,8.707977295E0,2.035133541E-1
2.071743515E0,-1.841197371E0,9.067118645E0,3.830839694E-1
2.073743315E0,-1.841197371E0,9.067118645E0,3.830839694E-1
2.075743048E0,-1.778946161E0,9.162889481E0,4.142095447E-1
2.077742781E0,-1.649655342E0,9.299363136E0,4.740664065E-1
2.079742514E0,-1.517970204E0,9.380768776E0,5.794144869E-1
2.081742247E0,-1.458113313E0,9.402317047E0,6.153286099E-1
2.083741980E0,-1.405439258E0,9.445414543E0,6.249057055E-1
2.085741713E0,-1.422199249E0,9.454991341E0,6.009629965E-1
2.087741446E0,-1.436564922E0,9.481328011E0,4.980091453E-1
2.089741246E0,-1.474873304E0,9.483722687E0,3.663240373E-1
2.091740979E0,-1.529941559E0,9.478934288E0,1.939362586E-1
2.093740745E0,-1.529941559E0,9.478934288E0,1.939362586E-1
2.095740478E0,-1.582615614E0,9.399923325E0,1.675992459E-2
2.097740211E0,-1.585009933E0,9.366402626E0,-9.337671846E-2
2.099739944E0,-1.580221415E0,9.263449669E0,-2.897072434E-1
2.101739677E0,-1.592192769E0,9.189227104E0,-4.429408312E-1
2.103739210E0,-1.587404251E0,9.045570374E0,-4.980091453E-1
2.105739010E0,-1.505998850E0,8.906702042E0,-5.985686779E-1
2.107738743E0,-1.465296149E0,8.846845627E0,-6.584255695E-1
2.109738476E0,-1.453324795E0,8.696005821E0,-7.877163887E-1
2.111738209E0,-1.417410731E0,8.435029984E0,-9.505270720E-1
2.113738942E0,-1.374313712E0,8.363202095E0,-1.007989645E0
2.115738675E0,-1.297696948E0,8.303344727E0,-1.063058019E0
2.117738408E0,-1.137280583E0,8.152505875E0,-1.158828974E0
2.119738208E0,-1.053480864E0,8.083071709E0,-1.206714511E0
2.121738008E0,-8.739103079E-1,7.975329399E0,-1.264177084E0
2.123737741E0,-8.164477348E-1,7.929838181E0,-1.312062621E0
2.125737474E0,-6.991282701E-1,7.812518597E0,-1.379102230E0
2.127737207E0,-5.818088055E-1,7.728719234E0,-1.369525194E0
2.129736940E0,-5.123748183E-1,7.714353561E0,-1.359948039E0
2.131736673E0,-1.245022863E-1,7.781393051E0,-1.173194647E0
2.133737473E0,-1.245022863E-1,7.781393051E0,-1.173194647E0
2.135737273E0,-4.309694469E-2,7.841249943E0,-1.087000728E0
2.137737073E0,9.098244458E-2,7.994483471E0,-8.691217303E-1
2.139736806E0,1.268965602E-1,8.090254784E0,-7.398309112E-1
2.141736539E0,1.604164094E-1,8.303344727E0,-4.692778587E-1
2.143736272E0,1.316851079E-1,8.509252548E0,-1.867534369E-1
2.145736005E0,1.029538140E-1,8.614601135E0,-4.070267081E-2
2.147735738E0,5.027977005E-2,8.813325882E0,2.370332032E-1
2.149735471E0,7.182824425E-3,9.024022102E0,4.932205975E-1
2.151735271E0,-1.197137404E-2,9.265843391E0,8.427847624E-1
2.153735004E0,-1.197137404E-2,9.265843391E0,8.427847624E-1
2.155734737E0,-3.830839694E-2,9.318517685E0,9.577099085E-1
2.157734470E0,-5.985686928E-2,9.395133972E0,1.151646137E0
2.159734203E0,-5.985686928E-2,9.438231468E0,1.314456820E0
2.161733936E0,-3.591412306E-2,9.459779739E0,1.391073704E0
2.163733869E0,2.394274808E-3,9.483722687E0,1.527547359E0
2.165733602E0,6.464541703E-2,9.536396980E0,1.644866824E0
2.167733402E0,9.577099234E-2,9.555550575E0,1.675992370E0
2.169733135E0,1.221080124E-1,9.579493523E0,1.675992370E0
2.171732868E0,2.106961906E-1,9.668081284E0,1.565855742E0
2.173731568E0,2.106961906E-1,9.668081284E0,1.565855742E0
2.175731301E0,2.825244367E-1,9.720755577E0,1.381496549E0
2.177731034E0,3.232271075E-1,9.742303848E0,1.268965602E0
2.179730767E0,3.663240373E-1,9.778218269E0,1.003201127E0
2.181730500E0,4.285751879E-1,9.763853073E0,6.991282701E-1
2.183730300E0,4.764606953E-1,9.768641472E0,5.387118459E-1
2.185730033E0,5.889915824E-1,9.771035194E0,2.873129845E-1
2.187729766E0,7.661679387E-1,9.783006668E0,1.077423692E-1
2.189729499E0,8.499675393E-1,9.792584419E0,4.070267081E-2
2.191729232E0,1.154040456E0,9.775823593E0,-8.858817071E-2
2.193727932E0,1.154040456E0,9.768641472E0,-9.098244458E-2
2.195727665E0,1.204320192E0,9.749486923E0,-8.140534163E-2
2.197727398E0,1.307274103E0,9.735121727E0,1.675992459E-2
2.199727198E0,1.362342358E0,9.727938652E0,9.816526622E-2
2.201726964E0,1.441353440E0,9.708784103E0,3.280156553E-1
2.203726730E0,1.541913033E0,9.711178780E0,6.464542150E-1
2.205726496E0,1.616135478E0,9.730332375E0,8.308133483E-1
2.207725829E0,1.764580488E0,9.759063721E0,1.237840056E0
2.209725595E0,1.886688590E0,9.759063721E0,1.632895470E0
2.211725361E0,2.104567528E0,9.742303848E0,2.200338602E0
2.213725161E0,2.104567528E0,9.742303848E0,2.200338602E0
2.215724994E0,2.162030220E0,9.744698524E0,2.358360767E0
2.217724860E0,2.324840784E0,9.739910126E0,2.614548206E0
2.219724726E0,2.521171331E0,9.699207306E0,2.767781734E0
2.221724592E0,2.614548206E0,9.675264359E0,2.810878515E0
2.223724458E0,2.822849989E0,9.653716087E0,2.820455790E0
2.225724324E0,2.983266354E0,9.696812630E0,2.667222023E0
2.227724190E0,3.047911882E0,9.730332375E0,2.564268351E0
2.229724123E0,3.138894320E0,9.802161217E0,2.296109438E0
2.231724056E0,3.201145411E0,1.000806904E1,1.711906433E0
2.233724022E0,3.201145411E0,1.000806904E1,1.711906433E0
2.235723955E0,3.203539610E0,1.019482231E1,1.223474383E0
2.237723888E0,3.210722446E0,1.028341007E1,9.577099085E-1
2.239723821E0,3.229876757E0,1.045100975E1,4.094209969E-1
2.241723754E0,3.222693920E0,1.060424328E1,-1.125309169E-1
2.243723687E0,3.213116884E0,1.066888809E1,-3.711125851E-1
2.245723687E0,3.179596901E0,1.082212257E1,-8.739103079E-1
2.247723653E0,3.129317284E0,1.088437366E1,-1.098972082E0
2.249723619E0,3.038334846E0,1.097535610E1,-1.484450340E0
2.251723585E0,2.868341208E0,1.102563572E1,-1.814860344E0
2.253723518E0,2.777358770E0,1.103281784E1,-1.884294271E0
2.255723484E0,2.664827824E0,1.104957867E1,-1.922602654E0
2.257723450E0,2.387091875E0,1.102563572E1,-1.881899953E0
2.259723416E0,2.243435383E0,1.103521252E1,-1.850774407E0
2.261723416E0,1.908236980E0,1.105436707E1,-1.731060743E0
2.263723382E0,1.585009933E0,1.108309841E1,-1.534730196E0
2.265723348E0,1.436564922E0,1.114534950E1,-1.426987767E0
2.267723748E0,1.177983165E0,1.118126297E1,-1.185166001E0
2.269723714E0,1.070240855E0,1.121478367E1,-1.058269501E0
2.271723680E0,5.674431324E-1,1.140153694E1,-5.243461728E-1
2.273723680E0,5.674431324E-1,1.140153694E1,-5.243461728E-1
2.275723646E0,4.477293789E-1,1.144942188E1,-4.022381604E-1
2.277723579E0,2.466102988E-1,1.155716419E1,-1.197137386E-1
2.279723512E0,3.591412306E-2,1.164096451E1,1.723877788E-1
2.281723445E0,-6.943397224E-2,1.169603252E1,2.849186957E-1
2.283723378E0,-2.801301479E-1,1.182053471E1,4.980091453E-1
2.285723311E0,-3.759011328E-1,1.186363125E1,6.033572555E-1
2.287723244E0,-5.530774593E-1,1.192588329E1,8.188419938E-1
2.289723177E0,-8.092648983E-1,1.196897984E1,9.792584181E-1
2.291723110E0,-1.187560320E0,1.202644253E1,1.199531674E0
2.293723010E0,-1.187560320E0,1.202644253E1,1.199531674E0
2.295722876E0,-1.383890867E0,1.206953907E1,1.259388566E0
2.297722742E0,-1.453324795E0,1.209108734E1,1.225868702E0
2.299722608E0,-1.580221415E0,1.212460804E1,1.070240855E0
2.301722474E0,-1.589798450E0,1.214615631E1,9.577099085E-1
2.303722340E0,-1.544307232E0,1.216052151E1,6.584255695E-1
2.305722206E0,-1.438959122E0,1.222277260E1,3.375927508E-1
2.307722106E0,-1.362342358E0,1.225868702E1,1.652049571E-1
2.309721939E0,-1.103760719E0,1.235445786E1,-1.412622184E-1
2.311721772E0,-6.823683381E-1,1.258909702E1,-6.584255695E-1
2.313721638E0,-5.770202279E-1,1.269683933E1,-8.379961848E-1
2.315721471E0,-5.004034638E-1,1.282134151E1,-1.022355318E0
2.317721304E0,-4.453351200E-1,1.297457504E1,-1.367130876E0
2.319721137E0,-4.836435020E-1,1.333850479E1,-1.505998850E0
2.321720970E0,-6.799740195E-1,1.375271416E1,-1.747820616E0
2.323720836E0,-8.044763207E-1,1.395143890E1,-1.860351562E0
2.325720636E0,-1.019961119E0,1.424114609E1,-2.027950764E0
2.327720436E0,-1.199531674E0,1.446381378E1,-2.171607256E0
2.329720236E0,-1.259388566E0,1.455479622E1,-2.200338602E0
2.331720036E0,-1.249811411E0,1.478943539E1,-2.183578730E0
2.333719802E0,-1.173194647E0,1.485647488E1,-2.154847383E0
2.335719602E0,-1.082212210E0,1.490914917E1,-2.114144564E0
2.337719402E0,-9.026415944E-1,1.503365135E1,-2.001613855E0
2.339718768E0,-8.188419938E-1,1.510308552E1,-1.953728199E0
2.341718501E0,-5.865973234E-1,1.526589584E1,-1.881899953E0
2.343718234E0,-3.495641351E-1,1.539039803E1,-1.877111435E0
2.345717967E0,-2.490045726E-1,1.542152405E1,-1.889082789E0
2.347717700E0,-5.985686928E-2,1.543828392E1,-1.905842781E0
2.349717433E0,1.628106833E-1,1.538082123E1,-1.975276709E0
2.351717166E0,4.453351200E-1,1.525871372E1,-1.965699673E0
2.353716932E0,4.453351200E-1,1.525871372E1,-1.965699673E0
2.355716732E0,5.171633363E-1,1.521322250E1,-1.936968327E0
2.357716465E0,6.296942830E-1,1.502167988E1,-1.826831698E0
2.359716198E0,6.249057055E-1,1.473197269E1,-1.668809533E0
2.361715931E0,5.842030644E-1,1.457634544E1,-1.611346960E0
2.363715664E0,3.878725171E-1,1.423156929E1,-1.515576005E0
2.365715397E0,1.412622184E-1,1.393707371E1,-1.505998850E0
2.367715130E0,-1.675992459E-2,1.375510883E1,-1.496421814E0
2.369714930E0,-3.854782581E-1,1.335047626E1,-1.460507631E0
2.371714730E0,-1.963305324E-1,1.281415844E1,-1.441353440E0
2.373714430E0,-1.963305324E-1,1.281415844E1,-1.441353440E0
2.375714163E0,2.753416002E-1,1.257233715E1,-1.443747759E0
2.377713896E0,4.620950520E-1,1.242149734E1,-1.434170604E0
2.379713629E0,5.123748183E-1,1.201207638E1,-1.391073704E0
2.381713362E0,4.333637357E-1,1.158829021E1,-1.307274103E0
2.383713095E0,4.549122155E-1,1.141111374E1,-1.297696948E0
2.385712895E0,5.219519138E-1,1.111422348E1,-1.319245458E0
2.387712695E0,6.081457734E-1,1.097296143E1,-1.319245458E0
2.389712428E0,6.320885420E-1,1.095620155E1,-1.290514112E0
2.391712161E0,4.285751879E-1,1.113577175E1,-1.233051538E0
2.393711927E0,4.285751879E-1,1.113577175E1,-1.233051538E0
2.395711660E0,2.849186957E-1,1.123154354E1,-1.228263021E0
2.397711393E0,-8.858817071E-2,1.140632534E1,-1.175588965E0
2.399711559E0,-2.873129845E-1,1.150209618E1,-1.144463301E0
2.401711359E0,-7.494080067E-1,1.171518707E1,-1.101366401E0
2.403711092E0,-1.297696948E0,1.197855663E1,-1.149251938E0
2.405710825E0,-1.604164124E0,1.212221336E1,-1.197137356E0
2.407710558E0,-2.135693073E0,1.240952587E1,-1.280937076E0
2.409710291E0,-2.379909277E0,1.258191395E1,-1.324033976E0
2.411710024E0,-3.289733648E0,1.337920761E1,-1.532335877E0
2.413709724E0,-3.289733648E0,1.337920761E1,-1.532335877E0
2.415709457E0,-3.510006905E0,1.362102985E1,-1.599375606E0
2.417709257E0,-3.917033672E0,1.418847275E1,-1.771763325E0
2.419708423E0,-4.276175022E0,1.482295513E1,-1.984853864E0
2.421708156E0,-4.429408550E0,1.514139366E1,-2.116539001E0
2.423707889E0,-4.697566986E0,1.583333969E1,-2.387091875E0
2.425707189E0,-4.898686409E0,1.618050957E1,-2.533142805E0
2.427706922E0,-4.965725899E0,1.686766624E1,-2.832427025E0
2.429706655E0,-5.121353626E0,1.749257088E1,-3.117345810E0
2.431706388E0,-5.344021320E0,1.826592255E1,-3.280156374E0
2.433706221E0,-5.344021320E0,1.826592255E1,-3.280156374E0
2.435705954E0,-5.542746067E0,1.859154320E1,-3.313676357E0
2.437705687E0,-5.669642925E0,1.869928551E1,-3.311282158E0
2.439704487E0,-5.940196037E0,1.877350807E1,-3.198751211E0
2.441704220E0,-6.268211365E0,1.864182281E1,-2.928198099E0
2.443703953E0,-6.402290821E0,1.850056076E1,-2.729473352E0
2.445703686E0,-6.624958515E0,1.812466049E1,-2.375120640E0
2.447703419E0,-6.701575279E0,1.789002228E1,-2.236252785E0
2.449703219E0,-6.768614769E0,1.735130882E1,-2.013585091E0
2.451702952E0,-6.720729351E0,1.646542740E1,-1.774157643E0
2.453702652E0,-6.636929989E0,1.615177727E1,-1.699935079E0
2.455702385E0,-6.524398804E0,1.582615662E1,-1.635289669E0
2.457702118E0,-6.215537548E0,1.515815353E1,-1.539518714E0
2.459701851E0,-6.023995399E0,1.483013821E1,-1.496421814E0
2.461701584E0,-5.540351868E0,1.421720409E1,-1.484450340E0
2.463701384E0,-5.250644684E0,1.394186211E1,-1.477267504E0
2.465701184E0,-4.546727657E0,1.348455620E1,-1.450930476E0
2.467700917E0,-3.823656797E0,1.308471203E1,-1.405439258E0
2.469700650E0,-3.526766777E0,1.287640953E1,-1.379102230E0
2.471700383E0,-2.717501879E0,1.196419144E1,-1.292908430E0
2.473700149E0,-2.717501879E0,1.196419144E1,-1.292908430E0
2.475699882E0,-2.581028223E0,1.178462029E1,-1.223474383E0
2.477699615E0,-2.348783493E0,1.149012470E1,-9.648927450E-1
2.479699981E0,-2.188367128E0,1.138477707E1,-7.757450342E-1
2.481699714E0,-2.128510237E0,1.120520592E1,-3.519583941E-1
2.483699447E0,-2.042316437E0,1.101845264E1,8.379961550E-2
2.485699613E0,-2.006402254E0,1.092507553E1,2.705530524E-1
2.487699346E0,-1.932179809E0,1.078381348E1,5.674431324E-1
2.489699079E0,-1.915419817E0,1.073114014E1,8.691217303E-1
2.491698812E0,-1.996825218E0,1.074071693E1,1.412622094E0
2.493698512E0,-1.996825218E0,1.074071693E1,1.412622094E0
2.495698312E0,-2.094990492E0,1.070240879E1,1.637683988E0
2.497698045E0,-2.073441982E0,1.068325424E1,1.580221415E0
2.499698711E0,-1.891477108E0,1.077423668E1,1.154040456E0
2.501698444E0,-1.778946161E0,1.087240219E1,8.356019258E-1
2.503698177E0,-1.539518714E0,1.117168617E1,1.532335877E-1
2.505697910E0,-1.304879785E0,1.150209618E1,-5.195576549E-1
2.507697643E0,-1.177983165E0,1.164335823E1,-8.260248303E-1
2.509697376E0,-8.571503758E-1,1.189236259E1,-1.352765322E0
2.511697176E0,-3.759011328E-1,1.208390522E1,-1.573038578E0
2.513696942E0,-2.322446555E-1,1.208390522E1,-1.446141958E0
2.515696675E0,-1.125309169E-1,1.208869362E1,-1.285725594E0
2.517696408E0,-1.436564885E-2,1.205277920E1,-1.101366401E0
2.519696141E0,1.125309169E-1,1.192827702E1,-6.273000240E-1
2.521695874E0,1.747820675E-1,1.177025509E1,-1.197137386E-1
2.523695607E0,1.580221355E-1,1.168406105E1,1.149251908E-1
2.525695340E0,4.788549617E-2,1.150209618E1,5.698373914E-1
2.527695140E0,-1.652049571E-1,1.136801720E1,9.816526771E-1
2.529694873E0,-2.968900800E-1,1.130337143E1,1.170800328E0
2.531694606E0,-8.164477348E-1,1.088916206E1,1.601769805E0
2.533694306E0,-9.816526771E-1,1.074071693E1,1.683175206E0
2.535694039E0,-1.115732074E0,1.061621475E1,1.764580488E0
2.537693772E0,-1.261782765E0,1.037439251E1,1.917814136E0
2.539693505E0,-1.319245458E0,1.023552513E1,1.992036581E0
2.541693305E0,-1.417410731E0,9.972154617E0,2.183578730E0
2.543693105E0,-1.479661822E0,9.725543976E0,2.355966330E0
2.545692838E0,-1.505998850E0,9.593858719E0,2.432583094E0
2.547692571E0,-1.546701550E0,9.325700760E0,2.535537004E0
2.549692304E0,-1.501210332E0,9.071907043E0,2.511594296E0
2.551692037E0,-1.297696948E0,8.775016785E0,2.219492674E0
2.553691770E0,-1.297696948E0,8.775016785E0,2.219492674E0
2.555691503E0,-1.218685865E0,8.700794220E0,2.059076309E0
2.557691303E0,-1.053480864E0,8.549955368E0,1.640078187E0
2.559691103E0,-8.619389534E-1,8.372778893E0,1.189954638E0
2.561690836E0,-7.925049663E-1,8.265036583E0,9.912297726E-1
2.563690569E0,-6.608198285E-1,8.008849144E0,6.057515144E-1
2.565690302E0,-4.668835998E-1,7.764633179E0,2.106961906E-1
2.567690035E0,-3.232271075E-1,7.632947922E0,2.394274808E-3
2.569689768E0,-2.633702382E-2,7.343240738E0,-4.166038036E-1
2.571689501E0,2.298503816E-1,6.780586243E0,-7.948992252E-1
2.573689267E0,3.040728867E-1,6.562707424E0,-8.499675393E-1
2.575689000E0,3.878725171E-1,6.347222328E0,-8.906702399E-1
2.577688733E0,4.573064744E-1,6.138920784E0,-9.385557175E-1
2.579688466E0,5.746259689E-1,5.746259689E0,-9.912297726E-1
2.581688199E0,6.105400920E-1,5.430215359E0,-1.029538155E0
2.583687932E0,6.177229285E-1,5.281770229E0,-1.063058019E0
2.585687665E0,5.937801600E-1,5.008822918E0,-1.063058019E0
2.587687398E0,5.291347504E-1,4.879531860E0,-1.031932473E0
2.589687198E0,4.932205975E-1,4.652075768E0,-9.194015265E-1
2.591686931E0,3.304099143E-1,4.357580185E0,-6.344828010E-1
2.593686697E0,3.136500120E-1,4.266597748E0,-5.291347504E-1
2.595686430E0,2.968900800E-1,4.209135056E0,-4.189980924E-1
2.597686163E0,2.346389294E-1,4.091815472E0,-2.729473412E-1
2.599685896E0,2.178790122E-1,4.024775982E0,-2.394274771E-1
2.601685629E0,1.556278616E-1,3.912245035E0,-2.130904645E-1
2.603685362E0,7.661679387E-2,3.785348415E0,-1.939362586E-1
2.605685162E0,4.549122229E-2,3.713520288E0,-2.083019018E-1
2.607684895E0,-4.549122229E-2,3.567469358E0,-2.130904645E-1
2.609684628E0,-7.182824612E-2,3.490852594E0,-2.130904645E-1
2.611684361E0,-3.016786277E-1,3.203539610E0,-8.379961550E-2
2.613684094E0,-3.016786277E-1,3.203539610E0,-8.379961550E-2
2.615683827E0,-3.375927508E-1,3.131711483E0,-9.577099234E-2
2.617683560E0,-2.968900800E-1,3.009603500E0,-1.125309169E-1
2.619683293E0,-2.897072434E-1,2.868341208E0,-9.577099234E-2
2.621683093E0,-3.184385598E-1,2.808484316E0,-8.858817071E-2
2.623682826E0,-3.447755575E-1,2.672010660E0,-3.112557158E-2
2.625682559E0,-3.663240373E-1,2.607365370E0,-1.675992459E-2
2.627682859E0,-3.998439014E-1,2.494834423E0,1.675992459E-2
2.629682592E0,-4.429408312E-1,2.399063349E0,4.788549617E-2
2.631682325E0,-4.716721475E-1,2.274561167E0,6.703969836E-2
2.633682091E0,-4.716721475E-1,2.274561167E0,6.703969836E-2
2.635681891E0,-5.051919818E-1,2.224281311E0,8.379961550E-2
2.637681691E0,-5.315290093E-1,2.195549965E0,9.098244458E-2
2.639681424E0,-5.698373914E-1,2.145270348E0,8.379961550E-2
2.641681057E0,-5.626545548E-1,2.138087511E0,6.225114316E-2
2.643680790E0,-5.746259689E-1,2.159635782E0,1.675992459E-2
2.645680523E0,-5.842030644E-1,2.164424419E0,-2.394274808E-2
2.647680256E0,-5.626545548E-1,2.174001455E0,-4.309694469E-2
2.649679989E0,-5.315290093E-1,2.195549965E0,-1.221080124E-1
2.651679789E0,-5.291347504E-1,2.317657948E0,-2.035133541E-1
2.653679522E0,-5.219519138E-1,2.370332003E0,-2.466102988E-1
2.655679288E0,-5.219519138E-1,2.413429022E0,-2.729473412E-1
2.657679054E0,-5.339232683E-1,2.499622822E0,-2.873129845E-1
2.659678820E0,-5.482889414E-1,2.525959969E0,-2.921015322E-1
2.661678586E0,-5.889915824E-1,2.600182533E0,-2.705530524E-1
2.663678352E0,-6.129343510E-1,2.652856588E0,-2.513988614E-1
2.665678118E0,-6.536370516E-1,2.762993097E0,-2.298503816E-1
2.667677951E0,-7.182824612E-1,2.849187136E0,-1.604164094E-1
2.669677717E0,-7.518022656E-1,2.887495518E0,-1.221080124E-1
2.671677483E0,-9.457385540E-1,2.983266354E0,-2.154847234E-2
2.673677283E0,-9.457385540E-1,2.983266354E0,-2.154847234E-2
2.675677049E0,-9.816526771E-1,3.004814863E0,2.154847234E-2
2.677676815E0,-1.048692346E0,3.052700281E0,6.943397224E-2
2.679676581E0,-1.075029373E0,3.088614464E0,9.337671846E-2
2.681676347E0,-1.163617611E0,3.143682718E0,1.340793967E-1
2.683676180E0,-1.302485466E0,3.237059593E0,1.963305324E-1
2.685675513E0,-1.357553840E0,3.275367975E0,2.322446555E-1
2.687674713E0,-1.443747759E0,3.335224867E0,2.873129845E-1
2.689674479E0,-1.580221415E0,3.407052994E0,3.687183261E-1
2.691674245E0,-1.743032098E0,3.529160976E0,4.549122155E-1
2.693673978E0,-1.743032098E0,3.529160976E0,4.549122155E-1
2.695673744E0,-1.862745762E0,3.579440832E0,4.884320498E-1
2.697673510E0,-1.932179809E0,3.644086361E0,5.602602959E-1
2.699673343E0,-2.044710636E0,3.713520288E0,6.536370516E-1
2.701673209E0,-2.097384691E0,3.739857197E0,6.967339516E-1
2.703672975E0,-2.197944164E0,3.775771379E0,7.925049663E-1
2.705672741E0,-2.317657948E0,3.782954216E0,8.954587579E-1
2.707672507E0,-2.379909277E0,3.787742853E0,9.529213905E-1
2.709672273E0,-2.502017260E0,3.799714088E0,1.053480864E0
2.711672039E0,-2.633702278E0,3.806896925E0,1.268965602E0
2.713671872E0,-2.676799297E0,3.806896925E0,1.268965602E0
2.715671672E0,-2.712713242E0,3.780560017E0,1.379102230E0
2.717671405E0,-2.767781734E0,3.756617069E0,1.453324795E0
2.719671138E0,-2.846792698E0,3.723097324E0,1.637683988E0
2.721670871E0,-2.877918243E0,3.680000305E0,1.805283189E0
2.723670204E0,-2.894678354E0,3.646480560E0,1.901054144E0
2.725669937E0,-2.918621063E0,3.605777979E0,2.085413456E0
2.727669670E0,-2.918621063E0,3.562680960E0,2.269772530E0
2.729669470E0,-2.916226625E0,3.533949614E0,2.365543604E0
2.731668270E0,-2.916226625E0,3.452544212E0,2.691164970E0
2.733667936E0,-2.923409462E0,3.423812866E0,2.801301479E0
2.735667669E0,-2.932986736E0,3.402264595E0,2.913832426E0
2.737667402E0,-2.949746609E0,3.375927448E0,3.138894320E0
2.739667135E0,-2.966506481E0,3.366350412E0,3.251425266E0
2.741666435E0,-2.954535007E0,3.419024467E0,3.486064196E0
2.743666168E0,-2.942563772E0,3.471698523E0,3.687183142E0
2.745666401E0,-2.925803900E0,3.521978140E0,3.780560017E0
2.747666134E0,-2.882706881E0,3.596200705E0,3.950553417E0
2.749665867E0,-2.813272953E0,3.646480560E0,4.043930054E0
2.751665600E0,-2.549902678E0,3.936187744E0,4.302511692E0
2.753665366E0,-2.549902678E0,3.936187744E0,4.302511692E0
2.755665099E0,-2.456526041E0,4.041535854E0,4.348002911E0
2.757664832E0,-2.241041183E0,4.254626274E0,4.417437077E0
2.759664565E0,-2.011190891E0,4.491659641E0,4.484476566E0
2.761664365E0,-1.881899953E0,4.620950222E0,4.510813713E0
2.763664098E0,-1.601769805E0,4.893897533E0,4.589824677E0
2.765663831E0,-1.285725594E0,5.195576191E0,4.671230316E0
2.767663564E0,-1.132491946E0,5.367964268E0,4.716721535E0
2.769663297E0,-7.757450342E-1,5.760625362E0,4.834040642E0
2.771663030E0,-3.902668059E-1,6.498061657E0,5.020794392E0
2.773662730E0,-3.902668059E-1,6.498061657E0,5.020794392E0
2.775662463E0,-1.795706153E-1,7.015225410E0,5.080651283E0
2.777662263E0,-5.267404765E-2,7.307326794E0,5.116565228E0
2.779661996E0,2.298503816E-1,7.963357925E0,5.162056446E0
2.781661729E0,5.027977228E-1,8.727131844E0,5.147690773E0
2.783661862E0,6.416656375E-1,9.143735886E0,5.123748302E0
2.785661595E0,8.403904438E-1,1.003919411E1,5.097411156E0
2.787661328E0,9.337671995E-1,1.052523232E1,5.097411156E0
2.789661061E0,1.161223292E0,1.160026169E1,5.147690773E0
2.791661794E0,1.553884387E0,1.346300697E1,5.341627121E0
2.793661660E0,1.656838179E0,1.413579845E1,5.482889175E0
2.795661393E0,1.757397652E0,1.482056141E1,5.650488377E0
2.797661126E0,1.996825218E0,1.633374214E1,5.990475655E0
2.799660859E0,2.128510237E0,1.719568253E1,6.198777676E0
2.801661025E0,2.370332003E0,1.903209114E1,6.747066498E0
2.803660758E0,2.490045786E0,1.998740578E1,7.077476501E0
2.805660491E0,2.490045786E0,2.202493477E1,7.762238979E0
2.807660291E0,2.442160368E0,2.414147377E1,8.463761330E0
2.809660091E0,2.379909277E0,2.524523354E1,8.839662552E0
2.811659824E0,1.520364523E0,2.909283257E1,1.030256462E1
2.813659524E0,1.520364523E0,2.909283257E1,1.030256462E1
2.815659257E0,1.012778282E0,2.968661308E1,1.062339687E1
2.817658990E0,-2.873129845E-1,3.041207886E1,1.127224541E1
2.819658723E0,-1.460507631E0,3.069939232E1,1.175110054E1
2.821658456E0,-1.989642382E0,3.059165001E1,1.182771778E1
2.823658256E0,-3.081431627E0,2.966985321E1,1.166969585E1
2.825657989E0,-3.624932051E0,2.896114731E1,1.143505669E1
2.827657722E0,-4.510813713E0,2.730191612E1,1.081015110E1
2.829657455E0,-5.176422119E0,2.532184982E1,1.006313705E1
2.831657188E0,-5.901887417E0,2.198901939E1,9.012050629E0
2.833656954E0,-5.901887417E0,2.198901939E1,9.012050629E0
2.835656687E0,-6.155680656E0,1.985572052E1,8.494887352E0
2.837656420E0,-6.184412003E0,1.886209679E1,8.308133125E0
2.839655820E0,-6.110189438E0,1.700413895E1,8.059128761E0
2.841655553E0,-6.007235527E0,1.613262367E1,7.982511997E0
2.843655286E0,-5.803721905E0,1.456197929E1,7.858009815E0
2.845655019E0,-5.660065651E0,1.323794556E1,7.580274105E0
2.847654752E0,-5.607391834E0,1.264177132E1,7.412674904E0
2.849654485E0,-5.573871613E0,1.157871342E1,7.036773682E0
2.851654218E0,-5.815693378E0,1.034566116E1,6.409473896E0
2.853653918E0,-5.930618763E0,1.034566116E1,6.409473896E0
2.855653718E0,-6.052726746E0,9.785401344E0,6.016812801E0
2.857653451E0,-6.352011204E0,9.603436470E0,5.825270653E0
2.859653184E0,-6.486090660E0,9.466962814E0,5.533169270E0
2.861652917E0,-6.668055534E0,9.668081284E0,5.499649048E0
2.863652650E0,-6.682421207E0,9.912297249E0,5.616968632E0
2.865652383E0,-6.519610405E0,1.061860847E1,6.124555111E0
2.867652116E0,-6.014418125E0,1.156913567E1,6.823683262E0
2.869651849E0,-5.657671452E0,1.211263657E1,7.120573044E0
2.871651649E0,-3.787742853E0,1.436085987E1,7.623371124E0
2.873651415E0,-3.787742853E0,1.436085987E1,7.623371124E0
2.875651148E0,-3.275367975E0,1.490196609E1,7.573091030E0
2.877650881E0,-2.269772530E0,1.588601303E1,7.309720993E0
2.879650614E0,-1.810071707E0,1.637444496E1,7.029590607E0
2.881650347E0,-9.122186899E-1,1.735370445E1,6.201171875E0
2.883650080E0,-8.858817071E-2,1.806001472E1,5.047131062E0
2.885649880E0,2.825244367E-1,1.836408806E1,4.340820312E0
2.887649680E0,9.002473354E-1,1.881660652E1,2.710319042E0
2.889649413E0,1.400650740E0,1.887406921E1,1.187560320E0
2.891649146E0,1.675992370E0,1.828986549E1,-7.374366522E-1
2.893648846E0,1.675992370E0,1.828986549E1,-7.374366522E-1
2.895648579E0,1.640078187E0,1.791635895E1,-1.199531674E0
2.897648312E0,1.486844659E0,1.692512894E1,-1.893871427E0
2.899648445E0,1.075029373E0,1.553166103E1,-2.147664547E0
2.901648245E0,7.948992252E-1,1.477985859E1,-2.257801056E0
2.903647978E0,2.035133541E-1,1.318048286E1,-2.511594296E0
2.905647711E0,-4.932205975E-1,1.168406105E1,-3.021574736E0
2.907647444E0,-8.116591573E-1,1.100408745E1,-3.383110285E0
2.909647177E0,-1.331216812E0,9.838075638E0,-4.304905891E0
2.911646910E0,-1.922602654E0,8.231516838E0,-5.904281616E0
2.913646676E0,-1.922602654E0,8.231516838E0,-5.904281616E0
2.915646409E0,-2.276955366E0,7.175641537E0,-6.864386082E0
2.917646209E0,-2.367937803E0,6.644112587E0,-7.194795609E0
2.919645942E0,-2.413429022E0,5.542746067E0,-7.539571285E0
2.921645675E0,-2.346389294E0,4.391099930E0,-7.453377247E0
2.923645408E0,-2.343995094E0,3.821262598E0,-7.292961121E0
2.925645141E0,-2.370332003E0,2.822849989E0,-6.797346115E0
2.927644874E0,-2.468497276E0,1.987248063E0,-6.198777676E0
2.929644607E0,-2.557085514E0,1.671203852E0,-5.854001999E0
2.931644340E0,-2.861158371E0,1.043903828E0,-4.259414673E0
2.933644106E0,-2.861158371E0,1.043903828E0,-4.259414673E0
2.935643839E0,-2.961717844E0,1.065452337E0,-3.751828671E0
2.937643572E0,-3.081431627E0,1.273754239E0,-2.609759569E0
2.939643305E0,-3.136499882E0,1.431776285E0,-1.958516836E0
2.941643038E0,-3.196356773E0,1.802888989E0,-5.195576549E-1
2.943644638E0,-3.263396502E0,2.178790092E0,9.074301720E-1
2.945644371E0,-3.340013266E0,2.339206457E0,1.513181686E0
2.947644104E0,-3.526766777E0,2.576239586E0,2.298503876E0
2.949643904E0,-3.646480560E0,2.688770533E0,2.406246185E0
2.951643637E0,-3.864359617E0,3.253819466E0,1.304879785E0
2.953643403E0,-3.864359617E0,3.253819466E0,1.304879785E0
2.955643136E0,-3.833234072E0,3.399870157E0,8.978530765E-1
2.957642869E0,-3.742251635E0,3.720703125E0,1.460507661E-1
2.959642602E0,-3.610566378E0,4.079844475E0,-4.261809289E-1
2.961642335E0,-3.512401104E0,4.268991947E0,-6.392713785E-1
2.963642135E0,-3.237059593E0,4.695172787E0,-9.792584181E-1
2.965641468E0,-2.904255390E0,4.920234680E0,-1.273754239E0
2.967641201E0,-2.707924843E0,5.435003757E0,-1.424593568E0
2.969640934E0,-2.241041183E0,6.105400562E0,-1.726272106E0
2.971640667E0,-1.314456820E0,7.331269264E0,-2.150058746E0
2.973640400E0,-1.314456820E0,7.331269264E0,-2.150058746E0
2.975640133E0,-6.847625971E-1,8.269824982E0,-2.401457548E0
2.977639866E0,-3.974496126E-1,8.760651588E0,-2.497228622E0
2.979639666E0,8.140534163E-2,9.739910126E0,-2.645673752E0
2.981639399E0,4.932205975E-1,1.021637058E1,-2.710319042E0
2.983639132E0,6.536370516E-1,1.113337803E1,-2.717501879E0
2.985638865E0,9.194015265E-1,1.188996887E1,-2.698347807E0
2.987638598E0,1.039115310E0,1.219883060E1,-2.683982134E0
2.989638331E0,1.170800328E0,1.270162773E1,-2.655250788E0
2.991638064E0,1.259388566E0,1.325709915E1,-2.537931204E0
2.993637797E0,1.264177084E0,1.336005306E1,-2.449343204E0
2.995637597E0,1.266571403E0,1.344145870E1,-2.382303476E0
2.997637330E0,1.235445857E0,1.357074928E1,-2.320052385E0
2.999637063E0,1.237840056E0,1.364497185E1,-2.310475111E0
3.001636796E0,1.268965602E0,1.378862858E1,-2.260195494E0
3.003634662E0,1.264177084E0,1.383411980E1,-2.238646984E0
3.005634395E0,1.259388566E0,1.390594769E1,-2.171607256E0
3.007634128E0,1.252205729E0,1.396580505E1,-2.106961727E0
3.009633861E0,1.280937076E0,1.401368999E1,-2.039922237E0
3.011633661E0,1.616135478E0,1.428663731E1,-1.616135478E0
3.013633394E0,1.616135478E0,1.428663731E1,-1.616135478E0
3.015633127E0,1.731060743E0,1.433931160E1,-1.438959122E0
3.017632860E0,1.934574008E0,1.435607147E1,-1.065452337E0
3.019632593E0,2.087807655E0,1.433212948E1,-8.858816624E-1
3.021632326E0,2.133298874E0,1.417410660E1,-5.650488734E-1
3.023632059E0,2.166818619E0,1.388439941E1,-2.873129845E-1
3.025632259E0,2.188367128E0,1.370243454E1,-2.035133541E-1
3.027632059E0,2.267378330E0,1.328822517E1,-8.619388938E-2
3.029631792E0,2.317657948E0,1.279979324E1,-7.182824612E-2
3.031631525E0,2.427794695E0,1.201925945E1,-1.963305324E-1
3.033631225E0,2.427794695E0,1.201925945E1,-1.963305324E-1
3.035630958E0,2.518777132E0,1.174870682E1,-3.184385598E-1
3.037630691E0,2.545114040E0,1.121238899E1,-3.830839694E-1
3.039630424E0,2.626519442E0,1.070480251E1,-5.027977228E-1
3.041630224E0,2.683982134E0,1.049650097E1,-5.435003638E-1
3.043630024E0,2.810878515E0,1.017327404E1,-6.320885420E-1
3.045629757E0,2.868341208E0,9.806949615E0,-6.919454336E-1
3.047629123E0,2.873129845E0,9.627379417E0,-7.158881426E-1
3.049628856E0,2.820455790E0,9.308940887E0,-7.757450342E-1
3.051628589E0,2.734261751E0,8.940221786E0,-8.092648983E-1
3.053628355E0,2.698347807E0,8.837267876E0,-7.901107073E-1
3.055628088E0,2.626519442E0,8.753468513E0,-7.254652381E-1
3.057627888E0,2.535537004E0,8.662486076E0,-6.368771195E-1
3.059627688E0,2.315263748E0,8.490098000E0,-4.477293789E-1
3.061627454E0,2.056682110E0,8.339259148E0,-2.370332032E-1
3.063627220E0,1.939362645E0,8.288979530E0,-1.460507661E-1
3.065626986E0,1.699935079E0,8.174054146E0,2.394274808E-3
3.067626752E0,1.532335877E0,8.109408379E0,1.316851079E-1
3.069626518E0,1.450930476E0,8.092648506E0,1.771763414E-1
3.071626284E0,1.199531674E0,8.049551964E0,2.250618339E-1
3.073626084E0,1.101366401E0,8.037580490E0,2.178790122E-1
3.075625850E0,9.984126091E-1,8.028003693E0,2.035133541E-1
3.077625616E0,7.613793612E-1,7.953781128E0,1.652049571E-1
3.079625382E0,6.440598965E-1,7.920260906E0,1.364736706E-1
3.081625148E0,4.070267081E-1,7.889135361E0,9.098244458E-2
3.083624914E0,2.274561077E-1,7.941809654E0,2.873129770E-2
3.085624680E0,1.723877788E-1,7.982511997E0,-2.394274808E-3
3.087624446E0,1.125309169E-1,8.083071709E0,-7.901106775E-2
3.089624279E0,2.873129770E-2,8.128562927E0,-1.699935049E-1
3.091624045E0,-1.316851079E-1,8.327287674E0,-2.059076279E-1
3.093623845E0,-1.316851079E-1,8.327287674E0,-2.059076279E-1
3.095623611E0,-2.346389294E-1,8.363202095E0,-1.987248063E-1
3.097623377E0,-4.333637357E-1,8.447001457E0,-2.370332032E-1
3.099623143E0,-5.339232683E-1,8.549955368E0,-2.992843390E-1
3.101622909E0,-5.506832004E-1,8.607418060E0,-3.208328187E-1
3.103622675E0,-5.339232683E-1,8.684034348E0,-3.902668059E-1
3.105622508E0,-4.860377908E-1,8.724737167E0,-4.620950520E-1
3.107622641E0,-4.836435020E-1,8.727131844E0,-5.027977228E-1
3.109622407E0,-4.644893110E-1,8.736708641E0,-5.578660369E-1
3.111622173E0,-5.411061049E-1,8.808537483E0,-6.177229285E-1
3.113621906E0,-5.961744189E-1,8.808537483E0,-6.273000240E-1
3.115621672E0,-6.632141471E-1,8.803748131E0,-6.536370516E-1
3.117621438E0,-7.134938836E-1,8.806142807E0,-6.823683381E-1
3.119621204E0,-7.541965842E-1,8.775016785E0,-6.847625971E-1
3.121621004E0,-8.403904438E-1,8.736708641E0,-6.129343510E-1
3.123620737E0,-8.858816624E-1,8.727131844E0,-5.602602959E-1
3.125620470E0,-1.036720991E0,8.731920242E0,-4.118152559E-1
3.127620203E0,-1.115732074E0,8.731920242E0,-3.160442710E-1
3.129619936E0,-1.240234375E0,8.739103317E0,-1.628106833E-1
3.131619669E0,-1.254600048E0,8.786988258E0,-1.436564885E-2
3.133619435E0,-1.221080184E0,8.803748131E0,7.182824425E-3
3.135619235E0,-1.201925993E0,8.822902679E0,1.915419847E-2
3.137619035E0,-1.180377483E0,8.830085754E0,4.549122229E-2
3.139618768E0,-1.156434774E0,8.839662552E0,6.225114316E-2
3.141618501E0,-1.082212210E0,8.834874153E0,6.943397224E-2
3.143618234E0,-9.481328130E-1,8.820508003E0,6.703969836E-2
3.145617967E0,-8.619389534E-1,8.806142807E0,5.746259540E-2
3.147617700E0,-6.680026650E-1,8.748680115E0,5.746259540E-2
3.149617433E0,-5.842030644E-1,8.712765694E0,7.422251999E-2
3.151617266E0,-3.495641351E-1,8.470944405E0,1.843591630E-1
3.153616999E0,-3.495641351E-1,8.470944405E0,1.843591630E-1
3.155957310E0,-3.447755575E-1,8.437424660E0,2.322446555E-1
3.157957043E0,-3.759011328E-1,8.360807419E0,3.184385598E-1
3.159956776E0,-3.782954216E-1,8.353624344E0,3.759011328E-1
3.161956509E0,-3.806896806E-1,8.358413696E0,3.998439014E-1
3.163956242E0,-3.830839694E-1,8.377567291E0,4.381522834E-1
3.165955975E0,-4.046324492E-1,8.382355690E0,4.573064744E-1
3.167955775E0,-4.620950520E-1,8.413481712E0,5.267404318E-1
3.169955508E0,-5.075862408E-1,8.456578255E0,5.913859010E-1
3.171955241E0,-5.913859010E-1,8.523618698E0,6.201171875E-1
3.173955007E0,-5.913859010E-1,8.523618698E0,6.201171875E-1
3.175954740E0,-6.368771195E-1,8.573898315E0,6.033572555E-1
3.177954473E0,-6.727912426E-1,8.602629662E0,5.794144869E-1
3.179954206E0,-6.703969240E-1,8.662486076E0,4.908263385E-1
3.181953939E0,-6.608198285E-1,8.703188896E0,4.453351200E-1
3.183953739E0,-6.536370516E-1,8.789382935E0,3.040728867E-1
3.185953472E0,-5.722316504E-1,8.889942169E0,1.268965602E-1
3.187953205E0,-5.387118459E-1,8.937828064E0,3.112557158E-2
3.189952938E0,-4.932205975E-1,8.985713005E0,-1.532335877E-1
3.191952671E0,-5.219519138E-1,9.021627426E0,-4.285751879E-1
3.193952371E0,-5.267404318E-1,9.052753448E0,-5.267404318E-1
3.195952104E0,-5.051919818E-1,9.093455315E0,-6.057515144E-1
3.197951837E0,-4.740664065E-1,9.129369736E0,-7.302538157E-1
3.199951637E0,-4.740664065E-1,9.158101082E0,-7.925049663E-1
3.201951370E0,-4.692778587E-1,9.189227104E0,-8.499675393E-1
3.203951103E0,-4.549122155E-1,9.201197624E0,-8.691217303E-1
3.205950836E0,-4.309694767E-1,9.201197624E0,-8.643332124E-1
3.207950569E0,-3.806896806E-1,9.222746849E0,-8.451790214E-1
3.209950302E0,-3.591412306E-1,9.232323647E0,-8.595446348E-1
3.211950002E0,-3.112557232E-1,9.246688843E0,-8.715160489E-1
3.213949802E0,-3.112557232E-1,9.246688843E0,-8.715160489E-1
3.215949602E0,-2.968900800E-1,9.261054993E0,-8.691217303E-1
3.217949335E0,-2.681587934E-1,9.273026466E0,-8.475732803E-1
3.219949068E0,-2.609759569E-1,9.265843391E0,-8.308133483E-1
3.221948801E0,-2.513988614E-1,9.237112045E0,-7.877163887E-1
3.223948534E0,-2.490045726E-1,9.215563774E0,-7.326480746E-1
3.225948267E0,-2.513988614E-1,9.191620827E0,-6.967339516E-1
3.227948000E0,-1.891477108E-1,9.167677879E0,-6.273000240E-1
3.229947800E0,-1.628106833E-1,9.148524284E0,-5.865973234E-1
3.231947533E0,-1.388679445E-1,9.134158134E0,-5.339232683E-1
3.233947233E0,-1.388679445E-1,9.134158134E0,-5.339232683E-1
3.235946966E0,-1.268965602E-1,9.148524284E0,-5.315290093E-1
3.237946699E0,-1.053480953E-1,9.167677879E0,-5.267404318E-1
3.239946432E0,-8.858817071E-2,9.191620827E0,-5.243461728E-1
3.241946165E0,-9.098244458E-2,9.191620827E0,-5.435003638E-1
3.243945898E0,-7.182824612E-2,9.184437752E0,-5.602602959E-1
3.245945698E0,-4.309694469E-2,9.194015503E0,-5.770202279E-1
3.247945431E0,-2.873129770E-2,9.203592300E0,-5.913859010E-1
3.249945164E0,2.394274808E-3,9.213169098E0,-6.129343510E-1
3.251944897E0,5.746259540E-2,9.217958450E0,-6.249057055E-1
3.253944663E0,5.746259540E-2,9.217958450E0,-6.320885420E-1
3.255944396E0,5.267404765E-2,9.241900444E0,-6.296942830E-1
3.257944129E0,5.985686928E-2,9.268238068E0,-6.177229285E-1
3.259943862E0,1.101366431E-1,9.304151535E0,-5.889915824E-1
3.261943662E0,1.556278616E-1,9.368797302E0,-5.339232683E-1
3.263943395E0,1.843591630E-1,9.402317047E0,-5.075862408E-1
3.265943128E0,2.130904645E-1,9.483722687E0,-4.429408312E-1
3.267942861E0,2.322446555E-1,9.543579102E0,-3.615354896E-1
3.269942594E0,2.490045726E-1,9.577098846E0,-3.208328187E-1
3.271942327E0,2.873129845E-1,9.696812630E0,-2.059076279E-1
3.273942027E0,3.160442710E-1,9.737515450E0,-1.580221355E-1
3.275941760E0,3.256213665E-1,9.785401344E0,-1.077423692E-1
3.277941560E0,3.471698463E-1,9.873989105E0,-3.112557158E-2
3.279941293E0,3.567469418E-1,9.926663399E0,7.182824425E-3
3.281941026E0,3.639297783E-1,9.996097565E0,7.182824612E-2
3.283940759E0,3.591412306E-1,1.006792545E1,1.197137386E-1
3.285940492E0,3.615354896E-1,1.009665680E1,1.388679445E-1
3.287940225E0,3.902668059E-1,1.016130257E1,1.675992310E-1
3.289939958E0,3.878725171E-1,1.018045616E1,1.819648892E-1
3.291939758E0,3.759011328E-1,1.027862167E1,2.418217510E-1
3.293939591E0,3.759011328E-1,1.027862167E1,2.418217510E-1
3.295939357E0,3.687183261E-1,1.028580475E1,2.657645047E-1
3.297939123E0,3.208328187E-1,1.026425648E1,2.992843390E-1
3.299938889E0,2.346389294E-1,1.020200539E1,3.471698463E-1
3.301938655E0,2.035133541E-1,1.017566776E1,3.974496126E-1
3.303938421E0,1.268965602E-1,1.009426212E1,4.836435020E-1
3.305938187E0,2.154847234E-2,1.004158878E1,5.435003638E-1
3.307938020E0,-2.633702382E-2,9.917086601E0,5.794144869E-1
3.309937853E0,-1.532335877E-1,9.799766541E0,6.536370516E-1
3.311937653E0,-2.729473412E-1,9.629773140E0,7.422251701E-1
3.313937419E0,-2.729473412E-1,9.629773140E0,7.422251701E-1
3.315937219E0,-3.208328187E-1,9.526819229E0,7.901107073E-1
3.317937019E0,-3.495641351E-1,9.488511086E0,8.116591573E-1
3.319936819E0,-3.591412306E-1,9.438231468E0,8.284190893E-1
3.321936619E0,-3.280156553E-1,9.426259995E0,7.948992252E-1
3.323936485E0,-2.992843390E-1,9.440625191E0,7.733507752E-1
3.325936351E0,-1.388679445E-1,9.488511086E0,6.919454336E-1
3.327936217E0,-4.309694469E-2,9.534002304E0,6.392713785E-1
3.329936083E0,1.652049571E-1,9.627379417E0,5.123748183E-1
3.331935949E0,5.363175869E-1,9.785401344E0,2.801301479E-1
3.333935849E0,6.799740195E-1,9.835680962E0,1.867534369E-1
3.335935715E0,8.332076073E-1,9.878777504E0,1.029538140E-1
3.337935581E0,1.161223292E0,9.938634872E0,-7.901106775E-2
3.339935514E0,1.343188167E0,9.972154617E0,-1.891477108E-1
3.341935380E0,1.659232497E0,1.002004051E1,-4.309694767E-1
3.343935246E0,1.793311834E0,1.004637718E1,-5.482889414E-1
3.345935112E0,2.071047783E0,1.011341667E1,-7.685621977E-1
3.347934978E0,2.305686712E0,1.018524456E1,-9.744698405E-1
3.349934844E0,2.427794695E0,1.019721603E1,-1.084606528E0
3.351934710E0,2.827638626E0,1.028341007E1,-1.412622094E0
3.353934543E0,2.827638626E0,1.028341007E1,-1.412622094E0
3.355934443E0,2.899466753E0,1.030495834E1,-1.434170604E0
3.357934276E0,2.983266354E0,1.031692982E1,-1.431776285E0
3.359934109E0,3.023969173E0,1.031214142E1,-1.359948039E0
3.361933942E0,3.014391899E0,1.027383327E1,-1.290514112E0
3.363933775E0,2.956929445E0,1.024749660E1,-1.098972082E0
3.365933608E0,2.923409462E0,1.024510193E1,-9.912297726E-1
3.367933441E0,2.842004299E0,1.024031353E1,-7.613793612E-1
3.369933274E0,2.755810261E0,1.024749660E1,-5.435003638E-1
3.371933140E0,2.545114040E0,1.023073673E1,-2.250618339E-1
3.373932973E0,2.545114040E0,1.023073673E1,-2.250618339E-1
3.375932773E0,2.348783493E0,1.023313046E1,-9.816526622E-2
3.377932573E0,2.200338602E0,1.022834206E1,-4.070267081E-2
3.379932373E0,1.886688590E0,1.027862167E1,1.436564885E-2
3.381932173E0,1.735849261E0,1.033368969E1,4.788549617E-2
3.383931973E0,1.410227895E0,1.045579815E1,9.337671846E-2
3.385931773E0,1.070240855E0,1.061860847E1,1.053480953E-1
3.387931573E0,9.026415944E-1,1.071198559E1,1.053480953E-1
3.389931306E0,6.081457734E-1,1.092028713E1,4.549122229E-2
3.391931039E0,2.035133541E-1,1.121717739E1,-1.819648892E-1
3.393930739E0,2.035133541E-1,1.121717739E1,-1.819648892E-1
3.395930472E0,4.788549617E-3,1.137519932E1,-3.950553536E-1
3.397930205E0,-5.267404765E-2,1.145660496E1,-5.243461728E-1
3.399929938E0,-6.464541703E-2,1.162420464E1,-8.332076073E-1
3.401929738E0,3.112557158E-2,1.182292938E1,-1.170800328E0
3.403929471E0,9.337671846E-2,1.193306541E1,-1.324033976E0
3.405929204E0,2.681587934E-1,1.212221336E1,-1.580221415E0
3.407928937E0,4.477293789E-1,1.231614971E1,-1.817254543E0
3.409928670E0,5.051919818E-1,1.242389202E1,-1.932179809E0
3.411928403E0,4.884320498E-1,1.300091267E1,-2.308080912E0
3.413928169E0,4.884320498E-1,1.300091267E1,-2.308080912E0
3.415927902E0,3.663240373E-1,1.315893459E1,-2.391880512E0
3.417927702E0,1.436564885E-2,1.350131607E1,-2.535537004E0
3.419927435E0,-1.915419847E-1,1.367370319E1,-2.578634024E0
3.421927168E0,-5.530774593E-1,1.398735332E1,-2.612153769E0
3.423926901E0,-8.499675393E-1,1.418607807E1,-2.592999697E0
3.425926634E0,-9.624984860E-1,1.425311756E1,-2.557085514E0
3.427926367E0,-1.137280583E0,1.432734013E1,-2.451737404E0
3.429926100E0,-1.319245458E0,1.435128307E1,-2.320052385E0
3.431925833E0,-1.443747759E0,1.443508244E1,-2.073441982E0
3.433925599E0,-1.443747759E0,1.443508244E1,-2.073441982E0
3.435925332E0,-1.467690468E0,1.449493980E1,-1.992036581E0
3.437925065E0,-1.489238977E0,1.464099026E1,-1.877111435E0
3.439924798E0,-1.391073704E0,1.483013821E1,-1.836408734E0
3.441924531E0,-1.345582485E0,1.492590904E1,-1.834014535E0
3.443924264E0,-1.297696948E0,1.505998898E1,-1.869928598E0
3.445923064E0,-1.235445857E0,1.510787392E1,-1.910631299E0
3.447922797E0,-1.187560320E0,1.526350212E1,-1.996825218E0
3.449922597E0,-1.134886265E0,1.539997578E1,-2.042316437E0
3.451922330E0,-9.529213905E-1,1.548856354E1,-2.051893473E0
3.453922096E0,-9.529213905E-1,1.548856354E1,-2.051893473E0
3.455921829E0,-5.889915824E-1,1.562024879E1,-2.023162127E0
3.457921562E0,-3.663240373E-1,1.568968296E1,-1.984853864E0
3.459921295E0,4.309694469E-2,1.581179047E1,-1.848380208E0
3.461921028E0,4.620950520E-1,1.585967636E1,-1.692752242E0
3.463920828E0,6.703969240E-1,1.581418514E1,-1.604164124E0
3.465920628E0,9.074301720E-1,1.554842091E1,-1.426987767E0
3.467920361E0,7.781392932E-1,1.532575321E1,-1.240234375E0
3.469920094E0,6.656084061E-1,1.472000122E1,-1.137280583E0
3.471919827E0,1.173194647E-1,1.327864838E1,-7.422251701E-1
3.473919527E0,1.173194647E-1,1.327864838E1,-7.422251701E-1
3.475919260E0,5.027977005E-2,1.292429543E1,-6.392713785E-1
3.477918993E0,-1.436564885E-2,1.226347542E1,-4.980091453E-1
3.479918793E0,7.182824425E-3,1.196897984E1,-4.620950520E-1
3.481918559E0,8.619388938E-2,1.141829681E1,-4.022381604E-1
3.483918292E0,8.619388938E-2,1.097056675E1,-3.423812985E-1
3.485918025E0,8.619388938E-2,1.080296803E1,-3.256213665E-1
3.487917758E0,3.112557158E-2,1.055396366E1,-3.136500120E-1
3.489917491E0,-2.873129770E-2,1.047016335E1,-3.351984620E-1
3.491917224E0,-4.285751879E-1,1.042227840E1,-5.387118459E-1
3.493916990E0,-4.285751879E-1,1.042227840E1,-5.387118459E-1
3.495916790E0,-5.506832004E-1,1.044382668E1,-5.842030644E-1
3.497916523E0,-8.308133483E-1,1.049889469E1,-7.039167881E-1
3.499916256E0,-1.103760719E0,1.057072353E1,-8.547561169E-1
3.501915989E0,-1.225868702E0,1.062339687E1,-9.361614585E-1
3.503915722E0,-1.522758722E0,1.083169937E1,-1.089395046E0
3.505916388E0,-1.668809533E0,1.097056675E1,-1.180377483E0
3.507916121E0,-1.869928598E0,1.130337143E1,-1.343188167E0
3.509915854E0,-2.080624819E0,1.173673534E1,-1.525153041E0
3.511915654E0,-2.413429022E0,1.249571991E1,-1.838803053E0
3.513915354E0,-2.413429022E0,1.249571991E1,-1.838803053E0
3.515915087E0,-2.650462151E0,1.304640388E1,-2.066259146E0
3.517914820E0,-2.770175934E0,1.332413960E1,-2.174001455E0
3.519914553E0,-3.016786337E0,1.390355396E1,-2.363149166E0
3.521914286E0,-3.284945011E0,1.419326115E1,-2.521171331E0
3.523914019E0,-3.419024467E0,1.479183006E1,-2.583422422E0
3.525913752E0,-3.672817469E0,1.534011841E1,-2.667222023E0
3.527913552E0,-3.778165579E0,1.560109425E1,-2.683982134E0
3.529913285E0,-3.893090725E0,1.606079483E1,-2.631308079E0
3.531913018E0,-3.967313290E0,1.656598663E1,-2.391880512E0
3.533912784E0,-4.015198708E0,1.667133522E1,-2.267378330E0
3.535912517E0,-4.063084126E0,1.674795151E1,-2.123721838E0
3.537912250E0,-4.194769382E0,1.681499290E1,-1.831620216E0
3.539911983E0,-4.278569221E0,1.680062675E1,-1.668809533E0
3.541911749E0,-4.364762783E0,1.667851830E1,-1.309668303E0
3.543913015E0,-4.400677204E0,1.658753586E1,-1.122914910E0
3.545912748E0,-4.491659641E0,1.632895470E1,-7.541965842E-1
3.547912481E0,-4.486870766E0,1.592911053E1,-4.453351200E-1
3.549912214E0,-4.479688168E0,1.569686604E1,-3.423812985E-1
3.551911947E0,-4.295329094E0,1.457634544E1,-1.460507661E-1
3.553911647E0,-4.295329094E0,1.457634544E1,-1.460507661E-1
3.555911380E0,-4.192375183E0,1.427945518E1,-1.939362586E-1
3.557911180E0,-3.859570980E0,1.368567467E1,-3.711125851E-1
3.559910980E0,-3.658451796E0,1.340793896E1,-4.764606953E-1
3.561910713E0,-3.203539610E0,1.290753555E1,-6.680026650E-1
3.563910013E0,-2.707924843E0,1.257473087E1,-7.972934842E-1
3.565909746E0,-2.454131603E0,1.247896004E1,-8.451790214E-1
3.567909479E0,-2.006402254E0,1.231375504E1,-9.050358534E-1
3.569909212E0,-1.630501151E0,1.218206978E1,-9.241901040E-1
3.571908945E0,-1.319245458E0,1.200010490E1,-6.967339516E-1
3.573908778E0,-1.319245458E0,1.200010490E1,-6.967339516E-1
3.575908511E0,-1.304879785E0,1.192348862E1,-4.070267081E-1
3.577908244E0,-1.321639657E0,1.173673534E1,-2.346389294E-1
3.579907977E0,-1.422199249E0,1.158589554E1,1.412622184E-1
3.581907710E0,-1.465296149E0,1.156674194E1,3.639297783E-1
3.583907443E0,-1.532335877E0,1.161223316E1,7.637736797E-1
3.585907176E0,-1.589798450E0,1.174391747E1,1.075029373E0
3.587906909E0,-1.630501151E0,1.184447765E1,1.194743156E0
3.589906709E0,-1.750214934E0,1.207911682E1,1.328822494E0
3.591906442E0,-2.047105074E0,1.231854343E1,1.362342358E0
3.593906142E0,-2.047105074E0,1.231854343E1,1.362342358E0
3.595905875E0,-2.250618219E0,1.242149734E1,1.371919513E0
3.597905608E0,-2.305686712E0,1.248374844E1,1.391073704E0
3.599905341E0,-2.284138203E0,1.262501144E1,1.331216812E0
3.601905074E0,-2.185972929E0,1.273993587E1,1.077423692E0
3.603903340E0,-2.114144564E0,1.281176472E1,9.074301720E-1
3.605903140E0,-1.965699673E0,1.300570107E1,5.027977228E-1
3.607902873E0,-1.798100352E0,1.320921421E1,4.309694469E-2
3.609902606E0,-1.687963724E0,1.329301357E1,-1.843591630E-1
3.611902339E0,-1.192348838E0,1.344145870E1,-6.799740195E-1
3.613902105E0,-1.192348838E0,1.345103550E1,-8.379961848E-1
3.615901838E0,-1.079817891E0,1.344624710E1,-1.022355318E0
3.617901571E0,-8.882759809E-1,1.333611107E1,-1.429382086E0
3.619901304E0,-8.571503758E-1,1.323555088E1,-1.592192769E0
3.621901104E0,-8.523618579E-1,1.296978664E1,-1.743032098E0
3.623901270E0,-8.858816624E-1,1.259388542E1,-1.831620216E0
3.625901003E0,-9.098244309E-1,1.240234375E1,-1.865140080E0
3.627900736E0,-9.912297726E-1,1.204559612E1,-1.831620216E0
3.629900469E0,-1.154040456E0,1.185405445E1,-1.735849261E0
3.631900202E0,-1.383890867E0,1.093944168E1,-1.288119793E0
3.633899902E0,-1.383890867E0,1.093944168E1,-1.288119793E0
3.635899702E0,-1.426987767E0,1.069043732E1,-1.091789365E0
3.637899502E0,-1.592192769E0,1.016609097E1,-7.565908432E-1
3.639899235E0,-1.752609134E0,9.670475960E0,-4.812492430E-1
3.641898968E0,-1.824437380E0,9.409500122E0,-3.304099143E-1
3.643898701E0,-1.889082789E0,8.899519920E0,-1.077423692E-1
3.645898434E0,-1.759791970E0,8.468549728E0,-2.873129770E-2
3.647898167E0,-1.685569525E0,8.272219658E0,4.788549617E-3
3.649897900E0,-1.479661822E0,7.980117798E0,7.661679387E-2
3.651897700E0,-1.031932473E0,7.630553722E0,2.370332032E-1
3.653897466E0,-8.906702399E-1,7.534782887E0,3.304099143E-1
3.655897199E0,-7.661679387E-1,7.446194649E0,4.381522834E-1
3.657896932E0,-6.632141471E-1,7.367183685E0,5.554717779E-1
3.659896665E0,-5.027977228E-1,7.216344357E0,7.781392932E-1
3.661896398E0,-4.501236677E-1,7.024802208E0,9.289786220E-1
3.663896131E0,-4.477293789E-1,6.933819771E0,9.792584181E-1
3.665895864E0,-3.519583941E-1,6.747066498E0,9.289786220E-1
3.667895664E0,-2.897072434E-1,6.696786404E0,8.667274714E-1
3.669895397E0,-1.843591630E-1,6.622564316E0,7.326480746E-1
3.671895130E0,-5.746259540E-2,6.567495823E0,5.171633363E-1
3.673894830E0,-1.436564885E-2,6.550735950E0,4.549122155E-1
3.675894563E0,2.154847234E-2,6.524398804E0,3.974496126E-1
3.677894296E0,9.577099234E-3,6.454965115E0,3.543526828E-1
3.679894029E0,-1.675992459E-2,6.395108223E0,3.471698463E-1
3.681893762E0,-6.225114316E-2,6.268211365E0,2.729473412E-1
3.683893195E0,-6.943397224E-2,6.119766235E0,5.267404765E-2
3.685892961E0,-6.943397224E-2,6.057515144E0,-8.619388938E-2
3.687892727E0,-1.077423692E-1,5.966532707E0,-2.801301479E-1
3.689892493E0,-1.388679445E-1,5.913858891E0,-3.232271075E-1
3.691892259E0,-1.604164094E-1,5.655277252E0,-3.232271075E-1
3.693892059E0,-1.604164094E-1,5.655277252E0,-3.232271075E-1
3.695891825E0,-1.604164094E-1,5.590631485E0,-3.399870098E-1
3.697891591E0,-1.771763414E-1,5.458946705E0,-3.830839694E-1
3.699891424E0,-2.346389294E-1,5.310501575E0,-4.094209969E-1
3.701891190E0,-2.585816681E-1,5.238673210E0,-4.333637357E-1
3.703890956E0,-2.609759569E-1,5.090228081E0,-4.764606953E-1
3.705890722E0,-2.466102988E-1,5.006428719E0,-5.004034638E-1
3.707890488E0,-2.322446555E-1,4.877137661E0,-5.435003638E-1
3.709890254E0,-2.035133541E-1,4.759818554E0,-5.554717779E-1
3.711890020E0,-2.011190802E-1,4.618556023E0,-5.147690773E-1
3.713890886E0,-2.011190802E-1,4.618556023E0,-5.147690773E-1
3.715890719E0,-1.939362586E-1,4.537150860E0,-5.435003638E-1
3.717890485E0,-1.939362586E-1,4.506025314E0,-5.722316504E-1
3.719890251E0,-2.154847383E-1,4.422225475E0,-6.632141471E-1
3.721890017E0,-2.035133541E-1,4.391099930E0,-7.087053657E-1
3.723889783E0,-1.939362586E-1,4.350397110E0,-7.781392932E-1
3.725889549E0,-2.250618339E-1,4.283357620E0,-7.446194887E-1
3.727889315E0,-2.418217510E-1,4.247443676E0,-7.087053657E-1
3.729889148E0,-2.897072434E-1,4.170826912E0,-6.105400920E-1
3.731888981E0,-3.375927508E-1,4.060689926E0,-5.937801600E-1
3.733889814E0,-3.328042030E-1,4.017592907E0,-6.009629965E-1
3.735889580E0,-3.375927508E-1,3.972101927E0,-6.177229285E-1
3.737889346E0,-3.375927508E-1,3.924216509E0,-6.703969240E-1
3.739889112E0,-3.423812985E-1,3.852388144E0,-6.775797606E-1
3.741888878E0,-3.591412306E-1,3.787742853E0,-6.775797606E-1
3.743889011E0,-3.687183261E-1,3.739857197E0,-6.871568561E-1
3.745888811E0,-3.902668059E-1,3.687183142E0,-6.895511150E-1
3.747888544E0,-3.615354896E-1,3.665634632E0,-7.039167881E-1
3.749887510E0,-3.232271075E-1,3.658451796E0,-7.182824612E-1
3.751887243E0,-2.944957912E-1,3.531555414E0,-7.063110471E-1
3.753886976E0,-2.944957912E-1,3.531555414E0,-7.063110471E-1
3.755886709E0,-2.777358890E-1,3.493247032E0,-6.847625971E-1
3.757886442E0,-2.705530524E-1,3.447755814E0,-6.560313106E-1
3.759886175E0,-2.633702159E-1,3.407052994E0,-6.488484740E-1
3.761885975E0,-2.609759569E-1,3.335224867E0,-6.344828010E-1
3.763885708E0,-2.992843390E-1,3.272973776E0,-6.153286099E-1
3.765885441E0,-3.112557232E-1,3.253819466E0,-6.033572555E-1
3.767885174E0,-3.399870098E-1,3.205934048E0,-5.818088055E-1
3.769884907E0,-3.806896806E-1,3.172414064E0,-5.506832004E-1
3.771884640E0,-4.309694767E-1,3.124528646E0,-4.620950520E-1
3.773883306E0,-4.309694767E-1,3.124528646E0,-4.620950520E-1
3.775883039E0,-4.620950520E-1,3.107768774E0,-4.405465722E-1
3.777882839E0,-5.267404318E-1,3.059883118E0,-3.782954216E-1
3.779882572E0,-6.320885420E-1,3.011997700E0,-2.921015322E-1
3.781882305E0,-6.943396926E-1,2.990449190E0,-2.585816681E-1
3.783882038E0,-7.613793612E-1,2.947352171E0,-1.699935049E-1
3.785881771E0,-8.332076073E-1,2.897072554E0,-9.098244458E-2
3.787881504E0,-8.978530765E-1,2.875524044E0,-5.267404765E-2
3.789881237E0,-9.936240315E-1,2.844398499E0,4.788549617E-3
3.791880970E0,-1.051086664E0,2.837215662E0,9.337671846E-2
3.793879736E0,-1.051086664E0,2.837215662E0,9.337671846E-2
3.795879469E0,-1.058269501E0,2.853975534E0,1.460507661E-1
3.797879202E0,-1.077423692E0,2.844398499E0,1.771763414E-1
3.799878935E0,-1.132491946E0,2.820455790E0,2.585816681E-1
3.801878668E0,-1.166011810E0,2.772570133E0,3.351984620E-1
3.803878401E0,-1.163617611E0,2.755810261E0,3.591412306E-1
3.805878134E0,-1.154040456E0,2.741444588E0,4.213923812E-1
3.807877934E0,-1.130097747E0,2.717501879E0,5.171633363E-1
3.809878500E0,-1.146857619E0,2.698347807E0,5.626545548E-1
3.811878233E0,-1.166011810E0,2.655250788E0,7.326480746E-1
3.813877933E0,-1.168406129E0,2.652856588E0,7.948992252E-1
3.815877666E0,-1.158828974E0,2.660039425E0,8.667274714E-1
3.817877399E0,-1.168406129E0,2.686376333E0,1.005595446E0
3.819877132E0,-1.180377483E0,2.703136206E0,1.065452337E0
3.821876865E0,-1.225868702E0,2.753416061E0,1.216291547E0
3.823876665E0,-1.249811411E0,2.825244188E0,1.431776285E0
3.825876398E0,-1.278542757E0,2.856369734E0,1.546701550E0
3.827876131E0,-1.331216812E0,2.911438227E0,1.771763325E0
3.829875864E0,-1.367130876E0,2.940169573E0,1.886688590E0
3.831875597E0,-1.525153041E0,3.067065954E0,2.310475111E0
3.833875363E0,-1.525153041E0,3.067065954E0,2.310475111E0
3.835875096E0,-1.563461423E0,3.114951611E0,2.413429022E0
3.837874829E0,-1.601769805E0,3.225088120E0,2.607365370E0
3.839874629E0,-1.611346960E0,3.318464994E0,2.774964571E0
3.841874362E0,-1.611346960E0,3.368744612E0,2.863552570E0
3.843874095E0,-1.656838179E0,3.498035431E0,3.052700281E0
3.845873828E0,-1.687963724E0,3.577046633E0,3.249030828E0
3.847873561E0,-1.695146561E0,3.759011507E0,3.344801903E0
3.849873294E0,-1.678386688E0,3.972101927E0,3.541132450E0
3.851873027E0,-1.608952641E0,4.391099930E0,3.727885962E0
3.853872727E0,-1.608952641E0,4.391099930E0,3.727885962E0
3.855872527E0,-1.541913033E0,4.707144260E0,3.859570980E0
3.857872260E0,-1.489238977E0,4.874743462E0,3.943370581E0
3.859871993E0,-1.355159521E0,5.279376030E0,4.094210148E0
3.861871726E0,-1.173194647E0,5.755836487E0,4.252232075E0
3.863871459E0,-1.067846537E0,6.012023926E0,4.333637238E0
3.865871192E0,-8.475732803E-1,6.548341751E0,4.506025314E0
3.867870925E0,-7.374366522E-1,6.852414608E0,4.618556023E0
3.869870658E0,-5.147690773E-1,7.496474266E0,4.884320736E0
3.871870458E0,-2.250618339E-1,8.549955368E0,5.279376030E0
3.873870224E0,-1.245022863E-1,8.930644989E0,5.425426483E0
3.875869957E0,-2.154847234E-2,9.328094482E0,5.576265812E0
3.877869690E0,1.771763414E-1,1.013017654E1,5.880339146E0
3.879869423E0,2.561874092E-1,1.055396366E1,6.035966873E0
3.881869156E0,4.549122155E-1,1.146857643E1,6.361588001E0
3.883868889E0,5.291347504E-1,1.195940304E1,6.507638931E0
3.885868689E0,5.842030644E-1,1.296260357E1,6.787769318E0
3.887868489E0,6.177229285E-1,1.403045082E1,7.024802208E0
3.889868222E0,6.967339516E-1,1.460986519E1,7.106207848E0
3.891867955E0,8.092648983E-1,1.720046997E1,7.403097630E0
3.893867655E0,8.092648983E-1,1.720046997E1,7.403097630E0
3.895867388E0,7.853221297E-1,1.789241600E1,7.443800449E0
3.897867121E0,6.799740195E-1,1.931940269E1,7.520417213E0
3.899866854E0,4.644893110E-1,2.005923462E1,7.695199013E0
3.901866654E0,3.088614643E-1,2.149340439E1,7.836461544E0
3.903866387E0,-2.154847234E-2,2.296348953E1,8.238699913E0
3.905866120E0,-1.819648892E-1,2.369374275E1,8.490098000E0
3.907865853E0,-5.674431324E-1,2.498425674E1,8.928250313E0
3.909865586E0,-1.110943556E0,2.579591751E1,9.251478195E0
3.911865319E0,-2.032739401E0,2.608562469E1,9.419076920E0
3.913865085E0,-2.032739401E0,2.608562469E1,9.419076920E0
3.915864818E0,-2.442160368E0,2.566423225E1,9.225140572E0
3.917864618E0,-2.604970932E0,2.531466675E1,9.052753448E0
3.919864351E0,-2.899466753E0,2.433061981E1,8.631361008E0
3.921864084E0,-3.028757572E0,2.370571518E1,8.418270111E0
3.923863817E0,-3.316070557E0,2.228351593E1,7.965752125E0
3.925863550E0,-3.584229469E0,2.073681450E1,7.568302631E0
3.927863283E0,-3.706337452E0,1.996106911E1,7.424646378E0
3.929863016E0,-3.871542454E0,1.851253319E1,7.252258301E0
3.931862749E0,-4.048718929E0,1.649894714E1,7.185218811E0
3.933862515E0,-4.048718929E0,1.649894714E1,7.185218811E0
3.935862248E0,-4.134912491E0,1.520603943E1,7.237892628E0
3.937861981E0,-4.130124092E0,1.459789371E1,7.285778046E0
3.939861714E0,-4.063084126E0,1.346540165E1,7.371972084E0
3.941861447E0,-3.926610708E0,1.239994907E1,7.465348721E0
3.943861180E0,-3.847599506E0,1.191151714E1,7.496474266E0
3.945860880E0,-3.641691923E0,1.097535610E1,7.546754360E0
3.947860613E0,-3.416630268E0,1.012299347E1,7.563514233E0
3.949860413E0,-3.316070557E0,9.718361855E0,7.558725357E0
3.951860146E0,-3.045517445E0,8.257853508E0,7.434223175E0
3.953859912E0,-3.045517445E0,8.257853508E0,7.434223175E0
3.955859645E0,-3.045517445E0,7.934626579E0,7.391126156E0
3.957859378E0,-3.181991339E0,7.352818012E0,7.314509392E0
3.959859111E0,-3.304099321E0,7.134938717E0,7.285778046E0
3.961858844E0,-3.510006905E0,6.794951916E0,7.261835575E0
3.963858644E0,-3.708731651E0,6.665660858E0,7.357606411E0
3.965858444E0,-3.847599506E0,6.754249096E0,7.498868465E0
3.967858177E0,-4.005621910E0,7.273807049E0,8.023215294E0
3.969857910E0,-3.689577579E0,8.296162605E0,8.549955368E0
3.971857643E0,-2.262589693E0,1.069522572E1,9.249083519E0
3.973857343E0,-2.262589693E0,1.069522572E1,9.249083519E0
3.975857076E0,-1.671203852E0,1.168406105E1,9.459779739E0
3.977856809E0,-4.908263385E-1,1.378144550E1,9.696812630E0
3.979856609E0,5.267404318E-1,1.578545380E1,9.395133972E0
3.981856409E0,1.000806928E0,1.677429008E1,9.019232750E0
3.983856142E0,1.819648862E0,1.876153755E1,7.810124397E0
3.985855875E0,2.396669149E0,2.059555244E1,6.088640690E0
3.987855608E0,2.624125242E0,2.145270157E1,5.114171028E0
3.989855341E0,2.997632027E0,2.298743248E1,2.940169573E0
3.991855074E0,3.306493521E0,2.491242981E1,-8.858817071E-2
3.993854840E0,3.306493521E0,2.491242981E1,-8.858817071E-2
3.995854640E0,3.380716085E0,2.592760277E1,-1.675992370E0
3.997854373E0,3.371139050E0,2.636575508E1,-2.336812258E0
3.999854106E0,3.203539610E0,2.694756317E1,-3.129317284E0
4.001853839E0,2.956929445E0,2.733543587E1,-3.342407703E0
4.003853572E0,2.753416061E0,2.729473305E1,-3.277762175E0
4.005853338E0,2.284138203E0,2.682306099E1,-3.007209063E0
4.007853071E0,1.747820616E0,2.639687920E1,-3.026363373E0
4.009852804E0,1.455719113E0,2.514467430E1,-3.457332850E0
4.011852604E0,3.232271075E-1,2.112708092E1,-6.189200401E0
4.013852304E0,3.232271075E-1,2.112708092E1,-6.189200401E0
4.015852037E0,1.915419847E-2,1.981741333E1,-7.058321953E0
4.017851770E0,-6.296942830E-1,1.687005997E1,-8.487704277E0
4.019851503E0,-9.217957854E-1,1.533533001E1,-8.933039665E0
4.021851236E0,-1.525153041E0,1.214855003E1,-9.196409225E0
4.023850969E0,-2.193155766E0,9.026415825E0,-8.810931206E0
4.025850702E0,-2.504411459E0,7.518023014E0,-8.490098000E0
4.027850835E0,-3.112557173E0,4.589824677E0,-7.649707794E0
4.029850568E0,-3.462121487E0,3.229876757E0,-7.154093266E0
4.031850301E0,-4.793338299E0,-1.137280583E0,-5.044736862E0
4.033850067E0,-4.793338299E0,-1.137280583E0,-5.044736862E0
4.035849800E0,-5.109382629E0,-1.905842781E0,-4.522785187E0
4.037849533E0,-5.636122704E0,-3.102980137E0,-3.490852594E0
4.039849266E0,-5.995264053E0,-3.883513689E0,-2.490045786E0
4.041848999E0,-6.103006363E0,-4.108575344E0,-1.977671027E0
4.043848799E0,-6.136526108E0,-4.268991947E0,-8.954587579E-1
4.045848532E0,-6.045543671E0,-4.245049000E0,-3.184385598E-1
4.047848265E0,-5.707951069E0,-4.048718929E0,9.553156495E-1
4.049847998E0,-5.365570068E0,-3.806896925E0,2.243435383E0
4.051847731E0,-5.080651283E0,-3.648874760E0,3.562680960E0
4.053847431E0,-5.080651283E0,-3.648874760E0,3.562680960E0
4.055847164E0,-5.231490612E0,-3.816473961E0,3.811685562E0
4.057846964E0,-5.411061287E0,-3.955342054E0,3.691971779E0
4.059846764E0,-5.700768471E0,-4.235472202E0,3.076643229E0
4.061846497E0,-5.650488377E0,-4.319271564E0,2.667222023E0
4.063846163E0,-5.492466450E0,-4.338426113E0,1.822043180E0
4.065845896E0,-4.980091572E0,-4.115758419E0,9.361614585E-1
4.067845629E0,-4.656864643E0,-3.919427872E0,4.860377908E-1
4.069845362E0,-3.962524891E0,-3.332830429E0,-3.878725171E-1
4.071845095E0,-2.966506481E0,-1.951334000E0,-1.683175206E0
4.073844928E0,-2.636096478E0,-1.359948039E0,-2.080624819E0
4.075844661E0,-2.327235222E0,-7.158881426E-1,-2.468497276E0
4.077844394E0,-1.738243461E0,7.422251701E-1,-3.272973776E0
4.079844127E0,-1.450930476E0,1.517970204E0,-3.682394743E0
4.081843860E0,-8.834874034E-1,3.016786337E0,-4.551516533E0
4.083843593E0,-5.626545548E-1,3.775771379E0,-4.977697372E0
4.085843326E0,9.098244458E-2,5.322473049E0,-5.729499817E0
4.087842726E0,6.991282701E-1,6.852414608E0,-6.196382999E0
4.089842526E0,9.696813226E-1,7.642525196E0,-6.378347874E0
4.091842292E0,1.707117915E0,1.002961731E1,-6.553130150E0
4.093842025E0,1.707117915E0,1.081254482E1,-6.553130150E0
4.095841791E0,1.857957244E0,1.158829021E1,-6.435810566E0
4.097841557E0,2.176395893E0,1.302724934E1,-6.057515144E0
4.099841323E0,2.332023621E0,1.369764614E1,-5.851607800E0
4.101841089E0,2.633702278E0,1.509590244E1,-5.581054688E0
4.103840855E0,2.892283916E0,1.657556534E1,-5.317684174E0
