"Time (s)","Acceleration x (m/s^2)","Acceleration y (m/s^2)","Acceleration z (m/s^2)"
0.000000000E0,-2.154688835E0,5.087460041E0,7.905313969E0
2.332188000E-3,-2.130748034E0,5.085065365E0,7.996290207E0
4.664323000E-3,-2.109200954E0,5.099430561E0,8.025018692E0
6.995730000E-3,-2.037378073E0,5.135342121E0,7.996290207E0
9.327136000E-3,-2.013437033E0,5.185617924E0,7.967560291E0
1.165937500E-2,-1.999072552E0,5.159283161E0,7.960378647E0
1.399156300E-2,-2.003860712E0,5.164071083E0,7.965166569E0
1.632296900E-2,-2.042166233E0,5.123371601E0,7.967560291E0
1.865437500E-2,-2.080471754E0,5.099430561E0,7.984319687E0
2.098656300E-2,-2.118777514E0,5.082671642E0,7.984319687E0
2.331875000E-2,-2.135535955E0,5.034789562E0,7.962772369E0
2.565015700E-2,-2.149900675E0,5.046760082E0,7.936437607E0
2.798156300E-2,-2.135535955E0,5.053942680E0,7.886161327E0
3.031380200E-2,-2.094836473E0,5.058730602E0,7.893343449E0
3.264599000E-2,-2.058924913E0,5.061124802E0,7.934042931E0
3.497734400E-2,-2.027801514E0,5.080277443E0,8.041777611E0
3.730875000E-2,-2.013437033E0,5.053942680E0,8.135147095E0
3.964099000E-2,-1.972737432E0,5.037183762E0,8.274005890E0
4.197317700E-2,-1.922461271E0,4.986907482E0,8.341039658E0
4.430458400E-2,-1.869791150E0,5.001272678E0,8.331463814E0
4.663599000E-2,-1.802756429E0,5.001272678E0,8.336252213E0
4.896817700E-2,-1.745298028E0,5.008454323E0,8.333857536E0
5.130036500E-2,-1.695021868E0,5.030001640E0,8.343434334E0
5.363177100E-2,-1.606440306E0,5.037183762E0,8.360193253E0
5.596317700E-2,-1.582499266E0,5.010848522E0,8.345828056E0
5.829541700E-2,-1.553770185E0,5.041972160E0,8.364980698E0
6.062760500E-2,-1.532223225E0,5.015636921E0,8.350616455E0
6.295901100E-2,-1.529829144E0,4.996483803E0,8.293157578E0
6.529041700E-2,-1.517858624E0,4.986907482E0,8.192605972E0
6.762260500E-2,-1.493917584E0,4.989302158E0,8.060930252E0
6.995479200E-2,-1.467582464E0,4.970149040E0,7.929255009E0
7.228619800E-2,-1.434065104E0,5.030001640E0,7.869402409E0
7.461760500E-2,-1.383789182E0,5.013243198E0,7.823914528E0
7.694979200E-2,-1.350271702E0,5.051548481E0,7.756879807E0
7.928198000E-2,-1.352665782E0,5.037183762E0,7.761668205E0
8.161338600E-2,-1.340695262E0,5.032395363E0,7.732938766E0
8.394479200E-2,-1.388577223E0,5.049154282E0,7.725756645E0
8.627703200E-2,-1.405336022E0,5.034789562E0,7.675480366E0
8.860921900E-2,-1.460400224E0,5.008454323E0,7.627598286E0
9.094062500E-2,-1.498705864E0,4.955784321E0,7.622810364E0
9.327203200E-2,-1.472370744E0,4.986907482E0,7.603657722E0
9.560421900E-2,-1.448429704E0,5.027607441E0,7.668298721E0
9.793640700E-2,-1.450823903E0,4.991695881E0,7.780820847E0
1.002678130E-1,-1.477158904E0,4.948602200E0,7.941225529E0
1.025992190E-1,-1.498705864E0,4.927054882E0,8.082477570E0
1.049314070E-1,-1.556164145E0,4.843262196E0,8.276399612E0
1.072635940E-1,-1.481947184E0,4.883961678E0,8.467926979E0
1.095950000E-1,-1.429276943E0,4.924661160E0,8.611573219E0
1.119264070E-1,-1.410124183E0,4.943813801E0,8.757613182E0
1.142586460E-1,-1.405336022E0,4.939025402E0,8.903653145E0
1.165908340E-1,-1.417306542E0,4.936631680E0,9.008994102E0
1.189222400E-1,-1.398153663E0,4.943813801E0,9.035328865E0
1.212536460E-1,-1.381394982E0,4.965361118E0,9.008994102E0
1.235858340E-1,-1.355059862E0,4.972542763E0,8.980263710E0
1.259180210E-1,-1.311966181E0,4.991695881E0,8.961112022E0
1.282494270E-1,-1.290419221E0,5.013243198E0,8.922805786E0
1.305808340E-1,-1.273660541E0,5.020424843E0,8.870136261E0
1.329130210E-1,-1.276054621E0,5.015636921E0,8.781554222E0
1.352452090E-1,-1.283236861E0,4.998878002E0,8.671425819E0
1.375766150E-1,-1.285630941E0,4.977331638E0,8.592419624E0
1.399080210E-1,-1.290419221E0,4.910296440E0,8.491868019E0
1.422402610E-1,-1.285630941E0,4.891143322E0,8.391316414E0
1.445723960E-1,-1.261690021E0,4.874384880E0,8.326675415E0
1.469038020E-1,-1.261690021E0,4.814532280E0,8.250064850E0
1.492352610E-1,-1.249719501E0,4.783409595E0,8.223729134E0
1.515674480E-1,-1.235355020E0,4.778621197E0,8.233305931E0
1.538996360E-1,-1.204231620E0,4.792985439E0,8.250064850E0
1.562310420E-1,-1.228172660E0,4.785803318E0,8.336252213E0
1.585624480E-1,-1.213808179E0,4.807350636E0,8.453562737E0
1.608946360E-1,-1.216202140E0,4.800168037E0,8.580450058E0
1.632268230E-1,-1.161137819E0,4.792985439E0,8.678607941E0
1.655582300E-1,-1.096497297E0,4.831291676E0,8.745642662E0
1.678896360E-1,-1.022280216E0,4.826502800E0,8.884499550E0
1.702218750E-1,-1.007915616E0,4.804955959E0,9.090393066E0
1.725540630E-1,-1.010309696E0,4.725951195E0,9.260374069E0
1.748854690E-1,-1.029462457E0,4.670886517E0,9.425566673E0
1.772168750E-1,-1.048615217E0,4.625399113E0,9.523724556E0
1.795490630E-1,-1.060585737E0,4.584699154E0,9.621883392E0
1.818812500E-1,-1.058191657E0,4.572728634E0,9.696100235E0
1.842126570E-1,-1.065374017E0,4.515270233E0,9.739193916E0
1.865440630E-1,-1.072556257E0,4.517664433E0,9.703282356E0
1.888762500E-1,-1.036644697E0,4.503299713E0,9.664977074E0
1.912084380E-1,-9.743981957E-1,4.498511314E0,9.629064560E0
1.935398440E-1,-8.092053533E-1,4.385989189E0,9.650611877E0
1.958712500E-1,9.743981957E-1,3.196121693E0,1.022998428E1
1.982034900E-1,7.278059721E-1,3.385255814E0,9.387261391E0
2.005356770E-1,6.511948705E-1,3.890410423E0,9.370502472E0
2.028670840E-1,6.727417707E-1,4.120244026E0,9.655400276E0
2.051984900E-1,1.891337931E-1,4.115455627E0,9.423172951E0
2.075306770E-1,-5.075489283E-1,4.254313469E0,9.380079269E0
2.098628650E-1,-8.594814539E-1,4.433870792E0,9.183762550E0
2.121942710E-1,-1.223384500E0,4.663704395E0,8.800706863E0
2.145256770E-1,-1.568134665E0,4.797773838E0,8.563691139E0
2.168579170E-1,-1.774027109E0,4.879172802E0,8.532567978E0
2.191900520E-1,-1.721356988E0,5.094642162E0,8.185423851E0
2.215214590E-1,-1.639957666E0,5.252652645E0,8.080083847E0
2.238528650E-1,-1.548981905E0,5.305323124E0,8.104024887E0
2.261851050E-1,-1.537011385E0,5.283775806E0,8.185423851E0
2.285172920E-1,-1.537011385E0,5.235894203E0,8.331463814E0
2.308486980E-1,-1.572922826E0,5.202376366E0,8.479898453E0
2.331801050E-1,-1.616016626E0,5.173647404E0,8.613966942E0
2.355122920E-1,-1.733327508E0,5.116189003E0,8.661849022E0
2.378444800E-1,-1.853032351E0,5.034789562E0,8.618755341E0
2.401758860E-1,-1.939219952E0,4.991695881E0,8.561297417E0
2.425072920E-1,-2.008648872E0,4.927054882E0,8.597208977E0
2.448394800E-1,-2.030195713E0,4.888749599E0,8.637907982E0
2.471716670E-1,-1.999072552E0,4.792985439E0,8.700155258E0
2.495030730E-1,-1.958372712E0,4.685251236E0,8.716914177E0
2.518344800E-1,-1.900914431E0,4.551181316E0,8.786341667E0
2.541667190E-1,-1.817121029E0,4.472176552E0,8.743248940E0
2.564988550E-1,-1.671080828E0,4.433870792E0,8.752824783E0
2.588302610E-1,-1.565740585E0,4.424294472E0,8.752824783E0
2.611617190E-1,-1.481947184E0,4.448235512E0,8.748037338E0
2.634939070E-1,-1.410124183E0,4.460206032E0,8.740855217E0
2.658260940E-1,-1.338301301E0,4.512876034E0,8.669032097E0
2.681575000E-1,-1.295207381E0,4.579911232E0,8.623543739E0
2.704889070E-1,-1.304783821E0,4.637369633E0,8.568478584E0
2.728210940E-1,-1.350271702E0,4.608640194E0,8.582843781E0
2.751532820E-1,-1.383789182E0,4.675674915E0,8.451169014E0
2.774846880E-1,-1.453217983E0,4.702010155E0,8.412862778E0
2.798160940E-1,-1.623198986E0,4.644551277E0,8.649879456E0
2.821483340E-1,-1.723751068E0,4.577517033E0,8.511020660E0
2.844805210E-1,-1.718962908E0,4.733132839E0,8.139935493E0
2.868119270E-1,-1.797968149E0,4.713980675E0,7.788002968E0
2.891433340E-1,-1.857820630E0,4.848050117E0,7.778427124E0
2.914755210E-1,-1.951190472E0,4.919873238E0,7.771244526E0
2.938077090E-1,-2.073289394E0,4.927054882E0,7.735332966E0
2.961391150E-1,-2.188206196E0,4.919873238E0,7.644357681E0
2.984705210E-1,-2.336640596E0,4.903113842E0,7.601263523E0
3.008027090E-1,-2.473104000E0,4.867203236E0,7.548593521E0
3.031348960E-1,-2.638296843E0,4.919873238E0,7.543805122E0
3.054663020E-1,-2.930376768E0,4.740315437E0,7.785608768E0
3.077977090E-1,-3.064446449E0,4.666098595E0,7.574928284E0
3.101299480E-1,-3.033323050E0,4.862414360E0,7.527046680E0
3.124621360E-1,-3.114722490E0,4.850443840E0,7.601263523E0
3.147934900E-1,-3.174575090E0,4.790591717E0,7.546199322E0
3.171248960E-1,-3.143451691E0,4.855232716E0,7.529440403E0
3.194571360E-1,-3.160210133E0,4.788197517E0,7.536623001E0
3.217893230E-1,-3.126693010E0,4.737921715E0,7.541410923E0
3.241207300E-1,-3.114722490E0,4.718768597E0,7.742515564E0
3.264521360E-1,-3.109934330E0,4.687645435E0,8.008260727E0
3.287843230E-1,-3.081204891E0,4.682857037E0,8.362586975E0
3.311165110E-1,-3.081204891E0,4.675674915E0,8.659455299E0
3.334479170E-1,-3.133875132E0,4.646945477E0,8.757613182E0
3.357793230E-1,-3.155422211E0,4.618216515E0,8.568478584E0
3.381115630E-1,-3.205698252E0,4.570334435E0,8.324281693E0
3.404436980E-1,-3.236821413E0,4.527240276E0,8.106418610E0
3.427751050E-1,-3.191333771E0,4.541605473E0,7.998683929E0
3.451065110E-1,-3.131481171E0,4.555970192E0,7.969954491E0
3.474387500E-1,-2.992623568E0,4.625399113E0,7.981925011E0
3.497709380E-1,-2.813066006E0,4.649340153E0,7.941225529E0
3.521023440E-1,-2.257635117E0,4.541605473E0,7.943619728E0
3.544337500E-1,-1.594469786E0,4.486540794E0,7.768850327E0
3.567659380E-1,-1.223384500E0,4.469782352E0,7.821520329E0
3.590981250E-1,-1.034250736E0,4.426688671E0,7.816732407E0
3.614295320E-1,-9.743981957E-1,4.376412392E0,7.890949726E0
3.637609380E-1,-1.043827057E0,4.302195549E0,8.001077652E0
3.660931770E-1,-1.134802699E0,4.227978706E0,8.147117615E0
3.684253130E-1,-1.249719501E0,4.170519829E0,8.345828056E0
3.707567190E-1,-1.266478300E0,4.101091385E0,8.544537544E0
3.730881250E-1,-1.280842900E0,4.091514587E0,8.709731102E0
3.754203650E-1,-1.395759583E0,4.079544067E0,8.798313141E0
3.777525520E-1,-1.534617305E0,4.048420906E0,8.848588943E0
3.800839590E-1,-1.671080828E0,4.043632984E0,8.850982666E0
3.824153650E-1,-1.855426550E0,4.041238785E0,8.743248940E0
3.847475520E-1,-1.994284272E0,4.041238785E0,8.578056335E0
3.870797400E-1,-2.145112514E0,4.010115623E0,8.391316414E0
3.894111460E-1,-2.327064037E0,4.017297745E0,8.206970215E0
3.917425520E-1,-2.441980839E0,4.053209305E0,8.063324928E0
3.940747920E-1,-2.456345320E0,4.122638226E0,7.993895531E0
3.964069270E-1,-2.339034557E0,4.232766628E0,8.020231247E0
3.987383340E-1,-2.113989353E0,4.304589272E0,8.123176575E0
4.010697400E-1,-1.872185230E0,4.429082394E0,8.250064850E0
4.034019800E-1,-1.551375985E0,4.551181316E0,8.345828056E0
4.057341670E-1,-1.225778461E0,4.675674915E0,8.367375374E0
4.080655730E-1,-9.097574949E-1,4.824109077E0,8.350616455E0
4.103969800E-1,-6.799240708E-1,4.924661160E0,8.307522774E0
4.127291670E-1,-5.458545089E-1,4.982119560E0,8.293157578E0
4.150613550E-1,-4.860020280E-1,5.046760082E0,8.259640694E0
4.173927610E-1,-4.500905573E-1,5.120976925E0,8.211758614E0
4.197241670E-1,-5.099430084E-1,5.159283161E0,8.163876534E0
4.220564070E-1,-6.152833700E-1,5.199982643E0,8.206970215E0
4.243885420E-1,-7.637174726E-1,5.235894203E0,8.264429092E0
4.267199480E-1,-1.005521536E0,5.243076324E0,8.305128098E0
4.290513550E-1,-1.297601461E0,5.204770565E0,8.309917450E0
4.313835940E-1,-1.625592947E0,5.132947445E0,8.223729134E0
4.337157300E-1,-1.920067191E0,5.046760082E0,8.094448090E0
4.360471360E-1,-2.166659355E0,4.967754841E0,7.931649208E0
4.383785940E-1,-2.422827959E0,4.919873238E0,7.780820847E0
4.407107820E-1,-2.657449484E0,4.869596958E0,7.668298721E0
4.430429690E-1,-2.899253607E0,4.838473320E0,7.594080925E0
4.453743750E-1,-3.107540369E0,4.788197517E0,7.534228802E0
4.477057820E-1,-3.284703493E0,4.747498035E0,7.507893562E0
4.500379690E-1,-3.440320015E0,4.706798077E0,7.527046680E0
4.523701570E-1,-3.557630777E0,4.673281193E0,7.517469883E0
4.547015630E-1,-3.631847858E0,4.630187035E0,7.531834602E0
4.570329690E-1,-3.610301018E0,4.613428593E0,7.505499363E0
4.593652090E-1,-3.536083698E0,4.591881275E0,7.428888321E0
4.616973440E-1,-3.435531855E0,4.572728634E0,7.364247322E0
4.640287500E-1,-3.296674013E0,4.582304955E0,7.340307236E0
4.663602090E-1,-3.126693010E0,4.565546513E0,7.330730438E0
4.686923960E-1,-2.980653048E0,4.512876034E0,7.330730438E0
4.710245840E-1,-2.736454725E0,4.527240276E0,7.313971519E0
4.733559900E-1,-2.477892160E0,4.493723392E0,7.388188362E0
4.756873960E-1,-2.250452757E0,4.481752872E0,7.586898804E0
4.780195840E-1,-2.003860712E0,4.479359150E0,7.704209805E0
4.803517710E-1,-1.785997629E0,4.479359150E0,7.797579288E0
4.826831770E-1,-1.525040865E0,4.498511314E0,7.804761887E0
4.850145840E-1,-1.225778461E0,4.548787594E0,7.766456604E0
4.873468230E-1,-1.024674296E0,4.553575993E0,7.708998203E0
4.896789590E-1,-8.475109339E-1,4.601458073E0,7.663509846E0
4.920103650E-1,-7.134414315E-1,4.661310673E0,7.536623001E0
4.943417710E-1,-6.392243505E-1,4.735527515E0,7.323547840E0
4.966740110E-1,-5.434604287E-1,4.797773838E0,7.096108437E0
4.990061980E-1,-5.171253681E-1,4.867203236E0,6.883034229E0
5.013376050E-1,-4.740315676E-1,4.941420078E0,6.693900108E0
5.036690110E-1,-4.572728872E-1,5.041972160E0,6.471249104E0
5.060011980E-1,-4.381200671E-1,5.147312641E0,6.274932861E0
5.083333860E-1,-4.309377670E-1,5.233500004E0,6.124104500E0
5.106647920E-1,-4.429082870E-1,5.334052086E0,5.994823456E0
5.129961980E-1,-4.979725182E-1,5.439392567E0,5.863148212E0
5.153284380E-1,-5.027607679E-1,5.542338371E0,5.700348854E0
5.176605730E-1,-5.195194483E-1,5.614161491E0,5.645285130E0
5.199919800E-1,-5.674013495E-1,5.628526211E0,5.630920410E0
5.223233860E-1,-5.937365294E-1,5.652466774E0,5.621344090E0
5.246556250E-1,-5.554309487E-1,5.647678852E0,5.733866692E0
5.269878130E-1,-4.931843579E-1,5.595008850E0,5.992428780E0
5.293192190E-1,-3.734793961E-1,5.506426811E0,6.308450222E0
5.316506250E-1,-2.226511836E-1,5.307716846E0,6.619682789E0
5.339828130E-1,1.268872321E-1,5.010848522E0,6.947674274E0
5.363150000E-1,9.384866953E-1,4.448235512E0,7.242148399E0
5.386464070E-1,2.130748034E0,3.722823381E0,7.622810364E0
5.409778130E-1,2.542532682E0,3.356526613E0,8.053748131E0
5.433100520E-1,2.367763758E0,3.174575090E0,8.333857536E0
5.456421880E-1,2.157083035E0,3.006988049E0,8.415257454E0
5.479735940E-1,1.479552984E0,2.985441208E0,8.262035370E0
5.503050000E-1,6.368302703E-1,3.157816172E0,8.022624969E0
5.526372400E-1,-1.963160932E-1,3.289491653E0,7.823914528E0
5.549693750E-1,-9.336984754E-1,3.406802416E0,7.629992485E0
5.573007820E-1,-1.845850110E0,3.394831896E0,8.072900772E0
5.596321880E-1,-4.431477070E0,2.801095486E0,1.407969475E1
5.619644270E-1,-6.351543903E0,2.688572884E0,1.849680519E1
5.642966150E-1,-6.456884384E0,3.200910091E0,1.423531055E1
5.666280210E-1,-6.543072224E0,3.411590815E0,9.336984634E0
5.689594270E-1,-7.318759918E0,3.244003773E0,9.506965637E0
5.712916150E-1,-8.319493294E0,2.803489685E0,1.246607208E1
5.736238020E-1,-9.030540466E0,2.274393797E0,1.483623028E1
5.759552090E-1,-9.190944672E0,1.982313752E0,1.537729645E1
5.782866150E-1,-9.090393066E0,1.711780667E0,1.510436916E1
5.806188550E-1,-9.066452026E0,1.292813420E0,1.522646809E1
5.829509900E-1,-8.946746826E0,7.732938528E-1,1.538687325E1
5.852823960E-1,-8.611573219E0,3.662970960E-1,1.524083328E1
5.876138020E-1,-8.005866051E0,2.633508667E-2,1.460160828E1
5.899460420E-1,-7.357065678E0,-2.370157838E-1,1.368466759E1
5.922782300E-1,-6.708264351E0,-4.309377670E-1,1.273899937E1
5.946096360E-1,-6.040310860E0,-5.386722088E-1,1.175502491E1
5.969410420E-1,-5.360386848E0,-4.955784380E-1,1.070880413E1
5.992732300E-1,-4.718768597E0,-3.279915452E-1,9.662583351E0
6.016054170E-1,-4.134608269E0,-7.900525630E-2,8.726490021E0
6.039368230E-1,-3.430743456E0,3.088387549E-1,7.730545044E0
6.062682300E-1,-2.686178684E0,7.397764921E-1,6.976403713E0
6.086004690E-1,-1.917673111E0,1.276054621E0,6.310844421E0
6.109326050E-1,-1.177896619E0,1.812332749E0,5.903847694E0
6.132640110E-1,-5.793718696E-1,2.307911158E0,5.714713573E0
6.155954170E-1,-4.309377819E-2,2.688572884E0,5.595008850E0
6.179276570E-1,4.405141473E-1,3.030929089E0,5.429815769E0
6.202597920E-1,8.522991538E-1,3.275126934E0,5.269411564E0
6.225911980E-1,1.048615217E0,3.452290535E0,5.099430561E0
6.249226570E-1,1.096497297E0,3.574389458E0,4.936631680E0
6.272548440E-1,9.145457745E-1,3.627059460E0,4.836079597E0
6.295870320E-1,7.948408127E-1,3.639029980E0,4.745103359E0
6.319184380E-1,5.721896291E-1,3.569601297E0,4.713980675E0
6.342498440E-1,3.567207158E-1,3.411590815E0,4.766650677E0
6.365820320E-1,1.675869152E-2,3.210486412E0,4.812138557E0
6.389142190E-1,-3.351738155E-1,3.026140690E0,4.895932198E0
6.412456250E-1,-6.248597503E-1,2.834613085E0,5.041972160E0
6.435770320E-1,-9.480631351E-1,2.655055523E0,5.403481007E0
6.459092710E-1,-1.264084101E0,2.422827959E0,5.757807732E0
6.482414070E-1,-1.649533987E0,2.154688835E0,6.195927620E0
6.505728130E-1,-1.948796391E0,1.867396951E0,6.624471188E0
6.529042190E-1,-2.307911158E0,1.551375985E0,7.242148399E0
6.552364590E-1,-2.556897402E0,1.252113581E0,7.802368164E0
6.575686460E-1,-2.698149204E0,1.027068377E0,8.314704895E0
6.599000520E-1,-2.710119724E0,8.451168537E-1,8.750431061E0
6.622314590E-1,-2.607173443E0,7.302001119E-1,9.004204750E0
6.645636460E-1,-2.451556921E0,6.631653905E-1,9.119121552E0
6.668958340E-1,-2.231300116E0,6.296479702E-1,9.176580429E0
6.692272400E-1,-1.970343232E0,6.081010699E-1,9.289102554E0
6.715586460E-1,-1.623198986E0,5.697954893E-1,9.202916145E0
6.738908860E-1,-1.319148421E0,5.075489283E-1,9.147850990E0
6.762230210E-1,-1.084526777E0,4.285436869E-1,9.128699303E0
6.785544270E-1,-8.594814539E-1,3.255974352E-1,9.099968910E0
6.808858340E-1,-6.966827512E-1,1.029462516E-1,8.999417305E0
6.832180730E-1,-5.817660093E-1,-1.053403467E-1,8.836618423E0
6.855502610E-1,-4.572728872E-1,-2.896859348E-1,8.678607941E0
6.878816670E-1,-3.040505350E-1,-4.381200671E-1,8.439197540E0
6.902130730E-1,-1.053403467E-1,-5.817660093E-1,8.163876534E0
6.925452610E-1,1.244931296E-1,-6.559830904E-1,7.845461369E0
6.948774480E-1,3.160210252E-1,-6.727417707E-1,7.483952522E0
6.972088550E-1,4.979725182E-1,-6.535889506E-1,7.002738953E0
6.995402610E-1,9.983391762E-1,-5.602191091E-1,6.002005577E0
7.018724480E-1,1.316754222E0,-4.333318770E-1,4.893537998E0
7.042046360E-1,1.458006144E0,-2.561685741E-1,3.976598024E0
7.065360420E-1,1.443641543E0,-1.508282125E-1,3.358920574E0
7.088674480E-1,1.503494024E0,-9.576394223E-3,2.777154446E0
7.111996880E-1,1.563346505E0,1.029462516E-1,2.374946117E0
7.135318230E-1,1.704598308E0,2.178629786E-1,2.063713074E0
7.158632300E-1,1.881761670E0,3.255974352E-1,1.848244309E0
7.181946360E-1,2.025407553E0,4.046026766E-1,1.687839627E0
7.205268750E-1,2.181024075E0,4.836079478E-1,1.460400224E0
7.228590630E-1,2.422827959E0,5.937365294E-1,1.165926099E0
7.251904690E-1,2.664632082E0,7.038650513E-1,7.565351725E-1
7.275218750E-1,2.841795206E0,7.924466729E-1,3.830558062E-1
7.298540630E-1,2.652661562E0,8.307522535E-1,5.147312284E-1
7.321862500E-1,2.300729036E0,7.948408127E-1,7.445647120E-1
7.345176570E-1,1.881761670E0,7.373824120E-1,1.046221137E0
7.368490630E-1,1.493917584E0,6.559830904E-1,1.534617305E0
7.391813020E-1,1.130014658E0,5.051548481E-1,2.049348593E0
7.415134380E-1,7.996289730E-1,2.705331445E-1,2.655055523E0
7.438448440E-1,4.572728872E-1,-2.394098788E-2,3.318220854E0
7.461762500E-1,3.591148183E-2,-3.423561156E-1,3.938292503E0
7.485084900E-1,-5.003666282E-1,-7.541411519E-1,4.618216515E0
7.508406250E-1,-1.110861897E0,-1.249719501E0,5.357993126E0
7.531720320E-1,-1.759662628E0,-1.738115788E0,6.148045540E0
7.555034900E-1,-2.276787996E0,-2.214541197E0,6.665171146E0
7.578356770E-1,-2.619143963E0,-2.695755243E0,6.885427952E0
7.601678650E-1,-2.784336805E0,-3.117116451E0,6.947674274E0
7.624992710E-1,-2.796307325E0,-3.485807657E0,6.804028511E0
7.648306770E-1,-2.693361044E0,-3.753946781E0,6.425761223E0
7.671628650E-1,-2.547321081E0,-3.947868824E0,6.042705059E0
7.694950520E-1,-2.384522200E0,-4.048420906E0,5.587826729E0
7.718264590E-1,-2.281575918E0,-4.098697186E0,5.001272678E0
7.741578650E-1,-2.238482237E0,-4.132214546E0,4.493723392E0
7.764901050E-1,-2.121171474E0,-4.115455627E0,4.122638226E0
7.788222400E-1,-1.876973391E0,-4.101091385E0,3.787464142E0
7.811536460E-1,-1.560952425E0,-4.077150345E0,3.454684496E0
7.834850520E-1,-1.132408738E0,-4.017297745E0,3.114722490E0
7.858172920E-1,-6.847122312E-1,-3.998145103E0,2.765183926E0
7.881494800E-1,-2.848977447E-1,-3.967021465E0,2.384522200E0
7.904808860E-1,3.351738304E-2,-3.964627504E0,2.042166233E0
7.928122920E-1,3.351738155E-1,-3.952656984E0,1.675869107E0
7.951444800E-1,6.703476310E-1,-3.890410423E0,1.276054621E0
7.974766670E-1,1.041432977E0,-3.830558062E0,8.666637540E-1
7.998080730E-1,1.534617305E0,-3.746764421E0,4.117850065E-1
8.021394800E-1,1.984707832E0,-3.718035221E0,6.224656478E-2
8.044717190E-1,2.403675318E0,-3.770705462E0,1.149167418E-1
8.068038550E-1,2.561685801E0,-3.938292503E0,4.429082870E-1
8.091352610E-1,2.384522200E0,-4.223189831E0,7.206237316E-1
8.114666670E-1,1.965555072E0,-4.644551277E0,1.141985178E0
8.137989070E-1,1.367030382E0,-5.156888485E0,1.606440306E0
8.161310420E-1,7.421706319E-1,-5.685984612E0,2.015831232E0
8.184624480E-1,9.815804660E-2,-6.236627102E0,2.348610640E0
8.207939070E-1,-4.500905573E-1,-6.792057991E0,2.580838442E0
8.231260940E-1,-8.666637540E-1,-7.321154118E0,3.057264090E0
8.254582820E-1,-1.395759583E0,-7.759274006E0,3.102751970E0
8.277896880E-1,-1.910490751E0,-8.101630211E0,3.375679255E0
8.301210940E-1,-2.465921640E0,-8.412862778E0,3.737188339E0
8.324532820E-1,-3.076416969E0,-8.688183784E0,4.211219311E0
8.347854690E-1,-3.698882580E0,-8.927594185E0,4.675674915E0
8.371168750E-1,-4.338107109E0,-9.190944672E0,5.106612682E0
8.394482820E-1,-4.984513283E0,-9.449507713E0,5.446574688E0
8.417804690E-1,-5.583038330E0,-9.662583351E0,5.815266132E0
8.441126570E-1,-6.155228138E0,-9.885233879E0,6.083405018E0
8.464440630E-1,-6.634047508E0,-1.009830856E1,6.325209141E0
8.487754690E-1,-7.021891594E0,-1.031377697E1,6.509554386E0
8.511077090E-1,-7.333124638E0,-1.055797482E1,6.626865387E0
8.534398960E-1,-7.510287762E0,-1.078062725E1,6.780087471E0
8.557713020E-1,-7.641963005E0,-1.100088406E1,6.930915833E0
8.581027090E-1,-7.768850327E0,-1.126902294E1,7.112867355E0
8.604348960E-1,-7.946013451E0,-1.152997971E1,7.311577320E0
8.627670840E-1,-8.159088135E0,-1.173587227E1,7.699421406E0
8.650984900E-1,-8.412862778E0,-1.187712383E1,8.068113327E0
8.674298960E-1,-8.683396339E0,-1.196570587E1,8.420044899E0
8.697620840E-1,-8.941959381E0,-1.197288799E1,8.714518547E0
8.720942710E-1,-9.143062592E0,-1.201358795E1,8.862954140E0
8.744256770E-1,-9.229250908E0,-1.206146908E1,8.968294144E0
8.767570840E-1,-9.229250908E0,-1.205668068E1,9.011387825E0
8.790893230E-1,-9.155034065E0,-1.204710484E1,8.920412064E0
8.814214590E-1,-9.008994102E0,-1.207583427E1,8.750431061E0
8.837528650E-1,-8.760006905E0,-1.211653423E1,8.592419624E0
8.860842710E-1,-7.392977238E0,-1.263844681E1,8.707337379E0
8.884165110E-1,-5.525579929E0,-1.368706322E1,9.190944672E0
8.907486980E-1,-5.580644131E0,-1.356256866E1,9.298680305E0
8.930801050E-1,-5.365175724E0,-1.315317917E1,9.317831993E0
8.954115110E-1,-5.997217655E0,-1.278927612E1,9.131093025E0
8.977436980E-1,-7.230177879E0,-1.244691944E1,9.250798225E0
9.000758860E-1,-8.453562737E0,-1.212850380E1,9.406414032E0
9.024072920E-1,-9.186157227E0,-1.189388275E1,9.729617119E0
9.047386980E-1,-9.327408791E0,-1.181727123E1,9.842140198E0
9.070708860E-1,-9.226857185E0,-1.178614807E1,9.636246681E0
9.094030730E-1,-8.970687866E0,-1.189867115E1,9.030540466E0
9.117344800E-1,-8.908440590E0,-1.212850380E1,8.190212250E0
9.140658860E-1,-9.126303673E0,-1.241579628E1,7.378612518E0
9.163981250E-1,-9.564423561E0,-1.260971832E1,6.938097954E0
9.187302610E-1,-1.000014973E1,-1.280842781E1,6.696293831E0
9.210616670E-1,-1.033292961E1,-1.295925713E1,6.832757950E0
9.233930730E-1,-1.089314938E1,-1.304783821E1,7.069773674E0
9.257253130E-1,-1.142703342E1,-1.310529709E1,7.242148399E0
9.280575000E-1,-1.184600067E1,-1.312205505E1,7.163143635E0
9.303889070E-1,-1.223863316E1,-1.304065609E1,7.067379475E0
9.327203130E-1,-1.257380676E1,-1.294968033E1,6.902186394E0
9.350525000E-1,-1.284194565E1,-1.278688145E1,6.571801186E0
9.373846880E-1,-1.309572029E1,-1.269590569E1,6.303661823E0
9.397160940E-1,-1.324415398E1,-1.266717625E1,6.057069778E0
9.420475000E-1,-1.361045074E1,-1.260253620E1,5.587826729E0
9.443797400E-1,-1.394801903E1,-1.258817101E1,5.087460041E0
9.467118750E-1,-1.414194107E1,-1.266478157E1,4.690039635E0
9.490432820E-1,-1.449147987E1,-1.268393517E1,4.369229794E0
9.513746880E-1,-1.484580612E1,-1.273421097E1,4.139396667E0
9.537069270E-1,-1.523125553E1,-1.267675304E1,4.029268265E0
9.560391150E-1,-1.560713005E1,-1.261450577E1,3.947868824E0
9.583705210E-1,-1.603567314E1,-1.249001312E1,3.770705462E0
9.607019270E-1,-1.633493614E1,-1.238227940E1,3.672547579E0
9.630341150E-1,-1.658631516E1,-1.229848480E1,3.576783419E0
9.653663020E-1,-1.691670227E1,-1.217877960E1,3.485807657E0
9.676977090E-1,-1.714174843E1,-1.213568687E1,3.452290535E0
9.700291150E-1,-1.728539276E1,-1.213089848E1,3.636636019E0
9.723613020E-1,-1.747213173E1,-1.204710484E1,3.897592783E0
9.746934900E-1,-1.764211464E1,-1.196331120E1,4.218401909E0
9.770248960E-1,-1.783124733E1,-1.185318279E1,4.539210796E0
9.793563020E-1,-1.803235245E1,-1.172150707E1,4.824109077E0
9.816885420E-1,-1.819036293E1,-1.158504391E1,5.044365883E0
9.840206770E-1,-1.821430397E1,-1.132648087E1,5.262228966E0
9.863520840E-1,-1.820472527E1,-1.110622406E1,5.389116287E0
9.886834900E-1,-1.809220314E1,-1.097454929E1,5.362781048E0
9.910157300E-1,-1.807305145E1,-1.091469574E1,5.192800045E0
9.933478650E-1,-1.830528069E1,-1.077344418E1,4.852838039E0
9.956792710E-1,-1.812093353E1,-1.088357258E1,4.910296440E0
9.980107300E-1,-1.802277565E1,-1.103200722E1,5.144917965E0
1.000342917E0,-1.797249985E1,-1.121635342E1,5.506426811E0
1.002675105E0,-1.790307045E1,-1.147491455E1,5.923000336E0
1.005006511E0,-1.784561157E1,-1.173347759E1,6.296479702E0
1.007337917E0,-1.786955452E1,-1.206625843E1,6.559830666E0
1.009670105E0,-1.793180084E1,-1.234157944E1,6.775299549E0
1.012002292E0,-1.799883461E1,-1.250677204E1,6.842333794E0
1.014333698E0,-1.803713989E1,-1.255944157E1,6.815999031E0
1.016665105E0,-1.790785789E1,-1.247564888E1,6.612500668E0
1.018997344E0,-1.750804329E1,-1.243016148E1,6.258173943E0
1.021329480E0,-1.746734428E1,-1.231285000E1,6.004399300E0
1.023660886E0,-1.743143272E1,-1.210695744E1,5.846388817E0
1.025992292E0,-1.737636757E1,-1.183642387E1,5.492062569E0
1.028324532E0,-1.746016121E1,-1.158025646E1,4.972542763E0
1.030656719E0,-1.755113792E1,-1.133605766E1,4.357259274E0
1.032988125E0,-1.756071472E1,-1.114213562E1,3.741976261E0
1.035319532E0,-1.758465576E1,-1.100327778E1,3.169786692E0
1.037651719E0,-1.762056541E1,-1.091709042E1,2.667026043E0
1.039983907E0,-1.754635048E1,-1.082371998E1,2.221723795E0
1.042315313E0,-1.732609177E1,-1.070162106E1,1.850638390E0
1.044646719E0,-1.718723488E1,-1.052206421E1,1.553770185E0
1.046978907E0,-1.716808128E1,-1.037602425E1,1.367030382E0
1.049311094E0,-1.716329384E1,-1.023956013E1,1.264084101E0
1.051642500E0,-1.706513596E1,-1.011027908E1,1.204231620E0
1.053973907E0,-1.698612976E1,-9.990573883E0,1.194655299E0
1.056306146E0,-1.696458435E1,-9.913963318E0,1.187473059E0
1.058638282E0,-1.628466034E1,-1.010070324E1,1.474764824E0
1.060969688E0,-1.592554474E1,-1.020125484E1,1.537011385E0
1.063301094E0,-1.573641109E1,-1.016055489E1,1.537011385E0
1.065633334E0,-1.581541634E1,-1.012224960E1,1.237748981E0
1.067965521E0,-1.593033314E1,-1.001451492E1,9.384866953E-1
1.070296927E0,-1.554967117E1,-9.813410759E0,8.738460541E-1
1.072628334E0,-1.507324600E1,-9.602729797E0,9.672158957E-1
1.074960521E0,-1.457766724E1,-9.538088799E0,1.089314818E0
1.077292709E0,-1.406293583E1,-9.461478233E0,1.115650058E0
1.079624115E0,-1.350032330E1,-9.336984634E0,3.591148183E-2
1.081955521E0,-1.320584869E1,-9.229250908E0,-1.232960820E0
1.084287709E0,-1.307177925E1,-9.281921387E0,-2.159476995E0
1.086619896E0,-1.273899937E1,-9.224461555E0,-2.791519165E0
1.088951302E0,-1.220032692E1,-9.099968910E0,-3.155422211E0
1.091282709E0,-1.170474911E1,-8.989841461E0,-3.145845652E0
1.093614948E0,-1.142463875E1,-8.760006905E0,-3.129086971E0
1.095947084E0,-1.104158306E1,-8.671425819E0,-3.038111210E0
1.098278490E0,-1.033292961E1,-8.743248940E0,-2.803489685E0
1.100609896E0,-9.796651840E0,-8.568478584E0,-2.128353834E0
1.102942136E0,-8.989841461E0,-8.408075333E0,-1.800362229E0
1.105274323E0,-7.998683929E0,-8.372163773E0,-1.642351747E0
1.107605677E0,-7.254118919E0,-8.412862778E0,-1.127620459E0
1.109937084E0,-6.272538662E0,-8.683396339E0,-4.357259572E-1
1.112269323E0,-6.207898140E0,-8.609178543E0,4.788197577E-2
1.114601511E0,-5.458545208E0,-9.004204750E0,9.480631351E-1
1.116932917E0,-5.381934166E0,-9.064058304E0,1.319148421E0
1.119264323E0,-4.962966442E0,-9.480630875E0,1.953584671E0
1.121596511E0,-4.989302158E0,-9.789469719E0,2.286364317E0
1.123928698E0,-4.960572720E0,-1.025871277E1,2.238482237E0
1.126260105E0,-5.135342121E0,-1.058909893E1,2.183418036E0
1.128591511E0,-5.401086807E0,-1.093145466E1,1.996678352E0
1.130923750E0,-5.568673611E0,-1.123550510E1,1.771633148E0
1.133255886E0,-5.824842453E0,-1.146533871E1,1.817121029E0
1.135587292E0,-5.973276615E0,-1.158504391E1,1.860214710E0
1.137918698E0,-5.978064537E0,-1.174065971E1,1.862608910E0
1.140250938E0,-5.889482975E0,-1.175502491E1,1.766844869E0
1.142583073E0,-5.949335575E0,-1.169277763E1,1.843456030E0
1.144914480E0,-6.349150181E0,-1.134323978E1,2.142718554E0
1.147245886E0,-6.191139698E0,-1.124508190E1,2.595202923E0
1.149578125E0,-6.270144463E0,-1.120438194E1,1.927249551E0
1.151910313E0,-7.170325279E0,-1.143182182E1,1.192261100E0
1.154241719E0,-8.369769096E0,-1.166404915E1,5.841601491E-1
1.156573125E0,-8.906046867E0,-1.176220703E1,8.953929543E-1
1.158905313E0,-8.522992134E0,-1.169038391E1,2.372551680E0
1.161237500E0,-7.756879807E0,-1.172869015E1,4.443447590E0
1.163568907E0,-6.950068474E0,-1.197288799E1,6.289297581E0
1.165900313E0,-5.889482975E0,-1.216920376E1,6.713053226E0
1.168232500E0,-5.089853764E0,-1.239185524E1,6.219868660E0
1.170564688E0,-5.310111046E0,-1.285630989E1,5.350810528E0
1.172896094E0,-5.674014091E0,-1.268872261E1,4.295012951E0
1.175227500E0,-5.264623165E0,-1.179572487E1,3.730005741E0
1.177559740E0,-5.283775806E0,-1.070401478E1,3.289491653E0
1.179891875E0,-5.188012123E0,-9.518937111E0,1.843456030E0
1.182223282E0,-5.628526211E0,-9.327408791E0,1.197049379E0
1.184554688E0,-6.291691303E0,-9.404020309E0,6.751358509E-1
1.186886927E0,-7.294818878E0,-9.964239120E0,6.488007307E-1
1.189219115E0,-5.575856209E0,-9.921145439E0,4.620610774E-1
1.191550521E0,-4.443447590E0,-1.097454929E1,8.115994930E-1
1.193881927E0,-9.413596153E0,-1.396717167E1,2.504227161E0
1.196214115E0,-1.612186050E1,-1.665335083E1,6.634047508E0
1.198546302E0,-8.393710136E0,-1.392886734E1,9.581183434E0
1.200877709E0,-5.860753536E0,-1.219075108E1,1.260492992E1
1.203209115E0,-5.223923683E0,-1.089793682E1,1.406532955E1
1.205541302E0,-4.189672947E0,-9.097575188E0,1.147252083E1
1.207873490E0,-3.308644533E0,-7.998683929E0,9.001811028E0
1.210204896E0,-3.018958569E0,-7.440858841E0,7.584505081E0
1.212536302E0,-2.401281118E0,-7.179902077E0,6.420972824E0
1.214868542E0,-1.218596220E0,-6.957251072E0,5.319687366E0
1.217200677E0,-7.421706617E-2,-7.132019997E0,5.063519001E0
1.219532084E0,-2.178629786E-1,-7.273272038E0,3.828164101E0
1.221863490E0,-8.307522535E-1,-7.244543076E0,2.896859407E0
1.224195730E0,-9.193339348E-1,-7.024285316E0,1.778815389E0
1.226527917E0,-7.661116123E-1,-6.643623829E0,1.072556257E0
1.228859323E0,-8.570873737E-1,-6.411396503E0,1.070162177E0
1.231190730E0,-1.771633148E0,-6.365908623E0,1.141985178E0
1.233522917E0,-2.293546438E0,-6.054675579E0,1.314360261E0
1.235855105E0,-2.336640596E0,-5.647678852E0,1.386183143E0
1.238186511E0,-2.137930155E0,-5.144917965E0,1.390971422E0
1.240517917E0,-2.245664597E0,-4.826502800E0,1.261690021E0
1.242850105E0,-2.396492720E0,-4.721162319E0,1.015097857E0
1.245182292E0,-1.762056589E0,-4.043632984E0,9.576395154E-1
1.247513698E0,-1.819514990E0,-3.722823381E0,7.373824120E-1
1.249845105E0,-1.920067191E0,-3.667759180E0,3.782675862E-1
1.252177344E0,-1.601652026E0,-3.423561335E0,-2.705331445E-1
1.254509480E0,-6.942886114E-1,-2.963894367E0,-1.259295940E0
1.256840886E0,1.915278845E-2,-2.645478964E0,-1.481947184E0
1.259172292E0,8.451168537E-1,-2.310305357E0,-1.862608910E0
1.261504532E0,1.244931340E0,-2.109200954E0,-1.977525592E0
1.263836667E0,1.355059862E0,-1.881761670E0,-2.781942844E0
1.266168073E0,1.951190472E0,-1.441247463E0,-3.866469383E0
1.268499532E0,1.994284272E0,-1.141985178E0,-3.823375702E0
1.270831719E0,1.350271702E0,-1.161137819E0,-2.829824686E0
1.273163907E0,1.173108339E0,-1.041432977E0,-1.809938669E0
1.275495313E0,1.261690021E0,-8.714519143E-1,-6.895004511E-1
1.277826719E0,1.151561499E0,-8.355404139E-1,3.399620354E-1
1.280158907E0,1.436459303E0,-8.044171929E-1,1.098891377E0
1.282491094E0,1.711780667E0,-8.738460541E-1,1.508282304E0
1.284822500E0,1.465188384E0,-9.863687158E-1,1.829091549E0
1.287153907E0,1.436459303E0,-1.237748981E0,2.200176716E0
1.289486146E0,1.477158904E0,-1.501099825E0,2.971076488E0
1.291818282E0,1.151561499E0,-1.797968149E0,3.653394699E0
1.294149688E0,9.720040560E-1,-2.171447515E0,4.402747631E0
1.296481094E0,1.072556257E0,-2.707725763E0,5.073094845E0
1.298813334E0,1.197049379E0,-2.992623568E0,6.145651340E0
1.301145469E0,7.972348928E-1,-3.081204891E0,6.090587139E0
1.303476875E0,4.692433476E-1,-3.351738214E0,5.678802013E0
1.305808282E0,1.053403467E-1,-3.672547579E0,5.034789562E0
1.308140521E0,-5.267017335E-2,-3.938292503E0,4.254313469E0
1.310472709E0,-1.580105126E-1,-4.184884548E0,3.526507616E0
1.312804115E0,-2.250452787E-1,-4.493723392E0,2.499439001E0
1.315135521E0,-9.696099758E-1,-4.903113842E0,1.666292787E0
1.317467709E0,-2.025407553E0,-5.214346886E0,1.086920857E0
1.319799896E0,-3.143451691E0,-5.470515728E0,4.836079478E-1
1.322131302E0,-4.182490349E0,-5.647678852E0,-4.548787326E-2
1.324462709E0,-4.991695881E0,-5.726684093E0,-6.176775098E-1
1.326794896E0,-5.369963646E0,-5.815266132E0,-1.019886017E0
1.329127084E0,-5.278987408E0,-5.867936134E0,-1.331118822E0
1.331458490E0,-4.948602200E0,-5.860753536E0,-1.620804906E0
1.333789896E0,-4.412323952E0,-5.860753536E0,-1.283236861E0
1.336122136E0,-4.077150345E0,-5.764989853E0,-7.804762125E-1
1.338454271E0,-4.038844585E0,-5.779354572E0,1.699810177E-1
1.340785677E0,-4.127426147E0,-5.793718815E0,1.029462457E0
1.343117084E0,-4.220796108E0,-5.786536694E0,1.781209469E0
1.345449323E0,-4.038844585E0,-5.781748295E0,2.528168201E0
1.347781459E0,-3.856893063E0,-5.721896172E0,2.839401007E0
1.350112865E0,-3.706064701E0,-5.800901413E0,3.184151173E0
1.352444323E0,-3.576783419E0,-5.879906654E0,3.311038494E0
1.354776511E0,-3.418772936E0,-5.906241417E0,3.126693010E0
1.357108698E0,-3.272732973E0,-5.911029816E0,2.559291601E0
1.359440105E0,-3.066840410E0,-5.954123497E0,2.080471754E0
1.361771511E0,-2.796307325E0,-6.088192940E0,2.669420004E0
1.364103698E0,-2.662237644E0,-6.231839180E0,3.064446449E0
1.366435886E0,-2.827430487E0,-6.332390785E0,2.930376768E0
1.368767292E0,-2.908829927E0,-6.495190144E0,3.016564608E0
1.371098698E0,-2.887283087E0,-6.540678024E0,3.006988049E0
1.373430886E0,-3.186545610E0,-6.684323311E0,2.370157719E0
1.375763073E0,-3.141057491E0,-6.906974792E0,2.434798479E0
1.378094480E0,-3.564812899E0,-7.072167397E0,1.996678352E0
1.380425886E0,-3.751552820E0,-7.342700958E0,1.754874349E0
1.382758125E0,-3.543266296E0,-7.534228802E0,1.886549830E0
1.385090261E0,-3.440320015E0,-7.718574524E0,1.817121029E0
1.387421667E0,-3.378073215E0,-7.898131847E0,2.176235676E0
1.389753073E0,-3.303856134E0,-8.005866051E0,2.769972324E0
1.392085313E0,-3.413984776E0,-8.190212250E0,2.856159687E0
1.394417500E0,-3.490596056E0,-8.204576492E0,2.978258848E0
1.396748907E0,-3.641424179E0,-8.307522774E0,2.753213406E0
1.399080313E0,-3.435531855E0,-8.194999695E0,2.683784723E0
1.401412500E0,-3.184151173E0,-7.936437607E0,2.353399038E0
1.403744688E0,-3.006988049E0,-7.852643967E0,2.315093517E0
1.406076094E0,-3.085993290E0,-7.962772369E0,2.652661562E0
1.408407500E0,-3.267944813E0,-8.075295448E0,3.284703493E0
1.410739688E0,-3.646212578E0,-8.053748131E0,3.404408455E0
1.413071875E0,-3.514537096E0,-8.092054367E0,3.291885853E0
1.415403282E0,-3.318220854E0,-8.156694412E0,2.987835169E0
1.417734688E0,-3.504960537E0,-7.993895531E0,2.719696283E0
1.420066927E0,-3.337373734E0,-7.878979206E0,3.076416969E0
1.422399063E0,-3.461866856E0,-7.965166569E0,3.205698252E0
1.424730469E0,-3.406802416E0,-8.010654449E0,3.270339012E0
1.427061875E0,-3.294280052E0,-8.194999695E0,3.370891094E0
1.429394115E0,-3.241609812E0,-8.594815254E0,3.485807657E0
1.431726250E0,-3.382861614E0,-8.762400627E0,3.481019497E0
1.434057657E0,-3.313432693E0,-9.052086830E0,3.730005741E0
1.436389063E0,-3.167392731E0,-9.439930916E0,4.184884548E0
1.438721302E0,-3.121904850E0,-9.940298080E0,4.503299713E0
1.441053490E0,-2.947135448E0,-1.060346317E1,4.821714878E0
1.443384896E0,-2.743637323E0,-1.079259682E1,5.235894203E0
1.445716302E0,-2.647873163E0,-1.075907993E1,5.671619892E0
1.448048490E0,-2.702937603E0,-1.078062725E1,5.697955132E0
1.450380677E0,-2.774760485E0,-1.057473373E1,5.446574688E0
1.452712084E0,-2.655055523E0,-1.023956013E1,4.883961678E0
1.455043490E0,-2.698149204E0,-1.022519588E1,4.352471352E0
1.457375677E0,-2.674208164E0,-1.006957912E1,4.034056664E0
1.459707865E0,-2.748425245E0,-9.765528679E0,3.339767694E0
1.462039271E0,-2.714907885E0,-9.566819191E0,2.604779482E0
1.464370677E0,-3.102751970E0,-9.633852959E0,1.896126270E0
1.466702917E0,-3.028534889E0,-9.408807755E0,1.508282304E0
1.469035052E0,-2.561685801E0,-9.600336075E0,1.086920857E0
1.471366459E0,-2.396492720E0,-9.717646599E0,1.118044138E0
1.473697865E0,-1.800362229E0,-9.365714073E0,1.015097857E0
1.476030105E0,-1.649533987E0,-9.262767792E0,6.033128500E-1
1.478362292E0,-1.738115788E0,-9.430355072E0,1.460400373E-1
1.480693646E0,-1.611228466E0,-9.514147758E0,-1.388577372E-1
1.483025052E0,-1.651928067E0,-9.834958076E0,-1.292813420E-1
1.485357292E0,-1.546587706E0,-1.009112644E1,5.267017335E-2
1.487689480E0,-1.395759583E0,-1.044545269E1,3.208092153E-1
1.490020886E0,-1.474764824E0,-1.085723782E1,7.278059721E-1
1.492352292E0,-1.833879590E0,-1.116607666E1,1.149167418E0
1.494684480E0,-2.023013592E0,-1.140788078E1,1.390971422E0
1.497016667E0,-2.176235676E0,-1.143661022E1,1.333513021E0
1.499348073E0,-2.339034557E0,-1.131451130E1,1.515464544E0
1.501679480E0,-2.578444242E0,-1.142942715E1,1.438853383E0
1.504011667E0,-2.796307325E0,-1.141266918E1,1.726145267E0
1.506343855E0,-2.825036526E0,-1.130253983E1,1.967949152E0
1.508675261E0,-2.901647806E0,-1.132648087E1,2.547321081E0
1.511006667E0,-2.992623568E0,-1.139351559E1,2.702937603E0
1.513338907E0,-3.131481171E0,-1.163292599E1,2.676602602E0
1.515671042E0,-3.076416969E0,-1.178854179E1,2.875312567E0
1.518002448E0,-3.062052250E0,-1.194655323E1,2.985441208E0
1.520333855E0,-3.172180653E0,-1.213568687E1,3.011776209E0
1.522666094E0,-3.311038494E0,-1.237030792E1,2.664632082E0
1.524998282E0,-3.488201857E0,-1.247564888E1,2.051742554E0
1.527329688E0,-3.593542337E0,-1.248283100E1,1.520252705E0
1.529661094E0,-3.670153618E0,-1.244452477E1,1.084526777E0
1.531993282E0,-3.421166897E0,-1.217159843E1,9.576395154E-1
1.534325469E0,-3.210486412E0,-1.186275864E1,9.600335956E-1
1.536656875E0,-3.361314774E0,-1.167123127E1,7.756879926E-1
1.538988282E0,-3.521719217E0,-1.147491455E1,5.075489283E-1
1.541320469E0,-3.454684496E0,-1.126184082E1,1.771633178E-1
1.543652657E0,-3.361314774E0,-1.110383034E1,-1.699810177E-1
1.545984063E0,-3.445107937E0,-1.100806618E1,-3.040505350E-1
1.548315469E0,-3.694094181E0,-1.104397774E1,-6.176775098E-1
1.550647657E0,-4.000538826E0,-1.105355358E1,-6.990768313E-1
1.552979844E0,-4.213613987E0,-1.097454929E1,-5.075489283E-1
1.555311250E0,-4.091514587E0,-1.075189686E1,-4.500905573E-1
1.557642657E0,-4.151367188E0,-1.071359158E1,-2.370157838E-1
1.559974896E0,-4.400353432E0,-1.076147366E1,-1.029462516E-1
1.562307032E0,-4.455418110E0,-1.068965054E1,-1.627987176E-1
1.564638438E0,-4.541605473E0,-1.067289162E1,-2.346216738E-1
1.566969844E0,-4.491329193E0,-1.061543369E1,-1.316754371E-1
1.569302084E0,-4.725951195E0,-1.072316837E1,-1.005521491E-1
1.571634219E0,-4.749892235E0,-1.074471474E1,-1.508282125E-1
1.573965625E0,-4.867203236E0,-1.073992729E1,-2.609567642E-1
1.576297032E0,-4.833685398E0,-1.068246937E1,-2.585626841E-1
1.578629271E0,-4.850443840E0,-1.061303997E1,-1.723751128E-1
1.580961459E0,-4.773832798E0,-1.076147366E1,3.351738304E-2
1.583292865E0,-4.874384880E0,-1.085005569E1,2.681390643E-1
1.585624271E0,-4.771439075E0,-1.076386833E1,3.351738155E-1
1.587956459E0,-4.086726665E0,-1.069443893E1,5.051548481E-1
1.590288646E0,-3.308644533E0,-1.048136425E1,8.427227736E-1
1.592620052E0,-2.506621599E0,-1.023956013E1,1.290419221E0
1.594951459E0,-2.082865953E0,-1.002169704E1,1.817121029E0
1.597283646E0,-2.133141994E0,-9.961845398E0,2.159476995E0
1.599615834E0,-2.408463240E0,-1.003127384E1,2.470710039E0
1.601947240E0,-2.592808962E0,-1.005760860E1,2.944741488E0
1.604278646E0,-2.556897402E0,-1.006239700E1,3.595936298E0
1.606610886E0,-2.437192440E0,-1.002888012E1,4.235160351E0
1.608943021E0,-2.190600157E0,-1.001212120E1,4.613428593E0
1.611274427E0,-1.965555072E0,-1.009112644E1,4.900720119E0
1.613605834E0,-1.924855351E0,-1.024434853E1,5.147312641E0
1.615938073E0,-1.970343232E0,-1.055079269E1,5.331657887E0
1.618270261E0,-2.073289394E0,-1.094581890E1,5.458545208E0
1.620601667E0,-2.123565435E0,-1.132648087E1,5.587826729E0
1.622933073E0,-2.015831232E0,-1.156110287E1,5.578249931E0
1.625265261E0,-1.838667870E0,-1.170474911E1,5.451363087E0
1.627597448E0,-1.481947184E0,-1.168559647E1,5.099430561E0
1.629928855E0,-1.110861897E0,-1.160659122E1,4.007721424E0
1.632260261E0,-7.421706319E-1,-1.142942715E1,3.370891094E0
1.634592448E0,-1.086920857E0,-1.130493355E1,3.734793901E0
1.636924636E0,-1.462794423E0,-1.115410614E1,3.847316742E0
1.639256042E0,-1.496311784E0,-1.091948414E1,3.452290535E0
1.641587448E0,-1.747692108E0,-1.085245037E1,3.258368492E0
1.643919688E0,-1.944008112E0,-1.071119785E1,2.892071247E0
1.646251823E0,-2.037378073E0,-1.048375797E1,2.439586401E0
1.648583230E0,-1.364636302E0,-9.811017036E0,2.480286360E0
1.650914636E0,-7.158355117E-1,-9.356138229E0,2.276787996E0
1.653246875E0,1.795574129E-1,-8.640301704E0,3.571995258E0
1.655579011E0,1.161137819E0,-7.811944008E0,5.774566174E0
1.657910417E0,1.453217983E0,-7.455223560E0,6.626865387E0
1.660241823E0,-3.662970960E-1,-7.852643967E0,6.174380302E0
1.662574063E0,-3.107540369E0,-8.309917450E0,6.059463978E0
1.664906250E0,-5.958911896E0,-8.724096298E0,6.669959068E0
1.667237605E0,-1.137915134E1,-9.820592880E0,4.692433357E0
1.669569011E0,-1.285630989E1,-1.054361057E1,6.966827512E-1
1.671901250E0,-1.170714283E1,-1.047418213E1,-2.789124966E0
1.674233438E0,-9.655400276E0,-1.031617165E1,-3.696488619E0
1.676564844E0,-6.614894867E0,-1.004803181E1,-2.753213406E0
1.678896250E0,-3.641424179E0,-9.746376038E0,-1.623198986E0
1.681228438E0,-2.111594915E0,-9.964239120E0,-9.097574949E-1
1.683560625E0,-1.702204227E0,-1.039757061E1,-9.336984754E-1
1.685892032E0,-1.841061831E0,-1.074950314E1,-1.592075586E0
1.688223438E0,-1.836273789E0,-1.047418213E1,-2.925588846E0
1.690555625E0,-2.169053555E0,-1.028504753E1,-3.069234610E0
1.692887813E0,-2.331852198E0,-1.032096004E1,-2.762789965E0
1.695219219E0,-2.152294636E0,-9.973814964E0,-2.676602602E0
1.697550625E0,-2.145112514E0,-9.617094994E0,-2.183418036E0
1.699882865E0,-1.714174747E0,-9.231644630E0,-1.582499266E0
1.702215000E0,-1.503494024E0,-8.896471024E0,-9.959450364E-1
1.704546407E0,-1.560952425E0,-8.522992134E0,-5.099430084E-1
1.706877813E0,-1.410124183E0,-8.484685898E0,5.937365294E-1
1.709210052E0,-1.367030382E0,-8.463138580E0,9.863687158E-1
1.711542240E0,-1.551375985E0,-8.285976410E0,9.911568761E-1
1.713873594E0,-1.704598308E0,-7.752091408E0,3.327797055E-1
1.716205000E0,-1.666292787E0,-7.543805122E0,1.041432977E0
1.718537240E0,-1.541799664E0,-7.531834602E0,1.807544470E0
1.720869427E0,-1.666292787E0,-7.479164600E0,2.324670076E0
1.723200834E0,-1.718962908E0,-7.376217842E0,2.643085003E0
1.725532240E0,-1.683051348E0,-7.323547840E0,2.932770967E0
1.727864427E0,-1.654322267E0,-7.328336716E0,3.100358009E0
1.730196615E0,-1.733327508E0,-7.297213078E0,3.222456932E0
1.732528021E0,-1.783603668E0,-7.251725197E0,3.289491653E0
1.734859427E0,-1.862608910E0,-7.182295799E0,3.406802416E0
1.737191615E0,-1.948796391E0,-7.151173115E0,3.299067974E0
1.739523802E0,-2.080471754E0,-7.031467915E0,3.047687769E0
1.741855209E0,-2.233694315E0,-6.796846390E0,2.805883646E0
1.744186615E0,-2.528168201E0,-6.727417469E0,2.614355803E0
1.746518855E0,-2.688572884E0,-6.672352791E0,2.394098759E0
1.748850990E0,-2.741242886E0,-6.583771706E0,2.298334837E0
1.751182396E0,-2.741242886E0,-6.538283348E0,2.236088276E0
1.753513802E0,-2.681390524E0,-6.480825424E0,2.116383314E0
1.755846042E0,-2.657449484E0,-6.574194908E0,2.001466513E0
1.758178177E0,-2.698149204E0,-6.717841148E0,1.872185230E0
1.760509584E0,-2.856159687E0,-6.950068474E0,1.762056589E0
1.762840990E0,-2.992623568E0,-7.268484116E0,1.616016626E0
1.765173230E0,-3.164998531E0,-7.579716682E0,1.362242103E0
1.767505417E0,-3.464261055E0,-7.527046680E0,3.160210252E-1
1.769836823E0,-3.813799143E0,-7.876585007E0,4.333318770E-1
1.772168230E0,-4.029268265E0,-8.300340652E0,5.865541697E-1
1.774500417E0,-4.216008186E0,-8.659455299E0,6.583771110E-1
1.776832605E0,-4.376412392E0,-8.920412064E0,7.086532712E-1
1.779164011E0,-4.522452354E0,-9.059269905E0,6.176775098E-1
1.781495417E0,-4.716374397E0,-9.315438271E0,4.955784380E-1
1.783827605E0,-4.898325920E0,-9.377684593E0,3.519325256E-1
1.786159792E0,-5.144917965E0,-9.423172951E0,-2.394098788E-2
1.788491198E0,-5.008454323E0,-9.296284676E0,-3.351738155E-1
1.790822605E0,-3.698882580E0,-9.140668869E0,3.471443057E-1
1.793154844E0,-2.204965115E0,-8.999417305E0,8.786342740E-1
1.795486980E0,-1.266478300E0,-8.882105827E0,1.055797458E0
1.797818386E0,-5.745837092E-1,-8.879712105E0,1.211413980E0
1.800149792E0,-4.309377819E-2,-8.958718300E0,1.379000902E0
1.802482032E0,4.883961678E-1,-8.874923706E0,1.546587706E0
1.804814167E0,1.041432977E0,-8.683396339E0,1.661504507E0
1.807145573E0,1.402941823E0,-8.482292175E0,1.592075586E0
1.809476980E0,1.699810147E0,-8.374557495E0,1.367030382E0
1.811809219E0,1.750086069E0,-8.293157578E0,1.031856537E0
1.814141407E0,1.582499266E0,-8.379345894E0,6.775299311E-1
1.816472813E0,1.340695262E0,-8.300340652E0,3.567207158E-1
1.818804219E0,8.546932340E-1,-8.321887016E0,3.734793961E-1
1.821136407E0,3.160210252E-1,-8.410469055E0,5.482486486E-1
1.823468594E0,-2.441980839E-1,-8.558902740E0,7.230178118E-1
1.825800000E0,-6.655594110E-1,-8.585238457E0,7.804762125E-1
1.828131407E0,-1.051009417E0,-8.664242744E0,6.464067101E-1
1.830463594E0,-1.477158904E0,-8.764796257E0,5.458545089E-1
1.832795782E0,-1.759662628E0,-8.898864746E0,3.686912060E-1
1.835127188E0,-1.927249551E0,-9.087999344E0,2.322275788E-1
1.837458594E0,-2.164265156E0,-9.281921387E0,2.178629786E-1
1.839790782E0,-2.245664597E0,-9.444720268E0,2.154688910E-2
1.842122969E0,-2.195388556E0,-9.480630875E0,-2.441980839E-1
1.844454375E0,-2.051742554E0,-9.545271873E0,-3.423561156E-1
1.846785782E0,-1.886549830E0,-9.564423561E0,-3.088387549E-1
1.849118021E0,-1.874579430E0,-9.600336075E0,-1.173108369E-1
1.851450157E0,-1.783603668E0,-9.576395035E0,1.508282125E-1
1.853781563E0,-1.807544470E0,-9.566819191E0,6.392243505E-1
1.856112969E0,-1.776421309E0,-9.518937111E0,1.163532019E0
1.858445209E0,-1.759662628E0,-9.382472992E0,1.546587706E0
1.860777344E0,-1.501099825E0,-9.169398308E0,1.975131512E0
1.863108750E0,-1.666292787E0,-9.243615150E0,1.948796391E0
1.865440157E0,-1.862608910E0,-9.372897148E0,1.742903829E0
1.867772396E0,-1.989495993E0,-9.375290871E0,1.814726830E0
1.870104584E0,-1.951190472E0,-9.284315109E0,1.872185230E0
1.872435990E0,-1.996678352E0,-9.284315109E0,1.826697350E0
1.874767396E0,-2.082865953E0,-9.394442558E0,1.869791150E0
1.877099584E0,-2.130748034E0,-9.387261391E0,1.994284272E0
1.879431771E0,-2.185812235E0,-9.439930916E0,2.207359076E0
1.881763177E0,-2.200176716E0,-9.509360313E0,2.135535955E0
1.884094584E0,-2.113989353E0,-9.595547676E0,2.090048313E0
1.886426771E0,-2.085259914E0,-9.528512955E0,2.044560432E0
1.888758959E0,-2.044560432E0,-9.528512955E0,2.013437033E0
1.891090365E0,-2.018225193E0,-9.490206718E0,1.972737432E0
1.893421771E0,-1.989495993E0,-9.468661308E0,2.039772034E0
1.895754011E0,-1.999072552E0,-9.368107796E0,2.097230434E0
1.898086146E0,-1.946402192E0,-9.140668869E0,1.977525592E0
1.900417552E0,-1.953584671E0,-8.616360664E0,1.067767978E0
1.902748959E0,-1.817121029E0,-8.362586975E0,9.001811147E-1
1.905081198E0,-1.575317025E0,-8.118389130E0,1.223384500E0
1.907413334E0,-1.355059862E0,-7.840673447E0,1.450823903E0
1.909744740E0,-1.125226378E0,-7.591687202E0,1.584893346E0
1.912076146E0,-8.714519143E-1,-7.215813637E0,1.642351747E0
1.914408386E0,-6.128892303E-1,-7.007526875E0,1.726145267E0
1.916740521E0,-5.674013495E-1,-6.842333794E0,1.616016626E0
1.919071927E0,-5.482486486E-1,-6.696293831E0,1.596863866E0
1.921403386E0,-5.865541697E-1,-6.641230106E0,1.546587706E0
1.923735573E0,-6.128892303E-1,-6.717841148E0,1.462794423E0
1.926067761E0,-6.440125704E-1,-6.813604832E0,1.319148421E0
1.928399167E0,-7.397764921E-1,-6.899792671E0,1.333513021E0
1.930730573E0,-6.942886114E-1,-7.019497395E0,1.520252705E0
1.933062761E0,-7.086532712E-1,-7.196660995E0,1.843456030E0
1.935394948E0,-6.703476310E-1,-7.424099922E0,2.090048313E0
1.937726355E0,-5.889483094E-1,-7.627598286E0,2.394098759E0
1.940057761E0,-3.615089059E-1,-8.034595490E0,2.779548645E0
1.942389948E0,-5.027607456E-2,-8.369769096E0,3.133875132E0
1.944722136E0,5.027607679E-1,-8.877318382E0,3.658183098E0
1.947053542E0,7.038650513E-1,-1.011267281E1,4.065179825E0
1.949384948E0,1.055797458E0,-1.062740421E1,4.314166069E0
1.951717188E0,9.025752544E-1,-1.145815659E1,4.874384880E0
1.954049323E0,4.931843579E-1,-1.213089848E1,4.948602200E0
1.956380730E0,6.942886859E-2,-1.263844681E1,4.754680157E0
1.958712136E0,2.585626841E-1,-1.179572487E1,4.139396667E0
1.961044375E0,3.016564250E-1,-1.021561909E1,3.176969051E0
1.963376511E0,-3.208092153E-1,-1.060106945E1,3.126693010E0
1.965707917E0,-1.048615217E0,-1.160180283E1,2.904041767E0
1.968039323E0,-1.625592947E0,-1.222905636E1,2.509015560E0
1.970371563E0,-2.020619392E0,-1.227215004E1,1.790785909E0
1.972703750E0,-2.113989353E0,-1.192021847E1,1.436459303E0
1.975035157E0,-1.795573950E0,-1.075907993E1,1.431671023E0
1.977366563E0,-1.151561499E0,-9.047299385E0,2.006254673E0
1.979698750E0,-1.309571981E0,-8.932381630E0,2.362975597E0
1.982030938E0,-1.357453942E0,-9.246008873E0,2.456345320E0
1.984362344E0,-1.311966181E0,-9.320225716E0,1.891337991E0
1.986693750E0,-1.426882863E0,-9.231644630E0,1.716568708E0
1.989025938E0,-1.695021868E0,-9.619488716E0,8.929988146E-1
1.991358125E0,-1.635169506E0,-9.413596153E0,3.543266356E-1
1.993689532E0,-1.548981905E0,-8.989841461E0,3.255974352E-1
1.996020938E0,-1.647140026E0,-8.843800545E0,4.788197111E-3
1.998353177E0,-1.702204227E0,-8.657060623E0,1.627987176E-1
2.000685313E0,-1.833879590E0,-8.393710136E0,6.823181510E-1
2.003016719E0,-1.826697350E0,-8.343434334E0,1.216202140E0
2.005348125E0,-1.829091549E0,-8.443985939E0,1.967949152E0
2.007680365E0,-1.805150509E0,-8.676214218E0,2.351005077E0
2.010012500E0,-1.414912343E0,-9.016176224E0,2.832218647E0
2.012343907E0,-1.153955579E0,-9.399231911E0,3.251185894E0
2.014675313E0,-1.070162177E0,-9.901991844E0,3.521719217E0
2.017007552E0,-9.241221547E-1,-1.033771801E1,3.880834103E0
2.019339688E0,-6.440125704E-1,-1.102961254E1,4.405141354E0
2.021671094E0,-5.865541697E-1,-1.214047527E1,4.424294472E0
2.024002500E0,-8.187817335E-1,-1.289940357E1,3.279915333E0
2.026334740E0,-8.546932340E-1,-1.329682446E1,2.949529648E0
2.028666927E0,-7.780820727E-1,-1.354581070E1,1.989495993E0
2.030998334E0,-7.900525331E-1,-1.366551590E1,1.144379258E0
2.033329740E0,-8.929988146E-1,-1.380437279E1,7.972348928E-1
2.035661927E0,-1.175502539E0,-1.403181267E1,4.117850065E-1
2.037994115E0,-1.304783821E0,-1.414672947E1,-3.543266356E-1
2.040325521E0,-1.862608910E0,-1.489368820E1,-7.708998322E-1
2.042656927E0,-2.281575918E0,-1.577232265E1,-5.027607456E-2
2.044989115E0,-2.487468481E0,-1.625353622E1,-4.285436869E-1
2.047321302E0,-2.599991322E0,-1.638521194E1,-1.077344418E-1
2.049652709E0,-2.595202923E0,-1.636845207E1,-7.804762125E-1
2.051984115E0,-2.509015560E0,-1.626790047E1,-1.201837659E0
2.054316355E0,-2.535350561E0,-1.604046249E1,-1.754874349E0
2.056648490E0,-2.516197681E0,-1.571725845E1,-2.118777514E0
2.058979896E0,-2.520986080E0,-1.550418282E1,-2.264817476E0
2.061311302E0,-2.530562401E0,-1.540123653E1,-2.394098759E0
2.063643542E0,-2.372551680E0,-1.518816185E1,-2.432404280E0
2.065975677E0,-2.159476995E0,-1.499663544E1,-2.394098759E0
2.068307084E0,-1.951190472E0,-1.472370720E1,-2.269605398E0
2.070638490E0,-1.659110427E0,-1.442923260E1,-2.054136753E0
2.072970730E0,-1.386183143E0,-1.406532955E1,-1.728539228E0
2.075302865E0,-1.127620459E0,-1.366072655E1,-1.242537260E0
2.077634271E0,-8.499050736E-1,-1.321303082E1,-6.224656701E-1
2.079965677E0,-6.296479702E-1,-1.273181725E1,9.576395154E-2
2.082297917E0,-3.974204063E-1,-1.215244484E1,9.073634148E-1
2.084630105E0,-1.412518322E-1,-1.146773338E1,1.644745827E0
2.086961511E0,1.675869152E-2,-1.084526730E1,2.262423277E0
2.089292917E0,-2.633508667E-2,-1.014618969E1,2.386916399E0
2.091625105E0,2.705331445E-1,-9.724828720E0,2.714907885E0
2.093957292E0,4.141790867E-1,-9.356138229E0,2.992623568E0
2.096288698E0,5.243076086E-1,-9.064058304E0,3.047687769E0
2.098620105E0,5.554309487E-1,-8.831830025E0,3.097963810E0
2.100952292E0,5.027607679E-1,-8.625938416E0,3.040505409E0
2.103284480E0,4.165731966E-1,-8.508626938E0,2.908829927E0
2.105615886E0,2.944741547E-1,-8.453562737E0,2.693361044E0
2.107947292E0,1.460400373E-1,-8.455957413E0,2.456345320E0
2.110279532E0,-2.154688910E-2,-8.520597458E0,2.224117756E0
2.112611667E0,-2.034983933E-1,-8.683396339E0,1.991890073E0
2.114943073E0,-2.920800745E-1,-8.965900421E0,2.154688835E0
2.117274480E0,-4.788197577E-1,-9.200521469E0,2.003860712E0
2.119606719E0,-6.990768313E-1,-9.329803467E0,1.505888104E0
2.121938855E0,-9.097574949E-1,-9.427961349E0,9.887627959E-1
2.124270261E0,-1.113255858E0,-9.585970879E0,6.104952097E-1
2.126601667E0,-1.299995661E0,-9.751164436E0,3.543266356E-1
2.128933907E0,-1.505888104E0,-9.866081238E0,1.627987176E-1
2.131266042E0,-1.654322267E0,-9.904387474E0,1.197049394E-1
2.133597448E0,-1.824303269E0,-9.870868683E0,1.795574129E-1
2.135928855E0,-1.979919672E0,-1.003606224E1,1.795574129E-1
2.138261094E0,-1.618410707E0,-1.057473373E1,-2.130747885E-1
2.140593282E0,-1.434065104E0,-1.052206421E1,-8.546932340E-1
2.142924688E0,-1.764450788E0,-9.595547676E0,-3.447502255E-1
2.145256094E0,-2.023013592E0,-8.982658386E0,8.283581734E-1
2.147588282E0,-1.814726830E0,-8.944353104E0,1.807544470E0
2.149920469E0,-1.264084101E0,-8.975476265E0,2.509015560E0
2.152251875E0,-6.607712507E-1,-8.920412064E0,2.990229368E0
2.154583282E0,-2.920800745E-1,-8.891682625E0,2.880100727E0
2.156915469E0,-2.274393737E-1,-8.870136261E0,2.252846956E0
2.159247657E0,-5.027607679E-1,-8.822254181E0,1.551375985E0
2.161579063E0,-9.839745760E-1,-8.501444817E0,1.240143180E0
2.163910469E0,-8.834224343E-1,-8.274005890E0,1.158743739E0
2.166242709E0,-6.895004511E-1,-8.135147095E0,8.786342740E-1
2.168574844E0,-7.134414315E-1,-8.089659691E0,5.961305499E-1
2.170906250E0,-8.475109339E-1,-8.099235535E0,4.979725182E-1
2.173237657E0,-1.039038897E0,-8.161482811E0,5.889483094E-1
2.175569896E0,-1.177896619E0,-8.297946930E0,7.948408127E-1
2.177902032E0,-1.259295940E0,-8.326675415E0,9.576395154E-1
2.180233438E0,-1.254507780E0,-8.312311172E0,1.161137819E0
2.182564844E0,-1.237748981E0,-8.321887016E0,1.352665782E0
2.184897084E0,-1.187473059E0,-8.314704895E0,1.544193745E0
2.187229271E0,-1.216202140E0,-8.338645935E0,1.735721588E0
2.189560677E0,-1.254507780E0,-8.412862778E0,1.860214710E0
2.191892084E0,-1.352665782E0,-8.671425819E0,1.955978632E0
2.194224271E0,-1.371818662E0,-8.939564705E0,1.752480268E0
2.196556459E0,-1.422094584E0,-9.200521469E0,1.347877622E0
2.198887865E0,-1.721356988E0,-9.638642311E0,8.499050736E-1
2.201219271E0,-2.027801514E0,-1.006479073E1,5.554309487E-1
2.203551459E0,-2.216935396E0,-1.047657585E1,3.710853159E-1
2.205883646E0,-2.305516958E0,-1.086202621E1,2.681390643E-1
2.208215052E0,-2.271999836E0,-1.119719982E1,1.627987176E-1
2.210546459E0,-2.154688835E0,-1.141506290E1,9.815804660E-2
2.212878646E0,-2.011043072E0,-1.155392075E1,3.351738304E-2
2.215210834E0,-1.838667870E0,-1.176699543E1,-1.244931296E-1
2.217542240E0,-1.685445547E0,-1.192500591E1,-2.777154744E-1
2.219873646E0,-1.513070345E0,-1.215244484E1,-3.710853159E-1
2.222205886E0,-1.386183143E0,-1.239664268E1,-3.591148257E-1
2.224538021E0,-1.266478300E0,-1.271266365E1,-3.495384157E-1
2.226869427E0,-1.165926099E0,-1.293770981E1,-4.788197577E-1
2.229200834E0,-1.082132578E0,-1.315317917E1,-6.128892303E-1
2.231533073E0,-1.000733256E0,-1.315796661E1,-6.727417707E-1
2.233865209E0,-9.001811147E-1,-1.299277401E1,-5.386722088E-1
2.236196615E0,-8.115994930E-1,-1.246128368E1,-3.088387549E-1
2.238528021E0,-8.235700130E-1,-1.175023746E1,-9.097574651E-2
2.240860261E0,-8.403286934E-1,-1.107270718E1,9.576394223E-3
2.243192448E0,-8.092053533E-1,-1.056994629E1,4.788197577E-2
2.245523855E0,-7.278059721E-1,-1.021322536E1,6.703476608E-2
2.247855261E0,-6.392243505E-1,-9.846927643E0,3.591148183E-2
2.250187448E0,-5.482486486E-1,-9.547665596E0,-2.872918546E-2
2.252519636E0,-6.344361901E-1,-9.514147758E0,-2.872918546E-2
2.254851042E0,-7.086532712E-1,-9.516543388E0,-4.788197111E-3
2.257182448E0,-7.182296515E-1,-9.562029839E0,7.182296365E-3
2.259514636E0,-7.469587922E-1,-9.720041275E0,8.618755639E-2
2.261846823E0,-7.924466729E-1,-9.851716042E0,1.891337931E-1
2.264178230E0,-8.786342740E-1,-9.935509682E0,1.220990419E-1
2.266509636E0,-9.456689954E-1,-1.018688965E1,6.320420504E-1
2.268841823E0,-9.696099758E-1,-1.024195385E1,9.672158957E-1
2.271174011E0,-1.132408738E0,-1.021561909E1,9.456689954E-1
2.273505417E0,-1.189867139E0,-1.015576744E1,6.607712507E-1
2.275836823E0,-1.149167418E0,-1.010788536E1,5.602191091E-1
2.278169063E0,-9.791863561E-1,-1.002409077E1,7.086532712E-1
2.280501198E0,-8.451168537E-1,-9.904387474E0,1.072556257E0
2.282832605E0,-7.325941920E-1,-9.734406471E0,1.402941823E0
2.285164011E0,-6.511948705E-1,-9.528512955E0,1.422094584E0
2.287496250E0,-6.703476310E-1,-9.346562386E0,1.209019899E0
2.289828386E0,-7.230178118E-1,-9.183762550E0,1.137196898E0
2.292159792E0,-8.546932340E-1,-9.037722588E0,1.000733256E0
2.294491198E0,-8.810282946E-1,-9.171792030E0,6.703476310E-1
2.296823438E0,-1.244931340E0,-9.494996071E0,-2.226511836E-1
2.299155625E0,-1.666292787E0,-1.016773701E1,-7.661116123E-1
2.301487032E0,-1.388577223E0,-1.018688965E1,-1.187473059E0
2.303818438E0,-8.618755341E-1,-9.866081238E0,-1.369424462E0
2.306150625E0,-6.511948705E-1,-9.954663277E0,-1.469976664E0
2.308482813E0,-3.950262666E-1,-9.739193916E0,-1.244931340E0
2.310814219E0,-2.202570736E-1,-9.518937111E0,-7.206237316E-1
2.313145625E0,-2.250452787E-1,-9.514147758E0,-1.101285368E-1
2.315477813E0,-1.580105126E-1,-9.528512955E0,5.290958285E-1
2.317810000E0,-1.364636272E-1,-9.595547676E0,1.153955579E0
2.320141407E0,-4.788197111E-3,-9.523724556E0,1.630381227E0
2.322472813E0,2.274393737E-1,-9.277132988E0,1.994284272E0
2.324805000E0,4.788197577E-1,-8.906046867E0,2.214541197E0
2.327137188E0,5.793718696E-1,-8.534961700E0,2.188206196E0
2.329468594E0,5.650073290E-1,-8.218940735E0,2.092442274E0
2.331800000E0,4.405141473E-1,-7.898131847E0,1.793179989E0
2.334132240E0,2.944741547E-1,-7.629992485E0,1.441247463E0
2.336464375E0,2.298334837E-1,-7.318759918E0,1.082132578E0
2.338795782E0,2.226511836E-1,-7.062591553E0,8.546932340E-1
2.341127188E0,2.178629786E-1,-6.851910591E0,6.057069898E-1
2.343459427E0,1.987102032E-1,-6.782482147E0,4.069967866E-1
2.345791563E0,1.340695322E-1,-6.765723228E0,3.639029860E-1
2.348122969E0,-3.830557689E-2,-6.966827393E0,3.662970960E-1
2.350454375E0,-2.370157838E-1,-7.232572556E0,3.758735061E-1
2.352786615E0,-4.069967866E-1,-7.469587803E0,4.069967866E-1
2.355118802E0,-4.955784380E-1,-7.555775642E0,4.261495769E-1
2.357450209E0,-4.405141473E-1,-7.543805122E0,5.937365294E-1
2.359781615E0,-4.381200671E-1,-7.555775642E0,5.267017484E-1
2.362113802E0,-5.123371482E-1,-7.625204563E0,5.506426692E-1
2.364445990E0,-5.147312284E-1,-7.515076160E0,7.685056925E-1
2.366777396E0,-4.812138379E-1,-7.428888321E0,9.959450364E-1
2.369108802E0,-3.710853159E-1,-7.371429920E0,1.283236861E0
2.371440990E0,-4.333318770E-1,-7.323547840E0,1.359848142E0
2.373773177E0,-5.386722088E-1,-7.318759918E0,1.668686867E0
2.376104584E0,-5.267017484E-1,-7.318759918E0,1.785997629E0
2.378435990E0,-6.272538900E-1,-7.211025715E0,1.845850110E0
2.380768177E0,-7.373824120E-1,-7.227784157E0,1.797968149E0
2.383100365E0,-8.283581734E-1,-7.242148399E0,1.735721588E0
2.385431771E0,-1.139590979E0,-7.450435638E0,1.381394982E0
2.387763177E0,-1.347877622E0,-7.663509846E0,9.504572153E-1
2.390095417E0,-1.343089342E0,-7.699421406E0,5.554309487E-1
2.392427552E0,-1.230566740E0,-7.742515564E0,9.576395154E-2
2.394758959E0,-9.121516347E-1,-7.567746162E0,-1.627987176E-1
2.397090365E0,-7.972348928E-1,-7.443253040E0,-5.817660093E-1
2.399422605E0,-6.703476310E-1,-7.098503113E0,-7.014709115E-1
2.401754740E0,-6.990768313E-1,-6.796846390E0,-8.666637540E-1
2.404086146E0,-4.764256477E-1,-6.375484943E0,-1.029462457E0
2.406417552E0,-3.112328351E-1,-6.002005577E0,-1.161137819E0
2.408749792E0,-2.633508742E-1,-5.520791531E0,-8.283581734E-1
2.411081927E0,-2.274393737E-1,-4.795380116E0,-8.379345536E-1
2.413413334E0,1.125226393E-1,-3.571995258E0,-6.799240708E-1
2.415744792E0,6.033128500E-1,-2.738848925E0,-3.950262666E-1
2.418076980E0,8.307522535E-1,-2.465921640E0,-4.524846673E-1
2.420409167E0,5.985246897E-1,-2.592808962E0,-4.237554669E-1
2.422740573E0,5.793718696E-1,-2.487468481E0,-2.394098788E-1
2.425071980E0,5.171253681E-1,-2.453951359E0,-6.344361901E-1
2.427404167E0,5.267017484E-1,-2.394098759E0,-9.001811147E-1
2.429736355E0,7.589293122E-1,-2.106806993E0,-1.381394982E0
2.432067761E0,1.307177901E0,-3.112328239E-2,-2.894465446E0
2.434399167E0,1.381394982E0,1.323936582E0,-4.031662464E0
2.436731355E0,-1.915278845E-2,-1.596863866E0,-3.698882580E0
2.439063542E0,-5.578250289E-1,-2.837007046E0,-3.476231575E0
2.441394948E0,2.346216738E-1,-2.011043072E0,-3.531295776E0
2.443726355E0,7.828702927E-1,-1.225778461E0,-3.473837137E0
2.446058594E0,8.379345536E-1,-9.049693346E-1,-3.617483139E0
2.448390730E0,7.014709115E-1,-1.173108339E0,-4.034056664E0
2.450722136E0,2.920800745E-1,-1.785997629E0,-3.902380943E0
2.453053542E0,1.173108369E-1,-3.018958569E0,-3.706064701E0
2.455385782E0,1.891337931E-1,-3.964627504E0,-3.083599329E0
2.457717917E0,2.394098788E-1,-4.464993954E0,-1.963160992E0
2.460049323E0,-3.591148257E-1,-5.281382084E0,-7.254119515E-1
2.462380730E0,-8.211758733E-1,-5.793718815E0,1.771633178E-1
2.464712969E0,-1.130014658E0,-6.289297581E0,1.338301301E0
2.467045105E0,-1.130014658E0,-6.830363274E0,2.860948086E0
2.469376511E0,-9.672158957E-1,-7.594080925E0,4.431477070E0
2.471707969E0,-1.144379258E0,-9.363320351E0,5.216741085E0
2.474040157E0,-1.201837659E0,-1.100806618E1,5.243076324E0
2.476372344E0,-7.421706319E-1,-1.174065971E1,4.943813801E0
2.478703750E0,5.267017335E-2,-1.207343960E1,4.481752872E0
2.481035157E0,6.152833700E-1,-1.246607208E1,3.969415665E0
2.483367344E0,1.055797458E0,-1.274378777E1,3.287097454E0
2.485699532E0,1.077344418E0,-1.294010353E1,2.384522200E0
2.488030938E0,1.000733256E0,-1.301432133E1,1.398153663E0
2.490362344E0,9.408808351E-1,-1.286588669E1,8.068112731E-1
2.492694532E0,9.839745760E-1,-1.285870361E1,-1.436459273E-2
2.495026719E0,8.546932340E-1,-1.334231186E1,-9.313044548E-1
2.497358125E0,3.519325256E-1,-1.381394958E1,-1.211413980E0
2.499689532E0,-3.423561156E-1,-1.353384018E1,-1.161137819E0
2.502021771E0,-1.458006144E0,-1.316514874E1,-1.345483541E0
2.504353907E0,-2.386916399E0,-1.301910877E1,-1.800362229E0
2.506685313E0,-3.356526613E0,-1.337104225E1,-2.456345320E0
2.509016719E0,-3.777887821E0,-1.383789062E1,-2.561685801E0
2.511348959E0,-3.351738214E0,-1.326809502E1,-1.750086069E0
2.513681094E0,-3.016564608E0,-1.451781464E1,-1.194655299E0
2.516012500E0,-3.193727732E0,-1.613622665E1,-9.743981957E-1
2.518343907E0,-3.083599329E0,-1.678502655E1,-8.355404139E-1
2.520676146E0,-2.640691042E0,-1.642112350E1,-5.147312284E-1
2.523008334E0,-1.867396951E0,-1.527674389E1,4.668492377E-1
2.525339740E0,-1.046221137E0,-1.413236523E1,1.532223225E0
2.527671146E0,-4.237554669E-1,-1.279166985E1,2.968682528E0
2.530003334E0,-2.872918546E-2,-1.155152607E1,2.896859407E0
2.532335521E0,3.088387549E-1,-1.097694302E1,2.154688835E-1
2.534666927E0,6.511948705E-1,-1.093145466E1,-1.558558226E0
2.536998334E0,6.847122312E-1,-1.127859879E1,-1.616016626E0
2.539330521E0,5.290958285E-1,-1.158983231E1,-1.283236861E0
2.541662709E0,2.298334837E-1,-1.163771439E1,-8.546932340E-1
2.543994115E0,1.412518322E-1,-1.169277763E1,1.412518322E-1
2.546325521E0,3.327797055E-1,-1.074950314E1,1.019886017E0
2.548657709E0,6.200715899E-1,-9.231644630E0,1.807544470E0
2.550989896E0,5.889483094E-1,-8.080083847E0,2.480286360E0
2.553321302E0,4.836079478E-1,-6.933310032E0,2.851371527E0
2.555652709E0,8.618755639E-2,-6.301268101E0,3.244003773E0
2.557984948E0,-6.607712507E-1,-5.343628407E0,5.932576656E0
2.560317084E0,-1.041432977E0,-4.110667706E0,6.207898140E0
2.562648490E0,-7.254119515E-1,-3.176969051E0,3.610301018E0
2.564979896E0,-4.644551575E-1,-3.033323050E0,-4.668492377E-1
2.567312136E0,7.900525630E-2,-2.738848925E0,-3.694094181E0
2.569644271E0,6.344361901E-1,-2.197782755E0,-5.717107773E0
2.571975677E0,5.961305499E-1,-2.453951359E0,-6.492795944E0
2.574307084E0,8.522991538E-1,-2.798701525E0,-7.211025715E0
2.576639323E0,2.825036645E-1,-5.626132011E0,-8.276399612E0
2.578971511E0,-2.202570736E-1,-9.157427788E0,-8.949140549E0
2.581302917E0,1.125226393E-1,-1.197288799E1,-9.006599426E0
2.583634323E0,1.651928127E-1,-1.483862400E1,-8.130359650E0
2.585966511E0,1.963160932E-1,-1.780012321E1,-6.349150181E0
2.588298698E0,-1.651928127E-1,-2.156125450E1,-3.492990017E0
2.590630105E0,-1.328724742E0,-2.517394829E1,-2.513803840E-1
2.592961511E0,-2.640691042E0,-2.788167381E1,3.129086971E0
2.595293698E0,-4.216008186E0,-2.962936592E1,5.920606136E0
2.597625886E0,-5.525579929E0,-3.032604790E1,7.720968723E0
2.599957292E0,-6.191139698E0,-2.962697220E1,8.903653145E0
2.602288698E0,-6.310844421E0,-2.818572426E1,9.035328865E0
2.604620886E0,-6.042705059E0,-2.630635834E1,8.625938416E0
2.606953073E0,-5.537550449E0,-2.419955063E1,7.761668205E0
2.609284480E0,-5.202376366E0,-2.250692177E1,6.435337543E0
2.611615886E0,-4.852838039E0,-2.131466293E1,5.417845726E0
2.613948125E0,-3.368496895E0,-1.875536919E1,3.789858341E0
2.616280261E0,-2.396492720E0,-1.675150871E1,2.322275639E0
2.618611667E0,-1.886549830E0,-1.546109009E1,1.252113581E0
2.620943073E0,-1.577711105E0,-1.451781464E1,6.871063113E-1
2.623275313E0,-1.474764824E0,-1.385943794E1,3.423561156E-1
2.625607448E0,-1.412518263E0,-1.320824337E1,2.729272544E-1
2.627938855E0,-1.407730103E0,-1.283476257E1,3.208092153E-1
2.630270261E0,-1.577711105E0,-1.268154144E1,4.093908668E-1
2.632602500E0,-1.809938669E0,-1.265041828E1,4.716374576E-1
2.634934688E0,-1.936825871E0,-1.256183624E1,4.309377670E-1
2.637266094E0,-1.893732071E0,-1.235594368E1,3.686912060E-1
2.639597500E0,-1.850638390E0,-1.208780479E1,2.513803840E-1
2.641929688E0,-1.695021868E0,-1.168080807E1,9.815804660E-2
2.644261875E0,-1.570528746E0,-1.126662922E1,-5.506426841E-2
2.646593282E0,-1.398153663E0,-1.075907993E1,-1.244931296E-1
2.648924688E0,-1.235355020E0,-1.030420113E1,-2.848977447E-1
2.651256875E0,-1.106073618E0,-9.803833961E0,-3.303856254E-1
2.653589063E0,-1.053403497E0,-9.432748795E0,-2.058925033E-1
2.655920469E0,-1.110861897E0,-9.291497231E0,-7.421706617E-2
2.658251875E0,-1.187473059E0,-9.313043594E0,-5.506426841E-2
2.660584115E0,-1.283236861E0,-9.370502472E0,-6.464067101E-2
2.662916250E0,-1.288025141E0,-9.442324638E0,-1.197049394E-2
2.665247657E0,-1.307177901E0,-9.607518196E0,0.000000000E0
2.667579063E0,-1.252113581E0,-9.657793999E0,-4.069967940E-2
2.669911302E0,-1.173108339E0,-9.626670837E0,-5.267017335E-2
2.672243438E0,2.657449543E-1,-7.924467087E0,-6.272538900E-1
2.674574844E0,7.182296365E-2,-6.736993790E0,-6.823181510E-1
2.676906250E0,-2.121171474E0,-9.188550949E0,7.421706617E-2
2.679238490E0,-3.016564608E0,-1.048854733E1,3.806616962E-1
2.681570625E0,-2.892071247E0,-1.065852833E1,4.237554669E-1
2.683902032E0,-2.470710039E0,-1.059149265E1,4.357259572E-1
2.686233490E0,-2.068501472E0,-1.056515789E1,3.040505350E-1
2.688565677E0,-1.596863866E0,-1.051009369E1,1.747692078E-1
2.690897865E0,-1.170714259E0,-1.044305897E1,1.029462516E-1
2.693229271E0,-7.517470121E-1,-1.036644840E1,1.292813420E-1
2.695560677E0,-4.716374576E-1,-1.029462528E1,1.795574129E-1
2.697892865E0,-3.375679255E-1,-1.029701900E1,1.891337931E-1
2.700225052E0,-1.891337931E-1,-1.025392532E1,1.843456030E-1
2.702556459E0,-2.633508667E-2,-1.031138325E1,2.298334837E-1
2.704887865E0,9.336984903E-2,-1.031138325E1,2.489862591E-1
2.707220052E0,1.532223076E-1,-1.033292961E1,1.843456030E-1
2.709552240E0,2.250452787E-1,-1.028983593E1,1.963160932E-1
2.711883646E0,2.489862591E-1,-1.026110744E1,1.484341323E-1
2.714215052E0,2.346216738E-1,-1.032096004E1,1.101285368E-1
2.716547292E0,1.627987176E-1,-1.043587589E1,7.900525630E-2
2.718879427E0,8.858165890E-2,-1.059388733E1,8.379345387E-2
2.721210834E0,-1.436459273E-2,-1.072795582E1,3.351738304E-2
2.723542240E0,-1.077344418E-1,-1.090511990E1,7.182296365E-3
2.725874480E0,-1.723751128E-1,-1.101045990E1,-1.220990419E-1
2.728206615E0,-3.950262666E-1,-1.126902294E1,-2.058925033E-1
2.730538021E0,-5.195194483E-1,-1.145336819E1,-2.561685741E-1
2.732869427E0,-6.607712507E-1,-1.161137867E1,-2.872918546E-1
2.735201667E0,-7.230178118E-1,-1.171911335E1,-3.112328351E-1
2.737533855E0,-7.876585126E-1,-1.179333019E1,-3.567207158E-1
2.739865209E0,-8.738460541E-1,-1.186036491E1,-3.830558062E-1
2.742196615E0,-9.169397950E-1,-1.197049427E1,-4.189672768E-1
2.744528855E0,-9.600335956E-1,-1.202795219E1,-4.668492377E-1
2.746861042E0,-9.839745760E-1,-1.207104588E1,-4.812138379E-1
2.749192448E0,-1.000733256E0,-1.209019947E1,-5.099430084E-1
2.751523855E0,-9.863687158E-1,-1.204949856E1,-5.219135284E-1
2.753856042E0,-9.983391762E-1,-1.200640488E1,-5.171253681E-1
2.756188230E0,-9.121516347E-1,-1.182924175E1,-5.314899087E-1
2.758519636E0,-8.403286934E-1,-1.164968491E1,-5.889483094E-1
2.760851042E0,-7.397764921E-1,-1.140788078E1,-5.961305499E-1
2.763183230E0,-6.272538900E-1,-1.107749462E1,-5.674013495E-1
2.765515417E0,-5.362781286E-1,-1.071119785E1,-5.171253681E-1
2.767846823E0,-5.219135284E-1,-1.024434853E1,-4.716374576E-1
2.770178230E0,-5.721896291E-1,-9.868474960E0,-3.902381063E-1
2.772510469E0,-5.913423896E-1,-9.396838188E0,-2.920800745E-1
2.774842605E0,-6.392243505E-1,-8.961112022E0,-6.224656478E-2
2.777174011E0,-7.302001119E-1,-8.563691139E0,2.418039739E-1
2.779505417E0,-7.421706319E-1,-8.147117615E0,5.410662889E-1
2.781837657E0,-7.134414315E-1,-7.778427124E0,9.265161753E-1
2.784169792E0,-5.913423896E-1,-7.476770401E0,1.256901860E0
2.786501198E0,-3.375679255E-1,-7.074562073E0,1.541799664E0
2.788832605E0,6.703476608E-2,-6.667564869E0,1.644745827E0
2.791164844E0,4.812138379E-1,-6.334785461E0,1.613622546E0
2.793496980E0,9.169397950E-1,-6.107346058E0,1.558558226E0
2.795828386E0,1.364636302E0,-5.970882416E0,1.400547743E0
2.798159844E0,1.812332749E0,-5.956517696E0,1.331118822E0
2.800492032E0,2.039772034E0,-6.150439262E0,1.254507780E0
2.802824219E0,2.125959635E0,-6.550253868E0,1.170714259E0
2.805155625E0,1.958372712E0,-7.155961037E0,1.122832298E0
2.807487032E0,1.627987146E0,-7.850249767E0,1.072556257E0
2.809819219E0,1.268872380E0,-8.491868019E0,1.084526777E0
2.812151407E0,9.384866953E-1,-9.023358345E0,1.072556257E0
2.814482813E0,6.966827512E-1,-9.396838188E0,1.051009417E0
2.816814219E0,4.883961678E-1,-9.669765472E0,1.024674296E0
2.819146407E0,3.758735061E-1,-9.873263359E0,9.576395154E-1
2.821478594E0,2.561685741E-1,-9.995362282E0,8.403286934E-1
2.823810000E0,1.508282125E-1,-1.007197285E1,7.254119515E-1
2.826141407E0,5.985246971E-2,-1.016534328E1,6.200715899E-1
2.828473646E0,-3.112328239E-2,-1.022758961E1,5.147312284E-1
2.830805782E0,-1.460400373E-1,-1.028504753E1,4.117850065E-1
2.833137188E0,-2.370157838E-1,-1.037123585E1,3.208092153E-1
2.835468594E0,-3.136269450E-1,-1.036644840E1,2.609567642E-1
2.837800834E0,-4.117850065E-1,-1.037123585E1,1.939219981E-1
2.840132969E0,-4.572728872E-1,-1.035208321E1,1.723751128E-1
2.842464375E0,-5.075489283E-1,-1.026828957E1,1.484341323E-1
2.844795782E0,-5.171253681E-1,-1.018688965E1,1.819514930E-1
2.847128021E0,-5.362781286E-1,-1.010549068E1,2.034983933E-1
2.849460209E0,-5.817660093E-1,-1.002888012E1,2.394098788E-1
2.851791615E0,-5.961305499E-1,-9.969026566E0,2.896859348E-1
2.854123021E0,-5.985246897E-1,-9.937904358E0,3.279915452E-1
2.856455209E0,-6.104952097E-1,-9.866081238E0,3.854499161E-1
2.858787396E0,-6.344361901E-1,-9.839746475E0,4.309377670E-1
2.861118802E0,-6.535889506E-1,-9.787075996E0,4.237554669E-1
2.863450209E0,-6.607712507E-1,-9.743982315E0,4.381200671E-1
2.865782396E0,-6.847122312E-1,-9.712859154E0,4.333318770E-1
2.868114584E0,-6.799240708E-1,-9.681735039E0,4.357259572E-1
2.870445990E0,-6.799240708E-1,-9.696100235E0,4.165731966E-1
2.872777396E0,-6.871063113E-1,-9.664977074E0,3.902381063E-1
2.875109584E0,-6.703476310E-1,-9.653005600E0,3.686912060E-1
2.877441771E0,-6.871063113E-1,-9.681735039E0,3.303856254E-1
2.879773177E0,-6.918945909E-1,-9.686524391E0,2.872918546E-1
2.882104584E0,-7.254119515E-1,-9.703282356E0,2.394098788E-1
2.884436823E0,-7.325941920E-1,-9.700887680E0,1.819514930E-1
2.886768959E0,-7.445647120E-1,-9.732010841E0,1.149167418E-1
2.889100365E0,-7.254119515E-1,-9.712859154E0,6.224656478E-2
2.891431771E0,-7.302001119E-1,-9.679341316E0,2.394098556E-3
2.893764011E0,-7.182296515E-1,-9.664977074E0,-6.703476608E-2
2.896096146E0,-7.373824120E-1,-9.662583351E0,-1.101285368E-1
2.898427552E0,-7.038650513E-1,-9.614701271E0,-1.604046077E-1
2.900758959E0,-6.655594110E-1,-9.590760231E0,-2.058925033E-1
2.903091198E0,-7.014709115E-1,-9.569212914E0,-2.441980839E-1
2.905423386E0,-7.062591314E-1,-9.542878151E0,-2.729272544E-1
2.907754792E0,-7.062591314E-1,-9.533301353E0,-2.753213346E-1
2.910086198E0,-7.206237316E-1,-9.502178192E0,-2.920800745E-1
2.912418386E0,-7.206237316E-1,-9.485419273E0,-2.896859348E-1
2.914750573E0,-7.158355117E-1,-9.475843430E0,-3.016564250E-1
2.917081980E0,-7.230178118E-1,-9.490206718E0,-3.255974352E-1
2.919413386E0,-7.110472918E-1,-9.492602348E0,-3.208092153E-1
2.921745573E0,-7.014709115E-1,-9.506965637E0,-2.777154744E-1
2.924077761E0,-7.014709115E-1,-9.530906677E0,-2.609567642E-1
2.926409167E0,-6.966827512E-1,-9.514147758E0,-2.370157838E-1
2.928740573E0,-6.847122312E-1,-9.540484428E0,-2.418039739E-1
2.931072813E0,-6.607712507E-1,-9.595547676E0,-2.011042982E-1
2.933404948E0,-6.535889506E-1,-9.660187721E0,-1.627987176E-1
2.935736355E0,-6.081010699E-1,-9.667370796E0,-1.604046077E-1
2.938067761E0,-5.817660093E-1,-9.708069801E0,-1.723751128E-1
2.940400000E0,-5.841601491E-1,-9.791864395E0,-1.627987176E-1
2.942732136E0,-5.697954893E-1,-9.846927643E0,-1.412518322E-1
2.945063542E0,-5.362781286E-1,-9.887627602E0,-1.340695322E-1
2.947394948E0,-4.955784380E-1,-9.897204399E0,-9.576395154E-2
2.949727188E0,-4.764256477E-1,-9.933115959E0,-6.703476608E-2
2.952059323E0,-4.381200671E-1,-9.940298080E0,-6.464067101E-2
2.954390730E0,-4.237554669E-1,-9.983391762E0,-5.267017335E-2
2.956722136E0,-4.189672768E-1,-9.990573883E0,-4.788197577E-2
2.959054375E0,-4.022085965E-1,-1.000493908E1,-5.506426841E-2
2.961386563E0,-3.519325256E-1,-9.985786438E0,-4.548787326E-2
2.963717969E0,-3.567207158E-1,-9.942691803E0,-4.788197577E-2
2.966049375E0,-3.519325256E-1,-9.966632843E0,-5.027607456E-2
2.968381563E0,-3.279915452E-1,-9.992967606E0,-5.985246971E-2
2.970713750E0,-3.184151351E-1,-1.000014973E1,-5.985246971E-2
2.973045157E0,-3.208092153E-1,-9.988180161E0,-4.069967940E-2
2.975376563E0,-3.327797055E-1,-9.983391762E0,-5.267017335E-2
2.977708750E0,-3.184151351E-1,-9.947480202E0,-8.858165890E-2
2.980040938E0,-3.447502255E-1,-9.976208687E0,-7.900525630E-2
2.982372344E0,-3.447502255E-1,-9.964239120E0,-9.336984903E-2
2.984703750E0,-3.615089059E-1,-9.966632843E0,-1.005521491E-1
2.987035938E0,-3.854499161E-1,-9.980998039E0,-1.292813420E-1
2.989368125E0,-3.998144865E-1,-9.971421242E0,-1.244931296E-1
2.991699532E0,-4.141790867E-1,-9.937904358E0,-1.412518322E-1
2.994030938E0,-4.357259572E-1,-9.949873924E0,-1.532223076E-1
2.996363177E0,-4.812138379E-1,-9.940298080E0,-1.675869077E-1
2.998695313E0,-4.931843579E-1,-9.909174919E0,-1.819514930E-1
3.001026719E0,-5.362781286E-1,-9.890022278E0,-2.011042982E-1
3.003358125E0,-5.506426692E-1,-9.846927643E0,-1.604046077E-1
3.005690365E0,-5.865541697E-1,-9.815805435E0,-1.963160932E-1
3.008022552E0,-6.488007307E-1,-9.791864395E0,-1.987102032E-1
3.010353959E0,-6.727417707E-1,-9.746376038E0,-1.987102032E-1
3.012685365E0,-7.086532712E-1,-9.732010841E0,-2.034983933E-1
3.015017552E0,-7.565351725E-1,-9.693705559E0,-1.867396981E-1
3.017349740E0,-7.948408127E-1,-9.693705559E0,-2.034983933E-1
3.019681146E0,-8.163877130E-1,-9.681735039E0,-1.867396981E-1
3.022012552E0,-8.499050736E-1,-9.657793999E0,-1.723751128E-1
3.024344740E0,-8.929988146E-1,-9.636246681E0,-1.484341323E-1
3.026676927E0,-9.289103150E-1,-9.629064560E0,-1.771633178E-1
3.029008334E0,-9.432749152E-1,-9.629064560E0,-1.843456030E-1
3.031339740E0,-9.576395154E-1,-9.655400276E0,-2.011042982E-1
3.033671927E0,-9.863687158E-1,-9.679341316E0,-1.915279031E-1
3.036004115E0,-9.983391762E-1,-9.696100235E0,-1.939219981E-1
3.038335521E0,-1.000733256E0,-9.712859154E0,-2.130747885E-1
3.040666927E0,-1.024674296E0,-9.739193916E0,-2.298334837E-1
3.042999167E0,-1.019886017E0,-9.777499199E0,-2.058925033E-1
3.045331302E0,-1.017491937E0,-9.837351799E0,-2.058925033E-1
3.047662709E0,-1.000733256E0,-9.832564354E0,-2.058925033E-1
3.049994115E0,-9.839745760E-1,-9.839746475E0,-1.963160932E-1
3.052326355E0,-9.743981957E-1,-9.844533920E0,-1.747692078E-1
3.054658490E0,-9.672158957E-1,-9.882840157E0,-1.627987176E-1
3.056989896E0,-9.169397950E-1,-9.873263359E0,-1.508282125E-1
3.059321302E0,-8.906047344E-1,-9.894809723E0,-1.460400373E-1
3.061653542E0,-8.475109339E-1,-9.878050804E0,-1.484341323E-1
3.063985730E0,-8.283581734E-1,-9.901991844E0,-1.436459273E-1
3.066317136E0,-7.996289730E-1,-9.851716042E0,-1.460400373E-1
3.068648542E0,-7.469587922E-1,-9.858899117E0,-1.053403467E-1
3.070980730E0,-7.230178118E-1,-9.837351799E0,-9.576395154E-2
3.073312917E0,-7.182296515E-1,-9.842140198E0,-6.703476608E-2
3.075644323E0,-7.038650513E-1,-9.846927643E0,-5.985246971E-2
3.077975730E0,-6.823181510E-1,-9.834958076E0,-2.872918546E-2
3.080307917E0,-6.847122312E-1,-9.866081238E0,-2.872918546E-2
3.082640105E0,-6.607712507E-1,-9.837351799E0,-1.915278845E-2
3.084971511E0,-6.631653905E-1,-9.801440239E0,-1.436459273E-2
3.087302917E0,-6.751358509E-1,-9.796651840E0,-2.633508667E-2
3.089635157E0,-6.152833700E-1,-9.779892921E0,-4.069967940E-2
3.091967292E0,-6.392243505E-1,-9.775105476E0,-4.069967940E-2
3.094298698E0,-6.535889506E-1,-9.763134956E0,-2.394098788E-2
3.096630105E0,-6.511948705E-1,-9.782286644E0,-1.197049394E-2
3.098962344E0,-6.679535508E-1,-9.784682274E0,-4.788197577E-2
3.101294480E0,-6.583771110E-1,-9.803833961E0,-1.915278845E-2
3.103625886E0,-6.559830904E-1,-9.787075996E0,-3.351738304E-2
3.105957292E0,-6.440125704E-1,-9.815805435E0,-2.633508667E-2
3.108289532E0,-6.535889506E-1,-9.815805435E0,-4.069967940E-2
3.110621667E0,-6.200715899E-1,-9.832564354E0,-4.309377819E-2
3.112953073E0,-6.272538900E-1,-9.861292839E0,-3.830557689E-2
3.115284480E0,-6.104952097E-1,-9.873263359E0,-6.942886859E-2
3.117616719E0,-6.104952097E-1,-9.880446434E0,-6.703476608E-2
3.119948907E0,-6.176775098E-1,-9.887627602E0,-6.224656478E-2
3.122280313E0,-5.865541697E-1,-9.894809723E0,-5.985246971E-2
3.124611719E0,-5.817660093E-1,-9.892416000E0,-6.224656478E-2
3.126943907E0,-5.913423896E-1,-9.892416000E0,-5.027607456E-2
3.129276094E0,-5.769777894E-1,-9.892416000E0,-4.309377819E-2
3.131607500E0,-5.721896291E-1,-9.880446434E0,-4.548787326E-2
3.133938907E0,-5.650073290E-1,-9.894809723E0,-4.069967940E-2
3.136271094E0,-5.554309487E-1,-9.854109764E0,0.000000000E0
3.138603282E0,-5.602191091E-1,-9.875657082E0,2.872918546E-2
3.140934688E0,-5.626131892E-1,-9.834958076E0,5.985246971E-2
3.143266094E0,-5.697954893E-1,-9.825381279E0,7.421706617E-2
3.145598334E0,-5.674013495E-1,-9.811017036E0,9.815804660E-2
3.147930469E0,-5.937365294E-1,-9.806227684E0,1.173108369E-1
3.150261875E0,-6.057069898E-1,-9.794258118E0,1.101285368E-1
3.152593282E0,-6.248597503E-1,-9.775105476E0,1.053403467E-1
3.154925521E0,-6.511948705E-1,-9.770317078E0,1.053403467E-1
3.157257657E0,-6.488007307E-1,-9.777499199E0,1.029462516E-1
3.159589063E0,-6.918945909E-1,-9.801440239E0,7.421706617E-2
3.161920469E0,-7.086532712E-1,-9.777499199E0,4.548787326E-2
3.164252709E0,-7.469587922E-1,-9.801440239E0,3.351738304E-2
3.166584844E0,-7.756879926E-1,-9.801440239E0,1.197049394E-2
3.168916250E0,-7.900525331E-1,-9.820592880E0,-1.915278845E-2
3.171247657E0,-8.068112731E-1,-9.825381279E0,-3.830557689E-2
3.173579896E0,-8.283581734E-1,-9.808623314E0,-3.830557689E-2
3.175912084E0,-8.499050736E-1,-9.813410759E0,-3.591148183E-2
3.178243490E0,-8.499050736E-1,-9.815805435E0,-4.548787326E-2
3.180574896E0,-8.594814539E-1,-9.818199158E0,-2.394098788E-2
3.182907084E0,-8.594814539E-1,-9.844533920E0,-1.915278845E-2
3.185239271E0,-8.882106543E-1,-9.851716042E0,-7.182296365E-3
3.187570677E0,-8.810282946E-1,-9.827775002E0,-9.576394223E-3
3.189902084E0,-8.666637540E-1,-9.842140198E0,-2.154688910E-2
3.192234271E0,-8.594814539E-1,-9.856505394E0,7.182296365E-3
3.194566459E0,-8.427227736E-1,-9.844533920E0,9.576394223E-3
3.196897865E0,-8.235700130E-1,-9.866081238E0,3.112328239E-2
3.199229271E0,-8.092053533E-1,-9.873263359E0,3.351738304E-2
3.201561459E0,-7.948408127E-1,-9.837351799E0,4.309377819E-2
3.203893646E0,-7.685056925E-1,-9.832564354E0,2.872918546E-2
3.206225052E0,-7.469587922E-1,-9.818199158E0,4.309377819E-2
3.208556459E0,-7.469587922E-1,-9.842140198E0,5.506426841E-2
3.210888698E0,-7.349883318E-1,-9.794258118E0,7.182296365E-2
3.213220834E0,-7.325941920E-1,-9.818199158E0,1.125226393E-1
3.215552240E0,-7.397764921E-1,-9.770317078E0,1.173108369E-1
3.217883646E0,-7.780820727E-1,-9.791864395E0,1.220990419E-1
3.220215886E0,-7.613233924E-1,-9.775105476E0,1.316754371E-1
3.222548021E0,-7.685056925E-1,-9.806227684E0,1.053403467E-1
3.224879427E0,-7.732938528E-1,-9.803833961E0,9.576395154E-2
3.227210834E0,-7.637174726E-1,-9.830168724E0,1.029462516E-1
3.229543073E0,-7.661116123E-1,-9.863686562E0,1.340695322E-1
3.231875261E0,-7.685056925E-1,-9.873263359E0,1.197049394E-1
3.234206667E0,-7.804762125E-1,-9.868474960E0,1.436459273E-1
3.236538073E0,-7.397764921E-1,-9.913963318E0,1.244931296E-1
3.238870261E0,-7.589293122E-1,-9.935509682E0,1.197049394E-1
3.241202448E0,-7.254119515E-1,-9.933115959E0,1.268872321E-1
3.243533855E0,-7.206237316E-1,-9.942691803E0,1.149167418E-1
3.245865261E0,-6.871063113E-1,-9.954663277E0,1.077344418E-1
3.248197448E0,-6.559830904E-1,-9.973814964E0,1.220990419E-1
3.250529636E0,-6.511948705E-1,-9.985786438E0,1.340695322E-1
3.252861042E0,-6.224656701E-1,-9.966632843E0,1.316754371E-1
3.255192448E0,-6.296479702E-1,-9.978604317E0,1.508282125E-1
3.257524688E0,-6.033128500E-1,-9.954663277E0,1.364636272E-1
3.259856823E0,-5.889483094E-1,-9.921145439E0,1.412518322E-1
3.262188230E0,-5.626131892E-1,-9.894809723E0,1.244931296E-1
3.264519636E0,-5.793718696E-1,-9.861292839E0,1.197049394E-1
3.266851875E0,-5.602191091E-1,-9.830168724E0,1.101285368E-1
3.269184011E0,-5.482486486E-1,-9.820592880E0,1.316754371E-1
3.271515417E0,-5.674013495E-1,-9.772710800E0,1.029462516E-1
3.273846823E0,-5.913423896E-1,-9.760741234E0,9.815804660E-2
3.276179063E0,-6.009188294E-1,-9.698493958E0,9.815804660E-2
3.278511250E0,-6.152833700E-1,-9.693705559E0,1.077344418E-1
3.280842657E0,-6.368302703E-1,-9.655400276E0,1.053403467E-1
3.283174063E0,-6.440125704E-1,-9.607518196E0,1.173108369E-1
3.285506250E0,-6.535889506E-1,-9.593153954E0,9.576395154E-2
3.287838438E0,-6.847122312E-1,-9.602729797E0,5.506426841E-2
3.290169844E0,-7.182296515E-1,-9.602729797E0,5.745837092E-2
3.292501250E0,-7.589293122E-1,-9.605124474E0,3.591148183E-2
3.294833438E0,-7.732938528E-1,-9.638642311E0,5.506426841E-2
3.297165625E0,-7.780820727E-1,-9.657793999E0,3.112328239E-2
3.299497032E0,-8.283581734E-1,-9.662583351E0,2.633508667E-2
3.301828438E0,-8.499050736E-1,-9.698493958E0,2.872918546E-2
3.304160625E0,-8.403286934E-1,-9.717646599E0,3.112328239E-2
3.306492813E0,-8.499050736E-1,-9.772710800E0,3.112328239E-2
3.308824219E0,-8.546932340E-1,-9.794258118E0,5.267017335E-2
3.311155625E0,-8.546932340E-1,-9.815805435E0,3.112328239E-2
3.313487865E0,-8.570873737E-1,-9.856505394E0,5.745837092E-2
3.315820000E0,-8.475109339E-1,-9.882840157E0,7.421706617E-2
3.318151407E0,-8.451168537E-1,-9.901991844E0,5.506426841E-2
3.320482813E0,-8.522991538E-1,-9.942691803E0,5.985246971E-2
3.322815052E0,-8.475109339E-1,-9.954663277E0,7.182296365E-2
3.325147188E0,-8.259640336E-1,-9.969026566E0,8.139935881E-2
3.327478594E0,-8.211758733E-1,-9.985786438E0,8.858165890E-2
3.329810000E0,-8.187817335E-1,-9.988180161E0,8.858165890E-2
3.332142240E0,-8.020230532E-1,-9.983391762E0,9.336984903E-2
3.334474427E0,-8.068112731E-1,-9.997756004E0,9.097574651E-2
3.336805834E0,-7.996289730E-1,-9.976208687E0,7.421706617E-2
3.339137240E0,-8.020230532E-1,-9.957056999E0,5.267017335E-2
3.341469427E0,-7.780820727E-1,-9.947480202E0,4.788197577E-2
3.343801615E0,-7.972348928E-1,-9.937904358E0,6.703476608E-2
3.346133021E0,-8.139935732E-1,-9.942691803E0,7.900525630E-2
3.348464427E0,-8.522991538E-1,-9.916357040E0,8.379345387E-2
3.350796615E0,-8.355404139E-1,-9.918750763E0,6.703476608E-2
3.353128802E0,-8.570873737E-1,-9.909174919E0,9.815804660E-2
3.355460209E0,-8.738460541E-1,-9.892416000E0,9.097574651E-2
3.357791615E0,-8.762401342E-1,-9.878050804E0,1.077344418E-1
3.360123802E0,-8.882106543E-1,-9.882840157E0,9.576395154E-2
3.362455990E0,-9.145457745E-1,-9.875657082E0,8.858165890E-2
3.364787396E0,-9.265161753E-1,-9.899598122E0,1.053403467E-1
3.367118802E0,-9.648218155E-1,-9.878050804E0,1.077344418E-1
3.369451042E0,-9.552453756E-1,-9.854109764E0,8.139935881E-2
3.371783177E0,-9.648218155E-1,-9.873263359E0,8.139935881E-2
3.374114584E0,-9.743981957E-1,-9.882840157E0,9.097574651E-2
3.376445990E0,-1.007915616E0,-9.890022278E0,8.379345387E-2
3.378778230E0,-1.007915616E0,-9.875657082E0,6.703476608E-2
3.381110365E0,-1.024674296E0,-9.887627602E0,9.097574651E-2
3.383441771E0,-1.046221137E0,-9.885233879E0,9.576395154E-2
3.385773177E0,-1.067767978E0,-9.873263359E0,8.139935881E-2
3.388105417E0,-1.098891377E0,-9.892416000E0,7.421706617E-2
3.390437605E0,-1.115650058E0,-9.863686562E0,7.661115378E-2
3.392769011E0,-1.153955579E0,-9.873263359E0,6.703476608E-2
3.395100417E0,-1.163532019E0,-9.849322319E0,4.309377819E-2
3.397432605E0,-1.177896619E0,-9.842140198E0,3.591148183E-2
3.399764792E0,-1.201837659E0,-9.837351799E0,2.394098556E-3
3.402096198E0,-1.213808179E0,-9.827775002E0,-7.182296365E-3
3.404427605E0,-1.254507780E0,-9.813410759E0,-4.788197577E-2
3.406759792E0,-1.254507780E0,-9.820592880E0,-6.703476608E-2
3.409091980E0,-1.242537260E0,-9.796651840E0,-9.097574651E-2
3.411423386E0,-1.271266341E0,-9.789469719E0,-1.388577372E-1
3.413754792E0,-1.266478300E0,-9.787075996E0,-1.771633178E-1
3.416086980E0,-1.266478300E0,-9.801440239E0,-1.795574129E-1
3.418419167E0,-1.311966181E0,-9.822986603E0,-2.202570736E-1
3.420750573E0,-1.314360261E0,-9.808623314E0,-2.777154744E-1
3.423081980E0,-1.352665782E0,-9.827775002E0,-2.968682647E-1
3.425414219E0,-1.347877622E0,-9.844533920E0,-3.519325256E-1
3.427746355E0,-1.393365502E0,-9.846927643E0,-3.710853159E-1
3.430077761E0,-1.414912343E0,-9.885233879E0,-4.381200671E-1
3.432409167E0,-1.443641543E0,-9.887627602E0,-4.764256477E-1
3.434741407E0,-1.460400224E0,-9.933115959E0,-5.410662889E-1
3.437073542E0,-1.479552984E0,-9.969026566E0,-5.745837092E-1
3.439404948E0,-1.501099825E0,-9.988180161E0,-6.320420504E-1
3.441736407E0,-1.537011385E0,-1.001451492E1,-6.775299311E-1
3.444068594E0,-1.544193745E0,-1.004324436E1,-7.278059721E-1
3.446400782E0,-1.577711105E0,-1.006479073E1,-7.852643728E-1
3.448732188E0,-1.601652026E0,-1.005760860E1,-8.187817335E-1
3.451063594E0,-1.601652026E0,-1.009352016E1,-8.283581734E-1
3.453395782E0,-1.647140026E0,-1.010549068E1,-8.570873737E-1
3.455727969E0,-1.699810147E0,-1.010788536E1,-9.049693346E-1
3.458059375E0,-1.704598308E0,-1.010070324E1,-9.624276757E-1
3.460390782E0,-1.735721588E0,-1.011985493E1,-1.007915616E0
3.462722969E0,-1.764450788E0,-1.011027908E1,-1.027068377E0
3.465055157E0,-1.771633148E0,-1.012464428E1,-1.082132578E0
3.467386563E0,-1.771633148E0,-1.010309696E1,-1.108467698E0
3.469717969E0,-1.802756429E0,-1.009591389E1,-1.141985178E0
3.472050157E0,-1.824303269E0,-1.009352016E1,-1.158743739E0
3.474382344E0,-1.833879590E0,-1.010788536E1,-1.182684779E0
3.476713750E0,-1.884155750E0,-1.010309696E1,-1.216202140E0
3.479045157E0,-1.927249551E0,-1.010788536E1,-1.244931340E0
3.481377396E0,-1.905702591E0,-1.011746120E1,-1.288025141E0
3.483709532E0,-1.905702591E0,-1.010070324E1,-1.338301301E0
3.486040938E0,-1.936825871E0,-1.011506653E1,-1.285630941E0
3.488372344E0,-1.963160992E0,-1.008154964E1,-1.304783821E0
3.490704584E0,-1.970343232E0,-1.009112644E1,-1.307177901E0
3.493036719E0,-1.975131512E0,-1.009352016E1,-1.393365502E0
3.495368125E0,-1.999072552E0,-1.010309696E1,-1.407730103E0
3.497699532E0,-2.008648872E0,-1.015337276E1,-1.453217983E0
3.500031771E0,-1.984707832E0,-1.017970753E1,-1.510676265E0
3.502363959E0,-1.960766912E0,-1.021083069E1,-1.594469786E0
3.504695365E0,-1.939219952E0,-1.024674320E1,-1.663898587E0
3.507026771E0,-1.884155750E0,-1.030180740E1,-1.747692108E0
3.509358959E0,-1.843456030E0,-1.033771801E1,-1.809938669E0
3.511691146E0,-1.817121029E0,-1.039996529E1,-1.891337991E0
3.514022552E0,-1.795573950E0,-1.049333477E1,-1.970343232E0
3.516353959E0,-1.766844869E0,-1.059149265E1,-2.092442274E0
3.518686146E0,-1.762056589E0,-1.065134525E1,-2.164265156E0
3.521018334E0,-1.714174747E0,-1.074950314E1,-2.260029316E0
3.523349740E0,-1.702204227E0,-1.087160206E1,-2.365369558E0
3.525681146E0,-1.647140026E0,-1.094103146E1,-2.451556921E0
3.528013386E0,-1.577711105E0,-1.101524830E1,-2.547321081E0
3.530345521E0,-1.508282304E0,-1.107749462E1,-2.674208164E0
3.532676927E0,-1.465188384E0,-1.113495255E1,-2.774760485E0
3.535008334E0,-1.438853383E0,-1.119719982E1,-2.865736246E0
3.537340573E0,-1.376606703E0,-1.124508190E1,-2.985441208E0
3.539672709E0,-1.362242103E0,-1.130253983E1,-3.148239851E0
3.542004115E0,-1.350271702E0,-1.135760403E1,-3.272732973E0
3.544335521E0,-1.335907102E0,-1.140548611E1,-3.425955296E0
3.546667761E0,-1.338301301E0,-1.142703342E1,-3.543266296E0
3.548999896E0,-1.390971422E0,-1.147252083E1,-3.710853100E0
3.551331302E0,-1.431671023E0,-1.146055126E1,-3.926321983E0
3.553662709E0,-1.486735344E0,-1.140548611E1,-4.091514587E0
3.555994948E0,-1.551375985E0,-1.138393974E1,-4.271071911E0
3.558327136E0,-1.671080828E0,-1.140309238E1,-4.496117592E0
3.560658542E0,-1.735721588E0,-1.139112186E1,-4.673281193E0
3.562989948E0,-1.845850110E0,-1.138393974E1,-4.814532280E0
3.565322136E0,-2.037378073E0,-1.143182182E1,-4.929449558E0
3.567654323E0,-2.195388556E0,-1.147491455E1,-4.977331638E0
3.569985730E0,-2.353399038E0,-1.147491455E1,-5.087460041E0
3.572317136E0,-2.461133480E0,-1.148927975E1,-5.132947445E0
3.574649323E0,-2.607173443E0,-1.150125027E1,-5.164071083E0
3.576981511E0,-2.789124966E0,-1.155631542E1,-5.537550449E0
3.579312917E0,-3.018958569E0,-1.168320179E1,-5.810477734E0
3.581644323E0,-3.246397972E0,-1.176938915E1,-6.018764496E0
3.583976511E0,-3.402014256E0,-1.185797119E1,-6.181562901E0
3.586308698E0,-3.569601297E0,-1.196331120E1,-6.452095985E0
3.588640105E0,-3.861681223E0,-1.219553947E1,-6.705870628E0
3.590971511E0,-4.189672947E0,-1.241819000E1,-6.945280552E0
3.593303750E0,-4.464993954E0,-1.265760040E1,-7.143990517E0
3.595635886E0,-4.855232716E0,-1.294010353E1,-7.158355713E0
3.597967292E0,-5.233500004E0,-1.319627190E1,-7.064985275E0
3.600298698E0,-5.595008850E0,-1.335428333E1,-6.794452190E0
3.602630938E0,-5.870329857E0,-1.353144646E1,-6.691505909E0
3.604963073E0,-6.181562901E0,-1.370142746E1,-6.301268101E0
3.607294480E0,-6.435337543E0,-1.388816738E1,-5.824842453E0
3.609625886E0,-6.713053226E0,-1.406532955E1,-5.180829525E0
3.611958125E0,-6.883034229E0,-1.423052311E1,-4.409930229E0
3.614290313E0,-7.019497395E0,-1.436459160E1,-3.792252541E0
3.616621719E0,-7.069773674E0,-1.451302719E1,-3.270339012E0
3.618953125E0,-6.983585835E0,-1.461597347E1,-2.700543404E0
3.621285313E0,-6.655594349E0,-1.458485031E1,-2.274393797E0
3.623617500E0,-6.322814941E0,-1.460400200E1,-1.848244309E0
3.625948907E0,-5.846388817E0,-1.454654408E1,-1.352665782E0
3.628280313E0,-5.446574688E0,-1.446514511E1,-8.115994930E-1
3.630612500E0,-5.106612682E0,-1.435262203E1,-3.232033551E-1
3.632944688E0,-4.721162319E0,-1.410603046E1,1.651928127E-1
3.635276094E0,-4.263889790E0,-1.378522110E1,4.788197577E-1
3.637607500E0,-3.689306259E0,-1.343089390E1,6.416184306E-1
3.639939688E0,-3.054869890E0,-1.308614445E1,5.482486486E-1
3.642271875E0,-2.394098759E0,-1.273660469E1,3.567207158E-1
3.644603282E0,-1.611228466E0,-1.232721424E1,-6.464067101E-2
3.646934688E0,-7.780820727E-1,-1.187712383E1,-4.788197577E-1
3.649266927E0,1.915278845E-2,-1.149406815E1,-9.313044548E-1
3.651599063E0,7.517470121E-1,-1.115649986E1,-1.299995661E0
3.653930469E0,1.335907102E0,-1.081414413E1,-1.673475027E0
3.656261875E0,1.867396951E0,-1.050769901E1,-2.058924913E0
3.658594115E0,2.315093517E0,-1.016294861E1,-2.334246159E0
3.660926250E0,2.714907885E0,-9.904387474E0,-2.398886919E0
3.663257657E0,3.009382248E0,-9.696100235E0,-2.456345320E0
3.665589063E0,3.176969051E0,-9.533301353E0,-2.319881678E0
3.667921302E0,3.217668772E0,-9.430355072E0,-2.386916399E0
3.670253438E0,3.100358009E0,-9.392048836E0,-2.475497961E0
3.672584844E0,2.769972324E0,-9.358531952E0,-2.501833200E0
3.674916302E0,2.434798479E0,-9.344166756E0,-2.511409521E0
3.677248490E0,2.015831232E0,-9.272343636E0,-2.497045040E0
3.679580677E0,1.572922826E0,-9.164609909E0,-2.461133480E0
3.681912084E0,1.031856537E0,-9.109545708E0,-2.434798479E0
3.684243490E0,4.644551575E-1,-9.114334106E0,-2.319881678E0
3.686575677E0,-8.858165890E-2,-9.030540466E0,-2.293546438E0
3.688907865E0,-5.841601491E-1,-8.965900421E0,-2.461133480E0
3.691239271E0,-1.046221137E0,-8.903653145E0,-2.580838442E0
3.693570677E0,-1.465188384E0,-8.776765823E0,-2.585626841E0
3.695902865E0,-1.766844869E0,-8.630725861E0,-2.702937603E0
3.698235052E0,-2.082865953E0,-8.506233215E0,-2.822642565E0
3.700566459E0,-2.269605398E0,-8.412862778E0,-2.992623568E0
3.702897865E0,-2.331852198E0,-8.364980698E0,-3.196121693E0
3.705230052E0,-2.274393797E0,-8.300340652E0,-3.191333771E0
3.707562240E0,-2.214541197E0,-8.194999695E0,-3.040505409E0
3.709893646E0,-2.054136753E0,-8.104024887E0,-2.848977566E0
3.712225052E0,-1.865002871E0,-7.993895531E0,-2.741242886E0
3.714557292E0,-1.654322267E0,-7.852643967E0,-2.707725763E0
3.716889427E0,-1.450823903E0,-7.706604004E0,-2.712513924E0
3.719220834E0,-1.276054621E0,-7.562957764E0,-2.743637323E0
3.721552240E0,-1.079738498E0,-7.397765160E0,-2.741242886E0
3.723884480E0,-9.217280149E-1,-7.175114155E0,-2.781942844E0
3.726216615E0,-7.900525331E-1,-7.033862114E0,-2.872918606E0
3.728548021E0,-7.278059721E-1,-6.875851631E0,-2.865736246E0
3.730879427E0,-7.541411519E-1,-6.815999031E0,-2.858553886E0
3.733211667E0,-7.445647120E-1,-6.765723228E0,-2.868130207E0
3.735543855E0,-7.876585126E-1,-6.684323311E0,-2.853765726E0
3.737875261E0,-8.307522535E-1,-6.619682789E0,-2.781942844E0
3.740206667E0,-9.360926151E-1,-6.543072224E0,-2.736454725E0
3.742538855E0,-1.058191657E0,-6.545465946E0,-2.655055523E0
3.744871042E0,-1.228172660E0,-6.559830666E0,-2.552109241E0
3.747202448E0,-1.359848142E0,-6.547860146E0,-2.446768999E0
3.749533855E0,-1.522646785E0,-6.480825424E0,-2.305516958E0
3.751866042E0,-1.649533987E0,-6.430549145E0,-2.204965115E0
3.754198230E0,-1.805150509E0,-6.377879143E0,-2.128353834E0
3.756529636E0,-1.960766912E0,-6.363514423E0,-2.046954393E0
3.758861042E0,-2.164265156E0,-6.387455463E0,-1.936825871E0
3.761193230E0,-2.324670076E0,-6.413790703E0,-1.821909070E0
3.763525417E0,-2.458739519E0,-6.435337543E0,-1.704598308E0
3.765856823E0,-2.520986080E0,-6.416184425E0,-1.630381227E0
3.768188230E0,-2.465921640E0,-6.351543903E0,-1.539405465E0
3.770520469E0,-2.408463240E0,-6.291691303E0,-1.462794423E0
3.772852605E0,-2.353399038E0,-6.248597622E0,-1.407730103E0
3.775184011E0,-2.236088276E0,-6.191139698E0,-1.340695262E0
3.777515417E0,-2.106806993E0,-6.133680820E0,-1.321542501E0
3.779847657E0,-1.960766912E0,-6.059463978E0,-1.362242103E0
3.782179792E0,-1.833879590E0,-5.973276615E0,-1.436459303E0
3.784511198E0,-1.704598308E0,-5.896665096E0,-1.465188384E0
3.786842605E0,-1.556164145E0,-5.848783016E0,-1.527434945E0
3.789174844E0,-1.395759583E0,-5.810477734E0,-1.565740585E0
3.791506980E0,-1.247325540E0,-5.781748295E0,-1.613622546E0
3.793838386E0,-1.082132578E0,-5.781748295E0,-1.730933428E0
3.796169844E0,-9.145457745E-1,-5.762595654E0,-1.821909070E0
3.798502032E0,-7.948408127E-1,-5.743443012E0,-1.908096790E0
3.800834219E0,-6.775299311E-1,-5.750625134E0,-2.013437033E0
3.803165625E0,-5.219135284E-1,-5.714713573E0,-2.171447515E0
3.805497032E0,-3.232033551E-1,-5.685984612E0,-2.329457998E0
3.807829219E0,-1.244931296E-1,-5.604585171E0,-2.518591881E0
3.810161407E0,1.005521491E-1,-5.556703091E0,-2.734060764E0
3.812492813E0,2.082865983E-1,-5.525579929E0,-2.892071247E0
3.814824219E0,3.232033551E-1,-5.523186207E0,-3.076416969E0
3.817156407E0,5.003666282E-1,-5.475304127E0,-3.272732973E0
3.819488594E0,6.272538900E-1,-5.415451527E0,-3.483413696E0
3.821820000E0,8.115994930E-1,-5.331657887E0,-3.679729700E0
3.824151407E0,9.145457745E-1,-5.271805286E0,-3.902380943E0
3.826483594E0,9.456689954E-1,-5.214346886E0,-4.117849827E0
3.828815782E0,9.911568761E-1,-5.149706364E0,-4.385989189E0
3.831147188E0,1.007915616E0,-5.099430561E0,-4.646945477E0
3.833478594E0,9.911568761E-1,-5.058730602E0,-4.848050117E0
3.835810834E0,9.528512955E-1,-5.018031120E0,-5.080277443E0
3.838142969E0,8.403286934E-1,-5.034789562E0,-5.238287926E0
3.840474375E0,7.397764921E-1,-5.001272678E0,-5.367569447E0
3.842805782E0,6.224656701E-1,-4.982119560E0,-5.532762051E0
3.845138021E0,4.572728872E-1,-4.972542763E0,-5.674014091E0
3.847470157E0,3.351738155E-1,-5.001272678E0,-5.805689335E0
3.849801563E0,2.154688835E-1,-5.003666401E0,-5.887088776E0
3.852132969E0,3.591148183E-2,-5.058730602E0,-5.911029816E0
3.854465209E0,-1.125226393E-1,-5.104218483E0,-5.963699818E0
3.856797396E0,-2.920800745E-1,-5.154494286E0,-6.049887657E0
3.859128802E0,-4.644551575E-1,-5.252652645E0,-6.064251900E0
3.861460209E0,-5.913423896E-1,-5.293352604E0,-6.116922379E0
3.863792396E0,-7.828702927E-1,-5.398692608E0,-6.148045540E0
3.866124584E0,-1.003127337E0,-5.542338371E0,-6.133680820E0
3.868455990E0,-1.177896619E0,-5.609373569E0,-6.088192940E0
3.870787396E0,-1.340695262E0,-5.674014091E0,-6.066646099E0
3.873119584E0,-1.541799664E0,-5.808083534E0,-6.006793976E0
3.875451771E0,-1.639957666E0,-5.894270897E0,-5.985247135E0
3.877783177E0,-1.711780667E0,-5.927788734E0,-5.942152977E0
3.880114584E0,-1.843456030E0,-5.992428780E0,-5.839207172E0
3.882446771E0,-1.948796391E0,-6.073828697E0,-5.810477734E0
3.884778959E0,-2.075683594E0,-6.133680820E0,-5.784142494E0
3.887110365E0,-2.092442274E0,-6.167198658E0,-5.848783016E0
3.889441771E0,-2.104412794E0,-6.179169178E0,-5.879906654E0
3.891774011E0,-2.104412794E0,-6.222262383E0,-5.930182457E0
3.894106146E0,-2.092442274E0,-6.239021301E0,-5.951729298E0
3.896437552E0,-2.056530952E0,-6.215080738E0,-5.961306095E0
3.898768959E0,-1.982313752E0,-6.224656582E0,-5.954123497E0
3.901101198E0,-1.912884831E0,-6.224656582E0,-5.954123497E0
3.903433334E0,-1.762056589E0,-6.203110218E0,-5.980458736E0
3.905764740E0,-1.599257946E0,-6.171986580E0,-5.966094017E0
3.908096146E0,-1.441247463E0,-6.157621861E0,-5.894270897E0
3.910428386E0,-1.290419221E0,-6.148045540E0,-5.767384052E0
3.912760521E0,-1.118044138E0,-6.114528179E0,-5.662043571E0
3.915091927E0,-8.666637540E-1,-6.035522938E0,-5.527974129E0
3.917423334E0,-6.679535508E-1,-6.018764496E0,-5.377145767E0
3.919755573E0,-4.907902479E-1,-5.987640858E0,-5.221529484E0
3.922087761E0,-2.777154744E-1,-5.966094017E0,-5.070701122E0
3.924419167E0,-5.267017335E-2,-5.913424015E0,-4.970149040E0
3.926750573E0,1.436459273E-1,-5.877512455E0,-4.912690639E0
3.929082761E0,3.088387549E-1,-5.860753536E0,-4.900720119E0
3.931414948E0,4.860020280E-1,-5.836812496E0,-4.898325920E0
3.933746355E0,6.009188294E-1,-5.836812496E0,-4.893537998E0
3.936077761E0,6.200715899E-1,-5.903847694E0,-4.912690639E0
3.938409948E0,6.559830904E-1,-5.992428780E0,-4.924661160E0
3.940742136E0,5.985246897E-1,-6.081010818E0,-4.989302158E0
3.943073542E0,5.003666282E-1,-6.174380302E0,-5.032395363E0
3.945404948E0,3.567207158E-1,-6.356331825E0,-5.070701122E0
3.947737136E0,1.484341323E-1,-6.497583866E0,-5.130553722E0
3.950069323E0,-8.618755639E-2,-6.660382271E0,-5.221529484E0
3.952400730E0,-3.136269450E-1,-6.808816910E0,-5.338840008E0
3.954732136E0,-5.195194483E-1,-6.954856873E0,-5.408268929E0
3.957064375E0,-6.823181510E-1,-7.143990517E0,-5.434604168E0
3.959396511E0,-9.624276757E-1,-7.340307236E0,-5.599796772E0
3.961727917E0,-1.240143180E0,-7.553381443E0,-5.671619892E0
3.964059323E0,-1.410124183E0,-7.555775642E0,-5.709925652E0
3.966391563E0,-1.685445547E0,-7.701815605E0,-5.884694576E0
3.968723698E0,-1.879367471E0,-7.871796608E0,-5.968488216E0
3.971055105E0,-2.058924913E0,-8.027413368E0,-6.011581898E0
3.973386511E0,-2.192994595E0,-8.147117615E0,-6.076222420E0
3.975718750E0,-2.293546438E0,-8.305128098E0,-6.262962341E0
3.978050886E0,-2.382128239E0,-8.367375374E0,-6.447308064E0
3.980382292E0,-2.504227161E0,-8.496656418E0,-6.626865387E0
3.982713698E0,-2.633508444E0,-8.647484779E0,-6.708264351E0
3.985045938E0,-2.683784723E0,-8.783947945E0,-6.820787430E0
3.987378073E0,-2.755607843E0,-8.901259422E0,-7.088926315E0
3.989709480E0,-2.832218647E0,-9.049693108E0,-7.256513596E0
3.992040938E0,-2.904041767E0,-9.186157227E0,-7.433676720E0
3.994373125E0,-2.961500168E0,-9.325015068E0,-7.567746162E0
3.996705313E0,-3.030929089E0,-9.518937111E0,-7.744909286E0
3.999036719E0,-2.997411728E0,-9.631459236E0,-7.869402409E0
4.001368125E0,-2.975864649E0,-9.720041275E0,-7.919678688E0
4.003700313E0,-2.963894367E0,-9.825381279E0,-7.919678688E0
4.006032500E0,-2.942347288E0,-9.909174919E0,-8.027413368E0
4.008363907E0,-2.997411728E0,-1.010309696E1,-7.950801849E0
4.010695313E0,-2.887283087E0,-1.002648640E1,-7.893343449E0
4.013027500E0,-2.753213406E0,-9.933115959E0,-7.902919769E0
4.015359688E0,-2.659843683E0,-9.949873924E0,-7.960378647E0
4.017691094E0,-2.588020802E0,-9.942691803E0,-7.907708168E0
4.020022500E0,-2.509015560E0,-9.892416000E0,-7.778427124E0
4.022354688E0,-2.463527441E0,-9.878050804E0,-7.708998203E0
4.024686875E0,-2.351005077E0,-9.827775002E0,-7.766456604E0
4.027018282E0,-2.245664597E0,-9.710465431E0,-7.864614487E0
4.029349688E0,-2.216935396E0,-9.643429756E0,-7.936437607E0
4.031681927E0,-2.121171474E0,-9.576395035E0,-7.993895531E0
4.034014063E0,-2.034983873E0,-9.483024597E0,-8.022624969E0
4.036345469E0,-2.082865953E0,-9.437537193E0,-7.785608768E0
4.038676875E0,-2.140324354E0,-9.444720268E0,-7.811944008E0
4.041009115E0,-2.315093517E0,-9.545271873E0,-7.814338684E0
4.043341250E0,-2.322275639E0,-9.459083557E0,-7.941225529E0
4.045672657E0,-2.348610640E0,-9.418383598E0,-7.974742889E0
4.048004063E0,-2.291152477E0,-9.415989876E0,-8.089659691E0
4.050336302E0,-2.317487478E0,-9.401625633E0,-8.082477570E0
4.052668438E0,-2.269605398E0,-9.353743553E0,-8.194999695E0
4.054999844E0,-2.212147236E0,-9.303467751E0,-8.271611214E0
4.057331250E0,-2.140324354E0,-9.212491989E0,-8.477503777E0
4.059663490E0,-1.917673111E0,-9.011387825E0,-8.805495262E0
4.061995677E0,-1.841061831E0,-8.894077301E0,-8.774372101E0
4.064327032E0,-1.860214710E0,-8.827041626E0,-8.508626938E0
4.066658438E0,-1.771633148E0,-8.719307899E0,-8.549326897E0
4.068990677E0,-1.668686867E0,-8.592419624E0,-8.645091057E0
4.071322865E0,-1.565740585E0,-8.479898453E0,-8.657060623E0
4.073654271E0,-1.309571981E0,-8.288370132E0,-8.623543739E0
4.075985677E0,-1.220990419E0,-8.142330170E0,-8.795919418E0
4.078317865E0,-1.175502539E0,-8.029807091E0,-8.788737297E0
4.080650052E0,-1.055797458E0,-7.788002968E0,-8.743248940E0
4.082981459E0,-1.058191657E0,-7.701815605E0,-8.728883743E0
4.085312865E0,-1.029462457E0,-7.644357681E0,-8.453562737E0
4.087645052E0,-1.005521536E0,-7.644357681E0,-8.125571251E0
4.089977240E0,-8.953929543E-1,-7.649145603E0,-7.661116123E0
4.092308646E0,-7.469587922E-1,-7.618021965E0,-7.443253040E0
4.094640052E0,-6.128892303E-1,-7.747303486E0,-7.445646763E0
4.096972292E0,-5.099430084E-1,-7.979530811E0,-7.524652481E0
4.099304427E0,-2.896859348E-1,-8.230911255E0,-7.723362446E0
4.101635834E0,-1.939219981E-1,-8.506233215E0,-7.960378647E0
4.103967240E0,-9.097574651E-2,-8.786341667E0,-8.297946930E0
4.106299480E0,8.379345387E-2,-9.054480553E0,-8.673819542E0
4.108631615E0,1.604046077E-1,-9.339379311E0,-9.028145790E0
4.110963021E0,3.040505350E-1,-9.619488716E0,-9.377684593E0
4.113294427E0,4.141790867E-1,-9.911568642E0,-9.772710800E0
4.115626667E0,5.769777894E-1,-1.024195385E1,-1.009352016E1
4.117958802E0,6.535889506E-1,-1.059149265E1,-1.025871277E1
4.120290209E0,8.139935732E-1,-1.087160206E1,-1.032814217E1
4.122621615E0,1.027068377E0,-1.113734722E1,-1.033053589E1
4.124953855E0,1.060585737E0,-1.139112186E1,-1.023477173E1
4.127285990E0,1.134802699E0,-1.167601967E1,-1.005282116E1
4.129617396E0,1.197049379E0,-1.184600067E1,-9.854109764E0
4.131948802E0,1.424488783E0,-1.196331120E1,-9.588364601E0
4.134281042E0,1.532223225E0,-1.213568687E1,-9.181368828E0
4.136613230E0,1.529829144E0,-1.229609108E1,-8.597208977E0
4.138944636E0,1.544193745E0,-1.242537212E1,-7.792791367E0
4.141276042E0,1.740509748E0,-1.249001312E1,-6.799240589E0
4.143608230E0,2.063713074E0,-1.247085953E1,-5.666831493E0
4.145940417E0,2.351005077E0,-1.243255520E1,-4.623004436E0
4.148271823E0,2.667026043E0,-1.236551952E1,-3.727611780E0
4.150603230E0,3.095569849E0,-1.223623943E1,-3.038111210E0
4.152935417E0,3.291885853E0,-1.215962791E1,-2.626326323E0
4.155267605E0,3.698882580E0,-1.205668068E1,-2.509015560E0
4.157599011E0,4.129820347E0,-1.195373535E1,-2.604779482E0
4.159930417E0,4.402747631E0,-1.187712383E1,-2.848977566E0
4.162262605E0,4.670886517E0,-1.187712383E1,-3.224850893E0
4.164594792E0,4.931843281E0,-1.190585327E1,-3.737188339E0
4.166926198E0,5.116189003E0,-1.190345860E1,-4.000538826E0
4.169257605E0,5.171253681E0,-1.188669968E1,-4.110667706E0
4.171589792E0,5.125765324E0,-1.189148808E1,-4.187278748E0
4.173921980E0,4.960572720E0,-1.180051327E1,-4.019691944E0
4.176253386E0,4.769044399E0,-1.156828499E1,-3.485807657E0
4.178584792E0,4.663704395E0,-1.114931774E1,-2.702937603E0
4.180917032E0,4.575122356E0,-1.061303997E1,-1.800362229E0
4.183249167E0,4.596669674E0,-9.976208687E0,-8.906047344E-1
4.185580573E0,4.632581234E0,-9.293890953E0,-7.421706617E-2
4.187911980E0,4.632581234E0,-8.637907982E0,5.506426692E-1
4.190244219E0,4.601458073E0,-7.991501331E0,9.480631351E-1
4.192576355E0,4.596669674E0,-7.416917801E0,1.074950337E0
4.194907761E0,4.472176552E0,-6.887822151E0,1.141985178E0
4.197239167E0,4.333318710E0,-6.452095985E0,1.074950337E0
4.199571407E0,4.105879307E0,-6.049887657E0,8.786342740E-1
4.201903594E0,3.737188339E0,-5.772171974E0,7.086532712E-1
4.204234948E0,3.368496895E0,-5.609373569E0,5.267017484E-1
4.206566355E0,2.908829927E0,-5.523186207E0,2.872918546E-1
4.208898594E0,2.461133480E0,-5.494456291E0,-1.675869152E-2
4.211230782E0,1.920067191E0,-5.571067810E0,-3.639029860E-1
4.213562188E0,1.295207381E0,-5.875118732E0,-7.780820727E-1
4.215893594E0,6.392243505E-1,-6.136075020E0,-1.003127337E0
4.218225782E0,2.633508667E-2,-6.389849663E0,-1.185078859E0
4.220557969E0,-6.942886114E-1,-6.911763191E0,-1.242537260E0
4.222889375E0,-1.395759583E0,-7.400158882E0,-9.624276757E-1
4.225220782E0,-2.169053555E0,-7.934042931E0,-3.758735061E-1
4.227552969E0,-2.899253607E0,-8.446379662E0,4.237554669E-1
4.229885157E0,-3.507354736E0,-8.767189980E0,1.498705864E0
4.232216563E0,-4.122638226E0,-9.325015068E0,2.336640596E0
4.234547969E0,-4.615822315E0,-9.722434998E0,3.188939571E0
4.236880157E0,-4.962966442E0,-9.954663277E0,4.180096626E0
4.239212344E0,-5.211953163E0,-1.017492008E1,5.087460041E0
4.241543750E0,-5.302928448E0,-1.036644840E1,5.736260414E0
4.243875157E0,-5.312504768E0,-1.059867477E1,5.966094017E0
4.246207344E0,-5.226317406E0,-1.090511990E1,5.836812496E0
4.248539532E0,-5.099430561E0,-1.108467674E1,5.611767292E0
4.250870938E0,-4.931843281E0,-1.123550510E1,5.166464806E0
4.253202344E0,-4.816926479E0,-1.155152607E1,4.405141354E0
4.255534584E0,-4.809744358E0,-1.177896595E1,3.710853100E0
4.257866719E0,-4.807350636E0,-1.205668068E1,3.052475929E0
4.260198125E0,-4.910296440E0,-1.229369736E1,2.418039799E0
4.262529532E0,-4.982119560E0,-1.260732365E1,1.807544470E0
4.264861771E0,-5.032395363E0,-1.282039928E1,1.345483541E0
4.267193907E0,-5.166464806E0,-1.299995613E1,1.106073618E0
4.269525313E0,-5.231105804E0,-1.310050774E1,1.122832298E0
4.271856719E0,-5.226317406E0,-1.312684345E1,9.743981957E-1
4.274188959E0,-5.250258446E0,-1.323936558E1,6.248597503E-1
4.276521146E0,-5.235894203E0,-1.318190765E1,4.333318770E-1
4.278852552E0,-5.377145767E0,-1.309332561E1,5.745837092E-1
4.281183959E0,-5.231105804E0,-1.294489193E1,1.771633178E-1
4.283516146E0,-4.994090080E0,-1.268393517E1,3.112328239E-2
4.285848334E0,-4.781014919E0,-1.232003212E1,2.872918546E-2
4.288179740E0,-4.488934994E0,-1.191542912E1,-5.506426841E-2
4.290511146E0,-4.113061905E0,-1.140069771E1,-2.872918546E-2
4.292843334E0,-3.605512857E0,-1.085484409E1,-5.267017335E-2
4.295175521E0,-2.942347288E0,-1.024674320E1,-4.237554669E-1
4.297506927E0,-2.283970356E0,-9.679341316E0,-8.594814539E-1
4.299838334E0,-1.673475027E0,-9.102362633E0,-1.268872380E0
4.302170521E0,-1.158743739E0,-8.578056335E0,-1.422094584E0
4.304502709E0,-7.541411519E-1,-8.072900772E0,-1.273660541E0
4.306834115E0,-3.255974352E-1,-7.629992485E0,-9.863687158E-1
4.309165521E0,1.580105126E-1,-7.160749435E0,-7.110472918E-1
4.311497709E0,6.104952097E-1,-6.784875870E0,-5.338839889E-1
4.313829896E0,9.576395154E-1,-6.485613346E0,-3.974204063E-1
4.316161302E0,1.240143180E0,-6.215080738E0,-3.830558062E-1
4.318492709E0,1.501099825E0,-6.059463978E0,-3.902381063E-1
4.320824896E0,1.764450788E0,-5.851177692E0,-4.931843579E-1
4.323157084E0,2.003860712E0,-5.695560932E0,-5.626131892E-1
4.325488490E0,2.121171474E0,-5.578249931E0,-4.955784380E-1
4.327819896E0,2.231300116E0,-5.523186207E0,-3.734793961E-1
4.330152136E0,2.355793238E0,-5.475304127E0,-2.753213346E-1
4.332484271E0,2.441980839E0,-5.475304127E0,-2.154688910E-2
4.334815677E0,2.463527441E0,-5.506426811E0,3.375679255E-1
4.337147084E0,2.367763758E0,-5.590220451E0,5.554309487E-1
4.339479323E0,2.255240917E0,-5.662043571E0,6.152833700E-1
4.341811459E0,2.020619392E0,-5.800901413E0,6.320420504E-1
4.344142865E0,1.673475027E0,-6.016369820E0,7.254119515E-1
4.346474271E0,1.302389741E0,-6.193533421E0,9.360926151E-1
4.348806511E0,9.552453756E-1,-6.373091221E0,9.432749152E-1
4.351138698E0,5.650073290E-1,-6.540678024E0,8.331463933E-1
4.353470052E0,1.244931296E-1,-6.746570587E0,7.613233924E-1
4.355801459E0,-3.950262666E-1,-6.923733711E0,7.948408127E-1
4.358133698E0,-9.552453756E-1,-7.175114155E0,1.007915616E0
4.360465886E0,-1.493917584E0,-7.421706200E0,1.223384500E0
4.362797292E0,-2.034983873E0,-7.689845085E0,1.379000902E0
4.365128698E0,-2.494651079E0,-7.907708168E0,1.264084101E0
4.367460886E0,-2.916012287E0,-8.137541771E0,9.839745760E-1
4.369793073E0,-3.325403214E0,-8.388921738E0,6.559830904E-1
4.372124480E0,-3.725217819E0,-8.621150017E0,3.303856254E-1
4.374455886E0,-4.115455627E0,-8.855771065E0,-4.309377819E-2
4.376788073E0,-4.541605473E0,-9.143062592E0,-2.011042982E-1
4.379120261E0,-5.034789562E0,-9.463871956E0,-2.274393737E-1
4.381451667E0,-5.465727329E0,-9.811017036E0,-2.920800745E-1
4.383783073E0,-5.853571415E0,-1.008633804E1,-4.453023672E-1
4.386115261E0,-6.212686062E0,-1.038560009E1,-4.596669674E-1
4.388447448E0,-6.464066505E0,-1.059388733E1,-5.410662889E-1
4.390778855E0,-6.698688507E0,-1.080696201E1,-7.278059721E-1
4.393110261E0,-6.933310032E0,-1.101764202E1,-8.882106543E-1
4.395442448E0,-7.062591553E0,-1.113734722E1,-1.048615217E0
4.397774636E0,-7.009921074E0,-1.117086506E1,-1.194655299E0
4.400106042E0,-6.928522110E0,-1.118283463E1,-1.333513021E0
4.402437448E0,-6.746570587E0,-1.113734722E1,-1.458006144E0
4.404769688E0,-6.454490185E0,-1.100567245E1,-1.608834386E0
4.407101823E0,-6.083405018E0,-1.090511990E1,-1.829091549E0
4.409433230E0,-5.650073051E0,-1.069683266E1,-2.106806993E0
4.411764636E0,-5.118583202E0,-1.045024109E1,-2.513803720E0
4.414096875E0,-4.536817074E0,-1.017970753E1,-2.925588846E0
4.416429011E0,-3.911957264E0,-9.832564354E0,-3.208092213E0
4.418760417E0,-3.390043736E0,-9.504571915E0,-3.320615053E0
4.421091823E0,-2.853765726E0,-9.210098267E0,-3.342161655E0
4.423424063E0,-2.370157719E0,-8.910836220E0,-3.349344254E0
4.425756198E0,-1.996678352E0,-8.649879456E0,-3.172180653E0
4.428087605E0,-1.644745827E0,-8.400893211E0,-3.054869890E0
4.430419011E0,-1.338301301E0,-8.206970215E0,-2.856159687E0
4.432751250E0,-1.077344418E0,-8.034595490E0,-2.585626841E0
4.435083386E0,-9.049693346E-1,-7.898131847E0,-2.307911158E0
4.437414792E0,-8.044171929E-1,-7.826309204E0,-1.975131512E0
4.439746198E0,-7.613233924E-1,-7.790397644E0,-1.659110427E0
4.442078438E0,-6.631653905E-1,-7.776032448E0,-1.390971422E0
4.444410625E0,-6.272538900E-1,-7.761668205E0,-1.125226378E0
4.446742032E0,-7.038650513E-1,-7.764061928E0,-8.810282946E-1
4.449073438E0,-6.535889506E-1,-7.778427124E0,-3.543266356E-1
4.451405625E0,-6.224656701E-1,-7.855038166E0,-2.394098788E-2
4.453737813E0,-6.224656701E-1,-7.941225529E0,1.675869077E-1
4.456069219E0,-5.865541697E-1,-8.032201767E0,2.178629786E-1
4.458400625E0,-6.224656701E-1,-8.099235535E0,2.609567642E-1
4.460732813E0,-6.727417707E-1,-8.199788094E0,3.447502255E-1
4.463065000E0,-7.445647120E-1,-8.259640694E0,3.567207158E-1
4.465396407E0,-8.211758733E-1,-8.338645935E0,3.423561156E-1
4.467727813E0,-9.001811147E-1,-8.400893211E0,3.016564250E-1
4.470060000E0,-9.887627959E-1,-8.441592216E0,2.465921789E-1
4.472392188E0,-1.072556257E0,-8.503838539E0,1.699810177E-1
4.474723594E0,-1.151561499E0,-8.566084862E0,6.224656478E-2
4.477055000E0,-1.137196898E0,-8.606784821E0,-1.268872321E-1
4.479387188E0,-1.182684779E0,-8.618755341E0,-3.327797055E-1
4.481719375E0,-1.199443460E0,-8.673819542E0,-6.033128500E-1
4.484050782E0,-1.268872380E0,-8.664242744E0,-8.283581734E-1
4.486382188E0,-1.297601461E0,-8.676214218E0,-1.146773219E0
4.488714427E0,-1.364636302E0,-8.692973137E0,-1.458006144E0
4.491046563E0,-1.467582464E0,-8.688183784E0,-1.747692108E0
4.493377969E0,-1.532223225E0,-8.664242744E0,-2.063713074E0
4.495709375E0,-1.637563467E0,-8.724096298E0,-2.298334837E0
4.498041615E0,-1.723751068E0,-8.712124825E0,-2.509015560E0
4.500373750E0,-1.809938669E0,-8.736065865E0,-2.650267363E0
4.502705157E0,-1.905702591E0,-8.709731102E0,-2.664632082E0
4.505036563E0,-2.020619392E0,-8.755219460E0,-2.635902643E0
4.507368802E0,-2.123565435E0,-8.805495262E0,-2.544926882E0
4.509700938E0,-2.257635117E0,-8.877318382E0,-2.441980839E0
4.512032344E0,-2.281575918E0,-8.910836220E0,-2.367763758E0
4.514363750E0,-2.362975597E0,-8.941959381E0,-2.243270397E0
4.516695990E0,-2.477892160E0,-8.982658386E0,-2.085259914E0
4.519028177E0,-2.556897402E0,-9.028145790E0,-1.915279031E0
4.521359584E0,-2.619143963E0,-9.119121552E0,-1.790785909E0
4.523690990E0,-2.705331564E0,-9.167003632E0,-1.697415948E0
4.526023177E0,-2.786731005E0,-9.226857185E0,-1.625592947E0
4.528355365E0,-2.815460205E0,-9.231644630E0,-1.649533987E0
4.530686771E0,-2.868130207E0,-9.207703590E0,-1.745298028E0
4.533018177E0,-2.975864649E0,-9.207703590E0,-1.891337991E0
4.535350365E0,-3.124298811E0,-9.217280388E0,-2.015831232E0
4.537682552E0,-3.277521133E0,-9.229250908E0,-2.169053555E0
4.540013959E0,-3.500172138E0,-9.301074028E0,-2.307911158E0
4.542345365E0,-3.651000500E0,-9.317831993E0,-2.281575918E0
4.544677552E0,-3.830558062E0,-9.356138229E0,-2.166659355E0
4.547009740E0,-3.990962505E0,-9.394442558E0,-1.924855351E0
4.549341146E0,-4.105879307E0,-9.423172951E0,-1.441247463E0
4.551672552E0,-4.199248791E0,-9.427961349E0,-9.241221547E-1
4.554004740E0,-4.189672947E0,-9.473448753E0,-2.920800745E-1
4.556336927E0,-4.103485107E0,-9.502178192E0,3.974204063E-1
4.558668334E0,-3.967021465E0,-9.509360313E0,1.096497297E0
4.560999740E0,-3.799434662E0,-9.499784470E0,1.683051348E0
4.563331980E0,-3.552842617E0,-9.514147758E0,2.102018833E0
4.565664115E0,-3.193727732E0,-9.499784470E0,2.322275639E0
4.567995521E0,-2.848977566E0,-9.511754036E0,2.303122997E0
4.570326927E0,-2.475497961E0,-9.581183434E0,2.070895433E0
4.572659167E0,-2.125959635E0,-9.638642311E0,1.692627907E0
4.574991302E0,-1.788391709E0,-9.758345604E0,1.252113581E0
4.577322709E0,-1.438853383E0,-9.873263359E0,7.517470121E-1
4.579654115E0,-1.055797458E0,-9.995362282E0,2.370157838E-1
4.581986355E0,-7.038650513E-1,-1.007436752E1,1.675869152E-2
4.584318490E0,-4.165731966E-1,-1.026110744E1,-1.077344418E-1
4.586649896E0,-2.154688835E-1,-1.043587589E1,-1.005521491E-1
4.588981302E0,-8.618755639E-2,-1.061782837E1,1.125226393E-1
4.591313542E0,3.351738304E-2,-1.078780937E1,3.806616962E-1
4.593645677E0,1.771633178E-1,-1.096736622E1,7.038650513E-1
4.595977084E0,1.508282125E-1,-1.115171242E1,1.000733256E0
4.598308490E0,1.675869152E-2,-1.136239338E1,1.189867139E0
4.600640730E0,-1.101285368E-1,-1.152040291E1,1.292813420E0
4.602972917E0,-2.513803840E-1,-1.163531971E1,1.307177901E0
4.605304323E0,-4.644551575E-1,-1.177896595E1,1.163532019E0
4.607635730E0,-7.182296515E-1,-1.191542912E1,9.935510159E-1
4.609967917E0,-1.031856537E0,-1.206625843E1,7.397764921E-1
4.612300105E0,-1.383789182E0,-1.225539112E1,5.099430084E-1
4.614631511E0,-1.738115788E0,-1.242776680E1,2.968682647E-1
4.616962917E0,-2.025407553E0,-1.260014153E1,1.556164175E-1
4.619295105E0,-2.264817476E0,-1.276533508E1,6.464067101E-2
4.621627292E0,-2.537744761E0,-1.300474358E1,-9.576394223E-3
4.623958698E0,-2.664632082E0,-1.316514874E1,-4.548787326E-2
4.626290105E0,-2.755607843E0,-1.330879498E1,-1.005521491E-1
4.628622292E0,-2.848977566E0,-1.347638226E1,-1.939219981E-1
4.630954480E0,-2.846583605E0,-1.360566330E1,-3.303856254E-1
4.633285886E0,-2.810672045E0,-1.368706322E1,-4.907902479E-1
4.635617292E0,-2.786731005E0,-1.375649071E1,-6.703476310E-1
4.637949480E0,-2.841795206E0,-1.386662006E1,-9.145457745E-1
4.640281667E0,-2.904041767E0,-1.395759583E1,-1.094103098E0
4.642613073E0,-2.916012287E0,-1.401505375E1,-1.288025141E0
4.644944480E0,-2.961500168E0,-1.406054211E1,-1.477158904E0
4.647276667E0,-2.956712008E0,-1.411081791E1,-1.632775426E0
4.649608855E0,-3.006988049E0,-1.414433479E1,-1.771633148E0
4.651940261E0,-3.181757212E0,-1.413954735E1,-1.896126270E0
4.654271667E0,-3.315826654E0,-1.414912415E1,-2.054136753E0
4.656603907E0,-3.495384216E0,-1.408927059E1,-2.288758516E0
4.658936042E0,-3.624665499E0,-1.397196007E1,-2.614355803E0
4.661267448E0,-3.753946781E0,-1.389056110E1,-3.074022770E0
4.663598855E0,-3.876045704E0,-1.378282642E1,-3.500172138E0
4.665931094E0,-4.065179825E0,-1.366551590E1,-3.892804384E0
4.668263230E0,-4.237555027E0,-1.351229286E1,-4.206431389E0
4.670594636E0,-4.414718151E0,-1.335667706E1,-4.486540794E0
4.672926042E0,-4.615822315E0,-1.322500134E1,-4.716374397E0
4.675258282E0,-4.845655918E0,-1.307896137E1,-4.836079597E0
4.677590417E0,-5.149706364E0,-1.294728565E1,-4.792985439E0
4.679921823E0,-5.386722088E0,-1.282758141E1,-4.690039635E0
4.682253230E0,-5.666831493E0,-1.270548153E1,-4.520058632E0
4.684585469E0,-5.958911896E0,-1.263365936E1,-4.309377670E0
4.686917605E0,-6.303661823E0,-1.264802361E1,-3.940686464E0
4.689249011E0,-6.610106468E0,-1.268632889E1,-3.481019497E0
4.691580417E0,-6.897398472E0,-1.279885197E1,-2.966288328E0
4.693912657E0,-7.172719955E0,-1.290898037E1,-2.449162960E0
4.696244844E0,-7.359459400E0,-1.307896137E1,-1.888943911E0
4.698576250E0,-7.524652481E0,-1.327048874E1,-1.431671023E0
4.700907657E0,-7.620416641E0,-1.350511074E1,-1.043827057E0
4.703239844E0,-7.582110405E0,-1.369663906E1,-7.349883318E-1
4.705572032E0,-7.460011482E0,-1.381873798E1,-5.338839889E-1
4.707903438E0,-7.349883080E0,-1.389774323E1,-4.692433476E-1
4.710234844E0,-7.215813637E0,-1.398871899E1,-6.703476310E-1
4.712567032E0,-7.014709473E0,-1.401984215E1,-1.153955579E0
4.714899219E0,-6.804028511E0,-1.404138947E1,-1.673475027E0
4.717230625E0,-6.533495426E0,-1.397196007E1,-2.233694315E0
4.719562032E0,-6.210291862E0,-1.386422634E1,-2.741242886E0
4.721894219E0,-5.889482975E0,-1.374930859E1,-3.081204891E0
4.724226407E0,-5.642890453E0,-1.365115070E1,-3.253580332E0
4.726557813E0,-5.451363087E0,-1.359848118E1,-3.174575090E0
4.728889219E0,-5.255046844E0,-1.356017494E1,-2.916012287E0
4.731221407E0,-5.075489521E0,-1.356735802E1,-2.537744761E0
4.733553594E0,-4.927054882E0,-1.359608746E1,-2.094836473E0
4.735885000E0,-4.761862278E0,-1.361763382E1,-1.608834386E0
