"Time (s)","Gyroscope x (rad/s)","Gyroscope y (rad/s)","Gyroscope z (rad/s)"
5.511395800E-2,-9.435301423E-1,-3.516600430E-1,2.798899710E-1
5.762098900E-2,-9.403344393E-1,-3.431381881E-1,2.798899710E-1
6.012802100E-2,-9.243559837E-1,-3.165073693E-1,2.862813771E-1
6.263500000E-2,-9.137036204E-1,-2.930722237E-1,2.926727831E-1
6.514203100E-2,-9.073122144E-1,-2.717675865E-1,2.958684862E-1
6.764901000E-2,-9.009208083E-1,-2.462019771E-1,2.969337106E-1
7.015604100E-2,-8.977251053E-1,-2.280930281E-1,2.969337106E-1
7.266302100E-2,-8.966599107E-1,-2.089188248E-1,2.969337106E-1
7.517005200E-2,-8.966599107E-1,-1.940055639E-1,2.969337106E-1
7.743895800E-2,-8.945294023E-1,-1.727008969E-1,2.969337106E-1
7.994593700E-2,-8.934642076E-1,-1.556571722E-1,2.969337106E-1
8.245296900E-2,-8.913337588E-1,-1.430075318E-1,2.979989350E-1
8.495994800E-2,-8.902685046E-1,-1.344856620E-1,3.001294136E-1
8.746697900E-2,-8.881380558E-1,-1.280942708E-1,3.022598624E-1
8.997401000E-2,-8.753552437E-1,-1.153114736E-1,3.043903410E-1
9.248098900E-2,-8.625724316E-1,-1.014634445E-1,3.033251166E-1
9.498802100E-2,-8.497896194E-1,-9.613727778E-2,3.011946380E-1
9.749500000E-2,-8.380720615E-1,-9.294158220E-2,3.054555655E-1
1.000020310E-1,-8.274197578E-1,-1.003982127E-1,3.033251166E-1
1.025090100E-1,-8.157021999E-1,-1.131810099E-1,2.979989350E-1
1.050160410E-1,-8.018541336E-1,-1.248985752E-1,3.001294136E-1
1.072822910E-1,-7.922670841E-1,-1.408770680E-1,3.011946380E-1
1.097892710E-1,-7.794842720E-1,-1.588528752E-1,3.001294136E-1
1.122963020E-1,-7.688319087E-1,-1.790923029E-1,2.958684862E-1
1.148032810E-1,-7.549839020E-1,-2.014621943E-1,2.948032320E-1
1.173103120E-1,-7.443315983E-1,-2.174406946E-1,2.894770801E-1
1.198173440E-1,-7.283530831E-1,-2.366148829E-1,2.841508985E-1
1.223243230E-1,-7.155702710E-1,-2.579195499E-1,2.798899710E-1
1.248313540E-1,-6.974613070E-1,-2.749632597E-1,2.766942680E-1
1.273383330E-1,-6.804175973E-1,-2.877460718E-1,2.745638192E-1
1.298453640E-1,-6.665695906E-1,-3.015941083E-1,2.724333405E-1
1.323523440E-1,-6.495258212E-1,-3.122464418E-1,2.692376375E-1
1.348593750E-1,-6.336805224E-1,-3.250292242E-1,2.671071887E-1
1.371256250E-1,-6.177020073E-1,-3.324858546E-1,2.703028917E-1
1.396326040E-1,-6.038539410E-1,-3.367467821E-1,2.692376375E-1
1.421396350E-1,-5.921363831E-1,-3.452686667E-1,2.681724131E-1
1.446466140E-1,-5.825493336E-1,-3.537905216E-1,2.692376375E-1
1.471536460E-1,-5.708317757E-1,-3.623123765E-1,2.703028917E-1
1.496606770E-1,-5.612446666E-1,-3.782908916E-1,2.692376375E-1
1.521676560E-1,-5.559184551E-1,-3.942693770E-1,2.713681161E-1
1.546746870E-1,-5.484618545E-1,-4.102478623E-1,2.724333405E-1
1.571816660E-1,-5.420704484E-1,-4.283568263E-1,2.713681161E-1
1.596886980E-1,-5.399399996E-1,-4.464657903E-1,2.745638192E-1
1.621956770E-1,-5.335485935E-1,-4.656399786E-1,2.734985650E-1
1.647027080E-1,-5.239614844E-1,-4.848141670E-1,2.713681161E-1
1.669689580E-1,-5.207657814E-1,-4.933360517E-1,2.692376375E-1
1.694759370E-1,-5.239614844E-1,-5.050535798E-1,2.734985650E-1
1.719829690E-1,-5.260919333E-1,-5.093145370E-1,2.724333405E-1
1.744899480E-1,-5.303528905E-1,-5.082492828E-1,2.703028917E-1
1.769969790E-1,-5.314181447E-1,-5.061188340E-1,2.713681161E-1
1.795040100E-1,-5.335485935E-1,-4.997274280E-1,2.692376375E-1
1.820109890E-1,-5.388747454E-1,-4.922707975E-1,2.671071887E-1
1.845180210E-1,-5.442008972E-1,-4.826837182E-1,2.660419345E-1
1.870250000E-1,-5.484618545E-1,-4.667052329E-1,2.649767101E-1
1.895320310E-1,-5.548532605E-1,-4.507267177E-1,2.649767101E-1
1.920390100E-1,-5.591141582E-1,-4.358134568E-1,2.639114857E-1
1.945460410E-1,-5.623098612E-1,-4.198349714E-1,2.617810071E-1
1.968123440E-1,-5.612446666E-1,-4.059869349E-1,2.628462613E-1
1.993193230E-1,-5.580489635E-1,-3.910736740E-1,2.628462613E-1
2.018263540E-1,-5.527228117E-1,-3.772256374E-1,2.649767101E-1
2.043333330E-1,-5.484618545E-1,-3.697690070E-1,2.671071887E-1
2.068403640E-1,-5.399399996E-1,-3.623123765E-1,2.671071887E-1
2.093473960E-1,-5.324833393E-1,-3.601819277E-1,2.628462613E-1
2.118543750E-1,-5.250267386E-1,-3.676385581E-1,2.692376375E-1
2.143614060E-1,-5.133091807E-1,-3.761604130E-1,2.703028917E-1
2.168683850E-1,-5.037220716E-1,-3.878779709E-1,2.649767101E-1
2.193754160E-1,-4.930697381E-1,-4.059869349E-1,2.671071887E-1
2.218823960E-1,-4.802869260E-1,-4.272916019E-1,2.692376375E-1
2.243894270E-1,-4.664389193E-1,-4.539224207E-1,2.681724131E-1
2.266556770E-1,-4.515256584E-1,-4.848141670E-1,2.692376375E-1
2.291626560E-1,-4.366123974E-1,-5.157059431E-1,2.788247466E-1
2.316696870E-1,-4.248948097E-1,-5.561847687E-1,2.788247466E-1
2.341766660E-1,-4.099815488E-1,-5.955983996E-1,2.788247466E-1
2.366836980E-1,-3.961335421E-1,-6.328815818E-1,2.798899710E-1
2.391907290E-1,-3.844159544E-1,-6.669690013E-1,2.873466015E-1
2.416977080E-1,-3.716331720E-1,-7.010564804E-1,2.937380075E-1
2.442047390E-1,-3.556546867E-1,-7.276872993E-1,2.948032320E-1
2.467117190E-1,-3.428718746E-1,-7.543181181E-1,3.054555655E-1
2.492187500E-1,-3.290238380E-1,-7.722939253E-1,3.118469715E-1
2.517257290E-1,-3.151758313E-1,-7.893376946E-1,3.193036020E-1
2.542327600E-1,-3.034582436E-1,-8.031857014E-1,3.278254569E-1
2.564990620E-1,-2.938711643E-1,-8.180989623E-1,3.342168629E-1
2.590060410E-1,-2.842840552E-1,-8.340774775E-1,3.438039720E-1
2.615130730E-1,-2.757622004E-1,-8.425993323E-1,3.491301239E-1
2.640200520E-1,-2.640446424E-1,-8.244903684E-1,3.565867543E-1
2.665270830E-1,-2.533923090E-1,-7.978595495E-1,3.715000153E-1
2.690341140E-1,-2.480661422E-1,-7.701634765E-1,3.821523488E-1
2.715410940E-1,-2.459356785E-1,-7.479267120E-1,3.842828274E-1
2.740481250E-1,-2.459356785E-1,-7.212958932E-1,3.928046823E-1
2.765551040E-1,-2.470009029E-1,-6.914693713E-1,4.034570158E-1
2.790621350E-1,-2.480661422E-1,-6.648385525E-1,4.109136462E-1
2.815691140E-1,-2.523270845E-1,-6.424686909E-1,4.205007255E-1
2.840761460E-1,-2.555227578E-1,-6.211640239E-1,4.290226102E-1
2.863424480E-1,-2.608489394E-1,-5.987941027E-1,4.322183132E-1
2.888494270E-1,-2.704360485E-1,-5.785546899E-1,4.279573560E-1
2.913564580E-1,-2.810883522E-1,-5.689675808E-1,4.173050225E-1
2.938634370E-1,-2.864145339E-1,-5.551195741E-1,4.109136462E-1
2.963704690E-1,-2.917406857E-1,-5.423367620E-1,4.045222402E-1
2.988775000E-1,-2.981320918E-1,-5.284887552E-1,3.991960883E-1
3.013844790E-1,-2.981320918E-1,-5.146406889E-1,3.960003853E-1
3.038915100E-1,-3.002625704E-1,-5.007926822E-1,3.874785006E-1
3.063984890E-1,-2.991973162E-1,-4.869446456E-1,3.789566457E-1
3.089055210E-1,-3.002625704E-1,-4.784227908E-1,3.715000153E-1
3.114125000E-1,-3.045234978E-1,-4.709661603E-1,3.640433848E-1
3.139195310E-1,-3.077192008E-1,-4.667052329E-1,3.533910513E-1
3.161857810E-1,-3.109148741E-1,-4.645747542E-1,3.416734934E-1
3.186927600E-1,-3.130453527E-1,-4.613790512E-1,3.246297538E-1
3.211997910E-1,-3.087844253E-1,-4.560528994E-1,3.150426745E-1
3.237067710E-1,-3.098496497E-1,-4.475310147E-1,3.033251166E-1
3.262138020E-1,-3.119801283E-1,-4.464657903E-1,2.884118557E-1
3.287208330E-1,-3.119801283E-1,-4.475310147E-1,2.745638192E-1
3.312278120E-1,-3.055887222E-1,-4.432700872E-1,2.639114857E-1
3.337348440E-1,-2.949363887E-1,-4.304873049E-1,2.575200796E-1
3.362418230E-1,-2.842840552E-1,-4.209001958E-1,2.511286736E-1
3.387488540E-1,-2.715012729E-1,-4.049217105E-1,2.468677461E-1
3.412558330E-1,-2.544575334E-1,-3.868127465E-1,2.436720580E-1
3.437628640E-1,-2.320876420E-1,-3.580514491E-1,2.447372824E-1
3.460291660E-1,-2.065220475E-1,-3.292901516E-1,2.436720580E-1
3.485361460E-1,-1.777607650E-1,-2.930722237E-1,2.458025217E-1
3.510431770E-1,-1.489994675E-1,-2.536586225E-1,2.489982247E-1
3.535501560E-1,-1.213034093E-1,-2.099840641E-1,2.543243766E-1
3.560571870E-1,-9.254211932E-2,-1.620485783E-1,2.532591522E-1
3.585642190E-1,-5.951989442E-2,-1.131810099E-1,2.553896308E-1
3.610711980E-1,-2.876129188E-2,-6.524552405E-2,2.543243766E-1
3.635782290E-1,1.065233024E-3,-8.788172156E-3,2.511286736E-1
3.660852080E-1,3.302222490E-2,4.766917601E-2,2.426068187E-1
3.685922390E-1,6.284874678E-2,9.453943372E-2,2.351501882E-1
3.710992190E-1,9.480573982E-2,1.403444558E-1,2.234326303E-1
3.736062500E-1,1.214365661E-1,1.712362021E-1,2.042584270E-1
3.758725520E-1,1.427412182E-1,1.946713328E-1,1.786928326E-1
3.783795310E-1,1.661763489E-1,2.085193694E-1,1.446053833E-1
3.808865620E-1,1.896114796E-1,2.191716880E-1,1.063901484E-1
3.833935410E-1,2.119813710E-1,2.351501882E-1,6.271559745E-2
3.859005730E-1,2.396774292E-1,2.458025217E-1,1.691057347E-2
3.884076040E-1,2.705691755E-1,2.521939278E-1,-2.463351376E-2
3.909145830E-1,3.057218790E-1,2.596505582E-1,-6.937330216E-2
3.934216140E-1,3.419398069E-1,2.703028917E-1,-1.077216864E-1
3.959285940E-1,3.898752928E-1,2.745638192E-1,-1.460700780E-1
3.984356250E-1,4.442021847E-1,2.734985650E-1,-1.748313755E-1
4.009426040E-1,4.974638224E-1,2.671071887E-1,-1.982664913E-1
4.034496350E-1,5.549864173E-1,2.607157826E-1,-2.217016220E-1
4.057159370E-1,6.113106012E-1,2.489982247E-1,-2.462019771E-1
4.082229160E-1,6.762897968E-1,2.372806519E-1,-2.621804774E-1
4.107299480E-1,7.412690520E-1,2.276935577E-1,-2.770937383E-1
4.132369270E-1,8.073135018E-1,2.063889056E-1,-2.994636297E-1
4.157439580E-1,8.776188493E-1,1.797580719E-1,-3.143768907E-1
4.182509890E-1,9.457937479E-1,1.531272531E-1,-3.271597028E-1
4.207579690E-1,1.010772943E0,1.211702600E-1,-3.463338912E-1
4.232650000E-1,1.074687004E0,7.856093347E-2,-3.655080795E-1
4.257719790E-1,1.140731454E0,3.275591508E-2,-3.846822679E-1
4.282790100E-1,1.205577493E0,-1.837527007E-2,-4.038564563E-1
4.307859890E-1,1.270556688E0,-7.057169080E-2,-4.198349714E-1
4.332930210E-1,1.335535884E0,-1.238333359E-1,-4.368786812E-1
4.355593230E-1,1.396254182E0,-1.769618392E-1,-4.539224207E-1
4.380663020E-1,1.455907226E0,-2.280930281E-1,-4.709661603E-1
4.405733330E-1,1.513429761E0,-2.781589627E-1,-4.880098701E-1
4.430803120E-1,1.572017670E0,-3.228987455E-1,-5.007926822E-1
4.455873440E-1,1.628474951E0,-3.644428551E-1,-5.166380405E-1
4.480943750E-1,1.680671453E0,-4.059869349E-1,-5.347470045E-1
4.506013540E-1,1.732867837E0,-4.454005659E-1,-5.475297570E-1
4.531083850E-1,1.782933831E0,-4.752270877E-1,-5.603125691E-1
4.556153640E-1,1.830736160E0,-4.965317547E-1,-5.741605759E-1
4.581223960E-1,1.875475883E0,-5.135754943E-1,-5.880086422E-1
4.606293750E-1,1.917019963E0,-5.274235010E-1,-6.029219031E-1
4.631364060E-1,1.954303145E0,-5.423367620E-1,-6.210308671E-1
4.654027080E-1,1.993716717E0,-5.529890656E-1,-6.370093226E-1
4.679096870E-1,2.034195662E0,-5.593804717E-1,-6.551182866E-1
4.704167190E-1,2.067217827E0,-5.657718778E-1,-6.753577590E-1
4.729237500E-1,2.101305246E0,-5.636414289E-1,-6.902710199E-1
4.754307290E-1,2.127936125E0,-5.561847687E-1,-7.126408815E-1
4.779377600E-1,2.156697512E0,-5.519238710E-1,-7.350108027E-1
4.804447390E-1,2.182262897E0,-5.423367620E-1,-7.605763674E-1
4.829517710E-1,2.208893776E0,-5.295539498E-1,-7.829462886E-1
4.854587500E-1,2.232328892E0,-5.189016461E-1,-8.053161502E-1
4.879657810E-1,2.256829262E0,-4.997274280E-1,-8.308817744E-1
4.904727600E-1,2.282394886E0,-4.805532396E-1,-8.532516360E-1
4.929797910E-1,2.304764748E0,-4.528571963E-1,-8.734911084E-1
4.952460940E-1,2.332460880E0,-4.187697470E-1,-8.916000128E-1
4.977530730E-1,2.361222267E0,-3.772256374E-1,-9.118394852E-1
5.002601040E-1,2.383592129E0,-3.388772607E-1,-9.299484491E-1
5.027670830E-1,2.403831482E0,-2.952027023E-1,-9.427312016E-1
5.052741140E-1,2.418611526E0,-2.440715134E-1,-9.576444626E-1
5.077811460E-1,2.425003052E0,-1.993317306E-1,-9.672315717E-1
5.102881250E-1,2.421807289E0,-1.577876359E-1,-9.778839350E-1
5.127951560E-1,2.407959223E0,-1.163767055E-1,-9.906666875E-1
5.153021350E-1,2.387852907E0,-8.228924870E-2,-1.007710457E0
5.178091660E-1,2.355895996E0,-5.352795869E-2,-1.019428015E0
5.203161460E-1,2.311156273E0,-2.583190054E-2,-1.034341216E0
5.228231770E-1,2.267481565E0,-1.331541222E-3,-1.048189282E0
5.250901040E-1,2.218480825E0,2.210358530E-2,-1.062037349E0
5.275932810E-1,2.167349815E0,4.234301299E-2,-1.069494009E0
5.300964060E-1,2.115153313E0,5.406057462E-2,-1.083341956E0
5.325995310E-1,2.066152573E0,6.790860742E-2,-1.097190022E0
5.351026560E-1,2.019282341E0,9.773512930E-2,-1.104646683E0
5.376058330E-1,1.969216347E0,1.403444558E-1,-1.118361473E0
5.401089580E-1,1.923411369E0,1.840189993E-1,-1.132209539E0
5.426120830E-1,1.877606392E0,2.213021666E-1,-1.142861843E0
5.451152080E-1,1.839257956E0,2.575200796E-1,-1.153514266E0
5.476183850E-1,1.801974773E0,2.926727831E-1,-1.163101315E0
5.501215100E-1,1.770151019E0,3.246297538E-1,-1.173753619E0
5.526246350E-1,1.742454886E0,3.629781604E-1,-1.181210279E0
5.549334890E-1,1.717954516E0,3.960003853E-1,-1.191862583E0
5.574366660E-1,1.699845552E0,4.236964285E-1,-1.203580141E0
5.599397910E-1,1.680671453E0,4.513925016E-1,-1.206775904E0
5.624429160E-1,1.665758133E0,4.757596850E-1,-1.207841039E0
5.649460410E-1,1.652975321E0,4.981296062E-1,-1.207841039E0
5.674492190E-1,1.642323017E0,5.215647221E-1,-1.205710649E0
5.699523440E-1,1.633801103E0,5.386084318E-1,-1.197188735E0
5.724554690E-1,1.626344562E0,5.332822800E-1,-1.178014517E0
5.749585940E-1,1.630605459E0,5.002600551E-1,-1.156709909E0
5.774617710E-1,1.633801103E0,4.714987576E-1,-1.134340048E0
5.799648960E-1,1.628474951E0,4.524577260E-1,-1.110904932E0
5.824680210E-1,1.616757393E0,4.396749437E-1,-1.090798616E0
5.847769270E-1,1.605039835E0,4.428706169E-1,-1.068428755E0
5.872801040E-1,1.589061379E0,4.535229504E-1,-1.046058774E0
5.897832290E-1,1.577343822E0,4.789553881E-1,-1.029015064E0
5.922863540E-1,1.558169603E0,5.460650921E-1,-1.017297506E0
5.947894790E-1,1.531538725E0,6.398055553E-1,-1.011971354E0
5.972926560E-1,1.511299372E0,7.527202964E-1,-1.002384305E0
5.997957810E-1,1.498516560E0,8.752220869E-1,-9.842753410E-1
6.022989060E-1,1.492125154E0,9.892020226E-1,-9.597749710E-1
6.048020310E-1,1.489994645E0,1.092396498E0,-9.299484491E-1
6.073052080E-1,1.492125154E0,1.181876063E0,-9.001219273E-1
6.098083330E-1,1.496386051E0,1.247920513E0,-8.777520061E-1
6.123114580E-1,1.507038474E0,1.292660236E0,-8.564473391E-1
6.146203640E-1,1.513429761E0,1.316095352E0,-8.372731805E-1
6.171235410E-1,1.525147438E0,1.325682521E0,-8.170337081E-1
6.196266660E-1,1.531538725E0,1.334204316E0,-8.042509556E-1
6.221297910E-1,1.544321537E0,1.340595722E0,-7.935985923E-1
6.246329160E-1,1.557104349E0,1.342726231E0,-7.840114832E-1
6.271360940E-1,1.566691518E0,1.339530468E0,-7.808157802E-1
6.296392190E-1,1.577343822E0,1.336334825E0,-7.744244337E-1
6.321423440E-1,1.586930871E0,1.335269570E0,-7.712287307E-1
6.346454690E-1,1.593322277E0,1.337400079E0,-7.669677734E-1
6.371486460E-1,1.599713683E0,1.344856739E0,-7.659025192E-1
6.396517710E-1,1.605039835E0,1.358704686E0,-7.648373246E-1
6.421548960E-1,1.612496495E0,1.375748396E0,-7.627068162E-1
6.444637500E-1,1.616757393E0,1.397053123E0,-7.627068162E-1
6.469669270E-1,1.618887901E0,1.420488238E0,-7.637720704E-1
6.494700520E-1,1.616757393E0,1.440727711E0,-7.659025192E-1
6.519731770E-1,1.611431241E0,1.460967064E0,-7.659025192E-1
6.544763020E-1,1.601844192E0,1.475880384E0,-7.680330276E-1
6.569794790E-1,1.591191888E0,1.480141282E0,-7.680330276E-1
6.594826040E-1,1.577343822E0,1.480141282E0,-7.659025192E-1
6.619857290E-1,1.564561009E0,1.467358470E0,-7.701634765E-1
6.644888540E-1,1.546452045E0,1.455640912E0,-7.669677734E-1
6.669920310E-1,1.527277827E0,1.438597202E0,-7.648373246E-1
6.694951560E-1,1.505973220E0,1.417292595E0,-7.627068162E-1
6.719982810E-1,1.481472850E0,1.393857360E0,-7.659025192E-1
6.743071870E-1,1.454841971E0,1.371487498E0,-7.659025192E-1
6.768103640E-1,1.422885060E0,1.345921874E0,-7.701634765E-1
6.793134890E-1,1.396254182E0,1.318225861E0,-7.733591795E-1
6.818166140E-1,1.367492914E0,1.302247405E0,-7.712287307E-1
6.843197390E-1,1.340862036E0,1.300116897E0,-7.754896283E-1
6.868229160E-1,1.316361666E0,1.305443048E0,-7.808157802E-1
6.893260410E-1,1.295057058E0,1.321421623E0,-7.786853313E-1
6.918291660E-1,1.276948094E0,1.338465333E0,-7.765548825E-1
6.943322910E-1,1.258839130E0,1.364030838E0,-7.754896283E-1
6.968354690E-1,1.241795421E0,1.397053123E0,-7.722939253E-1
6.993385940E-1,1.224751711E0,1.430075288E0,-7.701634765E-1
7.018417190E-1,1.214099288E0,1.465228081E0,-7.701634765E-1
7.041505730E-1,1.202381730E0,1.497184992E0,-7.669677734E-1
7.066537500E-1,1.194925189E0,1.520620108E0,-7.605763674E-1
7.091568750E-1,1.191729426E0,1.529142022E0,-7.509892583E-1
7.116600000E-1,1.184405923E0,1.535533428E0,-7.403369546E-1
7.141631250E-1,1.176949382E0,1.551511884E0,-7.339455485E-1
7.166663020E-1,1.169492722E0,1.573881745E0,-7.275541425E-1
7.191694270E-1,1.162036061E0,1.602643132E0,-7.200975418E-1
7.216725520E-1,1.152449012E0,1.636730552E0,-7.147713304E-1
7.241756770E-1,1.141796589E0,1.673880577E0,-7.073147297E-1
7.266788540E-1,1.139666200E0,1.717555046E0,-6.966624260E-1
7.291819790E-1,1.131144285E0,1.771881938E0,-6.849448085E-1
7.316851040E-1,1.125818133E0,1.835795999E0,-6.721620560E-1
7.339940100E-1,1.114100575E0,1.897579432E0,-6.572487950E-1
7.364971870E-1,1.109839678E0,1.954036832E0,-6.391398311E-1
7.390003120E-1,1.103448272E0,1.997711420E0,-6.199656129E-1
7.415034370E-1,1.092795968E0,2.029668331E0,-6.061176062E-1
7.440065620E-1,1.084274054E0,2.044581652E0,-5.901390910E-1
7.465097390E-1,1.075752258E0,2.041385889E0,-5.762910843E-1
7.490128640E-1,1.067230344E0,2.026472569E0,-5.603125691E-1
7.515159890E-1,1.051251888E0,2.006233215E0,-5.464645624E-1
7.540191140E-1,1.038469076E0,1.982798100E0,-5.358121991E-1
7.565222910E-1,1.024621010E0,1.959362984E0,-5.251598954E-1
7.590254160E-1,1.007577300E0,1.933797359E0,-5.145075321E-1
7.615285410E-1,9.915987849E-1,1.911427498E0,-5.038552284E-1
7.638373960E-1,9.745550752E-1,1.883731484E0,-4.975969791E-1
7.663405730E-1,9.575113058E-1,1.851774454E0,-4.912055731E-1
7.688436980E-1,9.383371472E-1,1.815556526E0,-4.816184938E-1
7.713468230E-1,9.149020314E-1,1.775077701E0,-4.784227908E-1
7.738499480E-1,8.957278132E-1,1.739925027E0,-4.699009061E-1
7.763531250E-1,8.722926974E-1,1.697315693E0,-4.645747542E-1
7.788562500E-1,8.488575816E-1,1.648448110E0,-4.603138268E-1
7.813593750E-1,8.264876604E-1,1.603708267E0,-4.507267177E-1
7.838625000E-1,8.019872904E-1,1.557903290E0,-4.411396384E-1
7.863656770E-1,7.742912769E-1,1.504641652E0,-4.358134568E-1
7.888688020E-1,7.465952039E-1,1.444988608E0,-4.336830080E-1
7.913719270E-1,7.188991308E-1,1.392792225E0,-4.219654202E-1
7.936808330E-1,6.880073547E-1,1.362965703E0,-4.113130867E-1
7.961840100E-1,6.635070443E-1,1.335269570E0,-4.006607831E-1
7.986871350E-1,6.358109713E-1,1.291594982E0,-3.900084496E-1
8.011902600E-1,6.049191952E-1,1.241529107E0,-3.804213405E-1
8.036933850E-1,5.782883763E-1,1.196789265E0,-3.687037826E-1
8.061965620E-1,5.464645624E-1,1.153114796E0,-3.591166735E-1
8.086996870E-1,5.145075321E-1,1.105179310E0,-3.473991156E-1
8.112028120E-1,4.878767133E-1,1.054181218E0,-3.324858546E-1
8.137059370E-1,4.612458944E-1,1.003050089E0,-3.175725937E-1
8.162091140E-1,4.356803000E-1,9.572450519E-1,-3.026593328E-1
8.187122390E-1,4.111799598E-1,9.103747606E-1,-2.888112962E-1
8.212153640E-1,3.845491111E-1,8.624392748E-1,-2.738980353E-1
8.235242190E-1,3.589835167E-1,8.198299408E-1,-2.589847744E-1
8.260273960E-1,3.366136253E-1,7.814815640E-1,-2.472672164E-1
8.285305210E-1,3.163742125E-1,7.537854910E-1,-2.291582525E-1
8.310336460E-1,3.025261760E-1,7.260894775E-1,-2.153102309E-1
8.335367710E-1,2.822867632E-1,7.069152594E-1,-2.014621943E-1
8.360399480E-1,2.652430236E-1,6.930672526E-1,-1.876141727E-1
8.385430730E-1,2.535254657E-1,6.802844405E-1,-1.716356725E-1
8.410461980E-1,2.375469655E-1,6.728277802E-1,-1.567224115E-1
8.435493230E-1,2.268946320E-1,6.717625856E-1,-1.386134475E-1
8.460525000E-1,2.141118348E-1,6.749582887E-1,-1.290263534E-1
8.485556250E-1,2.055899799E-1,6.813496947E-1,-1.151783243E-1
8.510587500E-1,1.981333494E-1,6.856105924E-1,-1.023955271E-1
8.533676560E-1,1.842853129E-1,6.909367442E-1,-8.854749799E-2
8.558708330E-1,1.768286824E-1,6.962629557E-1,-7.576470077E-2
8.583739580E-1,1.672415882E-1,6.973281503E-1,-6.404713541E-2
8.608770830E-1,1.533935517E-1,6.994586587E-1,-5.232957378E-2
8.633802080E-1,1.416759938E-1,7.037195563E-1,-4.700340703E-2
8.658833850E-1,1.256974936E-1,7.079805136E-1,-4.274247587E-2
8.683865100E-1,1.107842326E-1,7.133066654E-1,-3.848154470E-2
8.708896350E-1,1.001319066E-1,7.154371142E-1,-3.741630912E-2
8.733927600E-1,8.415340632E-2,7.175676227E-1,-3.741630912E-2
8.758959370E-1,6.604444981E-2,7.143719196E-1,-4.061200842E-2
8.783990620E-1,5.219641700E-2,7.122414112E-1,-4.380770773E-2
8.809021870E-1,3.621792421E-2,7.101109624E-1,-5.019910634E-2
8.832110940E-1,2.236989327E-2,7.101109624E-1,-5.446003750E-2
8.857142710E-1,4.260932095E-3,7.047848105E-1,-6.085143611E-2
8.882173960E-1,-9.587096982E-3,7.026543617E-1,-6.830807030E-2
8.907205210E-1,-2.556559257E-2,6.994586587E-1,-7.682993263E-2
8.932236460E-1,-4.354140162E-2,7.015891075E-1,-8.961272985E-2
8.957268230E-1,-5.845466256E-2,7.026543617E-1,-1.013302878E-1
8.982299480E-1,-6.910699606E-2,7.026543617E-1,-1.130478531E-1
9.007330730E-1,-8.295502514E-2,7.026543617E-1,-1.258306503E-1
9.032361980E-1,-9.573781490E-2,7.037195563E-1,-1.375482082E-1
9.057393750E-1,-1.042596847E-1,7.058500051E-1,-1.482005417E-1
9.082425000E-1,-1.117163152E-1,7.111762166E-1,-1.620485783E-1
9.107456250E-1,-1.202381775E-1,7.165023685E-1,-1.780270636E-1
9.130545310E-1,-1.266295761E-1,7.196980715E-1,-1.897446364E-1
9.155577080E-1,-1.298252791E-1,7.218285203E-1,-2.003969699E-1
9.180608330E-1,-1.308905035E-1,7.250242233E-1,-2.121145278E-1
9.205639580E-1,-1.298252791E-1,7.356765866E-1,-2.227668613E-1
9.230670830E-1,-1.255643368E-1,7.463288903E-1,-2.312887162E-1
9.255702600E-1,-1.213034093E-1,7.484593391E-1,-2.430062890E-1
9.280733850E-1,-1.149120107E-1,7.559159994E-1,-2.525933683E-1
9.305765100E-1,-1.031944528E-1,7.644378543E-1,-2.621804774E-1
9.330796350E-1,-9.041165560E-2,7.591117024E-1,-2.728328109E-1
9.355828120E-1,-7.656362653E-2,7.463288903E-1,-2.834851444E-1
9.380859370E-1,-5.525896326E-2,7.292851806E-1,-2.952027023E-1
9.405890620E-1,-3.288906813E-2,7.005238533E-1,-3.047898114E-1
9.428979690E-1,-7.456631400E-3,6.717625856E-1,-3.133116663E-1
9.454011460E-1,1.704372838E-2,6.419360638E-1,-3.228987455E-1
9.479042710E-1,4.793548584E-2,6.089138389E-1,-3.314206302E-1
9.504073960E-1,8.095771074E-2,5.695002079E-1,-3.420729637E-1
9.529105210E-1,1.203713343E-1,5.322170258E-1,-3.473991156E-1
9.554136980E-1,1.587197185E-1,4.896077216E-1,-3.537905216E-1
9.579168230E-1,2.013290375E-1,4.492620230E-1,-3.601819277E-1
9.604199480E-1,2.460688353E-1,4.194355011E-1,-3.687037826E-1
9.629230730E-1,2.940043211E-1,3.981308341E-1,-3.782908916E-1
9.654262500E-1,3.408745527E-1,3.853480518E-1,-3.814865649E-1
9.679293750E-1,3.898752928E-1,3.853480518E-1,-3.857475221E-1
9.704325000E-1,4.420717061E-1,3.906742036E-1,-3.921388984E-1
9.727413540E-1,4.900071919E-1,3.991960883E-1,-3.953346014E-1
9.752445310E-1,5.358121991E-1,4.205007255E-1,-3.985303044E-1
9.777476560E-1,5.846797824E-1,4.545882046E-1,-4.038564563E-1
9.802507810E-1,6.262238622E-1,4.991948307E-1,-4.006607831E-1
9.827539060E-1,6.624417901E-1,5.599130988E-1,-3.995955288E-1
9.852570830E-1,6.986597180E-1,6.323489547E-1,-3.900084496E-1
9.877602080E-1,7.252905369E-1,7.111762166E-1,-3.857475221E-1
9.902633330E-1,7.519213557E-1,7.921339273E-1,-3.782908916E-1
9.927664580E-1,7.710955739E-1,8.709611297E-1,-3.708342612E-1
9.952696350E-1,7.870740294E-1,9.508536458E-1,-3.612471521E-1
9.977727600E-1,7.913349867E-1,1.027550459E0,-3.505948186E-1
1.000275885E0,7.924002409E-1,1.105179310E0,-3.420729637E-1
1.002584791E0,7.913349867E-1,1.178680301E0,-3.378120363E-1
1.005087969E0,7.785521746E-1,1.241529107E0,-3.292901516E-1
1.007591094E0,7.636389136E-1,1.307573557E0,-3.239639997E-1
1.010094219E0,7.487256527E-1,1.372552752E0,-3.228987455E-1
1.012597344E0,7.284862399E-1,1.425814390E0,-3.197030723E-1
1.015100521E0,7.029206157E-1,1.474815130E0,-3.175725937E-1
1.017603646E0,6.762897968E-1,1.517424464E0,-3.186378181E-1
1.020106771E0,6.507242322E-1,1.547250986E0,-3.186378181E-1
1.022609896E0,6.166367531E-1,1.568555593E0,-3.186378181E-1
1.025113073E0,5.836145282E-1,1.587729812E0,-3.186378181E-1
1.027616198E0,5.528559685E-1,1.598382115E0,-3.197030723E-1
1.030119323E0,5.155727863E-1,1.598382115E0,-3.175725937E-1
1.032428802E0,4.750939310E-1,1.591990709E0,-3.165073693E-1
1.034928750E0,4.324845970E-1,1.578142762E0,-3.133116663E-1
1.037428646E0,3.877448142E-1,1.550446630E0,-3.079854846E-1
1.039928541E0,3.419398069E-1,1.520620108E0,-3.026593328E-1
1.042428437E0,2.950695455E-1,1.478010774E0,-2.909417748E-1
1.044928333E0,2.503297627E-1,1.429010153E0,-2.813546658E-1
1.047428229E0,2.034595013E-1,1.377878904E0,-2.643109560E-1
1.049928125E0,1.619154215E-1,1.324617267E0,-2.472672164E-1
1.052428021E0,1.267627329E-1,1.270290375E0,-2.217016220E-1
1.054927916E0,9.374050796E-2,1.207441688E0,-1.940055639E-1
1.057427812E0,6.924014539E-2,1.137136221E0,-1.588528752E-1
1.059927708E0,5.539211631E-2,1.060572624E0,-1.226349548E-1
1.062272239E0,4.260931909E-2,9.902672768E-1,-8.109086752E-2
1.064772187E0,3.302222490E-2,9.242228270E-1,-4.061200842E-2
1.067272083E0,2.130465955E-2,8.592435718E-1,-4.394086078E-3
1.069771979E0,0.000000000E0,8.113080859E-1,2.862813696E-2
1.072271875E0,-2.982652560E-2,7.782858610E-1,5.525896326E-2
1.074771771E0,-6.910699606E-2,7.644378543E-1,7.656362653E-2
1.077271666E0,-1.191729456E-1,7.644378543E-1,9.573781490E-2
1.079771562E0,-1.734998226E-1,7.782858610E-1,1.105179265E-1
1.082271458E0,-2.310224175E-1,8.198299408E-1,1.243659556E-1
1.084771354E0,-2.949363887E-1,8.762873411E-1,1.286268830E-1
1.087271250E0,-3.577851355E-1,9.338098764E-1,1.296921223E-1
1.089771146E0,-4.185034335E-1,9.838758707E-1,1.307573467E-1
1.092115677E0,-4.792217016E-1,1.025419950E0,1.296921223E-1
1.094615625E0,-5.452661514E-1,1.053115964E0,1.307573467E-1
1.097115521E0,-6.145063043E-1,1.067896128E0,1.392792165E-1
1.099615416E0,-6.910699010E-1,1.072157025E0,1.478010863E-1
1.102115312E0,-7.635057569E-1,1.052050710E0,1.616491079E-1
1.104615208E0,-8.306154609E-1,9.966586232E-1,1.776276082E-1
1.107115104E0,-8.892032504E-1,9.167661667E-1,1.968017966E-1
1.109615000E0,-9.382039905E-1,8.102428913E-1,2.106498331E-1
1.112114896E0,-9.701609612E-1,6.813496947E-1,2.266283184E-1
1.114614791E0,-9.882699251E-1,5.109124184E-1,2.436720580E-1
1.117114687E0,-9.967917800E-1,3.107817471E-1,2.649767101E-1
1.119614583E0,-9.999874830E-1,8.814803511E-2,2.926727831E-1
1.121959114E0,-1.004248381E0,-1.515294015E-1,3.203688264E-1
1.124459062E0,-1.007444143E0,-3.900084496E-1,3.480648994E-1
1.126958958E0,-1.017031193E0,-6.211640239E-1,3.778914213E-1
1.129458854E0,-1.038335919E0,-8.564473391E-1,4.098483920E-1
1.131958750E0,-1.067097187E0,-1.084407210E0,4.386096895E-1
1.134458646E0,-1.102249861E0,-1.304910421E0,4.609795809E-1
1.136958541E0,-1.134206891E0,-1.505041122E0,4.801537991E-1
1.139458437E0,-1.165098667E0,-1.678674102E0,4.897408783E-1
1.141958333E0,-1.177881360E0,-1.821415305E0,4.929365814E-1
1.144458229E0,-1.169359565E0,-1.916221023E0,4.886756539E-1
1.146958125E0,-1.141663551E0,-1.970547915E0,4.737623930E-1
1.149458021E0,-1.093728065E0,-1.988523722E0,4.513925016E-1
1.151802552E0,-1.027683616E0,-1.971613169E0,4.236964285E-1
1.154302500E0,-9.467258453E-1,-1.909829617E0,3.928046823E-1
1.156802396E0,-8.604419827E-1,-1.810763001E0,3.587172329E-1
1.159302291E0,-7.730928659E-1,-1.673347950E0,3.256950080E-1
1.161802187E0,-6.900047064E-1,-1.513562918E0,2.958684862E-1
1.164302083E0,-6.134410501E-1,-1.333671689E0,2.671071887E-1
1.166801979E0,-5.537880063E-1,-1.148321152E0,2.362154275E-1
1.169301875E0,-5.069177747E-1,-9.746882319E-1,1.999974996E-1
1.171801771E0,-4.728302956E-1,-8.244903684E-1,1.723014414E-1
1.174301666E0,-4.621779919E-1,-7.127740383E-1,1.456706226E-1
1.176801562E0,-4.706998467E-1,-6.467295885E-1,1.179745570E-1
1.179301458E0,-5.058525205E-1,-6.211640239E-1,8.508548886E-2
1.181645989E0,-5.601794124E-1,-6.392729878E-1,5.845466256E-2
1.184145937E0,-6.379414201E-1,-6.999912262E-1,3.608476743E-2
1.186645833E0,-7.230269313E-1,-7.914681435E-1,1.691057347E-2
1.189145729E0,-8.167673945E-1,-9.075785279E-1,1.997311832E-3
1.191645625E0,-9.126383662E-1,-1.048189282E0,-3.328853287E-3
1.194145521E0,-1.006378889E0,-1.209039450E0,-6.524552125E-3
1.196645416E0,-1.095858455E0,-1.387865424E0,-9.720250964E-3
1.199145312E0,-1.169359565E0,-1.579607368E0,-1.185071748E-2
1.201645208E0,-1.234338760E0,-1.767088413E0,-1.504641678E-2
1.204145104E0,-1.287467241E0,-1.947112799E0,-1.398118306E-2
1.206645000E0,-1.325815678E0,-2.108895063E0,-1.398118306E-2
1.209144896E0,-1.351381302E0,-2.248440504E0,-1.185071748E-2
1.211489427E0,-1.362033606E0,-2.357094288E0,-3.328853287E-3
1.213989375E0,-1.362033606E0,-2.436986923E0,3.062544856E-3
1.216489271E0,-1.353511691E0,-2.482791901E0,1.158440951E-2
1.218989166E0,-1.335402727E0,-2.495574713E0,2.436720580E-2
1.221489062E0,-1.309837103E0,-2.482791901E0,3.395430371E-2
1.223988958E0,-1.281075835E0,-2.457226276E0,4.780233279E-2
1.226488854E0,-1.260836482E0,-2.427399635E0,6.804175675E-2
1.228988750E0,-1.238599658E0,-2.402899504E0,9.041165560E-2
1.231488646E0,-1.219425559E0,-2.366681576E0,1.126483902E-1
1.233988541E0,-1.199186087E0,-2.303832769E0,1.275616586E-1
1.236488437E0,-1.182142377E0,-2.237788200E0,1.456706226E-1
1.238988333E0,-1.166163802E0,-2.173874378E0,1.584534049E-1
1.241332916E0,-1.156576753E0,-2.111025572E0,1.754971445E-1
1.243832864E0,-1.146989703E0,-2.055633545E0,1.925408691E-1
1.246332760E0,-1.140598297E0,-2.013024092E0,2.042584270E-1
1.248832656E0,-1.141663551E0,-1.983197570E0,2.127802968E-1
1.251332552E0,-1.153381109E0,-1.973743677E0,2.244978547E-1
1.253832448E0,-1.159772396E0,-1.971613169E0,2.287587970E-1
1.256332344E0,-1.173620462E0,-1.936460495E0,2.244978547E-1
1.258832239E0,-1.180011868E0,-1.870416045E0,2.149107605E-1
1.261332135E0,-1.191729426E0,-1.800110698E0,2.021279633E-1
1.263832031E0,-1.206642747E0,-1.736196637E0,1.829537749E-1
1.266331927E0,-1.215164542E0,-1.679739356E0,1.605838835E-1
1.268831823E0,-1.227947354E0,-1.622216702E0,1.371487528E-1
1.271176354E0,-1.238599658E0,-1.564694166E0,1.137136221E-1
1.273676302E0,-1.248053670E0,-1.502910614E0,8.721595258E-2
1.276176198E0,-1.264032125E0,-1.430474758E0,6.058513001E-2
1.278676094E0,-1.276814938E0,-1.353911161E0,3.288906813E-2
1.281175989E0,-1.291728139E0,-1.276149154E0,1.158440951E-2
1.283675885E0,-1.305576205E0,-1.188800097E0,-9.720250964E-3
1.286175781E0,-1.318359017E0,-1.096124768E0,-3.422060981E-2
1.288675677E0,-1.327946067E0,-1.001319051E0,-5.339480564E-2
1.291175573E0,-1.339663625E0,-9.161003828E-1,-6.937330216E-2
1.293675469E0,-1.351381302E0,-8.308817744E-1,-7.896039635E-2
1.296175364E0,-1.358837843E0,-7.500572205E-1,-8.428656310E-2
1.298675260E0,-1.368425012E0,-6.850779653E-1,-9.174319357E-2
1.301019791E0,-1.378012061E0,-6.307511330E-1,-9.387365729E-2
1.303519739E0,-1.393990517E0,-5.860112906E-1,-9.067796171E-2
1.306019635E0,-1.406773329E0,-5.561847687E-1,-8.641702682E-2
1.308519531E0,-1.420621395E0,-5.284887552E-1,-8.109086752E-2
1.311019427E0,-1.439795613E0,-5.029231310E-1,-7.256899774E-2
1.313519323E0,-1.458969831E0,-4.773575366E-1,-6.617759913E-2
1.316019219E0,-1.474948287E0,-4.592485726E-1,-5.659050494E-2
1.318519114E0,-1.485600591E0,-4.507267177E-1,-4.487293959E-2
1.321019010E0,-1.502644300E0,-4.507267177E-1,-3.422060981E-2
1.323518906E0,-1.515427113E0,-4.645747542E-1,-2.250304818E-2
1.326018802E0,-1.527144670E0,-4.826837182E-1,-4.394086078E-3
1.328518698E0,-1.533536077E0,-5.029231310E-1,1.051917579E-2
1.330863281E0,-1.542057991E0,-5.167711973E-1,2.862813696E-2
1.333363229E0,-1.547384143E0,-5.220973492E-1,5.099803209E-2
1.335863125E0,-1.548449397E0,-5.284887552E-1,7.123745978E-2
1.338363021E0,-1.538862228E0,-5.497934222E-1,9.360735118E-2
1.340862916E0,-1.523949027E0,-5.828156471E-1,1.190397888E-1
1.343362812E0,-1.511166215E0,-6.115769148E-1,1.467358470E-1
1.345862708E0,-1.494122505E0,-6.403381824E-1,1.733666807E-1
1.348362604E0,-1.480274439E0,-6.701647043E-1,1.989322603E-1
1.350862500E0,-1.465361238E0,-6.893389225E-1,2.308892608E-1
1.353362396E0,-1.449382663E0,-6.978607774E-1,2.575200796E-1
1.355862291E0,-1.427012801E0,-7.021217346E-1,2.820204496E-1
1.358362187E0,-1.408903837E0,-6.935998797E-1,3.011946380E-1
1.360706771E0,-1.390794873E0,-6.754909158E-1,3.193036020E-1
1.363206719E0,-1.370555401E0,-6.350120306E-1,3.320863843E-1
1.365706614E0,-1.347120285E0,-5.785546899E-1,3.384777904E-1
1.368206510E0,-1.323685169E0,-5.263582468E-1,3.395430148E-1
1.370706406E0,-1.297054410E0,-4.912055731E-1,3.427387178E-1
1.373206302E0,-1.268293023E0,-4.656399786E-1,3.512606025E-1
1.375706198E0,-1.237534523E0,-4.464657903E-1,3.555215299E-1
1.378206094E0,-1.208773136E0,-4.262263775E-1,3.576519787E-1
1.380705989E0,-1.187468529E0,-4.049217105E-1,3.619129062E-1
1.383205885E0,-1.166163802E0,-3.804213405E-1,3.629781604E-1
1.385705781E0,-1.156576753E0,-3.548557460E-1,3.629781604E-1
1.388205677E0,-1.150185347E0,-3.335510790E-1,3.587172329E-1
1.390550208E0,-1.139533043E0,-3.111811876E-1,3.491301239E-1
1.393050156E0,-1.132076383E0,-2.994636297E-1,3.406082690E-1
1.395550052E0,-1.128880739E0,-2.898765504E-1,3.299559355E-1
1.398049948E0,-1.128880739E0,-2.813546658E-1,3.161078990E-1
1.400549844E0,-1.129945874E0,-2.749632597E-1,3.001294136E-1
1.403049739E0,-1.134206891E0,-2.717675865E-1,2.862813771E-1
1.405549635E0,-1.137402534E0,-2.760285139E-1,2.745638192E-1
1.408049531E0,-1.140598297E0,-2.813546658E-1,2.628462613E-1
1.410549427E0,-1.144859195E0,-3.015941083E-1,2.511286736E-1
1.413049323E0,-1.144859195E0,-3.378120363E-1,2.532591522E-1
1.415549219E0,-1.132076383E0,-3.761604130E-1,2.585853040E-1
1.418049114E0,-1.121424079E0,-4.091826379E-1,2.649767101E-1
1.420393698E0,-1.112902164E0,-4.379439354E-1,2.692376375E-1
1.422893646E0,-1.102249861E0,-4.709661603E-1,2.724333405E-1
1.425393541E0,-1.096923709E0,-5.018579364E-1,2.745638192E-1
1.427893437E0,-1.090532303E0,-5.306192040E-1,2.703028917E-1
1.430393333E0,-1.083075643E0,-5.519238710E-1,2.660419345E-1
1.432893229E0,-1.076684237E0,-5.679023266E-1,2.596505582E-1
1.435393125E0,-1.069227695E0,-5.817503929E-1,2.532591522E-1
1.437893021E0,-1.058575273E0,-5.892069936E-1,2.404763550E-1
1.440392916E0,-1.052183867E0,-5.945332050E-1,2.298240215E-1
1.442892812E0,-1.045792580E0,-6.019898057E-1,2.202369273E-1
1.445392708E0,-1.039401174E0,-6.083812118E-1,2.074541301E-1
1.447892604E0,-1.030879259E0,-6.137073636E-1,1.957365721E-1
1.450237187E0,-1.026618361E0,-6.126421690E-1,1.904104054E-1
1.452737135E0,-1.021292210E0,-6.062507629E-1,1.797580719E-1
1.455237031E0,-1.018096447E0,-6.179683208E-1,1.744319052E-1
1.457736927E0,-1.013835549E0,-6.403381824E-1,1.701709777E-1
1.460236823E0,-1.008509398E0,-6.595124006E-1,1.691057384E-1
1.462736719E0,-1.005313635E0,-6.797518134E-1,1.659100503E-1
1.465236614E0,-1.004248381E0,-6.925346255E-1,1.669752747E-1
1.467736510E0,-9.978570342E-1,-7.042521834E-1,1.691057384E-1
1.470236406E0,-9.935960770E-1,-7.170349956E-1,1.712362021E-1
1.472736302E0,-9.904004335E-1,-7.202306986E-1,1.691057384E-1
1.475236198E0,-9.829437733E-1,-7.212958932E-1,1.669752747E-1
1.477736094E0,-9.754871130E-1,-7.212958932E-1,1.786928326E-1
1.480080677E0,-9.637695551E-1,-7.244915962E-1,1.882799417E-1
1.482580625E0,-9.488562942E-1,-7.298177481E-1,1.989322603E-1
1.485080521E0,-9.382039905E-1,-7.351439595E-1,2.063889056E-1
1.487580416E0,-9.243559837E-1,-7.489919662E-1,2.117150575E-1
1.490080312E0,-9.094427228E-1,-7.596443295E-1,2.170412242E-1
1.492580208E0,-8.945294023E-1,-7.596443295E-1,2.202369273E-1
1.495080104E0,-8.732247949E-1,-7.553833723E-1,2.213021666E-1
1.497580000E0,-8.540505767E-1,-7.575138211E-1,2.308892608E-1
1.500079896E0,-8.359416127E-1,-7.627068162E-1,2.340849638E-1
1.502579791E0,-8.220936060E-1,-7.680330276E-1,2.351501882E-1
1.505079687E0,-8.071803451E-1,-7.616416216E-1,2.404763550E-1
1.507579583E0,-7.890713811E-1,-7.404701114E-1,2.500634491E-1
1.509924114E0,-7.762885690E-1,-7.181001902E-1,2.521939278E-1
1.512424062E0,-7.656362653E-1,-7.010564804E-1,2.532591522E-1
1.514923958E0,-7.571143508E-1,-7.010564804E-1,2.521939278E-1
1.517423854E0,-7.517881989E-1,-7.053174376E-1,2.489982247E-1
1.519923750E0,-7.549839020E-1,-7.127740383E-1,2.458025217E-1
1.522423646E0,-7.528534532E-1,-7.159697413E-1,2.415415943E-1
1.524923541E0,-7.517881989E-1,-7.138392925E-1,2.351501882E-1
1.527423437E0,-7.528534532E-1,-7.042521834E-1,2.330197245E-1
1.529923333E0,-7.571143508E-1,-6.882736683E-1,2.308892608E-1
1.532423229E0,-7.613753080E-1,-6.712299585E-1,2.330197245E-1
1.534923125E0,-7.624405622E-1,-6.477948427E-1,2.340849638E-1
1.537423021E0,-7.667014599E-1,-6.275554299E-1,2.394111156E-1
1.539768073E0,-7.720276117E-1,-5.998593569E-1,2.468677461E-1
1.542265364E0,-7.762885690E-1,-5.721632838E-1,2.521939278E-1
1.544762656E0,-7.752233148E-1,-5.487281680E-1,2.628462613E-1
1.547260000E0,-7.741581202E-1,-5.295539498E-1,2.713681161E-1
1.549757291E0,-7.784190178E-1,-5.114449859E-1,2.766942680E-1
1.552254635E0,-7.805495262E-1,-4.965317547E-1,2.788247466E-1
1.554751927E0,-7.816147208E-1,-4.880098701E-1,2.809551954E-1
1.557249219E0,-7.784190178E-1,-4.816184938E-1,2.862813771E-1
1.559746562E0,-7.773538232E-1,-4.762923121E-1,2.873466015E-1
1.562243854E0,-7.784190178E-1,-4.709661603E-1,2.916075289E-1
1.564741146E0,-7.794842720E-1,-4.645747542E-1,2.958684862E-1
1.567238489E0,-7.837451696E-1,-4.613790512E-1,2.958684862E-1
1.569611562E0,-7.848104239E-1,-4.560528994E-1,3.011946380E-1
1.572108854E0,-7.858756781E-1,-4.539224207E-1,3.075860441E-1
1.574606146E0,-7.880061269E-1,-4.528571963E-1,3.075860441E-1
1.577103489E0,-7.890713811E-1,-4.485962689E-1,3.043903410E-1
1.579600781E0,-7.869408727E-1,-4.390091598E-1,3.097164929E-1
1.582098125E0,-7.901365757E-1,-4.326177537E-1,3.129121959E-1
1.584595416E0,-7.901365757E-1,-4.240958989E-1,3.129121959E-1
1.587092708E0,-7.901365757E-1,-4.155740440E-1,3.161078990E-1
1.589590052E0,-7.954627872E-1,-4.145087898E-1,3.161078990E-1
1.592087344E0,-7.986584306E-1,-4.113130867E-1,3.139774203E-1
1.594584635E0,-7.975932360E-1,-4.123783410E-1,3.150426745E-1
1.597081979E0,-7.986584306E-1,-4.166392684E-1,3.161078990E-1
1.599455052E0,-8.007889390E-1,-4.166392684E-1,3.203688264E-1
1.601952344E0,-8.007889390E-1,-4.198349714E-1,3.214340508E-1
1.604449635E0,-7.986584306E-1,-4.251611233E-1,3.214340508E-1
1.606946979E0,-7.986584306E-1,-4.272916019E-1,3.214340508E-1
1.609444271E0,-7.943975329E-1,-4.272916019E-1,3.246297538E-1
1.611941614E0,-7.912018299E-1,-4.283568263E-1,3.256950080E-1
1.614438906E0,-7.880061269E-1,-4.272916019E-1,3.256950080E-1
1.616936198E0,-7.858756781E-1,-4.283568263E-1,3.310211599E-1
1.619433541E0,-7.848104239E-1,-4.294220507E-1,3.342168629E-1
1.621930833E0,-7.794842720E-1,-4.272916019E-1,3.363473415E-1
1.624428125E0,-7.773538232E-1,-4.230306745E-1,3.363473415E-1
1.626925469E0,-7.762885690E-1,-4.219654202E-1,3.406082690E-1
1.629298541E0,-7.730928659E-1,-4.166392684E-1,3.448691964E-1
1.631795833E0,-7.741581202E-1,-4.134435654E-1,3.469996452E-1
1.634293125E0,-7.773538232E-1,-4.070521593E-1,3.491301239E-1
1.636790469E0,-7.762885690E-1,-4.017260075E-1,3.501953483E-1
1.639287760E0,-7.762885690E-1,-3.953346014E-1,3.512606025E-1
1.641785104E0,-7.784190178E-1,-3.889431953E-1,3.533910513E-1
1.644282396E0,-7.848104239E-1,-3.825518191E-1,3.512606025E-1
1.646779687E0,-7.890713811E-1,-3.729647100E-1,3.523258269E-1
1.649277031E0,-7.922670841E-1,-3.633776009E-1,3.555215299E-1
1.651774323E0,-7.986584306E-1,-3.537905216E-1,3.512606025E-1
1.654271614E0,-8.039846420E-1,-3.452686667E-1,3.512606025E-1
1.656768958E0,-8.093107939E-1,-3.367467821E-1,3.555215299E-1
1.659142031E0,-8.157021999E-1,-3.271597028E-1,3.501953483E-1
1.661639323E0,-8.210283518E-1,-3.218335211E-1,3.459344208E-1
1.664136614E0,-8.295502067E-1,-3.175725937E-1,3.459344208E-1
1.666633958E0,-8.380720615E-1,-3.122464418E-1,3.448691964E-1
1.669131250E0,-8.444634676E-1,-3.069202602E-1,3.448691964E-1
1.671628594E0,-8.487244248E-1,-3.047898114E-1,3.469996452E-1
1.674125885E0,-8.572462797E-1,-3.005288541E-1,3.469996452E-1
1.676623177E0,-8.625724316E-1,-3.005288541E-1,3.459344208E-1
1.679120521E0,-8.647028804E-1,-2.973331809E-1,3.448691964E-1
1.681617812E0,-8.721595407E-1,-2.930722237E-1,3.459344208E-1
1.684115104E0,-8.721595407E-1,-2.941374779E-1,3.438039720E-1
1.686612448E0,-8.742899895E-1,-2.952027023E-1,3.416734934E-1
1.688985521E0,-8.710942864E-1,-2.941374779E-1,3.395430148E-1
1.691482812E0,-8.689638376E-1,-2.941374779E-1,3.395430148E-1
1.693980104E0,-8.657681346E-1,-2.952027023E-1,3.416734934E-1
1.696477448E0,-8.540505767E-1,-2.941374779E-1,3.416734934E-1
1.698974739E0,-8.465939164E-1,-2.973331809E-1,3.352820873E-1
1.701472083E0,-8.338111639E-1,-3.005288541E-1,3.363473415E-1
1.703969375E0,-8.188979030E-1,-3.037245572E-1,3.384777904E-1
1.706466666E0,-7.997236848E-1,-3.090507388E-1,3.374125659E-1
1.708964010E0,-7.816147208E-1,-3.165073693E-1,3.374125659E-1
1.711461302E0,-7.613753080E-1,-3.271597028E-1,3.342168629E-1
1.713958594E0,-7.368749380E-1,-3.367467821E-1,3.331516385E-1
1.716455937E0,-7.177007794E-1,-3.537905216E-1,3.299559355E-1
1.718829010E0,-6.942656040E-1,-3.687037826E-1,3.214340508E-1
1.721326302E0,-6.740261912E-1,-3.868127465E-1,3.203688264E-1
1.723823594E0,-6.505910754E-1,-4.059869349E-1,3.171731234E-1
1.726320937E0,-6.262238622E-1,-4.262263775E-1,3.139774203E-1
1.728818229E0,-6.059844494E-1,-4.485962689E-1,3.107817471E-1
1.731315573E0,-5.814840794E-1,-4.677704573E-1,3.033251166E-1
1.733812864E0,-5.591141582E-1,-4.933360517E-1,2.969337106E-1
1.736310156E0,-5.399399996E-1,-5.189016461E-1,2.894770801E-1
1.738807500E0,-5.154396296E-1,-5.391410589E-1,2.852161527E-1
1.741304791E0,-4.973306656E-1,-5.647066832E-1,2.830856740E-1
1.743802083E0,-4.760259986E-1,-5.881417990E-1,2.798899710E-1
1.746299427E0,-4.557865858E-1,-6.147726178E-1,2.766942680E-1
1.748672500E0,-4.376776218E-1,-6.382077336E-1,2.777595222E-1
1.751169791E0,-4.185034335E-1,-6.616428494E-1,2.777595222E-1
1.753667083E0,-4.003944695E-1,-6.818822622E-1,2.809551954E-1
1.756164427E0,-3.812202811E-1,-7.021217346E-1,2.894770801E-1
1.758661719E0,-3.599156141E-1,-7.212958932E-1,3.011946380E-1
1.761159062E0,-3.386109471E-1,-7.340787053E-1,3.107817471E-1
1.763656354E0,-3.173062801E-1,-7.468615174E-1,3.214340508E-1
1.766153646E0,-2.938711643E-1,-7.553833723E-1,3.374125659E-1
1.768650989E0,-2.746969759E-1,-7.627068162E-1,3.512606025E-1
1.771148281E0,-2.544575334E-1,-7.690982223E-1,3.608476818E-1
1.773645573E0,-2.395442724E-1,-7.744244337E-1,3.672390878E-1
1.776142916E0,-2.214353085E-1,-7.797505856E-1,3.725652397E-1
1.778515989E0,-2.075872868E-1,-7.818810344E-1,3.789566457E-1
1.781013281E0,-1.948044896E-1,-7.861419916E-1,3.853480518E-1
1.783510573E0,-1.873478591E-1,-7.893376946E-1,3.874785006E-1
1.786007916E0,-1.841521561E-1,-7.893376946E-1,3.800218701E-1
1.788505208E0,-1.862826198E-1,-7.893376946E-1,3.768261969E-1
1.791002552E0,-1.852173954E-1,-7.840114832E-1,3.789566457E-1
1.793499844E0,-1.905435622E-1,-7.786853313E-1,3.736304939E-1
1.795997135E0,-1.937392503E-1,-7.712287307E-1,3.683043122E-1
1.798494479E0,-2.011958808E-1,-7.669677734E-1,3.619129062E-1
1.800991771E0,-2.065220475E-1,-7.564486265E-1,3.501953483E-1
1.803489062E0,-2.118482143E-1,-7.426005602E-1,3.384777904E-1
1.805986406E0,-2.203700840E-1,-7.223611474E-1,3.310211599E-1
1.808359479E0,-2.299571782E-1,-6.946650743E-1,3.214340508E-1
1.810856771E0,-2.363485843E-1,-6.616428494E-1,3.086512685E-1
1.813354062E0,-2.427399755E-1,-6.296858788E-1,2.990641594E-1
1.815851406E0,-2.533923090E-1,-5.977289081E-1,2.905423045E-1
1.818348698E0,-2.640446424E-1,-5.679023266E-1,2.766942680E-1
1.820846041E0,-2.715012729E-1,-5.380758047E-1,2.649767101E-1
1.823343333E0,-2.853493094E-1,-5.189016461E-1,2.532591522E-1
1.825840625E0,-3.023930192E-1,-5.071840882E-1,2.404763550E-1
1.828337969E0,-3.162410557E-1,-5.018579364E-1,2.244978547E-1
1.830835260E0,-3.386109471E-1,-4.965317547E-1,2.095845938E-1
1.833332552E0,-3.567199111E-1,-5.061188340E-1,1.957365721E-1
1.835829896E0,-3.769593239E-1,-5.220973492E-1,1.808233112E-1
1.838202969E0,-3.918725848E-1,-5.316844583E-1,1.680405140E-1
1.840700260E0,-4.035901725E-1,-5.380758047E-1,1.584534049E-1
1.843197552E0,-4.078511000E-1,-5.370106101E-1,1.520620137E-1
1.845694896E0,-4.121120274E-1,-5.402063131E-1,1.446053833E-1
1.848192187E0,-4.174381793E-1,-5.391410589E-1,1.414096802E-1
1.850689531E0,-4.099815488E-1,-5.327496529E-1,1.414096802E-1
1.853186823E0,-4.035901725E-1,-5.199668407E-1,1.456706226E-1
1.855684114E0,-3.897421360E-1,-4.986622036E-1,1.467358470E-1
1.858181458E0,-3.726983964E-1,-4.720313847E-1,1.488663107E-1
1.860678750E0,-3.588503897E-1,-4.464657903E-1,1.531272531E-1
1.863176041E0,-3.407414258E-1,-4.219654202E-1,1.584534049E-1
1.865673385E0,-3.183715343E-1,-3.836170435E-1,1.648448110E-1
1.868046458E0,-2.917406857E-1,-3.452686667E-1,1.712362021E-1
1.870543750E0,-2.704360485E-1,-3.069202602E-1,1.744319052E-1
1.873041041E0,-2.491313666E-1,-2.675066292E-1,1.808233112E-1
1.875538385E0,-2.246310115E-1,-2.238320857E-1,1.882799417E-1
1.878035677E0,-2.001306564E-1,-1.780270636E-1,1.957365721E-1
1.880533021E0,-1.745650619E-1,-1.291595101E-1,2.074541301E-1
1.883030312E0,-1.394123733E-1,-6.737598777E-2,2.138455361E-1
1.885527604E0,-1.095858440E-1,-5.592473317E-3,2.191716880E-1
1.888024948E0,-8.082455397E-2,4.660394415E-2,2.213021666E-1
1.890522239E0,-5.632419512E-2,9.240896255E-2,2.202369273E-1
1.893019531E0,-3.395430371E-2,1.360835135E-1,2.170412242E-1
1.895516875E0,-4.260932095E-3,1.818885356E-1,2.149107605E-1
1.897889948E0,2.130465955E-2,2.276935577E-1,2.095845938E-1
1.900387239E0,4.580501840E-2,2.692376375E-1,2.010627389E-1
1.902884531E0,6.924014539E-2,3.097164929E-1,1.893451661E-1
1.905381875E0,9.693620354E-2,3.512606025E-1,1.744319052E-1
1.907879166E0,1.246322617E-1,3.853480518E-1,1.531272531E-1
1.910376510E0,1.501978636E-1,4.130440950E-1,1.318225861E-1
1.912873802E0,1.832200736E-1,4.418053925E-1,1.126483902E-1
1.915371094E0,2.183727771E-1,4.704335332E-1,8.934641629E-2
1.917868437E0,2.588516176E-1,5.045210123E-1,6.378082931E-2
1.920365729E0,3.025261760E-1,5.386084318E-1,3.821523488E-2
1.922863021E0,3.472659588E-1,5.556522012E-1,1.158440951E-2
1.925360364E0,3.877448142E-1,5.524564981E-1,-1.930734888E-2
1.927733437E0,4.282236695E-1,5.322170258E-1,-5.232957378E-2
1.930230729E0,4.687025249E-1,4.938686490E-1,-8.215609938E-2
1.932728021E0,5.155727863E-1,4.576507509E-1,-1.098521575E-1
1.935225364E0,5.677692294E-1,4.226312041E-1,-1.375482082E-1
1.937722656E0,6.187672615E-1,3.810871243E-1,-1.567224115E-1
1.940220000E0,6.720288992E-1,3.395430148E-1,-1.758965999E-1
1.942717291E0,7.295514941E-1,2.830856740E-1,-1.929403245E-1
1.945214583E0,7.870740294E-1,2.191716880E-1,-2.046578974E-1
1.947711927E0,8.414009213E-1,1.531272531E-1,-2.185059190E-1
1.950209219E0,8.999887705E-1,8.282186836E-2,-2.334191799E-1
1.952706510E0,9.596418142E-1,1.145125460E-2,-2.493976802E-1
1.955203854E0,1.022490501E0,-5.991935730E-2,-2.632457018E-1
1.957576927E0,1.085339308E0,-1.248985752E-1,-2.781589627E-1
1.960074219E0,1.141796589E0,-1.886793971E-1,-2.962679267E-1
1.962571510E0,1.201316595E0,-2.472672164E-1,-3.175725937E-1
1.965068854E0,1.265230536E0,-3.058550358E-1,-3.410077095E-1
1.967566146E0,1.328079224E0,-3.559209704E-1,-3.591166735E-1
1.970063489E0,1.387732267E0,-4.059869349E-1,-3.814865649E-1
1.972560781E0,1.445254922E0,-4.560528994E-1,-4.081174135E-1
1.975058073E0,1.500647068E0,-4.997274280E-1,-4.379439354E-1
1.977555416E0,1.557104349E0,-5.274235010E-1,-4.688356817E-1
1.980052708E0,1.612496495E0,-5.540543199E-1,-4.986622036E-1
1.982550000E0,1.663627625E0,-5.753589869E-1,-5.336817503E-1
1.985047344E0,1.715824127E0,-5.870765448E-1,-5.720301270E-1
1.987420416E0,1.768020511E0,-5.892069936E-1,-6.146394610E-1
1.989917708E0,1.813692331E0,-5.892069936E-1,-6.572487950E-1
1.992415000E0,1.861627817E0,-5.902722478E-1,-6.998580694E-1
1.994912344E0,1.906367660E0,-5.849460959E-1,-7.414022088E-1
1.997409635E0,1.951107383E0,-5.796199441E-1,-7.861419916E-1
1.999906979E0,1.994781971E0,-5.742937326E-1,-8.287512660E-1
2.002404271E0,2.033130407E0,-5.647066832E-1,-8.734911084E-1
2.004901562E0,2.069348335E0,-5.529890656E-1,-9.203613400E-1
2.007398906E0,2.105566263E0,-5.434020162E-1,-9.619054198E-1
2.009896198E0,2.136457920E0,-5.327496529E-1,-1.006645203E0
2.012393489E0,2.165219307E0,-5.167711973E-1,-1.051385045E0
2.014890833E0,2.187589169E0,-4.944012761E-1,-1.089733362E0
2.017263906E0,2.208893776E0,-4.699009061E-1,-1.131144285E0
2.019761198E0,2.229133368E0,-4.390091598E-1,-1.167362213E0
2.022258489E0,2.241915941E0,-4.038564563E-1,-1.205710649E0
2.024755833E0,2.251503229E0,-3.623123765E-1,-1.240863323E0
2.027253125E0,2.267481565E0,-3.154421151E-1,-1.269624591E0
2.029750469E0,2.283460140E0,-2.643109560E-1,-1.299451113E0
2.032247760E0,2.302634239E0,-2.121145278E-1,-1.329277635E0
2.034745052E0,2.316482306E0,-1.673747450E-1,-1.351647496E0
2.037242396E0,2.326069355E0,-1.185071766E-1,-1.370821714E0
2.039739687E0,2.326069355E0,-7.802832127E-2,-1.392126441E0
2.042236979E0,2.321808577E0,-4.607132822E-2,-1.409170151E0
2.044734323E0,2.318612814E0,-1.624480449E-2,-1.420887709E0
2.047107760E0,2.301568985E0,1.784265228E-2,-1.429409623E0
2.049603021E0,2.281329632E0,4.234301299E-2,-1.430474758E0
2.052098229E0,2.253633499E0,6.471290439E-2,-1.429409623E0
2.054593489E0,2.224872351E0,9.027849883E-2,-1.423018217E0
2.057088750E0,2.188654423E0,1.147788614E-1,-1.412365794E0
2.059583958E0,2.147110224E0,1.350182891E-1,-1.397452593E0
2.062079219E0,2.105566263E0,1.616491079E-1,-1.386800289E0
2.064574427E0,2.070413589E0,1.904104054E-1,-1.370821714E0
2.067069687E0,2.033130407E0,2.170412242E-1,-1.350582361E0
2.069564948E0,1.997977734E0,2.404763550E-1,-1.330342889E0
2.072060156E0,1.969216347E0,2.660419345E-1,-1.309038281E0
2.074555416E0,1.939389825E0,2.937380075E-1,-1.286668301E0
2.076951250E0,1.907432914E0,3.256950080E-1,-1.264298439E0
2.079446510E0,1.877606392E0,3.651086092E-1,-1.247254729E0
2.081941719E0,1.850975513E0,4.034570158E-1,-1.234471917E0
2.084436979E0,1.827540398E0,4.364792407E-1,-1.215297699E0
2.086932239E0,1.809431434E0,4.651073813E-1,-1.201449752E0
2.089427448E0,1.795583367E0,4.959991276E-1,-1.190797329E0
2.091922708E0,1.781868577E0,5.268908739E-1,-1.179079771E0
2.094417916E0,1.772281408E0,5.449998379E-1,-1.165231824E0
2.096913177E0,1.766955256E0,5.492607951E-1,-1.150318503E0
2.099408437E0,1.765890002E0,5.375432372E-1,-1.138600945E0
2.101903646E0,1.762694359E0,5.130428672E-1,-1.127948642E0
2.104398906E0,1.763759613E0,4.725640118E-1,-1.107842326E0
2.106794739E0,1.771216154E0,4.205007255E-1,-1.085472465E0
2.109290000E0,1.778672814E0,3.629781604E-1,-1.066298246E0
2.111785208E0,1.777607560E0,3.107817471E-1,-1.044993639E0
2.114280469E0,1.779738069E0,2.692376375E-1,-1.022623658E0
2.116775729E0,1.778672814E0,2.458025217E-1,-1.005579948E0
2.119270937E0,1.775477171E0,2.468677461E-1,-9.874709845E-1
2.121766198E0,1.770151019E0,2.734985650E-1,-9.757534266E-1
2.124261406E0,1.777607560E0,3.267602324E-1,-9.640358686E-1
2.126756666E0,1.788259983E0,4.023917615E-1,-9.459269047E-1
2.129251927E0,1.795583367E0,4.906729758E-1,-9.256874919E-1
2.131747135E0,1.804105282E0,5.865439177E-1,-9.022523761E-1
2.134242396E0,1.811561942E0,6.824148893E-1,-8.777520061E-1
2.136638229E0,1.821148992E0,7.718944550E-1,-8.543168902E-1
2.139133489E0,1.833931804E0,8.432651162E-1,-8.308817744E-1
2.141628698E0,1.847779870E0,8.986572027E-1,-8.106423020E-1
2.144123958E0,1.859497428E0,9.338098764E-1,-7.914681435E-1
2.146619219E0,1.868019223E0,9.476579428E-1,-7.786853313E-1
2.149114427E0,1.868019223E0,9.497883916E-1,-7.659025192E-1
2.151609687E0,1.862693071E0,9.647016525E-1,-7.584459186E-1
2.154104896E0,1.857366920E0,9.806801677E-1,-7.520545125E-1
2.156600156E0,1.850975513E0,1.005180478E0,-7.456631064E-1
2.159095416E0,1.842453718E0,1.045659423E0,-7.435326576E-1
2.161590625E0,1.830736160E0,1.081744194E0,-7.414022088E-1
2.164085885E0,1.816888094E0,1.119027257E0,-7.435326576E-1
2.166481719E0,1.806235790E0,1.154179931E0,-7.414022088E-1
2.168976979E0,1.798779130E0,1.196789265E0,-7.392717004E-1
2.171472187E0,1.791455626E0,1.243659496E0,-7.392717004E-1
2.173967448E0,1.785064220E0,1.307573557E0,-7.350108027E-1
2.176462708E0,1.780803323E0,1.376813650E0,-7.328802943E-1
2.178957916E0,1.776542425E0,1.441792846E0,-7.275541425E-1
2.181453177E0,1.772281408E0,1.492924094E0,-7.222279906E-1
2.183948385E0,1.761629105E0,1.521685362E0,-7.275541425E-1
2.186443646E0,1.747781038E0,1.532337666E0,-7.318150997E-1
2.188938906E0,1.733933091E0,1.524881124E0,-7.360759974E-1
2.191434114E0,1.714758873E0,1.505706906E0,-7.467283607E-1
2.193929375E0,1.692389011E0,1.483337045E0,-7.584459186E-1
2.196325260E0,1.668953896E0,1.465228081E0,-7.701634765E-1
2.198820521E0,1.648714423E0,1.451380014E0,-7.808157802E-1
2.201315729E0,1.625279307E0,1.447119117E0,-7.882724404E-1
2.203810989E0,1.598648429E0,1.451380014E0,-7.967942953E-1
2.206306250E0,1.576278567E0,1.466293216E0,-8.010552526E-1
2.208801458E0,1.560300112E0,1.488663197E0,-8.063814044E-1
2.211296719E0,1.542191148E0,1.518489718E0,-8.074466586E-1
2.213791927E0,1.524082184E0,1.554707646E0,-8.031857014E-1
2.216287187E0,1.508103609E0,1.582403660E0,-7.967942953E-1
2.218782448E0,1.492125154E0,1.609034538E0,-7.882724404E-1
2.221277656E0,1.479342341E0,1.625012994E0,-7.776201367E-1
2.223772916E0,1.468690038E0,1.623947740E0,-7.648373246E-1
2.226168750E0,1.454841971E0,1.626078248E0,-7.531197667E-1
2.228664010E0,1.440994024E0,1.651643753E0,-7.382065058E-1
2.231159219E0,1.418624043E0,1.701576591E0,-7.286193967E-1
2.233654479E0,1.402645588E0,1.775077701E0,-7.115756869E-1
2.236149739E0,1.385601878E0,1.857100606E0,-6.913362145E-1
2.238644948E0,1.369623303E0,1.949775934E0,-6.732272506E-1
2.241140208E0,1.353644848E0,2.060560226E0,-6.508573890E-1
2.243635416E0,1.339796782E0,2.178801060E0,-6.306179762E-1
2.246130677E0,1.325948834E0,2.283060789E0,-6.125090122E-1
2.248625937E0,1.306774616E0,2.375735998E0,-5.944000483E-1
2.251121146E0,1.293991804E0,2.444976091E0,-5.741605759E-1
2.253616406E0,1.278013349E0,2.481194019E0,-5.528559685E-1
2.256012239E0,1.259904385E0,2.490781069E0,-5.326164961E-1
2.258507500E0,1.249252081E0,2.488650560E0,-5.134423375E-1
2.261002708E0,1.233273506E0,2.474802732E0,-5.038552284E-1
2.263497969E0,1.213034153E0,2.459889412E0,-4.954665005E-1
2.265993229E0,1.200251341E0,2.444976091E0,-4.912055731E-1
2.268488437E0,1.184405923E0,2.427932262E0,-4.837489426E-1
2.270983698E0,1.171623230E0,2.409823418E0,-4.805532396E-1
2.273478906E0,1.159905553E0,2.392779589E0,-4.784227908E-1
2.275974166E0,1.147122860E0,2.374670744E0,-4.773575366E-1
2.278469427E0,1.132209539E0,2.351235628E0,-4.784227908E-1
2.280964635E0,1.119426727E0,2.330996275E0,-4.741618633E-1
2.283459896E0,1.107709169E0,2.304365396E0,-4.699009061E-1
2.285855729E0,1.092795968E0,2.272541523E0,-4.645747542E-1
2.288350989E0,1.074687004E0,2.232062578E0,-4.549876451E-1
2.290846198E0,1.052317023E0,2.178801060E0,-4.475310147E-1
2.293341458E0,1.033142924E0,2.118082762E0,-4.347482324E-1
2.295836719E0,1.016099095E0,2.048842669E0,-4.209001958E-1
2.298331927E0,9.937292337E-1,1.976406693E0,-4.038564563E-1
2.300827187E0,9.745550752E-1,1.906101346E0,-3.836170435E-1
2.303322396E0,9.511199594E-1,1.835795999E0,-3.665733039E-1
2.305817656E0,9.234238863E-1,1.768686295E0,-3.442034125E-1
2.308312916E0,8.957278132E-1,1.699446082E0,-3.260944486E-1
2.310808125E0,8.701622486E-1,1.632469654E0,-3.037245572E-1
2.313303385E0,8.371400237E-1,1.564294696E0,-2.877460718E-1
2.315699219E0,8.062482476E-1,1.497184992E0,-2.696371078E-1
2.318194479E0,7.742912769E-1,1.422618747E0,-2.536586225E-1
2.320689687E0,7.433995008E-1,1.339530468E0,-2.376801223E-1
2.323184948E0,7.103772759E-1,1.248985767E0,-2.163754553E-1
2.325680208E0,6.730940938E-1,1.170158505E0,-2.014621943E-1
2.328175416E0,6.368761659E-1,1.096657395E0,-1.844184697E-1
2.330670677E0,5.963973403E-1,1.033941746E0,-1.748313755E-1
2.333165885E0,5.603125691E-1,9.689626098E-1,-1.599181145E-1
2.335661146E0,5.230293870E-1,9.082443118E-1,-1.503310055E-1
2.338156406E0,4.846810400E-1,8.475260139E-1,-1.386134475E-1
2.340651614E0,4.505935609E-1,7.846772671E-1,-1.247654185E-1
2.343146875E0,4.165061116E-1,7.239589691E-1,-1.098521575E-1
2.345542760E0,3.845491111E-1,6.685668826E-1,-9.813459218E-2
2.348038021E0,3.515268862E-1,6.121095419E-1,-8.748225868E-2
2.350533229E0,3.217003644E-1,5.588479042E-1,-7.469946891E-2
2.353028489E0,2.908086181E-1,5.141080618E-1,-6.191666797E-2
2.355523750E0,2.609820962E-1,4.683030546E-1,-5.232957378E-2
2.358018958E0,2.332860380E-1,4.268921316E-1,-4.167724028E-2
2.360514219E0,2.045247406E-1,3.906742036E-1,-3.635107726E-2
2.363009427E0,1.768286824E-1,3.608476818E-1,-2.995967865E-2
2.365504687E0,1.480673850E-1,3.299559355E-1,-2.143781446E-2
2.367999948E0,1.225017980E-1,3.075860441E-1,-1.291595027E-2
2.370495156E0,9.693620354E-2,2.852161527E-1,-6.524552125E-3
2.372990416E0,7.350108027E-2,2.660419345E-1,9.320789250E-4
2.375386250E0,4.580501840E-2,2.553896308E-1,8.388710208E-3
2.377881510E0,2.343512699E-2,2.489982247E-1,1.478010789E-2
2.380376719E0,5.326164886E-3,2.362154275E-1,2.223674022E-2
2.382871979E0,-1.597849466E-2,2.319544852E-1,3.075860441E-2
2.385367239E0,-2.769605815E-2,2.340849638E-1,3.821523488E-2
2.387862448E0,-4.354140162E-2,2.404763550E-1,4.354140162E-2
2.390357708E0,-6.165036187E-2,2.447372824E-1,4.673709720E-2
2.392852916E0,-7.336792350E-2,2.511286736E-1,5.312849581E-2
2.395348177E0,-8.402025700E-2,2.671071887E-1,5.312849581E-2
2.397843437E0,-9.573781490E-2,2.798899710E-1,5.525896326E-2
2.400338646E0,-1.042596847E-1,2.990641594E-1,5.632419512E-2
2.402833906E0,-1.095858440E-1,3.224993050E-1,5.525896326E-2
2.405229739E0,-1.159772426E-1,3.459344208E-1,5.312849581E-2
2.407725000E0,-1.181077138E-1,3.640433848E-1,4.780233279E-2
2.410220208E0,-1.234338731E-1,3.821523488E-1,4.460663348E-2
2.412715469E0,-1.276948154E-1,4.023917615E-1,3.928046674E-2
2.415210729E0,-1.266295761E-1,4.226312041E-1,3.395430371E-2
2.417705937E0,-1.276948154E-1,4.375444651E-1,2.969337068E-2
2.420201198E0,-1.298252791E-1,4.556534290E-1,2.330197208E-2
2.422696406E0,-1.308905035E-1,4.693683088E-1,2.117150649E-2
2.425191666E0,-1.340862066E-1,4.832163453E-1,1.904104091E-2
2.427686927E0,-1.308905035E-1,4.959991276E-1,1.478010789E-2
2.430182135E0,-1.330209672E-1,5.034557581E-1,1.051917579E-2
2.432677396E0,-1.330209672E-1,5.141080618E-1,1.264964230E-2
2.435073229E0,-1.404775977E-1,5.226299763E-1,1.584534161E-2
2.437568489E0,-1.479342431E-1,5.268908739E-1,1.904104091E-2
2.440063698E0,-1.479342431E-1,5.332822800E-1,2.223674022E-2
2.442558958E0,-1.489994675E-1,5.407389402E-1,2.756290510E-2
2.445054219E0,-1.543256342E-1,5.460650921E-1,3.288906813E-2
2.447549427E0,-1.607170254E-1,5.535216928E-1,3.715000302E-2
2.450044687E0,-1.617822647E-1,5.631088018E-1,3.928046674E-2
2.452539896E0,-1.649779677E-1,5.726959109E-1,4.354140162E-2
2.455035156E0,-1.692388952E-1,5.833482146E-1,4.886756465E-2
2.457530416E0,-1.660431921E-1,5.940005779E-1,4.993279651E-2
2.460025625E0,-1.596518010E-1,6.025224328E-1,4.993279651E-2
2.462520885E0,-1.564560980E-1,6.099790335E-1,4.886756465E-2
2.464916719E0,-1.532603949E-1,6.216966510E-1,4.780233279E-2
2.467411979E0,-1.436733007E-1,6.302185059E-1,4.567186534E-2
2.469907187E0,-1.308905035E-1,6.408708096E-1,3.608476743E-2
2.472402448E0,-1.159772426E-1,6.525883675E-1,2.756290510E-2
2.474897708E0,-9.893351793E-2,6.611102223E-1,1.691057347E-2
2.477392916E0,-8.082455397E-2,6.621754766E-1,1.997311832E-3
2.479888177E0,-5.845466256E-2,6.632407308E-1,-1.078548469E-2
2.482383385E0,-3.395430371E-2,6.611102223E-1,-2.889444493E-2
2.484878646E0,-7.456631400E-3,6.536536217E-1,-4.167724028E-2
2.487373906E0,2.556559257E-2,6.419360638E-1,-5.552527308E-2
2.489869114E0,5.645735189E-2,6.312837005E-1,-7.043853402E-2
2.492364375E0,8.947957307E-2,6.248922944E-1,-8.002562821E-2
2.494760208E0,1.246322617E-1,6.248922944E-1,-8.428656310E-2
2.497255469E0,1.544587910E-1,6.238270998E-1,-8.641702682E-2
2.499750677E0,1.832200736E-1,6.270228028E-1,-8.535179496E-2
2.502245937E0,2.141118348E-1,6.323489547E-1,-8.002562821E-2
2.504741198E0,2.407426685E-1,6.355446577E-1,-6.937330216E-2
2.507236406E0,2.684387267E-1,6.451317668E-1,-5.978620425E-2
2.509731666E0,2.950695455E-1,6.547188759E-1,-4.913387448E-2
2.512226875E0,3.195699155E-1,6.749582887E-1,-3.848154470E-2
2.514722135E0,3.419398069E-1,7.037195563E-1,-2.782921307E-2
2.517217396E0,3.643096983E-1,7.378070354E-1,-2.037258074E-2
2.519712604E0,3.866795897E-1,7.782858610E-1,-1.185071748E-2
2.522207864E0,4.079842567E-1,8.187647462E-1,-9.720250964E-3
2.524603698E0,4.282236695E-1,8.603088260E-1,-8.655018173E-3
2.527098958E0,4.452674091E-1,8.965267539E-1,-1.291595027E-2
2.529594166E0,4.601806700E-1,9.295489788E-1,-1.717688330E-2
2.532089427E0,4.750939310E-1,9.561797976E-1,-2.569874749E-2
2.534584687E0,4.857462645E-1,9.828106165E-1,-3.635107726E-2
2.537079896E0,4.921376705E-1,9.998543262E-1,-4.593817517E-2
2.539575156E0,4.985290468E-1,1.009441495E0,-5.446003750E-2
2.542070364E0,5.027899742E-1,1.017963290E0,-5.765573680E-2
2.544565625E0,5.017247796E-1,1.022224188E0,-6.191666797E-2
2.547060885E0,4.985290468E-1,1.025419950E0,-6.830807030E-2
2.549556094E0,4.889419675E-1,1.030746102E0,-7.363422960E-2
2.552051354E0,4.782896340E-1,1.033941746E0,-7.256899774E-2
2.554447552E0,4.644415975E-1,1.031811357E0,-7.256899774E-2
2.556941094E0,4.473978579E-1,1.026485205E0,-7.150376588E-2
2.559434687E0,4.250279665E-1,1.014767647E0,-6.617759913E-2
2.561928281E0,4.015928507E-1,1.001984835E0,-6.085143611E-2
2.564421875E0,3.738967776E-1,9.923977256E-1,-5.446003750E-2
2.566915469E0,3.451355100E-1,9.774844646E-1,-4.487293959E-2
2.569409010E0,3.121132851E-1,9.700278044E-1,-3.315537795E-2
2.571902604E0,2.812215090E-1,9.668321013E-1,-2.250304818E-2
2.574396198E0,2.450035959E-1,9.647016525E-1,-5.459319334E-3
2.576889791E0,2.130466104E-1,9.615059495E-1,1.371487509E-2
2.579383385E0,1.842853129E-1,9.455274343E-1,4.034570232E-2
2.581876979E0,1.597849578E-1,9.220923185E-1,6.484606117E-2
2.584291041E0,1.352845877E-1,8.922657967E-1,9.467258304E-2
2.586784583E0,1.182408631E-1,8.549826741E-1,1.222354919E-1
2.589278177E0,9.906667471E-2,8.155690432E-1,1.478010863E-1
2.591771771E0,7.882724702E-2,7.697640061E-1,1.786928326E-1
2.594265364E0,5.645735189E-2,7.303503752E-1,2.010627389E-1
2.596758958E0,3.515268862E-2,6.973281503E-1,2.149107605E-1
2.599252500E0,8.521864191E-3,6.706973314E-1,2.234326303E-1
2.601746094E0,-2.130465955E-2,6.579145193E-1,2.276935577E-1
2.604239687E0,-6.271559745E-2,6.589797735E-1,2.234326303E-1
2.606733281E0,-1.031944528E-1,6.653711796E-1,2.106498331E-1
2.609226875E0,-1.543256342E-1,6.877411008E-1,1.957365721E-1
2.611720469E0,-2.139786780E-1,7.207632661E-1,1.754971445E-1
2.614134531E0,-2.800231278E-1,7.633726001E-1,1.509967744E-1
2.616628073E0,-3.450023532E-1,8.113080859E-1,1.211702600E-1
2.619121666E0,-4.131772518E-1,8.560478687E-1,9.147688746E-2
2.621615260E0,-4.856131077E-1,8.922657967E-1,6.165036187E-2
2.624108854E0,-5.580489635E-1,9.188966155E-1,2.969337068E-2
2.626602448E0,-6.251586080E-1,9.306141734E-1,4.127778113E-3
2.629095989E0,-6.995918155E-1,9.210271239E-1,-2.250304818E-2
2.631589583E0,-7.709624171E-1,8.986572027E-1,-3.954677656E-2
2.634083177E0,-8.327459097E-1,8.603088260E-1,-4.700340703E-2
2.636576771E0,-8.945294023E-1,8.070471883E-1,-4.913387448E-2
2.639070364E0,-9.499215484E-1,7.441984415E-1,-4.167724028E-2
2.641563958E0,-9.935960770E-1,6.760234833E-1,-2.356828004E-2
2.643978073E0,-1.030879259E0,5.897396207E-1,-1.331541280E-4
2.646471614E0,-1.051118731E0,4.810858667E-1,2.756290510E-2
2.648965208E0,-1.063901424E0,3.587172329E-1,6.378082931E-2
2.651458802E0,-1.062836289E0,2.330197245E-1,1.021292135E-1
2.653952396E0,-1.053249121E0,9.240896255E-2,1.371487528E-1
2.656445989E0,-1.031944513E0,-5.352795869E-2,1.723014414E-1
2.658939531E0,-1.010639787E0,-2.046578974E-1,1.925408691E-1
2.661433125E0,-9.935960770E-1,-3.559209704E-1,2.074541301E-1
2.663926719E0,-9.722914696E-1,-4.912055731E-1,2.085193694E-1
2.666420312E0,-9.605738521E-1,-6.232944727E-1,1.968017966E-1
2.668913906E0,-9.392692447E-1,-7.415353656E-1,1.776276082E-1
2.671407500E0,-8.998556137E-1,-8.319469690E-1,1.584534049E-1
2.673821562E0,-8.433982730E-1,-8.990566730E-1,1.382139921E-1
2.676315104E0,-7.752233148E-1,-9.512531161E-1,1.222354919E-1
2.678808698E0,-7.017222643E-1,-9.927971959E-1,1.010639817E-1
2.681302291E0,-6.262238622E-1,-1.014101863E0,7.975932211E-2
2.683795885E0,-5.537880063E-1,-1.020493269E0,4.567186534E-2
2.686289479E0,-4.813521802E-1,-9.981233478E-1,7.323476952E-3
2.688783021E0,-4.131772518E-1,-9.597749710E-1,-3.315537795E-2
2.691276614E0,-3.503285050E-1,-9.086437821E-1,-6.617759913E-2
2.693770208E0,-2.949363887E-1,-8.511211872E-1,-8.854749799E-2
2.696263802E0,-2.448704392E-1,-7.872071862E-1,-1.087869257E-1
2.698757396E0,-2.129134536E-1,-7.244915962E-1,-1.215697154E-1
2.701250989E0,-1.958697289E-1,-6.744256616E-1,-1.322220564E-1
2.703665052E0,-2.001306564E-1,-6.445991397E-1,-1.375482082E-1
2.706158594E0,-2.288919389E-1,-6.435338855E-1,-1.418091506E-1
2.708652187E0,-2.832188308E-1,-6.765561104E-1,-1.418091506E-1
2.711145781E0,-3.599156141E-1,-7.426005602E-1,-1.343525201E-1
2.713639375E0,-4.579170346E-1,-8.298165202E-1,-1.311568171E-1
2.716132969E0,-5.782883763E-1,-9.437964559E-1,-1.130478531E-1
2.718626510E0,-7.038527131E-1,-1.091863871E0,-8.961272985E-2
2.721120104E0,-8.380720615E-1,-1.252714038E0,-6.298190355E-2
2.723613646E0,-9.797480702E-1,-1.416626811E0,-3.209014609E-2
2.726107291E0,-1.117163181E0,-1.581737876E0,-1.331541280E-4
2.728600885E0,-1.250184059E0,-1.743653297E0,3.182383627E-2
2.731094479E0,-1.376946807E0,-1.901307821E0,6.378082931E-2
2.733508594E0,-1.485600591E0,-2.056698561E0,9.893351793E-2
2.736002135E0,-1.577210665E0,-2.198374748E0,1.339530498E-1
2.738495729E0,-1.648581266E0,-2.315550327E0,1.744319052E-1
2.740989323E0,-1.697582006E0,-2.410356045E0,2.085193694E-1
2.743482916E0,-1.723147511E0,-2.477465630E0,2.468677461E-1
2.745976510E0,-1.739126086E0,-2.513683558E0,2.809551954E-1
2.748470052E0,-1.742321730E0,-2.532857895E0,3.118469715E-1
2.750963646E0,-1.731669426E0,-2.537118673E0,3.416734934E-1
2.753457239E0,-1.721017122E0,-2.533923149E0,3.715000153E-1
2.755950833E0,-1.700777650E0,-2.512618303E0,3.949351311E-1
2.758444427E0,-1.670951128E0,-2.472139597E0,4.183702767E-1
2.760938021E0,-1.640059352E0,-2.421008348E0,4.386096895E-1
2.763352083E0,-1.604906678E0,-2.359224796E0,4.535229504E-1
2.765845625E0,-1.565493107E0,-2.302767515E0,4.695014656E-1
2.768339219E0,-1.523949027E0,-2.252701521E0,4.865451753E-1
2.770832812E0,-1.479209185E0,-2.204766035E0,5.014584661E-1
2.773326406E0,-1.444056511E0,-2.160026312E0,5.110455155E-1
2.775820000E0,-1.400381923E0,-2.116351604E0,5.163717270E-1
2.778313541E0,-1.362033606E0,-2.080133677E0,5.174369216E-1
2.780807135E0,-1.334337473E0,-2.062024832E0,5.153064728E-1
2.783300729E0,-1.303445816E0,-2.041785479E0,5.110455155E-1
2.785794323E0,-1.275749683E0,-2.010893583E0,4.961322844E-1
2.788287916E0,-1.248053670E0,-1.970547915E0,4.769580960E-1
2.790781510E0,-1.220490694E0,-1.929003835E0,4.524577260E-1
2.793195625E0,-1.195990324E0,-1.894916415E0,4.194355011E-1
2.795689166E0,-1.172555208E0,-1.870416045E0,3.789566457E-1
2.798182760E0,-1.150185347E0,-1.851241827E0,3.299559355E-1
2.800676354E0,-1.129945874E0,-1.836328626E0,2.841508985E-1
2.803169948E0,-1.108641267E0,-1.827806711E0,2.319544852E-1
2.805663541E0,-1.090532303E0,-1.816089153E0,1.712362021E-1
2.808157083E0,-1.078814745E0,-1.799045444E0,1.147788614E-1
2.810650677E0,-1.070292830E0,-1.771349311E0,5.951989442E-2
2.813144271E0,-1.067097187E0,-1.728740096E0,9.320789250E-4
2.815637864E0,-1.067097187E0,-1.676543593E0,-5.659050494E-2
2.818131458E0,-1.068162441E0,-1.624347210E0,-1.066564545E-1
2.820625052E0,-1.072423339E0,-1.568955064E0,-1.482005417E-1
2.823039166E0,-1.079879999E0,-1.516758680E0,-1.780270636E-1
2.825532708E0,-1.085206151E0,-1.469888449E0,-1.940055639E-1
2.828026302E0,-1.093728065E0,-1.416626811E0,-2.099840641E-1
2.830519896E0,-1.097988963E0,-1.362433076E0,-2.099840641E-1
2.833013489E0,-1.103315115E0,-1.307040930E0,-2.078536004E-1
2.835507083E0,-1.112902164E0,-1.247387886E0,-2.003969699E-1
2.838000625E0,-1.122489333E0,-1.182408690E0,-1.865489334E-1
2.840494219E0,-1.131011128E0,-1.121690392E0,-1.663095057E-1
2.842987812E0,-1.140598297E0,-1.067363501E0,-1.482005417E-1
2.845481406E0,-1.143793941E0,-1.015167117E0,-1.268958896E-1
2.847975000E0,-1.148054838E0,-9.725577235E-1,-1.013302878E-1
2.850468594E0,-1.152315855E0,-9.331441522E-1,-7.363422960E-2
2.852882656E0,-1.148054838E0,-9.043828249E-1,-4.593817517E-2
2.855376198E0,-1.146989703E0,-8.830781579E-1,-1.717688330E-2
2.857869791E0,-1.138467789E0,-8.681648970E-1,1.478010789E-2
2.860363385E0,-1.136337280E0,-8.607082963E-1,4.247616604E-2
2.862856979E0,-1.126750231E0,-8.607082963E-1,6.910699606E-2
2.865350573E0,-1.119293571E0,-8.681648970E-1,9.680305421E-2
2.867844114E0,-1.110771775E0,-8.788172603E-1,1.211702600E-1
2.870337708E0,-1.101184607E0,-8.969262242E-1,1.435401440E-1
2.872831302E0,-1.093728065E0,-9.299484491E-1,1.659100503E-1
2.875324896E0,-1.089467049E0,-9.597749710E-1,1.840189993E-1
2.877818489E0,-1.080945253E0,-9.991886020E-1,2.010627389E-1
2.880312083E0,-1.079879999E0,-1.041797876E0,2.234326303E-1
2.882726198E0,-1.079879999E0,-1.084407210E0,2.372806519E-1
2.885219739E0,-1.083075643E0,-1.119559884E0,2.458025217E-1
2.887713333E0,-1.087336659E0,-1.144060254E0,2.585853040E-1
2.890206927E0,-1.092662811E0,-1.158973575E0,2.734985650E-1
2.892700521E0,-1.103315115E0,-1.165364981E0,2.809551954E-1
2.895194114E0,-1.110771775E0,-1.163234472E0,2.937380075E-1
2.897687656E0,-1.116097927E0,-1.157908320E0,3.054555655E-1
2.900181250E0,-1.118228316E0,-1.153647423E0,3.182383776E-1
2.902674844E0,-1.121424079E0,-1.151516914E0,3.246297538E-1
2.905168437E0,-1.124619722E0,-1.148321152E0,3.363473415E-1
2.907662031E0,-1.123554587E0,-1.149386406E0,3.459344208E-1
2.910155625E0,-1.120358825E0,-1.146190763E0,3.480648994E-1
2.912569739E0,-1.119293571E0,-1.145125508E0,3.501953483E-1
2.915063281E0,-1.117163181E0,-1.135538459E0,3.523258269E-1
2.917556875E0,-1.112902164E0,-1.121690392E0,3.469996452E-1
2.920050469E0,-1.105445623E0,-1.105711937E0,3.427387178E-1
2.922544062E0,-1.100119352E0,-1.090798616E0,3.342168629E-1
2.925037656E0,-1.097988963E0,-1.070559144E0,3.235645294E-1
2.927531198E0,-1.097988963E0,-1.038602233E0,3.054555655E-1
2.930024791E0,-1.100119352E0,-1.001319051E0,2.873466015E-1
2.932518385E0,-1.101184607E0,-9.587097168E-1,2.703028917E-1
2.935011979E0,-1.106510758E0,-9.182308912E-1,2.500634491E-1
2.937505573E0,-1.110771775E0,-8.724258542E-1,2.340849638E-1
2.939999166E0,-1.118228316E0,-8.223599195E-1,2.159759998E-1
2.942413281E0,-1.128880739E0,-7.690982223E-1,1.957365721E-1
2.944906823E0,-1.138467789E0,-7.212958932E-1,1.786928326E-1
2.947400416E0,-1.145924449E0,-6.850779653E-1,1.669752747E-1
2.949894010E0,-1.158707261E0,-6.627081037E-1,1.584534049E-1
2.952387604E0,-1.170424819E0,-6.477948427E-1,1.531272531E-1
2.954881198E0,-1.183207631E0,-6.382077336E-1,1.456706226E-1
2.957374739E0,-1.197055578E0,-6.328815818E-1,1.414096802E-1
2.959868333E0,-1.214099288E0,-6.286206245E-1,1.339530498E-1
2.962361927E0,-1.225816846E0,-6.222292185E-1,1.286268830E-1
2.964855521E0,-1.238599658E0,-6.190335155E-1,1.286268830E-1
2.967349114E0,-1.247121572E0,-6.243597269E-1,1.243659556E-1
2.969842708E0,-1.254445076E0,-6.350120306E-1,1.254311949E-1
2.972256823E0,-1.258705974E0,-6.477948427E-1,1.264964193E-1
2.974750364E0,-1.265097380E0,-6.616428494E-1,1.307573467E-1
2.977243958E0,-1.271488786E0,-6.722952127E-1,1.350182891E-1
2.979737552E0,-1.274684429E0,-6.818822622E-1,1.392792165E-1
2.982231146E0,-1.275749683E0,-6.850779653E-1,1.446053833E-1
2.984724739E0,-1.276814938E0,-6.733604074E-1,1.531272531E-1
2.987218281E0,-1.272554040E0,-6.488600373E-1,1.595186442E-1
2.989711875E0,-1.264032125E0,-6.169030666E-1,1.669752747E-1
2.992205469E0,-1.258705974E0,-5.849460959E-1,1.712362021E-1
2.994699062E0,-1.257640719E0,-5.529890656E-1,1.691057384E-1
2.997192656E0,-1.256575465E0,-5.220973492E-1,1.637795717E-1
2.999686250E0,-1.253379822E0,-4.975969791E-1,1.637795717E-1
3.002100364E0,-1.246056318E0,-4.773575366E-1,1.584534049E-1
3.004593906E0,-1.237534523E0,-4.592485726E-1,1.605838835E-1
3.007087500E0,-1.233273506E0,-4.390091598E-1,1.637795717E-1
3.009581094E0,-1.227947354E0,-4.187697470E-1,1.680405140E-1
3.012074687E0,-1.218360305E0,-3.985303044E-1,1.701709777E-1
3.014568281E0,-1.210903645E0,-3.772256374E-1,1.754971445E-1
3.017061823E0,-1.203446984E0,-3.548557460E-1,1.872147024E-1
3.019555416E0,-1.194925189E0,-3.271597028E-1,1.957365721E-1
3.022049010E0,-1.191729426E0,-2.898765504E-1,2.010627389E-1
3.024542604E0,-1.185338020E0,-2.547238469E-1,2.106498331E-1
3.027036198E0,-1.178946614E0,-2.376801223E-1,2.244978547E-1
3.029529791E0,-1.171490073E0,-2.334191799E-1,2.351501882E-1
3.031943906E0,-1.170424819E0,-2.334191799E-1,2.458025217E-1
3.034437448E0,-1.162968159E0,-2.270277888E-1,2.543243766E-1
3.036931041E0,-1.159772396E0,-2.131797522E-1,2.639114857E-1
3.039424635E0,-1.160837650E0,-1.918751001E-1,2.703028917E-1
3.041918229E0,-1.158707261E0,-1.790923029E-1,2.660419345E-1
3.044411823E0,-1.158707261E0,-1.684399694E-1,2.681724131E-1
3.046905364E0,-1.154446244E0,-1.567224115E-1,2.713681161E-1
3.049398958E0,-1.152315855E0,-1.599181145E-1,2.745638192E-1
3.051892552E0,-1.152315855E0,-1.673747450E-1,2.734985650E-1
3.054386146E0,-1.146989703E0,-1.663095057E-1,2.734985650E-1
3.056879739E0,-1.140598297E0,-1.641790420E-1,2.766942680E-1
3.059373333E0,-1.129945874E0,-1.737661362E-1,2.756290436E-1
3.061787552E0,-1.121424079E0,-1.982664913E-1,2.724333405E-1
3.064279844E0,-1.117163181E0,-2.270277888E-1,2.703028917E-1
3.066772083E0,-1.102249861E0,-2.589847744E-1,2.681724131E-1
3.069264323E0,-1.086271405E0,-2.866808474E-1,2.649767101E-1
3.071756614E0,-1.071358085E0,-3.069202602E-1,2.607157826E-1
3.074248854E0,-1.057510138E0,-3.239639997E-1,2.575200796E-1
3.076741094E0,-1.039401174E0,-3.473991156E-1,2.543243766E-1
3.079233385E0,-1.022357345E0,-3.740299344E-1,2.489982247E-1
3.081725625E0,-1.003183246E0,-4.027912319E-1,2.415415943E-1
3.084217916E0,-9.893351793E-1,-4.304873049E-1,2.298240215E-1
3.086710156E0,-9.733566642E-1,-4.592485726E-1,2.202369273E-1
3.089202396E0,-9.584434032E-1,-4.901403487E-1,2.085193694E-1
3.091631094E0,-9.456605911E-1,-5.189016461E-1,1.978670359E-1
3.094123385E0,-9.360735416E-1,-5.380758047E-1,1.861494780E-1
3.096615625E0,-9.296821356E-1,-5.572500229E-1,1.797580719E-1
3.099107864E0,-9.243559837E-1,-5.636414289E-1,1.797580719E-1
3.101600156E0,-9.190297723E-1,-5.572500229E-1,1.797580719E-1
3.104092396E0,-9.137036204E-1,-5.402063131E-1,1.840189993E-1
3.106584635E0,-9.137036204E-1,-5.316844583E-1,1.882799417E-1
3.109076927E0,-9.105079174E-1,-5.274235010E-1,1.968017966E-1
3.111569166E0,-9.105079174E-1,-5.295539498E-1,2.031932026E-1
3.114061458E0,-9.062470198E-1,-5.370106101E-1,2.095845938E-1
3.116553698E0,-9.051817656E-1,-5.529890656E-1,2.149107605E-1
3.119045937E0,-9.009208083E-1,-5.721632838E-1,2.202369273E-1
3.121474635E0,-8.955946565E-1,-5.838808417E-1,2.276935577E-1
3.123966927E0,-8.902685046E-1,-5.881417990E-1,2.372806519E-1
3.126459166E0,-8.838770986E-1,-5.892069936E-1,2.458025217E-1
3.128951406E0,-8.764204979E-1,-5.892069936E-1,2.532591522E-1
3.131443698E0,-8.710942864E-1,-5.785546899E-1,2.607157826E-1
3.133935937E0,-8.636376858E-1,-5.647066832E-1,2.681724131E-1
3.136428177E0,-8.540505767E-1,-5.540543199E-1,2.724333405E-1
3.138920469E0,-8.433982730E-1,-5.391410589E-1,2.798899710E-1
3.141412708E0,-8.348763585E-1,-5.189016461E-1,2.884118557E-1
3.143905000E0,-8.284850121E-1,-4.975969791E-1,2.937380075E-1
3.146397239E0,-8.220936060E-1,-4.730966091E-1,3.043903410E-1
3.148889479E0,-8.167673945E-1,-4.485962689E-1,3.107817471E-1
3.151318177E0,-8.167673945E-1,-4.240958989E-1,3.214340508E-1
3.153810469E0,-8.178326488E-1,-4.091826379E-1,3.267602324E-1
3.156302708E0,-8.157021999E-1,-3.963998258E-1,3.299559355E-1
3.158794948E0,-8.210283518E-1,-3.836170435E-1,3.416734934E-1
3.161287239E0,-8.263545036E-1,-3.740299344E-1,3.512606025E-1
3.163779479E0,-8.263545036E-1,-3.665733039E-1,3.565867543E-1
3.166271719E0,-8.316806555E-1,-3.676385581E-1,3.640433848E-1
3.168764010E0,-8.370068669E-1,-3.697690070E-1,3.736304939E-1
3.171256250E0,-8.348763585E-1,-3.708342612E-1,3.832175732E-1
3.173748541E0,-8.359416127E-1,-3.782908916E-1,3.906742036E-1
3.176240781E0,-8.370068669E-1,-3.900084496E-1,3.917394578E-1
3.178733021E0,-8.380720615E-1,-3.985303044E-1,4.023917615E-1
3.181161719E0,-8.327459097E-1,-4.070521593E-1,4.055874646E-1
3.183654010E0,-8.252893090E-1,-4.145087898E-1,4.066527188E-1
3.186146250E0,-8.188979030E-1,-4.198349714E-1,4.077179432E-1
3.188638489E0,-8.135717511E-1,-4.240958989E-1,4.098483920E-1
3.191130781E0,-8.050498366E-1,-4.262263775E-1,4.109136462E-1
3.193623021E0,-7.954627872E-1,-4.272916019E-1,4.130440950E-1
3.196115260E0,-7.880061269E-1,-4.240958989E-1,4.119788706E-1
3.198607552E0,-7.837451696E-1,-4.240958989E-1,4.109136462E-1
3.201099791E0,-7.794842720E-1,-4.209001958E-1,4.109136462E-1
3.203592083E0,-7.794842720E-1,-4.187697470E-1,4.087831676E-1
3.206084323E0,-7.837451696E-1,-4.145087898E-1,4.055874646E-1
3.208576562E0,-7.858756781E-1,-4.070521593E-1,4.013265371E-1
3.211005260E0,-7.901365757E-1,-3.995955288E-1,3.960003853E-1
3.213497552E0,-7.954627872E-1,-3.942693770E-1,3.885437548E-1
3.215989791E0,-7.986584306E-1,-3.900084496E-1,3.842828274E-1
3.218482031E0,-8.018541336E-1,-3.825518191E-1,3.789566457E-1
3.220974323E0,-8.039846420E-1,-3.793561161E-1,3.672390878E-1
3.223466562E0,-8.050498366E-1,-3.750951886E-1,3.565867543E-1
3.225958802E0,-8.039846420E-1,-3.697690070E-1,3.459344208E-1
3.228451094E0,-8.007889390E-1,-3.718994856E-1,3.438039720E-1
3.230943333E0,-7.954627872E-1,-3.665733039E-1,3.278254569E-1
3.233435625E0,-7.901365757E-1,-3.623123765E-1,3.171731234E-1
3.235927864E0,-7.762885690E-1,-3.580514491E-1,3.054555655E-1
3.238420104E0,-7.656362653E-1,-3.527252972E-1,2.969337106E-1
3.240848802E0,-7.549839020E-1,-3.505948186E-1,2.894770801E-1
3.243341094E0,-7.422010899E-1,-3.516600430E-1,2.830856740E-1
3.245833333E0,-7.272878289E-1,-3.473991156E-1,2.745638192E-1
3.248325573E0,-7.091788650E-1,-3.473991156E-1,2.660419345E-1
3.250817864E0,-6.942656040E-1,-3.516600430E-1,2.660419345E-1
3.253310104E0,-6.761566401E-1,-3.548557460E-1,2.639114857E-1
3.255802344E0,-6.580476761E-1,-3.644428551E-1,2.617810071E-1
3.258294635E0,-6.410039663E-1,-3.772256374E-1,2.575200796E-1
3.260786875E0,-6.272891164E-1,-3.932041526E-1,2.553896308E-1
3.263279166E0,-6.134410501E-1,-4.134435654E-1,2.596505582E-1
3.265771406E0,-5.942668915E-1,-4.400743842E-1,2.607157826E-1
3.268263646E0,-5.825493336E-1,-4.709661603E-1,2.607157826E-1
3.270692344E0,-5.708317757E-1,-5.018579364E-1,2.596505582E-1
3.273184635E0,-5.601794124E-1,-5.402063131E-1,2.617810071E-1
3.275676875E0,-5.516575575E-1,-5.764242411E-1,2.617810071E-1
3.278169114E0,-5.431357026E-1,-6.105116606E-1,2.607157826E-1
3.280661406E0,-5.292876363E-1,-6.456643939E-1,2.628462613E-1
3.283153646E0,-5.175700784E-1,-6.765561104E-1,2.671071887E-1
3.285645885E0,-5.101134777E-1,-7.085131407E-1,2.671071887E-1
3.288138177E0,-5.026568174E-1,-7.319482565E-1,2.692376375E-1
3.290630416E0,-4.973306656E-1,-7.511224151E-1,2.766942680E-1
3.293122708E0,-4.877435565E-1,-7.733591795E-1,2.820204496E-1
3.295614948E0,-4.802869260E-1,-7.882724404E-1,2.948032320E-1
3.298107187E0,-4.749607742E-1,-7.978595495E-1,3.075860441E-1
3.300535937E0,-4.675041437E-1,-8.063814044E-1,3.246297538E-1
3.303028177E0,-4.547213614E-1,-8.095771074E-1,3.438039720E-1
3.305520416E0,-4.440690279E-1,-8.053161502E-1,3.651086092E-1
3.308012656E0,-4.323514402E-1,-8.063814044E-1,3.842828274E-1
3.310504948E0,-4.195686579E-1,-7.989247441E-1,4.034570158E-1
3.312997187E0,-4.078511000E-1,-7.914681435E-1,4.194355011E-1
3.315489427E0,-3.908073604E-1,-7.765548825E-1,4.343487620E-1
3.317981719E0,-3.801550269E-1,-7.648373246E-1,4.460663199E-1
3.320473958E0,-3.684374690E-1,-7.532529235E-1,4.567186534E-1
3.322966250E0,-3.609808385E-1,-7.415353656E-1,4.631100595E-1
3.325458489E0,-3.503285050E-1,-7.287525535E-1,4.695014656E-1
3.327950729E0,-3.418066502E-1,-7.223611474E-1,4.695014656E-1
3.330379479E0,-3.407414258E-1,-7.202306986E-1,4.673709869E-1
3.332871771E0,-3.375457227E-1,-7.170349956E-1,4.609795809E-1
3.335364010E0,-3.396761715E-1,-7.106435895E-1,4.535229504E-1
3.337856250E0,-3.407414258E-1,-7.031869292E-1,4.396749437E-1
3.340348541E0,-3.407414258E-1,-6.999912262E-1,4.258269072E-1
3.342840781E0,-3.396761715E-1,-6.957303286E-1,4.173050225E-1
3.345333021E0,-3.375457227E-1,-6.840127707E-1,4.066527188E-1
3.347825312E0,-3.343500197E-1,-6.829475164E-1,3.970656097E-1
3.350317552E0,-3.290238380E-1,-6.935998797E-1,3.810871243E-1
3.352809844E0,-3.300890923E-1,-7.149044871E-1,3.672390878E-1
3.355302083E0,-3.290238380E-1,-7.330134511E-1,3.523258269E-1
3.357794323E0,-3.236976862E-1,-7.447310090E-1,3.374125659E-1
3.360223021E0,-3.215672076E-1,-7.585790753E-1,3.246297538E-1
3.362715312E0,-3.141105771E-1,-7.648373246E-1,3.129121959E-1
3.365207552E0,-3.087844253E-1,-7.690982223E-1,2.990641594E-1
3.367699791E0,-3.066539466E-1,-7.712287307E-1,2.852161527E-1
3.370192083E0,-3.013277948E-1,-7.776201367E-1,2.692376375E-1
3.372684323E0,-2.991973162E-1,-7.722939253E-1,2.532591522E-1
3.375176562E0,-2.991973162E-1,-7.712287307E-1,2.415415943E-1
3.377668854E0,-3.013277948E-1,-7.690982223E-1,2.287587970E-1
3.380161094E0,-3.002625704E-1,-7.701634765E-1,2.138455361E-1
3.382653385E0,-3.045234978E-1,-7.776201367E-1,1.989322603E-1
3.385145625E0,-3.109148741E-1,-7.861419916E-1,1.872147024E-1
3.387637864E0,-3.119801283E-1,-7.935985923E-1,1.723014414E-1
3.390066562E0,-3.130453527E-1,-7.967942953E-1,1.648448110E-1
3.392558854E0,-3.109148741E-1,-7.967942953E-1,1.563229412E-1
3.395051094E0,-3.034582436E-1,-7.935985923E-1,1.467358470E-1
3.397543333E0,-2.949363887E-1,-7.818810344E-1,1.403444558E-1
3.400035625E0,-2.832188308E-1,-7.659025192E-1,1.360835135E-1
3.402527864E0,-2.683055699E-1,-7.447310090E-1,1.339530498E-1
3.405020104E0,-2.459356785E-1,-7.234264016E-1,1.339530498E-1
3.407512396E0,-2.214353085E-1,-6.967955232E-1,1.360835135E-1
3.410004635E0,-2.011958808E-1,-6.605776548E-1,1.360835135E-1
3.412496927E0,-1.766955256E-1,-6.179683208E-1,1.382139921E-1
3.414989166E0,-1.521951705E-1,-5.710980296E-1,1.392792165E-1
3.417481406E0,-1.266295761E-1,-5.178363919E-1,1.446053833E-1
3.419910104E0,-9.893351793E-2,-4.635095298E-1,1.509967744E-1
3.422402396E0,-7.123745978E-2,-4.134435654E-1,1.552577168E-1
3.424894635E0,-4.141093418E-2,-3.580514491E-1,1.637795717E-1
3.427386875E0,-3.195699072E-3,-2.930722237E-1,1.712362021E-1
3.429879166E0,3.302222490E-2,-2.302234918E-1,1.765623689E-1
3.432371406E0,6.497921795E-2,-1.780270636E-1,1.840189993E-1
3.434863646E0,9.906667471E-2,-1.366161406E-1,1.893451661E-1
3.437355937E0,1.363498271E-1,-9.400681406E-2,1.925408691E-1
3.439848177E0,1.746982187E-1,-5.459319428E-2,1.936061084E-1
3.442340469E0,2.151770741E-1,-1.837527007E-2,1.936061084E-1
3.444832708E0,2.567211688E-1,2.103835158E-2,1.893451661E-1
3.447324948E0,2.972000241E-1,6.151720881E-2,1.765623689E-1
3.449753646E0,3.334179223E-1,9.666989744E-2,1.648448110E-1
3.452245937E0,3.738967776E-1,1.403444558E-1,1.584534049E-1
3.454738177E0,4.228975177E-1,1.914756298E-1,1.446053833E-1
3.457230416E0,4.623111188E-1,2.213021666E-1,1.286268830E-1
3.459722708E0,5.006595254E-1,2.319544852E-1,1.094526947E-1
3.462214948E0,5.379426479E-1,2.362154275E-1,8.721595258E-2
3.464707187E0,5.773562789E-1,2.394111156E-1,6.165036187E-2
3.467199479E0,6.187672615E-1,2.436720580E-1,3.075860441E-2
3.469691719E0,6.624417901E-1,2.500634491E-1,9.320789250E-4
3.472184010E0,7.071815729E-1,2.553896308E-1,-3.102491237E-2
3.474676250E0,7.583127618E-1,2.628462613E-1,-6.511236727E-2
3.477168489E0,8.158353567E-1,2.788247466E-1,-1.013302878E-1
3.479597187E0,8.733579516E-1,2.894770801E-1,-1.407439113E-1
3.482089479E0,9.340761900E-1,2.979989350E-1,-1.780270636E-1
3.484581719E0,9.947944880E-1,3.043903410E-1,-2.153102309E-1
3.487073958E0,1.055512786E0,2.979989350E-1,-2.525933683E-1
3.489566250E0,1.124752879E0,2.830856740E-1,-2.845503688E-1
3.492058489E0,1.182275534E0,2.479329854E-1,-3.218335211E-1
3.494550729E0,1.237534523E0,2.053236663E-1,-3.644428551E-1
3.497043021E0,1.290796161E0,1.648448110E-1,-3.985303044E-1
3.499535260E0,1.345123053E0,1.233007237E-1,-4.304873049E-1
3.502027552E0,1.399449944E0,7.856093347E-2,-4.635095298E-1
3.504519791E0,1.453776717E0,3.488638252E-2,-4.901403487E-1
3.507012031E0,1.505973220E0,-9.853405878E-3,-5.187684894E-1
3.509440729E0,1.556039095E0,-5.778888986E-2,-5.475297570E-1
3.511933021E0,1.607170343E0,-1.003982127E-1,-5.762910843E-1
3.514425260E0,1.659366727E0,-1.419423074E-1,-5.997262001E-1
3.516917500E0,1.711563110E0,-1.758965999E-1,-6.274222732E-1
3.519409791E0,1.758433461E0,-2.089188248E-1,-6.551182866E-1
3.521902031E0,1.809431434E0,-2.376801223E-1,-6.785534620E-1
3.524394271E0,1.856301665E0,-2.621804774E-1,-7.009233236E-1
3.526886562E0,1.905302405E0,-2.781589627E-1,-7.254236937E-1
3.529378802E0,1.954303145E0,-2.941374779E-1,-7.488588095E-1
3.531871094E0,1.996912479E0,-3.026593328E-1,-7.733591795E-1
3.534363333E0,2.043782711E0,-3.090507388E-1,-8.010552526E-1
3.536855573E0,2.085326910E0,-3.133116663E-1,-8.287512660E-1
3.539284323E0,2.129001379E0,-3.122464418E-1,-8.607082963E-1
3.541776614E0,2.167349815E0,-3.079854846E-1,-8.905348182E-1
3.544268854E0,2.199306726E0,-3.026593328E-1,-9.246222377E-1
3.546761094E0,2.231263638E0,-2.898765504E-1,-9.576444626E-1
3.549253385E0,2.264286041E0,-2.792242169E-1,-9.917319417E-1
3.551745625E0,2.293047190E0,-2.568543255E-1,-1.023688912E0
3.554237864E0,2.320743322E0,-2.280930281E-1,-1.058841586E0
3.556730156E0,2.350569725E0,-1.950708032E-1,-1.090798616E0
3.559222396E0,2.381461620E0,-1.504641622E-1,-1.125818133E0
3.561714687E0,2.405828714E0,-1.057243794E-1,-1.156709909E0
3.564206927E0,2.428198576E0,-5.778888986E-2,-1.188666940E0
3.566699166E0,2.444177151E0,-1.091863867E-2,-1.221689105E0
3.569128073E0,2.452698946E0,3.595161438E-2,-1.252580881E0
3.571619271E0,2.448438168E0,8.069140464E-2,-1.280276895E0
3.574110469E0,2.438851118E0,1.211702600E-1,-1.313299179E0
3.576601666E0,2.423937798E0,1.446053833E-1,-1.338864803E0
3.579092864E0,2.396374941E0,1.680405140E-1,-1.363365173E0
3.581584062E0,2.361222267E0,1.904104054E-1,-1.383604527E0
3.584075260E0,2.322873831E0,2.063889056E-1,-1.404909253E0
3.586566458E0,2.280264378E0,2.213021666E-1,-1.424083352E0
3.589057656E0,2.229133368E0,2.458025217E-1,-1.437931418E0
3.591548854E0,2.178002119E0,2.703028917E-1,-1.451779485E0
3.594040052E0,2.123675108E0,2.937380075E-1,-1.457105637E0
3.596531250E0,2.070413589E0,3.203688264E-1,-1.459236145E0
3.598971614E0,2.019282341E0,3.512606025E-1,-1.462431788E0
3.601462812E0,1.970281601E0,3.832175732E-1,-1.459236145E0
3.603954010E0,1.925541878E0,4.183702767E-1,-1.457105637E0
3.606445208E0,1.888258696E0,4.535229504E-1,-1.448583722E0
3.608936406E0,1.857366920E0,4.800206423E-1,-1.438996673E0
3.611427604E0,1.830736160E0,5.013253093E-1,-1.427279115E0
3.613918802E0,1.810496688E0,5.173037648E-1,-1.413431048E0
3.616410000E0,1.794651389E0,5.268908739E-1,-1.400648236E0
3.618901198E0,1.778672814E0,5.354127288E-1,-1.385735035E0
3.621392396E0,1.769085765E0,5.332822800E-1,-1.367626071E0
3.623883594E0,1.756302953E0,5.268908739E-1,-1.353778005E0
3.626374791E0,1.745650649E0,5.236951709E-1,-1.337799549E0
3.628815156E0,1.738193989E0,5.258256793E-1,-1.319690585E0
3.631306354E0,1.727541685E0,5.236951709E-1,-1.300516367E0
3.633797552E0,1.716889381E0,5.215647221E-1,-1.286668301E0
3.636288750E0,1.704106569E0,5.204994678E-1,-1.269624591E0
3.638779948E0,1.694519401E0,5.151733160E-1,-1.254711390E0
3.641271146E0,1.681736588E0,5.013253093E-1,-1.241928577E0
3.643762344E0,1.670019031E0,4.896077216E-1,-1.232341409E0
3.646253541E0,1.658301473E0,4.768249393E-1,-1.221689105E0
3.648744739E0,1.648714423E0,4.608464241E-1,-1.211036801E0
3.651235937E0,1.642323017E0,4.450010955E-1,-1.196123481E0
3.653727135E0,1.639127374E0,4.332835376E-1,-1.181210279E0
3.656218333E0,1.639127374E0,4.247616827E-1,-1.165231824E0
3.658658698E0,1.643388271E0,4.183702767E-1,-1.147122860E0
3.661149896E0,1.652975321E0,4.141093493E-1,-1.127948642E0
3.663641094E0,1.665758133E0,4.162397981E-1,-1.109972835E0
3.666132291E0,1.674280047E0,4.556534290E-1,-1.093994260E0
3.668623489E0,1.676410437E0,5.364779830E-1,-1.083341956E0
3.671114687E0,1.685997605E0,6.408708096E-1,-1.072689652E0
3.673605885E0,1.699845552E0,7.378070354E-1,-1.062037349E0
3.676097083E0,1.709432721E0,8.230256438E-1,-1.050319791E0
3.678588281E0,1.724345922E0,8.848091960E-1,-1.029015064E0
3.681079479E0,1.748846292E0,8.975919485E-1,-1.005579948E0
3.683570677E0,1.774411917E0,8.794830441E-1,-9.842753410E-1
3.686061875E0,1.791455626E0,8.592435718E-1,-9.704272747E-1
3.688502291E0,1.803040028E0,8.485912681E-1,-9.651011229E-1
3.690993489E0,1.804105282E0,8.443303108E-1,-9.576444626E-1
3.693484687E0,1.803040028E0,8.453955650E-1,-9.533835649E-1
3.695975885E0,1.800909638E0,8.698959351E-1,-9.448617101E-1
3.698467083E0,1.800909638E0,9.263532758E-1,-9.342093468E-1
3.700958281E0,1.804105282E0,1.014767647E0,-9.224917889E-1
3.703449479E0,1.807300925E0,1.115831614E0,-9.097089767E-1
3.705940677E0,1.811561942E0,1.224485397E0,-8.958609700E-1
3.708431875E0,1.813692331E0,1.342726231E0,-8.830781579E-1
3.710923073E0,1.815822840E0,1.466293216E0,-8.724258542E-1
3.713414271E0,1.816888094E0,1.583468914E0,-8.596430421E-1
3.715905469E0,1.814757586E0,1.684532881E0,-8.521864414E-1
3.718345833E0,1.809431434E0,1.759099126E0,-8.436645269E-1
3.720837031E0,1.804105282E0,1.805969477E0,-8.404688835E-1
3.723328229E0,1.798779130E0,1.827274084E0,-8.425993323E-1
3.725819427E0,1.793586135E0,1.818752289E0,-8.436645269E-1
3.728310625E0,1.785064220E0,1.793186665E0,-8.489907384E-1
3.730801823E0,1.776542425E0,1.759099126E0,-8.479254842E-1
3.733293021E0,1.765890002E0,1.718620300E0,-8.468602300E-1
3.735784219E0,1.754172444E0,1.673880577E0,-8.447297812E-1
3.738275416E0,1.746715903E0,1.627143502E0,-8.404688835E-1
3.740766614E0,1.737128735E0,1.580273151E0,-8.330122232E-1
3.743257812E0,1.725411177E0,1.541924834E0,-8.287512660E-1
3.745749010E0,1.721150279E0,1.511033058E0,-8.212946653E-1
3.748189375E0,1.709432721E0,1.495054603E0,-8.138380051E-1
3.750680573E0,1.693454146E0,1.507837296E0,-8.106423020E-1
3.753171771E0,1.671084285E0,1.553642392E0,-8.074466586E-1
3.755662969E0,1.644453526E0,1.618621588E0,-8.063814044E-1
3.758154166E0,1.625279307E0,1.704772353E0,-8.010552526E-1
3.760645364E0,1.607170343E0,1.814491272E0,-7.925333977E-1
3.763136562E0,1.592257023E0,1.959362984E0,-7.808157802E-1
3.765627760E0,1.572017670E0,2.127669811E0,-7.690982223E-1
3.768118958E0,1.550712943E0,2.300104380E0,-7.509892583E-1
3.770610156E0,1.537930131E0,2.448171854E0,-7.350108027E-1
3.773101354E0,1.521951675E0,2.563216925E0,-7.179670334E-1
3.775592552E0,1.505973220E0,2.650566101E0,-6.987928748E-1
3.778032969E0,1.486799002E0,2.714480162E0,-6.881405115E-1
3.780524166E0,1.465494275E0,2.759219885E0,-6.796186566E-1
3.783015364E0,1.446320176E0,2.797568321E0,-6.679010987E-1
3.785506562E0,1.428211212E0,2.821003437E0,-6.604444981E-1
3.787997760E0,1.407971740E0,2.833786249E0,-6.540530920E-1
3.790488958E0,1.385601878E0,2.843373299E0,-6.444659829E-1
3.792980156E0,1.364297152E0,2.842308044E0,-6.348788738E-1
3.795471354E0,1.344057798E0,2.840177536E0,-6.252917647E-1
3.797962552E0,1.323818326E0,2.834851503E0,-6.199656129E-1
3.800453750E0,1.305709362E0,2.825264215E0,-6.135742068E-1
3.802944948E0,1.283339500E0,2.812481403E0,-6.050523520E-1
3.805436146E0,1.264165282E0,2.790111542E0,-5.975957513E-1
3.807876510E0,1.243925810E0,2.764545918E0,-5.858781338E-1
3.810367708E0,1.223686457E0,2.731523752E0,-5.773562789E-1
3.812858906E0,1.201316595E0,2.700632095E0,-5.677692294E-1
3.815350104E0,1.175884128E0,2.665479422E0,-5.539211631E-1
3.817841302E0,1.149253249E0,2.625000477E0,-5.368774533E-1
3.820332500E0,1.129013896E0,2.573869228E0,-5.208989382E-1
3.822823698E0,1.109839678E0,2.514216185E0,-4.975969791E-1
3.825314896E0,1.085339308E0,2.456693649E0,-4.709661603E-1
3.827806094E0,1.062969446E0,2.405562401E0,-4.454005659E-1
3.830297291E0,1.045925617E0,2.352300882E0,-4.198349714E-1
3.832788489E0,1.022490501E0,2.293713093E0,-3.910736740E-1
3.835279687E0,9.947944880E-1,2.234193087E0,-3.623123765E-1
3.837720052E0,9.692289233E-1,2.175605297E0,-3.335510790E-1
3.840211250E0,9.447285533E-1,2.114886999E0,-3.015941083E-1
3.842702448E0,9.170324802E-1,2.046712160E0,-2.675066292E-1
3.845193646E0,8.893364072E-1,1.961493492E0,-2.366148829E-1
3.847684844E0,8.637708426E-1,1.868818164E0,-2.025274336E-1
3.850176041E0,8.275529146E-1,1.783599496E0,-1.737661362E-1
3.852667239E0,7.870740294E-1,1.705837488E0,-1.439396143E-1
3.855158437E0,7.465952039E-1,1.637795806E0,-1.162435561E-1
3.857649635E0,7.050511241E-1,1.558968544E0,-8.961272985E-2
3.860140833E0,6.677679420E-1,1.479076028E0,-6.724283099E-2
3.862632083E0,6.294195652E-1,1.397053123E0,-4.167724028E-2
3.865123229E0,5.910711884E-1,1.317160606E0,-1.824211515E-2
3.867563594E0,5.592473149E-1,1.243659496E0,7.323476952E-3
3.870054791E0,5.262250900E-1,1.166962743E0,2.756290510E-2
3.872545989E0,4.953333437E-1,1.092396498E0,4.460663348E-2
3.875037187E0,4.644415975E-1,1.022224188E0,6.058513001E-2
3.877528385E0,4.367455542E-1,9.476579428E-1,7.549838722E-2
3.880019583E0,4.154408872E-1,8.720263839E-1,8.508548886E-2
3.882510781E0,3.909405172E-1,7.985253334E-1,9.786828607E-2
3.885001979E0,3.653749228E-1,7.292851806E-1,1.073222235E-1
3.887493177E0,3.451355100E-1,6.717625856E-1,1.105179265E-1
3.889984375E0,3.238308430E-1,6.185009480E-1,1.147788614E-1
3.892475573E0,3.067871034E-1,5.790873170E-1,1.201050207E-1
3.894966771E0,2.886781394E-1,5.535216928E-1,1.254311949E-1
3.897407187E0,2.748301327E-1,5.375432372E-1,1.318225861E-1
3.899898385E0,2.631125450E-1,5.268908739E-1,1.318225861E-1
3.902389583E0,2.503297627E-1,5.226299763E-1,1.339530498E-1
3.904880781E0,2.386122048E-1,5.300865769E-1,1.382139921E-1
3.907371979E0,2.268946320E-1,5.418041348E-1,1.392792165E-1
3.909863177E0,2.162422985E-1,5.577826500E-1,1.403444558E-1
3.912354375E0,2.098509073E-1,5.524564981E-1,1.446053833E-1
3.914845573E0,2.013290375E-1,5.631088018E-1,1.446053833E-1
3.917336771E0,1.928071827E-1,5.918700695E-1,1.392792165E-1
3.919827969E0,1.864157766E-1,6.153052449E-1,1.350182891E-1
3.922319166E0,1.778939217E-1,6.312837005E-1,1.296921223E-1
3.924810364E0,1.715025157E-1,6.376751065E-1,1.296921223E-1
3.927250729E0,1.651111245E-1,6.334142089E-1,1.286268830E-1
3.929741927E0,1.619154215E-1,6.216966510E-1,1.286268830E-1
3.932233125E0,1.576544940E-1,6.067833900E-1,1.296921223E-1
3.934724323E0,1.555240154E-1,5.971962810E-1,1.296921223E-1
3.937215521E0,1.480673850E-1,5.854787230E-1,1.275616586E-1
3.939706719E0,1.438064575E-1,5.769568086E-1,1.211702600E-1
3.942197916E0,1.395455301E-1,5.695002079E-1,1.169093251E-1
3.944689114E0,1.342193633E-1,5.663045049E-1,1.115831584E-1
3.947180312E0,1.278279573E-1,5.641740561E-1,1.042596847E-1
3.949671510E0,1.203713343E-1,5.641740561E-1,9.680305421E-2
3.952162708E0,1.139799356E-1,5.641740561E-1,8.615072072E-2
3.954653906E0,1.033276021E-1,5.652392507E-1,7.230269164E-2
3.957094271E0,9.161003679E-2,5.652392507E-1,5.525896326E-2
3.959585469E0,8.095771074E-2,5.673697591E-1,4.141093418E-2
3.962076666E0,6.604444981E-2,5.716306567E-1,2.649767138E-2
3.964567864E0,5.752258375E-2,5.790873170E-1,1.051917579E-2
3.967059062E0,4.793548584E-2,5.918700695E-1,-6.524552125E-3
3.969550260E0,4.047885537E-2,6.121095419E-1,-2.143781446E-2
3.972041458E0,3.195698932E-2,6.334142089E-1,-4.274247587E-2
3.974532656E0,2.556559257E-2,6.611102223E-1,-5.765573680E-2
3.977023854E0,2.130465955E-2,6.888062954E-1,-7.469946891E-2
3.979515052E0,2.023942769E-2,7.218285203E-1,-8.641702682E-2
3.982006250E0,1.384802908E-2,7.559159994E-1,-1.002650559E-1
3.984497448E0,1.171756350E-2,7.910686731E-1,-1.087869257E-1
3.986937812E0,1.384802908E-2,8.219604492E-1,-1.215697154E-1
3.989429010E0,1.704372838E-2,8.358084559E-1,-1.300915778E-1
3.991920208E0,1.810896210E-2,8.453955650E-1,-1.375482082E-1
3.994411406E0,2.450035885E-2,8.560478687E-1,-1.418091506E-1
3.996902604E0,3.195698932E-2,8.656349778E-1,-1.439396143E-1
3.999393802E0,3.834838793E-2,8.730916381E-1,-1.439396143E-1
4.001885000E0,4.900071770E-2,8.826786876E-1,-1.450048387E-1
4.004376198E0,5.965305120E-2,8.869396448E-1,-1.428743750E-1
4.006867396E0,7.243584841E-2,8.837439418E-1,-1.375482082E-1
4.009358594E0,8.521863818E-2,8.698959351E-1,-1.311568171E-1
4.011849791E0,9.906667471E-2,8.443303108E-1,-1.268958896E-1
4.014340989E0,1.193061024E-1,8.208951950E-1,-1.183740199E-1
4.016781406E0,1.406107545E-1,7.974600792E-1,-1.119826213E-1
4.019272604E0,1.576544940E-1,7.729597092E-1,-1.034607589E-1
4.021763802E0,1.757634431E-1,7.495245934E-1,-1.002650559E-1
4.024255000E0,1.991985738E-1,7.271546721E-1,-9.387365729E-2
4.026746198E0,2.236989290E-1,7.037195563E-1,-8.535179496E-2
4.029237396E0,2.471340597E-1,6.877411008E-1,-7.789516449E-2
4.031728594E0,2.705691755E-1,6.728277802E-1,-8.002562821E-2
4.034219791E0,2.950695455E-1,6.621754766E-1,-7.469946891E-2
4.036710989E0,3.142437339E-1,6.536536217E-1,-7.682993263E-2
4.039202187E0,3.334179223E-1,6.472622156E-1,-8.002562821E-2
4.041693385E0,3.525921404E-1,6.483274698E-1,-8.322133124E-2
4.044184583E0,3.653749228E-1,6.557840705E-1,-8.748225868E-2
4.046624948E0,3.707011044E-1,6.717625856E-1,-9.174319357E-2
4.049116146E0,3.717663288E-1,6.920019984E-1,-9.706936032E-2
4.051607344E0,3.738967776E-1,7.207632661E-1,-9.919982404E-2
4.054098541E0,3.728315532E-1,7.559159994E-1,-1.034607589E-1
4.056589739E0,3.664401472E-1,7.985253334E-1,-1.013302878E-1
4.059080937E0,3.547225893E-1,8.496564627E-1,-1.034607589E-1
4.061572135E0,3.440702558E-1,8.986572027E-1,-1.055912226E-1
4.064063333E0,3.259612918E-1,9.423317909E-1,-1.023955271E-1
4.066554531E0,3.121132851E-1,9.796149135E-1,-1.045259908E-1
4.069045729E0,2.918738425E-1,1.011571884E0,-1.066564545E-1
4.071536927E0,2.684387267E-1,1.043528914E0,-1.087869257E-1
4.074028125E0,2.386122048E-1,1.073222280E0,-1.045259908E-1
4.076468646E0,2.119813710E-1,1.100918293E0,-9.919982404E-2
4.078958958E0,1.778939217E-1,1.116896868E0,-9.706936032E-2
4.081449323E0,1.438064575E-1,1.127549171E0,-8.748225868E-2
4.083939687E0,1.107842326E-1,1.140331984E0,-7.789516449E-2
4.086430052E0,8.415340632E-2,1.152049541E0,-5.872096866E-2
4.088920364E0,6.391397864E-2,1.152049541E0,-4.274247587E-2
4.091410729E0,4.580501840E-2,1.132875323E0,-2.143781446E-2
4.093901094E0,3.728315607E-2,1.099853039E0,5.193010904E-3
4.096391458E0,3.089175746E-2,1.058442116E0,2.756290510E-2
4.098881823E0,2.130465955E-2,1.012637138E0,5.099803209E-2
4.101372135E0,7.456631400E-3,9.710930586E-1,6.804175675E-2
4.103862500E0,-1.065232977E-2,9.370055795E-1,8.188978583E-2
4.106312239E0,-4.354140162E-2,9.018529058E-1,8.934641629E-2
4.108802552E0,-9.041165560E-2,8.773525357E-1,9.147688746E-2
4.111292916E0,-1.511299312E-1,8.656349778E-1,9.573781490E-2
4.113783281E0,-2.182396203E-1,8.677654266E-1,8.508548886E-2
4.116273646E0,-2.960016131E-1,8.784177899E-1,7.549838722E-2
4.118763958E0,-3.748288751E-1,8.890700936E-1,6.378082931E-2
4.121254323E0,-4.589822888E-1,8.975919485E-1,5.099803209E-2
4.123744687E0,-5.399399996E-1,8.965267539E-1,4.034570232E-2
4.126235052E0,-6.240934134E-1,8.794830441E-1,3.288906813E-2
4.128725416E0,-7.166355252E-1,8.475260139E-1,2.756290510E-2
4.131215729E0,-8.071803451E-1,8.070471883E-1,2.117150649E-2
4.133706094E0,-9.009208083E-1,7.527202964E-1,2.010627277E-2
4.136155781E0,-9.850742221E-1,6.813496947E-1,2.330197208E-2
4.138646094E0,-1.059640527E0,5.897396207E-1,3.075860441E-2
4.141136458E0,-1.129945874E0,4.778901637E-1,4.567186534E-2
4.143626823E0,-1.190664172E0,3.576519787E-1,6.484606117E-2
4.146117187E0,-1.240730166E0,2.340849638E-1,8.721595258E-2
4.148607500E0,-1.289597750E0,9.666989744E-2,1.126483902E-1
4.151097864E0,-1.338598490E0,-5.352795869E-2,1.371487528E-1
4.153588229E0,-1.384403467E0,-2.057231218E-1,1.637795717E-1
4.156078594E0,-1.429143310E0,-3.484643400E-1,1.850842386E-1
4.158568958E0,-1.474948287E0,-4.890751243E-1,2.053236663E-1
4.161059271E0,-1.521818519E0,-6.350120306E-1,2.202369273E-1
4.163549635E0,-1.560166955E0,-7.765548825E-1,2.276935577E-1
4.165999323E0,-1.589993477E0,-9.139699340E-1,2.244978547E-1
4.168489635E0,-1.604906678E0,-1.027949810E0,2.170412242E-1
4.170980000E0,-1.604906678E0,-1.122755647E0,2.042584270E-1
4.173470364E0,-1.581471562E0,-1.196256638E0,1.893451661E-1
4.175960729E0,-1.545253634E0,-1.253779292E0,1.712362021E-1
4.178451041E0,-1.498383403E0,-1.298519015E0,1.509967744E-1
4.180941406E0,-1.436599851E0,-1.332606554E0,1.296921223E-1
4.183431771E0,-1.367359757E0,-1.362433076E0,1.105179265E-1
4.185922135E0,-1.295989156E0,-1.380408883E0,9.254211932E-2
4.188412500E0,-1.219425559E0,-1.379343629E0,7.656362653E-2
4.190902812E0,-1.145924449E0,-1.365628719E0,6.165036187E-2
4.193393177E0,-1.073488593E0,-1.335802197E0,4.567186534E-2
4.195842916E0,-1.001052737E0,-1.296388626E0,3.395430371E-2
4.198333229E0,-9.413996935E-1,-1.252714038E0,2.649767138E-2
4.200823594E0,-8.902685046E-1,-1.214365602E0,1.797580719E-2
4.203313958E0,-8.551158309E-1,-1.193060994E0,1.158440951E-2
4.205804323E0,-8.412677646E-1,-1.178147674E0,7.323476952E-3
4.208294635E0,-8.455287218E-1,-1.169625878E0,7.323476952E-3
4.210785000E0,-8.721595407E-1,-1.193060994E0,9.453942999E-3
4.213275364E0,-9.222254753E-1,-1.243126988E0,1.264964230E-2
4.215765729E0,-9.882699251E-1,-1.314497590E0,1.371487509E-2
4.218256094E0,-1.068162441E0,-1.398517847E0,1.478010789E-2
4.220746406E0,-1.155511498E0,-1.493323565E0,2.010627277E-2
4.223236771E0,-1.250184059E0,-1.593455434E0,2.543243766E-2
4.225686458E0,-1.342859387E0,-1.698913574E0,3.395430371E-2
4.228176771E0,-1.433404207E0,-1.805436850E0,4.247616604E-2
4.230667135E0,-1.511166215E0,-1.898112059E0,5.099803209E-2
4.233157500E0,-1.579341054E0,-1.980001926E0,5.951989442E-2
4.235647864E0,-1.636863708E0,-2.057763815E0,6.910699606E-2
4.238138177E0,-1.682668686E0,-2.129134417E0,8.188978583E-2
4.240628541E0,-1.725278020E0,-2.203700781E0,9.999874979E-2
4.243118906E0,-1.754039288E0,-2.276136637E0,1.158440933E-1
4.245609271E0,-1.767887354E0,-2.320876360E0,1.296921223E-1
4.248099635E0,-1.765756845E0,-2.345376730E0,1.456706226E-1
4.250589948E0,-1.756169796E0,-2.363485813E0,1.584534049E-1
4.253080312E0,-1.734865189E0,-2.383725166E0,1.691057384E-1
4.255530052E0,-1.711429954E0,-2.409290791E0,1.818885356E-1
4.258020364E0,-1.690125346E0,-2.446573973E0,1.957365721E-1
4.260510729E0,-1.665624976E0,-2.479596138E0,2.095845938E-1
4.263001094E0,-1.642189860E0,-2.510488033E0,2.244978547E-1
4.265491458E0,-1.627276540E0,-2.542444944E0,2.351501882E-1
4.267981771E0,-1.617689490E0,-2.599834442E0,2.489982247E-1
4.270472135E0,-1.611298084E0,-2.654161215E0,2.585853040E-1
4.272962500E0,-1.601711035E0,-2.662683010E0,2.617810071E-1
4.275452864E0,-1.592123866E0,-2.644574165E0,2.703028917E-1
4.277943229E0,-1.574014902E0,-2.613682270E0,2.692376375E-1
4.280433541E0,-1.560166955E0,-2.583988905E0,2.671071887E-1
4.282923906E0,-1.544188380E0,-2.554162502E0,2.639114857E-1
4.285373594E0,-1.525014281E0,-2.526466370E0,2.585853040E-1
4.287863906E0,-1.509035707E0,-2.503031254E0,2.489982247E-1
4.290354271E0,-1.497318149E0,-2.478530884E0,2.340849638E-1
4.292844635E0,-1.487731099E0,-2.446573973E0,2.191716880E-1
4.295335000E0,-1.481339693E0,-2.419943094E0,2.053236663E-1
4.297825312E0,-1.470687389E0,-2.395442724E0,1.882799417E-1
4.300315677E0,-1.461100221E0,-2.372007608E0,1.733666807E-1
4.302806041E0,-1.450447917E0,-2.353898764E0,1.605838835E-1
4.305296406E0,-1.442991257E0,-2.335789680E0,1.435401440E-1
4.307786771E0,-1.434469461E0,-2.313419819E0,1.328878254E-1
4.310277083E0,-1.428078055E0,-2.284658432E0,1.254311949E-1
4.312767448E0,-1.422751904E0,-2.246310234E0,1.158440933E-1
4.315217187E0,-1.421686649E0,-2.200505018E0,1.126483902E-1
4.317707500E0,-1.420621395E0,-2.148308754E0,1.105179265E-1
4.320197864E0,-1.416360497E0,-2.093981743E0,1.115831584E-1
4.322688229E0,-1.412099481E0,-2.039654970E0,1.158440933E-1
4.325178594E0,-1.413164735E0,-1.983197570E0,1.233007237E-1
4.327668906E0,-1.412099481E0,-1.921547174E0,1.296921223E-1
4.330159271E0,-1.411034346E0,-1.841654778E0,1.382139921E-1
4.332649635E0,-1.405708075E0,-1.752175212E0,1.509967744E-1
4.335140000E0,-1.403577685E0,-1.652043223E0,1.627143472E-1
4.337630364E0,-1.407838583E0,-1.545519948E0,1.733666807E-1
4.340120677E0,-1.407838583E0,-1.427279115E0,1.861494780E-1
4.342611041E0,-1.409969091E0,-1.303845167E0,1.968017966E-1
4.345060729E0,-1.411034346E0,-1.181343436E0,2.074541301E-1
4.347551041E0,-1.409969091E0,-1.072689652E0,2.202369273E-1
4.350041406E0,-1.405708075E0,-9.853405356E-1,2.287587970E-1
4.352531771E0,-1.396121025E0,-9.065132737E-1,2.415415943E-1
4.355022135E0,-1.383338213E0,-8.362079263E-1,2.596505582E-1
4.357512448E0,-1.371620655E0,-7.701634765E-1,2.745638192E-1
4.360002812E0,-1.356707454E0,-7.117088437E-1,2.894770801E-1
4.362493177E0,-1.344989896E0,-6.595124006E-1,3.054555655E-1
4.364983541E0,-1.326880932E0,-6.169030666E-1,3.214340508E-1
4.367473906E0,-1.309837103E0,-5.828156471E-1,3.331516385E-1
4.369964219E0,-1.294923902E0,-5.519238710E-1,3.448691964E-1
4.372454583E0,-1.274684429E0,-5.284887552E-1,3.555215299E-1
4.374904323E0,-1.255510330E0,-5.103797913E-1,3.629781604E-1
4.377394635E0,-1.239664912E0,-4.944012761E-1,3.683043122E-1
4.379885000E0,-1.217295051E0,-4.890751243E-1,3.725652397E-1
4.382375364E0,-1.198120832E0,-4.837489426E-1,3.736304939E-1
4.384865729E0,-1.182142377E0,-4.858794212E-1,3.725652397E-1
4.387356041E0,-1.167229056E0,-4.933360517E-1,3.715000153E-1
4.389846406E0,-1.150185347E0,-5.103797913E-1,3.661738634E-1
4.392336771E0,-1.135272145E0,-5.338149071E-1,3.587172329E-1
4.394827135E0,-1.124619722E0,-5.551195741E-1,3.438039720E-1
4.397317500E0,-1.116097927E0,-5.700328350E-1,3.288906813E-1
4.399807812E0,-1.109706521E0,-5.764242411E-1,3.107817471E-1
4.402298177E0,-1.100119352E0,-5.892069936E-1,2.937380075E-1
4.404747916E0,-1.088401794E0,-6.041202545E-1,2.809551954E-1
4.407238229E0,-1.077749491E0,-6.169030666E-1,2.692376375E-1
4.409728594E0,-1.063901424E0,-6.200987697E-1,2.553896308E-1
4.412218958E0,-1.058575273E0,-6.158378124E-1,2.415415943E-1
4.414709323E0,-1.050053477E0,-5.998593569E-1,2.287587970E-1
4.417199635E0,-1.046857715E0,-5.668371320E-1,2.159759998E-1
4.419690000E0,-1.044727325E0,-5.220973492E-1,1.989322603E-1
4.422180364E0,-1.051118731E0,-4.741618633E-1,1.829537749E-1
4.424670729E0,-1.056444883E0,-4.368786812E-1,1.563229412E-1
4.427161094E0,-1.057510138E0,-4.166392684E-1,1.382139921E-1
4.429651406E0,-1.056444883E0,-4.113130867E-1,1.190397888E-1
4.432141771E0,-1.054314375E0,-4.166392684E-1,1.010639817E-1
4.434591510E0,-1.052183867E0,-4.368786812E-1,8.508548886E-2
4.437081823E0,-1.048988223E0,-4.720313847E-1,7.762885839E-2
4.439572187E0,-1.053249121E0,-5.178363919E-1,6.804175675E-2
4.442062552E0,-1.054314375E0,-5.668371320E-1,5.632419512E-2
4.444552916E0,-1.056444883E0,-6.083812118E-1,4.886756465E-2
4.447043229E0,-1.061771035E0,-6.499252915E-1,4.141093418E-2
4.449533594E0,-1.064966679E0,-6.808170676E-1,3.501953557E-2
4.452023958E0,-1.066031933E0,-6.957303286E-1,3.608476743E-2
4.454514323E0,-1.069227695E0,-6.999912262E-1,3.608476743E-2
4.457004687E0,-1.072423339E0,-6.978607774E-1,3.715000302E-2
4.459495000E0,-1.072423339E0,-7.021217346E-1,3.608476743E-2
4.461985364E0,-1.077749491E0,-7.191654444E-1,4.034570232E-2
4.464435104E0,-1.079879999E0,-7.404701114E-1,4.780233279E-2
4.466925416E0,-1.075619102E0,-7.585790753E-1,5.845466256E-2
4.469415781E0,-1.072423339E0,-7.765548825E-1,7.230269164E-2
4.471906146E0,-1.070292830E0,-7.925333977E-1,9.147688746E-2
4.474396510E0,-1.076684237E0,-8.021204472E-1,1.053249165E-1
4.476886823E0,-1.076684237E0,-8.095771074E-1,1.233007237E-1
4.479377187E0,-1.078814745E0,-8.085118532E-1,1.403444558E-1
4.481867552E0,-1.082010388E0,-8.138380051E-1,1.541924775E-1
4.484357916E0,-1.084140897E0,-8.330122232E-1,1.712362021E-1
4.486848281E0,-1.087336659E0,-8.628387451E-1,1.872147024E-1
4.489338594E0,-1.089467049E0,-8.926652670E-1,2.085193694E-1
4.491828958E0,-1.091597557E0,-9.139699340E-1,2.298240215E-1
4.494278698E0,-1.094793200E0,-9.256874919E-1,2.511286736E-1
4.496769010E0,-1.096923709E0,-9.288831949E-1,2.713681161E-1
4.499259375E0,-1.095858455E0,-9.246222377E-1,2.916075289E-1
4.501749739E0,-1.095858455E0,-9.161003828E-1,3.054555655E-1
4.504240104E0,-1.093728065E0,-9.001219273E-1,3.193036020E-1
4.506730416E0,-1.093728065E0,-8.788172603E-1,3.299559355E-1
4.509220781E0,-1.094793200E0,-8.639039993E-1,3.374125659E-1
4.511711146E0,-1.092662811E0,-8.479254842E-1,3.427387178E-1
4.514201510E0,-1.087336659E0,-8.340774775E-1,3.448691964E-1
4.516691875E0,-1.088401794E0,-8.191642165E-1,3.416734934E-1
4.519182187E0,-1.084140897E0,-7.925333977E-1,3.406082690E-1
4.521672552E0,-1.076684237E0,-7.511224151E-1,3.416734934E-1
4.524122291E0,-1.067097187E0,-7.074478865E-1,3.416734934E-1
4.526612604E0,-1.052183867E0,-6.690995097E-1,3.427387178E-1
4.529102969E0,-1.035140157E0,-6.360772848E-1,3.469996452E-1
4.531593333E0,-1.020226955E0,-6.041202545E-1,3.501953483E-1
4.534083698E0,-1.006378889E0,-5.732285380E-1,3.512606025E-1
4.536574010E0,-9.946613312E-1,-5.412715077E-1,3.576519787E-1
4.539064375E0,-9.850742221E-1,-5.103797913E-1,3.619129062E-1
4.541554739E0,-9.754871130E-1,-4.901403487E-1,3.683043122E-1
4.544045104E0,-9.712262154E-1,-4.784227908E-1,3.736304939E-1
4.546535469E0,-9.627043605E-1,-4.592485726E-1,3.778914213E-1
4.549025781E0,-9.488562942E-1,-4.368786812E-1,3.757609427E-1
4.551516146E0,-9.392692447E-1,-4.134435654E-1,3.778914213E-1
4.553965885E0,-9.307473302E-1,-4.038564563E-1,3.725652397E-1
4.556456198E0,-9.200950265E-1,-3.995955288E-1,3.640433848E-1
4.558946562E0,-9.147688746E-1,-3.942693770E-1,3.523258269E-1
4.561436927E0,-9.030513167E-1,-3.910736740E-1,3.416734934E-1
4.563927291E0,-8.923989534E-1,-3.793561161E-1,3.267602324E-1
4.566417604E0,-8.785509467E-1,-3.601819277E-1,3.097164929E-1
4.568907969E0,-8.678985834E-1,-3.367467821E-1,2.916075289E-1
4.571398333E0,-8.593767285E-1,-3.197030723E-1,2.766942680E-1
4.573888698E0,-8.487244248E-1,-3.037245572E-1,2.617810071E-1
4.576379062E0,-8.423330188E-1,-2.866808474E-1,2.479329854E-1
4.578869375E0,-8.370068669E-1,-2.696371078E-1,2.362154275E-1
4.581359739E0,-8.338111639E-1,-2.579195499E-1,2.287587970E-1
4.583809583E0,-8.242240548E-1,-2.675066292E-1,2.149107605E-1
4.586299271E0,-8.125064969E-1,-2.866808474E-1,2.095845938E-1
4.588788958E0,-8.039846420E-1,-3.133116663E-1,1.999974996E-1
4.591278646E0,-7.954627872E-1,-3.410077095E-1,1.882799417E-1
4.593768281E0,-7.890713811E-1,-3.644428551E-1,1.786928326E-1
4.596257969E0,-7.773538232E-1,-3.772256374E-1,1.701709777E-1
4.598747656E0,-7.698971629E-1,-3.868127465E-1,1.648448110E-1
4.601237344E0,-7.603100538E-1,-3.942693770E-1,1.627143472E-1
4.603726979E0,-7.549839020E-1,-3.995955288E-1,1.573881805E-1
4.606216666E0,-7.475273013E-1,-4.059869349E-1,1.573881805E-1
4.608706354E0,-7.411358953E-1,-4.134435654E-1,1.563229412E-1
4.611196041E0,-7.315487862E-1,-4.230306745E-1,1.573881805E-1
4.613653125E0,-7.251573801E-1,-4.347482324E-1,1.595186442E-1
4.616142812E0,-7.177007794E-1,-4.507267177E-1,1.659100503E-1
4.618632500E0,-7.081136703E-1,-4.667052329E-1,1.691057384E-1
4.621122187E0,-7.017222643E-1,-4.880098701E-1,1.712362021E-1
4.623611823E0,-6.974613070E-1,-5.114449859E-1,1.786928326E-1
4.626101510E0,-6.910699010E-1,-5.316844583E-1,1.861494780E-1
4.628591198E0,-6.889394522E-1,-5.529890656E-1,1.957365721E-1
4.631080885E0,-6.836133003E-1,-5.774894357E-1,1.978670359E-1
4.633570521E0,-6.825480461E-1,-6.019898057E-1,2.095845938E-1
4.636060208E0,-6.846785545E-1,-6.211640239E-1,2.170412242E-1
4.638549896E0,-6.814828515E-1,-6.371424794E-1,2.298240215E-1
4.641039583E0,-6.825480461E-1,-6.531209946E-1,2.458025217E-1
4.643496771E0,-6.857437491E-1,-6.701647043E-1,2.596505582E-1
4.645986458E0,-6.878741980E-1,-6.786866188E-1,2.745638192E-1
4.648476146E0,-6.921351552E-1,-6.914693713E-1,2.916075289E-1
4.650965833E0,-6.963961124E-1,-6.978607774E-1,3.097164929E-1
4.653455469E0,-7.081136703E-1,-7.042521834E-1,3.299559355E-1
4.655945156E0,-7.187659740E-1,-7.053174376E-1,3.512606025E-1
4.658434844E0,-7.336792350E-1,-6.978607774E-1,3.746957183E-1
4.660924531E0,-7.485924959E-1,-6.829475164E-1,3.981308341E-1
4.663414166E0,-7.603100538E-1,-6.637732983E-1,4.226312041E-1
4.665903854E0,-7.762885690E-1,-6.360772848E-1,4.460663199E-1
4.668393541E0,-7.933322787E-1,-6.019898057E-1,4.673709869E-1
4.670883229E0,-8.125064969E-1,-5.647066832E-1,4.908061028E-1
4.673340312E0,-8.295502067E-1,-5.295539498E-1,5.121107697E-1
4.675830000E0,-8.423330188E-1,-4.858794212E-1,5.334154367E-1
4.678319687E0,-8.593767285E-1,-4.411396384E-1,5.493939519E-1
4.680809375E0,-8.710942864E-1,-3.942693770E-1,5.611115098E-1
4.683299010E0,-8.785509467E-1,-3.463338912E-1,5.738942623E-1
4.685788698E0,-8.860075474E-1,-3.026593328E-1,5.792204738E-1
4.688278385E0,-8.892032504E-1,-2.568543255E-1,5.856118798E-1
4.690768073E0,-8.913337588E-1,-2.121145278E-1,5.898727775E-1
4.693257708E0,-8.902685046E-1,-1.737661362E-1,5.888075829E-1
4.695747396E0,-8.870728016E-1,-1.419423074E-1,5.824161768E-1
4.698237083E0,-8.870728016E-1,-1.174419373E-1,5.749595165E-1
4.700726771E0,-8.806813955E-1,-9.613727778E-2,5.675029159E-1
4.703183958E0,-8.721595407E-1,-8.761541545E-2,5.536548495E-1
4.705673646E0,-8.647028804E-1,-8.974587917E-2,5.344806910E-1
4.708163333E0,-8.540505767E-1,-9.613727778E-2,5.195674300E-1
4.710653021E0,-8.402025700E-1,-1.121157780E-1,4.971975088E-1
4.713142656E0,-8.263545036E-1,-1.355509013E-1,4.748276174E-1
4.715632344E0,-8.103760481E-1,-1.609833390E-1,4.471315742E-1
4.718122031E0,-7.922670841E-1,-1.876141727E-1,4.236964285E-1
4.720611719E0,-7.752233148E-1,-2.195711583E-1,3.991960883E-1
4.723101354E0,-7.581796050E-1,-2.515281439E-1,3.725652397E-1
4.725591041E0,-7.368749380E-1,-2.813546658E-1,3.491301239E-1
4.728080729E0,-7.208964229E-1,-3.175725937E-1,3.246297538E-1
4.730570416E0,-7.091788650E-1,-3.527252972E-1,3.033251166E-1
4.733027552E0,-6.942656040E-1,-3.900084496E-1,2.894770801E-1
4.735517239E0,-6.804175973E-1,-4.251611233E-1,2.766942680E-1
4.738006927E0,-6.687000394E-1,-4.549876451E-1,2.628462613E-1
4.740496614E0,-6.591129303E-1,-4.880098701E-1,2.532591522E-1
4.742986250E0,-6.484606266E-1,-5.157059431E-1,2.436720580E-1
4.745475937E0,-6.368761659E-1,-5.423367620E-1,2.351501882E-1
4.747965625E0,-6.262238622E-1,-5.668371320E-1,2.340849638E-1
4.750455312E0,-6.102453470E-1,-5.838808417E-1,2.340849638E-1
4.752944948E0,-5.985277891E-1,-6.019898057E-1,2.340849638E-1
4.755434635E0,-5.857450366E-1,-6.126421690E-1,2.394111156E-1
4.757924323E0,-5.729622245E-1,-6.211640239E-1,2.458025217E-1
4.760414010E0,-5.559184551E-1,-6.275554299E-1,2.500634491E-1
4.762871146E0,-5.420704484E-1,-6.286206245E-1,2.585853040E-1
4.765360833E0,-5.250267386E-1,-6.318163276E-1,2.671071887E-1
4.767850521E0,-5.069177747E-1,-6.318163276E-1,2.798899710E-1
4.770340208E0,-4.930697381E-1,-6.318163276E-1,2.937380075E-1
4.772829844E0,-4.781564772E-1,-6.275554299E-1,3.086512685E-1
4.775319531E0,-4.600475132E-1,-6.264901757E-1,3.256950080E-1
4.777809219E0,-4.440690279E-1,-6.275554299E-1,3.448691964E-1
4.780298906E0,-4.270252883E-1,-6.243597269E-1,3.619129062E-1
4.782788541E0,-4.121120274E-1,-6.200987697E-1,3.778914213E-1
4.785278229E0,-3.950682878E-1,-6.158378124E-1,3.928046823E-1
4.787767916E0,-3.790898025E-1,-6.158378124E-1,4.109136462E-1
4.790257604E0,-3.695026934E-1,-6.169030666E-1,4.236964285E-1
4.792714739E0,-3.567199111E-1,-6.190335155E-1,4.364792407E-1
4.795204427E0,-3.471328020E-1,-6.275554299E-1,4.460663199E-1
4.797694114E0,-3.396761715E-1,-6.392729878E-1,4.556534290E-1
4.800183802E0,-3.311543167E-1,-6.371424794E-1,4.609795809E-1
4.802673437E0,-3.205019832E-1,-6.360772848E-1,4.641752839E-1
4.805163125E0,-3.130453527E-1,-6.371424794E-1,4.663057625E-1
4.807652812E0,-3.077192008E-1,-6.435338855E-1,4.705666900E-1
4.810142500E0,-3.077192008E-1,-6.552514434E-1,4.695014656E-1
4.812632135E0,-3.055887222E-1,-6.627081037E-1,4.652405083E-1
4.815121823E0,-3.055887222E-1,-6.712299585E-1,4.663057625E-1
4.817611510E0,-3.077192008E-1,-6.776213646E-1,4.588491321E-1
4.820101198E0,-3.119801283E-1,-6.872084737E-1,4.535229504E-1
4.822558333E0,-3.173062801E-1,-6.978607774E-1,4.481967986E-1
4.825048021E0,-3.183715343E-1,-7.053174376E-1,4.386096895E-1
4.827537708E0,-3.205019832E-1,-7.085131407E-1,4.332835376E-1
4.830027396E0,-3.258281648E-1,-7.117088437E-1,4.268921316E-1
4.832517031E0,-3.290238380E-1,-7.170349956E-1,4.183702767E-1
4.835006719E0,-3.290238380E-1,-7.085131407E-1,4.162397981E-1
4.837496406E0,-3.268933892E-1,-6.999912262E-1,4.162397981E-1
4.839986094E0,-3.290238380E-1,-6.999912262E-1,4.098483920E-1
4.842475729E0,-3.364804685E-1,-7.106435895E-1,4.034570158E-1
4.844965416E0,-3.407414258E-1,-7.223611474E-1,3.970656097E-1
4.847455104E0,-3.439370990E-1,-7.255568504E-1,3.938699067E-1
4.849944791E0,-3.418066502E-1,-7.159697413E-1,3.928046823E-1
4.852401927E0,-3.396761715E-1,-7.042521834E-1,3.896089792E-1
4.854891614E0,-3.343500197E-1,-6.893389225E-1,3.853480518E-1
4.857381302E0,-3.258281648E-1,-6.637732983E-1,3.810871243E-1
4.859870989E0,-3.151758313E-1,-6.307511330E-1,3.810871243E-1
4.862360625E0,-2.981320918E-1,-5.934679508E-1,3.821523488E-1
4.864850312E0,-2.853493094E-1,-5.561847687E-1,3.789566457E-1
4.867340000E0,-2.693707943E-1,-5.125102401E-1,3.810871243E-1
4.869829687E0,-2.491313666E-1,-4.507267177E-1,3.853480518E-1
4.872319323E0,-2.331528813E-1,-3.910736740E-1,3.864132762E-1
4.874809010E0,-2.203700840E-1,-3.516600430E-1,3.832175732E-1
4.877298698E0,-2.129134536E-1,-3.218335211E-1,3.757609427E-1
4.879788385E0,-2.054568231E-1,-2.920069993E-1,3.704347908E-1
4.882245521E0,-1.948044896E-1,-2.547238469E-1,3.661738634E-1
4.884735208E0,-1.852173954E-1,-2.217016220E-1,3.576519787E-1
4.887224896E0,-1.724345982E-1,-1.822880059E-1,3.480648994E-1
4.889714583E0,-1.532603949E-1,-1.376813650E-1,3.363473415E-1
4.892204219E0,-1.372819096E-1,-9.400681406E-2,3.278254569E-1
4.894693906E0,-1.170424819E-1,-4.500609636E-2,3.182383776E-1
4.897183594E0,-9.147688746E-2,5.059856921E-3,3.065207899E-1
4.899673281E0,-6.165036187E-2,6.684337556E-2,2.990641594E-1
4.902162916E0,-2.556559257E-2,1.414096802E-1,2.905423045E-1
4.904652604E0,7.456631400E-3,1.968017966E-1,2.777595222E-1
4.907142291E0,4.047885537E-2,2.404763550E-1,2.607157826E-1
4.909631979E0,7.456631213E-2,2.766942680E-1,2.404763550E-1
4.912089114E0,1.129147038E-1,3.203688264E-1,2.191716880E-1
4.914578802E0,1.565892547E-1,3.619129062E-1,1.989322603E-1
4.917068489E0,2.045247406E-1,4.066527188E-1,1.754971445E-1
4.919558177E0,2.567211688E-1,4.492620230E-1,1.509967744E-1
4.922047812E0,3.153089881E-1,4.959991276E-1,1.201050207E-1
4.924537500E0,3.781577349E-1,5.545869470E-1,8.828118443E-2
4.927027187E0,4.484631121E-1,6.142399907E-1,5.951989442E-2
4.929516875E0,5.198337436E-1,6.643059254E-1,2.862813696E-2
4.932006510E0,5.889406800E-1,6.898715496E-1,-9.720250964E-3
4.934496198E0,6.528546810E-1,7.005238533E-1,-5.126433820E-2
4.936985885E0,7.188991308E-1,7.005238533E-1,-9.493889660E-2
4.939475573E0,7.945306897E-1,7.079805136E-1,-1.428743750E-1
4.941932708E0,8.680317402E-1,7.122414112E-1,-1.918751001E-1
4.944422396E0,9.415328503E-1,7.143719196E-1,-2.440715134E-1
4.946912083E0,1.019294858E0,7.079805136E-1,-2.930722237E-1
4.949401771E0,1.098122120E0,6.909367442E-1,-3.452686667E-1
4.951891406E0,1.175884128E0,6.653711796E-1,-3.985303044E-1
4.954381094E0,1.250317216E0,6.248922944E-1,-4.539224207E-1
4.956870781E0,1.331274986E0,5.769568086E-1,-5.027899742E-1
4.959360469E0,1.403710842E0,5.236951709E-1,-5.528559685E-1
4.961850104E0,1.480407596E0,4.725640118E-1,-6.018566489E-1
4.964339791E0,1.551778197E0,4.258269072E-1,-6.519225836E-1
4.966829479E0,1.617822647E0,3.746957183E-1,-6.955971718E-1
4.969319166E0,1.685997605E0,3.288906813E-1,-7.339455485E-1
4.971776302E0,1.748846292E0,2.948032320E-1,-7.776201367E-1
4.974265989E0,1.805170536E0,2.607157826E-1,-8.180989623E-1
4.976755677E0,1.858432174E0,2.287587970E-1,-8.500559330E-1
4.979245364E0,1.908498168E0,1.957365721E-1,-8.841434121E-1
4.981735000E0,1.955368400E0,1.648448110E-1,-9.139699340E-1
4.984224687E0,2.001173496E0,1.360835135E-1,-9.437964559E-1
4.986714375E0,2.040586948E0,9.986559302E-2,-9.714925289E-1
4.989204062E0,2.077870131E0,6.258244067E-2,-9.938623905E-1
4.991693698E0,2.111957550E0,2.316881903E-2,-1.015167117E0
4.994183385E0,2.146044970E0,-1.624480449E-2,-1.031145573E0
4.996673073E0,2.184393406E0,-5.459319428E-2,-1.051385045E0
4.999162760E0,2.223807096E0,-8.868064731E-2,-1.069494009E0
5.001619896E0,2.261090279E0,-1.163767055E-1,-1.089733362E0
5.004109583E0,2.299438715E0,-1.440727711E-1,-1.104646683E0
5.006599271E0,2.342047930E0,-1.609833390E-1,-1.126883388E0
5.009088958E0,2.391048670E0,-1.695052087E-1,-1.146057606E0
5.011578594E0,2.439916134E0,-1.716356725E-1,-1.165231824E0
5.014068281E0,2.495308399E0,-1.545919478E-1,-1.179079771E0
5.016557969E0,2.552830935E0,-1.280942708E-1,-1.203580141E0
5.019047656E0,2.605027437E0,-9.400681406E-2,-1.222754359E0
5.021537291E0,2.655093193E0,-5.246272683E-2,-1.237667561E0
