"Time (s)","Acceleration x (m/s^2)","Acceleration y (m/s^2)","Acceleration z (m/s^2)"
0.000000000E0,-4.716733456E0,5.179033279E0,7.349622726E0
2.365937000E-3,-4.778980255E0,5.167062759E0,7.407081127E0
4.731458000E-3,-4.831650734E0,5.135939598E0,7.445386410E0
7.096562000E-3,-4.846014977E0,5.095239639E0,7.474115372E0
2.160348900E-2,-4.901079178E0,5.262826920E0,7.806895733E0
2.403187500E-2,-4.879532814E0,5.281980038E0,7.924205780E0
2.645875000E-2,-4.824468136E0,5.296344280E0,8.000817299E0
2.888437500E-2,-4.855591774E0,5.274797440E0,8.108551025E0
3.130901000E-2,-4.764615536E0,5.219733238E0,8.158827782E0
3.373281200E-2,-4.733492851E0,5.090451717E0,8.194739342E0
3.615588500E-2,-4.721522331E0,5.001870155E0,8.194739342E0
3.857828100E-2,-4.678428173E0,4.927653313E0,8.228256226E0
4.100015600E-2,-4.616181850E0,4.937229156E0,8.261773109E0
4.342151000E-2,-4.606605053E0,4.918076992E0,8.302473068E0
4.584244800E-2,-4.570693493E0,4.920470715E0,8.292897224E0
4.826291600E-2,-4.556329250E0,4.908500195E0,8.319231987E0
5.068307300E-2,-4.546752453E0,4.920470715E0,8.376690865E0
5.310291600E-2,-4.537176132E0,4.932441235E0,8.395843506E0
5.552234300E-2,-4.513235092E0,4.968352795E0,8.448513985E0
5.794145800E-2,-4.553935051E0,4.982717514E0,8.539489746E0
6.036031200E-2,-4.577876091E0,4.992293835E0,8.570612907E0
6.277885400E-2,-4.608999252E0,5.009052277E0,8.601735115E0
6.519713500E-2,-4.652093410E0,5.011446953E0,8.616100311E0
6.761515600E-2,-4.661669731E0,5.035387993E0,8.551459312E0
7.003291600E-2,-4.661669731E0,5.071298599E0,8.513153076E0
7.245046800E-2,-4.644910812E0,5.073693275E0,8.412601471E0
7.486776000E-2,-4.623363495E0,5.061722755E0,8.304867744E0
7.728484300E-2,-4.575482368E0,5.068904877E0,8.209103584E0
7.970166600E-2,-4.541964531E0,5.071298599E0,8.127703667E0
8.211838500E-2,-4.436624050E0,5.071298599E0,8.089398384E0
8.453489600E-2,-4.393530846E0,5.052146435E0,8.058275223E0
8.695119800E-2,-4.304948807E0,5.059328079E0,8.087004662E0
8.936739600E-2,-4.206790447E0,5.018628597E0,8.115733147E0
9.178348900E-2,-4.113420486E0,4.968352795E0,8.120521545E0
9.419937500E-2,-4.053568363E0,4.956382275E0,8.161221504E0
9.661515600E-2,-4.012868881E0,4.910894394E0,8.216285706E0
9.903083300E-2,-3.967380285E0,4.863012314E0,8.187556267E0
1.014464060E-1,-3.895557642E0,4.860618114E0,8.189950943E0
1.038618750E-1,-3.809370279E0,4.800765991E0,8.182768822E0
1.062771870E-1,-3.711211920E0,4.793583870E0,8.228256226E0
1.086923960E-1,-3.639389277E0,4.748095989E0,8.252197266E0
1.111075520E-1,-3.560384035E0,4.781613350E0,8.213891983E0
1.135213020E-1,-3.478984356E0,4.764854431E0,8.283320427E0
1.159102600E-1,-3.399979115E0,4.784007072E0,8.312049866E0
1.182761460E-1,-3.325762272E0,4.769642830E0,8.297684669E0
1.206420310E-1,-3.292244673E0,4.791189194E0,8.304867744E0
1.230071870E-1,-3.220421791E0,4.810342312E0,8.328808784E0
1.253722910E-1,-3.028893948E0,4.877377033E0,8.300079346E0
1.277381770E-1,-2.478251219E0,5.097634315E0,8.247408867E0
1.301040620E-1,-2.219688416E0,5.169457436E0,8.218680382E0
1.324692180E-1,-2.583591461E0,5.030599117E0,8.173192024E0
1.348343750E-1,-2.878065586E0,4.906106472E0,8.213891983E0
1.372002600E-1,-3.076776028E0,4.872588634E0,8.261773109E0
1.395661460E-1,-3.285062551E0,4.846253872E0,8.314443588E0
1.419313020E-1,-3.340126753E0,4.863012314E0,8.221074104E0
1.442964060E-1,-3.297032833E0,4.951594353E0,8.046304703E0
1.466623430E-1,-3.184510469E0,5.040175915E0,7.823654175E0
1.490282290E-1,-3.067199469E0,5.119180679E0,7.612973690E0
1.513933330E-1,-2.971435547E0,5.171851158E0,7.445386410E0
1.537584890E-1,-2.887642145E0,5.222127438E0,7.356804371E0
1.561243750E-1,-2.803848743E0,5.224521160E0,7.323287487E0
1.584902600E-1,-2.753572464E0,5.238885880E0,7.304134369E0
1.608554160E-1,-2.684143782E0,5.214944839E0,7.316104889E0
1.632205210E-1,-2.600350142E0,5.179033279E0,7.385533810E0
1.655864580E-1,-2.583591461E0,5.143121719E0,7.426233292E0
1.679523430E-1,-2.535709620E0,5.090451717E0,7.450174332E0
1.703175000E-1,-2.401639938E0,5.080875397E0,7.478903770E0
1.726826040E-1,-2.277146816E0,5.037781715E0,7.560303211E0
1.750484890E-1,-2.097589493E0,5.097634315E0,7.586637974E0
1.774143750E-1,-1.949155331E0,5.104816437E0,7.598608494E0
1.797795310E-1,-1.872544289E0,5.054540157E0,7.703948975E0
1.821446350E-1,-1.865361929E0,5.040175915E0,7.770984173E0
1.845105730E-1,-1.867755890E0,5.013840675E0,7.881112576E0
1.868764580E-1,-1.891696930E0,5.021022797E0,7.912235737E0
1.892416140E-1,-1.870150089E0,5.004264355E0,7.969693661E0
1.916067180E-1,-1.793539047E0,5.032993317E0,7.998423100E0
1.939726040E-1,-1.769598007E0,5.032993317E0,8.048699379E0
1.963384890E-1,-1.702563286E0,5.073693275E0,8.103762627E0
1.987036460E-1,-1.623558044E0,5.080875397E0,8.151644707E0
2.010687500E-1,-1.542158604E0,5.100028515E0,8.175585747E0
2.034346870E-1,-1.472729683E0,5.138333797E0,8.163615227E0
2.058006250E-1,-1.326689720E0,5.090451717E0,8.084610939E0
2.081657290E-1,-1.173467398E0,5.059328079E0,7.962511539E0
2.105308330E-1,-1.022639275E0,4.982717514E0,7.852383137E0
2.128967710E-1,-9.388456941E-1,4.882165432E0,7.818865776E0
2.152626560E-1,-8.885697722E-1,4.752883911E0,7.890688896E0
2.176277600E-1,-9.029342532E-1,4.628390789E0,7.998423100E0
2.199929160E-1,-8.957520127E-1,4.544597149E0,8.079821587E0
2.223588020E-1,-8.909637332E-1,4.412921906E0,8.101368904E0
2.247247390E-1,-8.119584918E-1,4.355463505E0,8.113339424E0
2.270898430E-1,-7.688646913E-1,4.321946144E0,8.125309944E0
2.294549480E-1,-6.683126092E-1,4.307581902E0,8.163615227E0
2.318208850E-1,-6.012778878E-1,4.298005104E0,8.187556267E0
2.341868230E-1,-5.079079866E-1,4.298005104E0,8.204315186E0
2.365519270E-1,-4.408732653E-1,4.336310863E0,8.194739342E0
2.389170310E-1,-3.570797443E-1,4.355463505E0,8.206709862E0
2.412829680E-1,-3.044096231E-1,4.379404545E0,8.240226746E0
2.436488540E-1,-2.661039829E-1,4.400951385E0,8.242621422E0
2.460139580E-1,-2.062515616E-1,4.391375065E0,8.261773109E0
2.483790620E-1,-1.942810714E-1,4.398557186E0,8.261773109E0
2.507450000E-1,-1.487931907E-1,4.365039825E0,8.247408867E0
2.531109370E-1,-1.583695710E-1,4.331522465E0,8.213891983E0
2.554760410E-1,-1.847046614E-1,4.288428783E0,8.187556267E0
2.578411460E-1,-2.110397518E-1,4.242940903E0,8.151644707E0
2.602070830E-1,-2.804686427E-1,4.154359341E0,8.158827782E0
2.625729680E-1,-3.259565234E-1,4.135206699E0,8.180374146E0
2.649380730E-1,-3.929912448E-1,4.080142021E0,8.211497307E0
2.673031770E-1,-4.624201059E-1,4.075354099E0,8.268956184E0
2.696691140E-1,-5.414253473E-1,4.049018860E0,8.302473068E0
2.720350520E-1,-6.874653697E-1,4.027472019E0,8.412601471E0
2.744001560E-1,-7.760470510E-1,4.003530979E0,8.513153076E0
2.767652600E-1,-9.101166129E-1,4.001136780E0,8.637647629E0
2.791311980E-1,-1.053762436E0,3.970013857E0,8.838751793E0
2.814970830E-1,-1.216561317E0,3.972408056E0,9.011126518E0
2.838621870E-1,-1.398512840E0,3.955649376E0,9.149984360E0
2.862273430E-1,-1.568493843E0,3.962831497E0,9.310388565E0
2.885932290E-1,-1.807903528E0,3.943678856E0,9.499522209E0
2.909591660E-1,-1.932396650E0,3.970013857E0,9.676685333E0
2.933242710E-1,-2.023372412E0,4.049018860E0,9.796390533E0
2.956893750E-1,-2.133501053E0,4.092112541E0,9.983130455E0
2.980553120E-1,-2.150259733E0,4.178300381E0,1.015550518E1
3.004212500E-1,-2.138289213E0,4.276458263E0,1.028239250E1
3.027863540E-1,-2.056890011E0,4.381798744E0,1.037097454E1
3.051514580E-1,-1.963520050E0,4.458409786E0,1.043082714E1
3.075173960E-1,-1.915637970E0,4.523050308E0,1.046913242E1
3.098832810E-1,-1.839026928E0,4.563750267E0,1.041406822E1
3.122483850E-1,-1.702563286E0,4.602056026E0,1.025605774E1
3.146134890E-1,-1.592434645E0,4.614026070E0,1.002383041E1
3.169794270E-1,-1.499064922E0,4.594873428E0,9.765267372E0
3.193453640E-1,-1.422453642E0,4.570932388E0,9.535434723E0
3.217104680E-1,-1.369783401E0,4.544597149E0,9.269689560E0
3.240755730E-1,-1.357812881E0,4.477562428E0,9.063796997E0
3.264415100E-1,-1.329083920E0,4.422498226E0,8.915362358E0
3.288073960E-1,-1.324295521E0,4.357857704E0,8.800445557E0
3.311725000E-1,-1.309931040E0,4.319551945E0,8.699893951E0
3.335376040E-1,-1.305142879E0,4.235758781E0,8.654405594E0
3.359035410E-1,-1.333872080E0,4.226182461E0,8.654405594E0
3.382694790E-1,-1.353024960E0,4.190270901E0,8.632858276E0
3.406345830E-1,-1.345842600E0,4.202241421E0,8.656799316E0
3.429996870E-1,-1.331477880E0,4.171117783E0,8.661588669E0
3.453661440E-1,-1.324295521E0,4.195058823E0,8.632858276E0
3.477320290E-1,-1.285990238E0,4.221394062E0,8.623282433E0
3.500971330E-1,-1.216561317E0,4.223788261E0,8.690317154E0
3.524622900E-1,-1.183043957E0,4.276458263E0,8.771716118E0
3.548281750E-1,-1.161496878E0,4.319551945E0,8.877056122E0
3.571941120E-1,-1.139950037E0,4.384192944E0,8.989579201E0
3.595592170E-1,-1.089673996E0,4.479956627E0,8.944091797E0
3.619243210E-1,-1.046580315E0,4.532626629E0,8.786081314E0
3.642902580E-1,-9.819394946E-1,4.558961868E0,8.618494987E0
3.666561960E-1,-8.670226932E-1,4.535020828E0,8.438936234E0
3.690213000E-1,-7.473178506E-1,4.549385548E0,8.278532982E0
3.713864040E-1,-7.042240500E-1,4.539809227E0,8.242621422E0
3.737522900E-1,-7.401356101E-1,4.556567669E0,8.261773109E0
3.761182270E-1,-7.329532504E-1,4.582902908E0,8.359931946E0
3.784833310E-1,-7.185887098E-1,4.580508709E0,8.472454071E0
3.808484350E-1,-7.305591702E-1,4.575720787E0,8.467666626E0
3.832143730E-1,-6.826772094E-1,4.602056026E0,8.431754112E0
3.855803100E-1,-6.156424284E-1,4.628390789E0,8.324020386E0
3.879454150E-1,-5.677604079E-1,4.647543907E0,8.209103584E0
3.903105190E-1,-5.366371870E-1,4.637967110E0,8.180374146E0
3.926764560E-1,-5.055138469E-1,4.671484470E0,8.130098343E0
3.950423420E-1,-4.887551665E-1,4.661908150E0,8.063063622E0
3.974074460E-1,-4.528437257E-1,4.635573387E0,7.957723618E0
3.997725500E-1,-4.145381451E-1,4.590085506E0,7.859565735E0
4.021384870E-1,-3.905971050E-1,4.551779747E0,7.751831055E0
4.045044250E-1,-3.810207248E-1,4.518262386E0,7.663249493E0
4.068695290E-1,-3.834148645E-1,4.434468746E0,7.612973690E0
4.092346330E-1,-3.618679643E-1,4.381798744E0,7.550726414E0
4.116005710E-1,-3.498975039E-1,4.355463505E0,7.510026932E0
4.139664560E-1,-3.618679643E-1,4.345887184E0,7.486085892E0
4.163315600E-1,-3.522915840E-1,4.336310863E0,7.442992687E0
4.186966650E-1,-3.163801432E-1,4.305187702E0,7.457356930E0
4.210626020E-1,-2.972273231E-1,4.254911423E0,7.450174332E0
4.234285400E-1,-2.804686427E-1,4.202241421E0,7.399898529E0
4.257936440E-1,-2.421630025E-1,4.142388821E0,7.375957489E0
4.281587480E-1,-1.894928813E-1,4.106477261E0,7.332863331E0
4.305246850E-1,-1.535813808E-1,4.068171501E0,7.328075409E0
4.328905710E-1,-8.894070983E-2,4.025077820E0,7.311316967E0
4.352556750E-1,-2.908825874E-2,4.005925179E0,7.311316967E0
4.376208310E-1,3.315833211E-2,4.003530979E0,7.325681686E0
4.399867170E-1,8.822259307E-2,3.967619896E0,7.395110607E0
4.423526540E-1,1.145576984E-1,3.960437536E0,7.433415890E0
4.447177580E-1,1.911688447E-1,3.938890457E0,7.510026932E0
4.470828620E-1,2.558095157E-1,3.931708336E0,7.555514812E0
4.494488000E-1,3.515734673E-1,3.898190737E0,7.577062130E0
4.518147370E-1,4.688842893E-1,3.838338614E0,7.524391651E0
4.541798420E-1,6.029537916E-1,3.773697853E0,7.490874290E0
4.565449460E-1,7.370233536E-1,3.709057093E0,7.493268490E0
4.589108310E-1,8.998220563E-1,3.630051851E0,7.507633209E0
4.612767690E-1,1.043467999E0,3.524711609E0,7.572273731E0
4.636418730E-1,1.184719801E0,3.419371128E0,7.656066895E0
4.660069770E-1,1.342730284E0,3.323607206E0,7.706343174E0
4.683729150E-1,1.491164446E0,3.254178286E0,7.763801575E0
4.707388520E-1,1.665933609E0,3.165596724E0,7.773377895E0
4.731039560E-1,1.871826172E0,3.096167803E0,7.775772095E0
4.754690600E-1,2.111236095E0,3.019556522E0,7.794925213E0
4.778349980E-1,2.365010500E0,2.954916000E0,7.775772095E0
4.802008830E-1,2.645120144E0,2.902245760E0,7.739860535E0
4.825659870E-1,2.858194828E0,2.839999199E0,7.701554775E0
4.849310920E-1,3.059299231E0,2.760993958E0,7.675220013E0
4.872970290E-1,3.226886034E0,2.672412395E0,7.711131573E0
4.896629670E-1,3.332226515E0,2.595801353E0,7.739860535E0
4.920280710E-1,3.480660677E0,2.598195314E0,7.617761612E0
4.943931750E-1,3.605153799E0,2.737053156E0,7.361593246E0
4.967591120E-1,3.715282202E0,2.923792839E0,7.162882328E0
4.991249980E-1,4.495758533E0,3.012374401E0,7.115001202E0
5.014901020E-1,5.209199905E0,3.505558729E0,7.258646488E0
5.038552060E-1,4.955425262E0,4.235758781E0,6.834890842E0
5.062211440E-1,4.392812252E0,4.523050308E0,6.763068199E0
5.085870810E-1,3.703311920E0,4.719366074E0,7.150911808E0
5.109521850E-1,3.006628990E0,4.776824951E0,7.498056412E0
5.133172900E-1,2.250093699E0,4.384192944E0,7.708736897E0
5.156832270E-1,1.876614332E0,4.288428783E0,7.761407375E0
5.180491120E-1,1.855067492E0,4.295611382E0,7.744648457E0
5.204142170E-1,1.948437452E0,4.163935661E0,7.818865776E0
5.227793730E-1,2.092083216E0,3.970013857E0,7.948146820E0
5.251452580E-1,2.228546858E0,3.697086573E0,8.070245743E0
5.275111960E-1,2.348251820E0,3.469647408E0,8.041516304E0
5.298763000E-1,2.379374981E0,3.244601965E0,7.936176300E0
5.322414040E-1,2.302763939E0,3.031527042E0,7.670431614E0
5.346073420E-1,2.135176897E0,2.844787598E0,7.431022167E0
5.369732790E-1,1.943649054E0,2.720294237E0,7.222734928E0
5.393383830E-1,1.855067492E0,2.844787598E0,7.124577045E0
5.417034870E-1,1.874220371E0,3.017162561E0,7.040783405E0
5.440693730E-1,1.941255093E0,3.258966446E0,6.954596043E0
5.464353100E-1,1.867038012E0,3.376277208E0,6.894743443E0
5.488004150E-1,1.780850410E0,3.371489286E0,6.880379200E0
5.511655190E-1,1.689874649E0,3.275725365E0,6.820526600E0
5.535314560E-1,1.665933609E0,3.163202524E0,6.779827118E0
5.558973420E-1,1.732968330E0,3.029133081E0,6.667304516E0
5.582624460E-1,1.855067492E0,2.892669439E0,6.480564594E0
5.606276020E-1,2.046595335E0,2.737053156E0,6.346495152E0
5.629935400E-1,2.309946299E0,2.593407154E0,6.138208389E0
5.653594250E-1,2.676243305E0,2.504825592E0,5.944286346E0
5.677245290E-1,3.088028431E0,2.404273272E0,5.656994343E0
5.700896330E-1,3.621912241E0,2.349209070E0,5.357732296E0
5.724555710E-1,4.177343369E0,2.303721189E0,5.103958130E0
5.748215080E-1,4.696862221E0,2.674806595E0,4.167864799E0
5.771866120E-1,5.398333549E0,3.531893730E0,1.831224918E0
5.795517170E-1,5.333693027E0,3.481617689E0,2.846322775E0
5.819176540E-1,5.259475708E0,3.428947449E0,3.440059185E0
5.842835400E-1,5.161317825E0,3.371489286E0,3.701015949E0
5.866486440E-1,5.053583145E0,3.340365887E0,3.902120352E0
5.890137480E-1,4.943454742E0,3.342760086E0,4.165471077E0
5.913796850E-1,4.747138977E0,3.479223490E0,4.366575718E0
5.937456230E-1,4.572369099E0,3.316424847E0,4.620349884E0
5.961107270E-1,4.419147015E0,3.321213007E0,4.886095047E0
5.984758310E-1,4.261136532E0,3.529499769E0,5.111139774E0
6.008417690E-1,4.179737091E0,3.615687370E0,5.367308617E0
6.032076540E-1,4.189313889E0,3.546258211E0,5.666571140E0
6.055727580E-1,4.258742332E0,3.584563971E0,5.891616344E0
6.079378620E-1,4.392812252E0,3.668357372E0,6.114267349E0
6.103038000E-1,4.613069057E0,3.721027613E0,6.272277832E0
6.126697370E-1,4.814173222E0,3.694692612E0,6.336918354E0
6.150348420E-1,5.022459984E0,3.730603933E0,6.327342510E0
6.173999460E-1,5.190046787E0,3.778486013E0,6.291430950E0
6.197658830E-1,5.242716789E0,3.809609175E0,6.257913589E0
6.221317690E-1,5.154135227E0,3.828762054E0,6.226789951E0
6.244968730E-1,5.000912666E0,3.852703094E0,6.229184151E0
6.268620290E-1,4.763897419E0,3.819185495E0,6.279460430E0
6.292279150E-1,4.416753292E0,3.656387091E0,6.293825150E0
6.315938520E-1,4.016938686E0,3.472041368E0,6.272277832E0
6.339589560E-1,3.612336159E0,3.321213007E0,6.085538387E0
6.363240600E-1,3.236462593E0,3.177567244E0,5.953863144E0
6.386899980E-1,2.898894548E0,3.065044641E0,5.783882141E0
6.410559350E-1,2.633149624E0,2.976462841E0,5.633053303E0
6.434209870E-1,2.365010500E0,2.899851799E0,5.566019058E0
6.457861440E-1,2.204605818E0,2.837605000E0,5.513348579E0
6.481520810E-1,2.046595335E0,2.725082636E0,5.455890656E0
6.505179670E-1,1.926890373E0,2.634106874E0,5.384067535E0
6.528830710E-1,1.821550131E0,2.504825592E0,5.319426537E0
6.552481750E-1,1.711421490E0,2.365967751E0,5.187751293E0
6.576141120E-1,1.586928368E0,2.227109909E0,5.108746052E0
6.599799980E-1,1.445676565E0,2.069099426E0,5.012981892E0
6.623451020E-1,1.297242403E0,1.867995143E0,5.293091297E0
6.647102580E-1,1.153596640E0,1.719560981E0,5.599536419E0
6.670761960E-1,1.093744040E0,1.528033137E0,5.513348579E0
6.694420810E-1,1.182325840E0,1.401145935E0,5.048893452E0
6.718071850E-1,1.369065285E0,1.202435732E0,4.560497284E0
6.741722900E-1,1.560593367E0,1.025272369E0,4.325875282E0
6.765382270E-1,1.766485929E0,8.481090069E-1,4.122377396E0
6.789041650E-1,1.972378254E0,6.733398438E-1,3.945214033E0
6.812692690E-1,2.235729218E0,5.440585017E-1,3.861420393E0
6.836343730E-1,2.623573303E0,4.746296406E-1,4.038583755E0
6.860003100E-1,3.083240271E0,3.884420991E-1,4.304328918E0
6.883661960E-1,3.329832315E0,4.363240600E-1,4.282782078E0
6.907313000E-1,3.308285475E0,6.158814430E-1,3.775233030E0
6.930964040E-1,3.150274992E0,7.044631243E-1,3.528640747E0
6.954623420E-1,3.006628990E0,7.307982445E-1,3.394571304E0
6.978282790E-1,2.877347708E0,7.786802053E-1,3.200649261E0
7.001933830E-1,2.834253788E0,8.098034859E-1,2.961239576E0
7.025584870E-1,2.898894548E0,8.505032063E-1,2.829564095E0
7.049244250E-1,3.064087391E0,9.031733274E-1,2.769711494E0
7.072903100E-1,3.281950235E0,9.582375288E-1,2.707464933E0
7.096554150E-1,3.547695398E0,1.013301849E0,2.707464933E0
7.120205190E-1,3.825410843E0,1.070760250E0,2.858293295E0
7.143864560E-1,4.026515007E0,1.068366170E0,3.059397459E0
7.167523940E-1,4.297048092E0,1.070760250E0,3.241348982E0
7.191174980E-1,4.534063816E0,1.044425130E0,3.428088665E0
7.214826020E-1,4.759109020E0,9.678139687E-1,3.607645988E0
7.238485400E-1,4.981760502E0,8.768382072E-1,3.751291990E0
7.262144250E-1,5.151741505E0,7.930448055E-1,3.859026432E0
7.285795290E-1,5.336086750E0,6.996749640E-1,3.973943233E0
7.309446330E-1,5.503674030E0,5.967286825E-1,4.072101116E0
7.333105710E-1,5.656896114E0,5.512408018E-1,4.198988438E0
7.356765080E-1,5.802936554E0,5.081470609E-1,4.325875282E0
7.380416120E-1,5.951370239E0,4.722355604E-1,4.469521523E0
7.404067170E-1,6.092622280E0,5.129352212E-1,4.536556721E0
7.427726540E-1,6.243450165E0,4.746296406E-1,4.641897202E0
7.451385400E-1,6.382308006E0,4.674473405E-1,4.694567204E0
7.475036440E-1,6.549894810E0,4.482945800E-1,4.730478287E0
7.498688000E-1,6.671993732E0,4.435063601E-1,4.749630928E0
7.522346850E-1,6.803669453E0,4.219594896E-1,4.780754566E0
7.546006230E-1,6.949709415E0,4.195653796E-1,4.809483528E0
7.569657270E-1,7.021532536E0,4.291417599E-1,4.799907684E0
7.593308310E-1,7.131660938E0,4.578709602E-1,4.766389847E0
7.616967690E-1,7.186725140E0,4.578709602E-1,4.711325645E0
7.640626540E-1,7.251365662E0,4.985706210E-1,4.689778328E0
7.664277580E-1,7.308824539E0,5.177234411E-1,4.673019886E0
7.687929150E-1,7.294459820E0,5.105411410E-1,4.637108326E0
7.711588000E-1,7.282489300E0,4.315358698E-1,4.574862003E0
7.735247370E-1,7.217848301E0,3.668951988E-1,4.447975159E0
7.758898420E-1,7.246577740E0,2.304315716E-1,4.232505798E0
7.782549460E-1,7.282489300E0,1.346676350E-1,3.916484833E0
7.806208830E-1,7.359100342E0,2.693319321E-2,3.588493347E0
7.829868210E-1,7.445287704E0,-8.080127835E-2,3.282048702E0
7.853519250E-1,7.509928226E0,-1.669888198E-1,2.994756699E0
7.877170290E-1,7.588933945E0,-2.388118207E-1,2.745770454E0
7.900829150E-1,7.624845505E0,-3.609108031E-1,2.539877892E0
7.924488520E-1,7.462046146E0,-6.338380575E-1,2.350744247E0
7.948139560E-1,7.354312420E0,-8.062132597E-1,2.254980326E0
7.971790600E-1,7.330371380E0,-9.642237425E-1,2.116122484E0
7.995449980E-1,7.318400860E0,-1.122234225E0,2.008388042E0
8.019109350E-1,7.299247742E0,-1.313762069E0,1.883895040E0
8.042760400E-1,7.323188782E0,-1.457407951E0,1.824042559E0
8.066411440E-1,7.409376144E0,-1.603448033E0,1.761795998E0
8.090070810E-1,7.497957706E0,-1.723152876E0,1.675608397E0
8.113729670E-1,7.636816025E0,-1.852434158E0,1.567873955E0
8.137380710E-1,7.773279190E0,-1.952986479E0,1.440986753E0
8.161031750E-1,7.971989632E0,-2.079873800E0,1.333252311E0
8.184691120E-1,8.180276871E0,-2.199578762E0,1.261429429E0
8.208350500E-1,8.448415756E0,-2.348012686E0,1.213547349E0
8.232001540E-1,8.742890358E0,-2.407865286E0,1.199182749E0
8.255652580E-1,9.042152405E0,-2.522781849E0,1.196788669E0
8.279311960E-1,9.353384972E0,-2.592210770E0,1.218335509E0
8.302970810E-1,9.609553337E0,-2.644881010E0,1.328464150E0
8.326621850E-1,9.829810143E0,-2.666427851E0,1.443380833E0
8.350272900E-1,9.995003700E0,-2.735856771E0,1.563085794E0
8.373932270E-1,1.018413734E1,-2.786132812E0,1.627726436E0
8.397591650E-1,1.043791103E1,-2.795709133E0,1.682790756E0
8.421242690E-1,1.075393295E1,-2.786132812E0,1.771372437E0
8.444893730E-1,1.111304760E1,-2.752615452E0,1.907835960E0
8.468553100E-1,1.148173904E1,-2.733462811E0,2.013176441E0
8.492211960E-1,1.179776001E1,-2.728674412E0,2.104151964E0
8.515863000E-1,1.203716946E1,-2.726280451E0,2.111334562E0
8.539514040E-1,1.224545670E1,-2.783738613E0,2.049087763E0
8.563173420E-1,1.234840202E1,-2.838803053E0,1.974870682E0
8.586832790E-1,1.249683666E1,-2.929778814E0,1.855165839E0
8.610483830E-1,1.261893559E1,-3.025542736E0,1.682790756E0
8.634134870E-1,1.277215862E1,-3.114124537E0,1.534356594E0
8.657794250E-1,1.291819859E1,-3.226646900E0,1.373952031E0
8.681453100E-1,1.315281963E1,-3.363110781E0,1.225517869E0
8.705104150E-1,1.343532372E1,-3.463662624E0,1.089054227E0
8.728755190E-1,1.369149208E1,-3.547456264E0,9.286496043E-1
8.752414560E-1,1.398117828E1,-3.624067545E0,8.089447021E-1
8.776073940E-1,1.427086449E1,-3.650402308E0,7.347276211E-1
8.799724980E-1,1.452463818E1,-3.693495989E0,6.269931197E-1
8.823376020E-1,1.469461918E1,-3.743772268E0,5.431997180E-1
8.847035400E-1,1.483587170E1,-3.794048548E0,4.187065661E-1
8.870694250E-1,1.493163490E1,-3.870659590E0,2.032376826E-1
8.894345290E-1,1.502979374E1,-3.920935392E0,1.410387456E-2
8.917996850E-1,1.509443474E1,-4.031064034E0,-1.582712233E-1
8.941655710E-1,1.510640430E1,-4.093311310E0,-3.569814265E-1
8.965315080E-1,1.513992119E1,-4.148375034E0,-5.892090201E-1
8.988966120E-1,1.518780327E1,-4.155557632E0,-8.621362448E-1
9.012617170E-1,1.523807907E1,-4.169922352E0,-1.206886530E0
9.036276540E-1,1.531469154E1,-4.169922352E0,-1.525301576E0
9.059935400E-1,1.541763687E1,-4.162739754E0,-1.884416342E0
9.083586440E-1,1.550143051E1,-4.165133476E0,-2.233954668E0
9.107238000E-1,1.560677147E1,-4.224986076E0,-2.571522713E0
9.130896850E-1,1.571689892E1,-4.301597595E0,-2.875573158E0
9.154556230E-1,1.582463455E1,-4.344691277E0,-3.203564644E0
9.178207270E-1,1.594673347E1,-4.426090717E0,-3.466915846E0
9.201858310E-1,1.601616096E1,-4.464396000E0,-3.711113691E0
9.225517690E-1,1.609756088E1,-4.500307560E0,-3.957705975E0
9.249177060E-1,1.618614197E1,-4.524248600E0,-4.139657497E0
9.272828100E-1,1.627233124E1,-4.507490158E0,-4.240209579E0
9.296479150E-1,1.641837120E1,-4.476366520E0,-4.347943783E0
9.320138000E-1,1.659553337E1,-4.445243835E0,-4.359914303E0
9.343797370E-1,1.676072693E1,-4.382996559E0,-4.340761662E0
9.367448420E-1,1.689479637E1,-4.337509155E0,-4.371884823E0
9.391099460E-1,1.706477547E1,-4.311174393E0,-4.383855343E0
9.414758830E-1,1.721560669E1,-4.299203873E0,-4.429343700E0
9.438418210E-1,1.735925102E1,-4.318356037E0,-4.458072662E0
9.462069250E-1,1.741670990E1,-4.380602837E0,-4.493984222E0
9.485720290E-1,1.742149925E1,-4.481155396E0,-4.441314220E0
9.509379670E-1,1.744543839E1,-4.552977562E0,-4.371884823E0
9.533038520E-1,1.749571419E1,-4.617618561E0,-4.331185341E0
9.556689560E-1,1.765612030E1,-4.600859642E0,-4.268939018E0
9.580340600E-1,1.777342987E1,-4.507490158E0,-4.233027458E0
9.603999980E-1,1.789313507E1,-4.397361755E0,-4.201903820E0
9.627659350E-1,1.801523399E1,-4.248927116E0,-4.252180099E0
9.651310400E-1,1.801044655E1,-4.174710274E0,-4.290485382E0
9.674961440E-1,1.802720451E1,-4.124433994E0,-4.307244301E0
9.698620810E-1,1.792904663E1,-4.145981312E0,-4.367096901E0
9.722279670E-1,1.783328247E1,-4.167528152E0,-4.376673222E0
9.745930710E-1,1.768005943E1,-4.234562874E0,-4.424554825E0
9.769581750E-1,1.750289536E1,-4.313568115E0,-4.438920021E0
9.793241120E-1,1.729700470E1,-4.433273315E0,-4.510743141E0
9.816900500E-1,1.716772461E1,-4.562554359E0,-4.565806866E0
9.840551540E-1,1.706717110E1,-4.655924320E0,-4.666358948E0
9.864202580E-1,1.707196045E1,-4.742111683E0,-4.778882027E0
9.887861960E-1,1.709829521E1,-4.837875843E0,-4.910556793E0
9.911520810E-1,1.720363426E1,-4.909698486E0,-5.099690914E0
9.935171850E-1,1.727306366E1,-4.952792168E0,-5.300795555E0
9.958822900E-1,1.733530998E1,-4.995886326E0,-5.470776558E0
9.982482270E-1,1.738319206E1,-4.991098404E0,-5.619210720E0
1.000614165E0,1.741910362E1,-4.955186844E0,-5.738915443E0
1.002979269E0,1.739995003E1,-4.924063206E0,-5.880167007E0
1.005344373E0,1.739516258E1,-4.892940044E0,-5.980719566E0
1.007710310E0,1.735925102E1,-4.837875843E0,-6.110000610E0
1.010076196E0,1.733770370E1,-4.840269566E0,-6.222523689E0
1.012441300E0,1.734009743E1,-4.840269566E0,-6.385322094E0
1.014806404E0,1.733052254E1,-4.828299046E0,-6.562485695E0
1.017172342E0,1.739276886E1,-4.663106918E0,-6.720496178E0
1.019538279E0,1.756514359E1,-4.404543877E0,-6.746830940E0
1.021903383E0,1.792904663E1,-4.107675552E0,-6.684584618E0
1.024268487E0,1.849166107E1,-3.810806990E0,-6.588820457E0
1.026634425E0,1.903272629E1,-3.604914427E0,-6.574456215E0
1.029000310E0,1.934395790E1,-3.513938665E0,-6.643884659E0
1.031365415E0,1.942057037E1,-3.521121264E0,-6.876112461E0
1.033730519E0,1.927692413E1,-3.585761786E0,-7.240015507E0
1.036096456E0,1.908778954E1,-3.674343348E0,-7.658982277E0
1.038462394E0,1.891781044E1,-3.782078028E0,-8.092314720E0
1.040827498E0,1.880528641E1,-3.899389029E0,-8.456217766E0
1.043192602E0,1.863530540E1,-4.016699791E0,-8.798574448E0
1.045558540E0,1.847011185E1,-4.122040272E0,-9.023619652E0
1.047924425E0,1.826422119E1,-4.177103996E0,-9.210359573E0
1.050289529E0,1.802481079E1,-4.232168674E0,-9.377946854E0
1.052654633E0,1.783806992E1,-4.208227634E0,-9.492862701E0
1.055020571E0,1.757950783E1,-4.119646072E0,-9.638902664E0
1.057386508E0,1.729461098E1,-4.038246632E0,-9.729878426E0
1.059751612E0,1.706477547E1,-3.904176950E0,-9.727484703E0
1.062116717E0,1.684930801E1,-3.806019068E0,-9.660449028E0
1.064482654E0,1.652371025E1,-3.715043306E0,-9.473709106E0
1.066848540E0,1.620050621E1,-3.616884947E0,-9.253452301E0
1.069213644E0,1.588687992E1,-3.590549946E0,-9.037983894E0
1.071578748E0,1.554213047E1,-3.628855467E0,-8.767450333E0
1.073944685E0,1.514231586E1,-3.693495989E0,-8.465794563E0
1.076310623E0,1.462040234E1,-3.767713308E0,-8.106679916E0
1.078675727E0,1.415834141E1,-3.870659590E0,-7.687712193E0
1.081040831E0,1.371303940E1,-3.968817472E0,-7.235227108E0
1.083406769E0,1.333955956E1,-4.107675552E0,-6.787530422E0
1.085772654E0,1.301635647E1,-4.301597595E0,-6.378139973E0
1.088137758E0,1.271709347E1,-4.509884357E0,-6.026207447E0
1.090502862E0,1.243937874E1,-4.773235321E0,-5.422894478E0
1.092868800E0,1.209702206E1,-5.094044209E0,-4.671147346E0
1.095234737E0,1.156792641E1,-5.393306732E0,-3.986435175E0
1.097599842E0,1.125908756E1,-5.690174580E0,-3.600985289E0
1.099964946E0,1.105558968E1,-5.996619701E0,-3.507615566E0
1.102330883E0,1.082575512E1,-6.276729107E0,-3.471704006E0
1.104696769E0,1.054804039E1,-6.496986389E0,-3.486068487E0
1.107061873E0,1.027990150E1,-6.702878475E0,-3.454945326E0
1.109427029E0,9.985426903E0,-6.839342117E0,-3.426215887E0
1.111792915E0,9.839386940E0,-6.951864719E0,-3.289752483E0
1.114158852E0,9.690953255E0,-7.040446758E0,-3.043160200E0
1.116523956E0,9.537730217E0,-7.095510483E0,-2.772626877E0
1.118889060E0,9.446755409E0,-7.200850964E0,-2.461394310E0
1.121254998E0,9.415631294E0,-7.320556164E0,-2.131008387E0
1.123620883E0,9.461119652E0,-7.404349804E0,-1.834140420E0
1.125985987E0,9.516182899E0,-7.480960846E0,-1.542060256E0
1.128351092E0,9.616736412E0,-7.545601368E0,-1.276315331E0
1.130717029E0,9.705317497E0,-7.581512928E0,-1.022540927E0
1.133082967E0,9.690953255E0,-7.583906651E0,-8.142542839E-1
1.135448071E0,9.643071175E0,-7.521660328E0,-6.753965616E-1
1.137813175E0,9.556882858E0,-7.466596127E0,-5.413269997E-1
1.140179112E0,9.532942772E0,-7.370831966E0,-4.527453780E-1
1.142544998E0,9.516182899E0,-7.291826725E0,-3.450109363E-1
1.144910102E0,9.406055450E0,-7.174516201E0,-2.061532140E-1
1.147275206E0,9.295926094E0,-7.030870438E0,-6.968957186E-2
1.149641144E0,9.341414452E0,-6.920741558E0,1.338088214E-1
1.152007081E0,9.362961769E0,-6.808218479E0,2.583019435E-1
1.154372185E0,9.463513374E0,-6.750760555E0,4.618003666E-1
1.156737290E0,9.549701691E0,-6.676543713E0,6.485400796E-1
1.159103227E0,9.671800613E0,-6.688514233E0,8.472502828E-1
1.161469112E0,9.497031212E0,-6.645420074E0,9.908962250E-1
1.163834217E0,9.413237572E0,-6.604720592E0,1.093842387E0
1.166199321E0,9.221709251E0,-6.489803791E0,1.211153269E0
1.168565258E0,9.063699722E0,-6.408404827E0,1.330858111E0
1.170931196E0,9.030180931E0,-6.403616428E0,1.407469392E0
1.173296300E0,8.977511406E0,-6.396434307E0,1.419439912E0
1.175661404E0,8.943994522E0,-6.410798550E0,1.448168993E0
1.178027342E0,8.939206123E0,-6.453892231E0,1.484080553E0
1.180393227E0,8.977511406E0,-6.542474270E0,1.512809753E0
1.182758331E0,8.987088203E0,-6.654996872E0,1.493656874E0
1.185123435E0,8.864989281E0,-6.736396313E0,1.443380833E0
1.187489373E0,8.570514679E0,-6.736396313E0,1.359587431E0
1.189855310E0,8.278434753E0,-6.674149036E0,1.184818149E0
1.192220415E0,8.113241196E0,-6.508956909E0,1.029201746E0
1.194585519E0,7.713426590E0,-6.180965424E0,1.017231226E0
1.196951456E0,7.409376144E0,-5.793121338E0,1.187212229E0
1.199317342E0,7.699062347E0,-5.575258255E0,1.567873955E0
1.201682446E0,8.740495682E0,-5.592016697E0,1.919806480E0
1.204047602E0,9.798686981E0,-5.644687176E0,2.420172930E0
1.206413487E0,1.070365620E1,-5.632716656E0,2.956451178E0
1.208779425E0,1.149370956E1,-5.510617256E0,3.226984501E0
1.211144529E0,1.225024414E1,-5.893673420E0,4.131953716E0
1.213509633E0,1.221193886E1,-6.554444790E0,4.945947647E0
1.215875571E0,1.063183308E1,-6.877647877E0,5.127899170E0
1.218241456E0,9.018211365E0,-6.643026352E0,4.452763081E0
1.220606560E0,8.256887436E0,-5.797909260E0,3.188678741E0
1.222971665E0,8.034236908E0,-4.720564842E0,2.307650566E0
1.225337602E0,7.849890232E0,-3.765319109E0,2.231039286E0
1.227703540E0,8.438838959E0,-3.233829260E0,2.626065493E0
1.230068644E0,9.956698418E0,-3.224252939E0,3.128826141E0
1.232433748E0,1.175227261E1,-3.600126505E0,3.875785351E0
1.234799685E0,1.317915535E1,-4.090916634E0,4.696960926E0
1.237165571E0,1.331322384E1,-4.382996559E0,4.318693638E0
1.239530675E0,1.214251041E1,-5.084467888E0,3.983519554E0
1.241895779E0,1.041157627E1,-5.414853573E0,3.217407942E0
1.244261717E0,8.848230362E0,-5.615957737E0,2.353138208E0
1.246627654E0,7.517110825E0,-5.280783653E0,1.543933034E0
1.248992758E0,6.643264771E0,-4.497913837E0,6.437518597E-1
1.251357862E0,6.444554806E0,-3.662372828E0,-4.695040584E-1
1.253723800E0,6.554683208E0,-3.135671139E0,-1.357714772E0
1.256089685E0,6.588200092E0,-3.066242456E0,-1.738376379E0
1.258454790E0,6.729452133E0,-3.363110781E0,-1.700070858E0
1.260819946E0,7.047867298E0,-3.846718550E0,-1.479813695E0
1.263185831E0,7.356706142E0,-4.124433994E0,-1.082393408E0
1.265551769E0,7.593721867E0,-4.184286594E0,-6.035736203E-1
1.267916873E0,7.476411343E0,-4.485943317E0,1.481734216E-1
1.270281977E0,7.531475544E0,-4.737323761E0,9.142850041E-1
1.272647915E0,7.404588223E0,-4.969551086E0,1.347616911E0
1.275013800E0,7.337553501E0,-5.041374207E0,1.594208956E0
1.277378904E0,7.232213497E0,-5.048556328E0,1.697155237E0
1.279744008E0,7.011955738E0,-4.983915806E0,1.575056314E0
1.282109946E0,6.741422653E0,-5.108408928E0,1.488868713E0
1.284475883E0,6.490042210E0,-5.278389931E0,1.448168993E0
1.286840987E0,5.989675999E0,-5.393306732E0,1.498445153E0
1.289206092E0,5.484520912E0,-5.489070892E0,1.146512628E0
1.291572029E0,5.269052505E0,-5.606381416E0,5.671406984E-1
1.293937915E0,5.029642105E0,-5.723692417E0,-1.343302429E-1
1.296303019E0,4.986548424E0,-5.790727139E0,-4.742922783E-1
1.298668123E0,4.991336823E0,-5.817062378E0,-6.418792009E-1
1.301034060E0,5.151741505E0,-5.912826061E0,-2.061532140E-1
1.303399998E0,5.453397751E0,-5.824244022E0,2.511196733E-1
1.305765102E0,5.886729717E0,-5.735662937E0,7.347276211E-1
1.308130206E0,6.341608524E0,-5.668627739E0,1.290158510E0
1.310496144E0,6.667205811E0,-5.575258255E0,1.637302876E0
1.312862029E0,6.722270012E0,-5.496252537E0,1.725884557E0
1.315227133E0,6.806063175E0,-5.362183094E0,1.938959241E0
1.317592237E0,6.897039413E0,-5.268813610E0,1.936565161E0
1.319958175E0,7.126873016E0,-5.220931530E0,1.826436639E0
1.322324112E0,7.198695660E0,-5.098832130E0,1.661243916E0
1.324689217E0,6.916192055E0,-5.144320011E0,1.472110033E0
1.327054321E0,6.693541050E0,-5.125167847E0,1.182424188E0
1.329420258E0,6.674387932E0,-5.079679489E0,8.831617832E-1
1.331786144E0,6.791698933E0,-5.101226807E0,8.903440237E-1
1.334151248E0,7.174754620E0,-4.962368488E0,8.544325829E-1
1.336516352E0,7.450075626E0,-4.904910088E0,9.597728848E-1
1.338882290E0,7.435711384E0,-4.912092686E0,1.043566346E0
1.341248227E0,7.237001419E0,-4.986309528E0,1.081871867E0
1.343613331E0,7.208272457E0,-5.072497368E0,1.098630667E0
1.345978435E0,7.069414139E0,-5.137138367E0,9.047086239E-1
1.348344373E0,7.016744137E0,-5.010250568E0,5.120764375E-1
1.350710258E0,7.181936741E0,-4.914486885E0,4.354652464E-1
1.353075362E0,7.569780827E0,-4.732535362E0,4.474357665E-1
1.355440467E0,7.725397110E0,-4.603254318E0,4.905295372E-1
1.357806404E0,7.667938709E0,-4.713382721E0,7.466980815E-1
1.360172342E0,7.531475544E0,-4.789993763E0,8.831617832E-1
1.362537446E0,7.514716625E0,-4.828299046E0,8.113387823E-1
1.364902550E0,7.421346664E0,-4.837875843E0,6.317813993E-1
1.367268487E0,7.536263943E0,-4.816328526E0,6.868456602E-1
1.369634373E0,7.569780827E0,-4.785205841E0,7.203630209E-1
1.371999477E0,7.651180267E0,-4.722958565E0,8.903440237E-1
1.374364581E0,7.682303905E0,-4.773235321E0,1.057930827E0
1.376730519E0,7.792432308E0,-4.773235321E0,1.172847629E0
1.379096456E0,7.830737591E0,-4.782811165E0,1.261429429E0
1.381461560E0,7.809190750E0,-4.775629044E0,1.397892952E0
1.383826665E0,7.852284908E0,-4.751688004E0,1.591814995E0
1.386192602E0,8.170700073E0,-4.555372238E0,1.836012959E0
1.388558487E0,8.295193672E0,-4.490731239E0,2.084999323E0
1.390923592E0,8.407715797E0,-4.447637558E0,2.269345045E0
1.393288696E0,8.367015839E0,-4.349479675E0,2.298074007E0
1.395654633E0,8.395745277E0,-4.303991795E0,2.389049768E0
1.398020571E0,8.841048241E0,-4.153163433E0,2.731405973E0
1.400385675E0,8.999058723E0,-4.126828194E0,2.798440695E0
1.402750779E0,8.709372520E0,-4.100493431E0,2.695494413E0
1.405116717E0,8.163517952E0,-4.100493431E0,2.551848412E0
1.407482602E0,7.770885468E0,-4.083734512E0,2.372291327E0
1.409847706E0,7.663150787E0,-4.026276112E0,2.128093004E0
1.412212810E0,7.701456547E0,-4.009517670E0,1.924594641E0
1.414578748E0,7.739761829E0,-3.928117990E0,1.625332355E0
1.416944685E0,7.960019112E0,-3.796442270E0,1.776160479E0
1.419309790E0,8.788377762E0,-3.626461506E0,2.884628296E0
1.421674894E0,9.765170097E0,-3.463662624E0,3.973943233E0
1.424040831E0,1.011470795E1,-3.437327623E0,4.771178246E0
1.426406717E0,1.007400799E1,-3.487603664E0,5.355338097E0
1.428771821E0,9.700529099E0,-3.580973625E0,5.151840210E0
1.431136925E0,9.525760651E0,-3.549850225E0,4.694567204E0
1.433502862E0,1.012189007E1,-3.346351862E0,4.864548206E0
1.435868800E0,1.033975315E1,-3.236223459E0,5.008193970E0
1.438233904E0,9.722076416E0,-3.219464779E0,4.096042156E0
1.440599008E0,8.900899887E0,-3.317622662E0,3.140796661E0
1.442964946E0,8.453204155E0,-3.569003105E0,2.755347013E0
1.445330831E0,8.295193672E0,-3.669555426E0,2.333985567E0
1.447695935E0,7.761308670E0,-3.822777510E0,1.388316512E0
1.450061040E0,7.038291454E0,-3.920935392E0,2.559078634E-1
1.452426977E0,6.545106888E0,-4.028670311E0,-3.282522559E-1
1.454792915E0,6.590594769E0,-3.999941111E0,2.128617465E-2
1.457158019E0,7.610480785E0,-3.717437029E0,1.534356594E0
1.459523123E0,8.692613602E0,-3.437327623E0,2.882234335E0
1.461889060E0,9.626312256E0,-3.217070818E0,4.570074081E0
1.464254946E0,1.050494671E1,-2.953719616E0,6.384800434E0
1.466620050E0,1.115853500E1,-2.680792570E0,7.828442097E0
1.468985154E0,1.130457497E1,-2.520387888E0,8.558641434E0
1.471351092E0,1.079223824E1,-2.544328928E0,7.344833851E0
1.473717029E0,1.063662243E1,-2.539540768E0,6.032867908E0
1.476082133E0,1.012667942E1,-2.824438572E0,4.218141556E0
1.478447237E0,8.943994522E0,-3.068636417E0,3.047426939E0
1.480813175E0,9.228892326E0,-2.812468052E0,3.392177343E0
1.483179060E0,8.457992554E0,-3.123700619E0,3.025880098E0
1.485544165E0,6.808457851E0,-3.513938665E0,1.687578917E0
1.487909269E0,5.989675999E0,-3.693495989E0,7.299394011E-1
1.490275206E0,4.993731022E0,-3.896994352E0,-7.711604834E-1
1.492641144E0,3.942721605E0,-4.174710274E0,-2.164525986E0
1.495006248E0,3.418414116E0,-4.406937599E0,-3.069495201E0
1.497371352E0,3.487842798E0,-4.430878639E0,-2.990489960E0
1.499737290E0,3.169427872E0,-4.660712242E0,-3.505221128E0
1.502103175E0,1.498346806E0,-4.916880608E0,-4.910556793E0
1.504468279E0,2.805524826E0,-4.361450195E0,-3.093436241E0
1.506833383E0,4.323382854E0,-4.232168674E0,-2.779761851E-1
1.509199321E0,3.645853281E0,-4.289627075E0,-3.306463361E-1
1.511565258E0,4.275501251E0,-4.126828194E0,7.012102008E-1
1.513930362E0,5.044006824E0,-3.992758512E0,1.881500840E0
1.516295467E0,5.539585114E0,-3.873053312E0,2.355532408E0
1.518661352E0,6.312879562E0,-3.588155985E0,2.580577850E0
1.521027290E0,6.679176331E0,-3.549850225E0,2.736194372E0
1.523392394E0,7.157995701E0,-3.485209703E0,3.863814831E0
1.525757498E0,8.601637840E0,-3.408598423E0,6.614634037E0
1.528123435E0,8.414897919E0,-3.511544704E0,6.181302071E0
1.530489321E0,8.194641113E0,-3.489997864E0,6.071173668E0
1.532854425E0,8.314346313E0,-3.427751303E0,6.585905075E0
1.535219581E0,8.553756714E0,-3.336775541E0,7.545938492E0
1.537585467E0,8.735707283E0,-3.267346621E0,8.527518272E0
1.539951404E0,8.850624084E0,-3.090183496E0,9.039855957E0
1.542316508E0,8.249705315E0,-3.118912458E0,7.761407375E0
1.544681612E0,6.466101170E0,-3.250587940E0,5.008193970E0
1.547047550E0,5.680837154E0,-3.389445782E0,3.241348982E0
1.549413435E0,5.858000278E0,-3.461268663E0,2.424961329E0
1.551778540E0,6.176415443E0,-3.513938665E0,1.747431397E0
1.554143644E0,6.609747410E0,-3.557032824E0,1.203971028E0
1.556509581E0,6.758181095E0,-3.600126505E0,8.783735037E-1
1.558875519E0,5.139770985E0,-5.412459373E0,1.366769671E0
1.561240623E0,5.834059238E0,-5.106014729E0,6.700869203E-1
1.563605727E0,7.675121307E0,-3.401416302E0,-3.114935458E-1
1.565971665E0,8.764436722E0,-1.885951757E0,-1.015358567E0
1.568337550E0,8.563332558E0,-8.588833809E-1,-1.168580890E0
1.570702654E0,7.447681904E0,-6.362321377E-1,-8.477717042E-1
1.573067758E0,6.078257561E0,-6.362321377E-1,-9.698706865E-1
1.575433696E0,4.969789982E0,-1.074352264E0,-1.482207894E0
1.577799633E0,4.423935413E0,-1.670482874E0,-1.750346899E0
1.580164737E0,4.646586418E0,-2.017627239E0,-1.613883257E0
1.582529842E0,5.355239868E0,-2.134938002E0,-8.980477452E-1
1.584895779E0,6.039951801E0,-2.151696682E0,-2.037591040E-1
1.587261665E0,6.353579044E0,-2.228307724E0,2.152081728E-1
1.589626769E0,6.516377449E0,-2.324071646E0,6.820574403E-1
1.591991873E0,6.140503883E0,-2.484476566E0,8.304915428E-1
1.594357810E0,5.573102951E0,-2.728674412E0,4.570121765E-1
1.596723748E0,5.278628349E0,-2.869926214E0,3.516718149E-1
1.599088852E0,5.163712025E0,-2.901049376E0,3.684304953E-1
1.601453956E0,5.316934109E0,-2.778950453E0,5.599583983E-1
1.603819894E0,5.843636036E0,-2.587422609E0,1.005260706E0
1.606185779E0,6.257814884E0,-2.407865286E0,1.376346111E0
1.608550883E0,6.533136368E0,-2.269007444E0,1.601391435E0
1.610915987E0,6.683964252E0,-2.225913763E0,1.764189959E0
1.613281925E0,6.789304733E0,-2.190002203E0,1.946141601E0
1.615647862E0,6.863522053E0,-2.185214043E0,2.051481962E0
1.618012967E0,6.909009933E0,-2.230701923E0,2.084999323E0
1.620378071E0,6.966468334E0,-2.328860044E0,2.128093004E0
1.622744008E0,7.150814056E0,-2.415047407E0,2.247797966E0
1.625109894E0,7.406982422E0,-2.537146568E0,2.314832687E0
1.627474998E0,7.615268707E0,-2.704733372E0,2.341167688E0
1.629840102E0,7.665544987E0,-2.889078856E0,2.326803207E0
1.632206040E0,7.521898746E0,-3.025542736E0,2.228645325E0
1.634571977E0,7.474016666E0,-3.157218218E0,2.202310324E0
1.636937081E0,7.414165020E0,-3.217070818E0,2.257374525E0
1.639302185E0,7.514716625E0,-3.269740820E0,2.369897127E0
1.641668123E0,7.557810307E0,-3.272135019E0,2.422567368E0
1.644034008E0,7.749338150E0,-3.243405819E0,2.530301809E0
1.646399112E0,8.036630630E0,-3.193129778E0,2.657188892E0
1.648764217E0,8.158729553E0,-3.140459538E0,2.535089731E0
1.651130154E0,8.086906433E0,-3.039907217E0,2.156822205E0
1.653496040E0,7.931289673E0,-3.020754576E0,1.347616911E0
1.655861144E0,7.632027149E0,-2.908231974E0,2.463314831E-1
1.658226300E0,6.703117371E0,-2.841197014E0,-2.564292848E-1
1.660592185E0,6.169233322E0,-2.764585972E0,4.378593564E-1
1.662958123E0,6.341608524E0,-2.642487049E0,1.242276549E0
1.665323227E0,6.545106888E0,-2.563481808E0,1.768978238E0
1.667688331E0,6.887462616E0,-2.486870527E0,1.924594641E0
1.670054269E0,7.160390377E0,-2.491658688E0,1.998811722E0
1.672420154E0,7.071808338E0,-2.613757610E0,2.120910645E0
1.674785258E0,6.868309975E0,-2.790920973E0,2.113728523E0
1.677150362E0,6.480465889E0,-3.118912458E0,1.958112001E0
1.679516300E0,6.166839123E0,-3.480421543E0,2.152034044E0
1.681882237E0,5.826877117E0,-3.880235910E0,2.709858894E0
1.684247342E0,5.491703510E0,-4.232168674E0,3.136008739E0
1.686612446E0,5.482126713E0,-4.426090717E0,2.977998257E0
1.688978383E0,5.632955551E0,-4.538613319E0,2.549454451E0
1.691344269E0,5.556344032E0,-4.612830162E0,2.243009806E0
1.693709373E0,5.479732990E0,-4.631983280E0,1.833618879E0
1.696074477E0,5.427062988E0,-4.646347523E0,1.826436639E0
1.698440415E0,5.498885632E0,-4.672682762E0,1.706731796E0
1.700806352E0,6.525953770E0,-4.308779716E0,2.128093004E0
1.703171456E0,7.404588223E0,-4.047823429E0,1.768978238E0
1.705536560E0,7.172360897E0,-3.803624868E0,-6.682142615E-1
1.707902498E0,9.295926094E0,-3.205100298E0,1.168059468E0
1.710268383E0,1.093349075E1,-2.525176048E0,1.019625425E0
1.712633487E0,1.196295261E1,-2.053538799E0,4.953177571E-1
1.714998592E0,1.220475674E1,-1.759064436E0,2.607437223E-2
1.717364529E0,1.164214325E1,-1.773428917E0,-2.588233650E-1
1.719730467E0,1.036848354E1,-2.094238281E0,-3.258581460E-1
1.722095571E0,9.195374489E0,-2.529964209E0,1.984494925E-1
1.724460675E0,8.055783272E0,-3.003995657E0,3.923714757E-1
1.726826612E0,7.241789341E0,-3.406204462E0,4.330711663E-1
1.729192498E0,6.736634731E0,-3.803624868E0,4.618003666E-1
1.731557602E0,6.820428371E0,-4.220198154E0,6.389636397E-1
1.733922706E0,7.102931976E0,-4.732535362E0,1.055536866E0
1.736288644E0,7.584146023E0,-5.027009487E0,1.417045712E0
1.738654581E0,8.323923111E0,-5.319089890E0,1.994023561E0
1.741019685E0,8.979905128E0,-5.355000973E0,2.456084490E0
1.743384790E0,9.695741653E0,-5.204172611E0,2.697888613E0
1.745750675E0,1.009555531E1,-5.101226807E0,2.997150898E0
1.748116612E0,1.078744984E1,-4.888151646E0,3.399359465E0
1.750481717E0,1.110107708E1,-4.804358006E0,3.203043461E0
1.752846821E0,1.140273285E1,-4.622406483E0,3.344295263E0
1.755212758E0,1.155835056E1,-4.500307560E0,3.392177343E0
1.757578644E0,1.161820221E1,-4.433273315E0,3.315566063E0
1.759943748E0,1.156313801E1,-4.531431198E0,3.097702980E0
1.762308904E0,1.165411472E1,-4.677471161E0,2.714647293E0
1.764674790E0,1.166847801E1,-4.904910088E0,2.278921366E0
1.767040727E0,1.120162964E1,-5.149108887E0,1.946141601E0
1.769405831E0,1.091194344E1,-5.460340977E0,1.486474633E0
1.771770935E0,1.084730244E1,-5.757209778E0,1.065113306E0
1.774136873E0,1.072999191E1,-6.010984421E0,8.975263238E-1
1.776502758E0,1.064140987E1,-6.221664906E0,7.730332017E-1
1.778867862E0,1.077547932E1,-6.408404827E0,7.562745214E-1
1.781232967E0,1.057916355E1,-6.614296913E0,6.700869203E-1
1.783598904E0,1.023920155E1,-6.805824757E0,4.689826369E-1
1.785964842E0,1.005485630E1,-6.994958878E0,4.115242958E-1
1.788329946E0,9.839386940E0,-7.016505718E0,2.535137534E-1
1.790695050E0,9.449149132E0,-7.009323120E0,6.198585033E-2
1.793060987E0,9.252833366E0,-6.908771038E0,-4.096039385E-2
1.795426873E0,9.240861893E0,-6.765125275E0,-1.846063137E-1
1.797791977E0,9.305502892E0,-6.595144272E0,-1.989709139E-1
1.800157081E0,9.236074448E0,-6.465862751E0,-1.463007331E-1
1.802523019E0,9.171433449E0,-6.389251709E0,-1.151774526E-1
1.804888956E0,9.140310287E0,-6.291093826E0,-3.856629506E-2
1.807254060E0,8.960753441E0,-6.271940708E0,5.959174782E-2
1.809619165E0,8.833865166E0,-6.197723866E0,1.385970116E-1
1.811985102E0,8.654308319E0,-6.097171783E0,1.936612725E-1
1.814350987E0,8.699796677E0,-5.912826061E0,2.702724338E-1
1.816716092E0,8.690218925E0,-5.776362419E0,2.846370339E-1
1.819081196E0,8.620790482E0,-5.656657696E0,2.990016341E-1
1.821447133E0,8.460386276E0,-5.558499336E0,3.851892054E-1
1.823813071E0,8.041419029E0,-5.503435135E0,7.873977423E-1
1.826178175E0,7.509928226E0,-5.498646736E0,1.175241709E0
1.828543279E0,6.406249046E0,-5.472311497E0,2.140063524E0
1.830909217E0,6.401460648E0,-5.283178329E0,2.511148691E0
1.833275102E0,6.786911011E0,-5.055738926E0,2.171186686E0
1.835640206E0,6.767757893E0,-5.024615288E0,1.867136240E0
1.838005310E0,6.569047928E0,-5.180231571E0,1.668426156E0
1.840371248E0,6.569047928E0,-5.364577293E0,1.424227953E0
1.842737133E0,6.679176331E0,-5.474705696E0,1.306917310E0
1.845102237E0,6.133321762E0,-5.627928257E0,1.304523110E0
1.847467394E0,6.016010761E0,-5.668627739E0,1.697155237E0
1.849833279E0,5.319328308E0,-5.941555023E0,1.900653720E0
1.852199217E0,5.266657829E0,-5.943949223E0,8.017624021E-1
1.854564321E0,3.696129560E0,-5.857761860E0,1.397892952E0
1.856929425E0,2.147147417E0,-5.491464615E0,-3.138399869E-2
1.859295362E0,8.782752156E-1,-4.368632317E0,-2.485335350E0
1.861661248E0,1.983511448E-1,-3.068636417E0,-6.737254620E0
1.864026352E0,7.059000731E-1,-1.998474121E0,-1.027573299E1
1.866391456E0,2.209394217E0,-2.400682926E0,-8.556770325E0
1.868757394E0,4.957819462E0,-3.717437029E0,-5.535417080E0
1.871123331E0,7.737367630E0,-5.302330494E0,-1.563607216E0
1.873488435E0,8.876958847E0,-6.597537994E0,4.242082596E0
1.875853540E0,9.257621765E0,-7.406743526E0,5.589960098E0
1.878219477E0,9.061305046E0,-8.170460701E0,5.278727055E0
1.880585362E0,8.290405273E0,-8.342835426E0,4.574862003E0
1.882950467E0,7.500352383E0,-8.168066978E0,4.807089329E0
1.885315571E0,7.335159302E0,-7.844863415E0,4.943552971E0
1.887681508E0,7.737367630E0,-7.380408764E0,3.641163588E0
1.890047446E0,8.316740036E0,-6.963835239E0,2.798440695E0
1.892412550E0,8.254493713E0,-6.386857510E0,1.579844475E0
1.894777654E0,7.318400860E0,-6.111536026E0,1.608573675E0
1.897143592E0,5.204411507E0,-6.269546509E0,3.667498589E0
1.899509477E0,1.098532200E0,-6.779489517E0,1.095274067E1
1.901874581E0,7.758914948E0,-6.619085312E0,5.747970581E0
1.904239685E0,1.176424217E1,-7.806558132E0,1.761795998E0
1.906605623E0,1.275061131E1,-8.658856392E0,2.322015047E0
1.908971508E0,1.323661327E1,-9.085006714E0,3.538217306E0
1.911336612E0,1.368430901E1,-9.697896004E0,3.528640747E0
1.913701769E0,1.419185829E1,-9.985187531E0,1.958112001E0
1.916067706E0,1.413200665E1,-1.023178005E1,8.616148233E-1
1.918433592E0,1.344250488E1,-1.075129890E1,9.478023648E-1
1.920798696E0,1.241543770E1,-1.124687767E1,1.486474633E0
1.923163800E0,1.101488972E1,-1.175203228E1,1.948535681E0
1.925529737E0,9.741229057E0,-1.179273129E1,1.838407159E0
1.927895623E0,8.611214638E0,-1.131151772E1,1.024413466E0
1.930260727E0,7.691879749E0,-1.059568310E1,1.215941548E0
1.932625831E0,7.088567257E0,-9.894211769E0,1.682790756E0
1.934991769E0,7.107719898E0,-9.355539322E0,2.324409246E0
1.937357706E0,7.117296219E0,-8.675615311E0,-2.492469847E-1
1.939722810E0,6.918586254E0,-8.115396500E0,-3.189200163E0
1.942087915E0,6.734240532E0,-7.883169651E0,-4.096563816E0
1.944453852E0,6.454130650E0,-7.820922375E0,-4.137263298E0
1.946819737E0,6.279361725E0,-7.933445454E0,-3.864336014E0
1.949184842E0,6.106987000E0,-8.029209137E0,-3.691961050E0
1.951549946E0,6.030375481E0,-7.974145412E0,-3.624926329E0
1.953915883E0,5.965734959E0,-7.914292812E0,-3.500432968E0
1.956281821E0,6.032769680E0,-7.868804455E0,-3.340028524E0
1.958646925E0,6.047134399E0,-7.854440212E0,-2.889937878E0
1.961012029E0,5.846029758E0,-7.861622334E0,-2.413512230E0
1.963377967E0,5.532402992E0,-7.943021297E0,-1.934692502E0
1.965743852E0,5.374392509E0,-7.957386494E0,-1.709647298E0
1.968108956E0,5.055977345E0,-8.101031303E0,-1.688100338E0
1.970474060E0,4.601098537E0,-8.369171143E0,-1.463055015E0
1.972839998E0,5.051189423E0,-8.115396500E0,-1.233221650E0
1.975205935E0,5.441427231E0,-7.825710773E0,-1.151822209E0
1.977571040E0,5.869970798E0,-7.409137726E0,-1.008176327E0
1.979936144E0,6.068681240E0,-7.054811001E0,-1.020146847E0
1.982302081E0,6.365549564E0,-6.645420074E0,-8.190425038E-1
1.984667967E0,6.427795887E0,-6.523321152E0,-7.328549027E-1
1.987033071E0,6.535530090E0,-6.319822788E0,-7.448254228E-1
1.989398175E0,6.499619007E0,-6.386857510E0,-4.120456874E-1
1.991764112E0,6.502012730E0,-6.451498032E0,-1.415125430E-1
1.994130050E0,4.902754784E0,-7.356467724E0,2.966075540E-1
1.996495154E0,1.282877922E0,-9.238228798E0,6.748751402E-1
1.998860258E0,3.744011641E0,-7.998086452E0,4.546180367E-1
2.001226196E0,5.759842396E0,-6.939894199E0,5.575643182E-1
2.003592081E0,6.434978485E0,-6.396434307E0,1.053142786E0
2.005957185E0,3.930751085E0,-7.308585644E0,1.610967755E0
2.008322290E0,3.813440323E0,-6.767518997E0,1.438592672E0
2.010688227E0,4.342535973E0,-6.202512264E0,1.666031957E0
2.013054112E0,5.561132431E0,-5.314301014E0,1.699549437E0
2.015419217E0,5.316934109E0,-5.237689972E0,1.833618879E0
2.017784373E0,5.441427231E0,-4.830693245E0,1.661243916E0
2.020150258E0,4.569975376E0,-5.000674248E0,1.601391435E0
2.022516196E0,4.376053333E0,-4.756476402E0,1.551115274E0
2.024881300E0,5.668866634E0,-3.992758512E0,1.318887711E0
2.027246404E0,6.485254288E0,-3.669555426E0,1.227911949E0
2.029612342E0,6.602565289E0,-3.583367825E0,1.127359748E0
2.031978227E0,6.133321762E0,-3.703072786E0,1.086660147E0
2.034343331E0,7.078990936E0,-3.121306658E0,7.538803816E-1
2.036708435E0,6.126139164E0,-3.559426785E0,9.023144841E-1
2.039074373E0,7.478805542E0,-3.044695377E0,5.288351178E-1
2.041440310E0,7.179543018E0,-3.506756544E0,4.043419659E-1
2.043805415E0,7.746944427E0,-3.501968384E0,3.923714757E-1
2.046170519E0,8.388563156E0,-3.540273905E0,4.809531569E-1
2.048536456E0,8.570514679E0,-3.746166468E0,5.001059175E-1
2.050902342E0,8.103665352E0,-4.263292313E0,5.934757590E-1
2.053267446E0,9.044546127E0,-4.050217152E0,4.618003666E-1
2.055632550E0,9.355779648E0,-4.179498672E0,4.713767767E-1
2.057998487E0,8.958358765E0,-4.756476402E0,8.209151626E-1
2.060364425E0,8.264070511E0,-5.529770374E0,1.201576829E0
2.062729529E0,7.426135540E0,-6.281517029E0,1.400287032E0
2.065094633E0,7.672727108E0,-6.499380112E0,1.376346111E0
2.067460571E0,7.131660938E0,-7.085934162E0,1.397892952E0
2.069826456E0,6.274573803E0,-7.569542408E0,1.148906589E0
2.072191560E0,4.004968166E0,-8.448175430E0,9.190732241E-1
2.074556665E0,5.798147678E0,-7.320556164E0,1.244670630E0
2.076922602E0,5.577890873E0,-7.263097763E0,9.597728848E-1
2.079288540E0,4.926695824E0,-7.179304123E0,1.409911215E-1
2.081653644E0,6.837186813E0,-5.852973938E0,-1.391184330E-1
2.084018748E0,8.060571671E0,-4.976733208E0,-1.846063137E-1
2.086384633E0,7.292065144E0,-5.285572052E0,-1.223121025E-2
2.088750571E0,7.081384659E0,-5.417247772E0,9.071504325E-2
2.091115675E0,7.440499783E0,-5.156290531E0,1.816907823E-1
2.093480779E0,6.269785404E0,-5.678204060E0,-2.607163042E-4
2.095846717E0,7.421346664E0,-5.074891567E0,-2.181237042E-1
2.098212602E0,8.848230362E0,-4.327932835E0,-1.774240434E-1
2.100577706E0,7.703850269E0,-4.651136398E0,1.889207587E-2
2.102942862E0,5.436638832E0,-6.104353905E0,4.163124859E-1
2.105308748E0,7.047867298E0,-6.140264988E0,9.262555242E-1
2.107674685E0,7.095749378E0,-5.936767101E0,-4.814269021E-2
2.110039790E0,5.726325035E0,-6.384463787E0,-1.242797971E0
2.112404894E0,3.753587723E0,-6.695696354E0,-2.528429031E0
2.114770831E0,4.589128017E0,-5.807485580E0,-2.968943357E0
2.117136717E0,3.897233725E0,-5.177837849E0,-2.976125479E0
2.119501821E0,3.423202276E0,-4.742111683E0,-2.317748308E0
2.121866925E0,5.144558907E0,-3.774895906E0,-1.642612457E0
2.124232862E0,3.717676401E0,-4.519460678E0,-9.243828058E-1
2.126598800E0,4.028909206E0,-5.182625771E0,-4.503512681E-1
2.128963904E0,4.234801292E0,-6.228847027E0,-7.926597446E-2
2.131329008E0,3.533330917E0,-7.859228611E0,4.762125760E-2
2.133694946E0,3.818228483E0,-9.044306755E0,2.199963927E-1
2.136060831E0,4.514910698E0,-9.901393890E0,-1.774240434E-1
2.138425935E0,5.060765266E0,-1.046400738E1,-5.341447592E-1
2.140791040E0,5.070342064E0,-1.119899559E1,-1.917886138E-1
2.143156977E0,4.991336823E0,-1.179512596E1,-2.085473239E-1
2.145522862E0,4.680103779E0,-1.205129433E1,-1.917886138E-1
2.147887967E0,4.392812252E0,-1.217578793E1,4.762125760E-2
2.150253123E0,3.983421326E0,-1.254208469E1,5.862935185E-1
2.152619060E0,4.060032368E0,-1.250138569E1,6.365695596E-1
2.154984946E0,4.055243969E0,-1.239843845E1,7.538803816E-1
2.157350050E0,4.083973408E0,-1.238407516E1,9.166791439E-1
2.159715154E0,4.107914448E0,-1.229070473E1,1.012443066E0
2.162081092E0,4.488575935E0,-1.197947216E1,1.081871867E0
2.164446977E0,5.024853706E0,-1.166823864E1,1.074689627E0
2.166812081E0,5.271446228E0,-1.167781544E1,1.285370231E0
2.169177185E0,5.644925594E0,-1.145755863E1,9.645610452E-1
2.171543123E0,5.762236118E0,-1.142882919E1,6.150227189E-1
2.173909060E0,5.814906597E0,-1.138813019E1,3.061839342E-1
2.176274165E0,5.819694996E0,-1.137376499E1,1.673262119E-1
2.178639269E0,5.755054474E0,-1.153895760E1,2.607437223E-2
2.181005206E0,5.764630318E0,-1.136418915E1,-2.516410649E-1
2.183371092E0,5.520432472E0,-1.113196087E1,-3.761342168E-1
2.185736196E0,5.522826672E0,-1.102901459E1,-3.737401068E-1
2.188101300E0,5.434244633E0,-1.091649151E1,-3.785282969E-1
2.190467237E0,5.209199905E0,-1.078721046E1,-4.216220975E-1
2.192833175E0,4.672921181E0,-1.056455994E1,-4.264102578E-1
2.195198279E0,4.603492737E0,-1.032514954E1,-4.000751972E-1
2.197563383E0,4.486181736E0,-9.793660164E0,-5.485093594E-1
2.199929321E0,4.589128017E0,-9.154436111E0,-5.269624591E-1
2.202295206E0,4.713621140E0,-8.728285789E0,-3.904988170E-1
2.204660310E0,4.469423294E0,-8.321289062E0,-1.486948431E-1
2.207025415E0,4.364082813E0,-8.050755501E0,3.565076739E-2
2.209391352E0,5.491703510E0,-6.882436275E0,-8.501657248E-1
2.211757237E0,5.180470467E0,-6.662178516E0,-1.989709139E-1
2.214122342E0,5.175682545E0,-6.568809032E0,4.450416565E-1
2.216487498E0,5.178076267E0,-6.458680630E0,5.120764375E-1
2.218853383E0,4.953031063E0,-6.288699627E0,5.216528177E-1
2.221219321E0,4.562792778E0,-6.207300186E0,6.748751402E-1
2.223584425E0,4.289865971E0,-6.073230743E0,4.977118373E-1
2.225949529E0,3.971450806E0,-5.726086140E0,3.277308345E-1
2.228315467E0,4.241983891E0,-5.759603500E0,1.888730824E-1
2.230681352E0,4.730380058E0,-5.941555023E0,-5.048912019E-3
2.233046456E0,5.209199905E0,-6.116324425E0,-2.588233650E-1
2.235411560E0,5.604225636E0,-6.434739590E0,-6.323028207E-1
2.237777498E0,5.800541878E0,-6.966229916E0,-7.352490425E-1
2.240143435E0,6.202750683E0,-7.299009323E0,-9.411414862E-1
2.242508540E0,6.607353210E0,-7.524054527E0,-1.108728409E0
2.244873644E0,6.717481613E0,-7.883169651E0,-1.051270008E0
2.247239581E0,6.655235291E0,-8.005268097E0,-9.219887257E-1
2.249605467E0,6.621717930E0,-7.720370770E0,-8.334070444E-1
2.251970571E0,6.569047928E0,-7.243944645E0,-5.054155588E-1
2.254335675E0,6.502012730E0,-7.038052082E0,-1.582712233E-1
2.256701612E0,6.284149647E0,-7.121845722E0,1.505675018E-1
2.259067550E0,5.867576599E0,-7.387590885E0,3.109721243E-1
2.261432654E0,5.393545151E0,-7.691641331E0,2.942134440E-1
2.263797758E0,5.070342064E0,-7.945415974E0,2.104199827E-1
2.266163696E0,4.696862221E0,-8.321289062E0,2.247845829E-1
2.268529581E0,4.347323895E0,-8.661251068E0,1.433852017E-1
2.270894685E0,4.031303406E0,-8.948542595E0,-1.032069623E-1
2.273259790E0,3.751193762E0,-9.228652954E0,-4.240161777E-1
2.275625727E0,3.748799562E0,-9.456091881E0,-2.683997750E-1
2.277991612E0,3.681764841E0,-9.724230766E0,-7.443010807E-3
2.280356717E0,3.708100080E0,-9.915759087E0,3.565076739E-2
2.282721873E0,3.655429840E0,-9.958852768E0,-9.602466971E-2
2.285087758E0,3.818228483E0,-1.005222225E1,-4.838686585E-1
2.287453696E0,4.072002888E0,-1.002828217E1,-8.836831450E-1
2.289818800E0,4.409570694E0,-9.891818047E0,-1.388837934E0
2.292183904E0,4.682497978E0,-9.681137085E0,-1.606701016E0
2.294549842E0,4.862055302E0,-9.424968719E0,-1.678524017E0
2.296915727E0,5.022459984E0,-9.195135117E0,-1.762317419E0
2.299280831E0,5.120617867E0,-8.982059479E0,-1.719223619E0
2.301645935E0,5.170893669E0,-8.812078476E0,-1.623459578E0
2.304011873E0,5.111042023E0,-8.678009987E0,-1.448690534E0
2.306377810E0,4.931484222E0,-8.601398468E0,-1.372079253E0
2.308742915E0,4.828537941E0,-8.464934349E0,-1.321803212E0
2.311108019E0,4.605886936E0,-8.369171143E0,-1.400808454E0
2.313473956E0,4.402388096E0,-8.268618584E0,-1.463055015E0
2.315839842E0,4.215648651E0,-8.187219620E0,-1.577971697E0
2.318204946E0,4.026515007E0,-8.211160660E0,-1.566001296E0
2.320570050E0,3.834987402E0,-8.215949059E0,-1.558818936E0
2.322935987E0,3.626700640E0,-8.292559624E0,-1.573183656E0
2.325301925E0,3.401655197E0,-8.476905823E0,-1.551636696E0
2.327667029E0,3.246038914E0,-8.673221588E0,-1.518119335E0
2.330032133E0,2.965929270E0,-8.828837395E0,-1.400808454E0
2.332398071E0,2.774401665E0,-9.058671951E0,-1.295468092E0
2.334763956E0,2.666666985E0,-9.152040482E0,-1.252374411E0
2.337129060E0,2.633149624E0,-9.274139404E0,-1.144639850E0
2.339494165E0,2.664272785E0,-9.427362442E0,-1.185339570E0
2.341860102E0,2.731307507E0,-9.453698158E0,-1.269132972E0
2.344225987E0,2.810312748E0,-9.475244522E0,-1.254768491E0
2.346591092E0,2.958747149E0,-9.300476074E0,-1.147034049E0
2.348956248E0,3.040146351E0,-9.221469879E0,-8.932595253E-1
2.351322133E0,3.133516312E0,-9.123311996E0,-7.137021422E-1
2.353688071E0,3.183792353E0,-9.051488876E0,-5.221742392E-1
2.356053175E0,3.174216032E0,-9.053882599E0,-3.881047070E-1
2.358418279E0,3.099998713E0,-9.128099442E0,-5.532498658E-2
2.360784217E0,3.052116871E0,-9.211894035E0,2.247845829E-1
2.363150102E0,3.073663712E0,-9.223863602E0,3.253367245E-1
2.365515206E0,3.104787111E0,-9.171194077E0,3.229426444E-1
2.367880310E0,3.123939753E0,-9.046700478E0,3.253367245E-1
2.370246248E0,3.150274992E0,-8.895873070E0,1.888730824E-1
2.372612185E0,3.107181072E0,-8.809684753E0,1.889207587E-2
2.374977290E0,3.064087391E0,-8.785743713E0,2.271786928E-1
2.377342394E0,3.061693430E0,-8.910236359E0,1.508021474E0
2.379708331E0,2.829465866E0,-9.154436111E0,1.991629601E0
2.382074217E0,2.767219067E0,-8.938966751E0,5.216528177E-1
2.384439321E0,2.767219067E0,-8.728285789E0,-6.418792009E-1
2.386804425E0,2.752854586E0,-8.642097473E0,-9.267769456E-1
2.389170362E0,2.635543823E0,-8.642097473E0,-8.717126846E-1
2.391536300E0,2.477533340E0,-8.692373276E0,-6.203323007E-1
2.393901404E0,2.355434179E0,-8.687585831E0,-3.402227461E-1
2.396266508E0,2.360222340E0,-8.642097473E0,-4.814745486E-1
2.398632446E0,2.333887339E0,-8.527181625E0,-4.431689978E-1
2.400998331E0,2.142359495E0,-8.496057510E0,-2.324883044E-1
2.403363435E0,1.953225613E0,-8.488875389E0,-8.166007698E-2
2.405728540E0,1.883796692E0,-8.445781708E0,-1.606653333E-1
2.408094477E0,1.931678534E0,-8.630127907E0,-2.803702652E-1
2.410460362E0,1.986742973E0,-8.824049950E0,-2.660056651E-1
2.412825467E0,1.969984293E0,-8.881507874E0,-4.575335681E-1
2.415190571E0,1.874220371E0,-8.816867828E0,-3.282522559E-1
2.417556508E0,1.831126451E0,-8.766592026E0,2.607437223E-2
2.419922446E0,1.814367771E0,-8.766592026E0,3.157603145E-1
2.422287550E0,1.833520651E0,-8.790533066E0,4.905295372E-1
2.424652654E0,1.914920092E0,-8.938966751E0,8.520384431E-1
2.427018592E0,2.010683775E0,-9.128099442E0,1.175241709E0
2.429384477E0,2.060960054E0,-9.228652954E0,9.908962250E-1
2.431749581E0,2.125600576E0,-9.204711914E0,5.599583983E-1
2.434114685E0,2.116024256E0,-9.070641518E0,2.176022530E-1
2.436480623E0,2.123206615E0,-8.893478394E0,-1.223597452E-1
2.438846560E0,2.137571096E0,-8.824049950E0,-2.947348654E-1
2.441211665E0,2.130388975E0,-8.718709946E0,-4.742922783E-1
2.443576769E0,2.084901094E0,-8.603793144E0,-5.963913202E-1
2.445942706E0,2.094477415E0,-8.567880630E0,-5.868149400E-1
2.448308592E0,2.087295055E0,-8.472116470E0,-5.987853408E-1
2.450673696E0,2.135176897E0,-8.443387985E0,-5.269624591E-1
2.453038800E0,2.168694496E0,-8.354806900E0,-4.599276781E-1
2.455404737E0,2.197423697E0,-8.350017548E0,-4.742922783E-1
2.457770623E0,2.230941057E0,-8.316500664E0,-3.689519167E-1
2.460135727E0,2.300369978E0,-8.364382744E0,-2.923407555E-1
2.462500831E0,2.305158138E0,-8.378747940E0,-2.181237042E-1
2.464866769E0,2.276428938E0,-8.328471184E0,-1.032069623E-1
2.467232706E0,2.300369978E0,-8.340441704E0,-7.926597446E-2
2.469597810E0,2.309946299E0,-8.311712265E0,-1.175715551E-1
2.471962915E0,2.319522619E0,-8.299741745E0,-1.151774526E-1
2.474328852E0,2.333887339E0,-8.302135468E0,-1.654535234E-1
2.476694737E0,2.333887339E0,-8.266224861E0,-2.468528748E-1
2.479059842E0,2.367404461E0,-8.239890099E0,-2.348823845E-1
2.481424946E0,2.439227581E0,-8.268618584E0,-3.258581460E-1
2.483790883E0,2.501474380E0,-8.340441704E0,-4.335925877E-1
2.486156821E0,2.506262302E0,-8.369171143E0,-4.671099484E-1
2.488521925E0,2.508656502E0,-8.347623825E0,-3.713460267E-1
2.490887029E0,2.534991503E0,-8.409871101E0,-3.521932065E-1
2.493252967E0,2.568509102E0,-8.443387985E0,-2.755820751E-1
2.495618852E0,2.566114902E0,-8.383535385E0,-1.654535234E-1
2.497983956E0,2.681031466E0,-8.393112183E0,-1.558771282E-1
2.500349060E0,2.690608025E0,-8.397899628E0,-2.923407555E-1
2.502714998E0,2.733701706E0,-8.414658546E0,-4.671099484E-1
2.505080883E0,2.764825106E0,-8.268618584E0,-4.144397974E-1
2.507445987E0,2.884530067E0,-8.045968056E0,-4.000751972E-1
2.509811144E0,3.025781870E0,-7.785010815E0,-3.737401068E-1
2.512177029E0,3.133516312E0,-7.650941372E0,-3.474050164E-1
2.514542967E0,3.186186314E0,-7.538419247E0,-3.354345262E-1
2.516908071E0,3.052116871E0,-6.887224197E0,-3.354345262E-1
2.519273175E0,2.860589027E0,-6.195329666E0,-2.324883044E-1
2.521639112E0,2.760036707E0,-5.400488853E0,-4.359866679E-1
2.524004998E0,2.700184345E0,-4.773235321E0,-4.838686585E-1
2.526370102E0,2.846224308E0,-4.555372238E0,-1.295420527E-1
2.528735206E0,3.009022951E0,-4.521854877E0,5.360173583E-1
2.531101144E0,3.217309713E0,-4.529036522E0,1.297340751E0
2.533467081E0,3.581212759E0,-4.524248600E0,1.814466119E0
2.535832185E0,3.763164282E0,-4.382996559E0,1.742643118E0
2.538197290E0,3.777528763E0,-4.418908119E0,1.330858111E0
2.540563227E0,3.614730120E0,-4.373420715E0,8.137328625E-1
2.542929112E0,3.451931238E0,-4.339903355E0,4.762125760E-2
2.545294217E0,3.262797594E0,-4.253715515E0,-6.514555812E-1
2.547659321E0,3.116757631E0,-4.366238117E0,-1.400808454E0
2.550025258E0,3.018599510E0,-4.548189640E0,-1.905963421E0
2.552391196E0,2.949170589E0,-4.703806400E0,-2.135796785E0
2.554756300E0,2.891712427E0,-4.708594322E0,-2.016091824E0
2.557121404E0,2.870165348E0,-4.837875843E0,-2.131008387E0
2.559487290E0,2.803130627E0,-5.089256287E0,-1.882022381E0
2.561853227E0,2.776795626E0,-5.400488853E0,-1.594730496E0
2.564218331E0,2.827071667E0,-5.651869297E0,-1.293074012E0
2.566583435E0,2.755248547E0,-5.790727139E0,-9.866293669E-1
2.568949373E0,2.807918787E0,-6.058866024E0,-9.794471264E-1
2.571315258E0,2.836647987E0,-6.324611187E0,-6.706083417E-1
2.573680362E0,2.930017710E0,-6.595144272E0,-3.785282969E-1
2.576045467E0,3.009022951E0,-6.947076797E0,-4.527453780E-1
2.578411404E0,3.085634232E0,-7.227186203E0,-4.575335681E-1
2.580777342E0,3.111969233E0,-7.366044044E0,-4.024693072E-1
2.583142446E0,3.190974474E0,-7.440261364E0,-5.916031003E-1
2.585507550E0,3.246038914E0,-7.449837208E0,-6.753965616E-1
2.587873487E0,3.202944994E0,-7.378014088E0,-7.855251431E-1
2.590239373E0,3.171821833E0,-7.337314606E0,-8.286188841E-1
2.592604477E0,3.195762873E0,-7.478566647E0,-8.693185449E-1
2.594969581E0,3.092816591E0,-7.526448727E0,-7.735546231E-1
2.597335519E0,2.999446869E0,-7.488142967E0,-5.532975197E-1
2.599701456E0,3.018599510E0,-7.694036007E0,-6.897611022E-1
2.602066560E0,3.018599510E0,-7.940627575E0,-5.772385001E-1
2.604431665E0,2.963535309E0,-8.002873421E0,-3.952869773E-1
2.606797602E0,2.915653229E0,-8.237495422E0,-4.096515775E-1
2.609163487E0,2.817495346E0,-8.354806900E0,-2.205177844E-1
2.611528592E0,2.812706947E0,-8.338047981E0,-1.630594432E-1
2.613893696E0,2.853406906E0,-8.663644791E0,-4.072574973E-1
2.616259633E0,2.839041948E0,-9.010789871E0,-4.862627387E-1
2.618625519E0,2.872559547E0,-9.360327721E0,-5.413269997E-1
2.620990623E0,2.953958750E0,-9.808023453E0,-7.496136427E-1
2.623355727E0,2.939594269E0,-1.010489273E1,-8.094660640E-1
2.625721665E0,2.939594269E0,-1.007376862E1,-5.628738999E-1
2.628087602E0,2.867771387E0,-1.015756226E1,-1.846063137E-1
2.630452706E0,2.812706947E0,-1.022699165E1,2.559078634E-1
2.632817810E0,2.807918787E0,-1.039697266E1,4.857413769E-1
2.635183748E0,2.793554306E0,-1.061962414E1,3.349131048E-1
2.637549633E0,2.860589027E0,-1.078721046E1,3.827950954E-1
2.639914737E0,2.862982988E0,-1.072975159E1,5.168646574E-1
2.642279842E0,2.776795626E0,-1.072017574E1,4.618003666E-1
2.644645779E0,2.707366467E0,-1.084706306E1,3.708246052E-1
2.647011665E0,2.693001986E0,-1.093564510E1,4.187065661E-1
2.649376769E0,2.683425903E0,-1.092127991E1,3.373072147E-1
2.651741925E0,2.673849344E0,-1.097873878E1,2.535137534E-1
2.654107810E0,2.630755663E0,-1.096676731E1,2.008435726E-1
2.656473748E0,2.633149624E0,-1.076087570E1,1.936612725E-1
2.658838852E0,2.657090664E0,-1.073693466E1,2.032376826E-1
2.661203956E0,2.623573303E0,-1.064595890E1,1.529616117E-1
2.663569894E0,2.573297024E0,-1.041133690E1,1.266265213E-1
2.665935779E0,2.568509102E0,-1.010010433E1,1.266265213E-1
2.668300883E0,2.451198101E0,-9.822388649E0,8.353274316E-2
2.670665987E0,2.314734459E0,-9.571008682E0,-3.856629506E-2
2.673031925E0,2.360222340E0,-9.278928757E0,-1.463007331E-1
2.675397862E0,2.379374981E0,-9.070641518E0,-5.053678900E-2
2.677762967E0,2.283611298E0,-8.761802673E0,-1.463007331E-1
2.680128071E0,2.240517378E0,-8.517604828E0,-2.085473239E-1
2.682494008E0,2.175876856E0,-8.215949059E0,-1.654535234E-1
2.684859894E0,2.063354015E0,-7.947810650E0,-3.617219627E-2
2.687224998E0,1.965195894E0,-7.725159168E0,4.522715509E-2
2.689590102E0,1.900555372E0,-7.629394531E0,4.762125760E-2
2.691956040E0,1.926890373E0,-7.528842926E0,1.122619286E-1
2.694321925E0,1.919708014E0,-7.495325089E0,2.391491532E-1
2.696687029E0,1.852673292E0,-7.413925648E0,2.942134440E-1
2.699052185E0,1.946043253E0,-7.500113487E0,4.689826369E-1
2.701418071E0,2.010683775E0,-7.720370770E0,4.139183760E-1
2.703784008E0,2.034624815E0,-7.785010815E0,4.857413769E-1
2.706149112E0,1.989136934E0,-7.983721256E0,3.971596956E-1
2.708514217E0,1.902949572E0,-8.120184898E0,4.450416565E-1
2.710880154E0,1.862249851E0,-8.385930061E0,2.750606239E-1
2.713246040E0,1.864643812E0,-8.426630020E0,3.157603145E-1
2.715611144E0,1.907737732E0,-8.350017548E0,3.540659249E-1
2.717976248E0,1.886190653E0,-8.340441704E0,3.373072147E-1
2.720342185E0,1.953225613E0,-8.440993309E0,1.338088214E-1
2.722708123E0,1.979560614E0,-8.407476425E0,2.319668829E-1
2.725073227E0,1.955619574E0,-8.290165901E0,-1.223121025E-2
2.727438331E0,1.977166414E0,-8.361989021E0,6.677404791E-2
2.729804269E0,1.922102213E0,-8.263831139E0,2.247845829E-1
2.732170154E0,1.850279331E0,-8.378747940E0,2.606960833E-1
2.734535258E0,1.867038012E0,-8.515211105E0,2.415432632E-1
2.736900362E0,1.857461691E0,-8.577457428E0,1.769025922E-1
2.739266300E0,1.843096972E0,-8.819261551E0,1.577498019E-1
2.741632237E0,1.845491171E0,-9.058671951E0,1.002914384E-1
2.743997342E0,1.857461691E0,-9.240622520E0,1.122619286E-1
2.746362446E0,1.871826172E0,-9.432150841E0,1.577498019E-1
2.748728331E0,1.843096972E0,-9.724230766E0,1.385970116E-1
2.751094269E0,1.764091730E0,-9.954064369E0,3.086256608E-2
2.753459373E0,1.694662809E0,-1.014798641E1,-2.898989990E-2
2.755824477E0,1.565381527E0,-1.005222225E1,-2.420170233E-2
2.758190415E0,1.357094765E0,-9.855905533E0,1.745085120E-1
2.760556300E0,1.347518444E0,-1.000194550E1,4.330711663E-1
2.762921404E0,1.244572401E0,-1.015038109E1,6.868456602E-1
2.765286508E0,1.203872681E0,-1.038500214E1,2.774547637E-1
2.767652446E0,1.316395283E0,-1.066989994E1,-3.689519167E-1
2.770018383E0,1.419341564E0,-1.086382198E1,-4.192279875E-1
2.772383487E0,1.457647085E0,-1.115350819E1,-1.726358235E-1
2.774748592E0,1.539046288E0,-1.145995235E1,-3.881047070E-1
2.777114529E0,1.613263607E0,-1.215663433E1,-4.168339074E-1
2.779480415E0,1.730574369E0,-1.390672207E1,-1.051270008E0
2.781845519E0,2.070536375E0,-1.543655109E1,-1.616277337E0
2.784210623E0,2.637937784E0,-1.681794548E1,-2.131008387E0
2.786576560E0,3.171821833E0,-1.798626518E1,-2.013697863E0
2.788942446E0,3.530936480E0,-1.900615120E1,-1.630641937E0
2.791307550E0,3.830199003E0,-1.976268768E1,-1.407990694E0
2.793672706E0,3.961874247E0,-2.015771294E1,-1.163792729E0
2.796038592E0,3.942721605E0,-2.020798874E1,-8.046778440E-1
2.798404529E0,3.918780565E0,-1.988239288E1,-2.971289456E-1
2.800769633E0,3.868504524E0,-1.922640991E1,-6.968957186E-2
2.803134737E0,3.767952204E0,-1.828553009E1,2.511196733E-1
2.805500675E0,3.653035879E0,-1.708848000E1,5.264410377E-1
2.807866560E0,3.471084118E0,-1.581481838E1,7.538803816E-1
2.810231665E0,3.320255995E0,-1.466086292E1,8.927381635E-1
2.812596769E0,3.140698671E0,-1.354521275E1,9.837138653E-1
2.814962706E0,3.001840830E0,-1.263545513E1,9.765316248E-1
2.817328644E0,2.815101147E0,-1.196750164E1,8.855558038E-1
2.819693748E0,2.592450142E0,-1.142164707E1,7.873977423E-1
2.822058852E0,2.388951540E0,-1.100267982E1,5.695348382E-1
2.824424790E0,2.242911577E0,-1.063877678E1,2.774547637E-1
2.826790675E0,2.046595335E0,-1.033233166E1,-2.654813230E-3
2.829155779E0,1.871826172E0,-1.013840961E1,-2.372764945E-1
2.831520883E0,1.704239368E0,-9.949275970E0,-4.288043976E-1
2.833886821E0,1.622839928E0,-9.745778084E0,-5.892090201E-1
2.836252706E0,1.498346806E0,-9.602131844E0,-6.538496614E-1
2.838617810E0,1.371459484E0,-9.472850800E0,-6.897611022E-1
2.840982915E0,1.242178202E0,-9.353145599E0,-6.466673613E-1
2.843348852E0,1.112896919E0,-9.226257324E0,-6.634260416E-1
2.845714790E0,9.644627571E-1,-9.211894035E0,-6.442732215E-1
2.848079894E0,8.303931952E-1,-9.214287758E0,-5.772385001E-1
2.850444998E0,7.346292734E-1,-9.209499359E0,-4.551394582E-1
2.852810935E0,6.723827124E-1,-9.254987717E0,-4.096515775E-1
2.855176821E0,6.460475922E-1,-9.386662483E0,-3.282522559E-1
2.857541925E0,6.077420712E-1,-9.515943527E0,-2.253060043E-1
2.859907029E0,6.652004123E-1,-9.551856041E0,-1.893945038E-1
2.862272967E0,6.723827124E-1,-9.484820366E0,-1.439066380E-1
2.864638904E0,6.795650125E-1,-9.432150841E0,-1.391184330E-1
2.867004008E0,7.202646732E-1,-9.420179367E0,-6.250727922E-2
2.869369112E0,7.609643936E-1,-9.539884567E0,2.133384347E-3
2.871735050E0,8.782752156E-1,-9.618890762E0,8.832094073E-2
2.874100935E0,9.955859780E-1,-9.666772842E0,1.457793117E-1
2.876466040E0,1.151202440E0,-9.757747650E0,1.457793117E-1
2.878831144E0,1.270907402E0,-9.810419083E0,1.505675018E-1
2.881197081E0,1.364277363E0,-9.860694885E0,1.697202921E-1
2.883562967E0,1.428917885E0,-9.865482330E0,1.433852017E-1
2.885928071E0,1.515105486E0,-9.855905533E0,1.146560386E-1
2.888293175E0,1.555805206E0,-9.808023453E0,7.635044307E-2
2.890659112E0,1.548622847E0,-9.772112846E0,1.170977950E-2
2.893025050E0,1.543834686E0,-9.769719124E0,1.889207587E-2
2.895390154E0,1.524681807E0,-9.764930725E0,5.480355769E-2
2.897755258E0,1.486376286E0,-9.755353928E0,5.959174782E-2
2.900121196E0,1.476799965E0,-9.731412888E0,2.607437223E-2
2.902487081E0,1.421735525E0,-9.755353928E0,1.649797708E-2
2.904852185E0,1.349912643E0,-9.748171806E0,-4.096039385E-2
2.907217290E0,1.304424763E0,-9.745778084E0,-1.032069623E-1
2.909583227E0,1.292454243E0,-9.707471848E0,-1.127833575E-1
2.911949112E0,1.282877922E0,-9.671560287E0,-9.123647213E-2
2.914314217E0,1.268513203E0,-9.611707687E0,-7.926597446E-2
2.916679373E0,1.280483723E0,-9.556643486E0,-7.208368182E-2
2.919045258E0,1.270907402E0,-9.456091881E0,-6.011318415E-2
2.921411196E0,1.278089762E0,-9.398633957E0,-4.814269021E-2
2.923776300E0,1.340336323E0,-9.331598282E0,-2.420170233E-2
2.926141404E0,1.333153963E0,-9.276535034E0,-9.837109596E-3
2.928507342E0,1.364277363E0,-9.221469879E0,2.368026972E-2
2.930873227E0,1.378641844E0,-9.161617279E0,3.325667232E-2
2.933238331E0,1.433706045E0,-9.156829834E0,3.086256608E-2
2.935603435E0,1.440888405E0,-9.171194077E0,3.565076739E-2
2.937969373E0,1.481588125E0,-9.140070915E0,-1.965768039E-1
2.940335310E0,1.826338291E0,-8.498452187E0,-1.846063137E-1
2.942700415E0,2.159117937E0,-8.350017548E0,-2.540351748E-1
2.945065519E0,2.429651260E0,-8.474511147E0,-2.995230556E-1
2.947431456E0,2.561326504E0,-8.670827866E0,-3.904988170E-1
2.949797342E0,2.463168621E0,-8.876719475E0,-3.928928971E-1
2.952162446E0,2.302763939E0,-8.962907791E0,-2.157295942E-1
2.954527550E0,2.108841896E0,-9.058671951E0,-1.151774526E-1
2.956893487E0,1.840702772E0,-9.068247795E0,-1.462530717E-2
2.959259373E0,1.613263607E0,-9.034730911E0,6.198585033E-2
2.961624477E0,1.393006325E0,-8.974877357E0,1.625379920E-1
2.963989581E0,1.220631361E0,-8.891084671E0,2.391491532E-1
2.966355519E0,1.103320360E0,-8.819261551E0,2.583019435E-1
2.968721456E0,9.764332771E-1,-8.716314316E0,3.851892054E-1
2.971086560E0,9.141867161E-1,-8.524787903E0,4.211006761E-1
2.973451665E0,8.710928559E-1,-8.656462669E0,4.546180367E-1
2.975817602E0,8.686988354E-1,-8.654068947E0,3.660364151E-1
2.978183487E0,8.854575157E-1,-8.766592026E0,2.774547637E-1
2.980548592E0,9.046102762E-1,-8.962907791E0,1.146560386E-1
2.982913696E0,9.285512567E-1,-9.154436111E0,-3.377809748E-2
2.985279633E0,1.019526958E0,-9.283717155E0,-8.166007698E-2
2.987645571E0,1.151202440E0,-9.293292999E0,-1.079951525E-1
2.990010623E0,1.282877922E0,-9.319627762E0,-7.208368182E-2
2.992375727E0,1.407371044E0,-9.302869797E0,-5.053678900E-2
2.994741665E0,1.467223406E0,-9.243017197E0,-5.048912019E-3
2.997107602E0,1.483982086E0,-9.247804642E0,-7.443010807E-3
2.999472706E0,1.448070526E0,-9.266957283E0,-2.654813230E-3
3.001837810E0,1.428917885E0,-9.286110878E0,3.086256608E-2
3.004203748E0,1.381035805E0,-9.338780403E0,1.410387456E-2
3.006569633E0,1.345124483E0,-9.410603523E0,-2.654813230E-3
3.008934737E0,1.333153963E0,-9.422574997E0,-9.837109596E-3
3.011299842E0,1.278089762E0,-9.448909760E0,3.086256608E-2
3.013665779E0,1.285271883E0,-9.480032921E0,6.921578199E-3
3.016031717E0,1.273301601E0,-9.501579285E0,4.527483135E-3
3.018396821E0,1.318789482E0,-9.494398117E0,2.128617465E-2
3.020761925E0,1.359488964E0,-9.477639198E0,3.086256608E-2
3.023127810E0,1.369065285E0,-9.463274002E0,3.086256608E-2
3.025493748E0,1.373853683E0,-9.453698158E0,1.410387456E-2
3.027858852E0,1.412159204E0,-9.429757118E0,2.128617465E-2
3.030223956E0,1.426523685E0,-9.408209801E0,2.846847102E-2
3.032589894E0,1.428917885E0,-9.384268761E0,4.762125760E-2
3.034955779E0,1.448070526E0,-9.403421402E0,1.889207587E-2
3.037320883E0,1.448070526E0,-9.405816078E0,-9.837109596E-3
3.039685987E0,1.455253124E0,-9.401027679E0,3.565076739E-2
3.042051925E0,1.445676565E0,-9.372299194E0,5.959174782E-2
3.044417862E0,1.404976845E0,-9.348358154E0,5.001536012E-2
3.046782967E0,1.416947365E0,-9.353145599E0,5.240945518E-2
3.049148071E0,1.397794724E0,-9.341175079E0,8.353274316E-2
3.051514008E0,1.421735525E0,-9.362721443E0,8.113864064E-2
3.053879894E0,1.416947365E0,-9.350751877E0,7.156225294E-2
3.056244998E0,1.400188684E0,-9.367509842E0,7.874453813E-2
3.058610102E0,1.402582645E0,-9.369903564E0,8.113864064E-2
3.060976040E0,1.402582645E0,-9.379480362E0,8.592683822E-2
3.063341977E0,1.414553165E0,-9.381875038E0,8.592683822E-2
3.065707029E0,1.383430004E0,-9.393844604E0,5.959174782E-2
3.068072133E0,1.412159204E0,-9.369903564E0,7.635044307E-2
3.070438071E0,1.373853683E0,-9.391450882E0,4.762125760E-2
3.072804008E0,1.381035805E0,-9.357933998E0,3.804486990E-2
3.075169112E0,1.393006325E0,-9.324417114E0,2.368026972E-2
3.077534217E0,1.359488964E0,-9.324417114E0,2.607437223E-2
3.079900154E0,1.333153963E0,-9.360327721E0,-7.443010807E-3
3.082266040E0,1.321183443E0,-9.362721443E0,-6.011318415E-2
3.084631144E0,1.342730284E0,-9.312445641E0,-4.814269021E-2
3.086996248E0,1.333153963E0,-9.271745682E0,-9.837109596E-3
3.089362185E0,1.335547924E0,-9.283717155E0,-4.335449263E-2
3.091728071E0,1.359488964E0,-9.283717155E0,-4.096039385E-2
3.094093175E0,1.371459484E0,-9.286110878E0,-3.617219627E-2
3.096458331E0,1.388218164E0,-9.259776115E0,-7.443010807E-3
3.098824217E0,1.369065285E0,-9.283717155E0,-7.443010807E-3
3.101190154E0,1.361883163E0,-9.262169838E0,-2.180760354E-2
3.103555258E0,1.364277363E0,-9.281322479E0,-7.443010807E-3
3.105920362E0,1.366671324E0,-9.307658195E0,-1.223121025E-2
3.108286300E0,1.378641844E0,-9.276535034E0,-3.138399869E-2
3.110652185E0,1.378641844E0,-9.250198364E0,-9.837109596E-3
3.113017290E0,1.424129725E0,-9.243017197E0,-1.462530717E-2
3.115382394E0,1.409765244E0,-9.259776115E0,-3.138399869E-2
3.117748331E0,1.424129725E0,-9.228652954E0,-2.898989990E-2
3.120114269E0,1.436100245E0,-9.149646759E0,-2.607163042E-4
3.122479373E0,1.426523685E0,-9.106554031E0,-1.223121025E-2
3.124844477E0,1.416947365E0,-9.207105637E0,9.315680712E-3
3.127210415E0,1.412159204E0,-9.310051918E0,3.086256608E-2
3.129576300E0,1.436100245E0,-9.290898323E0,-2.659580112E-2
3.131941404E0,1.445676565E0,-9.283717155E0,1.889207587E-2
3.134306508E0,1.486376286E0,-9.056276321E0,1.792967021E-1
3.136672446E0,1.448070526E0,-9.295686722E0,-2.654813230E-3
3.139038331E0,1.409765244E0,-9.410603523E0,-4.335449263E-2
3.141403435E0,1.412159204E0,-9.381875038E0,-2.420170233E-2
3.143768592E0,1.419341564E0,-9.439332962E0,8.113864064E-2
3.146134477E0,1.409765244E0,-9.391450882E0,4.527483135E-3
3.148500415E0,1.428917885E0,-9.269351959E0,2.128617465E-2
3.150865519E0,1.452858925E0,-9.266957283E0,6.198585033E-2
3.153230623E0,1.455253124E0,-9.262169838E0,5.001536012E-2
3.155596560E0,1.438494205E0,-9.264563560E0,-2.420170233E-2
3.157962446E0,1.443282604E0,-9.286110878E0,-7.443010807E-3
3.160327550E0,1.479193926E0,-9.266957283E0,-2.420170233E-2
3.162692654E0,1.491164446E0,-9.353145599E0,-2.898989990E-2
3.165058592E0,1.486376286E0,-9.357933998E0,-2.659580112E-2
3.167424477E0,1.457647085E0,-9.367509842E0,-3.377809748E-2
3.169789581E0,1.464829445E0,-9.343568802E0,-5.048912019E-3
3.172154737E0,1.474405766E0,-9.377086639E0,-7.443010807E-3
3.174520623E0,1.440888405E0,-9.393844604E0,-2.420170233E-2
3.176886560E0,1.445676565E0,-9.463274002E0,-3.617219627E-2
3.179251665E0,1.421735525E0,-9.513549805E0,-3.856629506E-2
3.181616769E0,1.373853683E0,-9.547067642E0,1.889207587E-2
3.183982706E0,1.361883163E0,-9.556643486E0,4.762125760E-2
3.186348592E0,1.460041046E0,-9.530308723E0,-1.941350475E-2
3.188713696E0,1.539046288E0,-9.487215042E0,-1.701940596E-2
3.191078800E0,1.527076006E0,-9.463274002E0,-4.096039385E-2
3.193444737E0,1.500740767E0,-9.458485603E0,-3.138399869E-2
3.195810675E0,1.445676565E0,-9.453698158E0,-3.856629506E-2
3.198175779E0,1.409765244E0,-9.460879326E0,-2.898989990E-2
3.200540883E0,1.371459484E0,-9.465667725E0,-1.462530717E-2
3.202906821E0,1.349912643E0,-9.412998199E0,-1.462530717E-2
3.205272706E0,1.299636602E0,-9.396238327E0,-3.138399869E-2
3.207637810E0,1.345124483E0,-9.377086639E0,-5.293088779E-2
3.210002915E0,1.357094765E0,-9.357933998E0,-3.856629506E-2
3.212368852E0,1.371459484E0,-9.360327721E0,-4.574859142E-2
3.214734737E0,1.424129725E0,-9.355539322E0,-3.377809748E-2
3.217099842E0,1.433706045E0,-9.343568802E0,-5.293088779E-2
3.219464946E0,1.443282604E0,-9.319627762E0,-4.574859142E-2
3.221830883E0,1.428917885E0,-9.312445641E0,-6.011318415E-2
3.224196821E0,1.445676565E0,-9.329204559E0,-4.574859142E-2
3.226561925E0,1.443282604E0,-9.324417114E0,-3.856629506E-2
3.228927029E0,1.409765244E0,-9.343568802E0,-5.532498658E-2
3.231292967E0,1.457647085E0,-9.331598282E0,-5.532498658E-2
3.233658852E0,1.483982086E0,-9.324417114E0,-4.096039385E-2
3.236023956E0,1.479193926E0,-9.310051918E0,-4.574859142E-2
3.238389060E0,1.481588125E0,-9.307658195E0,-5.532498658E-2
3.240754998E0,1.481588125E0,-9.300476074E0,-3.138399869E-2
3.243120883E0,1.493558407E0,-9.281322479E0,-3.617219627E-2
3.245485987E0,1.491164446E0,-9.302869797E0,-6.011318415E-2
3.247851144E0,1.483982086E0,-9.300476074E0,-3.377809748E-2
3.250217029E0,1.500740767E0,-9.276535034E0,-6.011318415E-2
3.252582967E0,1.481588125E0,-9.274139404E0,-2.659580112E-2
3.254948071E0,1.527076006E0,-9.278928757E0,-3.617219627E-2
3.257313175E0,1.498346806E0,-9.288504601E0,-2.654813230E-3
3.259679112E0,1.505528927E0,-9.281322479E0,-5.048912019E-3
3.262044998E0,1.474405766E0,-9.262169838E0,-3.856629506E-2
3.264410102E0,1.500740767E0,-9.262169838E0,-1.223121025E-2
3.266775206E0,1.517499447E0,-9.271745682E0,-2.659580112E-2
3.269141144E0,1.495952606E0,-9.240622520E0,-1.941350475E-2
3.271507029E0,1.500740767E0,-9.238228798E0,-4.335449263E-2
3.273872133E0,1.500740767E0,-9.240622520E0,-2.659580112E-2
3.276237290E0,1.527076006E0,-9.247804642E0,-3.138399869E-2
3.278603175E0,1.510317326E0,-9.240622520E0,-9.837109596E-3
3.280969112E0,1.517499447E0,-9.223863602E0,-2.180760354E-2
3.283334217E0,1.503134966E0,-9.231046677E0,-3.617219627E-2
3.285699321E0,1.488770485E0,-9.228652954E0,-4.096039385E-2
3.288065258E0,1.479193926E0,-9.207105637E0,-2.420170233E-2
3.290431144E0,1.481588125E0,-9.223863602E0,-2.420170233E-2
3.292796248E0,1.488770485E0,-9.223863602E0,-4.814269021E-2
3.295161352E0,1.503134966E0,-9.221469879E0,-3.138399869E-2
3.297527290E0,1.498346806E0,-9.254987717E0,-3.138399869E-2
3.299893227E0,1.472011566E0,-9.254987717E0,-3.377809748E-2
3.302258331E0,1.479193926E0,-9.250198364E0,-4.096039385E-2
3.304623435E0,1.505528927E0,-9.274139404E0,4.527483135E-3
3.306989321E0,1.500740767E0,-9.290898323E0,-5.048912019E-3
3.309355258E0,1.534258366E0,-9.271745682E0,-1.941350475E-2
3.311720362E0,1.510317326E0,-9.290898323E0,-1.462530717E-2
3.314085467E0,1.517499447E0,-9.326810837E0,-2.420170233E-2
3.316451404E0,1.529469967E0,-9.310051918E0,-2.420170233E-2
3.318817290E0,1.543834686E0,-9.310051918E0,-2.180760354E-2
3.321182394E0,1.543834686E0,-9.307658195E0,-5.048912019E-3
3.323547498E0,1.531864166E0,-9.326810837E0,1.649797708E-2
3.325913435E0,1.553411007E0,-9.329204559E0,2.128617465E-2
3.328279373E0,1.546228647E0,-9.331598282E0,2.368026972E-2
3.330644477E0,1.531864166E0,-9.350751877E0,6.921578199E-3
3.333009581E0,1.536652327E0,-9.348358154E0,3.565076739E-2
3.335375467E0,1.546228647E0,-9.360327721E0,5.001536012E-2
3.337741404E0,1.548622847E0,-9.355539322E0,3.565076739E-2
3.340106508E0,1.546228647E0,-9.367509842E0,3.565076739E-2
3.342471612E0,1.555805206E0,-9.369903564E0,3.804486990E-2
3.344837550E0,1.534258366E0,-9.338780403E0,3.086256608E-2
3.347203435E0,1.539046288E0,-9.348358154E0,2.846847102E-2
3.349568540E0,1.534258366E0,-9.343568802E0,2.128617465E-2
3.351933644E0,1.531864166E0,-9.331598282E0,-7.443010807E-3
3.354299581E0,1.543834686E0,-9.331598282E0,3.086256608E-2
3.356665519E0,1.534258366E0,-9.317234039E0,-2.654813230E-3
3.359030623E0,1.531864166E0,-9.314839363E0,2.846847102E-2
3.361395727E0,1.541440487E0,-9.290898323E0,2.607437223E-2
3.363761665E0,1.527076006E0,-9.262169838E0,2.368026972E-2
3.366127550E0,1.507923126E0,-9.276535034E0,-2.654813230E-3
3.368492654E0,1.493558407E0,-9.278928757E0,-1.941350475E-2
3.370857758E0,1.493558407E0,-9.266957283E0,-1.701940596E-2
3.373223696E0,1.500740767E0,-9.254987717E0,-2.654813230E-3
3.375589581E0,1.491164446E0,-9.231046677E0,-1.462530717E-2
3.377954685E0,1.493558407E0,-9.233440399E0,-3.377809748E-2
3.380319790E0,1.472011566E0,-9.226257324E0,-2.180760354E-2
3.382685727E0,1.498346806E0,-9.211894035E0,-3.138399869E-2
3.385051665E0,1.464829445E0,-9.195135117E0,-3.138399869E-2
3.387416769E0,1.479193926E0,-9.214287758E0,-5.771908537E-2
3.389781873E0,1.479193926E0,-9.204711914E0,-5.532498658E-2
3.392147810E0,1.472011566E0,-9.204711914E0,-4.574859142E-2
3.394513696E0,1.486376286E0,-9.235835075E0,-4.335449263E-2
3.396878800E0,1.464829445E0,-9.231046677E0,-3.377809748E-2
3.399243904E0,1.479193926E0,-9.252593994E0,-3.856629506E-2
3.401609842E0,1.479193926E0,-9.254987717E0,-6.490138173E-2
3.403975727E0,1.467223406E0,-9.254987717E0,-3.856629506E-2
3.406340831E0,1.464829445E0,-9.274139404E0,-1.462530717E-2
3.408705987E0,1.483982086E0,-9.266957283E0,-4.335449263E-2
3.411071873E0,1.476799965E0,-9.288504601E0,-3.617219627E-2
3.413437810E0,1.491164446E0,-9.319627762E0,-1.462530717E-2
3.415802915E0,1.491164446E0,-9.307658195E0,-3.138399869E-2
3.418168019E0,1.486376286E0,-9.305263519E0,-3.138399869E-2
3.420533956E0,1.476799965E0,-9.324417114E0,-2.659580112E-2
3.422899842E0,1.481588125E0,-9.319627762E0,-9.837109596E-3
3.425264946E0,1.479193926E0,-9.317234039E0,-3.377809748E-2
3.427630050E0,1.467223406E0,-9.338780403E0,-3.138399869E-2
3.429995987E0,1.464829445E0,-9.326810837E0,-5.771908537E-2
3.432361873E0,1.455253124E0,-9.338780403E0,-2.180760354E-2
3.434726977E0,1.436100245E0,-9.360327721E0,-2.898989990E-2
3.437092081E0,1.455253124E0,-9.362721443E0,-1.941350475E-2
3.439458019E0,1.445676565E0,-9.384268761E0,-1.941350475E-2
3.441823956E0,1.450464725E0,-9.367509842E0,-2.420170233E-2
3.444189060E0,1.426523685E0,-9.379480362E0,6.921578199E-3
3.446554165E0,1.440888405E0,-9.408209801E0,-2.607163042E-4
3.448920102E0,1.433706045E0,-9.422574997E0,4.527483135E-3
3.451285987E0,1.419341564E0,-9.427362442E0,3.086256608E-2
3.453651092E0,1.419341564E0,-9.456091881E0,5.001536012E-2
3.456016196E0,1.390612364E0,-9.434544563E0,5.001536012E-2
3.458382133E0,1.371459484E0,-9.446516037E0,6.677404791E-2
3.460748071E0,1.364277363E0,-9.475244522E0,7.395634800E-2
3.463113175E0,1.354700804E0,-9.458485603E0,9.789734334E-2
3.465478279E0,1.352306843E0,-9.470457077E0,7.635044307E-2
3.467844165E0,1.309212923E0,-9.489608765E0,9.550323337E-2
3.470210102E0,1.318789482E0,-9.480032921E0,1.026855335E-1
3.472575206E0,1.294848442E0,-9.506367683E0,1.002914384E-1
3.474940310E0,1.273301601E0,-9.482426643E0,1.218383089E-1
3.477306248E0,1.263725042E0,-9.460879326E0,1.050796285E-1
3.479672133E0,1.278089762E0,-9.489608765E0,1.290206015E-1
3.482037237E0,1.256542802E0,-9.448909760E0,1.457793117E-1
3.484402342E0,1.249360561E0,-9.463274002E0,1.385970116E-1
3.486768279E0,1.220631361E0,-9.456091881E0,1.601439118E-1
3.489134217E0,1.215843201E0,-9.458485603E0,1.529616117E-1
3.491499321E0,1.201478481E0,-9.465667725E0,1.649321020E-1
3.493864425E0,1.220631361E0,-9.465667725E0,1.625379920E-1
3.496230310E0,1.211054921E0,-9.453698158E0,1.385970116E-1
3.498596248E0,1.206266642E0,-9.434544563E0,1.601439118E-1
3.500961352E0,1.184719801E0,-9.446516037E0,1.840848923E-1
3.503326456E0,1.177537441E0,-9.448909760E0,1.577498019E-1
3.505692394E0,1.201478481E0,-9.451303482E0,1.840848923E-1
3.508058279E0,1.148808241E0,-9.432150841E0,1.673262119E-1
3.510423383E0,1.153596640E0,-9.434544563E0,1.840848923E-1
3.512788487E0,1.136837959E0,-9.403421402E0,1.769025922E-1
3.515154425E0,1.134443760E0,-9.384268761E0,1.912671924E-1
3.517520310E0,1.136837959E0,-9.398633957E0,1.912671924E-1
3.519885415E0,1.139231920E0,-9.410603523E0,1.912671924E-1
3.522250519E0,1.144020081E0,-9.403421402E0,1.721144021E-1
3.524616456E0,1.141626120E0,-9.369903564E0,1.912671924E-1
3.526982394E0,1.122473240E0,-9.377086639E0,1.936612725E-1
3.529347498E0,1.115290880E0,-9.369903564E0,2.104199827E-1
3.531712602E0,1.098532200E0,-9.367509842E0,2.104199827E-1
3.534078540E0,1.110502720E0,-9.341175079E0,2.295727730E-1
3.536444425E0,1.105714560E0,-9.338780403E0,2.152081728E-1
3.538809529E0,1.115290880E0,-9.329204559E0,2.271786928E-1
3.541174633E0,1.096138239E0,-9.298080444E0,2.295727730E-1
3.543540571E0,1.091350079E0,-9.302869797E0,2.032376826E-1
3.545906456E0,1.108108759E0,-9.300476074E0,2.008435726E-1
3.548271560E0,1.088955879E0,-9.302869797E0,2.056317925E-1
3.550636665E0,1.117685080E0,-9.295686722E0,1.840848923E-1
3.553002602E0,1.134443760E0,-9.307658195E0,1.984494925E-1
3.555368540E0,1.115290880E0,-9.307658195E0,2.176022530E-1
3.557733644E0,1.129655600E0,-9.298080444E0,2.247845829E-1
3.560098748E0,1.136837959E0,-9.322021484E0,2.439373434E-1
3.562464685E0,1.110502720E0,-9.319627762E0,2.343609631E-1
3.564830571E0,1.141626120E0,-9.312445641E0,2.391491532E-1
3.567195675E0,1.151202440E0,-9.348358154E0,2.702724338E-1
3.569560779E0,1.136837959E0,-9.338780403E0,2.726665437E-1
3.571926717E0,1.155990601E0,-9.357933998E0,2.583019435E-1
3.574292602E0,1.160778761E0,-9.367509842E0,2.678783536E-1
3.576657706E0,1.155990601E0,-9.377086639E0,2.463314831E-1
3.579022862E0,1.170355320E0,-9.391450882E0,2.606960833E-1
3.581388748E0,1.187114000E0,-9.396238327E0,2.630901635E-1
3.583754685E0,1.160778761E0,-9.401027679E0,2.583019435E-1
3.586119790E0,1.177537441E0,-9.401027679E0,2.678783536E-1
3.588484894E0,1.177537441E0,-9.410603523E0,2.702724338E-1
3.590850831E0,1.184719801E0,-9.405816078E0,2.559078634E-1
3.593216717E0,1.199084520E0,-9.427362442E0,2.606960833E-1
3.595581821E0,1.189507961E0,-9.432150841E0,2.750606239E-1
3.597946925E0,1.194296122E0,-9.427362442E0,2.798488438E-1
3.600312862E0,1.196690321E0,-9.429757118E0,2.846370339E-1
3.602678800E0,1.184719801E0,-9.424968719E0,2.630901635E-1
3.605043852E0,1.220631361E0,-9.441726685E0,2.654842734E-1
3.607408956E0,1.191902161E0,-9.420179367E0,2.583019435E-1
3.609774894E0,1.223025322E0,-9.456091881E0,2.559078634E-1
3.612140831E0,1.213449001E0,-9.460879326E0,2.511196733E-1
3.614505935E0,1.223025322E0,-9.424968719E0,2.511196733E-1
3.616871040E0,1.223025322E0,-9.463274002E0,2.559078634E-1
3.619236977E0,1.239784002E0,-9.446516037E0,2.367550731E-1
3.621602862E0,1.239784002E0,-9.484820366E0,2.319668829E-1
3.623967967E0,1.266119242E0,-9.453698158E0,2.152081728E-1
3.626333071E0,1.266119242E0,-9.446516037E0,2.056317925E-1
3.628699008E0,1.273301601E0,-9.463274002E0,2.271786928E-1
3.631064894E0,1.273301601E0,-9.484820366E0,2.128140926E-1
3.633429998E0,1.266119242E0,-9.458485603E0,1.984494925E-1
3.635795154E0,1.294848442E0,-9.446516037E0,1.936612725E-1
3.638161040E0,1.292454243E0,-9.436938286E0,2.104199827E-1
3.640526977E0,1.316395283E0,-9.441726685E0,1.888730824E-1
3.642892081E0,1.311607122E0,-9.434544563E0,1.816907823E-1
3.645257185E0,1.302030802E0,-9.417785645E0,1.649321020E-1
3.647623123E0,1.333153963E0,-9.412998199E0,1.649321020E-1
3.649989008E0,1.337942123E0,-9.434544563E0,1.673262119E-1
3.652354112E0,1.349912643E0,-9.410603523E0,1.577498019E-1
3.654719217E0,1.352306843E0,-9.415391922E0,1.385970116E-1
3.657085154E0,1.378641844E0,-9.403421402E0,1.553556919E-1
3.659451040E0,1.371459484E0,-9.377086639E0,1.529616117E-1
3.661816144E0,1.373853683E0,-9.379480362E0,1.338088214E-1
3.664181300E0,1.400188684E0,-9.362721443E0,1.433852017E-1
3.666547185E0,1.395400524E0,-9.369903564E0,1.409911215E-1
3.668913123E0,1.416947365E0,-9.355539322E0,1.266265213E-1
3.671278227E0,1.445676565E0,-9.350751877E0,1.338088214E-1
3.673643331E0,1.438494205E0,-9.362721443E0,1.362029016E-1
3.676009269E0,1.443282604E0,-9.348358154E0,1.170501336E-1
3.678375154E0,1.452858925E0,-9.331598282E0,1.002914384E-1
3.680740258E0,1.464829445E0,-9.326810837E0,9.789734334E-2
3.683105362E0,1.479193926E0,-9.324417114E0,9.310913086E-2
3.685471300E0,1.491164446E0,-9.338780403E0,8.832094073E-2
3.687837185E0,1.500740767E0,-9.317234039E0,7.874453813E-2
3.690202290E0,1.515105486E0,-9.322021484E0,9.789734334E-2
3.692567394E0,1.519893646E0,-9.307658195E0,8.353274316E-2
3.694933331E0,1.517499447E0,-9.286110878E0,8.832094073E-2
3.697299269E0,1.551016808E0,-9.307658195E0,6.437995285E-2
3.699664373E0,1.548622847E0,-9.312445641E0,9.310913086E-2
3.702029477E0,1.562987328E0,-9.314839363E0,7.635044307E-2
3.704395415E0,1.565381527E0,-9.298080444E0,5.719766021E-2
3.706761300E0,1.553411007E0,-9.290898323E0,7.395634800E-2
3.709126404E0,1.570169687E0,-9.295686722E0,6.437995285E-2
3.711491508E0,1.572563887E0,-9.293292999E0,5.959174782E-2
3.713857446E0,1.541440487E0,-9.286110878E0,5.240945518E-2
3.716223331E0,1.572563887E0,-9.276535034E0,3.086256608E-2
3.718588435E0,1.574957848E0,-9.262169838E0,3.565076739E-2
3.720953540E0,1.567775726E0,-9.276535034E0,4.762125760E-2
3.723319477E0,1.560593367E0,-9.302869797E0,2.846847102E-2
3.725685415E0,1.555805206E0,-9.278928757E0,-2.654813230E-3
3.728050519E0,1.546228647E0,-9.286110878E0,4.043896496E-2
3.730415623E0,1.579746246E0,-9.314839363E0,1.649797708E-2
3.732781560E0,1.567775726E0,-9.298080444E0,4.527483135E-3
3.735147446E0,1.565381527E0,-9.295686722E0,4.527483135E-3
3.737512550E0,1.551016808E0,-9.310051918E0,-5.048912019E-3
3.739877654E0,1.543834686E0,-9.331598282E0,-1.701940596E-2
3.742243592E0,1.527076006E0,-9.314839363E0,-3.856629506E-2
3.744609477E0,1.519893646E0,-9.300476074E0,-3.617219627E-2
3.746974581E0,1.529469967E0,-9.295686722E0,-3.856629506E-2
3.749339685E0,1.503134966E0,-9.314839363E0,-4.574859142E-2
3.751705623E0,1.503134966E0,-9.290898323E0,-6.011318415E-2
3.754071560E0,1.510317326E0,-9.300476074E0,-8.884236962E-2
3.756436665E0,1.524681807E0,-9.302869797E0,-7.208368182E-2
3.758801769E0,1.527076006E0,-9.300476074E0,-6.490138173E-2
3.761167706E0,1.531864166E0,-9.288504601E0,-9.602466971E-2
3.763533592E0,1.539046288E0,-9.295686722E0,-1.223597452E-1
3.765898696E0,1.510317326E0,-9.290898323E0,-1.271479428E-1
3.768263800E0,1.536652327E0,-9.286110878E0,-1.510889381E-1
3.770629737E0,1.546228647E0,-9.302869797E0,-1.582712233E-1
3.772995623E0,1.529469967E0,-9.298080444E0,-1.367243528E-1
3.775360727E0,1.527076006E0,-9.286110878E0,-1.582712233E-1
3.777725831E0,1.541440487E0,-9.312445641E0,-1.534830332E-1
3.780091769E0,1.543834686E0,-9.302869797E0,-1.606653333E-1
3.782457706E0,1.536652327E0,-9.307658195E0,-1.510889381E-1
3.784822810E0,1.527076006E0,-9.310051918E0,-1.486948431E-1
3.787187915E0,1.534258366E0,-9.329204559E0,-1.415125430E-1
3.789553852E0,1.536652327E0,-9.283717155E0,-1.415125430E-1
3.791919737E0,1.531864166E0,-9.281322479E0,-1.319361478E-1
3.794284842E0,1.507923126E0,-9.295686722E0,-1.295420527E-1
3.796649946E0,1.522287846E0,-9.266957283E0,-1.056010649E-1
3.799015883E0,1.539046288E0,-9.266957283E0,-1.151774526E-1
3.801381769E0,1.546228647E0,-9.271745682E0,-1.247538477E-1
3.803746873E0,1.541440487E0,-9.257381439E0,-1.247538477E-1
3.806111977E0,1.534258366E0,-9.262169838E0,-1.175715551E-1
3.808477915E0,1.548622847E0,-9.262169838E0,-1.319361478E-1
3.810843852E0,1.546228647E0,-9.271745682E0,-1.367243528E-1
3.813208956E0,1.560593367E0,-9.240622520E0,-1.175715551E-1
3.815574060E0,1.579746246E0,-9.238228798E0,-1.175715551E-1
3.817939946E0,1.562987328E0,-9.252593994E0,-1.247538477E-1
3.820305883E0,1.584534168E0,-9.245410919E0,-1.103892550E-1
3.822670987E0,1.579746246E0,-9.266957283E0,-1.103892550E-1
3.825036092E0,1.591716528E0,-9.259776115E0,-1.247538477E-1
3.827402029E0,1.567775726E0,-9.264563560E0,-1.223597452E-1
3.829767915E0,1.594110727E0,-9.254987717E0,-1.175715551E-1
3.832133019E0,1.606081247E0,-9.269351959E0,-8.884236962E-2
3.834498123E0,1.591716528E0,-9.281322479E0,-7.926597446E-2
3.836864060E0,1.579746246E0,-9.293292999E0,-9.123647213E-2
3.839229998E0,1.574957848E0,-9.286110878E0,-9.363056719E-2
3.841595102E0,1.591716528E0,-9.286110878E0,-1.008128673E-1
3.843960206E0,1.579746246E0,-9.286110878E0,-5.771908537E-2
3.846326092E0,1.608475208E0,-9.310051918E0,-3.856629506E-2
3.848692029E0,1.603687048E0,-9.298080444E0,-5.771908537E-2
3.851057133E0,1.598898888E0,-9.300476074E0,-8.405417204E-2
3.853422237E0,1.608475208E0,-9.298080444E0,-6.490138173E-2
3.855788175E0,1.601293087E0,-9.300476074E0,-8.644826710E-2
3.858154060E0,1.598898888E0,-9.290898323E0,-8.644826710E-2
3.860519165E0,1.606081247E0,-9.293292999E0,-6.968957186E-2
3.862884269E0,1.608475208E0,-9.283717155E0,-7.208368182E-2
3.865250206E0,1.598898888E0,-9.322021484E0,-8.166007698E-2
3.867616144E0,1.608475208E0,-9.310051918E0,-9.123647213E-2
3.869981248E0,1.603687048E0,-9.314839363E0,-8.166007698E-2
3.872346352E0,1.608475208E0,-9.348358154E0,-7.926597446E-2
3.874712237E0,1.613263607E0,-9.348358154E0,-8.166007698E-2
3.877078175E0,1.594110727E0,-9.348358154E0,-7.208368182E-2
3.879443279E0,1.615657568E0,-9.365116119E0,-9.841876477E-2
3.881808383E0,1.579746246E0,-9.365116119E0,-7.447777689E-2
3.884174321E0,1.572563887E0,-9.389057159E0,-9.841876477E-2
3.886540206E0,1.558199167E0,-9.389057159E0,-8.166007698E-2
3.888905310E0,1.553411007E0,-9.410603523E0,-9.123647213E-2
3.891270415E0,1.529469967E0,-9.401027679E0,-7.447777689E-2
3.893636352E0,1.529469967E0,-9.384268761E0,-6.729547679E-2
3.896002237E0,1.512711287E0,-9.379480362E0,-8.644826710E-2
3.898367342E0,1.481588125E0,-9.372299194E0,-1.008128673E-1
3.900732446E0,1.474405766E0,-9.345962524E0,-1.032069623E-1
3.903098383E0,1.457647085E0,-9.360327721E0,-9.123647213E-2
3.905464321E0,1.469617605E0,-9.348358154E0,-8.644826710E-2
3.907829425E0,1.474405766E0,-9.350751877E0,-9.123647213E-2
3.910194529E0,1.452858925E0,-9.322021484E0,-1.247538477E-1
3.912560467E0,1.450464725E0,-9.324417114E0,-9.602466971E-2
3.914926352E0,1.450464725E0,-9.302869797E0,-7.208368182E-2
3.917291456E0,1.479193926E0,-9.305263519E0,-9.363056719E-2
3.919656560E0,1.464829445E0,-9.283717155E0,-8.166007698E-2
3.922022498E0,1.464829445E0,-9.290898323E0,-9.841876477E-2
3.924388383E0,1.457647085E0,-9.319627762E0,-5.293088779E-2
3.926753487E0,1.448070526E0,-9.322021484E0,-8.644826710E-2
3.929118592E0,1.476799965E0,-9.305263519E0,-7.687187195E-2
3.931484529E0,1.450464725E0,-9.307658195E0,-1.103892550E-1
3.933850467E0,1.472011566E0,-9.331598282E0,-9.602466971E-2
3.936215571E0,1.469617605E0,-9.343568802E0,-8.405417204E-2
3.938580675E0,1.460041046E0,-9.345962524E0,-7.926597446E-2
3.940946612E0,1.455253124E0,-9.362721443E0,-6.011318415E-2
3.943312498E0,1.474405766E0,-9.357933998E0,-5.532498658E-2
3.945677602E0,1.481588125E0,-9.381875038E0,-4.096039385E-2
3.948042706E0,1.474405766E0,-9.386662483E0,-2.659580112E-2
3.950408644E0,1.479193926E0,-9.381875038E0,-9.837109596E-3
3.952774529E0,1.483982086E0,-9.386662483E0,-1.462530717E-2
3.955139633E0,1.460041046E0,-9.374692917E0,-2.180760354E-2
3.957504737E0,1.472011566E0,-9.391450882E0,-1.462530717E-2
3.959870675E0,1.450464725E0,-9.391450882E0,1.649797708E-2
3.962236612E0,1.450464725E0,-9.372299194E0,6.921578199E-3
3.964601717E0,1.460041046E0,-9.381875038E0,4.283306748E-2
3.966966821E0,1.469617605E0,-9.377086639E0,4.522715509E-2
3.969332706E0,1.462435246E0,-9.372299194E0,2.846847102E-2
3.971698644E0,1.448070526E0,-9.353145599E0,5.001536012E-2
3.974063748E0,1.457647085E0,-9.348358154E0,1.889207587E-2
3.976428852E0,1.467223406E0,-9.338780403E0,3.804486990E-2
3.978794790E0,1.436100245E0,-9.293292999E0,4.283306748E-2
3.981160675E0,1.443282604E0,-9.317234039E0,3.325667232E-2
3.983525779E0,1.438494205E0,-9.310051918E0,2.368026972E-2
3.985890883E0,1.457647085E0,-9.288504601E0,2.368026972E-2
3.988256821E0,1.438494205E0,-9.281322479E0,4.527483135E-3
3.990622758E0,1.409765244E0,-9.281322479E0,1.889207587E-2
3.992987862E0,1.419341564E0,-9.283717155E0,1.170977950E-2
3.995352967E0,1.414553165E0,-9.283717155E0,-9.837109596E-3
3.997718852E0,1.421735525E0,-9.290898323E0,2.607437223E-2
4.000084790E0,1.402582645E0,-9.329204559E0,2.607437223E-2
4.002449894E0,1.433706045E0,-9.314839363E0,3.565076739E-2
4.004814998E0,1.419341564E0,-9.317234039E0,6.921578199E-3
4.007180883E0,1.416947365E0,-9.322021484E0,2.368026972E-2
4.009546821E0,1.431312084E0,-9.331598282E0,2.846847102E-2
4.011911925E0,1.421735525E0,-9.331598282E0,5.719766021E-2
4.014277029E0,1.424129725E0,-9.307658195E0,1.889207587E-2
4.016642967E0,1.433706045E0,-9.333992958E0,4.762125760E-2
4.019008852E0,1.400188684E0,-9.333992958E0,5.480355769E-2
4.021373956E0,1.409765244E0,-9.360327721E0,6.198585033E-2
4.023739060E0,1.412159204E0,-9.357933998E0,4.762125760E-2
4.026104998E0,1.407371044E0,-9.348358154E0,2.846847102E-2
4.028470935E0,1.421735525E0,-9.333992958E0,5.240945518E-2
4.030836040E0,1.404976845E0,-9.319627762E0,6.437995285E-2
4.033201144E0,1.409765244E0,-9.312445641E0,2.607437223E-2
4.035567081E0,1.400188684E0,-9.336386681E0,4.043896496E-2
4.037932967E0,1.385824203E0,-9.348358154E0,5.001536012E-2
4.040298071E0,1.414553165E0,-9.331598282E0,4.283306748E-2
4.042663175E0,1.416947365E0,-9.341175079E0,2.128617465E-2
4.045029112E0,1.409765244E0,-9.326810837E0,3.086256608E-2
4.047394998E0,1.416947365E0,-9.331598282E0,3.565076739E-2
4.049760102E0,1.416947365E0,-9.319627762E0,1.889207587E-2
4.052125206E0,1.409765244E0,-9.312445641E0,2.368026972E-2
4.054491144E0,1.424129725E0,-9.305263519E0,3.086256608E-2
4.056857081E0,1.424129725E0,-9.310051918E0,-2.654813230E-3
4.059222185E0,1.424129725E0,-9.319627762E0,2.846847102E-2
4.061587290E0,1.433706045E0,-9.307658195E0,2.128617465E-2
4.063953227E0,1.395400524E0,-9.293292999E0,1.410387456E-2
4.066319112E0,1.400188684E0,-9.317234039E0,3.086256608E-2
4.068684217E0,1.388218164E0,-9.300476074E0,9.315680712E-3
4.071049321E0,1.373853683E0,-9.310051918E0,2.607437223E-2
4.073415258E0,1.385824203E0,-9.338780403E0,4.043896496E-2
4.075781144E0,1.381035805E0,-9.312445641E0,4.043896496E-2
4.078146248E0,1.395400524E0,-9.312445641E0,6.677404791E-2
4.080511352E0,1.390612364E0,-9.324417114E0,5.480355769E-2
4.082877290E0,1.364277363E0,-9.317234039E0,5.240945518E-2
4.085243227E0,1.366671324E0,-9.310051918E0,2.128617465E-2
4.087608331E0,1.369065285E0,-9.326810837E0,3.325667232E-2
4.089973435E0,1.354700804E0,-9.331598282E0,4.762125760E-2
4.092339321E0,1.328365803E0,-9.338780403E0,3.804486990E-2
4.094705258E0,1.349912643E0,-9.341175079E0,3.325667232E-2
4.097070362E0,1.357094765E0,-9.338780403E0,4.283306748E-2
4.099435467E0,1.340336323E0,-9.357933998E0,3.804486990E-2
4.101801404E0,1.340336323E0,-9.348358154E0,8.592683822E-2
4.104167290E0,1.323577404E0,-9.348358154E0,6.437995285E-2
4.106532394E0,1.318789482E0,-9.372299194E0,5.719766021E-2
4.108897498E0,1.309212923E0,-9.348358154E0,7.156225294E-2
4.111263435E0,1.325971603E0,-9.374692917E0,6.916815042E-2
4.113629321E0,1.323577404E0,-9.381875038E0,6.437995285E-2
4.115994425E0,1.316395283E0,-9.386662483E0,6.198585033E-2
4.118359581E0,1.316395283E0,-9.401027679E0,5.001536012E-2
4.120725467E0,1.297242403E0,-9.374692917E0,3.325667232E-2
4.123091404E0,1.337942123E0,-9.393844604E0,6.198585033E-2
4.125456508E0,1.330759764E0,-9.386662483E0,3.086256608E-2
4.127821612E0,1.304424763E0,-9.384268761E0,2.846847102E-2
4.130187550E0,1.314001083E0,-9.401027679E0,1.649797708E-2
4.132553435E0,1.330759764E0,-9.398633957E0,1.410387456E-2
4.134918540E0,1.328365803E0,-9.401027679E0,1.649797708E-2
4.137283644E0,1.290060282E0,-9.377086639E0,2.133384347E-3
4.139649581E0,1.330759764E0,-9.393844604E0,1.170977950E-2
4.142015467E0,1.314001083E0,-9.386662483E0,1.649797708E-2
4.144380571E0,1.311607122E0,-9.360327721E0,-2.654813230E-3
4.146745675E0,1.311607122E0,-9.374692917E0,-2.180760354E-2
4.149111612E0,1.323577404E0,-9.365116119E0,-7.443010807E-3
4.151477550E0,1.316395283E0,-9.381875038E0,-2.654813230E-3
4.153842654E0,1.294848442E0,-9.357933998E0,-3.138399869E-2
4.156207758E0,1.302030802E0,-9.365116119E0,-1.701940596E-2
4.158573644E0,1.299636602E0,-9.377086639E0,-9.837109596E-3
4.160939581E0,1.302030802E0,-9.367509842E0,-3.856629506E-2
4.163304685E0,1.309212923E0,-9.341175079E0,-1.223121025E-2
4.165669790E0,1.314001083E0,-9.369903564E0,-2.180760354E-2
4.168035727E0,1.318789482E0,-9.345962524E0,-2.659580112E-2
4.170401612E0,1.333153963E0,-9.343568802E0,-3.617219627E-2
4.172766717E0,1.328365803E0,-9.350751877E0,-3.138399869E-2
4.175131821E0,1.330759764E0,-9.355539322E0,-2.898989990E-2
4.177497758E0,1.328365803E0,-9.324417114E0,-2.659580112E-2
4.179863644E0,1.323577404E0,-9.348358154E0,-1.941350475E-2
4.182228748E0,1.347518444E0,-9.355539322E0,-4.574859142E-2
4.184593852E0,1.342730284E0,-9.322021484E0,-4.335449263E-2
4.186959790E0,1.340336323E0,-9.305263519E0,-4.335449263E-2
4.189325727E0,1.354700804E0,-9.302869797E0,-3.617219627E-2
4.191690831E0,1.369065285E0,-9.298080444E0,-3.617219627E-2
4.194055935E0,1.385824203E0,-9.295686722E0,-2.180760354E-2
4.196421873E0,1.378641844E0,-9.281322479E0,-5.293088779E-2
4.198787758E0,1.381035805E0,-9.290898323E0,-5.293088779E-2
4.201152862E0,1.385824203E0,-9.281322479E0,-4.814269021E-2
4.203517967E0,1.393006325E0,-9.278928757E0,-5.053678900E-2
4.205883904E0,1.395400524E0,-9.262169838E0,-4.096039385E-2
4.208249790E0,1.416947365E0,-9.264563560E0,-4.096039385E-2
4.210614894E0,1.428917885E0,-9.271745682E0,-5.532498658E-2
4.212979998E0,1.438494205E0,-9.259776115E0,-6.490138173E-2
4.215345935E0,1.438494205E0,-9.278928757E0,-4.096039385E-2
4.217711873E0,1.445676565E0,-9.271745682E0,-6.250727922E-2
4.220076977E0,1.462435246E0,-9.257381439E0,-6.250727922E-2
4.222442081E0,1.452858925E0,-9.274139404E0,-5.532498658E-2
4.224807967E0,1.467223406E0,-9.271745682E0,-6.250727922E-2
4.227173904E0,1.464829445E0,-9.266957283E0,-4.096039385E-2
4.229539008E0,1.503134966E0,-9.290898323E0,-3.138399869E-2
4.231904112E0,1.486376286E0,-9.307658195E0,-5.771908537E-2
4.234270050E0,1.483982086E0,-9.300476074E0,-4.814269021E-2
4.236635935E0,1.500740767E0,-9.298080444E0,-4.096039385E-2
4.239001040E0,1.498346806E0,-9.305263519E0,-1.701940596E-2
4.241366144E0,1.507923126E0,-9.310051918E0,-3.138399869E-2
4.243732081E0,1.503134966E0,-9.307658195E0,-4.335449263E-2
4.246097967E0,1.505528927E0,-9.314839363E0,-1.462530717E-2
4.248463071E0,1.507923126E0,-9.331598282E0,-3.617219627E-2
4.250828175E0,1.529469967E0,-9.333992958E0,-1.941350475E-2
4.253194112E0,1.519893646E0,-9.355539322E0,-1.223121025E-2
4.255560050E0,1.510317326E0,-9.353145599E0,-2.180760354E-2
4.257925154E0,1.541440487E0,-9.343568802E0,-2.420170233E-2
4.260290258E0,1.543834686E0,-9.355539322E0,-2.180760354E-2
4.262656196E0,1.558199167E0,-9.357933998E0,6.921578199E-3
4.265022081E0,1.548622847E0,-9.362721443E0,-7.443010807E-3
4.267387185E0,1.548622847E0,-9.369903564E0,-4.574859142E-2
4.269752290E0,1.560593367E0,-9.384268761E0,-1.462530717E-2
4.272118227E0,1.574957848E0,-9.393844604E0,-7.443010807E-3
4.274484112E0,1.584534168E0,-9.386662483E0,-7.443010807E-3
4.276849217E0,1.558199167E0,-9.389057159E0,-2.607163042E-4
4.279214321E0,1.577352047E0,-9.408209801E0,-1.223121025E-2
4.281580258E0,1.546228647E0,-9.415391922E0,-2.654813230E-3
4.283946144E0,1.543834686E0,-9.393844604E0,-1.462530717E-2
4.286311248E0,1.567775726E0,-9.386662483E0,-1.701940596E-2
4.288676404E0,1.565381527E0,-9.393844604E0,-1.941350475E-2
4.291042290E0,1.548622847E0,-9.379480362E0,-2.420170233E-2
4.293408227E0,1.539046288E0,-9.377086639E0,-5.293088779E-2
4.295773331E0,1.546228647E0,-9.362721443E0,-4.096039385E-2
4.298138435E0,1.546228647E0,-9.345962524E0,-3.138399869E-2
4.300504373E0,1.519893646E0,-9.355539322E0,-5.771908537E-2
4.302870258E0,1.512711287E0,-9.345962524E0,-5.053678900E-2
4.305235362E0,1.527076006E0,-9.336386681E0,-5.053678900E-2
4.307600467E0,1.519893646E0,-9.338780403E0,-4.574859142E-2
4.309966404E0,1.534258366E0,-9.324417114E0,-2.420170233E-2
4.312332290E0,1.527076006E0,-9.305263519E0,-5.532498658E-2
4.314697394E0,1.527076006E0,-9.293292999E0,-5.293088779E-2
4.317062498E0,1.541440487E0,-9.288504601E0,-5.532498658E-2
4.319428435E0,1.543834686E0,-9.281322479E0,-5.771908537E-2
4.321794373E0,1.546228647E0,-9.283717155E0,-2.420170233E-2
4.324159477E0,1.551016808E0,-9.298080444E0,-2.420170233E-2
4.326524581E0,1.531864166E0,-9.298080444E0,-4.335449263E-2
4.328890467E0,1.555805206E0,-9.283717155E0,-1.462530717E-2
4.331256404E0,1.567775726E0,-9.288504601E0,-1.701940596E-2
4.333621508E0,1.574957848E0,-9.276535034E0,-3.138399869E-2
4.335986612E0,1.572563887E0,-9.271745682E0,-1.462530717E-2
4.338352550E0,1.574957848E0,-9.252593994E0,-1.462530717E-2
4.340718435E0,1.560593367E0,-9.262169838E0,1.170977950E-2
4.343083540E0,1.567775726E0,-9.274139404E0,-1.223121025E-2
4.345448644E0,1.589322567E0,-9.286110878E0,2.133384347E-3
4.347814581E0,1.577352047E0,-9.274139404E0,6.921578199E-3
4.350180519E0,1.577352047E0,-9.278928757E0,4.527483135E-3
4.352545623E0,1.594110727E0,-9.266957283E0,1.649797708E-2
4.354910727E0,1.589322567E0,-9.278928757E0,1.649797708E-2
4.357276612E0,1.586928368E0,-9.290898323E0,2.846847102E-2
4.359642550E0,1.598898888E0,-9.295686722E0,-5.048912019E-3
4.362007654E0,1.596504688E0,-9.288504601E0,2.607437223E-2
4.364372758E0,1.596504688E0,-9.259776115E0,4.527483135E-3
4.366738696E0,1.601293087E0,-9.262169838E0,2.846847102E-2
4.369104581E0,1.608475208E0,-9.278928757E0,4.762125760E-2
4.371469685E0,1.591716528E0,-9.269351959E0,9.315680712E-3
4.373834790E0,1.598898888E0,-9.271745682E0,9.315680712E-3
4.376200727E0,1.579746246E0,-9.245410919E0,6.921578199E-3
4.378566612E0,1.591716528E0,-9.257381439E0,2.368026972E-2
4.380931717E0,1.577352047E0,-9.243017197E0,1.170977950E-2
4.383296821E0,1.572563887E0,-9.250198364E0,1.889207587E-2
4.385662758E0,1.567775726E0,-9.235835075E0,-9.837109596E-3
4.388028696E0,1.558199167E0,-9.231046677E0,2.133384347E-3
4.390393800E0,1.579746246E0,-9.252593994E0,-1.941350475E-2
4.392758904E0,1.577352047E0,-9.254987717E0,-1.462530717E-2
4.395124790E0,1.558199167E0,-9.259776115E0,-3.138399869E-2
4.397490727E0,1.577352047E0,-9.254987717E0,-1.701940596E-2
4.399855831E0,1.567775726E0,-9.259776115E0,-1.941350475E-2
4.402220935E0,1.553411007E0,-9.254987717E0,-1.462530717E-2
4.404586873E0,1.553411007E0,-9.276535034E0,-3.377809748E-2
4.406952758E0,1.560593367E0,-9.293292999E0,-4.574859142E-2
4.409317862E0,1.546228647E0,-9.300476074E0,-4.096039385E-2
4.411682967E0,1.574957848E0,-9.317234039E0,-5.293088779E-2
4.414048904E0,1.572563887E0,-9.298080444E0,-1.223121025E-2
4.416414790E0,1.567775726E0,-9.322021484E0,-1.701940596E-2
4.418779894E0,1.572563887E0,-9.333992958E0,-9.837109596E-3
4.421144998E0,1.551016808E0,-9.329204559E0,-1.223121025E-2
4.423510935E0,1.539046288E0,-9.322021484E0,-2.607163042E-4
4.425876873E0,1.551016808E0,-9.343568802E0,-1.462530717E-2
4.428241977E0,1.531864166E0,-9.343568802E0,-1.701940596E-2
4.430607081E0,1.555805206E0,-9.341175079E0,-2.420170233E-2
4.432973019E0,1.536652327E0,-9.322021484E0,-5.048912019E-3
4.435338904E0,1.519893646E0,-9.355539322E0,2.133384347E-3
4.437704008E0,1.517499447E0,-9.341175079E0,-2.420170233E-2
4.440069112E0,1.536652327E0,-9.331598282E0,-1.941350475E-2
4.442435050E0,1.524681807E0,-9.326810837E0,-1.462530717E-2
4.444800935E0,1.524681807E0,-9.326810837E0,-3.617219627E-2
4.447166040E0,1.539046288E0,-9.312445641E0,-4.335449263E-2
4.449531144E0,1.522287846E0,-9.307658195E0,-1.462530717E-2
4.451897081E0,1.517499447E0,-9.314839363E0,-4.096039385E-2
4.454262967E0,1.529469967E0,-9.329204559E0,-4.814269021E-2
4.456628071E0,1.519893646E0,-9.317234039E0,-5.053678900E-2
4.458993227E0,1.527076006E0,-9.317234039E0,-5.293088779E-2
4.461359112E0,1.527076006E0,-9.324417114E0,-3.377809748E-2
4.463725050E0,1.531864166E0,-9.343568802E0,-4.574859142E-2
4.466090154E0,1.524681807E0,-9.310051918E0,-7.447777689E-2
4.468455258E0,1.524681807E0,-9.302869797E0,-6.729547679E-2
4.470821196E0,1.522287846E0,-9.326810837E0,-6.729547679E-2
4.473187081E0,1.505528927E0,-9.307658195E0,-6.490138173E-2
4.475552185E0,1.519893646E0,-9.331598282E0,-8.644826710E-2
4.477917290E0,1.517499447E0,-9.324417114E0,-8.644826710E-2
4.480283227E0,1.493558407E0,-9.307658195E0,-9.123647213E-2
4.482649112E0,1.495952606E0,-9.305263519E0,-8.644826710E-2
4.485014217E0,1.479193926E0,-9.305263519E0,-9.602466971E-2
4.487379321E0,1.493558407E0,-9.288504601E0,-9.602466971E-2
4.489745258E0,1.488770485E0,-9.312445641E0,-1.151774526E-1
4.492111196E0,1.507923126E0,-9.295686722E0,-1.151774526E-1
4.494476300E0,1.493558407E0,-9.300476074E0,-1.032069623E-1
4.496841404E0,1.472011566E0,-9.300476074E0,-1.056010649E-1
4.499207290E0,1.469617605E0,-9.298080444E0,-1.127833575E-1
4.501573227E0,1.491164446E0,-9.278928757E0,-8.644826710E-2
4.503938331E0,1.467223406E0,-9.295686722E0,-9.602466971E-2
4.506303435E0,1.457647085E0,-9.293292999E0,-9.602466971E-2
4.508669373E0,1.476799965E0,-9.300476074E0,-8.166007698E-2
4.511035258E0,1.440888405E0,-9.324417114E0,-6.011318415E-2
4.513400362E0,1.445676565E0,-9.331598282E0,-6.968957186E-2
4.515765467E0,1.452858925E0,-9.338780403E0,-4.574859142E-2
4.518131404E0,1.426523685E0,-9.326810837E0,-5.532498658E-2
4.520497290E0,1.433706045E0,-9.329204559E0,-6.011318415E-2
4.522862394E0,1.407371044E0,-9.353145599E0,-2.659580112E-2
4.525227498E0,1.390612364E0,-9.365116119E0,-3.617219627E-2
4.527593435E0,1.378641844E0,-9.362721443E0,-4.335449263E-2
4.529959373E0,1.352306843E0,-9.367509842E0,-4.814269021E-2
4.532324477E0,1.349912643E0,-9.377086639E0,-5.293088779E-2
4.534689581E0,1.376247644E0,-9.384268761E0,-2.180760354E-2
4.537055467E0,1.364277363E0,-9.391450882E0,-4.096039385E-2
4.539421404E0,1.361883163E0,-9.374692917E0,-5.771908537E-2
4.541786508E0,1.354700804E0,-9.386662483E0,-5.771908537E-2
4.544151612E0,1.354700804E0,-9.391450882E0,-5.053678900E-2
4.546517550E0,1.361883163E0,-9.367509842E0,-5.053678900E-2
4.548883435E0,1.364277363E0,-9.369903564E0,-4.096039385E-2
4.551248540E0,1.354700804E0,-9.357933998E0,-8.884236962E-2
4.553613644E0,1.361883163E0,-9.357933998E0,-7.926597446E-2
4.555979581E0,1.330759764E0,-9.360327721E0,-1.079951525E-1
4.558345467E0,1.345124483E0,-9.362721443E0,-8.166007698E-2
4.560710571E0,1.340336323E0,-9.326810837E0,-1.151774526E-1
4.563075675E0,1.337942123E0,-9.331598282E0,-1.247538477E-1
4.565441612E0,1.349912643E0,-9.333992958E0,-1.199656576E-1
4.567807550E0,1.345124483E0,-9.341175079E0,-1.486948431E-1
4.570172654E0,1.347518444E0,-9.324417114E0,-1.295420527E-1
4.572537758E0,1.354700804E0,-9.333992958E0,-1.127833575E-1
4.574903644E0,1.335547924E0,-9.326810837E0,-1.391184330E-1
4.577269581E0,1.330759764E0,-9.312445641E0,-1.534830332E-1
4.579634685E0,1.352306843E0,-9.314839363E0,-1.103892550E-1
4.581999790E0,1.333153963E0,-9.326810837E0,-1.295420527E-1
4.584365727E0,1.349912643E0,-9.305263519E0,-1.295420527E-1
4.586731612E0,1.357094765E0,-9.305263519E0,-1.199656576E-1
4.589096717E0,1.342730284E0,-9.324417114E0,-1.343302429E-1
4.591461821E0,1.371459484E0,-9.290898323E0,-1.056010649E-1
4.593827758E0,1.371459484E0,-9.305263519E0,-1.056010649E-1
4.596193644E0,1.371459484E0,-9.290898323E0,-8.884236962E-2
4.598558748E0,1.366671324E0,-9.281322479E0,-1.079951525E-1
4.600923852E0,1.383430004E0,-9.310051918E0,-1.247538477E-1
4.603289790E0,1.393006325E0,-9.281322479E0,-1.008128673E-1
4.605655727E0,1.388218164E0,-9.305263519E0,-7.926597446E-2
4.608020831E0,1.409765244E0,-9.295686722E0,-8.644826710E-2
4.610385935E0,1.407371044E0,-9.300476074E0,-9.363056719E-2
4.612751821E0,1.424129725E0,-9.293292999E0,-9.841876477E-2
4.615117758E0,1.404976845E0,-9.271745682E0,-8.884236962E-2
4.617482862E0,1.412159204E0,-9.288504601E0,-6.490138173E-2
4.619847967E0,1.400188684E0,-9.274139404E0,-5.293088779E-2
4.622213904E0,1.438494205E0,-9.290898323E0,-6.490138173E-2
4.624579790E0,1.428917885E0,-9.274139404E0,-5.053678900E-2
4.626944894E0,1.438494205E0,-9.278928757E0,-7.447777689E-2
4.629309998E0,1.431312084E0,-9.264563560E0,-6.968957186E-2
4.631675935E0,1.421735525E0,-9.262169838E0,-8.405417204E-2
4.634041821E0,1.426523685E0,-9.269351959E0,-7.208368182E-2
4.636406925E0,1.428917885E0,-9.259776115E0,-7.687187195E-2
4.638772029E0,1.424129725E0,-9.271745682E0,-1.032069623E-1
4.641137967E0,1.419341564E0,-9.257381439E0,-1.008128673E-1
4.643503904E0,1.426523685E0,-9.247804642E0,-1.199656576E-1
4.645869008E0,1.440888405E0,-9.259776115E0,-1.079951525E-1
4.648234112E0,1.404976845E0,-9.276535034E0,-1.127833575E-1
4.650599998E0,1.421735525E0,-9.269351959E0,-1.008128673E-1
4.652965935E0,1.426523685E0,-9.271745682E0,-9.841876477E-2
4.655331040E0,1.395400524E0,-9.274139404E0,-1.175715551E-1
4.657696144E0,1.385824203E0,-9.281322479E0,-1.103892550E-1
4.660062081E0,1.390612364E0,-9.286110878E0,-1.175715551E-1
4.662427967E0,1.390612364E0,-9.278928757E0,-1.008128673E-1
4.664793071E0,1.378641844E0,-9.290898323E0,-1.343302429E-1
4.667158175E0,1.383430004E0,-9.288504601E0,-1.127833575E-1
4.669524112E0,1.369065285E0,-9.288504601E0,-1.463007331E-1
4.671889998E0,1.390612364E0,-9.274139404E0,-1.463007331E-1
4.674255102E0,1.390612364E0,-9.300476074E0,-1.415125430E-1
4.676620206E0,1.393006325E0,-9.319627762E0,-1.271479428E-1
4.678986144E0,1.390612364E0,-9.329204559E0,-1.606653333E-1
4.681352081E0,1.388218164E0,-9.338780403E0,-1.486948431E-1
4.683717185E0,1.383430004E0,-9.341175079E0,-1.008128673E-1
4.686082290E0,1.385824203E0,-9.350751877E0,-1.079951525E-1
4.688448227E0,1.388218164E0,-9.365116119E0,-1.103892550E-1
4.690814112E0,1.376247644E0,-9.345962524E0,-1.606653333E-1
4.693179217E0,1.371459484E0,-9.365116119E0,-1.032069623E-1
4.695544321E0,1.371459484E0,-9.367509842E0,-1.032069623E-1
4.697910258E0,1.369065285E0,-9.369903564E0,-1.079951525E-1
4.700276144E0,1.378641844E0,-9.386662483E0,-1.127833575E-1
4.702641248E0,1.354700804E0,-9.348358154E0,-1.175715551E-1
4.705006352E0,1.361883163E0,-9.381875038E0,-9.363056719E-2
4.707372290E0,1.349912643E0,-9.355539322E0,-8.644826710E-2
4.709738175E0,1.328365803E0,-9.365116119E0,-8.644826710E-2
4.712103279E0,1.335547924E0,-9.355539322E0,-9.363056719E-2
4.714468383E0,1.333153963E0,-9.355539322E0,-8.884236962E-2
4.716834321E0,1.323577404E0,-9.348358154E0,-8.405417204E-2
4.719200258E0,1.311607122E0,-9.350751877E0,-1.175715551E-1
4.721565362E0,1.328365803E0,-9.374692917E0,-1.319361478E-1
4.723930467E0,1.333153963E0,-9.362721443E0,-1.486948431E-1
4.726296352E0,1.361883163E0,-9.396238327E0,-1.798181236E-1
4.728662290E0,1.354700804E0,-9.460879326E0,-2.875525653E-1
4.731027394E0,1.376247644E0,-9.415391922E0,-2.564292848E-1
4.733392498E0,1.371459484E0,-9.348358154E0,-1.798181236E-1
4.735758435E0,1.330759764E0,-9.310051918E0,-1.008128673E-1
4.738124321E0,1.280483723E0,-9.274139404E0,-8.405417204E-2
4.740489425E0,1.275695562E0,-9.288504601E0,-5.053678900E-2
4.742854529E0,1.227813601E0,-9.250198364E0,-6.011318415E-2
4.745220467E0,1.254148722E0,-9.283717155E0,-6.968957186E-2
4.747586352E0,1.273301601E0,-9.288504601E0,-8.644826710E-2
4.749951456E0,1.294848442E0,-9.295686722E0,-8.405417204E-2
4.752316560E0,1.323577404E0,-9.302869797E0,-1.056010649E-1
4.754682498E0,1.314001083E0,-9.305263519E0,-8.166007698E-2
4.757048435E0,1.325971603E0,-9.326810837E0,-1.008128673E-1
4.759413540E0,1.349912643E0,-9.310051918E0,-9.602466971E-2
4.761778644E0,1.364277363E0,-9.307658195E0,-1.175715551E-1
4.764144581E0,1.325971603E0,-9.298080444E0,-1.008128673E-1
4.766510467E0,1.347518444E0,-9.295686722E0,-1.056010649E-1
4.768875571E0,1.330759764E0,-9.281322479E0,-1.175715551E-1
4.771240675E0,1.340336323E0,-9.288504601E0,-1.415125430E-1
4.773606612E0,1.347518444E0,-9.290898323E0,-1.271479428E-1
4.775972498E0,1.361883163E0,-9.307658195E0,-1.199656576E-1
4.778337602E0,1.337942123E0,-9.310051918E0,-1.223597452E-1
4.780702706E0,1.333153963E0,-9.312445641E0,-1.032069623E-1
4.783068644E0,1.323577404E0,-9.312445641E0,-1.175715551E-1
4.785434529E0,1.325971603E0,-9.319627762E0,-1.032069623E-1
4.787799633E0,1.352306843E0,-9.322021484E0,-1.175715551E-1
4.790164737E0,1.318789482E0,-9.326810837E0,-1.127833575E-1
4.792530675E0,1.328365803E0,-9.326810837E0,-9.363056719E-2
4.794896612E0,1.321183443E0,-9.341175079E0,-9.841876477E-2
4.797261717E0,1.342730284E0,-9.336386681E0,-8.644826710E-2
4.799626821E0,1.337942123E0,-9.345962524E0,-8.884236962E-2
4.801992706E0,1.335547924E0,-9.350751877E0,-1.079951525E-1
4.804358644E0,1.330759764E0,-9.343568802E0,-1.008128673E-1
4.806723748E0,1.325971603E0,-9.357933998E0,-1.008128673E-1
4.809088852E0,1.342730284E0,-9.345962524E0,-7.687187195E-2
4.811454790E0,1.325971603E0,-9.355539322E0,-6.490138173E-2
4.813820675E0,1.314001083E0,-9.355539322E0,-7.208368182E-2
4.816185779E0,1.316395283E0,-9.333992958E0,-9.602466971E-2
4.818550883E0,1.318789482E0,-9.341175079E0,-8.405417204E-2
4.820916821E0,1.321183443E0,-9.331598282E0,-9.123647213E-2
4.823282706E0,1.302030802E0,-9.314839363E0,-8.405417204E-2
4.825647810E0,1.311607122E0,-9.348358154E0,-9.841876477E-2
4.828012915E0,1.299636602E0,-9.338780403E0,-7.687187195E-2
4.830378852E0,1.306818962E0,-9.329204559E0,-7.687187195E-2
4.832744790E0,1.302030802E0,-9.314839363E0,-7.208368182E-2
4.835109894E0,1.290060282E0,-9.300476074E0,-7.208368182E-2
4.837474998E0,1.282877922E0,-9.276535034E0,-4.574859142E-2
4.839840883E0,1.290060282E0,-9.281322479E0,-2.654813230E-3
4.842206821E0,1.266119242E0,-9.274139404E0,-1.701940596E-2
4.844571925E0,1.292454243E0,-9.278928757E0,-4.335449263E-2
4.846937029E0,1.299636602E0,-9.283717155E0,-1.701940596E-2
4.849302967E0,1.304424763E0,-9.288504601E0,-3.138399869E-2
4.851668852E0,1.318789482E0,-9.312445641E0,-2.420170233E-2
4.854033956E0,1.302030802E0,-9.290898323E0,2.133384347E-3
4.856399060E0,1.299636602E0,-9.278928757E0,-2.607163042E-4
4.858764998E0,1.294848442E0,-9.298080444E0,1.410387456E-2
4.861130883E0,1.302030802E0,-9.288504601E0,-2.607163042E-4
4.863495987E0,1.306818962E0,-9.288504601E0,-1.223121025E-2
4.865861092E0,1.318789482E0,-9.293292999E0,-2.607163042E-4
4.868227029E0,1.314001083E0,-9.307658195E0,4.527483135E-3
4.870592915E0,1.290060282E0,-9.302869797E0,-3.856629506E-2
4.872958019E0,1.309212923E0,-9.305263519E0,-4.335449263E-2
4.875323123E0,1.306818962E0,-9.329204559E0,-5.532498658E-2
4.877689060E0,1.311607122E0,-9.302869797E0,-7.687187195E-2
