"Time (s)","Gyroscope x (rad/s)","Gyroscope y (rad/s)","Gyroscope z (rad/s)"
0.000000000E0,3.516683877E-1,-3.060318828E-1,2.024566233E-1
2.004000000E-3,3.308990002E-1,-3.066427708E-1,2.317781597E-1
4.004000000E-3,3.089078367E-1,-3.072535992E-1,2.531584501E-1
6.004000000E-3,3.021883368E-1,-3.096970916E-1,2.598779500E-1
8.002750000E-3,2.850840688E-1,-3.023667037E-1,2.702626586E-1
1.000275000E-2,2.728667855E-1,-2.980906367E-1,2.720952630E-1
1.200275000E-2,2.692016065E-1,-2.895385027E-1,2.696518004E-1
1.400246400E-2,2.630929649E-1,-2.889276445E-1,2.678192258E-1
1.600221400E-2,2.594277561E-1,-2.809864283E-1,2.629322708E-1
1.800199100E-2,2.582060099E-1,-2.791537941E-1,2.470497936E-1
2.000179100E-2,2.655363977E-1,-2.773212194E-1,2.323890179E-1
2.200215400E-2,2.679798603E-1,-2.803755403E-1,2.262803614E-1
2.400198700E-2,2.771428525E-1,-2.767103612E-1,2.103978693E-1
2.600183300E-2,2.875275612E-1,-2.852624655E-1,1.932936460E-1
2.800169000E-2,2.960796654E-1,-2.870950699E-1,1.865741313E-1
3.000142300E-2,3.125730157E-1,-2.932037115E-1,1.700807661E-1
3.200117300E-2,3.327315748E-1,-3.054210246E-1,1.584743261E-1
3.400093700E-2,3.363967538E-1,-3.164165914E-1,1.505330801E-1
3.600071400E-2,3.553335965E-1,-3.353534341E-1,1.401483715E-1
3.800050300E-2,3.663291633E-1,-3.451272547E-1,1.370940357E-1
4.000030300E-2,3.822116554E-1,-3.787248433E-1,1.322071254E-1
4.200011200E-2,3.974833190E-1,-4.056029022E-1,1.285419315E-1
4.399983900E-2,4.011484981E-1,-4.233179986E-1,1.242658794E-1
4.599957800E-2,4.133657813E-1,-4.501960874E-1,1.260984689E-1
4.799932800E-2,4.200853109E-1,-4.666894674E-1,1.279310733E-1
4.999908800E-2,4.200853109E-1,-4.734089673E-1,1.334288418E-1
5.199885700E-2,4.231396616E-1,-4.758524299E-1,1.395375133E-1
5.399863400E-2,4.194744527E-1,-4.727981091E-1,1.438135654E-1
5.599841900E-2,4.170309901E-1,-4.666894674E-1,1.505330801E-1
5.799821200E-2,4.078679979E-1,-4.532504082E-1,1.572525948E-1
5.999794500E-2,4.066462815E-1,-4.501960874E-1,1.578634679E-1
6.199754500E-2,3.974833190E-1,-4.471417665E-1,1.645829827E-1
6.399727800E-2,3.877094388E-1,-4.508069456E-1,1.676373035E-1
6.599701100E-2,3.852660060E-1,-4.575264454E-1,1.713024974E-1
6.799691100E-2,3.754921556E-1,-4.709654748E-1,1.792437434E-1
6.999664400E-2,3.675509095E-1,-4.825719297E-1,1.877958477E-1
7.199637700E-2,3.596096635E-1,-4.917349219E-1,2.006240189E-1
7.399617700E-2,3.443379998E-1,-5.045630932E-1,2.275021076E-1
7.599591000E-2,3.382293582E-1,-5.100609064E-1,2.488823831E-1
7.799564300E-2,3.266229331E-1,-5.314411521E-1,2.916429341E-1
7.999494300E-2,3.076860905E-1,-5.705365539E-1,3.392904401E-1
8.199504300E-2,3.003557026E-1,-5.980254412E-1,3.618924618E-1
8.399477600E-2,2.844732404E-1,-6.591119766E-1,4.052638710E-1
8.599450900E-2,2.692016065E-1,-7.360810041E-1,4.455809891E-1
8.799424200E-2,2.569842935E-1,-7.727329135E-1,4.626851976E-1
8.999404200E-2,2.441561073E-1,-8.478693366E-1,4.889524281E-1
9.199377500E-2,2.380474657E-1,-8.814669251E-1,5.017806292E-1
9.399350800E-2,2.264410257E-1,-9.431642890E-1,5.225499868E-1
9.599324100E-2,2.215541005E-1,-9.871466160E-1,5.359890461E-1
9.799297400E-2,2.191106379E-1,-1.002418280E0,5.402650833E-1
9.999270700E-2,2.215541005E-1,-1.029296398E0,5.463737845E-1
1.019924400E-1,2.276627570E-1,-1.032961607E0,5.488172174E-1
1.039922400E-1,2.319388092E-1,-1.031739712E0,5.475954413E-1
1.059920400E-1,2.441561073E-1,-1.003029108E0,5.390433669E-1
1.079917730E-1,2.612603307E-1,-9.889792204E-1,5.304912925E-1
1.099915060E-1,2.698124647E-1,-9.370556474E-1,5.078892708E-1
1.119912390E-1,2.936362028E-1,-8.790234923E-1,4.779568613E-1
1.139909720E-1,3.009665906E-1,-8.429824114E-1,4.608526230E-1
1.159902050E-1,3.260120451E-1,-7.580721378E-1,4.199246466E-1
1.179899380E-1,3.510575294E-1,-6.707184315E-1,3.759423494E-1
1.199897380E-1,3.620530963E-1,-6.279578805E-1,3.490642607E-1
1.219895380E-1,3.907637596E-1,-5.351063013E-1,2.995842099E-1
1.239892710E-1,4.170309901E-1,-4.422548115E-1,2.458280623E-1
1.259890040E-1,4.249722362E-1,-4.019377232E-1,2.207825780E-1
1.279887370E-1,4.512394369E-1,-3.206926584E-1,1.676373035E-1
1.299884700E-1,4.604023993E-1,-2.809864283E-1,1.413701028E-1
1.319882030E-1,4.768957794E-1,-2.089043111E-1,9.189001471E-2
1.339875030E-1,4.897239506E-1,-1.417091340E-1,4.851858318E-2
1.359873030E-1,4.885022342E-1,-1.172745228E-1,2.347310819E-2
1.379870360E-1,4.909456670E-1,-5.618799478E-2,-1.317880768E-2
1.399883020E-1,4.836153090E-1,-1.220569760E-2,-5.105245113E-2
1.419874680E-1,4.732306004E-1,1.100718137E-2,-6.693495065E-2
1.439872010E-1,4.500176907E-1,4.888082668E-2,-9.625647962E-2
1.459869340E-1,4.231396616E-1,8.003494889E-2,-1.255780160E-1
1.479866670E-1,4.054245353E-1,8.675447106E-2,-1.371844411E-1
1.499864000E-1,3.681617677E-1,1.044695675E-1,-1.512343585E-1
1.519862000E-1,3.486140668E-1,1.050804257E-1,-1.548995376E-1
1.539859330E-1,3.125730157E-1,9.103052318E-2,-1.542886794E-1
1.559856660E-1,2.789754272E-1,5.010255799E-2,-1.469582915E-1
1.579853990E-1,2.630929649E-1,1.100718137E-2,-1.408496350E-1
1.599851320E-1,2.252192944E-1,-6.046405435E-2,-1.329084039E-1
1.619848650E-1,1.830696017E-1,-1.520938426E-1,-1.255780160E-1
1.639842980E-1,1.598567218E-1,-1.869131625E-1,-1.261888742E-1
1.659840310E-1,1.024353802E-1,-2.541083395E-1,-1.280214638E-1
1.679838310E-1,7.311385125E-2,-2.797646821E-1,-1.280214638E-1
1.699835640E-1,4.696942866E-3,-3.158057332E-1,-1.304649413E-1
1.719832970E-1,-5.822217464E-2,-3.457381427E-1,-1.298540682E-1
1.739830300E-1,-9.304149449E-2,-3.610097766E-1,-1.304649413E-1
1.759832630E-1,-1.541280150E-1,-3.970507979E-1,-1.237454116E-1
1.779829960E-1,-2.084950209E-1,-4.318701029E-1,-1.127498373E-1
1.799827290E-1,-2.359839678E-1,-4.563047290E-1,-1.078629196E-1
1.819824620E-1,-2.756902277E-1,-4.990653098E-1,-8.892609179E-2
1.839822620E-1,-2.952378988E-1,-5.186129808E-1,-8.220658451E-2
1.859819950E-1,-3.294463456E-1,-5.656495690E-1,-6.265889108E-2
1.879817280E-1,-3.606004715E-1,-5.980254412E-1,-4.188947380E-2
1.899814610E-1,-3.715960383E-1,-6.169622540E-1,-3.394822776E-2
1.919811940E-1,-3.978632390E-1,-6.273469925E-1,-1.378967147E-2
1.939813600E-1,-4.216870070E-1,-6.334556341E-1,2.602286113E-4
1.959810930E-1,-4.332934320E-1,-6.304013133E-1,1.064493787E-2
1.979808930E-1,-4.528411329E-1,-6.230708957E-1,2.286224253E-2
1.999795930E-1,-4.693344831E-1,-6.065775752E-1,3.935560584E-2
2.019798590E-1,-4.705561996E-1,-5.980254412E-1,4.424252734E-2
2.039796250E-1,-4.821626544E-1,-5.772560239E-1,5.645983294E-2
2.059793910E-1,-4.821626544E-1,-5.662605166E-1,5.951415747E-2
2.079791570E-1,-4.846061170E-1,-5.406041145E-1,6.440107524E-2
2.099789230E-1,-4.742214084E-1,-5.271651149E-1,6.195762008E-2
2.119786890E-1,-4.760540128E-1,-5.131151676E-1,6.256848574E-2
2.139785220E-1,-4.632258415E-1,-5.088391304E-1,5.279463902E-2
2.159782880E-1,-4.522302449E-1,-4.966218174E-1,4.057733715E-2
2.179780540E-1,-4.491759241E-1,-4.984544516E-1,2.652743272E-2
2.199778200E-1,-4.235195816E-1,-4.556938708E-1,1.369926333E-2
2.219775860E-1,-4.015284479E-1,-4.068246484E-1,-9.615019080E-4
2.239776520E-1,-3.300572336E-1,-2.327280641E-1,-2.417438105E-2
2.259774180E-1,-2.170471400E-1,-5.992587539E-4,-5.899370089E-2
2.279771840E-1,-1.602366865E-1,9.652831405E-2,-7.731965929E-2
2.299784500E-1,-4.722660407E-2,1.789951175E-1,-1.206910908E-1
2.319782160E-1,1.996857487E-2,1.148542687E-1,-1.640625149E-1
2.339779820E-1,4.257058725E-2,5.560034513E-2,-1.897188574E-1
2.359777480E-1,6.150741130E-2,-7.512481511E-2,-2.385880947E-1
2.379775140E-1,6.272914261E-2,-1.215505749E-1,-2.691313624E-1
2.399772800E-1,4.134885967E-2,-1.808045059E-1,-3.210549057E-1
2.419770460E-1,2.485549636E-2,-1.716415286E-1,-3.723675907E-1
2.439768120E-1,1.385992114E-2,-1.539264321E-1,-3.961913288E-1
2.459766450E-1,1.019473001E-2,-9.161818027E-2,-4.438388050E-1
2.479764110E-1,1.630338281E-2,-2.320127375E-2,-4.884319901E-1
2.499761770E-1,2.302289940E-2,1.160644024E-5,-5.067579150E-1
2.519759430E-1,3.829453140E-2,2.627881244E-2,-5.409663916E-1
2.539757090E-1,3.890539706E-2,2.811140753E-2,-5.751748085E-1
2.559754750E-1,4.073799029E-2,2.750054188E-2,-5.971659422E-1
2.579752410E-1,3.096414730E-2,2.261362039E-2,-6.338178515E-1
2.599750070E-1,2.424463071E-2,3.116573393E-2,-6.558090448E-1
2.619743070E-1,4.086077679E-3,3.910698369E-2,-6.900175214E-1
2.639740400E-1,-9.963823482E-3,6.903938204E-2,-7.297237515E-1
2.659737730E-1,-2.401372418E-2,7.148284465E-2,-7.431627512E-1
2.679735060E-1,-3.439843282E-2,9.469571710E-2,-7.737060785E-1
2.699732390E-1,-5.150265992E-2,1.001935080E-1,-7.938645482E-1
2.719729720E-1,-5.700044706E-2,9.958264232E-2,-8.036383986E-1
2.739727050E-1,-7.043948025E-2,9.164139628E-2,-8.134123087E-1
2.759725050E-1,-7.227207720E-2,8.003494889E-2,-8.231860995E-1
2.779723050E-1,-8.754371107E-2,6.354159117E-2,-8.274621367E-1
2.799720380E-1,-9.731755406E-2,3.238746151E-2,-8.354034424E-1
2.819719040E-1,-1.046479344E-1,1.589410380E-2,-8.329599500E-1
2.839716370E-1,-1.156435087E-1,-3.358598426E-2,-8.384577632E-1
2.859713700E-1,-1.376346648E-1,-9.222903848E-2,-8.292948008E-1
2.879711030E-1,-1.443541646E-1,-1.294918209E-1,-8.305164576E-1
2.899694030E-1,-1.614584029E-1,-1.899674833E-1,-8.231860995E-1
2.919692030E-1,-1.761191785E-1,-2.706016898E-1,-8.158557415E-1
2.939689360E-1,-1.834495515E-1,-3.054210246E-1,-8.164666295E-1
2.959686690E-1,-1.944451332E-1,-3.805574477E-1,-8.182991743E-1
2.979684020E-1,-2.060515583E-1,-4.282049239E-1,-8.323491216E-1
2.999681350E-1,-2.103276253E-1,-5.015087724E-1,-8.616706729E-1
3.019691680E-1,-1.926125288E-1,-5.125043392E-1,-8.879378438E-1
3.039689010E-1,-1.791734993E-1,-4.935674965E-1,-8.946573734E-1
3.059686340E-1,-1.333585978E-1,-3.817791641E-1,-9.093180895E-1
3.079684340E-1,-7.471553981E-2,-2.382258475E-1,-9.197028279E-1
3.099681670E-1,-4.844833538E-2,-1.600350887E-1,-9.319201112E-1
3.119679000E-1,2.253481885E-3,-2.014694549E-2,-9.575764537E-1
3.139674000E-1,2.119030431E-2,3.483092412E-2,-9.820110798E-1
3.159671330E-1,4.195972532E-2,1.179085970E-1,-1.024160743E0
3.179668660E-1,4.134885967E-2,1.771625280E-1,-1.080971360E0
3.199665990E-1,2.790982276E-2,1.979319453E-1,-1.107849360E0
3.219663320E-1,-1.899790950E-4,2.413033694E-1,-1.157940269E0
3.239661320E-1,-3.989621997E-2,2.895617485E-1,-1.197646499E0
3.259657980E-1,-6.127650291E-2,3.091094196E-1,-1.215361595E0
3.279655310E-1,-1.174761057E-1,3.512591124E-1,-1.237963676E0
3.299652640E-1,-1.504628360E-1,3.549243212E-1,-1.250791788E0
3.319649970E-1,-2.201014757E-1,3.579786420E-1,-1.261176467E0
3.339644630E-1,-3.031791449E-1,3.298788369E-1,-1.265452504E0
3.359641960E-1,-3.606004715E-1,3.146072030E-1,-1.270339489E0
3.379639290E-1,-5.010994673E-1,1.893798411E-1,-1.273393750E0
3.399637290E-1,-6.263268590E-1,-7.929641753E-3,-1.269117832E0
3.419633290E-1,-6.660330892E-1,-1.062789485E-1,-1.259954691E0
3.439630620E-1,-6.733634472E-1,-2.260085344E-1,-1.255678654E0
3.459627950E-1,-6.379333138E-1,-2.577735186E-1,-1.272172093E0
3.479625280E-1,-6.110552549E-1,-2.571626604E-1,-1.289276242E0
3.499622610E-1,-5.493578315E-1,-2.113477588E-1,-1.336313009E0
3.519619940E-1,-5.224797130E-1,-1.740849912E-1,-1.363801837E0
3.539617940E-1,-4.723888338E-1,-7.390309125E-2,-1.415114522E0
3.559615940E-1,-4.400129616E-1,5.682207644E-2,-1.467038035E0
3.579613270E-1,-4.332934320E-1,1.221846566E-1,-1.487807512E0
3.599610600E-1,-4.394021034E-1,2.565750182E-1,-1.523848534E0
3.619592600E-1,-4.736105204E-1,3.738611341E-1,-1.544617891E0
3.639589930E-1,-4.931582212E-1,4.178434312E-1,-1.551337481E0
3.659587260E-1,-5.432491899E-1,4.825951457E-1,-1.551337481E0
3.679584590E-1,-5.646294355E-1,5.058080554E-1,-1.549504876E0
3.699582590E-1,-6.006705165E-1,5.155818462E-1,-1.529957175E0
3.719580590E-1,-6.226617098E-1,4.990884960E-1,-1.502468228E0
3.739580250E-1,-6.244942546E-1,4.722104371E-1,-1.481088042E0
3.759577580E-1,-6.116660833E-1,4.086804390E-1,-1.429164410E0
3.779574910E-1,-5.823445320E-1,3.207158446E-1,-1.365634441E0
3.799572240E-1,-5.627968907E-1,2.645162642E-1,-1.324095607E0
3.819569570E-1,-5.145385265E-1,1.398997456E-1,-1.239796281E0
3.839566900E-1,-4.613932371E-1,7.341989316E-3,-1.147555590E0
3.859565560E-1,-4.363477826E-1,-5.618799478E-2,-1.103573203E0
3.879562890E-1,-3.954198062E-1,-1.905783564E-1,-1.033323765E0
3.899560220E-1,-3.740395308E-1,-2.461670786E-1,-1.001558781E0
3.919557550E-1,-3.508266211E-1,-3.445163965E-1,-9.679611921E-1
3.939557550E-1,-3.373875916E-1,-4.172093570E-1,-9.606307745E-1
3.959554880E-1,-3.306680918E-1,-4.471417665E-1,-9.575764537E-1
3.979552210E-1,-3.288354874E-1,-4.880697429E-1,-9.752915502E-1
3.999549540E-1,-3.318898082E-1,-5.143369436E-1,-9.948392510E-1
4.019547540E-1,-3.190616369E-1,-5.241107941E-1,-1.005223989E0
4.039544870E-1,-3.153964579E-1,-5.418258905E-1,-1.030269384E0
4.059542200E-1,-3.062334657E-1,-5.442693233E-1,-1.043708444E0
4.079539530E-1,-2.952378988E-1,-5.595409274E-1,-1.068753958E0
4.099536860E-1,-2.824097276E-1,-5.735908747E-1,-1.101740718E0
4.119534190E-1,-2.738575935E-1,-5.772560239E-1,-1.114568830E0
4.139531520E-1,-2.646946311E-1,-5.864189863E-1,-1.146944761E0
4.159528850E-1,-2.567533851E-1,-5.894733071E-1,-1.181153178E0
4.179526850E-1,-2.518664598E-1,-5.900842547E-1,-1.198868275E0
4.199524180E-1,-2.427034825E-1,-5.858081579E-1,-1.235520124E0
4.219521180E-1,-2.323187739E-1,-5.699256659E-1,-1.270339489E0
4.239518510E-1,-2.317079008E-1,-5.601518154E-1,-1.283167601E0
4.259515840E-1,-2.121602148E-1,-5.344954729E-1,-1.310656667E0
4.279513170E-1,-2.078841627E-1,-5.283868313E-1,-1.317986965E0
4.299510500E-1,-1.907799393E-1,-5.027304888E-1,-1.333258510E0
4.319507830E-1,-1.687887907E-1,-4.776850343E-1,-1.333869457E0
4.339505830E-1,-1.559606194E-1,-4.673002958E-1,-1.330815196E0
4.359503160E-1,-1.278608143E-1,-4.373679161E-1,-1.320430398E0
4.379496820E-1,-1.034262106E-1,-4.141550362E-1,-1.303326130E0
4.399494150E-1,-9.365236014E-2,-4.043811858E-1,-1.295995831E0
4.419486810E-1,-7.532639802E-2,-3.830009103E-1,-1.282556772E0
4.439484140E-1,-6.310909986E-2,-3.689509928E-1,-1.274004698E0
4.459481470E-1,-5.394612253E-2,-3.500141799E-1,-1.263009191E0
4.479479470E-1,-4.539400712E-2,-3.353534341E-1,-1.247737408E0
4.499477470E-1,-3.867448866E-2,-3.292447627E-1,-1.237963676E0
4.519474800E-1,-4.356141388E-2,-3.103079498E-1,-1.221470237E0
4.539472130E-1,-5.089179426E-2,-2.925928235E-1,-1.200700760E0
4.559469460E-1,-4.600487277E-2,-2.822081447E-1,-1.189094305E0
4.579466790E-1,-5.944390967E-2,-2.614387274E-1,-1.165881515E0
4.599464120E-1,-6.738515198E-2,-2.498322725E-1,-1.157329440E0
4.619461450E-1,-8.204592019E-2,-2.198998928E-1,-1.135338306E0
4.639459450E-1,-9.426322579E-2,-1.808045059E-1,-1.112736225E0
4.659456780E-1,-9.976101667E-2,-1.490395218E-1,-1.106016755E0
4.679454110E-1,-9.609582275E-2,-4.763588309E-2,-1.090134263E0
4.699451440E-1,-9.304149449E-2,5.682207644E-2,-1.079749465E0
4.719448770E-1,-8.693284541E-2,1.038586944E-1,-1.077306032E0
4.739446100E-1,-7.532639802E-2,1.625017524E-1,-1.074862599E0
4.759443430E-1,-6.494169682E-2,1.899906993E-1,-1.081582189E0
4.779440760E-1,-5.211352557E-2,1.930450350E-1,-1.084636450E0
4.799438760E-1,-5.272439122E-2,1.991536766E-1,-1.095632076E0
4.819438760E-1,-5.700044706E-2,1.991536766E-1,-1.102351546E0
4.839436090E-1,-6.371996552E-2,1.967102140E-1,-1.119455814E0
4.859433420E-1,-7.288294286E-2,1.924341619E-1,-1.139614224E0
4.879430750E-1,-8.204592019E-2,1.844929010E-1,-1.145112038E0
4.899428080E-1,-1.052588075E-1,1.716647297E-1,-1.162827134E0
4.919425410E-1,-1.321368665E-1,1.472301334E-1,-1.171379328E0
4.939422740E-1,-1.382455230E-1,1.325693727E-1,-1.175044537E0
4.959420740E-1,-1.675670594E-1,1.038586944E-1,-1.179320574E0
4.979421740E-1,-1.779517680E-1,8.553273976E-2,-1.182985663E0
4.999419070E-1,-2.005537748E-1,5.132428557E-2,-1.186650991E0
5.019419400E-1,-2.194906026E-1,1.345064119E-2,-1.194592118E0
5.039416730E-1,-2.274318486E-1,1.160644024E-5,-1.197035670E0
5.059414060E-1,-2.463686615E-1,-3.114252165E-2,-1.206198573E0
5.079411390E-1,-2.628620267E-1,-6.596183777E-2,-1.215361595E0
5.099408720E-1,-2.659163475E-1,-8.062260598E-2,-1.215972543E0
5.119406720E-1,-2.836314440E-1,-1.252157688E-1,-1.222081184E0
5.139404050E-1,-2.879075110E-1,-1.545373052E-1,-1.223302841E0
5.159401380E-1,-2.952378988E-1,-2.156238258E-1,-1.225135446E0
5.179398710E-1,-3.025682569E-1,-2.687691152E-1,-1.225135446E0
5.199396040E-1,-3.007356822E-1,-2.895385027E-1,-1.223302841E0
5.219393370E-1,-2.989030778E-1,-3.396294415E-1,-1.222692013E0
5.239390700E-1,-2.891292274E-1,-3.683401346E-1,-1.219637752E0
5.259388700E-1,-2.732467353E-1,-3.732270598E-1,-1.206809402E0
5.279386700E-1,-2.146036774E-1,-3.176383376E-1,-1.162827134E0
5.299384030E-1,-1.156435087E-1,-2.131803632E-1,-1.079749465E0
5.319381360E-1,-5.822217464E-2,-1.527047157E-1,-1.029658556E0
5.339378690E-1,5.723135546E-2,-5.313367024E-2,-9.355853200E-1
5.359376020E-1,1.134309545E-1,-3.053165600E-2,-8.928247690E-1
5.379373350E-1,1.800152808E-1,-4.885761440E-2,-8.329599500E-1
5.399370680E-1,2.227758318E-1,-1.472069174E-1,-8.030275702E-1
5.419364340E-1,2.533190846E-1,-2.901493907E-1,-7.926428914E-1
5.439361670E-1,2.527082264E-1,-3.579554260E-1,-7.871450782E-1
5.459359000E-1,2.692016065E-1,-4.880697429E-1,-7.627104521E-1
5.479356330E-1,2.808080316E-1,-5.442693233E-1,-7.474388480E-1
5.499353660E-1,3.058535159E-1,-6.169622540E-1,-7.101760507E-1
5.519350990E-1,3.290663660E-1,-6.389534473E-1,-6.887958050E-1
5.539348320E-1,3.736595511E-1,-6.676641107E-1,-6.454243064E-1
5.559345650E-1,4.261939824E-1,-6.804922223E-1,-6.044963598E-1
5.579343650E-1,4.512394369E-1,-6.756053567E-1,-5.892247558E-1
5.599340980E-1,4.933891296E-1,-6.811031699E-1,-5.684553385E-1
5.619339980E-1,5.324844718E-1,-6.749945283E-1,-5.599032044E-1
5.639337310E-1,5.501995683E-1,-6.829357147E-1,-5.592923760E-1
5.659334640E-1,5.789102912E-1,-6.872118115E-1,-5.544053912E-1
5.679331970E-1,6.094535589E-1,-6.994290948E-1,-5.537945628E-1
5.699329300E-1,6.198382378E-1,-7.024834156E-1,-5.544053912E-1
5.719326630E-1,6.509923935E-1,-7.140898705E-1,-5.531836748E-1
5.739324630E-1,6.607662439E-1,-7.165333033E-1,-5.507402420E-1
5.759321960E-1,6.888660192E-1,-7.220311165E-1,-5.440207124E-1
5.779319290E-1,7.151332498E-1,-7.379136086E-1,-5.403555036E-1
5.799316620E-1,7.242962122E-1,-7.415788174E-1,-5.397446156E-1
5.819313950E-1,7.499524951E-1,-7.568504214E-1,-5.354685783E-1
5.839311280E-1,7.676676512E-1,-7.702894807E-1,-5.348577499E-1
5.859308610E-1,7.737762928E-1,-7.794524431E-1,-5.403555036E-1
5.879305940E-1,7.866044044E-1,-7.959458232E-1,-5.446316004E-1
5.899303940E-1,7.878261805E-1,-8.081631064E-1,-5.531836748E-1
5.919301270E-1,7.921022177E-1,-8.264890909E-1,-5.647901297E-1
5.939298600E-1,7.896587253E-1,-8.551996946E-1,-5.825051665E-1
5.959295930E-1,7.866044044E-1,-8.606975079E-1,-5.941116214E-1
5.979293260E-1,7.786632180E-1,-8.802452683E-1,-6.124376059E-1
5.999290590E-1,7.627807260E-1,-9.004037380E-1,-6.368721724E-1
6.019292250E-1,7.548394799E-1,-9.089558721E-1,-6.466460824E-1
6.039290250E-1,7.352917194E-1,-9.217840433E-1,-6.729132533E-1
6.059288250E-1,7.206310034E-1,-9.315578938E-1,-6.881848574E-1
6.079285910E-1,6.925311685E-1,-9.492729902E-1,-7.242259383E-1
6.099283570E-1,6.552684307E-1,-9.663771987E-1,-7.700408101E-1
6.119281230E-1,6.338881254E-1,-9.700424075E-1,-7.963080406E-1
6.139278890E-1,5.954036117E-1,-9.847031832E-1,-8.512859344E-1
6.159276550E-1,5.447018147E-1,-9.999747872E-1,-9.068746567E-1
6.179274210E-1,5.141585469E-1,-1.004250884E0,-9.429157376E-1
6.199272540E-1,4.628458917E-1,-1.012192130E0,-1.007667422E0
6.219272870E-1,4.005376399E-1,-1.017689824E0,-1.085858107E0
6.239270530E-1,3.657183051E-1,-1.022576809E0,-1.122510076E0
6.259268190E-1,2.930253148E-1,-1.032350659E0,-1.208642125E0
6.279265850E-1,2.417126596E-1,-1.042124510E0,-1.248959184E0
6.299263510E-1,1.537480652E-1,-1.056785226E0,-1.341199875E0
6.319261170E-1,4.684664682E-2,-1.076943874E0,-1.426110148E0
6.339258830E-1,-1.729420573E-2,-1.086717606E0,-1.473757625E0
6.359257160E-1,-1.327477396E-1,-1.088550329E0,-1.549504876E0
6.379254820E-1,-2.598077059E-1,-1.076333046E0,-1.618532658E0
6.399252480E-1,-3.227268457E-1,-1.057396173E0,-1.649686813E0
6.419250140E-1,-4.467324913E-1,-1.014635563E0,-1.703443050E0
6.439247800E-1,-5.127059221E-1,-9.871466160E-1,-1.731542706E0
6.459241460E-1,-6.397658587E-1,-9.321687818E-1,-1.777968526E0
6.479239120E-1,-7.527759671E-1,-8.698604703E-1,-1.817063808E0
6.499232780E-1,-8.095864058E-1,-8.362629414E-1,-1.835389853E0
6.519231110E-1,-9.116009474E-1,-7.806742191E-1,-1.861046195E0
6.539228770E-1,-1.012393713E0,-7.214202285E-1,-1.881815553E0
6.559226430E-1,-1.056986809E0,-6.859900355E-1,-1.894032836E0
6.579224090E-1,-1.151060104E0,-6.151297092E-1,-1.903195977E0
6.599221750E-1,-1.240857244E0,-5.363280773E-1,-1.906250238E0
6.619224750E-1,-1.287283063E0,-4.947892427E-1,-1.901363254E0
6.639222410E-1,-1.373414993E0,-4.123224616E-1,-1.892200351E0
6.659220070E-1,-1.418008208E0,-3.701727390E-1,-1.878150344E0
6.679218070E-1,-1.495588183E0,-2.925928235E-1,-1.855548382E0
6.699215400E-1,-1.570724487E0,-2.253976762E-1,-1.825005174E0
6.719212730E-1,-1.600656867E0,-1.997413337E-1,-1.811565995E0
6.739210060E-1,-1.656245589E0,-1.575916260E-1,-1.778579354E0
6.759207390E-1,-1.700227857E0,-1.337678879E-1,-1.746814370E0
6.779204720E-1,-1.720386505E0,-1.282700896E-1,-1.730321050E0
6.799202050E-1,-1.746653676E0,-1.239940450E-1,-1.698556066E0
6.819197380E-1,-1.759481907E0,-1.246049032E-1,-1.680230141E0
6.839195380E-1,-1.772920847E0,-1.423199922E-1,-1.651519418E0
6.859192710E-1,-1.785749197E0,-1.563699096E-1,-1.620365262E0
6.879190040E-1,-1.789414287E0,-1.710306555E-1,-1.607537150E0
6.899187370E-1,-1.786970854E0,-1.863022894E-1,-1.576993823E0
6.919184700E-1,-1.782083869E0,-2.027956545E-1,-1.553781033E0
6.939182030E-1,-1.777197003E0,-2.070717216E-1,-1.539120197E0
6.959179360E-1,-1.764368773E0,-2.174564153E-1,-1.512853026E0
6.979177360E-1,-1.751540661E0,-2.211216092E-1,-1.501246572E0
6.999175360E-1,-1.733825564E0,-2.284519970E-1,-1.479255319E0
7.019172690E-1,-1.710001826E0,-2.345606536E-1,-1.459096789E0
7.039170020E-1,-1.694119215E0,-2.388367057E-1,-1.448712111E0
7.059171350E-1,-1.665408731E0,-2.534974813E-1,-1.431607962E0
7.079168680E-1,-1.628145933E0,-2.626604736E-1,-1.412671089E0
7.099170010E-1,-1.609208941E0,-2.699908316E-1,-1.409616709E0
7.119167340E-1,-1.564005017E0,-2.791537941E-1,-1.396177769E0
7.139165340E-1,-1.518190026E0,-2.932037115E-1,-1.386403918E0
7.159162670E-1,-1.492533803E0,-2.950363159E-1,-1.382127762E0
7.179160000E-1,-1.447329760E0,-3.145839870E-1,-1.376019120E0
7.199157330E-1,-1.421673417E0,-3.121405244E-1,-1.371743202E0
7.219152660E-1,-1.370971560E0,-3.274121583E-1,-1.368077874E0
7.239149990E-1,-1.317826271E0,-3.286338747E-1,-1.363801837E0
7.259147320E-1,-1.294613361E0,-3.432946503E-1,-1.363191009E0
7.279144650E-1,-1.236581206E0,-3.549011052E-1,-1.361969233E0
7.299142650E-1,-1.182825089E0,-3.848334849E-1,-1.358304024E0
7.319139980E-1,-1.161444783E0,-3.939964771E-1,-1.357693195E0
7.339137310E-1,-1.112575531E0,-4.324809909E-1,-1.359525800E0
7.359134640E-1,-1.087530136E0,-4.446983039E-1,-1.361969233E0
7.379131970E-1,-1.044769526E0,-4.746306837E-1,-1.368688822E0
7.399129300E-1,-1.003841519E0,-4.984544516E-1,-1.377851844E0
7.419130960E-1,-9.830721617E-1,-5.057848096E-1,-1.380906105E0
7.439128290E-1,-9.482528567E-1,-5.161695480E-1,-1.397399426E0
7.459126290E-1,-9.140443802E-1,-5.247216225E-1,-1.414503694E0
7.479123620E-1,-8.975510001E-1,-5.210564733E-1,-1.421223164E0
7.499123950E-1,-8.694512248E-1,-5.094500184E-1,-1.441381693E0
7.519122280E-1,-8.401296735E-1,-4.911240637E-1,-1.451155663E0
7.539119610E-1,-8.273015022E-1,-4.807393551E-1,-1.461540341E0
7.559116940E-1,-8.053103685E-1,-4.556938708E-1,-1.468870759E0
7.579114270E-1,-7.918713093E-1,-4.440874457E-1,-1.474979401E0
7.599111600E-1,-7.680476308E-1,-4.135441482E-1,-1.479866266E0
7.619106260E-1,-7.454455495E-1,-3.903312981E-1,-1.485974908E0
7.639100920E-1,-7.381151915E-1,-3.805574477E-1,-1.484142303E0
7.659098250E-1,-7.142914534E-1,-3.549011052E-1,-1.478644490E0
7.679095580E-1,-6.892459989E-1,-3.310773671E-1,-1.452377319E0
7.699092910E-1,-6.727526188E-1,-3.127514124E-1,-1.434051394E0
7.719090240E-1,-6.379333138E-1,-2.828190029E-1,-1.378462672E0
7.739087570E-1,-6.196073890E-1,-2.712125480E-1,-1.350362778E0
7.759085570E-1,-5.841771364E-1,-2.602169812E-1,-1.275226474E0
7.779083570E-1,-5.518012643E-1,-2.693799734E-1,-1.202533484E0
7.799080900E-1,-5.395839810E-1,-2.907602489E-1,-1.162827134E0
7.819075230E-1,-5.273666978E-1,-3.555119634E-1,-1.082803845E0
7.839072560E-1,-5.304210186E-1,-4.550830126E-1,-9.960609674E-1
7.859069890E-1,-5.383622646E-1,-5.094500184E-1,-9.551330209E-1
7.879067220E-1,-5.627968907E-1,-6.322339773E-1,-8.659467101E-1
7.899064550E-1,-5.817337036E-1,-6.902661324E-1,-8.250187635E-1
7.919062550E-1,-6.141095757E-1,-7.916697264E-1,-7.352215052E-1
7.939059880E-1,-6.397658587E-1,-8.558105826E-1,-6.558090448E-1
7.959057210E-1,-6.532049775E-1,-8.784126043E-1,-6.148810983E-1
7.979054540E-1,-6.648113132E-1,-8.875756264E-1,-5.446316004E-1
7.999051870E-1,-6.635896564E-1,-8.643627167E-1,-4.865993559E-1
8.019048870E-1,-6.587026715E-1,-8.460367322E-1,-4.633865058E-1
8.039046200E-1,-6.434310675E-1,-8.325977325E-1,-4.230693877E-1
8.059043530E-1,-6.373224258E-1,-9.486621022E-1,-3.961913288E-1
8.079041530E-1,-6.409876347E-1,-1.052509189E0,-3.870283365E-1
8.099035860E-1,-6.538158059E-1,-1.239434004E0,-3.796979785E-1
8.119032190E-1,-6.568701267E-1,-1.253483891E0,-3.809196651E-1
8.139029520E-1,-6.367115378E-1,-1.116039157E0,-3.992456496E-1
8.159026850E-1,-5.982270241E-1,-8.955168724E-1,-4.273454249E-1
8.179024180E-1,-5.719598532E-1,-8.051087856E-1,-4.432279468E-1
8.199021510E-1,-5.206471682E-1,-7.195876241E-1,-4.768255353E-1
8.219020170E-1,-4.852169752E-1,-7.886154056E-1,-5.134774446E-1
8.239025170E-1,-4.699453413E-1,-8.588649035E-1,-5.305816531E-1
8.259022500E-1,-4.693344831E-1,-1.067169905E0,-5.623466969E-1
8.279019830E-1,-4.754431546E-1,-1.167962790E0,-5.788400173E-1
8.299017160E-1,-4.949908257E-1,-1.325565934E0,-6.057180762E-1
8.319014490E-1,-5.285884142E-1,-1.406200171E0,-6.264874935E-1
8.339011820E-1,-5.469143391E-1,-1.423304439E0,-6.356505156E-1
8.359009150E-1,-5.701272488E-1,-1.426358819E0,-6.551981568E-1
8.379006480E-1,-5.811228156E-1,-1.400702357E0,-6.680263877E-1
8.399004480E-1,-5.829554200E-1,-1.398258924E0,-6.778001785E-1
8.419001480E-1,-5.811228156E-1,-1.382987261E0,-6.936826706E-1
8.438998810E-1,-5.731815696E-1,-1.397648096E0,-7.132304311E-1
8.458996140E-1,-5.664620399E-1,-1.396426439E0,-7.199499011E-1
8.478993470E-1,-5.579099655E-1,-1.417195797E0,-7.468279600E-1
8.498990800E-1,-5.536339283E-1,-1.418417454E0,-7.620996237E-1
8.518988130E-1,-5.481361151E-1,-1.430634737E0,-7.914211154E-1
8.538988790E-1,-5.463035107E-1,-1.427580476E0,-8.176883459E-1
8.558986790E-1,-5.469143391E-1,-1.425136924E0,-8.299056292E-1
8.578984120E-1,-5.542447567E-1,-1.397037268E0,-8.482315540E-1
8.598981450E-1,-5.603533983E-1,-1.361607075E0,-8.635032177E-1
8.618974780E-1,-5.615751147E-1,-1.337783337E0,-8.665575385E-1
8.638972110E-1,-5.701272488E-1,-1.293801069E0,-8.848834634E-1
8.658969440E-1,-5.707380772E-1,-1.273031592E0,-8.885487318E-1
8.678966770E-1,-5.780684948E-1,-1.222329736E0,-9.062637687E-1
8.698964770E-1,-5.963944793E-1,-1.162464976E0,-9.209245443E-1
8.718962770E-1,-6.025031209E-1,-1.122758627E0,-9.276441336E-1
8.738960430E-1,-6.293811798E-1,-1.045178890E0,-9.386396408E-1
8.758958090E-1,-6.617569923E-1,-9.627120495E-1,-9.459700584E-1
8.778955750E-1,-6.782504320E-1,-9.236166477E-1,-9.447482824E-1
8.798953410E-1,-7.185674906E-1,-8.423715830E-1,-9.484134912E-1
8.818948740E-1,-7.607172132E-1,-7.788415551E-1,-9.465808868E-1
8.838942070E-1,-7.820974588E-1,-7.440222502E-1,-9.435265660E-1
8.858940400E-1,-8.230254650E-1,-6.884335279E-1,-9.459700584E-1
8.878939060E-1,-8.437948823E-1,-6.560576558E-1,-9.386396408E-1
8.898937720E-1,-8.835011125E-1,-6.090210676E-1,-9.392504692E-1
8.918936380E-1,-9.170987010E-1,-5.577083826E-1,-9.282549620E-1
8.938935040E-1,-9.323703647E-1,-5.375497937E-1,-9.276441336E-1
8.958933700E-1,-9.592484236E-1,-4.905131757E-1,-9.135941863E-1
8.978932360E-1,-9.732983112E-1,-4.575264454E-1,-9.038203359E-1
8.998931020E-1,-9.806287289E-1,-4.337027371E-1,-8.964899182E-1
9.018927020E-1,-9.787960649E-1,-4.043811858E-1,-8.806074858E-1
9.038926350E-1,-9.769635201E-1,-3.994942605E-1,-8.726661801E-1
9.058925680E-1,-9.598592520E-1,-3.756705225E-1,-8.580054045E-1
9.078925010E-1,-9.366464019E-1,-3.781139851E-1,-8.384577632E-1
9.098924340E-1,-9.207639098E-1,-3.762813807E-1,-8.299056292E-1
9.118923670E-1,-8.853337169E-1,-3.921638727E-1,-8.085253239E-1
9.138920330E-1,-8.523469567E-1,-4.111007154E-1,-7.871450782E-1
9.158919660E-1,-8.297449946E-1,-4.282049239E-1,-7.773712277E-1
9.178919660E-1,-7.949256301E-1,-4.550830126E-1,-7.608778477E-1
9.198919320E-1,-7.741562724E-1,-4.746306837E-1,-7.498822808E-1
9.218923980E-1,-7.307847738E-1,-5.015087724E-1,-7.339997888E-1
9.238923640E-1,-6.880242229E-1,-5.442693233E-1,-7.168955803E-1
9.258923300E-1,-6.678656340E-1,-5.607627034E-1,-7.065108418E-1
9.278922960E-1,-6.263268590E-1,-5.919167995E-1,-6.936826706E-1
9.298922620E-1,-5.872315168E-1,-6.194057465E-1,-6.771893501E-1
9.318922280E-1,-5.676837564E-1,-6.334556341E-1,-6.747458577E-1
9.338922280E-1,-5.310318470E-1,-6.530033350E-1,-6.631394029E-1
9.358921940E-1,-4.919365048E-1,-6.786596775E-1,-6.497004032E-1
9.378921600E-1,-4.760540128E-1,-6.835466027E-1,-6.442025900E-1
9.398921260E-1,-4.473433495E-1,-7.030943036E-1,-6.295418143E-1
9.418925260E-1,-4.345151782E-1,-7.134789824E-1,-6.252658367E-1
9.438924920E-1,-4.106914401E-1,-7.366918921E-1,-6.118267179E-1
9.458924580E-1,-3.954198062E-1,-7.599048018E-1,-5.977768302E-1
9.478923910E-1,-3.868676722E-1,-7.727329135E-1,-5.953333974E-1
9.498923240E-1,-3.764829636E-1,-7.892262936E-1,-5.855595469E-1
9.518922570E-1,-3.673199713E-1,-8.124391437E-1,-5.818943381E-1
9.538921900E-1,-3.660982549E-1,-8.161043525E-1,-5.794508457E-1
9.558921230E-1,-3.648765385E-1,-8.246564865E-1,-5.776183009E-1
9.578920560E-1,-3.697634637E-1,-8.228238821E-1,-5.745639801E-1
9.598919890E-1,-3.813698888E-1,-8.148826361E-1,-5.684553385E-1
9.618922550E-1,-3.972523808E-1,-7.904480100E-1,-5.556271076E-1
9.638921880E-1,-4.076370895E-1,-7.757872343E-1,-5.489076376E-1
9.658920540E-1,-4.284065366E-1,-7.428005338E-1,-5.238621235E-1
9.678919200E-1,-4.565063119E-1,-7.189767957E-1,-5.000384450E-1
9.698917860E-1,-4.717779458E-1,-7.098137736E-1,-4.853776693E-1
9.718916520E-1,-4.962125421E-1,-6.859900355E-1,-4.627756476E-1
9.738915180E-1,-5.212580562E-1,-6.694967151E-1,-4.413953424E-1
9.758913840E-1,-5.353079438E-1,-6.591119766E-1,-4.297889173E-1
9.778912500E-1,-5.579099655E-1,-6.481164098E-1,-4.114629626E-1
9.798911500E-1,-5.695163608E-1,-6.389534473E-1,-4.016891122E-1
9.818904830E-1,-5.902858377E-1,-6.206275225E-1,-3.833631575E-1
9.838903160E-1,-6.086117625E-1,-6.065775752E-1,-3.632045984E-1
9.858901490E-1,-6.165530682E-1,-6.065775752E-1,-3.583176434E-1
9.878899820E-1,-6.312137842E-1,-5.992472172E-1,-3.442677557E-1
9.898898150E-1,-6.428201795E-1,-6.023015380E-1,-3.406025767E-1
9.918896480E-1,-6.519832015E-1,-6.041340828E-1,-3.375482559E-1
9.938894810E-1,-6.574809551E-1,-6.132971048E-1,-3.338830471E-1
9.958893470E-1,-6.605353355E-1,-6.139079332E-1,-3.320504725E-1
9.978891470E-1,-6.617569923E-1,-6.206275225E-1,-3.326613307E-1
9.998889470E-1,-6.580918431E-1,-6.279578805E-1,-3.314396143E-1
1.001888747E0,-6.513723135E-1,-6.297904849E-1,-3.344939351E-1
1.003888547E0,-6.446528435E-1,-6.346773505E-1,-3.375482559E-1
1.005888347E0,-6.232725382E-1,-6.334556341E-1,-3.454895020E-1
1.007888147E0,-6.196073890E-1,-6.395643353E-1,-3.491546810E-1
1.009887947E0,-5.982270241E-1,-6.517816186E-1,-3.583176434E-1
1.011887747E0,-5.915074944E-1,-6.609445810E-1,-3.589285314E-1
1.013887480E0,-5.682947040E-1,-6.707184315E-1,-3.717567027E-1
1.015887213E0,-5.481361151E-1,-6.890443563E-1,-3.778653443E-1
1.017886946E0,-5.420274734E-1,-6.982073784E-1,-3.888609409E-1
1.019886679E0,-5.212580562E-1,-7.079812288E-1,-3.900826573E-1
1.021886412E0,-5.017103553E-1,-7.128681540E-1,-3.919152617E-1
1.023886145E0,-4.919365048E-1,-7.171441913E-1,-3.943587244E-1
1.025885945E0,-4.668910205E-1,-7.177550793E-1,-3.955804408E-1
1.027885745E0,-4.479542077E-1,-7.360810041E-1,-3.968021870E-1
1.029885478E0,-4.375694990E-1,-7.391353250E-1,-3.968021870E-1
1.031885211E0,-4.137457609E-1,-7.501308918E-1,-3.931370080E-1
1.033884511E0,-4.039718807E-1,-7.495200038E-1,-3.888609409E-1
1.035884244E0,-3.722068965E-1,-7.568504214E-1,-3.839739859E-1
1.037883977E0,-3.441071212E-1,-7.592939138E-1,-3.735893071E-1
1.039883710E0,-3.245594203E-1,-7.635699511E-1,-3.809196651E-1
1.041883510E0,-2.927944362E-1,-7.770089507E-1,-3.784762323E-1
1.043883243E0,-2.573642433E-1,-8.008326888E-1,-3.864174783E-1
1.045882976E0,-2.427034825E-1,-8.112174869E-1,-3.864174783E-1
1.047882709E0,-2.097167522E-1,-8.289325833E-1,-4.010782540E-1
1.049882442E0,-1.987211704E-1,-8.429824114E-1,-4.047434330E-1
1.051882175E0,-1.663453281E-1,-8.637518287E-1,-4.187933207E-1
1.053881908E0,-1.412998438E-1,-8.973494172E-1,-4.273454249E-1
1.055881641E0,-1.266390830E-1,-9.138427973E-1,-4.310106337E-1
1.057881441E0,-1.083131284E-1,-9.645445943E-1,-4.285671711E-1
1.059881174E0,-8.815456927E-2,-1.020744205E0,-4.267345965E-1
1.061881007E0,-8.021332324E-2,-1.048843980E0,-4.218476415E-1
1.063880740E0,-6.433083117E-2,-1.101378441E0,-4.187933207E-1
1.065880040E0,-5.150265992E-2,-1.151469350E0,-4.194042087E-1
1.067879773E0,-4.295054451E-2,-1.171017051E0,-4.194042087E-1
1.069879506E0,-3.073324263E-2,-1.205836415E0,-4.230693877E-1
1.071879239E0,-2.401372418E-2,-1.222940683E0,-4.267345965E-1
1.073879039E0,-2.022574889E-3,-1.241266608E0,-4.310106337E-1
1.075878772E0,1.263819076E-2,-1.253483891E0,-4.420062006E-1
1.077878505E0,2.119030431E-2,-1.260203362E0,-4.444496632E-1
1.079878238E0,4.195972532E-2,-1.263257742E0,-4.560561180E-1
1.081877604E0,7.311385125E-2,-1.266312003E0,-4.701060057E-1
1.083877337E0,8.594202250E-2,-1.262035966E0,-4.749929309E-1
1.085877070E0,1.164852828E-1,-1.267533779E0,-4.908754230E-1
1.087877036E0,1.366438270E-1,-1.263868570E0,-5.006492734E-1
1.089876836E0,1.671871096E-1,-1.271198988E0,-5.208078027E-1
1.091876569E0,1.983412355E-1,-1.277307630E0,-5.409663916E-1
1.093876735E0,2.148346007E-1,-1.288303256E0,-5.525727868E-1
1.095876468E0,2.417126596E-1,-1.316402912E0,-5.745639801E-1
1.097876201E0,2.612603307E-1,-1.358552694E0,-5.996094346E-1
1.099875934E0,2.679798603E-1,-1.378100395E0,-6.106050611E-1
1.101875667E0,2.728667855E-1,-1.433078289E0,-6.374831200E-1
1.103875467E0,2.746993601E-1,-1.456902027E0,-6.497004032E-1
1.105875267E0,2.710341811E-1,-1.514323354E0,-6.747458577E-1
1.107875000E0,2.698124647E-1,-1.601677179E0,-7.089543343E-1
1.109874733E0,2.777536809E-1,-1.673759103E0,-7.346106768E-1
1.111874466E0,2.771428525E-1,-1.759891152E0,-7.730951309E-1
1.113874199E0,2.624820769E-1,-1.819756031E0,-8.054710031E-1
1.115873932E0,2.551516891E-1,-1.835638404E0,-8.189101219E-1
1.117872765E0,2.288844883E-1,-1.850910068E0,-8.378468752E-1
1.119872565E0,1.910108477E-1,-1.863738298E0,-8.488424420E-1
1.121872265E0,1.702414304E-1,-1.863127470E0,-8.525076509E-1
1.123871998E0,1.268699914E-1,-1.855797052E0,-8.537293673E-1
1.125872164E0,1.036571115E-1,-1.849688411E0,-8.482315540E-1
1.127871897E0,5.417702720E-2,-1.839914560E0,-8.360142708E-1
1.129871630E0,9.583865292E-3,-1.819756031E0,-8.250187635E-1
1.131871363E0,-1.240728423E-2,-1.813036442E0,-8.158557415E-1
1.133871096E0,-5.150265992E-2,-1.803262591E0,-8.011949658E-1
1.135870896E0,-8.265678585E-2,-1.784936666E0,-7.834798694E-1
1.137870629E0,-9.487409145E-2,-1.784325838E0,-7.749277949E-1
1.139870362E0,-1.156435087E-1,-1.773941040E0,-7.590453029E-1
1.141870028E0,-1.241956279E-1,-1.771497607E0,-7.517148852E-1
1.143869761E0,-1.376346648E-1,-1.773330212E0,-7.456062436E-1
1.145869494E0,-1.455759108E-1,-1.779438853E0,-7.443845272E-1
1.147868994E0,-1.498519629E-1,-1.786769271E0,-7.474388480E-1
1.149868727E0,-1.626801342E-1,-1.814869046E0,-7.566018105E-1
1.151868527E0,-1.730648428E-1,-1.853964329E0,-7.694299817E-1
1.153868260E0,-1.785626411E-1,-1.890005469E0,-7.718734145E-1
1.155867993E0,-1.968885958E-1,-1.976748347E0,-7.620996237E-1
1.157867726E0,-2.274318486E-1,-2.107473373E0,-7.566018105E-1
1.159867459E0,-2.451469451E-1,-2.167949200E0,-7.498822808E-1
1.161866825E0,-2.756902277E-1,-2.303561211E0,-7.553800941E-1
1.163866558E0,-2.854640484E-1,-2.375643253E0,-7.578235269E-1
1.165866291E0,-2.775228024E-1,-2.549740076E0,-7.785929441E-1
1.167866091E0,-2.628620267E-1,-2.674356461E0,-8.091362119E-1
1.169865391E0,-2.469795346E-1,-2.721393108E0,-8.311274052E-1
1.171865124E0,-2.078841627E-1,-2.798972845E0,-8.830509186E-1
1.173864857E0,-1.620692760E-1,-2.858837605E0,-9.435265660E-1
1.175864590E0,-1.351911873E-1,-2.885104895E0,-9.777350426E-1
1.177865223E0,-8.204592019E-2,-2.925422192E0,-1.047984481E0
1.179864956E0,-5.638958141E-2,-2.942526340E0,-1.083414674E0
1.181864689E0,-5.687766243E-3,-2.970015049E0,-1.154275060E0
1.183864489E0,3.035328351E-2,-3.011554003E0,-1.218415856E0
1.185864222E0,5.234443396E-2,-3.023160458E0,-1.248348355E0
1.187863955E0,8.410942554E-2,-3.077527523E0,-1.303326130E0
1.189863688E0,1.079331636E-1,-3.123953342E0,-1.350973606E0
1.191863421E0,1.201504767E-1,-3.157550812E0,-1.369910479E0
1.193863154E0,1.366438270E-1,-3.214361429E0,-1.404729843E0
1.195862887E0,1.390872896E-1,-3.247348070E0,-1.416947126E0
1.197862687E0,1.488611400E-1,-3.305991173E0,-1.436494827E0
1.199862487E0,1.476394087E-1,-3.367688417E0,-1.446879506E0
1.201862320E0,1.506937444E-1,-3.394566536E0,-1.449322939E0
1.203862053E0,1.445850879E-1,-3.449544430E0,-1.449933887E0
1.205861786E0,1.396981627E-1,-3.499024391E0,-1.445657849E0
1.207861519E0,1.348112375E-1,-3.524070024E0,-1.438938260E0
1.209861252E0,1.232048050E-1,-3.564387321E0,-1.425499320E0
1.211860985E0,1.067114398E-1,-3.592486858E0,-1.405951500E0
1.213860785E0,9.815932810E-2,-3.606536865E0,-1.391901612E0
1.215860518E0,7.677904516E-2,-3.625473738E0,-1.364412665E0
1.217860251E0,7.128125429E-2,-3.632193089E0,-1.347308517E0
1.219859984E0,4.623577744E-2,-3.640134335E0,-1.314321756E0
1.221860084E0,2.180116996E-2,-3.637080193E0,-1.278280735E0
1.223859817E0,1.385992114E-2,-3.634636641E0,-1.259343863E0
1.225859550E0,-8.131227456E-3,-3.621808290E0,-1.221470237E0
1.227859283E0,-2.828978002E-2,-3.602871656E0,-1.181764007E0
1.229859516E0,-3.623102978E-2,-3.590654373E0,-1.160994649E0
1.231859249E0,-5.272439122E-2,-3.563165188E0,-1.122510076E0
1.233858982E0,-5.944390967E-2,-3.550337076E0,-1.100518942E0
1.235858715E0,-7.288294286E-2,-3.524070024E0,-1.063256145E0
1.237858448E0,-7.715899497E-2,-3.490472317E0,-1.021106482E0
1.239858181E0,-7.899159193E-2,-3.478865862E0,-1.004613042E0
1.241857914E0,-8.387851715E-2,-3.437937975E0,-9.697937369E-1
1.243857647E0,-7.532639802E-2,-3.412892580E0,-9.355853200E-1
1.245857447E0,-7.715899497E-2,-3.393955708E0,-9.215353727E-1
1.247857180E0,-6.066563725E-2,-3.368299246E0,-8.940464854E-1
1.249856913E0,-4.295054451E-2,-3.337145329E0,-8.647249937E-1
1.251856646E0,-3.928535432E-2,-3.326149702E0,-8.537293673E-1
1.253856379E0,-1.362901367E-2,-3.295606375E0,-8.323491216E-1
1.255856112E0,-3.244305262E-3,-3.289497852E0,-8.225752711E-1
1.257855845E0,2.546636201E-2,-3.263230562E0,-8.030275702E-1
1.259855578E0,5.784222111E-2,-3.249791622E0,-7.895885706E-1
1.261856044E0,7.433558255E-2,-3.243682861E0,-7.847015858E-1
1.263855777E0,1.103766337E-1,-3.246126175E0,-7.761494517E-1
1.265855510E0,1.525263339E-1,-3.251013279E0,-7.730951309E-1
1.267855243E0,1.720740199E-1,-3.255900145E0,-7.761494517E-1
1.269854976E0,2.197215110E-1,-3.266284943E0,-7.767603993E-1
1.271854709E0,2.423235178E-1,-3.274837017E0,-7.822581530E-1
1.273854009E0,2.924144566E-1,-3.289497852E0,-7.950863242E-1
1.275853809E0,3.461706340E-1,-3.304769278E0,-8.085253239E-1
1.277853609E0,3.699943423E-1,-3.311488867E0,-8.195209503E-1
1.279853342E0,4.231396616E-1,-3.323095322E0,-8.439555764E-1
1.281853342E0,4.744523168E-1,-3.335923672E0,-8.696118593E-1
1.283853075E0,4.964434505E-1,-3.344475508E0,-8.830509186E-1
1.285852808E0,5.489779115E-1,-3.359747410E0,-9.117615819E-1
1.287852541E0,5.941818953E-1,-3.359136581E0,-9.245897532E-1
1.289852274E0,6.186165214E-1,-3.384181976E0,-9.484134912E-1
1.291852074E0,6.583227515E-1,-3.406172991E0,-9.728480577E-1
1.293851874E0,6.797030568E-1,-3.419612169E0,-9.838436842E-1
1.295851607E0,7.169657946E-1,-3.457485676E0,-9.972827435E-1
1.297851340E0,7.511742711E-1,-3.494748592E0,-1.018663049E0
1.299851073E0,7.633916140E-1,-3.516128778E0,-1.022328138E0
1.301850806E0,7.890478969E-1,-3.569884777E0,-1.036988974E0
1.303850539E0,8.122608066E-1,-3.622419119E0,-1.050428033E0
1.305850272E0,8.177586198E-1,-3.654795170E0,-1.052260637E0
1.307850072E0,8.324193954E-1,-3.719546795E0,-1.062034369E0
1.309849805E0,8.342519403E-1,-3.752533674E0,-1.067532182E0
1.311849538E0,8.446366787E-1,-3.819118023E0,-1.073640823E0
1.313849271E0,8.428040743E-1,-3.888756514E0,-1.079138637E0
1.315849004E0,8.403605819E-1,-3.923575878E0,-1.083414674E0
1.317848737E0,8.342519403E-1,-3.994436264E0,-1.087080002E0
1.319848470E0,8.226454854E-1,-4.065907478E0,-1.092577696E0
1.321847670E0,8.189802766E-1,-4.101337910E0,-1.093188643E0
1.323847470E0,8.061521649E-1,-4.178306580E0,-1.098686457E0
1.325847236E0,7.969891429E-1,-4.209460735E0,-1.101740718E0
1.327847002E0,7.884370685E-1,-4.275434017E0,-1.107238412E0
1.329846768E0,7.749980688E-1,-4.329190254E0,-1.109681845E0
1.331846534E0,7.682784796E-1,-4.356678963E0,-1.113958001E0
1.333846734E0,7.591155171E-1,-4.393941879E0,-1.115179658E0
1.335846500E0,7.481199503E-1,-4.436091900E0,-1.117623210E0
1.337846266E0,7.432330251E-1,-4.447087288E0,-1.112736225E0
1.339846099E0,7.395678163E-1,-4.481296062E0,-1.106627584E0
1.341845499E0,7.334591746E-1,-4.506341457E0,-1.091966748E0
1.343845265E0,7.316265702E-1,-4.520390987E0,-1.084025621E0
1.345845031E0,7.279613614E-1,-4.533830166E0,-1.059590936E0
1.347844797E0,7.285722494E-1,-4.542993069E0,-1.046762824E0
1.349844563E0,7.230744362E-1,-4.549101830E0,-1.010110855E0
1.351844329E0,7.273505330E-1,-4.548491001E0,-9.697937369E-1
1.353844095E0,7.255179286E-1,-4.550323963E0,-9.447482824E-1
1.355843928E0,7.261287570E-1,-4.536884785E0,-8.958790898E-1
1.357843694E0,7.267397046E-1,-4.517336845E0,-8.427338004E-1
1.359843460E0,7.285722494E-1,-4.514282703E0,-8.134123087E-1
1.361843226E0,7.291830778E-1,-4.492291451E0,-7.547692060E-1
1.363842992E0,7.291830778E-1,-4.483128548E0,-7.242259383E-1
1.365842758E0,7.310157418E-1,-4.449530602E0,-6.710807085E-1
1.367842524E0,7.334591746E-1,-4.422041893E0,-6.167137027E-1
1.369842357E0,7.365134954E-1,-4.398828983E0,-5.892247558E-1
1.371842190E0,7.420113087E-1,-4.351792336E0,-5.397446156E-1
1.373841956E0,7.536177635E-1,-4.293149471E0,-4.920971692E-1
1.375841722E0,7.566720843E-1,-4.262606144E0,-4.707168937E-1
1.377841155E0,7.707219720E-1,-4.201519489E0,-4.279563129E-1
1.379840921E0,7.884370685E-1,-4.128826618E0,-4.084086418E-1
1.381840987E0,7.921022177E-1,-4.095839977E0,-3.723675907E-1
1.383840753E0,8.165368438E-1,-4.016427517E0,-3.399916887E-1
1.385840553E0,8.281432986E-1,-3.977942944E0,-3.289961219E-1
1.387840286E0,8.537996411E-1,-3.895476103E0,-3.051723838E-1
1.389840019E0,8.855646253E-1,-3.813620090E0,-2.899007499E-1
1.391839752E0,9.020580053E-1,-3.770859718E0,-2.801269293E-1
1.393839485E0,9.399316311E-1,-3.679229736E0,-2.740182877E-1
1.395839218E0,9.790270329E-1,-3.593097687E0,-2.685204744E-1
1.397838951E0,1.001018167E0,-3.552169561E0,-2.709639370E-1
1.399838684E0,1.043167830E0,-3.462372541E0,-2.752400041E-1
1.401838617E0,1.068824172E0,-3.423888206E0,-2.807377875E-1
1.403838350E0,1.109752178E0,-3.347530127E0,-2.917333543E-1
1.405838083E0,1.155567050E0,-3.273004293E0,-3.039506674E-1
1.407837816E0,1.175114751E0,-3.235130548E0,-3.118919134E-1
1.409837549E0,1.216653585E0,-3.170378923E0,-3.302178681E-1
1.411837282E0,1.254527211E0,-3.097075224E0,-3.467112482E-1
1.413837015E0,1.269188046E0,-3.070807934E0,-3.570959568E-1
1.415836748E0,1.294844389E0,-2.996893406E0,-3.748110235E-1
1.417836548E0,1.307061672E0,-2.963906527E0,-3.864174783E-1
1.419836281E0,1.324165940E0,-2.897933006E0,-4.035216868E-1
1.421836014E0,1.336383224E0,-2.828294516E0,-4.242911041E-1
1.423835747E0,1.338215828E0,-2.798972845E0,-4.310106337E-1
1.425835480E0,1.337604880E0,-2.734221220E0,-4.438388050E-1
1.427835213E0,1.330274582E0,-2.665804386E0,-4.560561180E-1
1.429834946E0,1.321722388E0,-2.627930641E0,-4.603321552E-1
1.431834679E0,1.304618120E0,-2.548518419E0,-4.664408267E-1
1.433834479E0,1.283237934E0,-2.472160101E0,-4.676625431E-1
1.435834212E0,1.268577099E0,-2.431232214E0,-4.639973342E-1
1.437834278E0,1.238033772E0,-2.347543478E0,-4.566669762E-1
1.439834011E0,1.220929742E0,-2.312113285E0,-4.493365884E-1
1.441833577E0,1.183666825E0,-2.229035616E0,-4.328432381E-1
1.443833310E0,1.145793200E0,-2.152677536E0,-4.059651494E-1
1.445833043E0,1.122580290E0,-2.116636515E0,-3.913043737E-1
1.447832843E0,1.079208851E0,-2.054939032E0,-3.577068150E-1
1.449832643E0,1.035226583E0,-1.992630839E0,-3.161679804E-1
1.451832376E0,1.011402845E0,-1.970028758E0,-2.972311378E-1
1.453832109E0,9.643662572E-1,-1.924213886E0,-2.495836616E-1
1.455831842E0,9.387099147E-1,-1.904666305E0,-2.263707668E-1
1.457831575E0,8.898407221E-1,-1.868014336E0,-1.738363653E-1
1.459831308E0,8.434149027E-1,-1.846023202E0,-1.213019565E-1
1.461831008E0,8.195911646E-1,-1.830751538E0,-9.198042005E-2
1.463830808E0,7.798849344E-1,-1.812425494E0,-3.822427988E-2
1.465830541E0,7.383461595E-1,-1.799597383E0,2.225137688E-2
1.467830274E0,7.206310034E-1,-1.795932293E0,5.584896356E-2
1.469830007E0,6.864225268E-1,-1.797153950E0,1.218224093E-1
1.471829740E0,6.589335799E-1,-1.800208211E0,1.835198104E-1
1.473829473E0,6.461054683E-1,-1.800819039E0,2.171173841E-1
1.475829206E0,6.210600138E-1,-1.809982061E0,2.702626586E-1
1.477828939E0,6.112861037E-1,-1.820366859E0,2.977516055E-1
1.479828739E0,5.935710669E-1,-1.838692784E0,3.386795521E-1
1.481828039E0,5.795211196E-1,-1.867403388E0,3.661685288E-1
1.483827772E0,5.752450824E-1,-1.882064223E0,3.741097748E-1
1.485827505E0,5.636386871E-1,-1.924213886E0,3.838835955E-1
1.487827238E0,5.569191575E-1,-1.961476684E0,3.814401627E-1
1.489828271E0,5.556973815E-1,-1.979802608E0,3.777749538E-1
1.491828004E0,5.587517023E-1,-2.001183033E0,3.655576408E-1
1.493827737E0,5.550865531E-1,-2.012178421E0,3.594489992E-1
1.495827537E0,5.648603439E-1,-2.020119667E0,3.362361193E-1
1.497827270E0,5.715798736E-1,-2.020730495E0,3.154667020E-1
1.499827003E0,5.770776868E-1,-2.014621973E0,3.044711351E-1
1.501827103E0,5.880732536E-1,-1.998739481E0,2.855342925E-1
1.503826836E0,5.966253877E-1,-1.973693967E0,2.678192258E-1
1.505826569E0,5.996797085E-1,-1.958422422E0,2.592670918E-1
1.507825869E0,6.051774621E-1,-1.927268147E0,2.439954728E-1
1.509825602E0,6.088426709E-1,-1.909553051E0,2.360542119E-1
1.511825402E0,6.094535589E-1,-1.874122977E0,2.250586450E-1
1.513825135E0,6.070100665E-1,-1.832584143E0,2.122304738E-1
1.515824868E0,6.051774621E-1,-1.816090822E0,2.085652798E-1
1.517824601E0,5.923492908E-1,-1.774551868E0,1.987914294E-1
1.519824334E0,5.758559704E-1,-1.731180549E0,1.920719147E-1
1.521823800E0,5.648603439E-1,-1.711022019E0,1.877958477E-1
1.523823533E0,5.428692102E-1,-1.662152767E0,1.810763329E-1
1.525823333E0,5.123260021E-1,-1.620003104E0,1.774111539E-1
1.527823133E0,4.988869429E-1,-1.588848829E0,1.749676764E-1
1.529822866E0,4.707871377E-1,-1.548531771E0,1.725242287E-1
1.531822599E0,4.579589665E-1,-1.532038450E0,1.743568331E-1
1.533822332E0,4.310808778E-1,-1.518599391E0,1.780220121E-1
1.535822065E0,3.773247302E-1,-1.565025091E0,1.755785495E-1
1.537821798E0,3.272337914E-1,-1.634663820E0,1.658046991E-1
1.539821531E0,1.910108477E-1,-1.837471128E0,1.383157820E-1
1.541821764E0,2.729895711E-2,-2.041500092E0,1.004421338E-1
1.543821564E0,-6.371996552E-2,-2.139238596E0,8.211617172E-2
1.545821297E0,-2.390382886E-1,-2.299896002E0,3.996646777E-2
1.547821030E0,-3.227268457E-1,-2.357317448E0,2.164051309E-2
1.549819463E0,-4.620040953E-1,-2.433675528E0,3.314554924E-3
1.551819196E0,-5.682947040E-1,-2.451390743E0,2.602286113E-4
1.553818929E0,-6.110552549E-1,-2.437951565E0,3.925419878E-3
1.555818662E0,-6.709200144E-1,-2.387249708E0,1.492099464E-2
1.557818462E0,-7.045176029E-1,-2.321276426E0,2.530570328E-2
1.559818195E0,-7.100153565E-1,-2.277293921E0,3.202522174E-2
1.561818328E0,-7.106263041E-1,-2.205822706E0,5.096204206E-2
1.563818061E0,-6.990198493E-1,-2.130075455E0,6.684454530E-2
1.565817794E0,-6.837481856E-1,-2.105640888E0,7.906184345E-2
1.567817960E0,-6.568701267E-1,-2.046997786E0,9.677693993E-2
1.569817693E0,-6.391550303E-1,-2.023174047E0,1.083833799E-1
1.571817426E0,-5.982270241E-1,-1.984689593E0,1.309853941E-1
1.573817226E0,-5.609642863E-1,-1.950481057E0,1.548091471E-1
1.575816959E0,-5.395839810E-1,-1.930933475E0,1.664155722E-1
1.577816692E0,-5.004886389E-1,-1.896724939E0,1.871850044E-1
1.579816425E0,-4.638366997E-1,-1.855797052E0,2.042892128E-1
1.581816858E0,-4.491759241E-1,-1.837471128E0,2.134521902E-1
1.583816591E0,-4.149674773E-1,-1.784936666E0,2.207825780E-1
1.585816324E0,-3.996958733E-1,-1.763556361E0,2.268912345E-1
1.587816057E0,-3.740395308E-1,-1.708578467E0,2.354433388E-1
1.589815857E0,-3.709851801E-1,-1.635885477E0,2.409411371E-1
1.591815590E0,-3.746503592E-1,-1.593735814E0,2.409411371E-1
1.593815323E0,-4.033610523E-1,-1.491721272E0,2.378868163E-1
1.595815056E0,-4.455107450E-1,-1.382376432E0,2.336107492E-1
1.597814789E0,-4.681127667E-1,-1.327398539E0,2.329998910E-1
1.599814522E0,-5.139276981E-1,-1.233936191E0,2.433845997E-1
1.601814255E0,-5.279775262E-1,-1.182012677E0,2.519367039E-1
1.603813988E0,-5.609642863E-1,-1.094658971E0,2.733169794E-1
1.605813788E0,-5.725707412E-1,-1.015857339E0,2.983624637E-1
1.607813521E0,-5.707380772E-1,-9.883683324E-1,3.099688888E-1
1.609813254E0,-5.621860027E-1,-9.211731553E-1,3.282948732E-1
1.611812987E0,-5.383622646E-1,-8.778017759E-1,3.392904401E-1
1.613812720E0,-5.206471682E-1,-8.564214706E-1,3.447882533E-1
1.615812453E0,-4.870495796E-1,-8.216021657E-1,3.472316861E-1
1.617812186E0,-4.522302449E-1,-7.886154056E-1,3.508968949E-1
1.619811986E0,-4.357368946E-1,-7.745655775E-1,3.539512157E-1
1.621810819E0,-4.064153731E-1,-7.379136086E-1,3.557838202E-1
1.623810552E0,-3.880894184E-1,-7.201985717E-1,3.533403277E-1
1.625810285E0,-3.709851801E-1,-6.774379015E-1,3.527294695E-1
1.627810018E0,-3.532700837E-1,-6.450620890E-1,3.484534323E-1
1.629809751E0,-3.434962332E-1,-6.291795969E-1,3.478425741E-1
1.631809484E0,-3.312789202E-1,-6.035232544E-1,3.411230445E-1
1.633809217E0,-3.166181743E-1,-5.784777999E-1,3.331817985E-1
1.635809017E0,-3.105095327E-1,-5.766451955E-1,3.301274776E-1
1.637808750E0,-3.019573987E-1,-5.656495690E-1,3.209644854E-1
1.639808483E0,-2.921835780E-1,-5.662605166E-1,3.179101646E-1
1.641807783E0,-2.848531902E-1,-5.607627034E-1,3.087472022E-1
1.643807516E0,-2.769119143E-1,-5.693148375E-1,2.989733219E-1
1.645807249E0,-2.708032727E-1,-5.674821734E-1,2.928646803E-1
1.647806982E0,-2.598077059E-1,-5.870299339E-1,2.849234343E-1
1.649806715E0,-2.482012659E-1,-6.096318960E-1,2.739278674E-1
1.651806515E0,-2.390382886E-1,-6.316230297E-1,2.678192258E-1
1.653806248E0,-2.237666696E-1,-6.548359394E-1,2.519367039E-1
1.655805981E0,-2.048298270E-1,-6.927095652E-1,2.378868163E-1
1.657805714E0,-1.962777227E-1,-7.043160200E-1,2.311673015E-1
1.659805447E0,-1.828386784E-1,-7.440222502E-1,2.171173841E-1
1.661805180E0,-1.767300367E-1,-7.537961006E-1,2.103978693E-1
1.663804913E0,-1.718431115E-1,-7.818959355E-1,1.914610416E-1
1.665804213E0,-1.706213802E-1,-8.093848228E-1,1.822980642E-1
1.667804013E0,-1.718431115E-1,-8.228238821E-1,1.725242287E-1
1.669804079E0,-1.797843575E-1,-8.582540751E-1,1.645829827E-1
1.671803812E0,-1.736757010E-1,-8.863539100E-1,1.572525948E-1
1.673803545E0,-1.748974472E-1,-8.997929096E-1,1.584743261E-1
1.675803278E0,-1.669561863E-1,-9.205623269E-1,1.584743261E-1
1.677803011E0,-1.651235968E-1,-9.278926849E-1,1.609177887E-1
1.679802744E0,-1.632910073E-1,-9.462186098E-1,1.566417366E-1
1.681802377E0,-1.632910073E-1,-9.614902735E-1,1.572525948E-1
1.683802177E0,-1.608475298E-1,-9.651554823E-1,1.541982740E-1
1.685801910E0,-1.639018655E-1,-9.859248996E-1,1.572525948E-1
1.687801643E0,-1.626801342E-1,-1.006083488E0,1.548091471E-1
1.689801843E0,-1.639018655E-1,-1.014635563E0,1.554200053E-1
1.691801576E0,-1.645127237E-1,-1.025631070E0,1.584743261E-1
1.693801309E0,-1.663453281E-1,-1.035405040E0,1.664155722E-1
1.695801042E0,-1.657344699E-1,-1.033572435E0,1.706916392E-1
1.697800842E0,-1.681779176E-1,-1.027463794E0,1.804654747E-1
1.699800642E0,-1.730648428E-1,-1.020133376E0,1.847415268E-1
1.701800375E0,-1.767300367E-1,-9.993639588E-1,1.987914294E-1
1.703800108E0,-1.797843575E-1,-9.700424075E-1,2.067326754E-1
1.705799841E0,-1.840604246E-1,-9.559925199E-1,2.140630633E-1
1.707799574E0,-1.877256185E-1,-9.150645137E-1,2.232260406E-1
1.709799307E0,-1.742865741E-1,-8.942950964E-1,2.403302789E-1
1.711799040E0,-1.443541646E-1,-8.997929096E-1,2.604888380E-1
1.713798840E0,-1.504628360E-1,-8.185478449E-1,2.837016881E-1
1.715798573E0,-1.559606194E-1,-7.818959355E-1,2.843125463E-1
1.717798306E0,-1.620692760E-1,-7.055377960E-1,2.983624637E-1
1.719798039E0,-1.846712828E-1,-6.261252165E-1,3.032493889E-1
1.721797772E0,-1.981103271E-1,-5.827538371E-1,3.056928515E-1
1.723797505E0,-2.194906026E-1,-5.112825632E-1,3.136340976E-1
1.725797671E0,-2.292644531E-1,-4.544721246E-1,3.325709105E-1
1.727797404E0,-2.304861695E-1,-4.385896325E-1,3.405121863E-1
1.729796870E0,-2.249883860E-1,-3.830009103E-1,3.618924618E-1
1.731796636E0,-2.207123190E-1,-3.634532094E-1,3.704445660E-1
1.733796402E0,-2.054407001E-1,-3.145839870E-1,3.869379163E-1
1.735796168E0,-1.767300367E-1,-2.779320776E-1,3.997661173E-1
1.737795934E0,-1.590149403E-1,-2.553300560E-1,4.058747590E-1
1.739795700E0,-1.241956279E-1,-2.192890197E-1,4.125942588E-1
1.741795833E0,-9.120889753E-2,-1.789719015E-1,4.119834006E-1
1.743795599E0,-7.227207720E-2,-1.557590365E-1,4.101508260E-1
1.745795432E0,-3.989621997E-2,-1.111658737E-1,4.022095501E-1
1.747795198E0,-1.179641951E-2,-6.657271087E-2,3.930465579E-1
1.749794498E0,-1.899790950E-4,-4.458155856E-2,3.887705505E-1
1.751794264E0,2.546636201E-2,-3.653584979E-3,3.777749538E-1
1.753794030E0,3.035328351E-2,1.345064119E-2,3.710554242E-1
1.755793796E0,5.417702720E-2,4.826996103E-2,3.637250364E-1
1.757793562E0,6.639433652E-2,8.797620237E-2,3.576163948E-1
1.759793328E0,7.189211994E-2,1.001935080E-1,3.576163948E-1
1.761793328E0,8.472029120E-2,1.398997456E-1,3.557838202E-1
1.763793094E0,9.266153723E-2,1.631126255E-1,3.576163948E-1
1.765792860E0,9.266153723E-2,1.753299236E-1,3.606707156E-1
1.767792626E0,9.632673115E-2,1.960993558E-1,3.722771704E-1
1.769792392E0,9.938105941E-2,2.138144374E-1,3.765532374E-1
1.771792158E0,9.877018631E-2,2.309186757E-1,3.857161999E-1
1.773791924E0,9.815932810E-2,2.535206676E-1,3.985443711E-1
1.775791757E0,9.571586549E-2,2.541315556E-1,4.028204381E-1
1.777791590E0,9.449413419E-2,2.645162642E-1,4.119834006E-1
1.779791356E0,9.327240288E-2,2.675705850E-1,4.180920422E-1
1.781791122E0,9.266153723E-2,2.761227190E-1,4.187029004E-1
1.783790888E0,9.815932810E-2,2.797878981E-1,4.199246466E-1
1.785790654E0,9.693758935E-2,2.791770399E-1,4.168703258E-1
1.787790420E0,1.054897085E-1,2.803987563E-1,4.089290798E-1
1.789790186E0,1.128200889E-1,2.840639353E-1,4.015986919E-1
1.791789986E0,1.201504767E-1,2.791770399E-1,3.954900503E-1
1.793789386E0,1.305351853E-1,2.816204727E-1,3.832727373E-1
1.795789119E0,1.409198940E-1,2.742901146E-1,3.704445660E-1
1.797788852E0,1.482502818E-1,2.791770399E-1,3.637250364E-1
1.799788585E0,1.641327739E-1,2.749009728E-1,3.527294695E-1
1.801787518E0,1.665762365E-1,2.706249058E-1,3.453990817E-1
1.803787251E0,1.787935346E-1,2.742901146E-1,3.350143731E-1
1.805786984E0,1.879565120E-1,2.626836598E-1,3.252405524E-1
1.807786784E0,1.910108477E-1,2.651271224E-1,3.179101646E-1
1.809786517E0,1.995629519E-1,2.461903095E-1,3.087472022E-1
1.811786250E0,2.062824667E-1,2.400816530E-1,2.971407473E-1
1.813785983E0,2.038390189E-1,2.284751981E-1,2.910320759E-1
1.815785716E0,2.075042129E-1,2.211448252E-1,2.806473672E-1
1.817785449E0,2.062824667E-1,2.034297287E-1,2.751495838E-1
1.819785182E0,2.062824667E-1,2.003754079E-1,2.690409124E-1
1.821784748E0,2.038390189E-1,1.844929010E-1,2.672083378E-1
1.823784548E0,2.007846832E-1,1.802168638E-1,2.641540170E-1
1.825784281E0,1.971194893E-1,1.710538715E-1,2.641540170E-1
1.827784014E0,1.958977729E-1,1.667778194E-1,2.672083378E-1
1.829783747E0,1.934542954E-1,1.679995358E-1,2.690409124E-1
1.831783480E0,1.903999746E-1,1.582257152E-1,2.733169794E-1
1.833783213E0,1.879565120E-1,1.533387750E-1,2.769821882E-1
1.835782946E0,1.885673851E-1,1.472301334E-1,2.812582254E-1
1.837782679E0,1.879565120E-1,1.453975439E-1,2.855342925E-1
1.839782479E0,1.916217059E-1,1.344019622E-1,2.891995013E-1
1.841782212E0,1.891782582E-1,1.313476413E-1,2.891995013E-1
1.843781945E0,1.946760416E-1,1.240172535E-1,2.904212475E-1
1.845781678E0,1.946760416E-1,1.093564853E-1,2.910320759E-1
1.847781411E0,2.007846832E-1,1.081347615E-1,2.953081429E-1
1.849781144E0,2.032281458E-1,9.347399324E-2,2.953081429E-1
1.851780877E0,2.026172727E-1,9.103052318E-2,2.940864265E-1
1.853781010E0,2.038390189E-1,7.820235193E-2,2.953081429E-1
1.855780810E0,2.062824667E-1,7.331543416E-2,2.904212475E-1
1.857780543E0,2.026172727E-1,6.598505378E-2,2.855342925E-1
1.859780276E0,2.026172727E-1,7.331543416E-2,2.788147926E-1
1.861780809E0,1.989520937E-1,7.026110590E-2,2.678192258E-1
1.863780542E0,1.946760416E-1,7.636975497E-2,2.610996962E-1
1.865780275E0,1.916217059E-1,8.064582199E-2,2.482715100E-1
1.867780008E0,1.885673851E-1,8.858706802E-2,2.384976745E-1
1.869779808E0,1.806261241E-1,9.652831405E-2,2.262803614E-1
1.871779608E0,1.732957512E-1,1.105782166E-1,2.140630633E-1
1.873779341E0,1.665762365E-1,1.105782166E-1,2.055109590E-1
1.875779074E0,1.592458487E-1,1.227955148E-1,1.951262355E-1
1.877778807E0,1.537480652E-1,1.209629253E-1,1.914610416E-1
1.879778540E0,1.433633566E-1,1.179085970E-1,1.835198104E-1
1.881778140E0,1.390872896E-1,1.154651418E-1,1.743568331E-1
1.883777873E0,1.378655732E-1,1.142434105E-1,1.731350869E-1
1.885777673E0,1.317569166E-1,1.087456197E-1,1.651938409E-1
1.887777406E0,1.256482601E-1,1.075238883E-1,1.651938409E-1
1.889777139E0,1.232048050E-1,1.032478362E-1,1.584743261E-1
1.891776872E0,1.170961484E-1,9.652831405E-2,1.541982740E-1
1.893776605E0,1.097657606E-1,9.958264232E-2,1.493113488E-1
1.895776338E0,1.085440367E-1,9.958264232E-2,1.480896175E-1
1.897776071E0,1.006027833E-1,1.099673510E-1,1.425918341E-1
1.899775804E0,9.754846245E-2,1.105782166E-1,1.401483715E-1
1.901775170E0,8.472029120E-2,1.258498430E-1,1.322071254E-1
1.903774903E0,7.800076902E-2,1.362345517E-1,1.273202002E-1
1.905774636E0,7.494644821E-2,1.447866708E-1,1.297636628E-1
1.907774369E0,6.822692603E-2,1.588365585E-1,1.224332824E-1
1.909774102E0,6.700519472E-2,1.679995358E-1,1.218224093E-1
1.911773835E0,6.456173956E-2,1.747190654E-1,1.212115511E-1
1.913773568E0,6.211827323E-2,1.887689680E-1,1.193789542E-1
1.915773301E0,6.272914261E-2,1.924341619E-1,1.199898124E-1
1.917773101E0,6.395087391E-2,2.095383853E-1,1.163246259E-1
1.919772834E0,6.700519472E-2,2.162579000E-1,1.163246259E-1
1.921772567E0,7.189211994E-2,2.290860713E-1,1.151028946E-1
1.923772300E0,7.616817206E-2,2.351947278E-1,1.102159694E-1
1.925772033E0,8.655288815E-2,2.614619434E-1,1.034964547E-1
1.927771766E0,9.693758935E-2,2.651271224E-1,9.616606683E-2
1.929771499E0,1.109874919E-1,2.822313607E-1,8.944655955E-2
1.931771232E0,1.287025958E-1,2.858965397E-1,7.600752264E-2
1.933771032E0,1.354221106E-1,2.950595021E-1,7.173146307E-2
1.935770765E0,1.506937444E-1,2.993355691E-1,6.012502313E-2
1.937770498E0,1.641327739E-1,3.023898900E-1,5.707069859E-2
1.939770231E0,1.745174825E-1,3.042224944E-1,4.607512429E-2
1.941770697E0,1.867347807E-1,3.103311360E-1,3.996646777E-2
1.943770430E0,1.922325790E-1,3.109420240E-1,3.507954627E-2
1.945770163E0,1.995629519E-1,3.103311360E-1,3.080349229E-2
1.947769963E0,2.056716084E-1,3.078877032E-1,2.347310819E-2
1.949769763E0,2.050607502E-1,3.066659570E-1,2.408397384E-2
1.951769496E0,2.087259442E-1,3.121637702E-1,1.919705234E-2
1.953769229E0,2.111694068E-1,2.981138527E-1,1.736445539E-2
1.955768962E0,2.142237276E-1,3.030007482E-1,1.064493787E-2
1.957768695E0,2.160563171E-1,2.846747935E-1,8.201477118E-3
1.959768428E0,2.215541005E-1,2.816204727E-1,4.536285531E-3
1.961768761E0,2.215541005E-1,2.547424138E-1,8.710938855E-4
1.963768561E0,2.239975631E-1,2.266426086E-1,-9.615019080E-4
1.965768327E0,2.264410257E-1,2.083166540E-1,-2.183232224E-3
1.967768093E0,2.276627570E-1,1.826603115E-1,-5.237558857E-3
1.969767859E0,2.307170928E-1,1.649452150E-1,-5.237558857E-3
1.971767625E0,2.301062196E-1,1.313476413E-1,-9.513615631E-3
1.973767391E0,2.294953465E-1,1.032478362E-1,-1.012448035E-2
1.975767157E0,2.264410257E-1,8.614360541E-2,-1.073534600E-2
1.977766923E0,2.239975631E-1,6.598505378E-2,-1.195707638E-2
1.979766756E0,2.233867049E-1,4.765909538E-2,-1.317880768E-2
1.981766522E0,2.227758318E-1,4.155044258E-2,-1.073534600E-2
1.983766322E0,2.221649587E-1,3.483092412E-2,-5.848424044E-3
1.985766122E0,2.276627570E-1,3.299833089E-2,8.710938855E-4
1.987765922E0,2.276627570E-1,3.055486828E-2,2.092824318E-3
1.989765722E0,2.319388092E-1,3.299833089E-2,1.492099464E-2
1.991765522E0,2.343822718E-1,3.483092412E-2,1.736445539E-2
1.993765322E0,2.441561073E-1,4.277217388E-2,3.141435608E-2
1.995765188E0,2.520973682E-1,4.460477084E-2,4.668598622E-2
1.997765054E0,2.569842935E-1,4.704822972E-2,5.279463902E-2
1.999764920E0,2.704233229E-1,5.560034513E-2,6.745540351E-2
2.001764186E0,2.795863152E-1,6.415245682E-2,7.967271656E-2
2.003764052E0,2.808080316E-1,6.965024769E-2,8.639222383E-2
2.005763918E0,2.918036282E-1,8.125668019E-2,9.677693993E-2
2.007763784E0,2.942470610E-1,8.614360541E-2,1.065507829E-1
2.009763650E0,3.034100235E-1,9.591744840E-2,1.169354916E-1
2.011763583E0,3.119621575E-1,1.056912914E-1,1.273202002E-1
2.013763449E0,3.150164783E-1,1.117999479E-1,1.309853941E-1
2.015763315E0,3.162382245E-1,1.227955148E-1,1.358723193E-1
2.017763181E0,3.241794705E-1,1.325693727E-1,1.377049088E-1
2.019763047E0,3.229577243E-1,1.398997456E-1,1.346505880E-1
2.021762747E0,3.254011869E-1,1.368454248E-1,1.340397149E-1
2.023762613E0,3.235686123E-1,1.466192603E-1,1.315962523E-1
2.025762513E0,3.217359781E-1,1.484518647E-1,1.267093420E-1
2.027762413E0,3.205142915E-1,1.551713645E-1,1.254875958E-1
2.029762246E0,3.174599707E-1,1.563931108E-1,1.224332824E-1
2.031762079E0,3.119621575E-1,1.649452150E-1,1.169354916E-1
2.033761912E0,3.113512993E-1,1.722756028E-1,1.077725142E-1
2.035761745E0,3.095186949E-1,1.814385802E-1,1.010529920E-1
2.037761578E0,3.137947619E-1,1.918232888E-1,8.944655955E-2
2.039761411E0,3.186816573E-1,2.125927061E-1,7.173146307E-2
2.041761311E0,3.180707991E-1,2.174796313E-1,6.256848574E-2
2.043761177E0,3.260120451E-1,2.419142425E-1,4.363166168E-2
2.045760977E0,3.272337914E-1,2.529098094E-1,3.630127758E-2
2.047760777E0,3.345641792E-1,2.694031596E-1,1.553185936E-2
2.049760577E0,3.431163132E-1,2.907834649E-1,-6.459289230E-3
2.051760377E0,3.425054252E-1,2.938377857E-1,-1.684399880E-2
2.053760177E0,3.461706340E-1,3.078877032E-1,-4.066774249E-2
2.055759977E0,3.473923206E-1,3.066659570E-1,-6.326975673E-2
2.057759777E0,3.376185000E-1,3.048333824E-1,-7.243274152E-2
2.059759510E0,3.315098584E-1,2.932269275E-1,-9.320215881E-2
2.061759243E0,3.168490827E-1,2.840639353E-1,-1.151933074E-1
2.063758976E0,3.113512993E-1,2.803987563E-1,-1.298540682E-1
2.065758709E0,2.924144566E-1,2.657379806E-1,-1.542886794E-1
2.067758442E0,2.832514942E-1,2.577967644E-1,-1.695602983E-1
2.069758175E0,2.661472857E-1,2.358055860E-1,-1.976601034E-1
2.071757908E0,2.459887117E-1,2.193122208E-1,-2.282033712E-1
2.073757708E0,2.392691970E-1,2.132035792E-1,-2.453075945E-1
2.075757441E0,2.203323692E-1,2.015971392E-1,-2.776834667E-1
2.077757174E0,1.995629519E-1,1.906015575E-1,-3.137245178E-1
2.079756907E0,1.946760416E-1,1.875472367E-1,-3.357156813E-1
2.081756640E0,1.812369972E-1,1.728864759E-1,-3.729784191E-1
2.083756373E0,1.726848930E-1,1.643343568E-1,-3.955804408E-1
2.085756106E0,1.665762365E-1,1.551713645E-1,-4.395627379E-1
2.087755839E0,1.616893113E-1,1.533387750E-1,-4.792689681E-1
2.089755639E0,1.616893113E-1,1.496735811E-1,-4.982058108E-1
2.091755372E0,1.714631468E-1,1.411214769E-1,-5.311924815E-1
2.093755105E0,1.818478703E-1,1.313476413E-1,-5.531836748E-1
2.095754838E0,1.867347807E-1,1.289041787E-1,-5.605140328E-1
2.097754571E0,1.946760416E-1,1.215737909E-1,-5.739531517E-1
2.099754304E0,1.958977729E-1,1.197411940E-1,-5.831161141E-1
2.101753770E0,1.977303624E-1,1.221846566E-1,-5.959442854E-1
2.103753503E0,1.928434521E-1,1.221846566E-1,-6.099941134E-1
2.105753303E0,1.867347807E-1,1.270715743E-1,-6.191570759E-1
2.107753036E0,1.677979529E-1,1.350128353E-1,-6.417591572E-1
2.109752402E0,1.500828713E-1,1.539496481E-1,-6.594742537E-1
2.111752135E0,1.396981627E-1,1.618908942E-1,-6.704697609E-1
2.113751868E0,1.170961484E-1,1.948776245E-1,-6.894066334E-1
2.115751601E0,9.449413419E-2,2.162579000E-1,-7.083434463E-1
2.117751334E0,8.594202250E-2,2.327512652E-1,-7.242259383E-1
2.119751134E0,6.211827323E-2,2.431359738E-1,-7.547692060E-1
2.121750767E0,5.112269893E-2,2.516880929E-1,-7.700408101E-1
2.123750500E0,2.607722580E-2,2.388599217E-1,-8.018058538E-1
2.125750233E0,2.864347305E-3,2.180905044E-1,-8.305164576E-1
2.127749966E0,-9.352957830E-3,1.960993558E-1,-8.409011960E-1
2.129749699E0,-2.767891437E-2,1.618908942E-1,-8.561728597E-1
2.131749432E0,-4.295054451E-2,1.154651418E-1,-8.659467101E-1
2.133749165E0,-5.211352557E-2,9.958264232E-2,-8.696118593E-1
2.135748965E0,-6.616342813E-2,6.231986359E-2,-8.738879561E-1
2.137748698E0,-7.715899497E-2,5.132428557E-2,-8.775531054E-1
2.139748431E0,-9.426322579E-2,3.788524866E-2,-8.824400902E-1
2.141748164E0,-1.101457179E-1,3.422005847E-2,-8.879378438E-1
2.143747897E0,-1.223630309E-1,3.971784562E-2,-8.971008062E-1
2.145747630E0,-1.467976421E-1,4.643736780E-2,-9.129833579E-1
2.147747363E0,-1.693996638E-1,7.087197155E-2,-9.349744916E-1
2.149747096E0,-1.816169620E-1,8.186754584E-2,-9.484134912E-1
2.151746896E0,-2.017755061E-1,1.111890823E-1,-9.807893634E-1
2.153746629E0,-2.304861695E-1,1.319584996E-1,-1.022328138E0
2.155746362E0,-2.427034825E-1,1.398997456E-1,-1.045541048E0
2.157746095E0,-2.616402805E-1,1.606691629E-1,-1.096853733E0
2.159745828E0,-2.714141607E-1,1.631126255E-1,-1.128007889E0
2.161745461E0,-2.842423022E-1,1.741082072E-1,-1.190927029E0
2.163745194E0,-2.885183692E-1,1.777733862E-1,-1.261176467E0
2.165744927E0,-2.909618318E-1,1.844929010E-1,-1.299050212E0
2.167744727E0,-2.836314440E-1,1.838820428E-1,-1.363801837E0
2.169744827E0,-2.720250189E-1,1.869363636E-1,-1.416947126E0
2.171744560E0,-2.628620267E-1,1.857146472E-1,-1.440160036E0
2.173744293E0,-2.439252138E-1,1.930450350E-1,-1.475590229E0
2.175744026E0,-2.310970426E-1,1.881580949E-1,-1.492694497E0
2.177743759E0,-2.005537748E-1,1.838820428E-1,-1.513463855E0
2.179743492E0,-1.755083054E-1,1.899906993E-1,-1.537898421E0
2.181743958E0,-1.626801342E-1,1.930450350E-1,-1.547061443E0
2.183743758E0,-1.461867690E-1,2.174796313E-1,-1.575161219E0
2.185743491E0,-1.315260082E-1,2.364164591E-1,-1.601428509E0
2.187743224E0,-1.266390830E-1,2.468011677E-1,-1.616700053E0
2.189742957E0,-1.180869788E-1,2.596293390E-1,-1.647854209E0
2.191742690E0,-1.132000536E-1,2.669597268E-1,-1.657017231E0
2.193742423E0,-9.853928536E-2,2.602401972E-1,-1.652130246E0
2.195742156E0,-7.471553981E-2,2.486337572E-1,-1.604482770E0
2.197741956E0,-6.005477160E-2,2.358055860E-1,-1.567830801E0
2.199741756E0,-2.095939778E-2,2.113709897E-1,-1.487196684E0
2.201741922E0,1.569251716E-2,1.851037741E-1,-1.396788597E0
2.203741655E0,3.524020314E-2,1.661669463E-1,-1.349751949E0
2.205741388E0,7.738991082E-2,1.356236935E-1,-1.273393750E0
2.207741121E0,1.109874919E-1,1.056912914E-1,-1.212307215E0
2.209740854E0,1.311460435E-1,9.408485144E-2,-1.189705372E0
2.211740587E0,1.647436321E-1,7.392629981E-2,-1.158551097E0
2.213740387E0,1.818478703E-1,6.231986359E-2,-1.149999022E0
2.215740187E0,2.148346007E-1,4.093958065E-2,-1.138392568E0
2.217740720E0,2.478213012E-1,1.955929399E-2,-1.138392568E0
2.219740453E0,2.612603307E-1,7.341989316E-3,-1.136559963E0
2.221740653E0,2.924144566E-1,-1.281656325E-2,-1.138392568E0
2.223740386E0,3.186816573E-1,-3.358598426E-2,-1.134727359E0
2.225740119E0,3.327315748E-1,-4.091636837E-2,-1.133505583E0
2.227739852E0,3.553335965E-1,-6.046405435E-2,-1.126175284E0
2.229739652E0,3.663291633E-1,-7.145962864E-2,-1.123731852E0
2.231739385E0,3.852660060E-1,-9.528337419E-2,-1.121899128E0
2.233739118E0,4.029810727E-1,-1.246049032E-1,-1.120066643E0
2.235738851E0,4.139766395E-1,-1.337678879E-1,-1.121288300E0
2.237738584E0,4.304700196E-1,-1.539264321E-1,-1.122510076E0
2.239738317E0,4.451307952E-1,-1.765284389E-1,-1.126786113E0
2.241737783E0,4.506285787E-1,-1.875240207E-1,-1.129229665E0
2.243737516E0,4.646784663E-1,-2.015739232E-1,-1.130451322E0
2.245737316E0,4.768957794E-1,-1.936326772E-1,-1.120677471E0
2.247737049E0,4.775066674E-1,-1.948543936E-1,-1.119455814E0
2.249736782E0,4.811718464E-1,-1.820262372E-1,-1.116401434E0
2.251736515E0,4.848370254E-1,-1.869131625E-1,-1.118844867E0
2.253736248E0,4.866696298E-1,-1.856914163E-1,-1.129840493E0
2.255735981E0,4.848370254E-1,-1.930218041E-1,-1.151831627E0
2.257735714E0,4.842261672E-1,-1.954652667E-1,-1.156718493E0
2.259735447E0,4.817826748E-1,-2.034065276E-1,-1.181153178E0
2.261734813E0,4.799501002E-1,-2.027956545E-1,-1.193370461E0
2.263734546E0,4.799501002E-1,-2.021847814E-1,-1.188483477E0
2.265734279E0,4.750631750E-1,-1.691980660E-1,-1.176266193E0
2.267734012E0,4.732306004E-1,-1.618676931E-1,-1.179320574E0
2.269733745E0,4.695653915E-1,-1.563699096E-1,-1.209252954E0
2.271733478E0,4.756740332E-1,-1.911892146E-1,-1.248959184E0
2.273733211E0,4.762849212E-1,-2.058499753E-1,-1.265452504E0
2.275732944E0,4.848370254E-1,-2.107369006E-1,-1.290498018E0
2.277731944E0,4.952217340E-1,-2.113477588E-1,-1.293552399E0
2.279731677E0,4.982760549E-1,-2.064608485E-1,-1.297828317E0
2.281731310E0,5.068281889E-1,-2.333389074E-1,-1.324095607E0
2.283731043E0,5.117151141E-1,-2.541083395E-1,-1.335702062E0
2.285730776E0,5.208780766E-1,-2.901493907E-1,-1.362580061E0
2.287730509E0,5.355387926E-1,-3.029775620E-1,-1.371132255E0
2.289730242E0,5.404257774E-1,-3.017558157E-1,-1.365023613E0
2.291730042E0,5.501995683E-1,-2.822081447E-1,-1.365023613E0
2.293729842E0,5.685255527E-1,-2.980906367E-1,-1.373575687E0
2.295729575E0,5.740233660E-1,-3.017558157E-1,-1.369910479E0
2.297729308E0,5.972362161E-1,-2.718234360E-1,-1.347308517E0
2.299729041E0,6.222816706E-1,-2.131803632E-1,-1.288054585E0
2.301728474E0,6.314446926E-1,-1.783610433E-1,-1.255067825E0
2.303728207E0,6.571010351E-1,-9.528337419E-2,-1.186040044E0
2.305727940E0,6.680966020E-1,-5.313367024E-2,-1.152442455E0
2.307727740E0,6.766487360E-1,2.627881244E-2,-1.095632076E0
2.309727473E0,6.809247732E-1,8.247841895E-2,-1.055925727E0
2.311727206E0,6.668748856E-1,1.044695675E-1,-1.040654182E0
2.313726939E0,6.595444679E-1,1.423432231E-1,-1.014997840E0
2.315726672E0,6.454945803E-1,1.777733862E-1,-9.948392510E-1
2.317726405E0,6.338881254E-1,1.985428184E-1,-9.936175346E-1
2.319726138E0,6.228925586E-1,2.370273322E-1,-9.801784754E-1
2.321725438E0,6.173948050E-1,2.773444355E-1,-9.679611921E-1
2.323725238E0,6.094535589E-1,2.938377857E-1,-9.655176997E-1
2.325724971E0,6.125078797E-1,3.072768152E-1,-9.630742669E-1
2.327724704E0,6.118969917E-1,3.176615238E-1,-9.655176997E-1
2.329724437E0,6.216708422E-1,3.158289492E-1,-9.716264009E-1
2.331724170E0,6.338881254E-1,3.231593370E-1,-9.722372293E-1
2.333723903E0,6.399968266E-1,3.268245161E-1,-9.783458710E-1
2.335723636E0,6.552684307E-1,3.207158446E-1,-9.814001918E-1
2.337723369E0,6.790921688E-1,3.060550988E-1,-9.887306094E-1
2.339723169E0,6.870334744E-1,2.975029945E-1,-9.948392510E-1
2.341723335E0,7.126897573E-1,2.645162642E-1,-1.006445646E0
2.343723068E0,7.169657946E-1,2.480228990E-1,-1.011332631E0
2.345722801E0,7.389569879E-1,2.187013775E-1,-1.014997840E0
2.347722534E0,7.530068755E-1,1.930450350E-1,-1.025382519E0
2.349722267E0,7.591155171E-1,1.765516698E-1,-1.033323765E0
2.351722000E0,7.719436884E-1,1.606691629E-1,-1.034545541E0
2.353721733E0,7.743871212E-1,1.484518647E-1,-1.038821578E0
2.355721533E0,7.786632180E-1,1.417323500E-1,-1.039432406E0
2.357721299E0,7.811067104E-1,1.197411940E-1,-1.055314898E0
2.359721065E0,7.792740464E-1,1.056912914E-1,-1.061423540E0
2.361720831E0,7.823284268E-1,9.775004536E-2,-1.064477921E0
2.363720597E0,7.823284268E-1,9.164139628E-2,-1.066921353E0
2.365720363E0,7.841610312E-1,9.164139628E-2,-1.067532182E0
2.367720129E0,7.866044044E-1,6.842850894E-2,-1.075473547E0
2.369719962E0,7.908805013E-1,3.910698369E-2,-1.085858107E0
2.371719795E0,7.969891429E-1,2.322448604E-2,-1.089523315E0
2.373719561E0,8.043195009E-1,3.065932775E-3,-1.092577696E0
2.375719327E0,8.061521649E-1,-1.587088965E-2,-1.088912487E0
2.377719093E0,8.061521649E-1,-3.358598426E-2,-1.080971360E0
2.379718859E0,8.049304485E-1,-5.863145739E-2,-1.093188643E0
2.381719059E0,8.079847693E-1,-8.123347163E-2,-1.110903740E0
2.383718825E0,8.043195009E-1,-1.386547983E-1,-1.136559963E0
2.385718658E0,7.957674265E-1,-1.808045059E-1,-1.151831627E0
2.387718424E0,7.927131057E-1,-1.985195875E-1,-1.154886007E0
2.389718190E0,7.737762928E-1,-2.492214143E-1,-1.165270686E0
2.391717956E0,7.481199503E-1,-3.109187782E-1,-1.176266193E0
2.393717722E0,7.359026670E-1,-3.365751207E-1,-1.179931402E0
2.395717488E0,7.023050785E-1,-3.756705225E-1,-1.180542231E0
2.397717254E0,6.870334744E-1,-3.921638727E-1,-1.187261820E0
2.399717020E0,6.497706175E-1,-4.318701029E-1,-1.209252954E0
2.401716420E0,6.155622005E-1,-4.935674965E-1,-1.244683146E0
2.403716186E0,6.039557457E-1,-5.308302641E-1,-1.253235221E0
2.405715952E0,5.807428360E-1,-5.711473823E-1,-1.255678654E0
2.407715718E0,5.648603439E-1,-5.900842547E-1,-1.253235221E0
2.409715484E0,5.563082695E-1,-6.096318960E-1,-1.262398243E0
2.411715250E0,5.556973815E-1,-6.841574907E-1,-1.295385003E0
2.413715016E0,5.575299859E-1,-7.293615341E-1,-1.307602286E0
2.415714782E0,5.703581572E-1,-7.996110320E-1,-1.320430398E0
2.417714582E0,5.782994628E-1,-8.716931343E-1,-1.316154361E0
2.419714315E0,5.801320076E-1,-8.991820216E-1,-1.300271869E0
2.421713815E0,5.795211196E-1,-9.523273110E-1,-1.259954691E0
2.423713548E0,5.776885152E-1,-9.908118248E-1,-1.219637752E0
2.425712848E0,5.813537836E-1,-1.000585675E0,-1.209863782E0
2.427712581E0,5.874624252E-1,-1.030518055E0,-1.207420468E0
2.429712314E0,6.009014249E-1,-1.069613457E0,-1.212307215E0
2.431712047E0,6.118969917E-1,-1.074500322E0,-1.212307215E0
2.433711847E0,6.290012002E-1,-1.100767612E0,-1.215361595E0
2.435711580E0,6.393859386E-1,-1.104432702E0,-1.212918043E0
2.437711313E0,6.607662439E-1,-1.109319687E0,-1.193981290E0
2.439711046E0,6.790921688E-1,-1.097102404E0,-1.162827134E0
2.441711079E0,6.858116984E-1,-1.085495949E0,-1.147555590E0
2.443710812E0,6.894768476E-1,-1.075722098E0,-1.146333814E0
2.445710545E0,6.839790940E-1,-1.087328434E0,-1.164048910E0
2.447710345E0,6.754270196E-1,-1.088550329E0,-1.161605477E0
2.449710145E0,6.583227515E-1,-1.079998136E0,-1.152442455E0
2.451709878E0,6.442728043E-1,-1.072056890E0,-1.149999022E0
2.453709611E0,6.228925586E-1,-1.079387307E0,-1.152442455E0
2.455709344E0,6.088426709E-1,-1.112374067E0,-1.143890381E0
2.457709077E0,6.118969917E-1,-1.129478216E0,-1.140836000E0
2.459708810E0,6.241143346E-1,-1.166130185E0,-1.132283926E0
2.461708543E0,6.522141099E-1,-1.179569244E0,-1.113347173E0
2.463708343E0,6.571010351E-1,-1.180790901E0,-1.093188643E0
2.465708143E0,6.784813404E-1,-1.164908409E0,-1.078527808E0
2.467707876E0,6.778703928E-1,-1.174071431E0,-1.069364905E0
2.469707609E0,6.845899820E-1,-1.178958416E0,-1.065088749E0
2.471707342E0,6.760378480E-1,-1.208279848E0,-1.069975734E0
2.473707075E0,6.760378480E-1,-1.221718907E0,-1.074862599E0
2.475706808E0,6.717617512E-1,-1.243710041E0,-1.067532182E0
2.477706541E0,6.625987887E-1,-1.256538153E0,-1.078527808E0
2.479706341E0,6.583227515E-1,-1.276696801E0,-1.074251652E0
2.481706307E0,6.436619759E-1,-1.301131368E0,-1.052871466E0
2.483706040E0,6.186165214E-1,-1.310294271E0,-1.040654182E0
2.485706206E0,6.045665741E-1,-1.307240009E0,-1.032102108E0
2.487705939E0,5.862406492E-1,-1.291357517E0,-1.010110855E0
2.489705672E0,5.752450824E-1,-1.276085973E0,-1.000947952E0
2.491705405E0,5.624169111E-1,-1.225994945E0,-9.972827435E-1
2.493705138E0,5.556973815E-1,-1.145971537E0,-9.685720205E-1
2.495704938E0,5.636386871E-1,-1.089161158E0,-9.526895881E-1
2.497704671E0,5.569191575E-1,-9.718750119E-1,-9.172593951E-1
2.499704404E0,5.483670235E-1,-8.558105826E-1,-8.909921646E-1
2.501703837E0,5.428692102E-1,-7.947240472E-1,-8.720553517E-1
2.503703570E0,5.208780766E-1,-6.731618643E-1,-8.506750464E-1
2.505703303E0,5.080499053E-1,-6.120753884E-1,-8.366251588E-1
2.507703036E0,4.811718464E-1,-5.008978844E-1,-8.189101219E-1
2.509702769E0,4.597915709E-1,-4.269831777E-1,-8.066927195E-1
2.511702569E0,4.561263621E-1,-3.897204399E-1,-8.011949658E-1
2.513702302E0,4.451307952E-1,-3.316882253E-1,-7.743169069E-1
2.515702035E0,4.359678030E-1,-2.742668688E-1,-7.468279600E-1
2.517701768E0,4.378004074E-1,-2.553300560E-1,-7.333889008E-1
2.519701501E0,4.390221238E-1,-2.333389074E-1,-7.175064087E-1
2.521700801E0,4.494068325E-1,-2.308954597E-1,-7.077326179E-1
2.523700534E0,4.616241455E-1,-2.278411239E-1,-6.985696554E-1
2.525700267E0,4.823935628E-1,-2.205107361E-1,-6.875740290E-1
2.527700067E0,4.939999878E-1,-2.070717216E-1,-6.778001785E-1
2.529699367E0,5.111042261E-1,-1.954652667E-1,-6.582524776E-1
2.531699100E0,5.257650018E-1,-1.777501851E-1,-6.411482692E-1
2.533698833E0,5.318736434E-1,-1.820262372E-1,-6.325961947E-1
2.535698566E0,5.410366058E-1,-1.814153790E-1,-6.252658367E-1
2.537698299E0,5.520322323E-1,-1.893566102E-1,-6.246548891E-1
2.539698032E0,5.593625903E-1,-1.911892146E-1,-6.197680235E-1
2.541697832E0,5.782994628E-1,-1.972978711E-1,-6.216005683E-1
2.543697632E0,5.856297612E-1,-1.863022894E-1,-6.124376059E-1
2.545697365E0,5.996797085E-1,-1.728632450E-1,-6.063289642E-1
2.547697098E0,6.167839170E-1,-1.612568200E-1,-6.057180762E-1
2.549696831E0,6.271686554E-1,-1.527047157E-1,-6.142702103E-1
2.551696564E0,6.369424462E-1,-1.239940450E-1,-6.106050611E-1
2.553696297E0,6.479380727E-1,-6.962703168E-2,-5.855595469E-1
2.555696030E0,6.509923935E-1,-5.679886416E-2,-5.708988309E-1
2.557694963E0,6.583227515E-1,-2.747732960E-2,-5.611249208E-1
2.559694696E0,6.540467143E-1,-2.930992469E-2,-5.599032044E-1
2.561694429E0,6.546576023E-1,-1.037310343E-2,-5.550162792E-1
2.563694162E0,6.534358263E-1,7.341989316E-3,-5.165317655E-1
2.565693895E0,6.503815055E-1,1.833756454E-2,-5.055361986E-1
2.567693628E0,6.461054683E-1,3.605265543E-2,-4.902645648E-1
2.569693361E0,6.363316178E-1,4.765909538E-2,-4.878211021E-1
2.571693094E0,6.283903718E-1,6.170899421E-2,-4.817124605E-1
2.573692894E0,6.149513125E-1,8.858706802E-2,-4.707168937E-1
2.575692627E0,5.954036117E-1,1.142434105E-1,-4.725494683E-1
2.577692360E0,5.819646120E-1,1.209629253E-1,-4.743820727E-1
2.579692093E0,5.611951947E-1,1.545605212E-1,-4.774363935E-1
2.581692659E0,5.343171358E-1,1.881580949E-1,-4.756037891E-1
2.583692392E0,5.184346437E-1,2.089275271E-1,-4.823232889E-1
2.585692125E0,4.946108758E-1,2.370273322E-1,-4.829341769E-1
2.587691858E0,4.817826748E-1,2.547424138E-1,-4.872102439E-1
2.589692091E0,4.524611831E-1,2.871182859E-1,-4.951514900E-1
2.591691824E0,4.286374152E-1,3.060550988E-1,-5.079796314E-1
2.593691557E0,4.182527065E-1,3.103311360E-1,-5.092014074E-1
2.595691290E0,4.048136771E-1,3.042224944E-1,-5.183643699E-1
2.597691023E0,3.938181102E-1,3.042224944E-1,-5.238621235E-1
2.599690756E0,3.877094388E-1,2.834531069E-1,-5.360794663E-1
2.601690489E0,3.767138720E-1,2.614619434E-1,-5.427989364E-1
2.603690222E0,3.687726557E-1,2.492446303E-1,-5.537945628E-1
2.605690022E0,3.522792757E-1,2.364164591E-1,-5.696770549E-1
2.607689755E0,3.290663660E-1,2.235882878E-1,-5.886138678E-1
2.609689488E0,3.192925453E-1,2.345838696E-1,-6.057180762E-1
2.611689221E0,2.808080316E-1,2.474120259E-1,-6.393156648E-1
2.613688954E0,2.411017865E-1,2.742901146E-1,-6.863523126E-1
2.615688687E0,2.209432423E-1,2.950595021E-1,-7.113977671E-1
2.617689287E0,1.714631468E-1,3.286570907E-1,-7.700408101E-1
2.619689087E0,1.476394087E-1,3.378201127E-1,-7.926428914E-1
2.621688887E0,1.061005741E-1,3.598112464E-1,-8.335707784E-1
2.623688620E0,6.395087391E-2,3.915762305E-1,-8.726661801E-1
2.625688353E0,4.745751247E-2,3.995174766E-1,-8.885487318E-1
2.627688086E0,1.447078679E-2,4.453323781E-1,-9.343636036E-1
2.629687819E0,-2.340285853E-2,4.838168919E-1,-9.783458710E-1
2.631687552E0,-3.928535432E-2,5.051971674E-1,-1.010110855E0
2.633686952E0,-6.249823421E-2,5.320752859E-1,-1.083414674E0
2.635686752E0,-6.982861459E-2,5.424599648E-1,-1.114568830E0
2.637686485E0,-7.715899497E-2,5.632293820E-1,-1.167103291E0
2.639686218E0,-7.227207720E-2,5.730032325E-1,-1.200089931E0
2.641685684E0,-6.188736856E-2,5.693380237E-1,-1.210474730E0
2.643685417E0,-3.806362674E-2,5.528446436E-1,-1.239796281E0
2.645685150E0,-1.301814895E-2,5.381839275E-1,-1.267895937E0
2.647684883E0,-1.411709585E-3,5.308535099E-1,-1.278891563E0
2.649684616E0,1.447078679E-2,5.247448683E-1,-1.298439384E0
2.651684416E0,2.485549636E-2,5.229122043E-1,-1.307602286E0
2.653684149E0,2.485549636E-2,5.198578835E-1,-1.317376137E0
2.655683882E0,2.302289940E-2,5.363513231E-1,-1.319819570E0
2.657683615E0,1.385992114E-2,5.394056439E-1,-1.316765308E0
2.659683348E0,5.918673705E-3,5.662837029E-1,-1.306991458E0
2.661683081E0,-9.963823482E-3,5.870531201E-1,-1.294774055E0
2.663682814E0,-1.668334007E-2,6.004921198E-1,-1.292330742E0
2.665682547E0,-2.706805058E-2,6.249267459E-1,-1.278891563E0
2.667682347E0,-3.195497021E-2,6.401983500E-1,-1.258122206E0
2.669682080E0,-3.378756717E-2,6.401983500E-1,-1.249570012E0
2.671681813E0,-2.462458797E-2,6.475287676E-1,-1.226357222E0
2.673681546E0,-1.912680268E-2,6.530265212E-1,-1.212918043E0
2.675681279E0,-8.742092177E-3,6.615786552E-1,-1.178098917E0
2.677681012E0,-1.411709585E-3,6.768502593E-1,-1.142668724E0
2.679680745E0,-3.244305262E-3,6.811263561E-1,-1.126786113E0
2.681680478E0,-2.633440075E-3,6.951762438E-1,-1.092577696E0
2.683680278E0,-2.279199474E-2,7.006740570E-1,-1.052871466E0
2.685680011E0,-3.378756717E-2,7.080044746E-1,-1.032102108E0
2.687679744E0,-6.005477160E-2,7.238869071E-1,-9.905631542E-1
2.689679477E0,-7.227207720E-2,7.342715859E-1,-9.697937369E-1
2.691679210E0,-1.034262106E-1,7.519866824E-1,-9.233680367E-1
2.693679276E0,-1.351911873E-1,7.733669877E-1,-8.806074858E-1
2.695679009E0,-1.541280150E-1,7.800865769E-1,-8.555619717E-1
2.697678809E0,-1.846712828E-1,7.959690094E-1,-8.170774579E-1
2.699678609E0,-2.176579982E-1,8.167384863E-1,-7.749277949E-1
2.701679642E0,-2.335404903E-1,8.228471279E-1,-7.553800941E-1
2.703679375E0,-2.683598399E-1,8.283448219E-1,-7.187281251E-1
2.705679108E0,-3.031791449E-1,8.246796727E-1,-6.918501258E-1
2.707678841E0,-3.184507787E-1,8.222361803E-1,-6.753567457E-1
2.709678574E0,-3.489940464E-1,8.032993674E-1,-6.545873284E-1
2.711678307E0,-3.612113297E-1,8.008559346E-1,-6.454243064E-1
2.713678107E0,-3.832024932E-1,7.849734426E-1,-6.387048364E-1
2.715677907E0,-4.051936269E-1,7.672583461E-1,-6.332070231E-1
2.717677640E0,-4.094696939E-1,7.635931373E-1,-6.319853067E-1
2.719677373E0,-4.247413278E-1,7.501541376E-1,-6.246548891E-1
2.721677573E0,-4.412346780E-1,7.379368544E-1,-6.038854718E-1
2.723677306E0,-4.485650659E-1,7.409911752E-1,-5.935007930E-1
2.725677039E0,-4.607823789E-1,7.367150784E-1,-5.666227341E-1
2.727676772E0,-4.626149535E-1,7.385476828E-1,-5.501293540E-1
2.729676572E0,-4.797192216E-1,7.312172651E-1,-5.159208775E-1
2.731676305E0,-4.968234301E-1,7.104478478E-1,-4.804907143E-1
2.733676038E0,-5.047646761E-1,7.110587955E-1,-4.530017674E-1
2.735675771E0,-5.237014890E-1,6.835698485E-1,-4.200150371E-1
2.737675871E0,-5.432491899E-1,6.456961632E-1,-3.913043737E-1
2.739675604E0,-5.505796075E-1,6.304245591E-1,-3.827522993E-1
2.741675337E0,-5.676837564E-1,5.931617618E-1,-3.589285314E-1
2.743675070E0,-5.811228156E-1,5.595641732E-1,-3.583176434E-1
2.745674870E0,-5.817337036E-1,5.375729799E-1,-3.406025767E-1
2.747674603E0,-5.805119872E-1,4.813733995E-1,-3.253309429E-1
2.749674336E0,-5.811228156E-1,4.636583328E-1,-3.186114132E-1
2.751674069E0,-5.737923980E-1,4.129565060E-1,-3.161679804E-1
2.753673802E0,-5.670729280E-1,3.640872836E-1,-3.039506674E-1
2.755673535E0,-5.572990775E-1,3.414852917E-1,-3.033398092E-1
2.757673268E0,-5.365296602E-1,3.091094196E-1,-3.027289510E-1
2.759673001E0,-5.029320717E-1,2.632945180E-1,-3.045615256E-1
2.761671367E0,-4.858278632E-1,2.303078026E-1,-3.027289510E-1
2.763671133E0,-4.461216033E-1,1.594474316E-1,-2.886790335E-1
2.765670899E0,-4.302391112E-1,1.014152393E-1,-2.709639370E-1
2.767670665E0,-3.825916052E-1,-2.564473264E-2,-2.208729833E-1
2.769670431E0,-3.410528004E-1,-1.337678879E-1,-1.683385819E-1
2.771670197E0,-3.239485621E-1,-1.783610433E-1,-1.445148289E-1
2.773669963E0,-2.976813614E-1,-2.663256526E-1,-9.869994223E-2
2.775669729E0,-2.836314440E-1,-3.384077549E-1,-6.265889108E-2
2.777669562E0,-2.756902277E-1,-3.671184182E-1,-4.799812660E-2
2.779669328E0,-2.695815563E-1,-4.068246484E-1,-2.050918899E-2
2.781668161E0,-2.659163475E-1,-4.233179986E-1,-1.572367153E-3
2.783667927E0,-2.622511685E-1,-4.282049239E-1,1.308839861E-2
2.785667693E0,-2.567533851E-1,-4.337027371E-1,2.836002968E-2
2.787667459E0,-2.536990643E-1,-4.373679161E-1,3.813387454E-2
2.789667225E0,-2.414817512E-1,-4.361461699E-1,5.951415747E-2
2.791667058E0,-2.286535800E-1,-4.214854240E-1,8.089444041E-2
2.793666891E0,-2.268209904E-1,-4.141550362E-1,8.822482079E-2
2.795666657E0,-2.133819461E-1,-4.043811858E-1,1.065507829E-1
2.797666057E0,-2.005537748E-1,-3.891095519E-1,1.260984689E-1
2.799665823E0,-1.962777227E-1,-3.909421265E-1,1.309853941E-1
2.801665589E0,-1.907799393E-1,-3.817791641E-1,1.438135654E-1
2.803665355E0,-1.901690662E-1,-3.860552311E-1,1.456461698E-1
2.805665121E0,-1.877256185E-1,-3.750596642E-1,1.505330801E-1
2.807664954E0,-1.871147454E-1,-3.878878057E-1,1.554200053E-1
2.809664720E0,-1.883364767E-1,-3.817791641E-1,1.572525948E-1
2.811664486E0,-1.865038723E-1,-4.001051188E-1,1.609177887E-1
2.813664252E0,-1.871147454E-1,-4.111007154E-1,1.651938409E-1
2.815664018E0,-1.877256185E-1,-4.159876406E-1,1.609177887E-1
2.817663784E0,-1.858930141E-1,-4.178202152E-1,1.584743261E-1
2.819663550E0,-1.865038723E-1,-4.275940657E-1,1.554200053E-1
2.821662883E0,-1.865038723E-1,-4.172093570E-1,1.395375133E-1
2.823662683E0,-1.816169620E-1,-3.988834023E-1,1.157137603E-1
2.825662416E0,-1.846712828E-1,-3.915530145E-1,1.071616411E-1
2.827662149E0,-1.761191785E-1,-3.836117685E-1,9.922039509E-2
2.829661882E0,-1.785626411E-1,-3.866661191E-1,9.616606683E-2
2.831661615E0,-1.834495515E-1,-3.915530145E-1,8.883568645E-2
2.833661348E0,-1.895582080E-1,-3.982725143E-1,7.784011960E-2
2.835661081E0,-2.023863643E-1,-4.141550362E-1,4.668598622E-2
2.837660814E0,-2.078841627E-1,-4.117115736E-1,3.385781869E-2
2.839660614E0,-2.164362818E-1,-3.561228216E-1,1.736445539E-2
2.841660814E0,-2.243775129E-1,-3.109187782E-1,6.979746278E-3
2.843661614E0,-2.188797295E-1,-1.948543936E-1,-7.681019604E-3
2.845661347E0,-2.066624314E-1,-6.107491627E-2,-3.272649273E-2
2.847661080E0,-1.987211704E-1,1.844202168E-3,-4.738726094E-2
2.849660813E0,-1.651235968E-1,1.350128353E-1,-7.243274152E-2
2.851660546E0,-1.248064861E-1,2.486337572E-1,-9.625647962E-2
2.853660279E0,-1.052588075E-1,2.920051813E-1,-1.017542630E-1
2.855660079E0,-3.317670152E-2,3.646981418E-1,-1.090846509E-1
2.857659812E0,-8.742092177E-3,3.842458427E-1,-1.023651361E-1
2.859659545E0,5.784222111E-2,4.184542894E-1,-8.892609179E-2
2.861659278E0,1.152635515E-1,4.184542894E-1,-6.082629785E-2
2.863659011E0,1.439742148E-1,4.184542894E-1,-4.921985790E-2
2.865658744E0,1.897891015E-1,4.099021852E-1,-2.234178595E-2
2.867658477E0,2.239975631E-1,4.062370062E-1,-7.681019604E-3
2.869658277E0,2.392691970E-1,4.062370062E-1,1.481959131E-3
2.871658077E0,2.618712187E-1,4.105130732E-1,1.064493787E-2
2.873657810E0,2.698124647E-1,4.080695808E-1,1.675358973E-2
2.875657543E0,2.789754272E-1,4.056261182E-1,2.225137688E-2
2.877657276E0,2.789754272E-1,3.989066184E-1,2.286224253E-2
2.879657009E0,2.765319943E-1,3.909653723E-1,2.469483763E-2
2.881657009E0,2.667581439E-1,3.836349845E-1,2.408397384E-2
2.883656742E0,2.472104430E-1,3.628655672E-1,2.408397384E-2
2.885656542E0,2.380474657E-1,3.555351794E-1,2.286224253E-2
2.887656275E0,2.123911232E-1,3.201049864E-1,2.286224253E-2
2.889656008E0,1.757392138E-1,2.749009728E-1,2.591656893E-2
2.891655741E0,1.586349756E-1,2.364164591E-1,3.446868062E-2
2.893655474E0,1.085440367E-1,1.765516698E-1,4.974031448E-2
2.895655207E0,8.533115685E-2,1.515061855E-1,4.974031448E-2
2.897654940E0,4.440318421E-2,1.307367682E-1,4.546425492E-2
2.899654673E0,1.508165151E-2,1.191303357E-1,3.752300888E-2
2.901654473E0,8.362133987E-3,1.166868657E-1,3.324695304E-2
2.903653139E0,4.208861501E-4,1.130216718E-1,3.019262478E-2
2.905652872E0,2.864347305E-3,1.179085970E-1,2.408397384E-2
2.907652605E0,1.080559567E-2,1.197411940E-1,2.713830024E-2
2.909652338E0,2.119030431E-2,1.301258951E-1,2.530570328E-2
2.911652071E0,2.668809146E-2,1.337910891E-1,2.897089534E-2
2.913651804E0,4.501404986E-2,1.515061855E-1,3.080349229E-2
2.915651537E0,5.967481434E-2,1.692212820E-1,3.141435608E-2
2.917651337E0,6.700519472E-2,1.802168638E-1,3.385781869E-2
2.919651070E0,7.494644821E-2,1.924341619E-1,3.385781869E-2
2.921650803E0,8.166596293E-2,2.003754079E-1,3.691214323E-2
2.923650536E0,8.410942554E-2,1.991536766E-1,3.813387454E-2
2.925650269E0,8.472029120E-2,2.064840496E-1,3.691214323E-2
2.927650002E0,8.349855989E-2,2.028188556E-1,4.179906473E-2
2.929649735E0,8.227683604E-2,1.930450350E-1,4.240993038E-2
2.931649468E0,7.677904516E-2,1.863255054E-1,4.240993038E-2
2.933649268E0,7.311385125E-2,1.826603115E-1,4.485338926E-2
2.935649001E0,6.883779168E-2,1.887689680E-1,4.302079231E-2
2.937648734E0,6.272914261E-2,1.887689680E-1,4.240993038E-2
2.939648467E0,5.662048608E-2,1.875472367E-1,4.240993038E-2
2.941648367E0,5.234443396E-2,1.899906993E-1,4.363166168E-2
2.943648100E0,4.929010570E-2,1.906015575E-1,4.668598622E-2
2.945647833E0,4.562491551E-2,1.869363636E-1,4.668598622E-2
2.947647633E0,4.440318421E-2,1.747190654E-1,3.813387454E-2
2.949647433E0,4.134885967E-2,1.710538715E-1,3.996646777E-2
2.951647166E0,3.340760618E-2,1.814385802E-1,3.996646777E-2
2.953646899E0,2.974241786E-2,1.851037741E-1,3.935560584E-2
2.955646632E0,2.485549636E-2,1.930450350E-1,3.752300888E-2
2.957646365E0,1.996857487E-2,1.948776245E-1,3.813387454E-2
2.959646098E0,1.874684356E-2,1.918232888E-1,3.752300888E-2
2.961645831E0,1.508165151E-2,1.881580949E-1,3.385781869E-2
2.963645631E0,1.080559567E-2,1.881580949E-1,3.569041565E-2
2.965645431E0,7.751268800E-3,1.844929010E-1,3.324695304E-2
2.967645164E0,8.362133987E-3,1.832711846E-1,3.569041565E-2
2.969644897E0,5.307808053E-3,1.783842593E-1,3.691214323E-2
2.971644630E0,-1.899790950E-4,1.789951175E-1,3.813387454E-2
2.973644363E0,4.208861501E-4,1.796059906E-1,4.057733715E-2
2.975644096E0,-2.022574889E-3,1.789951175E-1,3.996646777E-2
2.977643829E0,-6.298631895E-3,1.753299236E-1,3.752300888E-2
2.979643629E0,-1.118555386E-2,1.655560881E-1,4.424252734E-2
2.981643362E0,-1.607247628E-2,1.588365585E-1,4.302079231E-2
2.983643095E0,-1.851593517E-2,1.582257152E-1,4.485338926E-2
2.985642828E0,-2.523545548E-2,1.502844542E-1,4.485338926E-2
2.987642561E0,-2.828978002E-2,1.460084021E-1,4.607512429E-2
2.989642294E0,-3.867448866E-2,1.344019622E-1,4.729685187E-2
2.991642027E0,-4.844833538E-2,1.289041787E-1,4.851858318E-2
2.993641760E0,-5.211352557E-2,1.270715743E-1,4.974031448E-2
2.995641560E0,-6.433083117E-2,1.240172535E-1,5.157291144E-2
2.997641293E0,-7.899159193E-2,1.252389848E-1,5.218377337E-2
2.999641026E0,-8.448938280E-2,1.221846566E-1,5.157291144E-2
3.001640426E0,-9.670668840E-2,1.307367682E-1,5.401637033E-2
3.003640159E0,-1.022044718E-1,1.325693727E-1,5.768156052E-2
3.005639892E0,-1.174761057E-1,1.325693727E-1,6.317935139E-2
3.007639625E0,-1.345803440E-1,1.258498430E-1,6.256848574E-2
3.009639358E0,-1.400781274E-1,1.209629253E-1,6.073588878E-2
3.011639158E0,-1.559606194E-1,1.117999479E-1,5.645983294E-2
3.013638924E0,-1.687887907E-1,9.775004536E-2,5.279463902E-2
3.015638690E0,-1.736757010E-1,9.103052318E-2,4.974031448E-2
3.017638456E0,-1.810060889E-1,7.636975497E-2,4.668598622E-2
3.019638222E0,-1.895582080E-1,6.170899421E-2,4.546425492E-2
3.021638022E0,-1.895582080E-1,5.376774818E-2,4.546425492E-2
3.023637788E0,-1.895582080E-1,4.949169233E-2,4.179906473E-2
3.025637554E0,-1.901690662E-1,4.399390519E-2,4.363166168E-2
3.027637387E0,-1.871147454E-1,3.910698369E-2,4.302079231E-2
3.029637253E0,-1.816169620E-1,3.238746151E-2,4.179906473E-2
3.031637119E0,-1.797843575E-1,2.872227319E-2,4.179906473E-2
3.033636985E0,-1.700105071E-1,2.811140753E-2,4.057733715E-2
3.035636851E0,-1.687887907E-1,2.444621734E-2,3.691214323E-2
3.037636717E0,-1.718431115E-1,2.261362039E-2,3.874474019E-2
3.039636583E0,-1.852821559E-1,1.222891174E-2,4.363166168E-2
3.041636516E0,-1.956668496E-1,3.676797962E-3,4.790771753E-2
3.043636449E0,-2.249883860E-1,-2.381213754E-2,4.851858318E-2
3.045636382E0,-2.543099225E-1,-4.824674502E-2,4.729685187E-2
3.047636315E0,-2.701924145E-1,-6.901616603E-2,4.363166168E-2
3.049636248E0,-2.909618318E-1,-8.184433728E-2,3.263608366E-2
3.051636181E0,-2.934052944E-1,-1.044463515E-1,1.797532104E-2
3.053636114E0,-2.909618318E-1,-1.026137546E-1,1.003407314E-2
3.055636047E0,-2.793554068E-1,-1.075006798E-1,-4.626693204E-3
3.057636047E0,-2.689706683E-1,-1.007811576E-1,-8.291884325E-3
3.059636013E0,-2.488121390E-1,-8.367693424E-2,-1.623313315E-2
3.061635879E0,-2.249883860E-1,-6.718356907E-2,-1.928745769E-2
3.063635845E0,-2.164362818E-1,-6.290750951E-2,-2.234178595E-2
3.065635811E0,-2.072733045E-1,-5.252280459E-2,-2.722870745E-2
3.067635777E0,-1.956668496E-1,-5.313367024E-2,-3.211563081E-2
3.069635743E0,-1.920016706E-1,-5.435540155E-2,-3.761341423E-2
3.071635709E0,-1.865038723E-1,-5.435540155E-2,-4.738726094E-2
3.073635709E0,-1.755083054E-1,-5.191193894E-2,-5.471764505E-2
3.075635675E0,-1.718431115E-1,-5.496626720E-2,-5.960456282E-2
3.077635641E0,-1.529062986E-1,-5.496626720E-2,-6.693495065E-2
3.079635607E0,-1.400781274E-1,-5.618799478E-2,-7.121100277E-2
3.081635840E0,-1.119783148E-1,-5.313367024E-2,-7.731965929E-2
3.083635806E0,-7.410467416E-2,-4.519242048E-2,-7.976311445E-2
3.085635772E0,-5.150265992E-2,-4.519242048E-2,-8.098484576E-2
3.087635738E0,-9.963823482E-3,-2.564473264E-2,-7.915224880E-2
3.089635671E0,3.829453140E-2,1.160644024E-5,-8.159571141E-2
3.091635604E0,5.600962415E-2,1.100718137E-2,-7.915224880E-2
3.093635537E0,9.388326854E-2,4.949169233E-2,-8.159571141E-2
3.095635470E0,1.122092307E-1,6.537418813E-2,-7.915224880E-2
3.097635403E0,1.390872896E-1,9.836091101E-2,-7.670879364E-2
3.099635336E0,1.653545052E-1,1.313476413E-1,-7.426533848E-2
3.101635269E0,1.824587286E-1,1.472301334E-1,-7.426533848E-2
3.103635202E0,2.044498771E-1,1.716647297E-1,-6.632408500E-2
3.105635135E0,2.288844883E-1,1.954884827E-1,-5.899370089E-2
3.107635001E0,2.417126596E-1,2.003754079E-1,-5.471764505E-2
3.109634867E0,2.655363977E-1,2.193122208E-1,-4.738726094E-2
3.111634733E0,2.875275612E-1,2.382490486E-1,-4.555466399E-2
3.113634599E0,2.942470610E-1,2.468011677E-1,-3.944601119E-2
3.115634465E0,3.009665906E-1,2.486337572E-1,-3.700255230E-2
3.117634331E0,3.021883368E-1,2.498555034E-1,-3.578082100E-2
3.119634231E0,2.960796654E-1,2.486337572E-1,-3.333736211E-2
3.121634564E0,2.814188898E-1,2.406925261E-1,-2.722870745E-2
3.123633530E0,2.740885019E-1,2.364164591E-1,-2.600697801E-2
3.125633363E0,2.649255395E-1,2.327512652E-1,-1.989832520E-2
3.127633196E0,2.484321743E-1,2.290860713E-1,-1.378967147E-2
3.129633029E0,2.417126596E-1,2.260317504E-1,-5.237558857E-3
3.131632862E0,2.246084362E-1,2.235882878E-1,8.201477118E-3
3.133632695E0,2.130019963E-1,2.241991609E-1,1.736445539E-2
3.135632561E0,1.934542954E-1,2.296969444E-1,3.385781869E-2
3.137632361E0,1.696305573E-1,2.290860713E-1,5.096204206E-2
3.139632161E0,1.592458487E-1,2.321403921E-1,5.768156052E-2
3.141630761E0,1.146526858E-1,2.296969444E-1,9.127914906E-2
3.143630561E0,1.036571115E-1,2.333621383E-1,9.860953689E-2
3.145630361E0,9.021808207E-2,2.327512652E-1,1.065507829E-1
3.147630161E0,6.334000826E-2,2.443577051E-1,1.260984689E-1
3.149629961E0,3.768366575E-2,2.461903095E-1,1.352614462E-1
3.151629761E0,2.729895711E-2,2.486337572E-1,1.535874009E-1
3.153629494E0,7.140403613E-3,2.406925261E-1,1.786328703E-1
3.155629227E0,2.864347305E-3,2.370273322E-1,1.914610416E-1
3.157628560E0,-1.362901367E-2,2.278643548E-1,2.195608467E-1
3.159628293E0,-1.790507138E-2,2.223665565E-1,2.427737266E-1
3.161627126E0,-1.912680268E-2,2.168687731E-1,2.543801665E-1
3.163626859E0,-2.890064567E-2,2.125927061E-1,2.788147926E-1
3.165626592E0,-3.745275736E-2,2.058732063E-1,3.026385307E-1
3.167626392E0,-4.050708562E-2,2.058732063E-1,3.154667020E-1
3.169625692E0,-4.722660407E-2,2.095383853E-1,3.411230445E-1
3.171625425E0,-5.150265992E-2,2.101492435E-1,3.533403277E-1
3.173625158E0,-5.638958141E-2,2.235882878E-1,3.753314912E-1
3.175624891E0,-5.944390967E-2,2.321403921E-1,4.009878337E-1
3.177624624E0,-5.822217464E-2,2.431359738E-1,4.162594676E-1
3.179624357E0,-5.272439122E-2,2.504663467E-1,4.376397431E-1
3.181623223E0,-3.684189171E-2,2.724575102E-1,4.724590778E-1
3.183623889E0,-3.684189171E-2,2.724575102E-1,4.724590778E-1
3.185623189E0,-3.317670152E-2,2.926160693E-1,4.981154203E-1
3.187622922E0,-2.951151133E-2,3.005573153E-1,5.127761960E-1
3.189622655E0,-2.767891437E-2,3.268245161E-1,5.378216505E-1
3.191622388E0,-2.462458797E-2,3.500373960E-1,5.598127842E-1
3.193622121E0,-3.012237512E-2,3.561460674E-1,5.720300674E-1
3.195621854E0,-3.317670152E-2,3.701959550E-1,5.915777683E-1
3.197621654E0,-4.356141388E-2,3.842458427E-1,6.129580736E-1
3.199621454E0,-5.028092861E-2,3.915762305E-1,6.147906780E-1
3.201621220E0,-6.921774894E-2,4.013500810E-1,6.251753569E-1
3.203620020E0,-7.593727112E-2,4.099021852E-1,6.300623417E-1
3.205619753E0,-8.571111411E-2,4.092913270E-1,6.349492073E-1
3.207619486E0,-1.064805314E-1,4.215086401E-1,6.410578489E-1
3.209619219E0,-1.180869788E-1,4.257846773E-1,6.441121697E-1
3.211618952E0,-1.370237917E-1,4.386128485E-1,6.471664906E-1
3.213618752E0,-1.584040821E-1,4.416671693E-1,6.477773786E-1
3.215618552E0,-1.736757010E-1,4.367802441E-1,6.453339458E-1
3.217618685E0,-1.950560063E-1,4.312824607E-1,6.416687369E-1
3.219618418E0,-2.194906026E-1,4.080695808E-1,6.386143565E-1
3.221618184E0,-2.457578182E-1,3.756937385E-1,6.367818117E-1
3.223617917E0,-2.530882061E-1,3.561460674E-1,6.337274909E-1
3.225617650E0,-2.671380937E-1,3.353766203E-1,6.288405657E-1
3.227617383E0,-2.903509736E-1,2.907834649E-1,6.270080209E-1
3.229617616E0,-3.062334657E-1,2.358055860E-1,6.270080209E-1
3.231617349E0,-3.172290325E-1,2.064840496E-1,6.239537001E-1
3.233617082E0,-3.270029128E-1,1.423432231E-1,6.239537001E-1
3.235616815E0,-3.361658752E-1,8.308927715E-2,6.221210361E-1
3.237616548E0,-3.386093080E-1,5.560034513E-2,6.208993196E-1
3.239616281E0,-3.422745168E-1,8.563719690E-3,6.147906780E-1
3.241616014E0,-3.422745168E-1,-1.037310343E-2,5.946321487E-1
3.243615747E0,-3.422745168E-1,-1.037310343E-2,5.946321487E-1
3.245615980E0,-3.373875916E-1,-9.762237780E-3,5.818039775E-1
3.247615713E0,-3.312789202E-1,6.224716781E-4,5.732518435E-1
3.249615446E0,-3.098986447E-1,9.785450064E-3,5.610345602E-1
3.251615179E0,-2.830205858E-1,3.116573393E-2,5.457628965E-1
3.253614912E0,-2.665272355E-1,4.582649842E-2,5.408759713E-1
3.255614645E0,-2.353730947E-1,6.781765074E-2,5.298803449E-1
3.257614378E0,-2.029972374E-1,8.308927715E-2,5.176630616E-1
3.259614111E0,-1.828386784E-1,9.591744840E-2,5.115544200E-1
3.261613844E0,-1.412998438E-1,1.105782166E-1,4.968936741E-1
3.265172186E0,-1.248064861E-1,1.197411940E-1,4.920067489E-1
3.267171919E0,-1.125891879E-1,1.258498430E-1,4.901741743E-1
3.269171652E0,-8.387851715E-2,1.337910891E-1,4.822328985E-1
3.271170952E0,-7.227207720E-2,1.447866708E-1,4.797894657E-1
3.273170685E0,-4.417227581E-2,1.582257152E-1,4.712373316E-1
3.275170418E0,-2.401372418E-2,1.741082072E-1,4.651286900E-1
3.277170151E0,-1.179641951E-2,1.814385802E-1,4.614635110E-1
3.279169951E0,1.508165151E-2,1.979319453E-1,4.486353099E-1
3.281169684E0,2.241203561E-2,2.113709897E-1,4.382506013E-1
3.283169417E0,4.195972532E-2,2.498555034E-1,4.187029004E-1
3.285169150E0,4.440318421E-2,2.529098094E-1,4.132051468E-1
3.287168883E0,4.867924005E-2,2.651271224E-1,4.070965052E-1
3.289168616E0,5.234443396E-2,2.913943231E-1,3.899922371E-1
3.291168349E0,4.867924005E-2,3.121637702E-1,3.777749538E-1
3.293168149E0,4.745751247E-2,3.194941282E-1,3.741097748E-1
3.295167949E0,3.951626271E-2,3.219375908E-1,3.692228496E-1
3.297167682E0,2.913155220E-2,3.304897249E-1,3.680011034E-1
3.299167415E0,2.790982276E-2,3.311005533E-1,3.661685288E-1
3.301167148E0,8.362133987E-3,3.323222995E-1,3.606707156E-1
3.303166881E0,-1.057468820E-2,3.445396125E-1,3.490642607E-1
3.305165681E0,-1.057468820E-2,3.445396125E-1,3.490642607E-1
3.307165414E0,-2.462458797E-2,3.482047915E-1,3.411230445E-1
3.309165214E0,-3.012237512E-2,3.457613289E-1,3.399012983E-1
3.311164947E0,-4.172881693E-2,3.414852917E-1,3.313491940E-1
3.313164680E0,-4.967006296E-2,3.433178663E-1,3.252405524E-1
3.315164413E0,-5.028092861E-2,3.482047915E-1,3.160775304E-1
3.317164146E0,-5.089179426E-2,3.573677540E-1,3.032493889E-1
3.319163879E0,-4.844833538E-2,3.549243212E-1,2.971407473E-1
3.321163612E0,-4.783746600E-2,3.671416342E-1,2.812582254E-1
3.323163412E0,-2.279199474E-2,3.842458427E-1,2.507149875E-1
3.325163178E0,-2.279199474E-2,3.842458427E-1,2.507149875E-1
3.327162911E0,-1.118555386E-2,3.940196931E-1,2.299455553E-1
3.329162644E0,7.751268800E-3,4.086804390E-1,2.091761529E-1
3.331162810E0,2.057943866E-2,4.105130732E-1,1.969588250E-1
3.333162543E0,3.646193817E-2,4.233412147E-1,1.761894226E-1
3.335162276E0,5.234443396E-2,4.263955355E-1,1.572525948E-1
3.337161942E0,6.395087391E-2,4.227303565E-1,1.462570131E-1
3.339161675E0,8.838548511E-2,4.361694157E-1,1.260984689E-1
3.341161475E0,1.030462459E-1,4.404454231E-1,1.199898124E-1
3.343161208E0,1.396981627E-1,4.471649826E-1,1.016638577E-1
3.345160941E0,1.592458487E-1,4.526627362E-1,8.761396259E-2
3.347160674E0,1.708522886E-1,4.636583328E-1,8.089444041E-2
3.349161140E0,1.983412355E-1,4.728213251E-1,6.745540351E-2
3.351160873E0,2.301062196E-1,4.801517129E-1,6.256848574E-2
3.353160606E0,2.465995848E-1,4.984776676E-1,5.523810163E-2
3.355160339E0,2.765319943E-1,5.161927342E-1,5.401637033E-2
3.357160139E0,2.893601358E-1,5.216905475E-1,5.218377337E-2
3.359159872E0,3.137947619E-1,5.320752859E-1,4.729685187E-2
3.361159605E0,3.400619626E-1,5.516229272E-1,4.057733715E-2
3.363159338E0,3.596096635E-1,5.626184940E-1,4.485338926E-2
3.365160004E0,3.663291633E-1,5.705597401E-1,4.485338926E-2
3.367159737E0,3.791573346E-1,5.797227025E-1,4.974031448E-2
3.369159470E0,3.846551180E-1,5.876640081E-1,5.035117641E-2
3.371159270E0,3.938181102E-1,5.870531201E-1,5.645983294E-2
3.373159070E0,4.017593265E-1,5.931617618E-1,5.890329182E-2
3.375158803E0,4.054245353E-1,5.833879113E-1,5.829242617E-2
3.377158536E0,4.035919607E-1,5.699488521E-1,6.501194835E-2
3.379158269E0,4.048136771E-1,5.626184940E-1,6.440107524E-2
3.381158002E0,3.974833190E-1,5.418490767E-1,6.623367220E-2
3.383157735E0,3.712160885E-1,5.003102422E-1,7.356406003E-2
3.385157468E0,3.712160885E-1,5.003102422E-1,7.356406003E-2
3.387157268E0,3.614422679E-1,4.819842875E-1,7.539664954E-2
3.389157068E0,3.400619626E-1,4.569388032E-1,8.394876868E-2
3.391156801E0,3.302881122E-1,4.447214901E-1,8.028357476E-2
3.393156534E0,3.064643741E-1,4.312824607E-1,8.822482079E-2
3.395156267E0,2.948579490E-1,4.263955355E-1,8.455963433E-2
3.397156067E0,2.704233229E-1,4.153999686E-1,9.066828340E-2
3.399155800E0,2.435452640E-1,4.123456478E-1,8.944655955E-2
3.401155533E0,2.288844883E-1,4.092913270E-1,8.944655955E-2
3.403155333E0,1.806261241E-1,3.940196931E-1,8.822482079E-2
3.405155066E0,1.702414304E-1,3.915762305E-1,8.822482079E-2
3.407154799E0,1.519154608E-1,3.866893053E-1,8.578136563E-2
3.409153799E0,1.348112375E-1,3.854675889E-1,8.394876868E-2
3.411153532E0,1.195396110E-1,3.811915219E-1,8.028357476E-2
3.413153265E0,1.036571115E-1,3.811915219E-1,7.417492568E-2
3.415152998E0,8.594202250E-2,3.836349845E-1,6.623367220E-2
3.417152731E0,8.655288815E-2,3.793589175E-1,6.317935139E-2
3.419152531E0,7.250298560E-2,3.701959550E-1,6.745540351E-2
3.421152264E0,6.150741130E-2,3.579786420E-1,5.768156052E-2
3.423151997E0,5.051183701E-2,3.469830751E-1,5.768156052E-2
3.425151730E0,5.112269893E-2,3.353766203E-1,5.096204206E-2
3.427151463E0,4.134885967E-2,3.445396125E-1,5.401637033E-2
3.429151196E0,3.951626271E-2,3.439287543E-1,4.912944883E-2
3.431150929E0,3.707280010E-2,3.469830751E-1,5.157291144E-2
3.433150662E0,4.012712836E-2,3.463721871E-1,4.790771753E-2
3.435150462E0,4.440318421E-2,3.457613289E-1,5.401637033E-2
3.437150195E0,5.600962415E-2,3.537025750E-1,4.302079231E-2
3.439149928E0,5.967481434E-2,3.543134332E-1,3.874474019E-2
3.441149661E0,8.288769424E-2,3.555351794E-1,2.530570328E-2
3.443149394E0,1.048788428E-1,3.530917168E-1,1.614272408E-2
3.445149560E0,1.048788428E-1,3.530917168E-1,1.614272408E-2
3.447148693E0,1.164852828E-1,3.488156796E-1,2.469483763E-2
3.449148426E0,1.268699914E-1,3.524808586E-1,1.492099464E-2
3.451148226E0,1.274808645E-1,3.500373960E-1,1.797532104E-2
3.453147959E0,1.366438270E-1,3.420961201E-1,2.530570328E-2
3.455147325E0,1.311460435E-1,3.402635455E-1,3.141435608E-2
3.457147058E0,1.342003793E-1,3.469830751E-1,2.530570328E-2
3.459146791E0,1.366438270E-1,3.469830751E-1,3.446868062E-2
3.461146524E0,1.348112375E-1,3.414852917E-1,4.302079231E-2
3.463146257E0,1.183178797E-1,3.353766203E-1,4.851858318E-2
3.465146057E0,1.183178797E-1,3.353766203E-1,4.851858318E-2
3.467145157E0,1.067114398E-1,3.286570907E-1,4.546425492E-2
3.469144890E0,9.693758935E-2,3.072768152E-1,4.790771753E-2
3.471144623E0,8.349855989E-2,3.005573153E-1,4.790771753E-2
3.473144356E0,7.677904516E-2,2.865074277E-1,4.607512429E-2
3.475144089E0,7.128125429E-2,2.834531069E-1,4.118820280E-2
3.477143822E0,6.395087391E-2,2.840639353E-1,3.569041565E-2
3.479143555E0,4.990097135E-2,2.822313607E-1,3.263608366E-2
3.481143355E0,3.768366575E-2,2.694031596E-1,2.530570328E-2
3.483143121E0,2.668809146E-2,2.675705850E-1,1.614272408E-2
3.485143054E0,2.241203561E-2,2.596293390E-1,1.125580352E-2
3.487142820E0,1.813597791E-2,2.577967644E-1,2.703689504E-3
3.489142820E0,1.080559567E-2,2.535206676E-1,-4.626693204E-3
3.491142586E0,1.642616582E-3,2.651271224E-1,-1.317880768E-2
3.493142352E0,-8.131227456E-3,2.626836598E-1,-1.623313315E-2
3.495142118E0,-1.301814895E-2,2.669597268E-1,-2.173092030E-2
3.497141951E0,-1.851593517E-2,2.632945180E-1,-1.989832520E-2
3.499141717E0,-2.401372418E-2,2.645162642E-1,-1.501140185E-2
3.501141483E0,-2.706805058E-2,2.516880929E-1,-1.928745769E-2
3.503141249E0,-3.500929475E-2,2.700140476E-1,-3.639168665E-2
3.505140582E0,-3.500929475E-2,2.700140476E-1,-3.639168665E-2
3.507140948E0,-3.439843282E-2,2.761227190E-1,-3.761341423E-2
3.509140714E0,-3.378756717E-2,2.840639353E-1,-3.944601119E-2
3.511140480E0,-2.767891437E-2,2.987247109E-1,-5.044158548E-2
3.513140313E0,-2.645718306E-2,3.164397776E-1,-6.449148804E-2
3.515140446E0,-2.218112722E-2,3.146072030E-1,-7.243274152E-2
3.517140212E0,-1.362901367E-2,3.292679787E-1,-8.403917402E-2
3.519139978E0,-6.298631895E-3,3.176615238E-1,-9.869994223E-2
3.521139744E0,-2.022574889E-3,3.225484490E-1,-1.109172404E-1
3.523139510E0,1.447078679E-2,3.347657323E-1,-1.524560899E-1
3.525140143E0,1.447078679E-2,3.347657323E-1,-1.524560899E-1
3.527140609E0,1.813597791E-2,3.194941282E-1,-1.781124324E-1
3.529140442E0,1.508165151E-2,2.694031596E-1,-1.982709765E-1
3.531140208E0,1.691424660E-2,2.394707799E-1,-2.056013644E-1
3.533139974E0,3.829453140E-2,2.376381904E-1,-2.379772216E-1
3.535139740E0,5.600962415E-2,2.138144374E-1,-2.685204744E-1
3.537139506E0,6.150741130E-2,2.052623332E-1,-2.801269293E-1
3.539139272E0,7.677904516E-2,2.162579000E-1,-2.923442423E-1
3.541139038E0,8.288769424E-2,2.009862661E-1,-3.021180630E-1
3.543138838E0,1.109874919E-1,2.132035792E-1,-3.351047933E-1
3.545138471E0,1.189287379E-1,2.138144374E-1,-3.473220766E-1
3.547138204E0,1.213722080E-1,2.199230939E-1,-3.601502776E-1
3.549137704E0,1.274808645E-1,2.266426086E-1,-3.809196651E-1
3.551137437E0,1.421416104E-1,2.406925261E-1,-4.047434330E-1
3.553137170E0,1.494719982E-1,2.474120259E-1,-4.181824625E-1
3.555136903E0,1.677979529E-1,2.626836598E-1,-4.475039840E-1
3.557136636E0,1.726848930E-1,2.675705850E-1,-4.621647596E-1
3.559136436E0,1.812369972E-1,2.529098094E-1,-4.835450351E-1
3.561136169E0,1.934542954E-1,2.425251156E-1,-5.012601614E-1
3.563135902E0,2.099476606E-1,2.058732063E-1,-5.299708247E-1
3.565135935E0,2.099476606E-1,2.058732063E-1,-5.299708247E-1
3.567135668E0,2.215541005E-1,1.655560881E-1,-5.611249208E-1
3.569135401E0,2.227758318E-1,1.545605212E-1,-5.696770549E-1
3.571135134E0,2.282736152E-1,1.234063879E-1,-5.776183009E-1
3.573134867E0,2.301062196E-1,8.919792622E-2,-5.800617933E-1
3.575134667E0,2.301062196E-1,7.881322503E-2,-5.886138678E-1
3.577134400E0,2.356040031E-1,6.537418813E-2,-5.873921514E-1
3.579134133E0,2.349931300E-1,5.010255799E-2,-5.922790766E-1
3.581133866E0,2.307170928E-1,3.116573393E-2,-5.892247558E-1
3.583133599E0,2.404909283E-1,1.283977740E-2,-5.892247558E-1
3.585132465E0,2.404909283E-1,1.283977740E-2,-5.892247558E-1
3.587132198E0,2.539299726E-1,1.844202168E-3,-5.892247558E-1
3.589131931E0,2.716450393E-1,-1.587088965E-2,-5.880029798E-1
3.591131297E0,2.734776735E-1,-3.358598426E-2,-5.904464722E-1
3.593131030E0,2.863058150E-1,-5.069020763E-2,-5.910573006E-1
3.595130763E0,2.875275612E-1,-5.863145739E-2,-5.892247558E-1
3.597130496E0,2.814188898E-1,-8.489866555E-2,-5.843378305E-1
3.599130929E0,2.820297480E-1,-9.528337419E-2,-5.751748085E-1
3.601130662E0,2.765319943E-1,-1.068898067E-1,-5.672335625E-1
3.603130395E0,2.673690021E-1,-1.288809627E-1,-5.544053912E-1
3.605130128E0,2.673690021E-1,-1.288809627E-1,-5.489076376E-1
3.607129928E0,2.588168979E-1,-1.349896044E-1,-5.415772796E-1
3.609129661E0,2.551516891E-1,-1.490395218E-1,-5.256947875E-1
3.611129394E0,2.478213012E-1,-1.630894095E-1,-5.226404667E-1
3.613129127E0,2.459887117E-1,-1.655328721E-1,-5.183643699E-1
3.615128860E0,2.398800701E-1,-1.691980660E-1,-5.018709898E-1
3.617128593E0,2.368257344E-1,-1.759175807E-1,-4.957623482E-1
3.619128326E0,2.270518988E-1,-1.936326772E-1,-4.804907143E-1
3.621128126E0,2.184997648E-1,-2.315063179E-1,-4.792689681E-1
3.623127926E0,2.099476606E-1,-2.644930482E-1,-4.597213268E-1
3.625128259E0,2.099476606E-1,-2.644930482E-1,-4.597213268E-1
3.627127992E0,2.001738250E-1,-2.553300560E-1,-4.481148720E-1
3.629127725E0,1.946760416E-1,-2.528866231E-1,-4.438388050E-1
3.631127458E0,1.897891015E-1,-2.235650718E-1,-4.328432381E-1
3.633127191E0,1.842913181E-1,-2.211216092E-1,-4.224585295E-1
3.635126924E0,1.720740199E-1,-2.064608485E-1,-4.108520746E-1
3.637126724E0,1.561915278E-1,-2.217324823E-1,-4.047434330E-1
3.639126524E0,1.476394087E-1,-2.290628701E-1,-4.035216868E-1
3.641125957E0,1.219830737E-1,-2.479996830E-1,-4.029108286E-1
3.643125690E0,8.655288815E-2,-2.449453622E-1,-3.839739859E-1
3.645124523E0,8.655288815E-2,-2.449453622E-1,-3.839739859E-1
3.647124256E0,5.295529589E-2,-1.924109459E-1,-3.638154566E-1
3.649123989E0,3.829453140E-2,-1.557590365E-1,-3.485438228E-1
3.651124155E0,-3.244305262E-3,-1.081115454E-1,-3.357156813E-1
3.653123955E0,-6.982861459E-2,-1.081115454E-1,-3.442677557E-1
3.655123688E0,-1.089239940E-1,-1.258266419E-1,-3.601502776E-1
3.657123421E0,-1.883364767E-1,-1.936326772E-1,-3.705349863E-1
3.659122454E0,-2.640837729E-1,-2.223433405E-1,-3.540416360E-1
3.661122187E0,-2.964596152E-1,-1.997413337E-1,-3.430460393E-1
3.663121920E0,-3.954198062E-1,-7.084876299E-2,-3.302178681E-1
3.665120720E0,-3.954198062E-1,-7.084876299E-2,-3.302178681E-1
3.667120453E0,-4.430672824E-1,1.955929399E-2,-3.448786438E-1
3.669120253E0,-4.711670876E-1,1.215737909E-1,-3.748110235E-1
3.671119986E0,-4.772757292E-1,1.704430133E-1,-3.864174783E-1
3.673119952E0,-4.931582212E-1,2.565750182E-1,-4.065760076E-1
3.675119685E0,-4.925473630E-1,3.317114115E-1,-4.151281416E-1
3.677119418E0,-4.907147884E-1,3.500373960E-1,-4.181824625E-1
3.679119151E0,-4.858278632E-1,3.738611341E-1,-4.114629626E-1
3.681118884E0,-4.705561996E-1,3.720285296E-1,-4.139063954E-1
3.683118617E0,-4.418455362E-1,3.903544843E-1,-4.267345965E-1
3.685117583E0,-4.418455362E-1,3.903544843E-1,-4.267345965E-1
3.687117316E0,-4.320717156E-1,3.891327679E-1,-4.316214919E-1
3.689117316E0,-4.113022685E-1,4.013500810E-1,-4.340649843E-1
3.691117049E0,-3.752612174E-1,4.624365866E-1,-4.175716043E-1
3.693116782E0,-3.728177845E-1,4.942016006E-1,-4.041325748E-1
3.695116515E0,-3.606004715E-1,4.764865041E-1,-3.845848739E-1
3.697116248E0,-3.459396958E-1,4.196760356E-1,-3.693132401E-1
3.699115981E0,-3.386093080E-1,3.805806637E-1,-3.711458445E-1
3.701116081E0,-3.098986447E-1,3.164397776E-1,-3.546524644E-1
3.703115814E0,-2.482012659E-1,2.296969444E-1,-3.082267046E-1
3.705115514E0,-2.482012659E-1,2.296969444E-1,-3.082267046E-1
3.707115247E0,-2.042189687E-1,1.747190654E-1,-2.727965415E-1
3.709114980E0,-1.785626411E-1,1.570039690E-1,-2.563031614E-1
3.711114713E0,-1.193087026E-1,1.374562830E-1,-2.251490504E-1
3.713114446E0,-6.005477160E-2,1.069130227E-1,-1.842210740E-1
3.715114246E0,-2.890064567E-2,8.125668019E-2,-1.628407836E-1
3.717114046E0,3.035328351E-2,3.116573393E-2,-1.310757995E-1
3.719113779E0,8.105509728E-2,-1.403829362E-2,-1.011434048E-1
3.721113512E0,1.061005741E-1,-4.091636837E-2,-8.831523359E-2
3.723113178E0,1.629110426E-1,-7.756828517E-2,-5.838283524E-2
3.725113844E0,1.830696017E-1,-9.528337419E-2,-4.311120138E-2
3.727113577E0,2.197215110E-1,-1.392656714E-1,-1.501140185E-2
3.729113310E0,2.520973682E-1,-1.869131625E-1,5.758015439E-3
3.731113110E0,2.661472857E-1,-2.101260424E-1,1.553185936E-2
3.733112610E0,2.918036282E-1,-2.376149744E-1,4.363166168E-2
3.735112343E0,3.046317697E-1,-2.742668688E-1,6.562281400E-2
3.737112076E0,3.046317697E-1,-2.834298611E-1,7.845097780E-2
3.739112509E0,3.027991951E-1,-2.944254577E-1,9.677693993E-2
3.741112242E0,2.930253148E-1,-2.944254577E-1,1.083833799E-1
3.743111975E0,2.582060099E-1,-2.950363159E-1,1.303745210E-1
3.745111775E0,2.453778535E-1,-2.907602489E-1,1.377049088E-1
3.747111575E0,2.288844883E-1,-2.797646821E-1,1.401483715E-1
3.749111041E0,1.977303624E-1,-2.534974813E-1,1.468678862E-1
3.751110774E0,1.665762365E-1,-2.229542136E-1,1.505330801E-1
3.753110507E0,1.500828713E-1,-1.966869980E-1,1.541982740E-1
3.755110240E0,1.122092307E-1,-1.624785513E-1,1.609177887E-1
3.757109973E0,7.128125429E-2,-1.184962541E-1,1.651938409E-1
3.759109706E0,5.112269893E-2,-9.711596370E-2,1.651938409E-1
3.761109439E0,1.080559567E-2,-5.496626720E-2,1.633612514E-1
3.763109239E0,-3.073324263E-2,1.233336981E-3,1.548091471E-1
3.765109905E0,-5.028092861E-2,1.100718137E-2,1.517548114E-1
3.767109638E0,-8.815456927E-2,6.170899421E-2,1.401483715E-1
3.769109371E0,-1.058696657E-1,7.514803112E-2,1.370940357E-1
3.771109104E0,-1.412998438E-1,1.117999479E-1,1.236550063E-1
3.773109604E0,-1.700105071E-1,1.472301334E-1,1.059399173E-1
3.775109337E0,-1.816169620E-1,1.588365585E-1,9.738780558E-2
3.777109070E0,-1.999429166E-1,1.728864759E-1,7.661838830E-2
3.779108870E0,-2.060515583E-1,1.692212820E-1,6.562281400E-2
3.781108603E0,-2.188797295E-1,1.545605212E-1,4.607512429E-2
3.783108403E0,-2.274318486E-1,1.246281117E-1,1.492099464E-2
3.785107736E0,-2.274318486E-1,1.246281117E-1,1.492099464E-2
3.787107469E0,-2.335404903E-1,1.026369706E-1,-4.626693204E-3
3.789107869E0,-2.390382886E-1,8.125668019E-2,-1.684399880E-2
3.791107602E0,-2.402600199E-1,6.903938204E-2,-2.417438105E-2
3.793107402E0,-2.445360720E-1,5.560034513E-2,-3.700255230E-2
3.795107202E0,-2.420926243E-1,4.582649842E-2,-4.921985790E-2
3.797106935E0,-2.439252138E-1,4.155044258E-2,-5.410677567E-2
3.799105968E0,-2.445360720E-1,3.483092412E-2,-6.143715978E-2
3.801105701E0,-2.414817512E-1,3.422005847E-2,-6.449148804E-2
3.803105434E0,-2.359839678E-1,3.483092412E-2,-6.876754761E-2
3.805105367E0,-2.353730947E-1,3.910698369E-2,-6.876754761E-2
3.807105100E0,-2.323187739E-1,3.849611804E-2,-6.815667450E-2
3.809104900E0,-2.243775129E-1,4.582649842E-2,-7.243274152E-2
3.811104633E0,-2.176579982E-1,4.460477084E-2,-7.854139060E-2
3.813104366E0,-2.139928192E-1,4.521563277E-2,-8.220658451E-2
3.815104099E0,-2.072733045E-1,3.360919654E-2,-8.709349483E-2
3.817103832E0,-2.066624314E-1,2.933313698E-2,-9.014783055E-2
3.819103565E0,-1.956668496E-1,1.650496945E-2,-9.503474832E-2
3.821103298E0,-1.889473349E-1,1.222891174E-2,-9.320215881E-2
3.823103031E0,-1.828386784E-1,-4.264450166E-3,-9.198042005E-2
3.825103231E0,-1.785626411E-1,-5.486181006E-3,-9.136956185E-2
3.827102964E0,-1.669561863E-1,-2.136867680E-2,-9.014783055E-2
3.829102697E0,-1.632910073E-1,-2.992079034E-2,-8.770436794E-2
3.831102430E0,-1.541280150E-1,-3.602944314E-2,-8.403917402E-2
3.833100963E0,-1.571823359E-1,-4.274896160E-2,-8.465003967E-2
3.835100696E0,-1.486302316E-1,-4.763588309E-2,-8.159571141E-2
3.837100429E0,-1.467976421E-1,-6.718356907E-2,-8.342830837E-2
3.839100162E0,-1.504628360E-1,-7.084876299E-2,-8.281744272E-2
3.841099962E0,-1.498519629E-1,-7.879000902E-2,-8.892609179E-2
3.843099695E0,-1.626801342E-1,-8.734212816E-2,-9.442388266E-2
3.845100095E0,-1.626801342E-1,-8.734212816E-2,-9.442388266E-2
3.847099828E0,-1.767300367E-1,-8.428779244E-2,-1.011434048E-1
3.849098894E0,-1.883364767E-1,-7.879000902E-2,-1.121389791E-1
3.851098627E0,-2.011646479E-1,-7.023789734E-2,-1.158041656E-1
3.853098360E0,-2.219340652E-1,-6.168578193E-2,-1.310757995E-1
3.855098093E0,-2.341513634E-1,-5.069020763E-2,-1.322975308E-1
3.857097893E0,-2.555316389E-1,-2.992079034E-2,-1.481800228E-1
3.859097626E0,-2.842423022E-1,-1.820989302E-3,-1.640625149E-1
3.861097359E0,-2.964596152E-1,7.341989316E-3,-1.750580966E-1
3.863097092E0,-3.520483673E-1,5.315688252E-2,-2.080448121E-1
3.865096492E0,-3.673199713E-1,6.537418813E-2,-2.196512669E-1
3.867095792E0,-3.911437392E-1,8.553273976E-2,-2.337011546E-1
3.869095525E0,-4.277956486E-1,1.203520596E-1,-2.666878998E-1
3.871095325E0,-4.516193867E-1,1.392888725E-1,-2.819595039E-1
3.873094691E0,-4.876604378E-1,1.838820428E-1,-3.277744055E-1
3.875094424E0,-5.353079438E-1,2.278643548E-1,-3.809196651E-1
3.877094157E0,-5.572990775E-1,2.449685633E-1,-4.053543210E-1
3.879093590E0,-5.963944793E-1,2.828422189E-1,-4.652190804E-1
3.881093323E0,-6.385442019E-1,3.176615238E-1,-5.189751983E-1
3.883093056E0,-6.715309024E-1,3.488156796E-1,-5.690661669E-1
3.885092389E0,-6.819155812E-1,3.616438210E-1,-5.910573006E-1
3.887092189E0,-7.106263041E-1,3.744720221E-1,-6.332070231E-1
3.889091989E0,-7.265087366E-1,3.756937385E-1,-6.472569704E-1
3.891091755E0,-7.289522290E-1,3.732502759E-1,-6.668046117E-1
3.893091955E0,-7.295631170E-1,3.616438210E-1,-6.753567457E-1
3.895091721E0,-7.173457742E-1,3.439287543E-1,-6.686372161E-1
3.897091487E0,-6.990198493E-1,3.182724118E-1,-6.545873284E-1
3.899091253E0,-6.751960516E-1,2.926160693E-1,-6.387048364E-1
3.901091019E0,-6.080009341E-1,2.290860713E-1,-5.922790766E-1
3.903090852E0,-4.357368946E-1,8.614360541E-2,-4.786581099E-1
3.905090352E0,-4.357368946E-1,8.614360541E-2,-4.786581099E-1
3.907090118E0,-2.934052944E-1,-1.648175344E-2,-3.864174783E-1
3.909089884E0,-2.103276253E-1,-6.229665130E-2,-3.296069801E-1
3.911089650E0,-7.043948025E-2,-1.349896044E-1,-2.367554903E-1
3.913089316E0,3.401847556E-2,-1.826370955E-1,-1.658951044E-1
3.915089082E0,7.983336598E-2,-1.924109459E-1,-1.426822394E-1
3.917088848E0,1.018245146E-1,-1.997413337E-1,-1.316866577E-1
3.919088681E0,8.655288815E-2,-1.856914163E-1,-1.408496350E-1
3.921088447E0,7.861164212E-2,-1.863022894E-1,-1.451257020E-1
3.923088213E0,2.180116996E-2,-1.600350887E-1,-1.518452168E-1
3.925088879E0,2.180116996E-2,-1.600350887E-1,-1.518452168E-1
3.927089079E0,-9.963823482E-3,-1.239940450E-1,-1.487908959E-1
3.929088845E0,-2.401372418E-2,-1.032246202E-1,-1.426822394E-1
3.931088611E0,-2.340285853E-2,-8.123347163E-2,-1.335192621E-1
3.933088477E0,-2.401372418E-2,-5.618799478E-2,-1.261888742E-1
3.935088310E0,-2.340285853E-2,-3.725117445E-2,-1.158041656E-1
3.937088076E0,-1.912680268E-2,-3.053165600E-2,-1.145824343E-1
3.939088142E0,-2.279199474E-2,-2.442300506E-2,-1.072520539E-1
3.941087908E0,-2.157026343E-2,-1.953608170E-2,-1.072520539E-1
3.943087674E0,-2.706805058E-2,-1.281656325E-2,-1.011434048E-1
3.945087240E0,-2.706805058E-2,-1.281656325E-2,-1.011434048E-1
3.947087006E0,-2.890064567E-2,-7.318776567E-3,-9.503474832E-2
3.949086772E0,-3.256583959E-2,-5.992587539E-4,-9.320215881E-2
3.951086572E0,-2.951151133E-2,7.952854969E-3,-8.648263663E-2
3.953086305E0,-2.584631927E-2,1.161804609E-2,-8.281744272E-2
3.955086038E0,-2.340285853E-2,1.589410380E-2,-7.854139060E-2
3.957085771E0,-1.729420573E-2,1.894842833E-2,-6.998927146E-2
3.959085504E0,-1.607247628E-2,2.017015964E-2,-6.632408500E-2
3.961085237E0,-8.742092177E-3,1.650496945E-2,-6.082629785E-2
3.963084903E0,1.031751395E-3,2.200275660E-2,-5.471764505E-2
