"Time (s)","Gyroscope x (rad/s)","Gyroscope y (rad/s)","Gyroscope z (rad/s)"
4.355688000E-3,-3.036523759E-1,5.839871615E-2,3.636742532E-1
6.341625000E-3,-3.222750425E-1,-4.921828397E-3,3.791204095E-1
8.341625000E-3,-3.382622600E-1,-6.827727705E-2,3.950901926E-1
1.034162500E-2,-3.483851850E-1,-1.273741275E-1,4.121246040E-1
1.234787500E-2,-3.531673849E-1,-1.811477244E-1,4.296826124E-1
1.434162500E-2,-3.505144715E-1,-2.274513096E-1,4.467170238E-1
1.634162500E-2,-3.398505151E-1,-2.663023472E-1,4.632278383E-1
1.834162500E-2,-3.244217932E-1,-2.955889702E-1,4.786565602E-1
2.095725000E-2,-2.876826227E-1,-3.211231232E-1,4.983613193E-1
2.253068800E-2,-2.727774978E-1,-3.248581290E-1,5.047492385E-1
2.434006300E-2,-2.397733331E-1,-3.243345320E-1,5.137900114E-1
2.634006300E-2,-2.025279999E-1,-3.126233816E-1,5.191133022E-1
2.834162500E-2,-1.631184667E-1,-2.907893062E-1,5.201779008E-1
3.034162500E-2,-1.221381426E-1,-2.625847757E-1,5.185896754E-1
3.234162500E-2,-7.794640213E-2,-2.263692021E-1,5.137900114E-1
3.434162500E-2,-3.269001842E-2,-1.869771183E-1,5.036845803E-1
3.634162500E-2,1.307251584E-2,-1.449321359E-1,4.898441136E-1
3.834162500E-2,6.044075266E-2,-1.023461074E-1,4.738743305E-1
4.092287500E-2,1.312313080E-1,-4.005530477E-2,4.467170238E-1
4.236506300E-2,1.551946700E-1,-2.036799304E-2,4.366115630E-1
4.435100000E-2,2.015157193E-1,1.954768784E-2,4.153185487E-1
4.634162500E-2,2.446253449E-1,5.946336687E-2,3.924198151E-1
4.834006300E-2,2.856231332E-1,1.025904566E-1,3.679328561E-1
5.034006300E-2,3.239330947E-1,1.488940418E-1,3.429223001E-1
5.234006300E-2,3.596076369E-1,1.898918152E-1,3.173706830E-1
5.434162500E-2,3.931528628E-1,2.197020501E-1,2.907544076E-1
5.634006300E-2,4.240102768E-1,2.367364615E-1,2.646617293E-1
5.834006300E-2,4.538379610E-1,2.399304062E-1,2.412394136E-1
6.092600000E-2,4.958829582E-1,2.255488932E-1,2.151641846E-1
6.236662500E-2,5.107880831E-1,2.180963457E-1,2.087762803E-1
6.434006300E-2,5.411219001E-1,2.005208731E-1,2.007826716E-1
6.634162500E-2,5.741260648E-1,1.802925169E-1,1.975887269E-1
6.834162500E-2,6.087359190E-1,1.579348445E-1,1.975887269E-1
7.034162500E-2,6.443930268E-1,1.318596303E-1,1.997180283E-1
7.234162500E-2,6.800675392E-1,1.009847522E-1,2.050412744E-1
7.434162500E-2,7.173303366E-1,6.585127115E-2,2.124938369E-1
7.634006300E-2,7.551341653E-1,2.752384171E-2,2.220756859E-1
7.834162500E-2,7.939851880E-1,-1.398008689E-2,2.316575497E-1
8.092287500E-2,8.546702862E-1,-8.477064222E-2,2.444333583E-1
8.236506300E-2,8.759632707E-1,-1.113869101E-1,2.471037209E-1
8.441662500E-2,9.195965528E-1,-1.715484113E-1,2.486919612E-1
8.634162500E-2,9.648354650E-1,-2.380978167E-1,2.449744195E-1
8.834162500E-2,1.009568214E0,-3.094294071E-1,2.343278974E-1
9.034162500E-2,1.048419237E0,-3.802199662E-1,2.183581442E-1
9.234162500E-2,1.076100230E0,-4.462457895E-1,1.954594254E-1
9.434162500E-2,1.088352442E0,-5.053251982E-1,1.672548950E-1
9.634162500E-2,1.079835176E0,-5.516287684E-1,1.363800317E-1
9.834162500E-2,1.055365682E0,-5.856975913E-1,1.038994491E-1
1.009228750E-1,1.015432596E0,-6.085788608E-1,7.302457839E-2
1.026900630E-1,9.632646441E-1,-6.224192977E-1,4.269075394E-2
1.043400630E-1,9.079028368E-1,-6.266779304E-1,1.233947743E-2
1.063416250E-1,8.551938534E-1,-6.224367619E-1,-1.371828746E-2
1.083416250E-1,8.104785681E-1,-6.155078411E-1,-3.555235639E-2
1.103416250E-1,7.737568021E-1,-6.080378294E-1,-5.365142226E-2
1.123416250E-1,7.476641536E-1,-6.006026864E-1,-6.642723083E-2
1.143416250E-1,7.295650840E-1,-5.926091075E-1,-7.600908726E-2
1.163416250E-1,7.173303366E-1,-5.835682750E-1,-8.398524672E-2
1.183416250E-1,7.082895041E-1,-5.734453797E-1,-9.197884798E-2
1.209228750E-1,7.013431191E-1,-5.590813160E-1,-9.889035672E-2
1.223650630E-1,6.949551702E-1,-5.393940210E-1,-1.031489596E-1
1.244166250E-1,6.901729703E-1,-5.143659711E-1,-1.074075624E-1
1.263416250E-1,6.848497391E-1,-4.872260988E-1,-1.116661653E-1
1.283416250E-1,6.811147332E-1,-4.563512504E-1,-1.137954667E-1
1.303416250E-1,6.816557646E-1,-4.206767082E-1,-1.106015146E-1
1.323416250E-1,6.880437136E-1,-3.759613633E-1,-9.889035672E-2
1.343416250E-1,7.008194923E-1,-3.195348680E-1,-7.920303941E-2
1.363416250E-1,7.194421887E-1,-2.540675700E-1,-5.630432069E-2
1.383416250E-1,7.412588000E-1,-1.854063272E-1,-3.661700711E-2
1.409228750E-1,7.625343204E-1,-1.204626262E-1,-2.330014482E-2
1.423650630E-1,7.801098228E-1,-6.510078162E-2,-2.064724453E-2
1.443416250E-1,7.881034017E-1,-2.677335031E-2,-2.755874954E-2
1.463416250E-1,7.865151763E-1,-6.527531426E-3,-4.139921069E-2
1.483416250E-1,7.764096856E-1,1.431170036E-3,-5.791002512E-2
1.503416250E-1,7.615220547E-1,3.839724232E-4,-7.120943069E-2
1.523400630E-1,7.434055209E-1,-1.078613475E-2,-8.239699155E-2
1.543416250E-1,7.247828841E-1,-3.368485346E-2,-8.878489584E-2
1.563416250E-1,7.039960027E-1,-6.455972791E-2,-9.463175386E-2
1.583416250E-1,6.827029586E-1,-1.023635566E-1,-9.995500743E-2
1.609260000E-1,6.619510055E-1,-1.444085389E-1,-1.052782610E-1
1.624416250E-1,6.395933628E-1,-1.811477244E-1,-1.127308160E-1
1.643416250E-1,6.124360561E-1,-2.003114372E-1,-1.217890754E-1
1.663416250E-1,5.826432705E-1,-1.987057328E-1,-1.318945289E-1
1.683416250E-1,5.538976789E-1,-1.811302751E-1,-1.420174390E-1
1.703416250E-1,5.304753780E-1,-1.507789940E-1,-1.515993029E-1
1.723416250E-1,5.145056248E-1,-1.145983189E-1,-1.606401056E-1
1.743416250E-1,5.081176758E-1,-7.466518879E-2,-1.680926532E-1
1.763416250E-1,5.128999352E-1,-3.368485346E-2,-1.744805574E-1
1.783478750E-1,5.267403722E-1,4.625122529E-3,-1.782155633E-1
1.809244380E-1,5.496391058E-1,4.029965401E-2,-1.808684766E-1
1.829963130E-1,5.794492960E-1,7.543312758E-2,-1.814095229E-1
1.843572500E-1,6.129945517E-1,1.073726565E-1,-1.803448647E-1
1.863416250E-1,6.486515999E-1,1.403768361E-1,-1.787391752E-1
1.883431880E-1,6.848497391E-1,1.765575111E-1,-1.760862619E-1
1.903416250E-1,7.215714455E-1,2.180788964E-1,-1.718276590E-1
1.923400630E-1,7.572285533E-1,2.638588846E-1,-1.659633517E-1
1.943400630E-1,7.907737494E-1,3.096388578E-1,-1.595754474E-1
1.963416250E-1,8.248425722E-1,3.522248864E-1,-1.537286043E-1
1.983416250E-1,8.594350219E-1,3.916169703E-1,-1.505346447E-1
2.009650630E-1,8.961741924E-1,4.294207990E-1,-1.489289403E-1
2.023603750E-1,9.323548675E-1,4.661425352E-1,-1.494700015E-1
2.043416250E-1,9.674883485E-1,4.996702969E-1,-1.521228999E-1
2.063416250E-1,9.994453192E-1,5.316272974E-1,-1.558579057E-1
2.083416250E-1,1.026061654E0,5.593082309E-1,-1.574461460E-1
2.103416250E-1,1.046289921E0,5.806012154E-1,-1.563815027E-1
2.123525630E-1,1.058524728E0,5.981592536E-1,-1.537286043E-1
2.143416250E-1,1.068647623E0,6.178640127E-1,-1.526639462E-1
2.163416250E-1,1.077164888E0,6.402216554E-1,-1.537286043E-1
2.183416250E-1,1.084617376E0,6.620382667E-1,-1.563815027E-1
2.209510000E-1,1.092069983E0,6.822666526E-1,-1.606401056E-1
2.223760000E-1,1.099522471E0,7.003657222E-1,-1.659633517E-1
2.243416250E-1,1.105910420E0,7.168765068E-1,-1.739569604E-1
2.263416250E-1,1.111233711E0,7.312405705E-1,-1.819331199E-1
2.283478750E-1,1.116015911E0,7.440164089E-1,-1.883210242E-1
2.306791250E-1,1.119209886E0,7.535982728E-1,-1.936442852E-1
2.323588130E-1,1.120815516E0,7.599861622E-1,-1.989675313E-1
2.343416250E-1,1.123485923E0,7.653268576E-1,-2.048318386E-1
2.363463130E-1,1.125615239E0,7.685208321E-1,-2.106786966E-1
2.383416250E-1,1.126138806E0,7.711737156E-1,-2.154783458E-1
2.409213130E-1,1.125074148E0,7.711737156E-1,-2.208016068E-1
2.423681880E-1,1.123485923E0,7.701090574E-1,-2.255838066E-1
2.443416250E-1,1.122421265E0,7.701090574E-1,-2.277131081E-1
2.463416250E-1,1.118162632E0,7.674561739E-1,-2.319717109E-1
2.483416250E-1,1.112315774E0,7.642621994E-1,-2.362303138E-1
2.503416250E-1,1.105386853E0,7.616093159E-1,-2.410299629E-1
2.523416250E-1,1.096346021E0,7.578743100E-1,-2.458121777E-1
2.543541250E-1,1.086746693E0,7.530746460E-1,-2.495471686E-1
2.563416250E-1,1.075035572E0,7.477514148E-1,-2.538057864E-1
2.583416250E-1,1.061736107E0,7.418870926E-1,-2.580643892E-1
2.609244380E-1,1.040425658E0,7.306995392E-1,-2.644522786E-1
2.628228750E-1,1.025503159E0,7.221823335E-1,-2.676462531E-1
2.643744380E-1,1.016985893E0,7.189883590E-1,-2.697755396E-1
2.663400630E-1,9.994279146E-1,7.136651278E-1,-2.729694843E-1
2.683416250E-1,9.823934436E-1,7.067536116E-1,-2.745577395E-1
2.703416250E-1,9.653590322E-1,6.998246908E-1,-2.766870558E-1
2.723447500E-1,9.472600222E-1,6.918485165E-1,-2.793574035E-1
2.743416250E-1,9.307666421E-1,6.833313107E-1,-2.814866900E-1
2.763416250E-1,9.126675725E-1,6.737494469E-1,-2.830749452E-1
2.783416250E-1,8.935038447E-1,6.641675830E-1,-2.852042615E-1
2.809572500E-1,8.647582531E-1,6.503271461E-1,-2.846806645E-1
2.823588130E-1,8.541117907E-1,6.450038552E-1,-2.841396034E-1
2.843416250E-1,8.312305212E-1,6.338337660E-1,-2.825513482E-1
2.863416250E-1,8.072671294E-1,6.221225858E-1,-2.804220617E-1
2.883416250E-1,7.833212018E-1,6.109350324E-1,-2.798810005E-1
2.903416250E-1,7.588342428E-1,5.992239118E-1,-2.788163424E-1
2.923416250E-1,7.316769361E-1,5.859245062E-1,-2.793574035E-1
2.943416250E-1,7.039960027E-1,5.715429783E-1,-2.798810005E-1
2.963416250E-1,6.768386960E-1,5.587671399E-1,-2.793574035E-1
2.983416250E-1,6.491577625E-1,5.470560193E-1,-2.788163424E-1
3.009635000E-1,6.065717340E-1,5.316098332E-1,-2.761634588E-1
3.023650630E-1,5.927312374E-1,5.262866020E-1,-2.750988007E-1
3.043416250E-1,5.634620786E-1,5.140517950E-1,-2.724284530E-1
3.063416250E-1,5.341929197E-1,5.034053326E-1,-2.697755396E-1
3.083416250E-1,5.043826699E-1,4.927588105E-1,-2.681698501E-1
3.103416250E-1,4.756371379E-1,4.842416048E-1,-2.655169368E-1
3.123431880E-1,4.463505149E-1,4.783947468E-1,-2.623229921E-1
3.143416250E-1,4.186870456E-1,4.720068276E-1,-2.585879862E-1
3.163541250E-1,3.915297091E-1,4.666835964E-1,-2.548704445E-1
3.183416250E-1,3.654195964E-1,4.629485905E-1,-2.511354387E-1
3.209447500E-1,3.303035498E-1,4.576253295E-1,-2.468768209E-1
3.223478750E-1,3.185923994E-1,4.565606713E-1,-2.452885658E-1
3.244103750E-1,2.967583239E-1,4.533667266E-1,-2.426182181E-1
3.263416250E-1,2.749417126E-1,4.480434656E-1,-2.399653196E-1
3.283416250E-1,2.531251013E-1,4.411319792E-1,-2.362303138E-1
3.303681880E-1,2.307499796E-1,4.352676570E-1,-2.325127572E-1
3.323416250E-1,2.083923072E-1,4.283387065E-1,-2.298424095E-1
3.343416250E-1,1.854935884E-1,4.219507873E-1,-2.271895111E-1
3.363416250E-1,1.626123190E-1,4.187568426E-1,-2.255838066E-1
3.383416250E-1,1.391900033E-1,4.171685874E-1,-2.250602096E-1
3.410603750E-1,1.014036313E-1,4.145157039E-1,-2.229309082E-1
3.428306880E-1,7.585200667E-2,4.134510458E-1,-2.218662500E-1
3.443822500E-1,6.359979510E-2,4.129099846E-1,-2.218662500E-1
3.463416250E-1,3.965387866E-2,4.118453562E-1,-2.234545052E-1
3.483416250E-1,1.834340952E-2,4.118278921E-1,-2.245191485E-1
3.503416250E-1,-2.391101094E-3,4.096985757E-1,-2.261248529E-1
3.523416250E-1,-2.157226950E-2,4.054399729E-1,-2.293188125E-1
3.543463130E-1,-3.967133537E-2,3.990520835E-1,-2.330363542E-1
3.563416250E-1,-5.564109609E-2,3.915995359E-1,-2.362303138E-1
3.583416250E-1,-7.054620981E-2,3.836059272E-1,-2.399653196E-1
3.609260000E-1,-8.970992267E-2,3.660478890E-1,-2.442239225E-1
3.623400630E-1,-9.555677325E-2,3.602010608E-1,-2.458121777E-1
3.643853750E-1,-1.056622341E-1,3.469016552E-1,-2.484825253E-1
3.663416250E-1,-1.136383861E-1,3.325375915E-1,-2.500707805E-1
3.683416250E-1,-1.205498874E-1,3.170914054E-1,-2.511354387E-1
3.703416250E-1,-1.269377917E-1,3.005980551E-1,-2.516764700E-1
3.723416250E-1,-1.317374557E-1,2.862165570E-1,-2.511354387E-1
3.743416250E-1,-1.354724616E-1,2.723760903E-1,-2.495471686E-1
3.763416250E-1,-1.381253600E-1,2.601413131E-1,-2.463532239E-1
3.781666250E-1,-1.402546614E-1,2.484127134E-1,-2.415535748E-1
3.810713130E-1,-1.434660703E-1,2.329665422E-1,-2.335774153E-1
3.823463130E-1,-1.445307136E-1,2.287079394E-1,-2.303834558E-1
3.841650630E-1,-1.461189687E-1,2.212728411E-1,-2.234545052E-1
3.863416250E-1,-1.482482702E-1,2.148849368E-1,-2.160019428E-1
3.883416250E-1,-1.509011686E-1,2.116909772E-1,-2.080257982E-1
3.903416250E-1,-1.540951133E-1,2.069087774E-1,-1.995085925E-1
3.923416250E-1,-1.572890729E-1,2.021091282E-1,-1.899267286E-1
3.943416250E-1,-1.610240787E-1,1.983741224E-1,-1.803448647E-1
3.963416250E-1,-1.663298756E-1,1.946565658E-1,-1.712866127E-1
3.983416250E-1,-1.711295396E-1,1.903979629E-1,-1.622458100E-1
4.009244380E-1,-1.780584902E-1,1.781457514E-1,-1.489289403E-1
4.023666250E-1,-1.796641946E-1,1.728225052E-1,-1.441467404E-1
4.044150630E-1,-1.839227974E-1,1.600466967E-1,-1.356295347E-1
4.063416250E-1,-1.871167421E-1,1.446005255E-1,-1.260476708E-1
4.083416250E-1,-1.876403540E-1,1.265014708E-1,-1.175304726E-1
4.103416250E-1,-1.881814003E-1,1.078788042E-1,-1.095368639E-1
4.123416250E-1,-1.865582466E-1,8.766788989E-2,-1.010196581E-1
4.143478750E-1,-1.828406900E-1,6.848672032E-2,-9.356710315E-2
4.163416250E-1,-1.785646379E-1,4.721115530E-2,-8.559094369E-2
4.183416250E-1,-1.743234843E-1,2.111848444E-2,-7.759733498E-2
4.209244380E-1,-1.679355800E-1,-2.251474746E-2,-6.642723083E-2
4.228213130E-1,-1.626123190E-1,-5.393067375E-2,-5.897467583E-2
4.243650630E-1,-1.599594206E-1,-7.096508890E-2,-5.523966998E-2
4.263416250E-1,-1.535715163E-1,-1.060985625E-1,-4.885176569E-2
4.283463130E-1,-1.450543106E-1,-1.428377479E-1,-4.300491139E-2
4.303416250E-1,-1.360135078E-1,-1.784948260E-1,-3.714060783E-2
4.323416250E-1,-1.264316440E-1,-2.146929502E-1,-3.181735054E-2
4.343416250E-1,-1.152440906E-1,-2.498264313E-1,-2.755874954E-2
4.363416250E-1,-1.019272283E-1,-2.812249064E-1,-2.490584925E-2
4.383478750E-1,-8.702211827E-2,-3.094294071E-1,-2.223549411E-2
4.409228750E-1,-6.147049740E-2,-3.456275463E-1,-1.958259381E-2
4.423681880E-1,-5.136504024E-2,-3.562915027E-1,-1.958259381E-2
4.443431880E-1,-2.900737152E-2,-3.759788275E-1,-1.904154196E-2
4.463603750E-1,-5.602506921E-3,-3.935717344E-1,-1.904154196E-2
4.483416250E-1,1.993165910E-2,-4.090004563E-1,-1.958259381E-2
4.503416250E-1,4.710643739E-2,-4.212352037E-1,-2.117084339E-2
4.523416250E-1,7.370525599E-2,-4.297524095E-1,-2.171189524E-2
4.543556880E-1,9.925687313E-2,-4.350756705E-1,-2.384119667E-2
4.563416250E-1,1.232202426E-1,-4.361403286E-1,-2.649409883E-2
4.583416250E-1,1.445132643E-1,-4.329463840E-1,-2.862340026E-2
4.609431880E-1,1.721941829E-1,-4.196295142E-1,-3.129375353E-2
4.624010000E-1,1.796467453E-1,-4.132590592E-1,-3.181735054E-2
4.643400630E-1,1.913404465E-1,-3.988775313E-1,-3.342305496E-2
4.663416250E-1,1.998751014E-1,-3.818431199E-1,-3.448770568E-2
4.683416250E-1,2.057219595E-1,-3.632030189E-1,-3.555235639E-2
4.703463130E-1,2.089159042E-1,-3.424510658E-1,-3.607595712E-2
4.723416250E-1,2.094569653E-1,-3.232873380E-1,-3.714060783E-2
4.743416250E-1,2.083923072E-1,-3.046646714E-1,-3.874630854E-2
4.763416250E-1,2.041162550E-1,-2.892185152E-1,-3.926990926E-2
4.783525630E-1,1.993340552E-1,-2.801602483E-1,-3.981095925E-2
4.809244380E-1,1.934871972E-1,-2.764427066E-1,-4.194026068E-2
4.823666250E-1,1.854935884E-1,-2.790955901E-1,-4.406956211E-2
4.843400630E-1,1.764527857E-1,-2.881538570E-1,-4.619886354E-2
4.863416250E-1,1.679355800E-1,-3.030589819E-1,-4.991641641E-2
4.883416250E-1,1.588773280E-1,-3.216816187E-1,-5.311036855E-2
4.903416250E-1,1.498190612E-1,-3.413864076E-1,-5.523966998E-2
4.923416250E-1,1.423839629E-1,-3.600265086E-1,-5.630432069E-2
4.943619380E-1,1.365196556E-1,-3.770609200E-1,-5.523966998E-2
4.963416250E-1,1.333431602E-1,-3.908839524E-1,-5.258677155E-2
4.983416250E-1,1.365371048E-1,-3.983364999E-1,-4.885176569E-2
5.009228750E-1,1.429250091E-1,-4.052654505E-1,-4.300491139E-2
5.028275630E-1,1.455779076E-1,-4.191059172E-1,-3.448770568E-2
5.043510000E-1,1.498365104E-1,-4.324227870E-1,-2.384119667E-2
5.063416250E-1,1.551597714E-1,-4.430692792E-1,-1.425934024E-2
5.083416250E-1,1.642180234E-1,-4.515690506E-1,-5.201081280E-3
5.103416250E-1,1.775174439E-1,-4.568922818E-1,3.298672382E-3
5.123494380E-1,1.956164986E-1,-4.590390325E-1,1.181587856E-2
5.143416250E-1,2.185152173E-1,-4.574333429E-1,1.979203336E-2
5.163416250E-1,2.461786866E-1,-4.499807954E-1,2.672099136E-2
5.183416250E-1,2.791828513E-1,-4.366813898E-1,3.204424679E-2
5.209478750E-1,3.175103068E-1,-4.153883457E-1,3.469714522E-2
5.223760000E-1,3.627492189E-1,-3.813195229E-1,3.630284965E-2
5.243416250E-1,4.106759727E-1,-3.318045437E-1,3.736750036E-2
5.263416250E-1,4.596499205E-1,-2.679255009E-1,3.789109737E-2
5.283541250E-1,5.049062967E-1,-1.896649301E-1,3.789109737E-2
5.303416250E-1,5.410869718E-1,-1.002517119E-1,3.843215108E-2
5.323416250E-1,5.645092726E-1,-9.756390937E-3,3.843215108E-2
5.343416250E-1,5.740911365E-1,7.752752304E-2,3.630284965E-2
5.363525630E-1,5.703735948E-1,1.547234356E-1,3.150319308E-2
5.383416250E-1,5.575978160E-1,2.180788964E-1,2.459168993E-2
5.409244380E-1,5.363047719E-1,2.611885071E-1,1.659808122E-2
5.423650630E-1,5.091649294E-1,2.824815512E-1,9.145525284E-3
5.443494380E-1,4.777489603E-1,2.792875767E-1,1.169370604E-3
5.463416250E-1,4.415508509E-1,2.553416789E-1,-6.806783844E-3
5.483416250E-1,4.021587670E-1,2.132792324E-1,-1.158898603E-2
5.503416250E-1,3.617020249E-1,1.616524011E-1,-1.638864167E-2
5.523416250E-1,3.223099411E-1,1.057494953E-1,-2.223549411E-2
5.543447500E-1,2.850297093E-1,4.984660447E-2,-2.862340026E-2
5.563416250E-1,2.530902028E-1,8.726646192E-4,-3.501130641E-2
5.583416250E-1,2.238035649E-1,-3.904301673E-2,-3.768165782E-2
5.610666250E-1,1.977458000E-1,-6.670648605E-2,-3.288200125E-2
5.624166250E-1,1.748470813E-1,-8.002334833E-2,-2.171189524E-2
5.643416250E-1,1.546187252E-1,-7.787659019E-2,-7.330382708E-3
5.663416250E-1,1.359960586E-1,-6.351253390E-2,1.021017600E-2
5.683416250E-1,1.189616397E-1,-4.380776361E-2,3.097959422E-2
5.703447500E-1,1.008625776E-1,-2.038544603E-2,5.173156038E-2
5.723416250E-1,8.061675727E-2,1.937315450E-3,7.089527696E-2
5.743416250E-1,5.773549154E-2,2.162462845E-2,8.634144068E-2
5.763416250E-1,3.111921996E-2,3.920009360E-2,9.911724925E-2
5.783463130E-1,-8.028514567E-4,5.358160660E-2,1.118930578E-1
5.809260000E-1,-3.645992652E-2,6.157521531E-2,1.251924634E-1
5.828197500E-1,-7.532840967E-2,6.209881604E-2,1.379682720E-1
5.846947500E-1,-1.157676876E-1,5.892231688E-2,1.491558403E-1
5.863463130E-1,-1.557008177E-1,5.145230517E-2,1.576730460E-1
5.883416250E-1,-1.935046464E-1,4.187044874E-2,1.656492054E-1
5.903416250E-1,-2.297202349E-1,2.853613347E-2,1.731017530E-1
5.923416250E-1,-2.616597712E-1,1.417207345E-2,1.794896573E-1
5.943416250E-1,-2.887996435E-1,3.316125658E-4,1.864186227E-1
5.963416250E-1,-3.090279996E-1,-1.455604564E-2,1.917418689E-1
5.983416250E-1,-3.244567215E-1,-3.104940802E-2,1.954594254E-1
6.009228750E-1,-3.345621526E-1,-4.914847016E-2,1.975887269E-1
6.023681880E-1,-3.382971585E-1,-6.883578748E-2,1.960004717E-1
6.044056880E-1,-3.388382196E-1,-7.789404690E-2,1.938711703E-1
6.063416250E-1,-3.361678720E-1,-9.386380762E-2,1.864186227E-1
6.083416250E-1,-3.276506662E-1,-1.050339118E-1,1.747074574E-1
6.103416250E-1,-3.148748577E-1,-1.124864668E-1,1.613906026E-1
6.123525630E-1,-2.887821794E-1,-1.289798319E-1,1.454208344E-1
6.143416250E-1,-2.802649736E-1,-1.396437883E-1,1.422268748E-1
6.163416250E-1,-2.653773129E-1,-1.667836607E-1,1.406386346E-1
6.183416250E-1,-2.509957850E-1,-1.987231821E-1,1.432915330E-1
6.209228750E-1,-2.291791886E-1,-2.514321208E-1,1.512851417E-1
6.223666250E-1,-2.222502232E-1,-2.684665322E-1,1.544790864E-1
6.244072500E-1,-2.073451132E-1,-2.993414104E-1,1.603259444E-1
6.264525630E-1,-1.871167421E-1,-3.318045437E-1,1.683195531E-1
6.283416250E-1,-1.807288378E-1,-3.381924331E-1,1.704488546E-1
6.303416250E-1,-1.674119830E-1,-3.456450105E-1,1.741664112E-1
6.323416250E-1,-1.541125774E-1,-3.456450105E-1,1.762957126E-1
6.343416250E-1,-1.418603659E-1,-3.371278048E-1,1.773603559E-1
6.363416250E-1,-1.285609454E-1,-3.190287352E-1,1.773603559E-1
6.383416250E-1,-1.136558428E-1,-2.950828075E-1,1.757721156E-1
6.409244380E-1,-9.396852553E-2,-2.524967790E-1,1.762957126E-1
6.423650630E-1,-8.916886896E-2,-2.365270257E-1,1.768367589E-1
6.443447500E-1,-8.225736767E-2,-2.040464431E-1,1.784250140E-1
6.463416250E-1,-7.904595882E-2,-1.715833247E-1,1.794896573E-1
6.483416250E-1,-8.171631396E-2,-1.401673853E-1,1.810953617E-1
6.503416250E-1,-9.182177484E-2,-1.130275205E-1,1.837482601E-1
6.523416250E-1,-1.067268848E-1,-8.587019891E-2,1.864186227E-1
6.543416250E-1,-1.253670007E-1,-5.979498103E-2,1.896125674E-1
6.563416250E-1,-1.477246732E-1,-3.478441015E-2,1.938711703E-1
6.583416250E-1,-1.722290963E-1,-1.082104165E-2,1.991944313E-1
6.609260000E-1,-2.110801190E-1,2.696533687E-2,2.098409384E-1
6.627025630E-1,-2.371727973E-1,5.091125518E-2,2.183581442E-1
6.643416250E-1,-2.494075447E-1,6.262241304E-2,2.231403440E-1
6.663416250E-1,-2.749591768E-1,8.656833321E-2,2.327222079E-1
6.683416250E-1,-2.989225388E-1,1.110552996E-1,2.433687150E-1
6.703416250E-1,-3.228684664E-1,1.355422735E-1,2.545562685E-1
6.723416250E-1,-3.430793583E-1,1.621759981E-1,2.625324130E-1
6.743416250E-1,-3.622430861E-1,1.898569167E-1,2.683967352E-1
6.763416250E-1,-3.792774975E-1,2.170142382E-1,2.721142769E-1
6.783416250E-1,-3.952647150E-1,2.441541106E-1,2.731789351E-1
6.809213130E-1,-4.165402651E-1,2.808758318E-1,2.683967352E-1
6.823666250E-1,-4.229281843E-1,2.925869823E-1,2.652027905E-1
6.844088130E-1,-4.362624884E-1,3.154682517E-1,2.588148713E-1
6.863416250E-1,-4.484972656E-1,3.367612660E-1,2.502976656E-1
6.883510000E-1,-4.591437578E-1,3.575306833E-1,2.412394136E-1
6.903416250E-1,-4.697902799E-1,3.782826662E-1,2.295282483E-1
6.923416250E-1,-4.799131751E-1,3.969227672E-1,2.199463844E-1
6.943416250E-1,-4.894950390E-1,4.134161472E-1,2.114291787E-1
6.963416250E-1,-4.980122447E-1,4.320562482E-1,2.018473297E-1
6.983416250E-1,-5.043826699E-1,4.496142566E-1,1.949358284E-1
7.009244380E-1,-5.145056248E-1,4.725129902E-1,1.880068630E-1
7.023666250E-1,-5.182231665E-1,4.799655378E-1,1.864186227E-1
7.043416250E-1,-5.251346827E-1,4.943470657E-1,1.858775616E-1
7.063431880E-1,-5.304579139E-1,5.081875324E-1,1.869422197E-1
7.083416250E-1,-5.352575779E-1,5.220105052E-1,1.896125674E-1
7.103416250E-1,-5.389925838E-1,5.321334600E-1,1.922654659E-1
7.123619380E-1,-5.421690941E-1,5.401270390E-1,1.960004717E-1
7.143416250E-1,-5.464451313E-1,5.459738970E-1,2.007826716E-1
7.163416250E-1,-5.501801372E-1,5.496914387E-1,2.050412744E-1
7.183416250E-1,-5.544387698E-1,5.502324700E-1,2.087762803E-1
7.209244380E-1,-5.725377798E-1,5.310688019E-1,2.146231383E-1
7.223869380E-1,-5.815611482E-1,5.198986530E-1,2.172934860E-1
7.243431880E-1,-6.001838446E-1,5.039288998E-1,2.231403440E-1
7.263416250E-1,-6.103067398E-1,5.012760162E-1,2.273989469E-1
7.283447500E-1,-6.108477712E-1,5.071054101E-1,2.300692946E-1
7.303416250E-1,-6.071302295E-1,5.119050741E-1,2.332632542E-1
7.323416250E-1,-6.039362550E-1,5.108404160E-1,2.380454540E-1
7.343416250E-1,-6.023480296E-1,5.049760938E-1,2.412394136E-1
7.363416250E-1,-6.018244028E-1,4.959178567E-1,2.449744195E-1
7.383525630E-1,-6.034126878E-1,4.831420481E-1,2.502976656E-1
7.409244380E-1,-6.092595458E-1,4.576078653E-1,2.566855848E-1
7.428197500E-1,-6.172356606E-1,4.304505587E-1,2.588148713E-1
7.441775630E-1,-6.225764155E-1,4.155454338E-1,2.588148713E-1
7.463463130E-1,-6.310936213E-1,3.905348778E-1,2.582738101E-1
7.483416250E-1,-6.353347301E-1,3.756297529E-1,2.572091818E-1
7.503416250E-1,-6.363993883E-1,3.671125472E-1,2.561445236E-1
7.523416250E-1,-6.326818466E-1,3.628539443E-1,2.572091818E-1
7.543603750E-1,-6.278821826E-1,3.612656891E-1,2.588148713E-1
7.563416250E-1,-6.225589514E-1,3.585953414E-1,2.593384683E-1
7.583416250E-1,-6.199060678E-1,3.548603356E-1,2.598795295E-1
7.609244380E-1,-6.188239455E-1,3.452959359E-1,2.572091818E-1
7.623666250E-1,-6.188414097E-1,3.420845270E-1,2.561445236E-1
7.643416250E-1,-6.188414097E-1,3.351730406E-1,2.513623238E-1
7.663416250E-1,-6.193649769E-1,3.293087184E-1,2.444333583E-1
7.683416250E-1,-6.193649769E-1,3.255911767E-1,2.348515093E-1
7.703416250E-1,-6.204296350E-1,3.229382634E-1,2.242050022E-1
7.723494380E-1,-6.209532619E-1,3.213325739E-1,2.119702399E-1
7.743416250E-1,-6.204296350E-1,3.213325739E-1,2.013237327E-1
7.763416250E-1,-6.204296350E-1,3.223972321E-1,1.901361644E-1
7.783416250E-1,-6.199060678E-1,3.229208291E-1,1.784250140E-1
7.809213130E-1,-6.167120934E-1,3.266383708E-1,1.608669907E-1
7.823650630E-1,-6.151238680E-1,3.277030289E-1,1.560673416E-1
7.844150630E-1,-6.114062667E-1,3.314380348E-1,1.464854777E-1
7.863416250E-1,-6.076538563E-1,3.351730406E-1,1.379682720E-1
7.883416250E-1,-6.034126878E-1,3.383669853E-1,1.305157244E-1
7.903400630E-1,-5.996602178E-1,3.415609300E-1,1.236042157E-1
7.923416250E-1,-5.959426761E-1,3.463605940E-1,1.166752577E-1
7.943416250E-1,-5.916840434E-1,3.516838551E-1,1.113520041E-1
7.963416250E-1,-5.863608122E-1,3.580542803E-1,1.076344550E-1
7.983416250E-1,-5.810375810E-1,3.655068576E-1,1.065698043E-1
8.009244380E-1,-5.736024380E-1,3.788237274E-1,1.044405028E-1
8.023681880E-1,-5.709320903E-1,3.836059272E-1,1.038994491E-1
8.043494380E-1,-5.655913949E-1,3.942698836E-1,1.028347984E-1
8.063416250E-1,-5.602681637E-1,4.038517475E-1,1.017701477E-1
8.083822500E-1,-5.538976789E-1,4.128925502E-1,1.007054970E-1
8.103416250E-1,-5.475097895E-1,4.192804396E-1,9.911724925E-2
8.123572500E-1,-5.400747061E-1,4.235216081E-1,9.698794782E-2
8.143416250E-1,-5.294107199E-1,4.235216081E-1,9.272934496E-2
8.163416250E-1,-5.177170038E-1,4.229979813E-1,8.634144068E-2
8.183416250E-1,-5.044001341E-1,4.235216081E-1,7.995353639E-2
8.209244380E-1,-4.905596972E-1,4.235216081E-1,7.621853054E-2
8.228431880E-1,-4.788485467E-1,4.224569499E-1,7.195992768E-2
8.243416250E-1,-4.682020247E-1,4.187393785E-1,6.824237108E-2
8.263416250E-1,-4.612905085E-1,4.139397442E-1,6.504841894E-2
8.283416250E-1,-4.559672773E-1,4.070282280E-1,6.344271451E-2
8.303478750E-1,-4.517086744E-1,3.985110223E-1,6.344271451E-2
8.323416250E-1,-4.485146999E-1,3.878645301E-1,6.185446680E-2
8.343416250E-1,-4.442560971E-1,3.750887215E-1,6.078981608E-2
8.363416250E-1,-4.389328659E-1,3.607071936E-1,5.972516537E-2
8.383650630E-1,-4.341332018E-1,3.431491852E-1,5.866051465E-2
8.409228750E-1,-4.293335378E-1,3.229208291E-1,5.759586394E-2
8.423635000E-1,-4.255985320E-1,3.032335043E-1,5.599016324E-2
8.443447500E-1,-4.208163321E-1,2.819404900E-1,5.492551252E-2
8.463588130E-1,-4.149520397E-1,2.617121339E-1,5.492551252E-2
8.483416250E-1,-4.091051817E-1,2.425484061E-1,5.492551252E-2
8.503416250E-1,-4.021936655E-1,2.249729335E-1,5.440191180E-2
8.523416250E-1,-3.936764598E-1,2.063328177E-1,5.386086181E-2
8.543541250E-1,-3.846181929E-1,1.871865690E-1,5.066690966E-2
8.563416250E-1,-3.744952977E-1,1.674817950E-1,4.694935679E-2
8.583416250E-1,-3.643898368E-1,1.483180821E-1,4.427900165E-2
8.609697500E-1,-3.542843759E-1,1.275661141E-1,4.108504951E-2
8.623681880E-1,-3.447025120E-1,1.067966968E-1,3.682644665E-2
8.644135000E-1,-3.345970809E-1,8.922123164E-2,3.150319308E-2
8.663416250E-1,-3.244741559E-1,7.218682021E-2,2.617993951E-2
8.683416250E-1,-3.159569502E-1,5.356415361E-2,1.979203336E-2
8.703416250E-1,-3.063750863E-1,3.600614145E-2,1.288053021E-2
8.723416250E-1,-2.973168492E-1,1.897172816E-2,7.016223390E-3
8.743416250E-1,-2.861467302E-1,5.654866807E-3,6.283185212E-4
8.763416250E-1,-2.749591768E-1,-5.497787148E-3,-5.742133129E-3
8.783416250E-1,-2.648537159E-1,-1.668534800E-2,-1.052433532E-2
8.809494380E-1,-2.552718520E-1,-2.680825815E-2,-1.532399096E-2
8.823510000E-1,-2.467720956E-1,-3.426081315E-2,-2.171189524E-2
8.844088130E-1,-2.387784868E-1,-3.958406672E-2,-2.755874954E-2
8.863416250E-1,-2.323905826E-1,-4.490732029E-2,-3.181735054E-2
8.883416250E-1,-2.275909334E-1,-4.916592315E-2,-3.607595712E-2
8.903416250E-1,-2.238733768E-1,-5.448918045E-2,-4.033455998E-2
8.923416250E-1,-2.206794322E-1,-5.820672959E-2,-4.672246426E-2
8.943416250E-1,-2.180090696E-1,-6.033603102E-2,-5.523966998E-2
8.963416250E-1,-2.164033800E-1,-6.140068173E-2,-6.269222498E-2
8.983416250E-1,-2.147976756E-1,-6.246533245E-2,-7.014477998E-2
9.009228750E-1,-2.126683742E-1,-6.246533245E-2,-7.920303941E-2
9.028197500E-1,-2.094918638E-1,-6.140068173E-2,-8.824384958E-2
9.043400630E-1,-2.068389654E-1,-6.087708473E-2,-9.782570601E-2
9.063947500E-1,-2.041511685E-1,-5.927138031E-2,-1.074075624E-1
9.083416250E-1,-1.998925656E-1,-5.766567960E-2,-1.143365204E-1
9.103416250E-1,-1.951103508E-1,-5.766567960E-2,-1.201833710E-1
9.123416250E-1,-1.903107017E-1,-5.873033032E-2,-1.255066246E-1
9.143416250E-1,-1.849874407E-1,-6.085963175E-2,-1.313709319E-1
9.163416250E-1,-1.785995364E-1,-6.244787946E-2,-1.366941929E-1
9.183416250E-1,-1.711469889E-1,-6.459463388E-2,-1.425410360E-1
9.209228750E-1,-1.647590846E-1,-6.672393531E-2,-1.473407000E-1
9.223666250E-1,-1.583711803E-1,-6.937684119E-2,-1.515993029E-1
9.244088130E-1,-1.530653685E-1,-7.098253816E-2,-1.558579057E-1
9.263416250E-1,-1.503950208E-1,-7.098253816E-2,-1.617047489E-1
9.283416250E-1,-1.503950208E-1,-6.885323673E-2,-1.675690562E-1
9.306791250E-1,-1.546536237E-1,-6.459463388E-2,-1.707630157E-1
9.323650630E-1,-1.610415280E-1,-5.981243402E-2,-1.744805574E-1
9.343416250E-1,-1.706233919E-1,-5.394812673E-2,-1.776745170E-1
9.363416250E-1,-1.807288378E-1,-4.647811875E-2,-1.808684766E-1
9.383416250E-1,-1.929636002E-1,-3.796090931E-2,-1.856681257E-1
9.409213130E-1,-2.036101073E-1,-2.837905288E-2,-1.915149838E-1
9.423666250E-1,-2.116037160E-1,-1.827359758E-2,-2.016378939E-1
9.443416250E-1,-2.179916203E-1,-7.086036727E-3,-2.149372995E-1
9.463416250E-1,-2.211855799E-1,5.131267942E-3,-2.335774153E-1
9.483510000E-1,-2.217266262E-1,1.949532703E-2,-2.522000670E-1
9.503416250E-1,-2.217440754E-1,3.279473633E-2,-2.681698501E-1
9.523416250E-1,-2.217266262E-1,4.504694790E-2,-2.809456587E-1
9.543416250E-1,-2.217266262E-1,5.836381018E-2,-2.889392674E-1
9.563619380E-1,-2.238559276E-1,7.539822161E-2,-2.931978703E-1
9.583416250E-1,-2.265262902E-1,9.402088821E-2,-2.947860956E-1
9.609260000E-1,-2.291791886E-1,1.153139025E-1,-2.942624986E-1
9.624041250E-1,-2.307848930E-1,1.392598152E-1,-2.926568091E-1
9.643697500E-1,-2.323905826E-1,1.515120268E-1,-2.915921509E-1
9.663416250E-1,-2.371727973E-1,1.759990007E-1,-2.905274928E-1
9.683416250E-1,-2.440842986E-1,1.988802701E-1,-2.915921509E-1
9.703416250E-1,-2.536835968E-1,2.196496874E-1,-2.958507538E-1
9.723431880E-1,-2.627243996E-1,2.420073599E-1,-3.033033311E-1
9.743416250E-1,-2.696533799E-1,2.664943337E-1,-3.134262264E-1
9.763416250E-1,-2.749766111E-1,2.931105793E-1,-3.267256320E-1
9.783603750E-1,-2.781531215E-1,3.202504516E-1,-3.421717882E-1
9.809244380E-1,-2.818881273E-1,3.670951128E-1,-3.639883995E-1
9.828197500E-1,-2.829527855E-1,4.006403387E-1,-3.730466664E-1
9.843416250E-1,-2.834938169E-1,4.171336889E-1,-3.756995797E-1
9.863963130E-1,-2.813645303E-1,4.687779844E-1,-3.778288662E-1
9.883494380E-1,-2.797588110E-1,4.847477376E-1,-3.756995797E-1
9.903416250E-1,-2.728473246E-1,5.145579576E-1,-3.698527217E-1
9.923416250E-1,-2.627243996E-1,5.416978598E-1,-3.629237711E-1
9.943416250E-1,-2.488839477E-1,5.667258501E-1,-3.538829684E-1
9.963619380E-1,-2.323731333E-1,5.906717777E-1,-3.437600434E-1
9.983416250E-1,-2.158797681E-1,6.109001637E-1,-3.341781795E-1
1.000922875E0,-1.929985136E-1,6.353871226E-1,-3.214023709E-1
1.002365063E0,-1.866106093E-1,6.428396702E-1,-3.176848292E-1
1.004340063E0,-1.764702350E-1,6.545682549E-1,-3.107558787E-1
1.006358813E0,-1.706233919E-1,6.630854607E-1,-3.043679595E-1
1.008340063E0,-1.690176874E-1,6.689323187E-1,-2.990446985E-1
1.010341625E0,-1.663647890E-1,6.721262932E-1,-2.974564731E-1
1.012346313E0,-1.615825742E-1,6.715852618E-1,-2.958507538E-1
1.014341625E0,-1.551772207E-1,6.689323187E-1,-2.947860956E-1
1.016341625E0,-1.461364180E-1,6.657384038E-1,-2.921332121E-1
1.018341625E0,-1.338842064E-1,6.593504548E-1,-2.878746092E-1
1.020946313E0,-1.211258471E-1,6.444453597E-1,-2.798810005E-1
1.022349438E0,-1.195375994E-1,6.396456957E-1,-2.777516842E-1
1.024407250E0,-1.211258471E-1,6.274109483E-1,-2.766870558E-1
1.026340063E0,-1.291194558E-1,6.109001637E-1,-2.766870558E-1
1.028341625E0,-1.413542181E-1,5.943893194E-1,-2.766870558E-1
1.030355688E0,-1.546710730E-1,5.757666826E-1,-2.756223977E-1
1.032340063E0,-1.685115397E-1,5.539326072E-1,-2.713637948E-1
1.034341625E0,-1.839402467E-1,5.294630527E-1,-2.660405338E-1
1.036341625E0,-2.025803626E-1,5.044350624E-1,-2.580643892E-1
1.038340063E0,-2.238559276E-1,4.772951901E-1,-2.490061224E-1
1.040922875E0,-2.568601072E-1,4.379031062E-1,-2.341010123E-1
1.042366625E0,-2.675065994E-1,4.256683588E-1,-2.287777513E-1
1.044343188E0,-2.882760167E-1,4.038342834E-1,-2.176076472E-1
1.046341625E0,-3.037222028E-1,3.867824078E-1,-2.037671953E-1
1.048354125E0,-3.159569502E-1,3.750887215E-1,-1.877974272E-1
1.050341625E0,-3.250152171E-1,3.670951128E-1,-1.702219546E-1
1.052341625E0,-3.314031065E-1,3.623129129E-1,-1.510582417E-1
1.054352563E0,-3.377910256E-1,3.607071936E-1,-1.303062886E-1
1.056341625E0,-3.441789150E-1,3.628365099E-1,-1.090132669E-1
1.058341625E0,-3.516314924E-1,3.697654605E-1,-8.878489584E-2
1.060924438E0,-3.633426428E-1,3.862588108E-1,-5.684537441E-2
1.062819750E0,-3.692069352E-1,4.006228745E-1,-3.288200125E-2
1.064344750E0,-3.713362515E-1,4.086164832E-1,-2.064724453E-2
1.066341625E0,-3.755948544E-1,4.272391498E-1,5.951572675E-3
1.068341625E0,-3.771831095E-1,4.453382194E-1,3.469714522E-2
1.070341625E0,-3.782477677E-1,4.613079727E-1,6.398376822E-2
1.072355688E0,-3.782477677E-1,4.746248424E-1,9.538224339E-2
1.074341625E0,-3.761184514E-1,4.847303033E-1,1.278628260E-1
1.076341625E0,-3.697130978E-1,4.927239120E-1,1.603259444E-1
1.078341625E0,-3.606722951E-1,4.948706627E-1,1.922654659E-1
1.080921313E0,-3.473554254E-1,4.820948541E-1,2.412394136E-1
1.082368188E0,-3.425557613E-1,4.735776484E-1,2.577502131E-1
1.084407250E0,-3.319092691E-1,4.506789148E-1,2.902133465E-1
1.086341625E0,-3.191508949E-1,4.198040366E-1,3.232175112E-1
1.088366625E0,-3.026575446E-1,3.803945184E-1,3.546334505E-1
1.090341625E0,-2.813645303E-1,3.356791735E-1,3.855083287E-1
1.092341625E0,-2.558129132E-1,2.888345420E-1,4.142538905E-1
1.094341625E0,-2.254790813E-1,2.419898957E-1,4.403291047E-1
1.096340063E0,-1.914102584E-1,1.983392090E-1,4.658807218E-1
1.098166625E0,-1.568003744E-1,1.589471400E-1,4.882383943E-1
1.101071313E0,-1.030267850E-1,1.083849445E-1,5.196543336E-1
1.102344750E0,-8.492772281E-2,9.454448521E-2,5.303008556E-1
1.104169750E0,-4.872959107E-2,7.112216949E-2,5.505291820E-1
1.106341625E0,-1.361356769E-2,4.928809777E-2,5.686282516E-1
1.108341625E0,2.045525797E-2,2.907718532E-2,5.845980048E-1
1.110341625E0,5.398303270E-2,8.831365965E-3,6.000267267E-1
1.112347875E0,8.803440630E-2,-1.031489577E-2,6.128025651E-1
1.114341625E0,1.210385859E-1,-3.108431399E-2,6.245136857E-1
1.116347875E0,1.551248580E-1,-5.396557972E-2,6.340955496E-1
1.118341625E0,1.897347420E-1,-8.004079759E-2,6.420891881E-1
1.120922875E0,2.402969301E-1,-1.242325380E-1,6.543239355E-1
1.122365063E0,2.567902803E-1,-1.402022988E-1,6.580589414E-1
1.124407250E0,2.871415615E-1,-1.710597128E-1,6.660351157E-1
1.126340063E0,3.132342398E-1,-2.008699477E-1,6.761580110E-1
1.128341625E0,3.334625959E-1,-2.296155095E-1,6.873281002E-1
1.130340063E0,3.504970074E-1,-2.551671267E-1,7.006449699E-1
1.132341625E0,3.685960770E-1,-2.796541154E-1,7.139443755E-1
1.134341625E0,3.898890913E-1,-3.052057326E-1,7.256555557E-1
1.136341625E0,4.143760800E-1,-3.355570138E-1,7.368431091E-1
1.138354125E0,4.420569837E-1,-3.712315261E-1,7.453603148E-1
1.140921313E0,4.904898703E-1,-4.372398853E-1,7.565304041E-1
1.142951000E0,5.256233811E-1,-4.904549718E-1,7.623947263E-1
1.144171313E0,5.437223911E-1,-5.197415948E-1,7.645240426E-1
1.146341625E0,5.799205303E-1,-5.814913511E-1,7.682415843E-1
1.148341625E0,6.161186695E-1,-6.448293328E-1,7.714354992E-1
1.150341625E0,6.485992670E-1,-7.044497728E-1,7.725001574E-1
1.152341625E0,6.789330840E-1,-7.560940981E-1,7.719765902E-1
1.154341625E0,7.045021653E-1,-7.976154685E-1,7.687826157E-1
1.156341625E0,7.252541184E-1,-8.295549750E-1,7.645240426E-1
1.158341625E0,7.390945554E-1,-8.551065922E-1,7.592007518E-1
1.160936938E0,7.481528521E-1,-8.811818361E-1,7.474896312E-1
1.162341625E0,7.486764193E-1,-8.865050673E-1,7.426899672E-1
1.164349438E0,7.449414134E-1,-8.944987059E-1,7.304552197E-1
1.166341625E0,7.385535240E-1,-9.003455639E-1,7.166147232E-1
1.168341625E0,7.300363183E-1,-9.040805697E-1,6.995803118E-1
1.170340063E0,7.231248021E-1,-9.072744846E-1,6.788108945E-1
1.172368188E0,7.183251381E-1,-9.094038010E-1,6.575179100E-1
1.174341625E0,7.156547904E-1,-9.142034650E-1,6.378305554E-1
1.176341625E0,7.130019069E-1,-9.221796393E-1,6.213197708E-1
1.178341625E0,7.108725905E-1,-9.317614436E-1,6.058910489E-1
1.180943188E0,7.071375847E-1,-9.445372820E-1,5.893802047E-1
1.182360375E0,7.050082684E-1,-9.487958550E-1,5.845980048E-1
1.184410375E0,6.996850371E-1,-9.567894936E-1,5.755397677E-1
1.186340063E0,6.932971478E-1,-9.637010098E-1,5.664989948E-1
1.188354125E0,6.858446002E-1,-9.711535573E-1,5.574406981E-1
1.190341625E0,6.799977422E-1,-9.775414467E-1,5.473352671E-1
1.192341625E0,6.789330840E-1,-9.828647375E-1,5.366887450E-1
1.194341625E0,6.810624003E-1,-9.855176210E-1,5.244365335E-1
1.196341625E0,6.879913211E-1,-9.849939942E-1,5.100724697E-1
1.198368188E0,6.991614699E-1,-9.834057689E-1,4.930380583E-1
1.200922875E0,7.135254741E-1,-9.764767885E-1,4.749389887E-1
1.202363500E0,7.289716601E-1,-9.647656679E-1,4.552342296E-1
1.204407250E0,7.460060716E-1,-9.461255074E-1,4.350058734E-1
1.206343188E0,7.630404830E-1,-9.179210067E-1,4.158421457E-1
1.208341625E0,7.800748944E-1,-8.806582093E-1,3.977430761E-1
1.210341625E0,7.976503968E-1,-8.316842914E-1,3.833790123E-1
1.212341625E0,8.141437173E-1,-7.731285095E-1,3.721914589E-1
1.214354125E0,8.285252452E-1,-7.060555220E-1,3.615449667E-1
1.216341625E0,8.418246508E-1,-6.331182122E-1,3.508984447E-1
1.218341625E0,8.524711728E-1,-5.570043921E-1,3.397283256E-1
1.220922875E0,8.577944040E-1,-4.760909081E-1,3.264114857E-1
1.222705688E0,8.487536311E-1,-3.797312975E-1,3.099181056E-1
1.224340063E0,8.215962648E-1,-2.652900517E-1,2.891486883E-1
1.226341625E0,7.816457152E-1,-1.439373046E-1,2.667910159E-1
1.228341625E0,7.348185182E-1,-2.947861142E-2,2.439097613E-1
1.230355688E0,6.874502897E-1,6.953391433E-2,2.210110426E-1
1.232341625E0,6.432585716E-1,1.509709805E-1,1.975887269E-1
1.234341625E0,6.054547429E-1,2.169618756E-1,1.736427993E-1
1.236341625E0,5.719269514E-1,2.632829249E-1,1.480911821E-1
1.238352563E0,5.415931344E-1,2.861816287E-1,1.214749143E-1
1.240922875E0,5.155004263E-1,2.898992002E-1,9.325294197E-2
1.242363500E0,4.920781255E-1,2.829876840E-1,6.557202339E-2
1.244341625E0,4.713261724E-1,2.707354724E-1,3.843215108E-2
1.246344750E0,4.527035058E-1,2.563714087E-1,1.127482671E-2
1.248341625E0,4.383394420E-1,2.446777076E-1,-1.425934024E-2
1.250341625E0,4.282339811E-1,2.366840988E-1,-3.874630854E-2
1.252341625E0,4.207639694E-1,2.324254960E-1,-6.323327869E-2
1.254346313E0,4.170289636E-1,2.308197916E-1,-8.559094369E-2
1.256341625E0,4.175700247E-1,2.334901392E-1,-1.068839654E-1
1.258341625E0,4.228932858E-1,2.377487570E-1,-1.271123290E-1
1.260926000E0,4.319340885E-1,2.467895597E-1,-1.462760419E-1
1.262344750E0,4.452509582E-1,2.585007250E-1,-1.648987085E-1
1.264340063E0,4.617617726E-1,2.718175650E-1,-1.814095229E-1
1.266341625E0,4.819726646E-1,2.835287452E-1,-1.973792911E-1
1.268341625E0,5.048539639E-1,2.930931449E-1,-2.133490443E-1
1.270341625E0,5.277526379E-1,2.984338403E-1,-2.303834558E-1
1.272343188E0,5.527806878E-1,2.989574373E-1,-2.522000670E-1
1.274341625E0,5.793969631E-1,2.952398956E-1,-2.734930813E-1
1.276341625E0,6.134657860E-1,2.973691821E-1,-2.878746092E-1
1.278341625E0,6.517931819E-1,3.122743070E-1,-2.915921509E-1
1.280991625E0,6.885149479E-1,3.335673213E-1,-2.878746092E-1
1.282730688E0,7.225837708E-1,3.548603356E-1,-2.830749452E-1
1.284340063E0,7.507882714E-1,3.708126545E-1,-2.788163424E-1
1.286382250E0,7.758163214E-1,3.814766109E-1,-2.745577395E-1
1.288351000E0,7.981739640E-1,3.894527555E-1,-2.697755396E-1
1.290341625E0,8.184023499E-1,3.952996135E-1,-2.644522786E-1
1.292341625E0,8.349131346E-1,3.995756805E-1,-2.580643892E-1
1.294341625E0,8.482300043E-1,4.017049670E-1,-2.522000670E-1
1.296366625E0,8.562061787E-1,3.985110223E-1,-2.468768209E-1
1.298341625E0,8.594000936E-1,3.910584748E-1,-2.431592643E-1
1.300924438E0,8.599237204E-1,3.809355497E-1,-2.399653196E-1
1.302679125E0,8.572708368E-1,3.713537157E-1,-2.389006615E-1
1.304340063E0,8.540768623E-1,3.639011383E-1,-2.383596152E-1
1.306430688E0,8.503593206E-1,3.569896519E-1,-2.372949570E-1
1.308341625E0,8.439539671E-1,3.484724462E-1,-2.372949570E-1
1.310341625E0,8.370424509E-1,3.394141793E-1,-2.367713600E-1
1.312354125E0,8.295724392E-1,3.303559124E-1,-2.367713600E-1
1.314341625E0,8.215962648E-1,3.207740486E-1,-2.372949570E-1
1.316341625E0,8.114733696E-1,3.106686175E-1,-2.362303138E-1
1.318341625E0,7.992386222E-1,2.989574373E-1,-2.346420586E-1
1.320921313E0,7.853981853E-1,2.851170003E-1,-2.335774153E-1
1.322365063E0,7.710166574E-1,2.707354724E-1,-2.335774153E-1
1.324341625E0,7.635815740E-1,2.627593279E-1,-2.341010123E-1
1.326341625E0,7.470881939E-1,2.446602583E-1,-2.351656556E-1
1.328341625E0,7.311009765E-1,2.265611887E-1,-2.367713600E-1
1.330340063E0,7.146075964E-1,2.047445774E-1,-2.399653196E-1
1.332341625E0,6.986378431E-1,1.781283021E-1,-2.431592643E-1
1.334341625E0,6.842563152E-1,1.499063224E-1,-2.463532239E-1
1.336341625E0,6.693512201E-1,1.179668009E-1,-2.495471686E-1
1.338341625E0,6.560518146E-1,8.230973035E-2,-2.538057864E-1
1.340921313E0,6.352823973E-1,2.108357660E-2,-2.601936758E-1
1.342441625E0,6.225065589E-1,-2.413790300E-2,-2.649758756E-1
1.344341625E0,6.155951023E-1,-4.756022245E-2,-2.676462531E-1
1.346341625E0,6.033428907E-1,-9.281660616E-2,-2.708401978E-1
1.348341625E0,5.921727419E-1,-1.359262466E-1,-2.756223977E-1
1.350341625E0,5.825734735E-1,-1.774650812E-1,-2.798810005E-1
1.352341625E0,5.735326409E-1,-2.168397009E-1,-2.836160064E-1
1.354341625E0,5.644918084E-1,-2.541024983E-1,-2.862688899E-1
1.356341625E0,5.559746027E-1,-2.887123525E-1,-2.873335481E-1
1.358341625E0,5.469338298E-1,-3.195872307E-1,-2.868099511E-1
1.360926000E0,5.304229856E-1,-3.595029116E-1,-2.830749452E-1
1.362341625E0,5.245587230E-1,-3.712315261E-1,-2.814866900E-1
1.364404125E0,5.091300011E-1,-3.919835091E-1,-2.777516842E-1
1.366341625E0,4.915545285E-1,-4.095415175E-1,-2.719048560E-1
1.368341625E0,4.723908007E-1,-4.292462766E-1,-2.665815949E-1
1.370341625E0,4.516388476E-1,-4.462806880E-1,-2.607172728E-1
1.372341625E0,4.276754856E-1,-4.595800936E-1,-2.538057864E-1
1.374341625E0,4.016002715E-1,-4.691619575E-1,-2.468768209E-1
1.376341625E0,3.749839962E-1,-4.760909081E-1,-2.389006615E-1
1.378341625E0,3.483677208E-1,-4.803495109E-1,-2.309070528E-1
1.380921313E0,3.084345758E-1,-4.835434556E-1,-2.170666009E-1
1.382819750E0,2.834240198E-1,-4.851317108E-1,-2.074847370E-1
1.384340063E0,2.711718082E-1,-4.861963689E-1,-2.021614909E-1
1.386341625E0,2.472258806E-1,-4.883256555E-1,-1.925796270E-1
1.388341625E0,2.232799679E-1,-4.909960330E-1,-1.835388243E-1
1.390340063E0,1.998402029E-1,-4.952546358E-1,-1.739569604E-1
1.392340063E0,1.774650812E-1,-5.016599894E-1,-1.654397547E-1
1.394341625E0,1.561895162E-1,-5.107007623E-1,-1.574461460E-1
1.396341625E0,1.348965019E-1,-5.197415948E-1,-1.494700015E-1
1.398341625E0,1.141445339E-1,-5.314527750E-1,-1.430820972E-1
1.400922875E0,8.539895713E-2,-5.522047281E-1,-1.335002333E-1
1.402365063E0,7.581710070E-2,-5.591336489E-1,-1.303062886E-1
1.404343188E0,5.665338784E-2,-5.729741454E-1,-1.255066246E-1
1.406340063E0,3.853686899E-2,-5.857673883E-1,-1.217890754E-1
1.408340063E0,2.096140385E-2,-5.990667939E-1,-1.180540696E-1
1.410340063E0,2.862340072E-3,-6.091897488E-1,-1.143365204E-1
1.412340063E0,-1.308996975E-2,-6.177069545E-1,-1.095368639E-1
1.414341625E0,-2.958333120E-2,-6.235537529E-1,-1.031489596E-1
1.416341625E0,-4.609414563E-2,-6.283534169E-1,-9.730210900E-2
1.418341625E0,-6.365215778E-2,-6.310063601E-1,-9.197884798E-2
1.420922875E0,-9.185668081E-2,-6.299417019E-1,-8.346164227E-2
1.422341625E0,-1.014559865E-1,-6.288770437E-1,-8.133234084E-2
1.424401000E0,-1.200786531E-1,-6.262241602E-1,-7.600908726E-2
1.426341625E0,-1.413542181E-1,-6.235363483E-1,-7.120943069E-2
1.428341625E0,-1.621236354E-1,-6.198187470E-1,-6.588617712E-2
1.430341625E0,-1.818109453E-1,-6.144955158E-1,-6.110397726E-2
1.432340063E0,-2.020393163E-1,-6.102194786E-1,-5.630432069E-2
1.434341625E0,-2.233323306E-1,-6.049136519E-1,-5.204571784E-2
1.436340063E0,-2.430371046E-1,-5.990493298E-1,-4.778711498E-2
1.438341625E0,-2.616772056E-1,-5.926789045E-1,-4.246386141E-2
1.440922875E0,-2.872288227E-1,-5.841616988E-1,-3.394665569E-2
1.442363500E0,-2.952049971E-1,-5.814913511E-1,-3.075270168E-2
1.444340063E0,-3.095864952E-1,-5.772327185E-1,-2.597049996E-2
1.446341625E0,-3.218212724E-1,-5.740388036E-1,-2.171189524E-2
1.448341625E0,-3.330088258E-1,-5.724505186E-1,-1.797689125E-2
1.450341625E0,-3.431142867E-1,-5.703037977E-1,-1.532399096E-2
1.452341625E0,-3.521550894E-1,-5.697801709E-1,-1.213003788E-2
1.454341625E0,-3.601486981E-1,-5.681744814E-1,-9.459684603E-3
1.456341625E0,-3.681423068E-1,-5.671272874E-1,-8.395033889E-3
1.458166625E0,-3.755773902E-1,-5.655215979E-1,-7.330382708E-3
1.461076000E0,-3.856828511E-1,-5.612629652E-1,-6.806783844E-3
1.462719750E0,-3.915471733E-1,-5.564633012E-1,-6.265731994E-3
1.464165063E0,-3.942175210E-1,-5.532868505E-1,-5.201081280E-3
1.466501000E0,-3.979525268E-1,-5.474399924E-1,-4.136430100E-3
1.468166625E0,-3.995582163E-1,-5.415756702E-1,-3.612831468E-3
1.470341625E0,-3.974114656E-1,-5.357113481E-1,-1.483529806E-3
1.472341625E0,-3.910410106E-1,-5.287998319E-1,2.757620299E-3
1.474340063E0,-3.798534572E-1,-5.234766006E-1,5.951572675E-3
1.476341625E0,-3.617543876E-1,-5.202826262E-1,9.145525284E-3
1.478341625E0,-3.393967152E-1,-5.186944008E-1,1.233947743E-2
1.480922875E0,-2.973342836E-1,-5.208062530E-1,1.766273193E-2
1.482363500E0,-2.818881273E-1,-5.223944783E-1,1.926843449E-2
1.484340063E0,-2.488839477E-1,-5.277177691E-1,2.298598550E-2
1.486341625E0,-2.132268697E-1,-5.335820317E-1,2.672099136E-2
1.488341625E0,-1.754404902E-1,-5.378581285E-1,2.991494350E-2
1.490341625E0,-1.376366615E-1,-5.410346389E-1,3.204424679E-2
1.492341625E0,-9.930923581E-2,-5.415756702E-1,3.469714522E-2
1.494341625E0,-6.204645336E-2,-5.389053226E-1,3.630284965E-2
1.496341625E0,-2.850122750E-2,-5.341056585E-1,3.736750036E-2
1.498341625E0,1.815142459E-3,-5.256059170E-1,3.682644665E-2
1.500922875E0,4.333652556E-2,-5.021661520E-1,3.256784379E-2
1.502363500E0,5.558873713E-2,-4.925842583E-1,2.991494350E-2
1.504344750E0,7.847000659E-2,-4.707676470E-1,2.405063622E-2
1.506341625E0,9.923942387E-2,-4.441513717E-1,1.713913307E-2
1.508341625E0,1.183856800E-1,-4.164704680E-1,8.621926419E-3
1.510341625E0,1.375494003E-1,-3.872012794E-1,-1.483529806E-3
1.512341625E0,1.546012610E-1,-3.552443087E-1,-1.265363675E-2
1.514341625E0,1.716182232E-1,-3.227812052E-1,-2.490584925E-2
1.516341625E0,1.891762316E-1,-2.913827300E-1,-3.874630854E-2
1.518341625E0,2.062106431E-1,-2.637017965E-1,-5.258677155E-2
1.520924438E0,2.301740199E-1,-2.280272692E-1,-7.813838869E-2
1.522363500E0,2.381676286E-1,-2.184454054E-1,-8.717919886E-2
1.524341625E0,2.530727386E-1,-2.003463507E-1,-1.058193147E-1
1.526341625E0,2.690424919E-1,-1.849176288E-1,-1.249830276E-1
1.528341625E0,2.850122750E-1,-1.710771769E-1,-1.446703374E-1
1.530340063E0,3.025702834E-1,-1.583013684E-1,-1.659633517E-1
1.532340063E0,3.201457560E-1,-1.471138000E-1,-1.883210242E-1
1.534341625E0,3.398330510E-1,-1.359436959E-1,-2.112197429E-1
1.536340063E0,3.606024683E-1,-1.263618320E-1,-2.346420586E-1
1.538341625E0,3.818954825E-1,-1.173035800E-1,-2.569997311E-1
1.540924438E0,4.053178132E-1,-1.066570729E-1,-2.793574035E-1
1.542819750E0,4.297873378E-1,-9.815731645E-2,-3.001093566E-1
1.544341625E0,4.526686072E-1,-9.124581516E-2,-3.198141456E-1
1.546341625E0,4.771730304E-1,-8.538150787E-2,-3.363074958E-1
1.548341625E0,5.016599894E-1,-8.164650202E-2,-3.496243656E-1
1.550341625E0,5.234940648E-1,-7.897614688E-2,-3.592061996E-1
1.552341625E0,5.442460179E-1,-7.686430216E-2,-3.624001741E-1
1.554341625E0,5.623450875E-1,-7.792895287E-2,-3.602708578E-1
1.556371313E0,5.777912736E-1,-8.058185130E-2,-3.522772491E-1
1.558341625E0,5.932374001E-1,-7.949974388E-2,-3.384367824E-1
1.560927563E0,6.097307801E-1,-7.311183959E-2,-3.176848292E-1
1.562340063E0,6.267651916E-1,-6.407103688E-2,-2.905274928E-1
1.564407250E0,6.427349448E-1,-5.448918045E-2,-2.585879862E-1
1.566341625E0,6.576400399E-1,-4.331907257E-2,-2.208016068E-1
1.568340063E0,6.725277305E-1,-2.789036185E-2,-1.792802215E-1
1.570340063E0,6.890385151E-1,-9.250245057E-3,-1.377588362E-1
1.572341625E0,7.082022429E-1,8.831365965E-3,-9.517280012E-2
1.574341625E0,7.289541960E-1,2.426007576E-2,-5.578072369E-2
1.576341625E0,7.539822459E-1,3.492403775E-2,-2.064724453E-2
1.578341625E0,7.816631794E-1,4.235913977E-2,7.557275705E-3
1.580921313E0,8.120144606E-1,4.769985005E-2,2.672099136E-2
1.582365063E0,8.439539671E-1,5.461135134E-2,3.682644665E-2
1.584341625E0,8.732231259E-1,6.419321150E-2,3.789109737E-2
1.586358813E0,8.934515119E-1,7.962191850E-2,3.043854237E-2
1.588349438E0,8.971690536E-1,1.030442417E-1,1.500983164E-2
1.590872875E0,8.780227900E-1,1.333955079E-1,-6.806783844E-3
1.592171313E0,8.354367614E-1,1.669407487E-1,-3.181735054E-2
1.594341625E0,7.752752304E-1,2.009921223E-1,-5.949827284E-2
1.596344750E0,7.039436698E-1,2.297376841E-1,-8.824384958E-2
1.598341625E0,6.299591660E-1,2.451838553E-1,-1.154011711E-1
1.600965063E0,5.639333129E-1,2.403841913E-1,-1.404117346E-1
1.602371313E0,5.107182264E-1,2.137853801E-1,-1.622458100E-1
1.604341625E0,4.702615142E-1,1.733286530E-1,-1.776745170E-1
1.606346313E0,4.404512942E-1,1.238136590E-1,-1.883210242E-1
1.608341625E0,4.212875664E-1,6.899286807E-2,-1.931206882E-1
1.610341625E0,4.164879322E-1,1.363102160E-2,-1.952499896E-1
1.612341625E0,4.234168828E-1,-4.010766745E-2,-1.979028881E-1
1.614341625E0,4.388455749E-1,-8.590510488E-2,-2.032261342E-1
1.616341625E0,4.574857056E-1,-1.194328815E-1,-2.112197429E-1
1.618341625E0,4.739790559E-1,-1.375494003E-1,-2.218662500E-1
1.620924438E0,4.840845168E-1,-1.402022988E-1,-2.341010123E-1
1.622721313E0,4.867548645E-1,-1.274264902E-1,-2.452885658E-1
1.624340063E0,4.809080064E-1,-1.023984700E-1,-2.538057864E-1
1.626366625E0,4.675911665E-1,-6.832963973E-2,-2.591290474E-1
1.628341625E0,4.489684999E-1,-2.574360557E-2,-2.612583339E-1
1.630685375E0,4.281990826E-1,2.427753061E-2,-2.591290474E-1
1.632393188E0,4.079706967E-1,7.962191850E-2,-2.522000670E-1
1.634341625E0,3.877249062E-1,1.355073601E-1,-2.410299629E-1
1.636341625E0,3.675139844E-1,1.903456002E-1,-2.261248529E-1
1.638352563E0,3.467445672E-1,2.393195480E-1,-2.090904415E-1
1.640921313E0,3.249279559E-1,2.813819945E-1,-1.883210242E-1
1.642363500E0,2.999173701E-1,3.175801039E-1,-1.665044129E-1
1.644340063E0,2.711718082E-1,3.463256955E-1,-1.473407000E-1
1.646341625E0,2.386912256E-1,3.670951128E-1,-1.297652274E-1
1.648351000E0,2.024931014E-1,3.825238049E-1,-1.143365204E-1
1.650341625E0,1.636420637E-1,3.910410106E-1,-9.995500743E-2
1.652341625E0,1.231853366E-1,3.937113583E-1,-8.717919886E-2
1.654341625E0,8.058185130E-2,3.910410106E-1,-7.653268427E-2
1.656351000E0,3.747221828E-2,3.857177496E-1,-6.695082784E-2
1.658341625E0,-5.619960371E-3,3.814591467E-1,-6.003932655E-2
1.660924438E0,-4.872959107E-2,3.772180080E-1,-5.578072369E-2
1.662341625E0,-9.185668081E-2,3.734830022E-1,-5.311036855E-2
1.664366625E0,-1.339016557E-1,3.687008023E-1,-5.152212083E-2
1.666341625E0,-1.759640872E-1,3.585779071E-1,-5.258677155E-2
1.668341625E0,-2.164208293E-1,3.415434659E-1,-5.471607298E-2
1.670341625E0,-2.547482550E-1,3.181211650E-1,-5.791002512E-2
1.672360375E0,-2.888345420E-1,2.888345420E-1,-6.162757427E-2
1.674341625E0,-3.186447620E-1,2.547657192E-1,-6.588617712E-2
1.676341625E0,-3.431317210E-1,2.185675800E-1,-6.962118298E-2
1.678341625E0,-3.612307906E-1,1.823694557E-1,-7.281513512E-2
1.680952563E0,-3.739891648E-1,1.461713314E-1,-7.440338284E-2
1.682360375E0,-3.830474019E-1,1.089085415E-1,-7.440338284E-2
1.684341625E0,-3.857003152E-1,9.080947936E-2,-7.333873212E-2
1.686341625E0,-3.872885704E-1,5.569345504E-2,-6.908012927E-2
1.688360375E0,-3.867475092E-1,2.268928103E-2,-6.269222498E-2
1.690341625E0,-3.809006512E-1,-3.385938704E-3,-5.258677155E-2
1.692341625E0,-3.734481037E-1,-2.467895485E-2,-4.139921069E-2
1.694341625E0,-3.644073009E-1,-3.958406672E-2,-2.755874954E-2
1.696341625E0,-3.569721878E-1,-4.811872914E-2,-1.319468953E-2
1.698341625E0,-3.516314924E-1,-4.916592315E-2,3.298672382E-3
1.700922875E0,-3.495196402E-1,-4.118977115E-2,2.991494350E-2
1.702819750E0,-3.489785790E-1,-2.734931000E-2,4.801400751E-2
1.704341625E0,-3.489611149E-1,-1.722639985E-2,5.759586394E-2
1.706357250E0,-3.484375179E-1,5.113814492E-3,7.728318125E-2
1.708341625E0,-3.484549820E-1,2.851868048E-2,9.857619554E-2
1.710341625E0,-3.500432372E-1,4.928809777E-2,1.198692098E-1
1.712341625E0,-3.537782431E-1,6.632251292E-2,1.432915330E-1
1.714341625E0,-3.606897295E-1,7.642796636E-2,1.661902517E-1
1.716341625E0,-3.729419410E-1,7.962191850E-2,1.874832660E-1
1.718341625E0,-3.883706629E-1,7.696902007E-2,2.071705759E-1
1.720924438E0,-4.165751934E-1,6.579891592E-2,2.321985960E-1
1.722365063E0,-4.266806543E-1,6.099925563E-2,2.391101122E-1
1.724374438E0,-4.479911029E-1,5.089380220E-2,2.497566193E-1
1.726341625E0,-4.692666829E-1,3.972369432E-2,2.582738101E-1
1.728341625E0,-4.900361001E-1,2.853613347E-2,2.635970712E-1
1.730341625E0,-5.097234249E-1,1.843067631E-2,2.673320770E-1
1.732341625E0,-5.278398991E-1,1.256637089E-2,2.694613934E-1
1.734341625E0,-5.448569059E-1,1.150172018E-2,2.710496187E-1
1.736341625E0,-5.597794652E-1,1.469567232E-2,2.726553380E-1
1.738341625E0,-5.725552440E-1,2.321287990E-2,2.731789351E-1
1.740961938E0,-5.901132822E-1,4.344124347E-2,2.726553380E-1
1.742369750E0,-5.965011716E-1,5.195845291E-2,2.721142769E-1
1.744340063E0,-6.071651578E-1,7.271041721E-2,2.699849904E-1
1.746340063E0,-6.172880530E-1,9.505063295E-2,2.667910159E-1
1.748343188E0,-6.273934841E-1,1.190140024E-1,2.630734742E-1
1.750341625E0,-6.364517808E-1,1.440245658E-1,2.582738101E-1
1.752341625E0,-6.454925537E-1,1.717229486E-1,2.534916103E-1
1.754341625E0,-6.540097594E-1,1.988628209E-1,2.497566193E-1
1.756349438E0,-6.609212756E-1,2.260201424E-1,2.439097613E-1
1.758341625E0,-6.657209396E-1,2.542246580E-1,2.396511585E-1
1.760927563E0,-6.683563590E-1,2.952398956E-1,2.337868512E-1
1.762341625E0,-6.678327918E-1,3.085393012E-1,2.321985960E-1
1.764413500E0,-6.651624441E-1,3.356966376E-1,2.300692946E-1
1.766341625E0,-6.593155861E-1,3.628365099E-1,2.290046513E-1
1.768341625E0,-6.524040699E-1,3.889117241E-1,2.284636050E-1
1.770340063E0,-6.438868642E-1,4.150044024E-1,2.295282483E-1
1.772358813E0,-6.348286271E-1,4.416206479E-1,2.332632542E-1
1.774341625E0,-6.252467632E-1,4.661076367E-1,2.396511585E-1
1.776341625E0,-6.162059307E-1,4.900535345E-1,2.460390627E-1
1.778341625E0,-6.098180413E-1,5.124112368E-1,2.534916103E-1
1.780924438E0,-6.055594087E-1,5.459564328E-1,2.641381323E-1
1.782702563E0,-6.060830355E-1,5.672494769E-1,2.699849904E-1
1.784341625E0,-6.076887250E-1,5.778959394E-1,2.726553380E-1
1.786341625E0,-6.140766144E-1,6.018418670E-1,2.769139409E-1
1.788341625E0,-6.231349111E-1,6.252467632E-1,2.806314826E-1
1.790341625E0,-6.343050003E-1,6.470808387E-1,2.838254273E-1
1.792341625E0,-6.476218700E-1,6.630505919E-1,2.859547436E-1
1.794341625E0,-6.646562815E-1,6.662445068E-1,2.859547436E-1
1.796341625E0,-6.816906929E-1,6.657209396E-1,2.822372019E-1
1.798349438E0,-6.987076402E-1,6.657209396E-1,2.779785991E-1
1.800924438E0,-7.269296050E-1,6.598740816E-1,2.731789351E-1
1.802363500E0,-7.370350957E-1,6.556154490E-1,2.715906799E-1
1.804402563E0,-7.567223907E-1,6.481629014E-1,2.673320770E-1
1.806341625E0,-7.769682407E-1,6.401693225E-1,2.609441876E-1
1.808341625E0,-7.998495102E-1,6.263288260E-1,2.556209266E-1
1.810341625E0,-8.259421587E-1,6.055594087E-1,2.492330223E-1
1.812341625E0,-8.536230922E-1,5.864131451E-1,2.407158166E-1
1.814341625E0,-8.780925870E-1,5.709670186E-1,2.295282483E-1
1.816166625E0,-8.999266624E-1,5.544736385E-1,2.151641846E-1
1.818340063E0,-9.212197065E-1,5.353099108E-1,1.986533701E-1
1.821069750E0,-9.515709877E-1,5.001764297E-1,1.677785069E-1
1.822347875E0,-9.616764188E-1,4.868595898E-1,1.566083878E-1
1.824165063E0,-9.835104942E-1,4.554611146E-1,1.342507303E-1
1.826341625E0,-1.003738880E0,4.245688021E-1,1.108284071E-1
1.828341625E0,-1.018102884E0,3.979699612E-1,8.580038697E-2
1.830341625E0,-1.027161121E0,3.777416050E-1,6.291911751E-2
1.832341625E0,-1.030355096E0,3.617718518E-1,4.214970022E-2
1.834341625E0,-1.028225780E0,3.484549820E-1,2.246238664E-2
1.836341625E0,-1.024508238E0,3.356617093E-1,3.298672382E-3
1.838341625E0,-1.020249605E0,3.207566142E-1,-1.532399096E-2
1.840965063E0,-1.014926434E0,3.015928864E-1,-4.139921069E-2
1.842372875E0,-1.013861775E0,2.941578031E-1,-5.045747012E-2
1.844340063E0,-1.013861775E0,2.792352140E-1,-6.855653226E-2
1.846341625E0,-1.015450001E0,2.638239563E-1,-8.559094369E-2
1.848341625E0,-1.016514659E0,2.489188612E-1,-1.026253626E-1
1.850341625E0,-1.016514659E0,2.345373482E-1,-1.207244247E-1
1.852341625E0,-1.015991092E0,2.217615396E-1,-1.377588362E-1
1.854341625E0,-1.014385343E0,2.105914205E-1,-1.531875432E-1
1.856341625E0,-1.012779713E0,1.988802701E-1,-1.696983576E-1
1.858341625E0,-1.010667801E0,1.882162988E-1,-1.829977781E-1
1.860927563E0,-1.006950259E0,1.738347858E-1,-2.021614909E-1
1.862679125E0,-1.005885601E0,1.695761830E-1,-2.085668445E-1
1.864341625E0,-1.004279852E0,1.578824818E-1,-2.208016068E-1
1.866341625E0,-1.002150655E0,1.408306211E-1,-2.314481139E-1
1.868341625E0,-9.973509312E-1,1.211607531E-1,-2.431592643E-1
1.870341625E0,-9.888337255E-1,1.051909924E-1,-2.538057864E-1
1.872341625E0,-9.787108302E-1,9.613273293E-2,-2.623229921E-1
1.874341625E0,-9.664760828E-1,9.293878078E-2,-2.692344785E-1
1.876341625E0,-9.531592131E-1,9.400343150E-2,-2.750988007E-1
1.878341625E0,-9.366658330E-1,1.014559865E-1,-2.782927454E-1
1.880921313E0,-9.089848995E-1,1.227490082E-1,-2.814866900E-1
1.882363500E0,-8.999266624E-1,1.312662065E-1,-2.825513482E-1
1.884343188E0,-8.796982765E-1,1.499063224E-1,-2.830749452E-1
1.886341625E0,-8.578816652E-1,1.679879427E-1,-2.836160064E-1
1.888341625E0,-8.360475898E-1,1.855634004E-1,-2.852042615E-1
1.890341625E0,-8.142309785E-1,2.025978118E-1,-2.862688899E-1
1.892341625E0,-7.934790254E-1,2.180265337E-1,-2.873335481E-1
1.894341625E0,-7.732332349E-1,2.297551483E-1,-2.883982062E-1
1.896341625E0,-7.551516294E-1,2.393195480E-1,-2.910685539E-1
1.898341625E0,-7.386407852E-1,2.462484986E-1,-2.931978703E-1
1.900924438E0,-7.242767215E-1,2.505071163E-1,-2.958507538E-1
1.902341625E0,-7.125481367E-1,2.547657192E-1,-2.995857596E-1
1.904407250E0,-7.029662728E-1,2.563714087E-1,-3.033033311E-1
1.906341625E0,-6.955311298E-1,2.558303475E-1,-3.081029654E-1
1.908341625E0,-6.901904345E-1,2.553067505E-1,-3.139498234E-1
1.910341625E0,-6.864728928E-1,2.531774640E-1,-3.214023709E-1
1.912341625E0,-6.832789183E-1,2.505071163E-1,-3.304606378E-1
1.914341625E0,-6.811496615E-1,2.457249016E-1,-3.405660987E-1
1.916341625E0,-6.784793139E-1,2.382723540E-1,-3.528183103E-1
1.918341625E0,-6.753028035E-1,2.297376841E-1,-3.645294607E-1
1.920922875E0,-6.726499200E-1,2.196147740E-1,-3.773052692E-1
1.922346313E0,-6.715852618E-1,2.063153684E-1,-3.906046748E-1
1.924340063E0,-6.731734872E-1,1.903456002E-1,-4.055097997E-1
1.926340063E0,-6.784967184E-1,1.727875918E-1,-4.198912978E-1
1.928340063E0,-6.838200092E-1,1.552121341E-1,-4.374493361E-1
1.930344750E0,-6.896668673E-1,1.387187690E-1,-4.555483758E-1
1.932340063E0,-6.950075626E-1,1.232726052E-1,-4.741885066E-1
1.934341625E0,-6.997897625E-1,1.094321460E-1,-4.917465150E-1
1.936341625E0,-7.040483356E-1,9.559167922E-2,-5.082573295E-1
1.938344750E0,-7.072248459E-1,7.857472450E-2,-5.220977664E-1
1.940922875E0,-7.088305950E-1,5.993460491E-2,-5.359382629E-1
1.942819750E0,-7.104362845E-1,4.022983834E-2,-5.492376685E-1
1.944340063E0,-7.099126577E-1,2.158972248E-2,-5.604252219E-1
1.946352563E0,-7.077833414E-1,3.490658477E-3,-5.721364021E-1
1.948341625E0,-7.056540847E-1,-1.298524998E-2,-5.822418332E-1
1.950341625E0,-7.024426460E-1,-2.947861142E-2,-5.923647285E-1
1.952341625E0,-6.965957880E-1,-4.544837400E-2,-6.014055610E-1
1.954341625E0,-6.902078986E-1,-6.141813472E-2,-6.093991399E-1
1.956354125E0,-6.832789183E-1,-7.899360359E-2,-6.157870889E-1
1.958340063E0,-6.763674617E-1,-9.709266573E-2,-6.195046306E-1
1.960968188E0,-6.694384813E-1,-1.146506816E-1,-6.237632036E-1
1.962372875E0,-6.635916233E-1,-1.327497363E-1,-6.280218363E-1
1.964371313E0,-6.577273011E-1,-1.497841626E-1,-6.312157512E-1
1.966340063E0,-6.518805027E-1,-1.673596203E-1,-6.344097257E-1
1.968341625E0,-6.444278955E-1,-1.843940318E-1,-6.376037002E-1
1.970340063E0,-6.369928122E-1,-2.019695044E-1,-6.402740479E-1
1.972344750E0,-6.289992332E-1,-2.205921561E-1,-6.429443955E-1
1.974341625E0,-6.199409366E-1,-2.376265824E-1,-6.461209059E-1
1.976341625E0,-6.119648218E-1,-2.520080805E-1,-6.487912536E-1
1.978341625E0,-6.039711833E-1,-2.653074861E-1,-6.503794789E-1
1.980944750E0,-5.954365134E-1,-2.770012021E-1,-6.503794789E-1
1.982682250E0,-5.863957405E-1,-2.860594690E-1,-6.493148208E-1
1.984383813E0,-5.778610706E-1,-2.908416688E-1,-6.461209059E-1
1.986341625E0,-5.688377023E-1,-2.924473584E-1,-6.418622732E-1
1.988341625E0,-5.581737757E-1,-2.919063270E-1,-6.360154152E-1
1.990360375E0,-5.475272536E-1,-2.860594690E-1,-6.290864944E-1
1.992341625E0,-5.400921106E-1,-2.775422633E-1,-6.205692887E-1
1.994341625E0,-5.342278481E-1,-2.690250576E-1,-6.120520830E-1
1.996341625E0,-5.304928422E-1,-2.610314488E-1,-6.051405668E-1
1.998358813E0,-5.257106423E-1,-2.434734255E-1,-5.998172760E-1
2.000922875E0,-5.219930410E-1,-2.142042518E-1,-5.913000703E-1
2.002363500E0,-5.193226933E-1,-1.785297245E-1,-5.811771750E-1
2.004341625E0,-5.187816620E-1,-1.412669420E-1,-5.684013963E-1
2.006341625E0,-5.177170038E-1,-1.008102149E-1,-5.540373325E-1
2.008341625E0,-5.166523457E-1,-5.928883329E-2,-5.380675793E-1
2.010341625E0,-5.161287785E-1,-1.829105057E-2,-5.226213932E-1
2.012341625E0,-5.145230889E-1,1.895427518E-2,-5.093219876E-1
2.014357250E0,-5.118701458E-1,5.728170648E-2,-4.965461791E-1
2.016341625E0,-5.076115727E-1,9.880308807E-2,-4.842939675E-1
2.018341625E0,-5.028293729E-1,1.392423660E-1,-4.720591903E-1
2.020924438E0,-4.975061119E-1,1.765051484E-1,-4.592833817E-1
2.022679125E0,-4.916417897E-1,2.089857310E-1,-4.486368895E-1
2.024368188E0,-4.863185287E-1,2.371902466E-1,-4.385139644E-1
2.026363500E0,-4.804717004E-1,2.627418637E-1,-4.284085035E-1
2.028340063E0,-4.730191231E-1,2.888345420E-1,-4.198912978E-1
2.030343188E0,-4.629136622E-1,3.149097562E-1,-4.103094637E-1
2.032341625E0,-4.506614506E-1,3.377910256E-1,-3.996629417E-1
2.034341625E0,-4.384267032E-1,3.580193818E-1,-3.874107301E-1
2.036341625E0,-4.251098335E-1,3.750537932E-1,-3.730466664E-1
2.038341625E0,-4.112693965E-1,3.888942599E-1,-3.576005101E-1
2.040936938E0,-3.968878686E-1,4.022111297E-1,-3.432364464E-1
2.042344750E0,-3.809181154E-1,4.155279994E-1,-3.277902901E-1
2.044415063E0,-3.724009097E-1,4.224569499E-1,-3.198141456E-1
2.046341625E0,-3.543018401E-1,4.362799525E-1,-3.027797043E-1
2.048361938E0,-3.266209066E-1,4.623726308E-1,-2.740341425E-1
2.050341625E0,-3.170390427E-1,4.724780917E-1,-2.639112473E-1
2.052341625E0,-2.973517478E-1,4.943121374E-1,-2.415535748E-1
2.054341625E0,-2.765648663E-1,5.150815845E-1,-2.176076472E-1
2.056349438E0,-2.563539743E-1,5.358335376E-1,-1.925796270E-1
2.058341625E0,-2.355845422E-1,5.576676130E-1,-1.670280099E-1
2.060924438E0,-2.057743222E-1,5.842838883E-1,-1.281769872E-1
2.062341625E0,-1.961924583E-1,5.911954045E-1,-1.148601174E-1
2.064441625E0,-1.786344498E-1,6.034301519E-1,-8.717919886E-2
2.066341625E0,-1.637467891E-1,6.130120158E-1,-5.843362212E-2
2.068341625E0,-1.525592357E-1,6.183352470E-1,-2.968805097E-2
2.070340063E0,-1.435184181E-1,6.188588142E-1,-9.424777818E-4
2.072376000E0,-1.392423660E-1,6.108826995E-1,2.617993951E-2
2.074343188E0,-1.365894675E-1,5.927836299E-1,5.227261037E-2
2.076585375E0,-1.392249167E-1,5.475447178E-1,8.847074211E-2
2.078352563E0,-1.435009688E-1,5.273163319E-1,9.911724925E-2
2.080921313E0,-1.626646817E-1,4.570493698E-1,1.278628260E-1
2.082363500E0,-1.717229486E-1,4.298920333E-1,1.358389705E-1
2.084410375E0,-1.924749166E-1,3.702890575E-1,1.528733820E-1
2.086340063E0,-2.158972323E-1,3.021514118E-1,1.699078083E-1
2.088341625E0,-2.398431450E-1,2.265611887E-1,1.858775616E-1
2.090355688E0,-2.632654607E-1,1.435184181E-1,2.034530342E-1
2.092347875E0,-2.850995362E-1,5.780530348E-2,2.220756859E-1
2.094341625E0,-3.042632341E-1,-2.787290886E-2,2.412394136E-1
2.096341625E0,-3.218387067E-1,-1.141270772E-1,2.609441876E-1
2.098341625E0,-3.351381123E-1,-1.955641359E-1,2.811725438E-1
2.100924438E0,-3.479139209E-1,-3.062878251E-1,3.125710189E-1
2.102819750E0,-3.505668342E-1,-3.722961843E-1,3.349286914E-1
2.104340063E0,-3.495021760E-1,-4.021064043E-1,3.461162448E-1
2.106341625E0,-3.441963792E-1,-4.574682415E-1,3.679328561E-1
2.108341625E0,-3.340734839E-1,-5.059185624E-1,3.892258704E-1
2.110340063E0,-3.186447620E-1,-5.485046506E-1,4.094542265E-1
2.112340063E0,-3.010692894E-1,-5.836380720E-1,4.270296991E-1
2.114352563E0,-2.824466228E-1,-6.097133160E-1,4.424584210E-1
2.116340063E0,-2.616772056E-1,-6.267477274E-1,4.589692354E-1
2.118340063E0,-2.382548898E-1,-6.336767077E-1,4.754625857E-1
2.120922875E0,-1.967509687E-1,-6.336767077E-1,4.999495745E-1
2.122341625E0,-1.823694557E-1,-6.326120496E-1,5.095314384E-1
2.124388500E0,-1.520181745E-1,-6.294180751E-1,5.286951065E-1
2.126340063E0,-1.211433038E-1,-6.235537529E-1,5.478588343E-1
2.128340063E0,-9.025097638E-2,-6.187541485E-1,5.670225620E-1
2.130341625E0,-5.991715193E-2,-6.160837412E-1,5.840569735E-1
2.132341625E0,-3.117158078E-2,-6.187541485E-1,5.978974104E-1
2.134341625E0,-2.967059612E-3,-6.235537529E-1,6.085439324E-1
2.136341625E0,2.628465928E-2,-6.299417019E-1,6.170611382E-1
2.138341625E0,5.768313259E-2,-6.395409703E-1,6.229254603E-1
2.140922875E0,1.082627699E-1,-6.544286609E-1,6.282486916E-1
2.142363500E0,1.252971888E-1,-6.586872339E-1,6.293133497E-1
2.144340063E0,1.556484550E-1,-6.650751829E-1,6.314426661E-1
2.146341625E0,1.801354289E-1,-6.672044396E-1,6.330308914E-1
2.148341625E0,1.971873045E-1,-6.608165503E-1,6.330308914E-1
2.150341625E0,2.088984549E-1,-6.453704238E-1,6.335719824E-1
2.152341625E0,2.237861156E-1,-6.240948439E-1,6.335719824E-1
2.154341625E0,2.461437881E-1,-6.075839996E-1,6.330308914E-1
2.156341625E0,2.786069214E-1,-5.974785686E-1,6.319662929E-1
2.158341625E0,3.185575008E-1,-5.958554149E-1,6.298369765E-1
2.160926000E0,3.914773464E-1,-6.075839996E-1,6.239901185E-1
2.162341625E0,4.186172187E-1,-6.139719486E-1,6.218608022E-1
2.164391625E0,4.739790559E-1,-6.283534169E-1,6.159964800E-1
2.166340063E0,5.314701796E-1,-6.421764493E-1,6.096085906E-1
2.168341625E0,5.862910151E-1,-6.517757773E-1,6.042853594E-1
2.170341625E0,6.395409703E-1,-6.544286609E-1,6.005678177E-1
2.172341625E0,6.911678314E-1,-6.533640027E-1,5.963091850E-1
2.174341625E0,7.396181822E-1,-6.485643387E-1,5.931152105E-1
2.176166625E0,7.853981853E-1,-6.405881643E-1,5.915095210E-1
2.178341625E0,8.300960660E-1,-6.331356168E-1,5.893802047E-1
2.180924438E0,8.923868537E-1,-6.326120496E-1,5.803394318E-1
2.182679125E0,9.126151800E-1,-6.368706226E-1,5.760807991E-1
2.184341625E0,9.509251714E-1,-6.528403759E-1,5.638285875E-1
2.186341625E0,9.860586524E-1,-6.810624003E-1,5.457295775E-1
2.188341625E0,1.018539190E0,-7.225663066E-1,5.233718753E-1
2.190341625E0,1.046220183E0,-7.699519992E-1,4.956909716E-1
2.192341625E0,1.066989541E0,-8.167966604E-1,4.653571248E-1
2.194341625E0,1.079224348E0,-8.577769399E-1,4.312883019E-1
2.196341625E0,1.082959294E0,-8.907811642E-1,3.945491314E-1
2.198366625E0,1.077636123E0,-9.163327813E-1,3.556981087E-1
2.200922875E0,1.054754853E0,-9.456019402E-1,3.003362417E-1
2.202363500E0,1.044108272E0,-9.535781145E-1,2.838254273E-1
2.204418188E0,1.021209598E0,-9.668949246E-1,2.540152073E-1
2.206341625E0,9.961990118E-1,-9.738239050E-1,2.263343036E-1
2.208347875E0,9.716945887E-1,-9.764942527E-1,2.018473297E-1
2.210341625E0,9.498779774E-1,-9.732828736E-1,1.810953617E-1
2.212341625E0,9.285849929E-1,-9.653066993E-1,1.624552459E-1
2.214341625E0,9.094212651E-1,-9.509426355E-1,1.459618807E-1
2.216341625E0,8.886693120E-1,-9.301732183E-1,1.305157244E-1
2.218341625E0,8.678998947E-1,-9.019512534E-1,1.150870100E-1
2.220922875E0,8.316842914E-1,-8.460832834E-1,9.325294197E-2
2.222376000E0,8.194495440E-1,-8.237255812E-1,8.580038697E-2
2.224343188E0,7.960272431E-1,-7.742105722E-1,7.195992768E-2
2.226341625E0,7.741931677E-1,-7.193897963E-1,5.811946467E-2
2.228341625E0,7.555704713E-1,-6.618812084E-1,4.534365237E-2
2.230341625E0,7.417300344E-1,-6.059957743E-1,3.204424679E-2
2.232346313E0,7.311009765E-1,-5.532868505E-1,1.979203336E-2
2.234341625E0,7.231073380E-1,-5.064421892E-1,7.557275705E-3
2.236341625E0,7.167194486E-1,-4.675911665E-1,-3.612831468E-3
2.238341625E0,7.113962173E-1,-4.351105690E-1,-1.425934024E-2
2.241013500E0,7.076612115E-1,-3.999945521E-1,-2.542944625E-2
2.242416625E0,7.071201205E-1,-3.898716569E-1,-2.916445211E-2
2.244341625E0,7.071201205E-1,-3.675139844E-1,-3.661700711E-2
2.246341625E0,7.049908638E-1,-3.387683928E-1,-4.141666368E-2
2.248340063E0,7.002086639E-1,-3.020466864E-1,-4.459316283E-2
2.250341625E0,6.927560568E-1,-2.599842548E-1,-4.513421282E-2
2.252341625E0,6.863681674E-1,-2.152689099E-1,-4.139921069E-2
2.254341625E0,6.837152839E-1,-1.705535799E-1,-3.394665569E-2
2.256352563E0,6.837152839E-1,-1.279500872E-1,-2.649409883E-2
2.258341625E0,6.837152839E-1,-9.283406287E-2,-2.171189524E-2
2.260969750E0,6.815859675E-1,-5.503023043E-2,-1.904154196E-2
2.262696313E0,6.810449362E-1,-4.705407470E-2,-1.904154196E-2
2.264351000E0,6.773273945E-1,-3.373721614E-2,-2.223549411E-2
2.266371313E0,6.714805365E-1,-2.467895485E-2,-2.862340026E-2
2.268341625E0,6.650751829E-1,-1.937315427E-2,-3.607595712E-2
2.270341625E0,6.570990086E-1,-1.563815027E-2,-4.513421282E-2
2.272341625E0,6.496639252E-1,-1.403244678E-2,-5.417501926E-2
2.274341625E0,6.422113776E-1,-1.455604564E-2,-6.162757427E-2
2.276341625E0,6.374117136E-1,-1.776745170E-2,-7.014477998E-2
2.278341625E0,6.347413659E-1,-2.469640970E-2,-7.813838869E-2
2.280922875E0,6.331356168E-1,-3.162536770E-2,-8.665559441E-2
2.282404125E0,6.336767077E-1,-3.747221828E-2,-9.623745829E-2
2.284340063E0,6.352649331E-1,-4.066617042E-2,-1.063429117E-1
2.286341625E0,6.389999390E-1,-4.118977115E-2,-1.164658219E-1
2.288341625E0,6.432585716E-1,-3.799581900E-2,-1.265712827E-1
2.290341625E0,6.485818028E-1,-3.214896470E-2,-1.356295347E-1
2.292341625E0,6.544461250E-1,-2.309070528E-2,-1.441467404E-1
2.294341625E0,6.618986726E-1,-1.031489577E-2,-1.505346447E-1
2.296341625E0,6.714630723E-1,3.508111695E-3,-1.558579057E-1
2.298343188E0,6.821095943E-1,1.893682219E-2,-1.606401056E-1
2.300921313E0,6.943618059E-1,3.385938704E-2,-1.643751115E-1
2.302365063E0,7.071375847E-1,4.609414563E-2,-1.686337143E-1
2.304410375E0,7.199134231E-1,5.834635720E-2,-1.718276590E-1
2.306343188E0,7.332128286E-1,6.845181435E-2,-1.755452156E-1
2.308341625E0,7.454650402E-1,7.696902007E-2,-1.798038185E-1
2.310341625E0,7.571761608E-1,8.600982279E-2,-1.851270795E-1
2.312341625E0,7.683463097E-1,9.559167922E-2,-1.899267286E-1
2.314358813E0,7.768635154E-1,1.041088924E-1,-1.941853315E-1
2.316341625E0,7.848570943E-1,1.110378429E-1,-1.979028881E-1
2.318341625E0,7.896392941E-1,1.179493517E-1,-2.000321895E-1
2.320921313E0,7.933743000E-1,1.238136590E-1,-2.010968328E-1
2.322366625E0,7.939153910E-1,1.280722618E-1,-2.010968328E-1
2.324351000E0,7.938979268E-1,1.302015632E-1,-2.010968328E-1
2.326341625E0,7.907039523E-1,1.291369051E-1,-2.010968328E-1
2.328341625E0,7.837924361E-1,1.243372560E-1,-2.032261342E-1
2.330688500E0,7.752752304E-1,1.174257547E-1,-2.074847370E-1
2.332383813E0,7.688873410E-1,1.099731922E-1,-2.133490443E-1
2.334341625E0,7.662169933E-1,1.030442417E-1,-2.186723053E-1
2.336341625E0,7.640876770E-1,9.611528367E-2,-2.223898470E-1
2.338341625E0,7.624819875E-1,9.026842564E-2,-2.250602096E-1
2.340949438E0,7.603701353E-1,8.388052136E-2,-2.250602096E-1
2.342679125E0,7.577172518E-1,7.751007378E-2,-2.239955515E-1
2.344341625E0,7.539822459E-1,7.164576650E-2,-2.229309082E-1
2.346343188E0,7.475943565E-1,6.312856078E-2,-2.229309082E-1
2.348349438E0,7.379950285E-1,4.874704406E-2,-2.266484499E-1
2.350341625E0,7.241545320E-1,2.584832534E-2,-2.341184616E-1
2.352341625E0,7.081847787E-1,-3.403391922E-3,-2.399653196E-1
2.354341625E0,6.975382566E-1,-2.682571113E-2,-2.410299629E-1
2.356351000E0,6.996850371E-1,-2.042035200E-2,-2.298424095E-1
2.358341625E0,7.140491009E-1,1.308996975E-2,-2.128079981E-1
2.360944750E0,7.326892018E-1,5.674065277E-2,-1.957735866E-1
2.362346313E0,7.475943565E-1,9.772098809E-2,-1.792802215E-1
2.364413500E0,7.513293624E-1,1.238136590E-1,-1.622458100E-1
2.366340063E0,7.454650402E-1,1.424537748E-1,-1.462760419E-1
2.368340063E0,7.342948914E-1,1.616174877E-1,-1.335002333E-1
2.370341625E0,7.199134231E-1,1.823694557E-1,-1.228537261E-1
2.372341625E0,7.028790116E-1,2.004685104E-1,-1.148601174E-1
2.374341625E0,6.842388511E-1,2.153736353E-1,-1.100779176E-1
2.376341625E0,6.645515561E-1,2.260201424E-1,-1.068839654E-1
2.378341625E0,6.437821388E-1,2.324080467E-1,-1.042136103E-1
2.380921313E0,6.224891543E-1,2.361255884E-1,-1.015607119E-1
2.382461938E0,6.006724834E-1,2.371902466E-1,-9.889035672E-2
2.384341625E0,5.788384676E-1,2.361255884E-1,-9.730210900E-2
2.386341625E0,5.580864549E-1,2.339962870E-1,-9.463175386E-2
2.388341625E0,5.383816957E-1,2.313433886E-1,-9.197884798E-2
2.390341625E0,5.186944008E-1,2.281494439E-1,-8.717919886E-2
2.392341625E0,4.990070760E-1,2.249554843E-1,-8.185594529E-2
2.394341625E0,4.814490676E-1,2.217615396E-1,-7.759733498E-2
2.396341625E0,4.638735950E-1,2.196322381E-1,-7.120943069E-2
2.398341625E0,4.457745552E-1,2.169793248E-1,-6.536258012E-2
2.400965063E0,4.276754856E-1,2.148500234E-1,-5.791002512E-2
2.402366625E0,4.090353549E-1,2.127032727E-1,-5.098106712E-2
2.404341625E0,4.005181491E-1,2.111150324E-1,-4.778711498E-2
2.406341625E0,3.829601407E-1,2.079210728E-1,-4.087560996E-2
2.408341625E0,3.648610711E-1,2.026152760E-1,-3.501130641E-2
2.410341625E0,3.462209702E-1,1.967509687E-1,-2.968805097E-2
2.412341625E0,3.265336454E-1,1.903630644E-1,-2.490584925E-2
2.414341625E0,3.063052893E-1,1.834340990E-1,-2.010619268E-2
2.416341625E0,2.871241271E-1,1.754404902E-1,-1.532399096E-2
2.418341625E0,2.674368024E-1,1.679879427E-1,-1.158898603E-2
2.420924438E0,2.365619242E-1,1.589471400E-1,-6.265731994E-3
2.422694750E0,2.173982114E-1,1.536238790E-1,-3.071779385E-3
2.424341625E0,2.078163475E-1,1.509535313E-1,-2.007128671E-3
2.426341625E0,1.881115884E-1,1.456302702E-1,1.169370604E-3
2.428341625E0,1.684242785E-1,1.403070241E-1,3.822271014E-3
2.430341625E0,1.497841626E-1,1.349837631E-1,7.016223390E-3
2.432341625E0,1.306204349E-1,1.285958588E-1,9.145525284E-3
2.434341625E0,1.125213802E-1,1.222079545E-1,1.181587856E-2
2.436341625E0,9.655161202E-2,1.158200502E-1,1.446877979E-2
2.438341625E0,8.271115273E-2,1.104967967E-1,1.607448235E-2
2.440924438E0,6.407103688E-2,1.025031880E-1,1.872738265E-2
2.442366625E0,5.874778330E-2,9.878563881E-2,1.979203336E-2
2.444340063E0,4.757767543E-2,9.185668081E-2,2.192133479E-2
2.446341625E0,3.639011458E-2,8.494517207E-2,2.352703735E-2
2.448341625E0,2.734931000E-2,7.803367078E-2,2.511528693E-2
2.450341625E0,2.096140385E-2,7.110471278E-2,2.724459022E-2
2.452341625E0,1.563815027E-2,6.419321150E-2,2.937389165E-2
2.454341625E0,1.085594762E-2,5.726425350E-2,3.256784379E-2
2.456341625E0,6.597344764E-3,5.141739920E-2,3.630284965E-2
2.458341625E0,3.403391922E-3,4.663519561E-2,4.108504951E-2
2.460927563E0,2.094395168E-4,4.022983834E-2,5.014330894E-2
2.462341625E0,-2.967059845E-4,3.811798990E-2,5.333726108E-2
2.464391625E0,-1.361356815E-3,3.331833705E-2,5.972516537E-2
2.466341625E0,-1.902408898E-3,2.960078418E-2,6.717772037E-2
2.468341625E0,-1.361356815E-3,2.427753061E-2,7.569492608E-2
2.470341625E0,-1.361356815E-3,2.160717547E-2,8.473573625E-2
2.472341625E0,-1.361356815E-3,1.682497375E-2,9.379399568E-2
2.474341625E0,-1.361356815E-3,1.043706853E-2,1.023112014E-1
2.476341625E0,-8.203047328E-4,5.113814492E-3,1.113520041E-1
2.478341625E0,2.094395168E-4,-1.919862116E-4,1.214749143E-1
2.480924438E0,1.274090377E-3,-7.644542027E-3,1.358389705E-1
2.482365063E0,2.338741207E-3,-9.773843922E-3,1.400975734E-1
2.484341625E0,4.468042869E-3,-1.457349956E-2,1.491558403E-1
2.486341625E0,7.661995478E-3,-1.883210242E-2,1.576730460E-1
2.488341625E0,9.808750823E-3,-2.200860158E-2,1.656492054E-1
2.490341625E0,1.033234876E-2,-2.467895485E-2,1.725781560E-1
2.492341625E0,9.791296907E-3,-2.734931000E-2,1.805543154E-1
2.494341625E0,7.661995478E-3,-2.895501256E-2,1.874832660E-1
2.496341625E0,5.532693584E-3,-3.001966327E-2,1.928065270E-1
2.498341625E0,2.338741207E-3,-3.108431399E-2,1.981297731E-1
2.500922875E0,-5.619960371E-3,-3.213151172E-2,2.045176774E-1
2.502819750E0,-1.150172018E-2,-3.214896470E-2,2.071705759E-1
2.504341625E0,-1.469567232E-2,-3.269001842E-2,2.077116370E-1
2.506341625E0,-2.054252476E-2,-3.427826613E-2,2.082352340E-1
2.508341625E0,-2.747148275E-2,-3.747221828E-2,2.071705759E-1
2.510341625E0,-3.279473633E-2,-4.173082113E-2,2.061059326E-1
2.512341625E0,-4.024729133E-2,-4.759512842E-2,2.034530342E-1
2.514341625E0,-4.769985005E-2,-5.557128415E-2,1.981123239E-1
2.516341625E0,-5.248204991E-2,-6.408849359E-2,1.906772256E-1
2.518341625E0,-5.567600206E-2,-7.632324845E-2,1.810953617E-1
2.520922875E0,-5.832890421E-2,-9.920451790E-2,1.635199040E-1
2.522363500E0,-5.832890421E-2,-1.071981192E-1,1.571319848E-1
2.524341625E0,-5.674065277E-2,-1.247735843E-1,1.427679360E-1
2.526341625E0,-5.407030135E-2,-1.439373046E-1,1.262571216E-1
2.528341625E0,-5.035274848E-2,-1.631010175E-1,1.092227027E-1
2.530341625E0,-4.448844120E-2,-1.822647303E-1,9.005898982E-2
2.532341625E0,-3.649483621E-2,-2.008873969E-1,6.824237108E-2
2.534341625E0,-2.851868048E-2,-2.195100635E-1,4.534365237E-2
2.536166625E0,-1.893682219E-2,-2.370855212E-1,2.246238664E-2
2.538341625E0,-8.831365965E-3,-2.530552745E-1,1.047197584E-4
2.540924438E0,7.120943163E-3,-2.685014606E-1,-2.862340026E-2
2.542513500E0,1.350884791E-2,-2.722190022E-1,-3.820525855E-2
2.544165063E0,2.789036185E-2,-2.780832946E-1,-5.578072369E-2
2.546341625E0,4.331907257E-2,-2.802126110E-1,-7.175048441E-2
2.548341625E0,6.035348400E-2,-2.807362080E-1,-8.611454815E-2
2.550341625E0,7.847000659E-2,-2.775422633E-1,-9.836675972E-2
2.552341625E0,9.869837016E-2,-2.727425992E-1,-1.090132669E-1
2.554341625E0,1.199739352E-1,-2.663721442E-1,-1.175304726E-1
2.556341625E0,1.418080032E-1,-2.578549385E-1,-1.217890754E-1
2.558341625E0,1.631010175E-1,-2.482730895E-1,-1.249830276E-1
2.560927563E0,1.923876405E-1,-2.344151735E-1,-1.255066246E-1
2.562341625E0,2.014459074E-1,-2.290919125E-1,-1.244419739E-1
2.564394750E0,2.173982114E-1,-2.189864665E-1,-1.223126724E-1
2.566341625E0,2.317797244E-1,-2.083399594E-1,-1.185951233E-1
2.568341625E0,2.456201911E-1,-1.939584464E-1,-1.159247681E-1
2.570341625E0,2.594606578E-1,-1.753357798E-1,-1.132718697E-1
2.572341625E0,2.711543441E-1,-1.556484550E-1,-1.095368639E-1
2.574341625E0,2.791479528E-1,-1.375494003E-1,-1.068839654E-1
2.576341625E0,2.839301527E-1,-1.199739352E-1,-1.026253626E-1
2.578341625E0,2.860769033E-1,-1.029395163E-1,-9.676105529E-2
2.580924438E0,2.860769033E-1,-7.897614688E-2,-8.611454815E-2
2.582954125E0,2.855358720E-1,-6.461209059E-2,-7.707373798E-2
2.584174438E0,2.855358720E-1,-5.663593486E-2,-7.175048441E-2
2.586341625E0,2.876477242E-1,-4.120722413E-2,-6.003932655E-2
2.588341625E0,2.897770107E-1,-2.790781483E-2,-4.673991725E-2
2.590341625E0,2.919063270E-1,-1.884955540E-2,-3.129375353E-2
2.592341625E0,2.951177359E-1,-1.137954649E-2,-1.638864167E-2
2.594341625E0,2.977880836E-1,-7.644542027E-3,6.283185212E-4
2.596341625E0,2.967234254E-1,-8.709193207E-3,1.926843449E-2
2.598354125E0,2.924648225E-1,-1.670280099E-2,3.789109737E-2
2.600924438E0,2.796715498E-1,-3.214896470E-2,6.770132482E-2
2.602366625E0,2.738246918E-1,-3.799581900E-2,7.728318125E-2
2.604343188E0,2.610488832E-1,-5.183627829E-2,9.485864639E-2
2.606341625E0,2.477320284E-1,-6.887069345E-2,1.113520041E-1
2.608341625E0,2.312386781E-1,-8.642870188E-2,1.251924634E-1
2.610341625E0,2.152689099E-1,-1.045452207E-1,1.369036287E-1
2.612341625E0,1.971698403E-1,-1.199739352E-1,1.464854777E-1
2.614347875E0,1.769414842E-1,-1.359436959E-1,1.539380401E-1
2.616341625E0,1.561895162E-1,-1.519134641E-1,1.603259444E-1
2.618341625E0,1.354200989E-1,-1.694714725E-1,1.624552459E-1
2.620921313E0,1.162563786E-1,-1.902408898E-1,1.624552459E-1
2.622366625E0,1.008276716E-1,-2.131221592E-1,1.587376893E-1
2.624343188E0,9.229300916E-2,-2.354972810E-1,1.512851417E-1
2.626341625E0,9.178686142E-2,-2.562317848E-1,1.411622316E-1
2.628341625E0,1.024159193E-1,-2.748893499E-1,1.305157244E-1
2.630341625E0,1.236914843E-1,-2.871415615E-1,1.182809621E-1
2.632341625E0,1.551074088E-1,-2.924473584E-1,1.060287505E-1
2.634341625E0,1.891762316E-1,-2.881887555E-1,9.325294197E-2
2.636341625E0,2.200511098E-1,-2.732836604E-1,7.834783196E-2
2.638341625E0,2.461612374E-1,-2.493202835E-1,6.237806752E-2
2.640924438E0,2.626371384E-1,-2.205921561E-1,4.482005537E-2
2.642427563E0,2.690250576E-1,-1.902408898E-1,2.617993951E-2
2.644341625E0,2.674368024E-1,-1.604306698E-1,7.016223390E-3
2.646341625E0,2.631607354E-1,-1.338318437E-1,-9.459684603E-3
2.648341625E0,2.589195967E-1,-1.119977757E-1,-2.330014482E-2
2.650341625E0,2.594431937E-1,-9.548696131E-2,-3.075270168E-2
2.652341625E0,2.631781995E-1,-8.536405116E-2,-3.288200125E-2
2.654341625E0,2.711718082E-1,-8.271115273E-2,-2.968805097E-2
2.656341625E0,2.850122750E-1,-8.642870188E-2,-2.542944625E-2
2.658341625E0,3.004584312E-1,-9.068730474E-2,-2.171189524E-2
2.660927563E0,3.185400367E-1,-9.388125688E-2,-2.064724453E-2
2.662819750E0,3.339861929E-1,-9.335765988E-2,-2.436479554E-2
2.664341625E0,3.440916538E-1,-8.803440630E-2,-3.181735054E-2
2.666355688E0,3.467445672E-1,-8.058185130E-2,-4.300491139E-2
2.668341625E0,3.430269957E-1,-7.099999487E-2,-5.471607298E-2
2.670341625E0,3.307922482E-1,-6.194173545E-2,-6.642723083E-2
2.672341625E0,3.105638921E-1,-5.661848187E-2,-7.707373798E-2
2.674341625E0,2.855184078E-1,-5.291838199E-2,-8.559094369E-2
2.676341625E0,2.583785355E-1,-4.864232615E-2,-9.197884798E-2
2.678341625E0,2.285683155E-1,-4.438372329E-2,-9.623745829E-2
2.680924438E0,1.966287941E-1,-3.801327199E-2,-9.782570601E-2
2.682686938E0,1.630835682E-1,-3.001966327E-2,-9.571385384E-2
2.684388500E0,1.279500872E-1,-1.884955540E-2,-8.932594955E-2
2.686340063E0,9.227555990E-2,-3.944444004E-3,-8.133234084E-2
2.688341625E0,5.663593486E-2,1.308996975E-2,-7.333873212E-2
2.690351000E0,1.883210242E-2,2.693043090E-2,-6.695082784E-2
2.692341625E0,-2.106612362E-2,3.492403775E-2,-6.162757427E-2
2.694341625E0,-6.098180264E-2,3.598868847E-2,-5.791002512E-2
2.696341625E0,-1.003738865E-1,3.014183603E-2,-5.736897141E-2
2.698349438E0,-1.387013197E-1,1.734857261E-2,-6.110397726E-2
2.700921313E0,-1.759815514E-1,-2.338741207E-3,-6.536258012E-2
2.702368188E0,-2.095093280E-1,-2.787290886E-2,-7.281513512E-2
2.704343188E0,-2.377312928E-1,-5.876523629E-2,-8.239699155E-2
2.706354125E0,-2.611536086E-1,-9.070476145E-2,-9.356710315E-2
2.708341625E0,-2.803173363E-1,-1.221206859E-1,-1.058193147E-1
2.710341625E0,-2.957634926E-1,-1.529955566E-1,-1.175304726E-1
2.712341625E0,-3.074572086E-1,-1.838529855E-1,-1.271123290E-1
2.714343188E0,-3.143861592E-1,-2.131396085E-1,-1.350884885E-1
2.716341625E0,-3.191683590E-1,-2.413441241E-1,-1.409527957E-1
2.718341625E0,-3.207740486E-1,-2.679778636E-1,-1.446703374E-1
2.720924438E0,-3.197094202E-1,-2.924473584E-1,-1.452113986E-1
2.722366625E0,-3.149097562E-1,-3.121521473E-1,-1.425410360E-1
2.724382250E0,-3.053278923E-1,-3.265161812E-1,-1.382824332E-1
2.726341625E0,-2.936342061E-1,-3.361155093E-1,-1.318945289E-1
2.728341625E0,-2.808583677E-1,-3.403741121E-1,-1.228537261E-1
2.730341625E0,-2.680825591E-1,-3.408977091E-1,-1.116836220E-1
2.732357250E0,-2.553067505E-1,-3.371801674E-1,-9.995500743E-2
2.734341625E0,-2.457074523E-1,-3.286454976E-1,-8.930850029E-2
2.736341625E0,-2.393195480E-1,-3.164107502E-1,-7.759733498E-2
2.738341625E0,-2.318669856E-1,-2.961823642E-1,-6.642723083E-2
2.740927563E0,-2.260201424E-1,-2.716954052E-1,-5.630432069E-2
2.742724438E0,-2.212204784E-1,-2.466673851E-1,-4.565781355E-2
2.744341625E0,-2.164382786E-1,-2.264390141E-1,-3.607595712E-2
2.746369750E0,-2.143089771E-1,-2.110103071E-1,-2.703515068E-2
2.748341625E0,-2.158972323E-1,-2.019520402E-1,-1.851794310E-2
2.750341625E0,-2.201558352E-1,-1.944994926E-1,-1.000073645E-2
2.752341625E0,-2.265437394E-1,-1.907644868E-1,-2.548180753E-3
2.754341625E0,-2.345198840E-1,-1.891762316E-1,4.363323096E-3
2.756341625E0,-2.441017479E-1,-1.838529855E-1,1.233947743E-2
2.758341625E0,-2.542246580E-1,-1.758593768E-1,2.139773592E-2
2.760926000E0,-2.659358084E-1,-1.673421711E-1,3.204424679E-2
2.762366625E0,-2.786941826E-1,-1.566956639E-1,4.375540465E-2
2.764341625E0,-2.856231332E-1,-1.508488059E-1,5.014330894E-2
2.766346313E0,-2.989225388E-1,-1.359436959E-1,6.450736523E-2
2.768341625E0,-3.143686950E-1,-1.189092845E-1,8.047713339E-2
2.770341625E0,-3.292738199E-1,-1.002691686E-1,9.964084625E-2
2.772341625E0,-3.457846344E-1,-7.951720059E-2,1.214749143E-1
2.774341625E0,-3.617543876E-1,-5.768313259E-2,1.443561763E-1
2.776361938E0,-3.787887990E-1,-3.267256171E-2,1.677785069E-1
2.778349438E0,-3.958057761E-1,-4.974188283E-3,1.901361644E-1
2.780921313E0,-4.203101993E-1,3.918264061E-2,2.210110426E-1
2.782366625E0,-4.282863438E-1,5.354670063E-2,2.300692946E-1
2.784341625E0,-4.437325001E-1,8.175121993E-2,2.460390627E-1
2.786341625E0,-4.602433145E-1,1.067617908E-1,2.582738101E-1
2.788341625E0,-4.794070423E-1,1.259429604E-1,2.667910159E-1
2.790341625E0,-5.017472506E-1,1.387187690E-1,2.715906799E-1
2.792341625E0,-5.273163319E-1,1.472359747E-1,2.705260217E-1
2.794341625E0,-5.539326072E-1,1.525592357E-1,2.667910159E-1
2.796341625E0,-5.789431930E-1,1.584235430E-1,2.609441876E-1
2.798341625E0,-6.007772088E-1,1.632057428E-1,2.561445236E-1
2.800954125E0,-6.289817691E-1,1.738522500E-1,2.529505789E-1
2.802424438E0,-6.374989748E-1,1.781108528E-1,2.529505789E-1
2.804341625E0,-6.513394117E-1,1.882162988E-1,2.550798655E-1
2.806341625E0,-6.593330503E-1,2.015331686E-1,2.593384683E-1
2.808341625E0,-6.646388173E-1,2.148500234E-1,2.652027905E-1
2.810341625E0,-6.646388173E-1,2.265611887E-1,2.721142769E-1
2.812341625E0,-6.614623070E-1,2.366491854E-1,2.795668244E-1
2.814341625E0,-6.545333862E-1,2.441191971E-1,2.875604331E-1
2.816341625E0,-6.454925537E-1,2.473131567E-1,2.950130105E-1
2.818341625E0,-6.358932853E-1,2.473131567E-1,3.045948744E-1
2.820924438E0,-6.236584783E-1,2.451838553E-1,3.178942800E-1
2.822819750E0,-6.167470217E-1,2.425134927E-1,3.253468275E-1
2.824341625E0,-6.146177053E-1,2.409252524E-1,3.290818334E-1
2.826341625E0,-6.109001637E-1,2.393195480E-1,3.365343809E-1
2.828341625E0,-6.087533832E-1,2.387959510E-1,3.434458971E-1
2.830341625E0,-6.082298160E-1,2.393195480E-1,3.498337865E-1
2.832341625E0,-6.092944145E-1,2.409252524E-1,3.556981087E-1
2.834341625E0,-6.108826995E-1,2.419898957E-1,3.610213399E-1
2.836341625E0,-6.140766144E-1,2.441191971E-1,3.668681979E-1
2.838341625E0,-6.172705889E-1,2.457074523E-1,3.711268008E-1
2.840924438E0,-6.236759424E-1,2.483603507E-1,3.759264648E-1
2.842365063E0,-6.257877946E-1,2.499660552E-1,3.764500618E-1
2.844341625E0,-6.295228004E-1,2.515543103E-1,3.775147200E-1
2.846341625E0,-6.380400062E-1,2.425134927E-1,3.769911230E-1
2.848341625E0,-6.513394117E-1,2.297376841E-1,3.753854036E-1
2.850341625E0,-6.603977084E-1,2.233497798E-1,3.700621724E-1
2.852341625E0,-6.668030620E-1,2.196147740E-1,3.641978502E-1
2.854341625E0,-6.726499200E-1,2.116386294E-1,3.572863638E-1
2.856341625E0,-6.795613766E-1,2.009921223E-1,3.487691283E-1
2.858341625E0,-6.880785823E-1,1.871516556E-1,3.397283256E-1
2.860927563E0,-7.051129937E-1,1.557357311E-1,3.210882246E-1
2.862363500E0,-7.109773159E-1,1.445656270E-1,3.141767085E-1
2.864416625E0,-7.232120633E-1,1.206022501E-1,2.997952104E-1
2.866341625E0,-7.365114689E-1,9.293878078E-2,2.838254273E-1
2.868341625E0,-7.492873073E-1,6.419321150E-2,2.641381323E-1
2.870341625E0,-7.620630860E-1,3.438298777E-2,2.433687150E-1
2.872341625E0,-7.732332349E-1,5.637413356E-3,2.220756859E-1
2.874341625E0,-7.812268138E-1,-1.829105057E-2,2.002590746E-1
2.876341625E0,-7.833561301E-1,-3.373721614E-2,1.784250140E-1
2.878341625E0,-7.817679048E-1,-4.438372329E-2,1.587376893E-1
2.880924438E0,-7.753799558E-1,-5.557128415E-2,1.342507303E-1
2.882366625E0,-7.727270722E-1,-5.717698485E-2,1.267981678E-1
2.884341625E0,-7.663217187E-1,-5.981243402E-2,1.124166548E-1
2.886341625E0,-7.615220547E-1,-6.248278543E-2,9.964084625E-2
2.888341625E0,-7.578045130E-1,-6.302383542E-2,8.740609139E-2
2.890341625E0,-7.540869713E-1,-6.675884128E-2,7.463027537E-2
2.892341625E0,-7.524986863E-1,-7.047639787E-2,6.131341681E-2
2.894341625E0,-7.519576550E-1,-7.419394702E-2,4.534365237E-2
2.896166625E0,-7.524812222E-1,-8.004079759E-2,2.937389165E-2
2.898341625E0,-7.556751966E-1,-8.749335259E-2,1.233947743E-2
2.900924438E0,-7.599338293E-1,-9.813986719E-2,-1.371828746E-2
2.902954125E0,-7.615395188E-1,-1.018748656E-1,-3.075270168E-2
2.904176000E0,-7.620630860E-1,-1.040041670E-1,-3.926990926E-2
2.906341625E0,-7.620630860E-1,-1.066570729E-1,-5.578072369E-2
2.908341625E0,-7.609984875E-1,-1.071981192E-1,-7.068583369E-2
2.910341625E0,-7.588691711E-1,-1.077391729E-1,-8.346164227E-2
2.912341625E0,-7.556751966E-1,-1.066570729E-1,-9.463175386E-2
2.914341625E0,-7.514166236E-1,-1.055924222E-1,-1.047546640E-1
2.916341625E0,-7.455523014E-1,-1.034631208E-1,-1.137954667E-1
2.918341625E0,-7.397054434E-1,-1.002691686E-1,-1.212480217E-1
2.920924438E0,-7.285353541E-1,-9.389871359E-2,-1.303062886E-1
2.922368188E0,-7.242767215E-1,-9.176941216E-2,-1.324355900E-1
2.924410375E0,-7.168241739E-1,-8.696975559E-2,-1.361531317E-1
2.926341625E0,-7.088305950E-1,-8.218755573E-2,-1.398881376E-1
2.928341625E0,-6.997722983E-1,-7.632324845E-2,-1.414763927E-1
2.930341625E0,-6.891432405E-1,-6.941174716E-2,-1.420174390E-1
2.932341625E0,-6.774321198E-1,-6.089453772E-2,-1.425410360E-1
2.934341625E0,-6.625444293E-1,-5.026548356E-2,-1.420174390E-1
2.936341625E0,-6.460336447E-1,-4.173082113E-2,-1.414938420E-1
2.938341625E0,-6.295228004E-1,-3.427826613E-2,-1.414763927E-1
2.940966625E0,-6.055768728E-1,-2.736676298E-2,-1.414938420E-1
2.942368188E0,-5.970596671E-1,-2.630211227E-2,-1.414938420E-1
2.944340063E0,-5.816309452E-1,-2.684316412E-2,-1.446878016E-1
2.946341625E0,-5.672494769E-1,-3.110176697E-2,-1.484053433E-1
2.948341625E0,-5.549972653E-1,-3.853686899E-2,-1.531875432E-1
2.950341625E0,-5.438097119E-1,-4.757767543E-2,-1.601165086E-1
2.952341625E0,-5.326395631E-1,-5.715953186E-2,-1.680926532E-1
2.954341625E0,-5.225166678E-1,-6.461209059E-2,-1.755452156E-1
2.956341625E0,-5.139994621E-1,-7.154104859E-2,-1.835388243E-1
2.958341625E0,-5.060058832E-1,-7.951720059E-2,-1.904503256E-1
2.960924438E0,-4.964414537E-1,-9.122835845E-2,-2.021614909E-1
2.962368188E0,-4.937711060E-1,-9.548696131E-2,-2.064200938E-1
2.964372875E0,-4.900535345E-1,-1.056098714E-1,-2.149372995E-1
2.966341625E0,-4.868595898E-1,-1.151917279E-1,-2.250602096E-1
2.968341625E0,-4.847303033E-1,-1.221206859E-1,-2.357067168E-1
2.970341625E0,-4.831420481E-1,-1.253146380E-1,-2.452885658E-1
2.972341625E0,-4.820773900E-1,-1.258382350E-1,-2.527411282E-1
2.974341625E0,-4.809952974E-1,-1.263618320E-1,-2.607172728E-1
2.976341625E0,-4.804717004E-1,-1.252971888E-1,-2.681698501E-1
2.978341625E0,-4.799306393E-1,-1.226268336E-1,-2.740341425E-1
2.980921313E0,-4.788659811E-1,-1.199739352E-1,-2.793574035E-1
2.982693188E0,-4.772777259E-1,-1.167799830E-1,-2.846806645E-1
2.984341625E0,-4.778013229E-1,-1.157153323E-1,-2.883982062E-1
2.986341625E0,-4.804717004E-1,-1.151917279E-1,-2.926568091E-1
2.988341625E0,-4.847128391E-1,-1.151742786E-1,-2.990446985E-1
2.990341625E0,-4.900361001E-1,-1.167799830E-1,-3.070383072E-1
2.992341625E0,-4.959003925E-1,-1.215796322E-1,-3.171437681E-1
2.994341625E0,-5.044350624E-1,-1.306378990E-1,-3.283313513E-1
2.996341625E0,-5.134758353E-1,-1.418080032E-1,-3.405660987E-1
2.998341625E0,-5.230576992E-1,-1.535191536E-1,-3.528183103E-1
3.000924438E0,-5.326220989E-1,-1.662775129E-1,-3.655941188E-1
3.002365063E0,-5.411567688E-1,-1.790707856E-1,-3.778288662E-1
3.004416625E0,-5.507211685E-1,-1.928937882E-1,-3.895400465E-1
3.006341625E0,-5.592558384E-1,-2.062106431E-1,-3.996629417E-1
3.008341625E0,-5.656263232E-1,-2.189864665E-1,-4.097684026E-1
3.010341625E0,-5.730788708E-1,-2.296329737E-1,-4.182856083E-1
3.012341625E0,-5.810724497E-1,-2.381501794E-1,-4.278674722E-1
3.014341625E0,-5.869367719E-1,-2.461437881E-1,-4.374493361E-1
3.016341625E0,-5.938657522E-1,-2.530727386E-1,-4.459665418E-1
3.018341625E0,-6.002361774E-1,-2.583785355E-1,-4.539601505E-1
3.020924438E0,-6.050358415E-1,-2.631781995E-1,-4.619362950E-1
3.022365063E0,-6.087708473E-1,-2.669132054E-1,-4.704535007E-1
3.024415063E0,-6.119473577E-1,-2.685014606E-1,-4.800353646E-1
3.026341625E0,-6.156823635E-1,-2.690250576E-1,-4.885525703E-1
3.028341625E0,-6.167470217E-1,-2.685014606E-1,-4.976108074E-1
3.030680688E0,-6.167470217E-1,-2.663721442E-1,-5.071926713E-1
3.032365063E0,-6.151412725E-1,-2.615724802E-1,-5.178391933E-1
3.034341625E0,-6.124883890E-1,-2.541373968E-1,-5.284857154E-1
3.036341625E0,-6.071651578E-1,-2.429498285E-1,-5.385911465E-1
3.038341625E0,-6.002361774E-1,-2.301565707E-1,-5.471083522E-1
3.040924438E0,-5.911779404E-1,-2.147278637E-1,-5.556255579E-1
3.042365063E0,-5.805314183E-1,-1.960877478E-1,-5.620134473E-1
3.044343188E0,-5.682792068E-1,-1.737300754E-1,-5.668131113E-1
3.046341625E0,-5.555208325E-1,-1.449844986E-1,-5.705306530E-1
3.048341625E0,-5.422214270E-1,-1.125213802E-1,-5.732010603E-1
3.050341625E0,-5.283809900E-1,-7.899360359E-2,-5.742656589E-1
3.052341625E0,-5.150641203E-1,-4.386012256E-2,-5.737246275E-1
3.054341625E0,-5.033529401E-1,-6.597344764E-3,-5.715953112E-1
3.056341625E0,-4.921828508E-1,3.225368261E-2,-5.673367381E-1
3.058341625E0,-4.772777259E-1,7.588691264E-2,-5.620134473E-1
3.060927563E0,-4.634372890E-1,1.227490082E-1,-5.556255579E-1
3.062680688E0,-4.479911029E-1,1.706582904E-1,-5.460436940E-1
3.064341625E0,-4.336096048E-1,2.201732844E-1,-5.348736048E-1
3.066341625E0,-4.197691381E-1,2.718001306E-1,-5.226213932E-1
3.068341625E0,-4.054050744E-1,3.250326514E-1,-5.093219876E-1
3.070341625E0,-3.920882046E-1,3.761533499E-1,-4.944168627E-1
3.072341625E0,-3.798534572E-1,4.288448393E-1,-4.789707065E-1
3.074341625E0,-3.697305620E-1,4.831420481E-1,-4.619362950E-1
3.076341625E0,-3.590840399E-1,5.369156599E-1,-4.449018836E-1
3.078341625E0,-3.500432372E-1,5.864131451E-1,-4.273438752E-1
3.080924438E0,-3.431142867E-1,6.295402646E-1,-4.087037444E-1
3.082365063E0,-3.372674286E-1,6.651973128E-1,-3.890164495E-1
3.084410375E0,-3.340734839E-1,6.934018731E-1,-3.693116605E-1
3.086341625E0,-3.330088258E-1,7.163005471E-1,-3.490833044E-1
3.088341625E0,-3.319267035E-1,7.333350182E-1,-3.293959796E-1
3.090341625E0,-3.319441676E-1,7.455697656E-1,-3.096912205E-1
3.092341625E0,-3.298148811E-1,7.530223131E-1,-2.894628644E-1
3.094341625E0,-3.250152171E-1,7.540869713E-1,-2.702991366E-1
3.096341625E0,-3.165154457E-1,7.508929968E-1,-2.516764700E-1
3.098341625E0,-3.042632341E-1,7.450286746E-1,-2.341010123E-1
3.100921313E0,-2.882934809E-1,7.365114689E-1,-2.160019428E-1
3.102363500E0,-2.686061561E-1,7.258650064E-1,-1.989675313E-1
3.104411938E0,-2.478367537E-1,7.120419741E-1,-1.819331199E-1
3.106341625E0,-2.260201424E-1,6.965957880E-1,-1.654397547E-1
3.108341625E0,-2.036624700E-1,6.795613766E-1,-1.489289403E-1
3.110341625E0,-1.818458587E-1,6.603802443E-1,-1.318945289E-1
3.112341625E0,-1.610764414E-1,6.422811747E-1,-1.143365204E-1
3.114341625E0,-1.418952644E-1,6.236759424E-1,-9.676105529E-2
3.116341625E0,-1.237962022E-1,6.039711833E-1,-7.813838869E-2
3.118341625E0,-1.073028445E-1,5.848074555E-1,-5.843362212E-2
3.120924438E0,-9.239772707E-2,5.651201606E-1,-3.820525855E-2
3.122365063E0,-7.962191850E-2,5.454154015E-1,-1.745329238E-2
3.124405688E0,-7.377506793E-2,5.352925062E-1,-6.806783844E-3
3.126341625E0,-6.473426521E-2,5.161287785E-1,1.500983164E-2
3.128341625E0,-5.832890421E-2,4.980297089E-1,3.682644665E-2
3.130341625E0,-5.513495207E-2,4.815363288E-1,6.078981608E-2
3.132341625E0,-5.619960278E-2,4.639608860E-1,8.580038697E-2
3.134341625E0,-6.045820564E-2,4.447971582E-1,1.124166548E-1
3.136341625E0,-6.791076064E-2,4.213922918E-1,1.395739764E-1
3.138341625E0,-7.962191850E-2,3.926292658E-1,1.661902517E-1
3.140924438E0,-1.014559865E-1,3.372674286E-1,2.039766312E-1
3.142819750E0,-1.206197068E-1,2.920284867E-1,2.273989469E-1
3.144341625E0,-1.318072677E-1,2.670004666E-1,2.385865152E-1
3.146341625E0,-1.552121341E-1,2.105739713E-1,2.625324130E-1
3.148346313E0,-1.796990931E-1,1.472359747E-1,2.880840600E-1
3.150341625E0,-2.036799192E-1,7.962191850E-2,3.136356771E-1
3.152341625E0,-2.249554843E-1,7.749261800E-3,3.397283256E-1
3.154341625E0,-2.414488494E-1,-6.354743987E-2,3.679328561E-1
3.156341625E0,-2.515717447E-1,-1.316850930E-1,3.966784179E-1
3.158355688E0,-2.526364028E-1,-1.966287941E-1,4.280943573E-1
3.160924438E0,-2.409252524E-1,-2.850122750E-1,4.749389887E-1
3.162365063E0,-2.329316437E-1,-3.132167757E-1,4.914323688E-1
3.164405688E0,-2.121796757E-1,-3.669729233E-1,5.239129066E-1
3.166341625E0,-1.887573600E-1,-4.164879322E-1,5.553113818E-1
3.168341625E0,-1.637293398E-1,-4.564035833E-1,5.856626630E-1
3.170341625E0,-1.402895600E-1,-4.894077778E-1,6.149318814E-1
3.172341625E0,-1.211433038E-1,-5.149593949E-1,6.436774135E-1
3.174349438E0,-1.089085415E-1,-5.341405869E-1,6.697701216E-1
3.176341625E0,-1.035852879E-1,-5.474399924E-1,6.937159896E-1
3.178341625E0,-1.019795910E-1,-5.575454235E-1,7.144854069E-1
3.180963500E0,-1.040914357E-1,-5.751034617E-1,7.411016822E-1
3.182358813E0,-1.051735431E-1,-5.820323825E-1,7.480131984E-1
3.184341625E0,-1.046499386E-1,-5.969375372E-1,7.586597204E-1
3.186341625E0,-9.985028952E-2,-6.171658635E-1,7.661122680E-1
3.188341625E0,-9.239772707E-2,-6.432411075E-1,7.698472738E-1
3.190349438E0,-8.333947510E-2,-6.730512977E-1,7.698472738E-1
3.192341625E0,-7.429866493E-2,-7.060555220E-1,7.682415843E-1
3.194341625E0,-6.524040550E-2,-7.353421450E-1,7.629182935E-1
3.196341625E0,-5.619960278E-2,-7.603526711E-1,7.549421787E-1
3.198341625E0,-4.555309191E-2,-7.816457152E-1,7.448192835E-1
3.200929125E0,-2.478367463E-2,-8.082619905E-1,7.293905616E-1
3.202341625E0,-1.415462047E-2,-8.162555695E-1,7.240672708E-1
3.204390063E0,1.563815027E-2,-8.322253227E-1,7.139443755E-1
3.206341625E0,5.611233413E-2,-8.503243923E-1,7.043625116E-1
3.208341625E0,1.040041670E-1,-8.689645529E-1,6.953217387E-1
3.210341625E0,1.577777565E-1,-8.854578733E-1,6.846752167E-1
3.212341625E0,2.163335532E-1,-8.998394012E-1,6.740286946E-1
3.214341625E0,2.764776051E-1,-9.120741487E-1,6.639057994E-1
3.216341625E0,3.387683928E-1,-9.216560125E-1,6.543239355E-1
3.218341625E0,4.042357206E-1,-9.291085601E-1,6.474124193E-1
3.220924438E0,5.117654204E-1,-9.413607717E-1,6.394188404E-1
3.222819750E0,5.905495882E-1,-9.520072937E-1,6.357012987E-1
3.224341625E0,6.310237646E-1,-9.583777189E-1,6.340955496E-1
3.226341625E0,7.161958814E-1,-9.727592468E-1,6.303780079E-1
3.228341625E0,8.034971952E-1,-9.903172851E-1,6.261194348E-1
3.230341625E0,8.897165060E-1,-1.011627793E0,6.186668873E-1
3.232344750E0,9.706299305E-1,-1.030791402E0,6.074792743E-1
3.234341625E0,1.038244009E0,-1.043567300E0,5.931152105E-1
3.236341625E0,1.087741494E0,-1.047284842E0,5.739515424E-1
3.238341625E0,1.115963578E0,-1.039832234E0,5.505291820E-1
3.240963500E0,1.115963578E0,-1.015886307E0,5.116606951E-1
3.242360375E0,1.106381655E0,-1.004698753E0,4.983613193E-1
3.244341625E0,1.074983239E0,-9.812764525E-1,4.696157277E-1
3.246341625E0,1.032920718E0,-9.557248354E-1,4.398055077E-1
3.248354125E0,9.871407747E-1,-9.275028706E-1,4.105188847E-1
3.250341625E0,9.418843985E-1,-8.961043954E-1,3.812497258E-1
3.252341625E0,8.998394012E-1,-8.620355725E-1,3.551570475E-1
3.254341625E0,8.631002307E-1,-8.258374333E-1,3.317347169E-1
3.256166625E0,8.322427869E-1,-7.880336046E-1,3.120474219E-1
3.258341625E0,8.045618534E-1,-7.491825819E-1,2.960776389E-1
3.260926000E0,7.678226829E-1,-6.826506257E-1,2.769139409E-1
3.262513500E0,7.571761608E-1,-6.592108607E-1,2.705260217E-1
3.264166625E0,7.358831763E-1,-6.102543473E-1,2.593384683E-1
3.266349438E0,7.172430754E-1,-5.602157712E-1,2.476273179E-1
3.268341625E0,7.002086639E-1,-5.096535683E-1,2.353925556E-1
3.270341625E0,6.837152839E-1,-4.601385891E-1,2.204874456E-1
3.272341625E0,6.677455306E-1,-4.143411517E-1,2.029119730E-1
3.274347875E0,6.544461250E-1,-3.728197813E-1,1.816189587E-1
3.276341625E0,6.421939135E-1,-3.350334167E-1,1.598023474E-1
3.278341625E0,6.331530809E-1,-2.993588746E-1,1.422268748E-1
3.280921313E0,6.166422963E-1,-2.376265824E-1,1.236042157E-1
3.282385375E0,6.091897488E-1,-2.115339041E-1,1.204102635E-1
3.284341625E0,5.926789045E-1,-1.540427655E-1,1.150870100E-1
3.286341625E0,5.751208663E-1,-9.655161202E-2,1.092227027E-1
3.288341625E0,5.607568622E-1,-4.384266958E-2,1.012465507E-1
3.290341625E0,5.495692492E-1,3.141592606E-4,9.060004354E-2
3.292341625E0,5.415756702E-1,3.544763848E-2,7.888887823E-2
3.294341625E0,5.357288122E-1,6.047565863E-2,6.611306965E-2
3.296341625E0,5.314876437E-1,7.805112749E-2,5.120795965E-2
3.298341625E0,5.288172960E-1,9.347983450E-2,3.630284965E-2
3.300927563E0,5.282762647E-1,1.073028445E-1,1.340412907E-2
3.302952563E0,5.250822902E-1,1.062381938E-1,-3.071779385E-3
3.304172875E0,5.224119425E-1,1.014559865E-1,-1.213003788E-2
3.306341625E0,5.170887113E-1,8.761552721E-2,-3.022910282E-2
3.308360375E0,5.133711696E-1,7.483971864E-2,-4.513421282E-2
3.310341625E0,5.155004263E-1,6.791076064E-2,-5.523966998E-2
3.312341625E0,5.208062530E-1,6.791076064E-2,-6.056292355E-2
3.314341625E0,5.282588005E-1,7.269296050E-2,-6.429792941E-2
3.316361938E0,5.362349749E-1,7.908086479E-2,-6.642723083E-2
3.318363500E0,5.421167016E-1,8.122762293E-2,-7.227408141E-2
3.320924438E0,5.453106761E-1,7.216936350E-2,-8.717919886E-2
3.322365063E0,5.447696447E-1,6.684610993E-2,-9.250245243E-2
3.324408813E0,5.437049866E-1,5.567600206E-2,-1.042136103E-1
3.326341625E0,5.421167016E-1,4.661774263E-2,-1.143365204E-1
3.328341625E0,5.399874449E-1,4.290019348E-2,-1.233773232E-1
3.330341625E0,5.389227867E-1,4.396484420E-2,-1.313709319E-1
3.332341625E0,5.389053226E-1,4.714134336E-2,-1.388234943E-1
3.334341625E0,5.404935479E-1,5.192354321E-2,-1.457524449E-1
3.336341625E0,5.431638956E-1,5.565854907E-2,-1.510582417E-1
3.338341625E0,5.479635596E-1,5.939355493E-2,-1.558579057E-1
3.340955688E0,5.548925400E-1,6.366961449E-2,-1.611811519E-1
3.342360375E0,5.581039190E-1,6.525786221E-2,-1.617047489E-1
3.344341625E0,5.655564666E-1,7.007496804E-2,-1.633104533E-1
3.346341625E0,5.746147633E-1,7.538077235E-2,-1.633104533E-1
3.348341625E0,5.847027302E-1,8.122762293E-2,-1.611811519E-1
3.350341625E0,5.980021358E-1,8.868017793E-2,-1.579872072E-1
3.352341625E0,6.134483218E-1,9.560913593E-2,-1.558579057E-1
3.354341625E0,6.305001974E-1,1.046499386E-1,-1.521228999E-1
3.356341625E0,6.485818028E-1,1.147728488E-1,-1.467996389E-1
3.358341625E0,6.677455306E-1,1.275486648E-1,-1.430820972E-1
3.360924438E0,6.879738569E-1,1.451066732E-1,-1.409527957E-1
3.362365063E0,7.103490233E-1,1.653350443E-1,-1.382824332E-1
3.364408813E0,7.321656346E-1,1.866280586E-1,-1.356295347E-1
3.366341625E0,7.529175878E-1,2.084621191E-1,-1.340238303E-1
3.368341625E0,7.710166574E-1,2.313433886E-1,-1.303062886E-1
3.370341625E0,7.853981853E-1,2.531774640E-1,-1.265712827E-1
3.372341625E0,7.965682745E-1,2.734058201E-1,-1.239183769E-1
3.374341625E0,8.045618534E-1,2.920284867E-1,-1.201833710E-1
3.376341625E0,8.109498024E-1,3.074746430E-1,-1.180540696E-1
3.378341625E0,8.152083755E-1,3.202504516E-1,-1.169894189E-1
3.380968188E0,8.162904978E-1,3.314380348E-1,-1.164658219E-1
3.382693188E0,8.157320023E-1,3.404788375E-1,-1.164658219E-1
3.384677563E0,8.141262531E-1,3.479139209E-1,-1.169894189E-1
3.386341625E0,8.104087114E-1,3.537782431E-1,-1.180540696E-1
3.388341625E0,8.066737056E-1,3.585604429E-1,-1.191187203E-1
3.390341625E0,8.024325967E-1,3.612307906E-1,-1.212480217E-1
3.392341625E0,7.971093059E-1,3.612482548E-1,-1.239183769E-1
3.394341625E0,7.912450433E-1,3.596251011E-1,-1.255066246E-1
3.396341625E0,7.853807211E-1,3.548429012E-1,-1.276359260E-1
3.398341625E0,7.774045467E-1,3.484549820E-1,-1.303062886E-1
3.400921313E0,7.688873410E-1,3.404788375E-1,-1.324355900E-1
3.402365063E0,7.603701353E-1,3.319441676E-1,-1.361531317E-1
3.404410375E0,7.502647042E-1,3.239680231E-1,-1.388234943E-1
3.406341625E0,7.401417494E-1,3.170565069E-1,-1.420174390E-1
3.408341625E0,7.311009765E-1,3.117332458E-1,-1.452113986E-1
3.410341625E0,7.215016484E-1,3.069336116E-1,-1.467996389E-1
3.412341625E0,7.108551264E-1,3.048042953E-1,-1.478642970E-1
3.414341625E0,7.018143535E-1,3.037396371E-1,-1.484053433E-1
3.416341625E0,6.922324896E-1,3.042806983E-1,-1.478642970E-1
3.418341625E0,6.810624003E-1,3.037396371E-1,-1.462760419E-1
3.420922875E0,6.698748469E-1,3.042632341E-1,-1.446703374E-1
3.422365063E0,6.576226354E-1,3.042632341E-1,-1.430820972E-1
3.424408813E0,6.432585716E-1,3.042632341E-1,-1.409527957E-1
3.426341625E0,6.278298497E-1,3.053453565E-1,-1.382824332E-1
3.428341625E0,6.129246950E-1,3.085393012E-1,-1.361531317E-1
3.430341625E0,5.980195999E-1,3.133215010E-1,-1.345648915E-1
3.432341625E0,5.820498466E-1,3.213151097E-1,-1.324355900E-1
3.434341625E0,5.660626292E-1,3.308795094E-1,-1.292416304E-1
3.436341625E0,5.506339073E-1,3.431317210E-1,-1.255066246E-1
3.438341625E0,5.351877809E-1,3.553664982E-1,-1.217890754E-1
3.440924438E0,5.218883753E-1,3.676187098E-1,-1.169894189E-1
3.442365063E0,5.096361637E-1,3.803945184E-1,-1.132718697E-1
3.444340063E0,4.989896417E-1,3.931703269E-1,-1.090132669E-1
3.446341625E0,4.883431196E-1,4.064697325E-1,-1.031489596E-1
3.448341625E0,4.776966274E-1,4.187219441E-1,-9.676105529E-2
3.450341625E0,4.643971920E-1,4.288274050E-1,-9.037315100E-2
3.452341625E0,4.495095611E-1,4.362974167E-1,-8.398524672E-2
3.454341625E0,4.340633750E-1,4.448146224E-1,-7.707373798E-2
3.456341625E0,4.180936217E-1,4.527907670E-1,-7.068583369E-2
3.458341625E0,4.016002715E-1,4.618490338E-1,-6.482152641E-2
3.460926000E0,3.872012794E-1,4.698251784E-1,-5.949827284E-2
3.462819750E0,3.717725873E-1,4.767366946E-1,-5.417501926E-2
3.464341625E0,3.573910594E-1,4.841892421E-1,-4.832816496E-2
3.466396313E0,3.446152508E-1,4.905771315E-1,-4.300491139E-2
3.468341625E0,3.323805034E-1,4.969650507E-1,-3.714060783E-2
3.470341625E0,3.211929500E-1,5.022882819E-1,-3.129375353E-2
3.472341625E0,3.100228310E-1,5.065643787E-1,-2.542944625E-2
3.474341625E0,2.988527119E-1,5.108229518E-1,-2.010619268E-2
3.476341625E0,2.860594690E-1,5.139994621E-1,-1.584758982E-2
3.478341625E0,2.727600634E-1,5.171934366E-1,-1.052433532E-2
3.480922875E0,2.589195967E-1,5.193226933E-1,-6.806783844E-3
3.482365063E0,2.434908897E-1,5.214694738E-1,-3.071779385E-3
3.484340063E0,2.344500721E-1,5.230576992E-1,-1.483529806E-3
3.486341625E0,2.147453129E-1,5.262516737E-1,1.692969352E-3
3.488341625E0,1.955816001E-1,5.294456482E-1,4.363323096E-3
3.490341625E0,1.737475246E-1,5.337042212E-1,7.016223390E-3
3.492341625E0,1.513898522E-1,5.390275121E-1,9.686577134E-3
3.494341625E0,1.290321946E-1,5.432860851E-1,1.127482671E-2
3.496341625E0,1.056273282E-1,5.470210910E-1,1.127482671E-2
3.498341625E0,8.272860944E-2,5.496739745E-1,1.181587856E-2
3.500922875E0,5.185373127E-2,5.528854132E-1,1.288053021E-2
3.502365063E0,4.281292483E-2,5.534089804E-1,1.288053021E-2
3.504413500E0,2.684316412E-2,5.523443222E-1,1.233947743E-2
3.506341625E0,1.298524998E-2,5.507386327E-1,1.233947743E-2
3.508341625E0,7.504915702E-4,5.475447178E-1,1.394518092E-2
3.510341625E0,-9.354964830E-3,5.432860851E-1,1.607448235E-2
3.512341625E0,-1.841322333E-2,5.368981957E-1,1.766273193E-2
3.514341625E0,-2.745402977E-2,5.283809900E-1,1.872738265E-2
3.516341625E0,-3.651228920E-2,5.177344680E-1,2.033308521E-2
3.518341625E0,-4.501204193E-2,5.060232878E-1,2.192133479E-2
3.520921313E0,-5.461135134E-2,4.868421257E-1,2.405063622E-2
3.522365063E0,-5.726425350E-2,4.804717004E-1,2.511528693E-2
3.524415063E0,-6.152285635E-2,4.682194889E-1,2.672099136E-2
3.526341625E0,-6.524040550E-2,4.543964565E-1,2.778564207E-2
3.528341625E0,-6.684610993E-2,4.416206479E-1,2.991494350E-2
3.530341625E0,-6.789331138E-2,4.283038080E-1,3.150319308E-2
3.532341625E0,-6.897541136E-2,4.139397442E-1,3.310889751E-2
3.534341625E0,-6.843435764E-2,3.990346193E-1,3.363249451E-2
3.536341625E0,-6.524040550E-2,3.820002079E-1,3.469714522E-2
3.538341625E0,-6.152285635E-2,3.644247353E-1,3.682644665E-2
3.540924438E0,-5.248204991E-2,3.324852288E-1,3.843215108E-2
3.542690063E0,-4.661774263E-2,3.101275563E-1,4.108504951E-2
3.544340063E0,-4.342379048E-2,2.984164059E-1,4.162610322E-2
3.546341625E0,-3.703588620E-2,2.744530141E-1,4.269075394E-2
3.548341625E0,-3.277728334E-2,2.483778000E-1,4.321435094E-2
3.550341625E0,-2.851868048E-2,2.217615396E-1,4.375540465E-2
3.552341625E0,-2.478367463E-2,1.962099075E-1,4.375540465E-2
3.554341625E0,-2.265437320E-2,1.711993515E-1,4.375540465E-2
3.556341625E0,-2.265437320E-2,1.472359747E-1,4.321435094E-2
3.558341625E0,-2.371902391E-2,1.243547052E-1,4.269075394E-2
3.560927563E0,-2.158972248E-2,9.293878078E-2,4.002039880E-2
3.562366625E0,-2.052507177E-2,8.337438107E-2,3.843215108E-2
3.564340063E0,-1.785471849E-2,6.366961449E-2,3.469714522E-2
3.566341625E0,-1.307251584E-2,4.450589418E-2,3.097959422E-2
3.568341625E0,-7.208209950E-3,2.534218132E-2,2.617993951E-2
3.570341625E0,7.504915702E-4,6.702064537E-3,2.246238664E-2
3.572341625E0,1.085594762E-2,-1.137954649E-2,1.820378378E-2
3.574341625E0,2.256710641E-2,-2.576106042E-2,1.340412907E-2
3.576341625E0,3.588397056E-2,-3.851941600E-2,9.145525284E-3
3.578341625E0,5.024803057E-2,-4.705407470E-2,4.886921961E-3
3.580922875E0,7.473500073E-2,-5.503023043E-2,-1.483529806E-3
3.582365063E0,8.377580345E-2,-5.770058557E-2,-4.136430100E-3
3.584341625E0,1.029569730E-1,-6.248278543E-2,-1.000073645E-2
3.586341625E0,1.221032366E-1,-6.780604273E-2,-1.691224054E-2
3.588341625E0,1.434137076E-1,-7.152359188E-2,-2.490584925E-2
3.590341625E0,1.620363742E-1,-7.578219473E-2,-3.394665569E-2
3.592341625E0,1.785297245E-1,-7.686430216E-2,-4.619886354E-2
3.594341625E0,1.934348345E-1,-7.792895287E-2,-5.897467583E-2
3.596341625E0,2.051634490E-1,-7.684684545E-2,-7.227408141E-2
3.598341625E0,2.152689099E-1,-7.419394702E-2,-8.772024512E-2
3.600922875E0,2.232625186E-1,-6.726498902E-2,-1.100779176E-1
3.602365063E0,2.253743708E-1,-6.567674130E-2,-1.180540696E-1
3.604416625E0,2.285683155E-1,-6.302383542E-2,-1.345648915E-1
3.606341625E0,2.323033214E-1,-5.981243402E-2,-1.505346447E-1
3.608341625E0,2.360383272E-1,-5.396557972E-2,-1.643751115E-1
3.610341625E0,2.402969301E-1,-4.490732029E-2,-1.755452156E-1
3.612341625E0,2.461437881E-1,-3.160791099E-2,-1.846034676E-1
3.614341625E0,2.530727386E-1,-1.509709843E-2,-1.904503256E-1
3.616166625E0,2.610488832E-1,2.984513063E-3,-1.941853315E-1
3.618341625E0,2.701071501E-1,2.267182618E-2,-1.957735866E-1
3.620921313E0,2.850122750E-1,5.461135134E-2,-1.931206882E-1
3.622947875E0,2.967059612E-1,7.536331564E-2,-1.893856823E-1
3.624171313E0,3.025702834E-1,8.602727950E-2,-1.867327690E-1
3.626394750E0,3.148224950E-1,1.057145894E-1,-1.803448647E-1
3.628341625E0,3.275983036E-1,1.248957589E-1,-1.718276590E-1
3.630341625E0,3.393094540E-1,1.419127136E-1,-1.611811519E-1
3.632341625E0,3.504970074E-1,1.584235430E-1,-1.499935985E-1
3.634341625E0,3.606199324E-1,1.733286530E-1,-1.388234943E-1
3.636341625E0,3.702017963E-1,1.871691048E-1,-1.276359260E-1
3.638341625E0,3.808308542E-1,2.010095716E-1,-1.164658219E-1
3.640921313E0,4.053003490E-1,2.212204784E-1,-1.026253626E-1
3.642363500E0,4.170115292E-1,2.286730409E-1,-9.943141043E-2
3.644340063E0,4.452160299E-1,2.478367537E-1,-9.517280012E-2
3.646341625E0,4.814316332E-1,2.739294171E-1,-9.463175386E-2
3.648341625E0,5.224294066E-1,3.090628982E-1,-9.730210900E-2
3.650341625E0,5.634097457E-1,3.516489267E-1,-1.042136103E-1
3.652341625E0,5.996078849E-1,4.000992775E-1,-1.137954667E-1
3.654341625E0,6.235712171E-1,4.522671700E-1,-1.260476708E-1
3.656341625E0,6.305001974E-1,5.023057461E-1,-1.404117346E-1
3.658341625E0,6.198536754E-1,5.454328656E-1,-1.547932476E-1
3.660963500E0,5.772676468E-1,5.816309452E-1,-1.744805574E-1
3.662360375E0,5.581039190E-1,5.826956034E-1,-1.798038185E-1
3.664341625E0,5.176297426E-1,5.677730441E-1,-1.877974272E-1
3.666354125E0,4.803844094E-1,5.299866796E-1,-1.925796270E-1
3.668341625E0,4.505741894E-1,4.735601842E-1,-1.947089285E-1
3.670341625E0,4.324751198E-1,4.075518250E-1,-1.915149838E-1
3.672341625E0,4.276754856E-1,3.399552405E-1,-1.851270795E-1
3.674351000E0,4.340633750E-1,2.765997648E-1,-1.755452156E-1
3.676341625E0,4.494920969E-1,2.212204784E-1,-1.627694070E-1
3.678341625E0,4.691968560E-1,1.770461947E-1,-1.484053433E-1
3.680965063E0,4.974188209E-1,1.344601661E-1,-1.249830276E-1
3.682360375E0,5.043303370E-1,1.259429604E-1,-1.164658219E-1
3.684341625E0,5.160415173E-1,1.163611040E-1,-1.010196581E-1
3.686341625E0,5.224294066E-1,1.115788966E-1,-8.611454815E-2
3.688341625E0,5.224294066E-1,1.126435474E-1,-7.120943069E-2
3.690341625E0,5.155004263E-1,1.184904054E-1,-5.791002512E-2
3.692343188E0,5.027246475E-1,1.291369051E-1,-4.672246426E-2
3.694341625E0,4.830373228E-1,1.413891166E-1,-3.820525855E-2
3.696341625E0,4.580093026E-1,1.514945775E-1,-3.448770568E-2
3.698341625E0,4.276754856E-1,1.578824818E-1,-3.555235639E-2
3.700938500E0,3.739018738E-1,1.568178385E-1,-4.139921069E-2
3.702679125E0,3.541971147E-1,1.541474760E-1,-4.565781355E-2
3.704340063E0,3.142814338E-1,1.429773718E-1,-5.630432069E-2
3.706341625E0,2.754129469E-1,1.227490082E-1,-6.855653226E-2
3.708365063E0,2.371029854E-1,9.347983450E-2,-8.239699155E-2
3.710341625E0,2.009048462E-1,6.260495633E-2,-9.517280012E-2
3.712341625E0,1.684242785E-1,3.384193406E-2,-1.058193147E-1
3.714341625E0,1.380904466E-1,1.043706853E-2,-1.137954667E-1
3.716340063E0,1.093448773E-1,-8.709193207E-3,-1.180540696E-1
3.718341625E0,8.220500499E-2,-2.415535599E-2,-1.185951233E-1
3.720921313E0,5.452408642E-2,-3.426081315E-2,-1.148601174E-1
3.722365063E0,2.577851340E-2,-3.958406672E-2,-1.095368639E-1
3.724351000E0,-5.096361507E-3,-3.906046972E-2,-1.015607119E-1
3.726341625E0,-3.808308393E-2,-3.480186686E-2,-9.250245243E-2
3.728341625E0,-7.321656495E-2,-2.841396071E-2,-8.239699155E-2
3.730679125E0,-1.110203937E-1,-1.989675313E-2,-7.333873212E-2
3.732358813E0,-1.498888731E-1,-1.137954649E-2,-6.323327869E-2
3.734341625E0,-1.898045540E-1,-2.862340072E-3,-5.204571784E-2
3.736341625E0,-2.302612811E-1,5.113814492E-3,-4.087560996E-2
3.738341625E0,-2.701769769E-1,1.256637089E-2,-2.916445211E-2
3.740922875E0,-3.101100922E-1,2.054252476E-2,-1.745329238E-2
3.742426000E0,-3.489785790E-1,2.960078418E-2,-5.201081280E-3
3.744341625E0,-3.851767182E-1,3.757693991E-2,5.951572675E-3
3.746340063E0,-4.197691381E-1,4.183554277E-2,1.766273193E-2
3.748340063E0,-4.501204193E-1,4.396484420E-2,3.043854237E-2
3.750349438E0,-4.756720364E-1,4.396484420E-2,4.162610322E-2
3.752341625E0,-4.948357344E-1,4.077089205E-2,5.333726108E-2
3.754341625E0,-5.086762309E-1,3.438298777E-2,6.344271451E-2
3.756340063E0,-5.177344680E-1,2.745402977E-2,7.356562465E-2
3.758352563E0,-5.209109783E-1,2.001892589E-2,8.314748853E-2
3.760927563E0,-5.171934366E-1,1.521927118E-2,9.218829125E-2
3.762365063E0,-5.081351399E-1,1.415462047E-2,1.007054970E-1
3.764341625E0,-4.948183000E-1,1.469567232E-2,1.097637564E-1
3.766344750E0,-4.777838886E-1,1.895427518E-2,1.188045591E-1
3.768341625E0,-4.602258801E-1,2.588323317E-2,1.283864230E-1
3.770341625E0,-4.431914687E-1,3.279473633E-2,1.390329301E-1
3.772341625E0,-4.277627468E-1,3.864159063E-2,1.486147791E-1
3.774341625E0,-4.144458771E-1,4.398229718E-2,1.587376893E-1
3.776341625E0,-4.059286714E-1,4.717624933E-2,1.683195531E-1
3.778341625E0,-4.000643790E-1,4.930555075E-2,1.773603559E-1
3.780922875E0,-3.963468075E-1,5.089380220E-2,1.869422197E-1
3.782827563E0,-3.968704045E-1,4.769985005E-2,1.943947673E-1
3.784385375E0,-4.022111297E-1,4.237659276E-2,2.007826716E-1
3.786343188E0,-4.117755294E-1,3.173008561E-2,2.066469789E-1
3.788341625E0,-4.250923991E-1,1.788962446E-2,2.098409384E-1
3.790341625E0,-4.431914687E-1,8.552113432E-4,2.109055817E-1
3.792369750E0,-4.623551667E-1,-1.776745170E-2,2.092998773E-1
3.794341625E0,-4.815188944E-1,-3.532546386E-2,2.061059326E-1
3.796341625E0,-4.996179640E-1,-5.129522830E-2,2.007826716E-1
3.798402563E0,-5.150641203E-1,-6.407103688E-2,1.943947673E-1
3.800952563E0,-5.272988677E-1,-7.099999487E-2,1.874832660E-1
3.802376000E0,-5.358335376E-1,-7.154104859E-2,1.816189587E-1
3.804343188E0,-5.395510793E-1,-6.620033830E-2,1.757721156E-1
3.806341625E0,-5.406157374E-1,-5.609488115E-2,1.709724516E-1
3.808358813E0,-5.390100479E-1,-4.436627030E-2,1.677785069E-1
3.810341625E0,-5.363397002E-1,-3.052580915E-2,1.661902517E-1
3.812341625E0,-5.331631899E-1,-1.563815027E-2,1.651255935E-1
3.814341625E0,-5.304928422E-1,3.141592606E-4,1.651255935E-1
3.816341625E0,-5.283635259E-1,1.415462047E-2,1.661902517E-1
3.818341625E0,-5.267753005E-1,2.799508162E-2,1.672548950E-1
3.820924438E0,-5.251870155E-1,4.235913977E-2,1.688431501E-1
3.822365063E0,-5.246459842E-1,5.619960278E-2,1.715134978E-1
3.824416625E0,-5.251695514E-1,7.005751878E-2,1.736427993E-1
3.826354125E0,-5.246459842E-1,8.496262878E-2,1.762957126E-1
3.828341625E0,-5.267753005E-1,9.880308807E-2,1.800307184E-1
3.830341625E0,-5.299692154E-1,1.115788966E-1,1.837482601E-1
3.832343188E0,-5.331631899E-1,1.254193634E-1,1.880068630E-1
3.834341625E0,-5.368807316E-1,1.381951720E-1,1.917418689E-1
3.836341625E0,-5.411393046E-1,1.504473835E-1,1.975887269E-1
3.838341625E0,-5.459215641E-1,1.632231921E-1,2.029119730E-1
3.840922875E0,-5.491154790E-1,1.749168932E-1,2.071705759E-1
3.842365063E0,-5.528504848E-1,1.887573600E-1,2.119702399E-1
3.844340063E0,-5.533915162E-1,1.962099075E-1,2.146231383E-1
3.846341625E0,-5.517858267E-1,2.127207220E-1,2.199463844E-1
3.848341625E0,-5.512622595E-1,2.260201424E-1,2.242050022E-1
3.850341625E0,-5.533915162E-1,2.318669856E-1,2.284636050E-1
3.852341625E0,-5.597794652E-1,2.350609452E-1,2.332632542E-1
3.854341625E0,-5.608441234E-1,2.430545539E-1,2.369808108E-1
3.856341625E0,-5.587148070E-1,2.552893162E-1,2.407158166E-1
3.858341625E0,-5.565854907E-1,2.632829249E-1,2.439097613E-1
3.860958813E0,-5.560619235E-1,2.670004666E-1,2.502976656E-1
3.862683813E0,-5.576326847E-1,2.643650174E-1,2.545562685E-1
3.864341625E0,-5.586973429E-1,2.622357309E-1,2.566855848E-1
3.866341625E0,-5.618913174E-1,2.547657192E-1,2.609441876E-1
3.868341625E0,-5.656263232E-1,2.425309569E-1,2.652027905E-1
3.870341625E0,-5.714905858E-1,2.265611887E-1,2.678556740E-1
3.872341625E0,-5.784021020E-1,2.095267773E-1,2.694613934E-1
3.874341625E0,-5.848074555E-1,1.924749166E-1,2.694613934E-1
3.876341625E0,-5.922600031E-1,1.749168932E-1,2.694613934E-1
3.878341625E0,-6.018418670E-1,1.573414356E-1,2.678556740E-1
3.880922875E0,-6.172705889E-1,1.285958588E-1,2.630734742E-1
3.882365063E0,-6.231174469E-1,1.184904054E-1,2.604031265E-1
3.884408813E0,-6.369578838E-1,9.613273293E-2,2.524269819E-1
3.886341625E0,-6.529451013E-1,7.216936350E-2,2.423040569E-1
3.888341625E0,-6.726324558E-1,4.555309191E-2,2.305929065E-1
3.890341625E0,-6.949900985E-1,1.521927118E-2,2.183581442E-1
3.892341625E0,-7.184123993E-1,-1.509709843E-2,2.055823356E-1
3.894341625E0,-7.402290106E-1,-3.904301673E-2,1.922654659E-1
3.896341625E0,-7.583280802E-1,-5.290092900E-2,1.789660603E-1
3.898341625E0,-7.705802917E-1,-5.928883329E-2,1.672548950E-1
3.900924438E0,-7.785739303E-1,-5.344198272E-2,1.539380401E-1
3.902365063E0,-7.790974975E-1,-4.916592315E-2,1.502204835E-1
3.904415063E0,-7.780154347E-1,-3.851941600E-2,1.427679360E-1
3.906341625E0,-7.764271498E-1,-2.841396071E-2,1.347743273E-1
3.908341625E0,-7.769507766E-1,-1.935570128E-2,1.257335246E-1
3.910341625E0,-7.790800929E-1,-1.242674422E-2,1.150870100E-1
3.912341625E0,-7.806857824E-1,-8.709193207E-3,1.023112014E-1
3.914341625E0,-7.822740078E-1,-7.103490178E-3,8.792968839E-2
3.916341625E0,-7.838796973E-1,-7.120943163E-3,7.302457839E-2
3.918341625E0,-7.828150988E-1,-9.773843922E-3,5.705481395E-2
3.920966625E0,-7.796211243E-1,-1.668534800E-2,3.256784379E-2
3.922361938E0,-7.780154347E-1,-1.881464943E-2,2.459168993E-2
3.924340063E0,-7.742978930E-1,-2.309070528E-2,9.145525284E-3
3.926341625E0,-7.700217962E-1,-2.467895485E-2,-4.677482415E-3
3.928341625E0,-7.636513710E-1,-2.520255372E-2,-1.745329238E-2
3.930341625E0,-7.577870488E-1,-2.574360557E-2,-2.809980139E-2
3.932341625E0,-7.519401908E-1,-2.734931000E-2,-3.874630854E-2
3.934341625E0,-7.466169596E-1,-2.947861142E-2,-4.939281940E-2
3.936341625E0,-7.407526374E-1,-3.159045801E-2,-6.003932655E-2
3.938341625E0,-7.333000898E-1,-3.371975943E-2,-6.855653226E-2
3.940924438E0,-7.205242515E-1,-3.532546386E-2,-8.026769012E-2
3.942819750E0,-7.109423876E-1,-3.851941600E-2,-8.717919886E-2
3.944341625E0,-7.061601877E-1,-4.010766745E-2,-9.037315100E-2
3.946341625E0,-6.949726343E-1,-4.384266958E-2,-9.569640458E-2
3.948341625E0,-6.838025451E-1,-4.970697686E-2,-1.010196581E-1
