"Time (s)","Gyroscope x (rad/s)","Gyroscope y (rad/s)","Gyroscope z (rad/s)"
0.000000000E0,1.848629490E-2,-6.404153258E-2,-1.018616837E-2
2.453125000E-3,1.848629490E-2,-6.404153258E-2,-1.018616837E-2
4.904271000E-3,1.848629490E-2,-6.404153258E-2,-1.018616837E-2
7.354063000E-3,1.848629490E-2,-6.404153258E-2,-1.018616837E-2
9.803594000E-3,1.848629490E-2,-6.404153258E-2,-1.018616837E-2
1.225328200E-2,1.848629490E-2,-6.404153258E-2,-1.018616837E-2
1.470286500E-2,1.848629490E-2,-6.404153258E-2,-1.018616837E-2
1.715224000E-2,1.848629490E-2,-6.404153258E-2,-1.018616837E-2
1.960161500E-2,1.848629490E-2,-6.404153258E-2,-1.018616837E-2
2.205104200E-2,1.848629490E-2,-6.404153258E-2,-1.018616837E-2
2.450046900E-2,1.848629490E-2,-6.404153258E-2,-1.018616837E-2
2.694979200E-2,1.848629490E-2,-6.404153258E-2,-1.018616837E-2
2.939911500E-2,1.848629490E-2,-6.404153258E-2,-1.018616837E-2
3.184849000E-2,1.848629490E-2,-6.404153258E-2,-1.018616837E-2
3.429786500E-2,1.848629490E-2,-6.404153258E-2,-1.018616837E-2
3.674718800E-2,1.848629490E-2,-6.404153258E-2,-1.018616837E-2
3.919651100E-2,1.848629490E-2,-6.404153258E-2,-1.018616837E-2
4.164583400E-2,1.848629490E-2,-6.404153258E-2,-1.018616837E-2
4.409515700E-2,1.848629490E-2,-6.404153258E-2,-1.018616837E-2
4.654448000E-2,1.848629490E-2,-6.404153258E-2,-1.018616837E-2
4.899380300E-2,1.848629490E-2,-6.404153258E-2,-1.018616837E-2
5.144312500E-2,1.848629490E-2,-6.404153258E-2,-1.018616837E-2
5.389244800E-2,1.848629490E-2,-6.404153258E-2,-1.018616837E-2
5.634177100E-2,1.848629490E-2,-6.404153258E-2,-1.018616837E-2
5.879109400E-2,1.848629490E-2,-6.404153258E-2,-1.018616837E-2
6.124041700E-2,1.848629490E-2,-6.404153258E-2,-1.018616837E-2
6.368974000E-2,1.848629490E-2,-6.404153258E-2,-1.018616837E-2
6.613906300E-2,1.848629490E-2,-6.404153258E-2,-1.018616837E-2
6.858838600E-2,1.848629490E-2,-6.404153258E-2,-1.018616837E-2
7.103770900E-2,1.848629490E-2,-6.404153258E-2,-1.018616837E-2
7.348703200E-2,1.848629490E-2,-6.404153258E-2,-1.018616837E-2
7.593635500E-2,1.848629490E-2,-6.404153258E-2,-1.018616837E-2
7.838567800E-2,-2.427423745E-2,-6.037634239E-2,-2.484692074E-2
8.083500000E-2,-2.793942392E-2,-5.548942462E-2,-1.751654595E-2
8.328432300E-2,-3.404807299E-2,-5.548942462E-2,-1.140789781E-2
8.573364600E-2,-3.526980057E-2,-5.915461108E-2,-1.140789781E-2
8.818296900E-2,-3.649152815E-2,-6.404153258E-2,-8.964438923E-3
9.063229200E-2,-3.526980057E-2,-6.159806997E-2,-5.299250595E-3
9.308161500E-2,-3.893499076E-2,-5.793287978E-2,-1.634062734E-3
9.553093800E-2,-3.893499076E-2,-5.915461108E-2,-2.855792176E-3
9.798026100E-2,-3.649152815E-2,-6.037634239E-2,-4.077521153E-3
1.004295840E-1,-3.160461038E-2,-6.037634239E-2,-7.742709480E-3
1.028789070E-1,-3.038288280E-2,-6.526326388E-2,-7.742709480E-3
1.053014070E-1,-3.038288280E-2,-6.404153258E-2,-8.964438923E-3
1.077026050E-1,-2.549596503E-2,-6.037634239E-2,-7.742709480E-3
1.101046880E-1,-2.671769261E-2,-5.304596201E-2,-6.520980038E-3
1.125058860E-1,-2.427423745E-2,-5.426769331E-2,-8.964438923E-3
1.149063550E-1,-2.427423745E-2,-5.548942462E-2,-7.742709480E-3
1.173076570E-1,-1.816558838E-2,-6.159806997E-2,-1.140789781E-2
1.197096880E-1,-1.450040191E-2,-6.281980127E-2,-1.385135762E-2
1.221108860E-1,-1.450040191E-2,-6.404153258E-2,-1.507308707E-2
1.245113550E-1,-1.083521172E-2,-6.159806997E-2,-1.873827539E-2
1.269126570E-1,-7.170024328E-3,-6.159806997E-2,-1.996000484E-2
1.293146880E-1,-3.504836001E-3,-6.159806997E-2,-2.240346372E-2
1.317158860E-1,-3.504836001E-3,-6.281980127E-2,-2.362519130E-2
1.341163550E-1,-7.170024328E-3,-5.793287978E-2,-1.873827539E-2
1.365176570E-1,-5.948294885E-3,-6.159806997E-2,-1.996000484E-2
1.389196880E-1,-7.170024328E-3,-6.404153258E-2,-1.996000484E-2
1.413208860E-1,-8.391753770E-3,-6.404153258E-2,-1.996000484E-2
1.437213550E-1,-9.613484144E-3,-6.404153258E-2,-1.996000484E-2
1.461226570E-1,-8.391753770E-3,-6.159806997E-2,-2.118173428E-2
1.485246880E-1,-5.948294885E-3,-6.526326388E-2,-2.484692074E-2
1.509258860E-1,-5.948294885E-3,-6.648498774E-2,-2.484692074E-2
1.533263550E-1,-8.391753770E-3,-5.793287978E-2,-1.996000484E-2
1.557276570E-1,-4.726565443E-3,-6.159806997E-2,-2.606865019E-2
1.581296880E-1,-5.948294885E-3,-5.793287978E-2,-2.484692074E-2
1.605308860E-1,-4.726565443E-3,-5.793287978E-2,-2.484692074E-2
1.629313550E-1,-2.283106558E-3,-5.793287978E-2,-2.484692074E-2
1.653326570E-1,1.603523269E-4,-5.426769331E-2,-2.606865019E-2
1.677346880E-1,5.047270097E-3,-5.915461108E-2,-3.217729926E-2
1.701358860E-1,3.825540654E-3,-5.548942462E-2,-2.851210907E-2
1.725363550E-1,8.712458424E-3,-5.671115220E-2,-3.095556796E-2
1.749376570E-1,1.115591731E-2,-5.548942462E-2,-2.851210907E-2
1.773396880E-1,1.726456359E-2,-6.159806997E-2,-3.339902684E-2
1.797408860E-1,2.092975378E-2,-6.159806997E-2,-3.462075815E-2
1.821413550E-1,1.970802248E-2,-5.426769331E-2,-2.973383851E-2
1.845426570E-1,1.726456359E-2,-5.182423443E-2,-2.851210907E-2
1.869446880E-1,2.215148136E-2,-5.548942462E-2,-3.339902684E-2
1.893458860E-1,2.337321267E-2,-5.426769331E-2,-3.217729926E-2
1.917463030E-1,2.459494025E-2,-6.037634239E-2,-3.339902684E-2
1.941476570E-1,2.337321267E-2,-4.815904424E-2,-2.606865019E-2
1.965496880E-1,2.337321267E-2,-5.426769331E-2,-3.095556796E-2
1.989508860E-1,2.459494025E-2,-5.060250685E-2,-3.095556796E-2
2.013513030E-1,2.092975378E-2,-4.938077554E-2,-2.973383851E-2
2.037526570E-1,2.092975378E-2,-5.182423443E-2,-3.217729926E-2
2.061546360E-1,1.604283601E-2,-5.060250685E-2,-2.973383851E-2
2.085558340E-1,1.482110564E-2,-4.938077554E-2,-2.851210907E-2
2.109563030E-1,1.237764675E-2,-4.938077554E-2,-2.606865019E-2
2.133576050E-1,5.047270097E-3,-4.815904424E-2,-2.362519130E-2
2.157596360E-1,5.047270097E-3,-4.815904424E-2,-2.606865019E-2
2.181608340E-1,2.603811212E-3,-5.060250685E-2,-2.606865019E-2
2.205613030E-1,1.603523269E-4,-5.304596201E-2,-2.851210907E-2
2.229626050E-1,-2.283106558E-3,-5.426769331E-2,-2.851210907E-2
2.253646360E-1,-4.726565443E-3,-5.182423443E-2,-2.851210907E-2
2.277658340E-1,-4.726565443E-3,-5.426769331E-2,-2.729037963E-2
2.301663550E-1,-7.170024328E-3,-5.793287978E-2,-2.851210907E-2
2.325675530E-1,-5.948294885E-3,-5.915461108E-2,-2.973383851E-2
2.349696360E-1,-8.391753770E-3,-5.671115220E-2,-2.484692074E-2
2.373708340E-1,-5.948294885E-3,-6.404153258E-2,-2.851210907E-2
2.397713030E-1,-4.726565443E-3,-6.281980127E-2,-2.851210907E-2
2.421726050E-1,-5.948294885E-3,-6.159806997E-2,-2.851210907E-2
2.445746360E-1,-3.504836001E-3,-5.182423443E-2,-2.240346372E-2
2.469758340E-1,-1.061377116E-3,-5.304596201E-2,-1.996000484E-2
2.493763030E-1,-3.504836001E-3,-4.938077554E-2,-1.751654595E-2
2.517776050E-1,2.603811212E-3,-4.815904424E-2,-1.873827539E-2
2.541796360E-1,6.268999539E-3,-4.327212647E-2,-1.629481651E-2
2.565808340E-1,6.268999539E-3,-3.349829093E-2,-1.140789781E-2
2.589813030E-1,1.115591731E-2,-3.472002223E-2,-1.140789781E-2
2.613826050E-1,1.726456359E-2,-3.594175354E-2,-1.262962818E-2
2.637846360E-1,1.848629490E-2,-3.227656335E-2,-8.964438923E-3
2.661858340E-1,2.337321267E-2,-2.738964744E-2,-5.299250595E-3
2.685863030E-1,2.826013044E-2,-2.005927078E-2,-4.123332910E-4
2.709876050E-1,3.803396598E-2,-1.028543431E-2,4.474584479E-3
2.733896360E-1,3.681223467E-2,-4.176788032E-3,1.180496253E-2
2.757908340E-1,4.780780151E-2,-6.620246917E-3,9.361503646E-3
2.781913030E-1,5.391644686E-2,-1.733328914E-3,1.547015086E-2
2.805926050E-1,6.124682724E-2,7.101298543E-4,1.547015086E-2
2.829946360E-1,6.491201371E-2,1.931859297E-3,1.669188030E-2
2.853958340E-1,6.979893148E-2,5.597047508E-3,1.913533919E-2
2.877963030E-1,7.468584925E-2,1.292742509E-2,2.402225509E-2
2.901976050E-1,8.201622963E-2,1.170569565E-2,2.402225509E-2
2.925996360E-1,8.445968479E-2,1.414915454E-2,3.257436305E-2
2.950008340E-1,8.568141609E-2,1.537088398E-2,3.623955324E-2
2.974013030E-1,9.056833386E-2,1.414915454E-2,3.501782194E-2
2.998026050E-1,9.667697549E-2,1.659261249E-2,3.990473971E-2
3.022046360E-1,1.015639007E-1,1.903607138E-2,4.234819859E-2
3.046058340E-1,1.052290872E-1,2.514471859E-2,4.845684394E-2
3.070063030E-1,1.113377362E-1,2.880990691E-2,4.967857525E-2
3.094076050E-1,1.137811914E-1,2.880990691E-2,4.845684394E-2
3.118096360E-1,1.150029227E-1,3.247509524E-2,4.845684394E-2
3.142108340E-1,1.211115718E-1,3.125336766E-2,4.967857525E-2
3.166113030E-1,1.272202134E-1,3.125336766E-2,5.090030655E-2
3.190126050E-1,1.308854073E-1,3.125336766E-2,5.334376171E-2
3.214146360E-1,1.345505863E-1,3.003163449E-2,5.578722432E-2
3.238158340E-1,1.394375116E-1,2.636644803E-2,5.334376171E-2
3.262163030E-1,1.455461532E-1,2.880990691E-2,5.456549302E-2
3.286176050E-1,1.516548097E-1,2.880990691E-2,5.456549302E-2
3.310196360E-1,1.553199887E-1,3.125336766E-2,5.700894818E-2
3.334208340E-1,1.602069139E-1,3.247509524E-2,5.456549302E-2
3.358213030E-1,1.638720930E-1,3.247509524E-2,5.456549302E-2
3.382226050E-1,1.687590182E-1,3.003163449E-2,5.334376171E-2
3.406246360E-1,1.699807495E-1,2.880990691E-2,5.578722432E-2
3.430258340E-1,1.724242121E-1,1.537088398E-2,4.845684394E-2
3.454263030E-1,1.773111224E-1,3.125336766E-2,5.090030655E-2
3.478276050E-1,1.760893911E-1,3.125336766E-2,5.578722432E-2
3.502296360E-1,1.760893911E-1,3.247509524E-2,6.556105614E-2
3.526308340E-1,1.736459285E-1,3.125336766E-2,7.166970521E-2
3.550313030E-1,1.760893911E-1,2.147953026E-2,7.044797391E-2
3.574326050E-1,1.748676598E-1,1.903607138E-2,7.166970521E-2
3.598346360E-1,1.773111224E-1,2.025780082E-2,7.166970521E-2
3.622358340E-1,1.785328537E-1,3.003163449E-2,7.289142907E-2
3.646363030E-1,1.834197640E-1,3.125336766E-2,6.556105614E-2
3.670376050E-1,1.883066893E-1,3.858374432E-2,6.433932483E-2
3.694396360E-1,1.919718832E-1,4.102720320E-2,6.067414209E-2
3.718408340E-1,1.968587935E-1,4.713584855E-2,5.700894818E-2
3.742413030E-1,1.956370622E-1,5.324449763E-2,6.067414209E-2
3.766426050E-1,1.968587935E-1,5.446622893E-2,5.945241079E-2
3.790446360E-1,1.993022561E-1,5.446622893E-2,5.945241079E-2
3.814458340E-1,2.054108977E-1,5.568795651E-2,5.823067948E-2
3.838463030E-1,2.078543603E-1,6.179660186E-2,6.067414209E-2
3.862476050E-1,2.127412707E-1,6.057487428E-2,5.456549302E-2
3.886496360E-1,2.139630020E-1,5.813141540E-2,4.967857525E-2
3.910508340E-1,2.139630020E-1,6.179660186E-2,4.967857525E-2
3.934513030E-1,2.139630020E-1,6.790524721E-2,5.334376171E-2
3.958526050E-1,2.164064646E-1,5.935314670E-2,4.845684394E-2
3.982546360E-1,2.164064646E-1,5.202276632E-2,4.723511636E-2
4.006558340E-1,2.115195543E-1,4.957931116E-2,4.845684394E-2
4.030563030E-1,2.090760916E-1,4.713584855E-2,4.479165748E-2
4.054576050E-1,2.017457038E-1,5.202276632E-2,4.845684394E-2
4.078596360E-1,1.968587935E-1,4.591412097E-2,4.479165748E-2
4.102608340E-1,1.968587935E-1,4.469239339E-2,4.356992617E-2
4.126613030E-1,1.944153309E-1,4.713584855E-2,4.234819859E-2
4.150626050E-1,1.980805248E-1,4.224893078E-2,3.379609063E-2
4.174645840E-1,1.968587935E-1,4.591412097E-2,3.379609063E-2
4.198657820E-1,1.980805248E-1,4.591412097E-2,3.013090417E-2
4.222663030E-1,1.968587935E-1,4.957931116E-2,3.013090417E-2
4.246675000E-1,2.041891664E-1,4.957931116E-2,2.768744528E-2
4.270695840E-1,2.102978230E-1,5.202276632E-2,2.768744528E-2
4.294707820E-1,2.188499272E-1,5.202276632E-2,2.402225509E-2
4.318712500E-1,2.237368375E-1,6.179660186E-2,2.768744528E-2
4.342725530E-1,2.298454940E-1,6.546178460E-2,2.524398640E-2
4.366745840E-1,2.481714338E-1,6.912697852E-2,2.402225509E-2
4.390757820E-1,2.616104484E-1,7.523562014E-2,2.524398640E-2
4.414762500E-1,2.787146568E-1,7.157043368E-2,2.157879807E-2
4.438775530E-1,2.970405817E-1,6.912697852E-2,1.669188030E-2
4.462795840E-1,3.165882826E-1,8.012254536E-2,1.424842142E-2
4.486807820E-1,3.349142075E-1,9.844848514E-2,2.157879807E-2
4.510812500E-1,3.532401323E-1,1.070005894E-1,2.646571770E-2
4.534825530E-1,3.776747584E-1,1.021136716E-1,2.402225509E-2
4.558845840E-1,3.972223997E-1,1.070005894E-1,2.646571770E-2
4.582857820E-1,4.143266082E-1,1.057788581E-1,2.402225509E-2
4.606862500E-1,4.302091002E-1,1.045571268E-1,2.280052751E-2
4.630875530E-1,4.509785175E-1,1.033354029E-1,2.157879807E-2
4.654895840E-1,4.680827260E-1,1.070005894E-1,2.402225509E-2
4.678907820E-1,4.937390685E-1,1.106657758E-1,2.524398640E-2
4.702912500E-1,5.132867098E-1,1.179961562E-1,3.013090417E-2
4.726925530E-1,5.352778435E-1,1.094440520E-1,2.646571770E-2
4.750945840E-1,5.584906936E-1,1.143309623E-1,2.768744528E-2
4.774957820E-1,5.792601109E-1,1.216613427E-1,2.646571770E-2
4.798962500E-1,5.975860357E-1,1.253265291E-1,2.402225509E-2
4.822975530E-1,6.159119606E-1,1.289917231E-1,2.280052751E-2
4.846995840E-1,6.366813779E-1,1.338786334E-1,2.157879807E-2
4.871007820E-1,6.550073028E-1,1.436524689E-1,2.280052751E-2
4.895012500E-1,6.782201529E-1,1.534263045E-1,2.157879807E-2
4.919025530E-1,7.014330626E-1,1.644218713E-1,2.157879807E-2
4.943045840E-1,7.246459126E-1,1.741957068E-1,1.424842142E-2
4.967057820E-1,7.454152703E-1,1.876347363E-1,1.180496253E-2
4.991062500E-1,7.661846876E-1,1.900781840E-1,8.093961515E-4
5.015075530E-1,7.845106125E-1,1.986303031E-1,-4.077521153E-3
5.039095840E-1,8.003931046E-1,2.047389448E-1,-1.018616837E-2
5.063107820E-1,8.138321638E-1,2.071824074E-1,-1.996000484E-2
5.087112500E-1,8.211625218E-1,2.218431532E-1,-2.606865019E-2
5.111125530E-1,8.309363723E-1,2.303952575E-1,-4.072940350E-2
5.135145840E-1,8.358232975E-1,2.487211972E-1,-5.172496662E-2
5.159157820E-1,8.443753719E-1,2.548298538E-1,-6.394226849E-2
5.183162500E-1,8.492622972E-1,2.670471668E-1,-7.249437273E-2
5.207175530E-1,8.553709388E-1,2.646037042E-1,-9.082031250E-2
5.231188550E-1,8.578144312E-1,2.719340920E-1,-1.018158793E-1
5.255208340E-1,8.614795804E-1,2.829296589E-1,-1.042593345E-1
5.279212500E-1,8.688099980E-1,2.743775249E-1,-1.067027971E-1
5.303225530E-1,8.688099980E-1,2.609385252E-1,-1.152549013E-1
5.327245840E-1,8.700317144E-1,2.413908243E-1,-1.262504607E-1
5.351257300E-1,8.712534308E-1,2.181779742E-1,-1.372460276E-1
5.375261980E-1,8.749186397E-1,1.949651092E-1,-1.470198631E-1
5.399275530E-1,8.810272813E-1,1.790826321E-1,-1.555719674E-1
5.423295320E-1,8.859142065E-1,1.766391695E-1,-1.616806090E-1
5.447307300E-1,8.810272813E-1,1.827478111E-1,-1.629023403E-1
5.471311980E-1,8.798055649E-1,1.949651092E-1,-1.641240716E-1
5.495325000E-1,8.724751472E-1,2.242866158E-1,-1.409112066E-1
5.519345320E-1,8.773620725E-1,2.218431532E-1,-1.189200953E-1
5.543357300E-1,8.688099980E-1,2.084041387E-1,-1.091462597E-1
5.567361980E-1,8.602578640E-1,1.925216466E-1,-1.030376107E-1
5.591375000E-1,8.590361476E-1,1.937433779E-1,-8.593339473E-2
5.615395320E-1,8.700317144E-1,1.937433779E-1,-4.805978015E-2
5.639407300E-1,8.736968637E-1,1.741957068E-1,-2.118173428E-2
5.663411980E-1,8.846924305E-1,1.754174381E-1,5.696313921E-3
5.687425000E-1,8.944662809E-1,1.632001400E-1,2.646571770E-2
5.711445320E-1,9.054618478E-1,1.534263045E-1,4.234819859E-2
5.735457300E-1,9.152356982E-1,1.497611254E-1,5.945241079E-2
5.759461980E-1,9.286746979E-1,1.448742002E-1,7.166970521E-2
5.783475000E-1,9.506658316E-1,1.485393941E-1,7.411316037E-2
5.807495320E-1,9.726569653E-1,1.778609008E-1,6.800451130E-2
5.831507300E-1,9.946480989E-1,2.218431532E-1,5.578722432E-2
5.855511980E-1,1.021526098E0,2.597167790E-1,5.212203413E-2
5.879525000E-1,1.052069306E0,3.024773002E-1,5.456549302E-2
5.903545320E-1,1.080169082E0,3.354640007E-1,6.433932483E-2
5.927557300E-1,1.108268857E0,3.598985970E-1,8.266526461E-2
5.951561980E-1,1.138812065E0,3.782245517E-1,1.119867712E-1
5.975575000E-1,1.168133616E0,3.831114471E-1,1.486386657E-1
5.999595320E-1,1.193789959E0,3.757810891E-1,1.938426495E-1
6.023607300E-1,1.225554943E0,3.623420596E-1,2.414901108E-1
6.047611980E-1,1.254876375E0,3.550116718E-1,2.940244377E-1
6.071625000E-1,1.286641359E0,3.452378511E-1,3.453370929E-1
6.095645320E-1,1.312297702E0,3.366857469E-1,4.027583599E-1
6.119657300E-1,1.348949552E0,3.159163296E-1,4.552927315E-1
6.143661980E-1,1.383157969E0,3.269118965E-1,5.200444460E-1
6.167675000E-1,1.406370878E0,3.476813138E-1,5.823526382E-1
6.191695320E-1,1.423475027E0,3.684507012E-1,6.397739053E-1
6.215707300E-1,1.440579295E0,3.879983723E-1,6.996386647E-1
6.239711980E-1,1.451574802E0,4.173198938E-1,7.631685734E-1
6.263725000E-1,1.463792205E0,4.515283108E-1,8.181464076E-1
6.287744800E-1,1.472344279E0,4.881801903E-1,8.657938838E-1
6.311757820E-1,1.479674578E0,5.394928455E-1,9.146630168E-1
6.335761980E-1,1.484561563E0,5.859185457E-1,9.574235678E-1
6.359773960E-1,1.494335413E0,6.213486791E-1,9.977405667E-1
6.383794800E-1,1.494335413E0,6.628875136E-1,1.036835909E0
6.407806780E-1,1.493113637E0,7.068697810E-1,1.078374624E0
6.431811460E-1,1.493113637E0,7.435216308E-1,1.117470026E0
6.455824480E-1,1.487004995E0,7.703996897E-1,1.152900219E0
6.479844800E-1,1.473565936E0,7.923908234E-1,1.183443427E0
6.503856780E-1,1.452796578E0,8.156036735E-1,1.216430068E0
6.527861460E-1,1.424696803E0,8.229340315E-1,1.244529843E0
6.551874480E-1,1.389266610E0,8.131602407E-1,1.256747127E0
6.575894800E-1,1.345284343E0,8.070515990E-1,1.268964410E0
6.599906780E-1,1.293971777E0,7.850604653E-1,1.267742753E0
6.623911460E-1,1.232885242E0,7.655127645E-1,1.268964410E0
6.647924480E-1,1.168133616E0,7.349695563E-1,1.264077544E0
6.671944800E-1,1.089942932E0,6.983176470E-1,1.251860261E0
6.695956780E-1,1.012974024E0,6.543353796E-1,1.232312560E0
6.719961460E-1,9.250095487E-1,6.054661870E-1,1.211543202E0
6.743974480E-1,8.309363723E-1,5.468232036E-1,1.182221651E0
6.767994800E-1,7.331979871E-1,4.735194445E-1,1.149235010E0
6.792006780E-1,6.256858110E-1,3.745593429E-1,1.102809310E0
6.816011460E-1,5.120649934E-1,2.768209875E-1,1.055161834E0
6.840024480E-1,3.898920417E-1,1.668653339E-1,1.001405716E0
6.864044800E-1,2.664973736E-1,5.324449763E-2,9.415410757E-1
6.888056780E-1,1.357723176E-1,-5.548942462E-2,8.816763163E-1
6.912061460E-1,6.268999539E-3,-1.532277763E-1,8.205899000E-1
6.936074480E-1,-1.159039438E-1,-2.424140275E-1,7.582816482E-1
6.960094800E-1,-2.258595973E-1,-3.108308613E-1,7.008603811E-1
6.984106780E-1,-3.199327588E-1,-3.572565913E-1,6.434391141E-1
7.008111460E-1,-3.907930851E-1,-3.841346204E-1,5.957916379E-1
7.032124480E-1,-4.359970689E-1,-3.877998292E-1,5.469225049E-1
7.056144280E-1,-4.543229938E-1,-3.816911578E-1,5.004967451E-1
7.080157300E-1,-4.433274269E-1,-3.584783077E-1,4.516275525E-1
7.104161460E-1,-4.188928604E-1,-3.120526075E-1,4.088670313E-1
7.128174480E-1,-3.675802350E-1,-2.680703402E-1,3.648847640E-1
7.152194800E-1,-3.077154756E-1,-2.033186853E-1,3.196807802E-1
7.176206250E-1,-2.466289848E-1,-1.239062771E-1,2.732550502E-1
7.200210940E-1,-1.830990613E-1,-2.738964744E-2,2.243858874E-1
7.224223960E-1,-1.220125854E-1,7.034870982E-2,1.718515307E-1
7.248244280E-1,-8.169551939E-2,1.534263045E-1,1.193171516E-1
7.272256250E-1,-4.748709500E-2,2.230648845E-1,6.678277999E-2
7.296260940E-1,-3.649152815E-2,2.694906294E-1,1.424842142E-2
7.320273960E-1,-2.793942392E-2,2.988121212E-1,-3.584248573E-2
7.344294280E-1,-4.382190853E-2,3.073642254E-1,-8.593339473E-2
7.368306250E-1,-7.069995254E-2,3.171380758E-1,-1.323591173E-1
7.392310940E-1,-1.012431905E-1,3.183597922E-1,-1.800065488E-1
7.416323960E-1,-1.354516149E-1,3.073642254E-1,-2.252105474E-1
7.440344280E-1,-1.574427485E-1,2.817079127E-1,-2.655276358E-1
7.464356250E-1,-1.830990613E-1,2.609385252E-1,-3.082881570E-1
7.488360940E-1,-2.002032697E-1,2.218431532E-1,-3.534921408E-1
7.512373960E-1,-2.295247763E-1,1.803043634E-1,-3.877005875E-1
7.536394280E-1,-2.319682389E-1,1.289917231E-1,-4.267959297E-1
7.560406250E-1,-2.710635662E-1,8.134426922E-2,-4.671129882E-1
7.584410940E-1,-2.967199087E-1,2.636644803E-2,-5.037648678E-1
7.608423960E-1,-3.101589084E-1,-1.883754134E-2,-5.367515087E-1
7.632444280E-1,-3.089371920E-1,-8.236747235E-2,-5.685164928E-1
7.656456250E-1,-3.174893260E-1,-1.422322243E-1,-5.990597606E-1
7.680460940E-1,-2.893895507E-1,-2.118707895E-1,-6.283812523E-1
7.704473960E-1,-2.832808495E-1,-2.692920566E-1,-6.442637444E-1
7.728494280E-1,-2.808374166E-1,-3.291568160E-1,-6.589244604E-1
7.752506250E-1,-2.783939838E-1,-3.694738746E-1,-6.625896692E-1
7.776510940E-1,-2.820591331E-1,-4.000171125E-1,-6.625896692E-1
7.800523960E-1,-2.918329835E-1,-4.012388587E-1,-6.528158188E-1
7.824543750E-1,-2.967199087E-1,-3.975736499E-1,-6.308246851E-1
7.848555730E-1,-2.979416251E-1,-3.877998292E-1,-5.978379846E-1
7.872560940E-1,-3.480325341E-1,-3.731390536E-1,-5.672947764E-1
7.896572920E-1,-4.030103683E-1,-3.731390536E-1,-5.391950011E-1
7.920593750E-1,-4.677620530E-1,-3.743607998E-1,-5.049865842E-1
7.944605730E-1,-5.251833200E-1,-3.719173372E-1,-4.744433761E-1
7.968610420E-1,-5.911567211E-1,-3.584783077E-1,-4.414566755E-1
7.992623440E-1,-6.595735550E-1,-3.352654576E-1,-4.182438254E-1
8.016643750E-1,-7.145513892E-1,-2.839528322E-1,-4.035830498E-1
8.040655730E-1,-7.573119402E-1,-2.143142521E-1,-3.913657665E-1
8.064660420E-1,-7.866334319E-1,-1.617798954E-1,-3.767050207E-1
8.088673440E-1,-7.939637899E-1,-1.287931949E-1,-3.596008122E-1
8.112693750E-1,-7.707509398E-1,-1.275714636E-1,-3.510486782E-1
8.136705730E-1,-7.157731056E-1,-1.397887617E-1,-3.376096785E-1
8.160710420E-1,-6.681256890E-1,-1.422322243E-1,-3.315010369E-1
8.184723440E-1,-6.204782128E-1,-1.006934196E-1,-3.107316196E-1
8.208743750E-1,-5.899350047E-1,-4.571558908E-2,-2.911839485E-1
8.232755730E-1,-5.557265878E-1,1.537088398E-2,-2.728579938E-1
8.256760420E-1,-4.958618283E-1,3.369682655E-2,-2.679710984E-1
8.280773440E-1,-4.152276516E-1,-2.955058357E-3,-3.131750822E-1
8.304793750E-1,-2.967199087E-1,-8.969785273E-2,-4.145786166E-1
8.328805730E-1,-1.342298836E-1,-1.935448498E-1,-5.562992096E-1
8.352810420E-1,5.635990947E-2,-2.314184606E-1,-7.261195779E-1
8.376823440E-1,2.481714338E-1,-2.094273418E-1,-9.057138562E-1
8.400843750E-1,4.326525927E-1,-1.116889790E-1,-1.076756120E0
8.424855210E-1,5.792601109E-1,7.034870982E-2,-1.200150728E0
8.448859900E-1,6.708897948E-1,3.171380758E-1,-1.266124129E0
8.472872920E-1,7.026547790E-1,5.993575454E-1,-1.251463413E0
8.496893230E-1,6.892157197E-1,8.571425080E-1,-1.142729521E0
8.520905210E-1,6.379030943E-1,1.024519324E0,-9.582481980E-1
8.544909900E-1,5.584906936E-1,1.079497218E0,-7.200109363E-1
8.568922920E-1,4.497568011E-1,1.014745474E0,-4.597826004E-1
8.592943230E-1,3.251403570E-1,8.546990156E-1,-2.044411451E-1
8.616955210E-1,1.993022561E-1,6.189052463E-1,8.139774203E-3
8.640959900E-1,8.568141609E-2,3.440161049E-1,1.608559638E-1
8.664972920E-1,-8.391753770E-3,6.179660186E-2,2.573725581E-1
8.688993230E-1,-7.558687031E-2,-2.057621479E-1,3.123503923E-1
8.713005210E-1,-1.159039438E-1,-4.281168878E-1,3.355632424E-1
8.737009900E-1,-1.342298836E-1,-5.967155695E-1,3.453370929E-1
8.761022920E-1,-1.244560480E-1,-7.054494619E-1,3.331197798E-1
8.785043230E-1,-9.757800400E-2,-7.482100129E-1,3.086852133E-1
8.809055210E-1,-6.336957961E-2,-7.213319540E-1,2.818071544E-1
8.833059900E-1,-2.183077484E-2,-6.406978369E-1,2.524856627E-1
8.857072920E-1,1.848629490E-2,-5.014206767E-1,2.207206935E-1
8.881093230E-1,5.513817817E-2,-3.316002786E-1,1.828470826E-1
8.905105210E-1,7.957276702E-2,-1.324583739E-1,1.437517405E-1
8.929109900E-1,9.667697549E-2,7.157043368E-2,9.854774922E-2
8.953122920E-1,1.052290872E-1,2.548298538E-1,5.090030655E-2
8.977143230E-1,1.040073559E-1,4.075460434E-1,2.157879807E-2
9.001154690E-1,1.027856246E-1,4.906236529E-1,-7.742709480E-3
9.025159900E-1,9.179006517E-2,5.309407115E-1,-2.973383851E-2
9.049171880E-1,7.224238664E-2,5.370493531E-1,-3.706421703E-2
9.073192710E-1,4.902952909E-2,5.077278614E-1,-3.462075815E-2
9.097204690E-1,2.948185802E-2,4.600804150E-1,-3.095556796E-2
9.121209380E-1,1.115591731E-2,4.014374018E-1,-2.606865019E-2
9.145222400E-1,-7.170024328E-3,3.379074633E-1,-1.507308707E-2
9.169242710E-1,-1.816558838E-2,2.719340920E-1,-7.742709480E-3
9.193254690E-1,-2.671769261E-2,2.230648845E-1,4.474584479E-3
9.217259380E-1,-3.038288280E-2,1.778609008E-1,1.302669197E-2
9.241272400E-1,-3.282634169E-2,1.534263045E-1,2.524398640E-2
9.265292710E-1,-3.404807299E-2,1.412090212E-1,3.013090417E-2
9.289304690E-1,-3.038288280E-2,1.436524689E-1,3.623955324E-2
9.313309380E-1,-2.427423745E-2,1.583132297E-1,4.112647101E-2
9.337322400E-1,-1.816558838E-2,1.778609008E-1,4.479165748E-2
9.361342710E-1,-8.391753770E-3,1.925216466E-1,4.234819859E-2
9.385354690E-1,-1.061377116E-3,2.169562429E-1,4.601338878E-2
9.409359380E-1,5.047270097E-3,2.352821827E-1,4.601338878E-2
9.433372400E-1,1.237764675E-2,2.413908243E-1,4.112647101E-2
9.457392710E-1,1.604283601E-2,2.474994808E-1,4.356992617E-2
9.481404690E-1,2.092975378E-2,2.462777495E-1,4.112647101E-2
9.505409380E-1,2.092975378E-2,2.426125556E-1,3.868300840E-2
9.529422400E-1,2.215148136E-2,2.340604514E-1,3.746128082E-2
9.553442710E-1,2.215148136E-2,2.230648845E-1,3.379609063E-2
9.577454170E-1,2.215148136E-2,2.145127803E-1,3.135263547E-2
9.601458860E-1,1.848629490E-2,2.010737509E-1,2.524398640E-2
9.625471880E-1,1.482110564E-2,1.949651092E-1,2.646571770E-2
9.649492190E-1,1.237764675E-2,1.876347363E-1,2.280052751E-2
9.673504170E-1,7.490728982E-3,1.717522442E-1,1.669188030E-2
9.697508860E-1,3.825540654E-3,1.668653339E-1,1.302669197E-2
9.721521880E-1,-4.726565443E-3,1.680870652E-1,1.791360974E-2
9.745542190E-1,-5.948294885E-3,1.644218713E-1,1.547015086E-2
9.769554170E-1,-8.391753770E-3,1.607566923E-1,1.547015086E-2
9.793558860E-1,-1.083521172E-2,1.583132297E-1,1.547015086E-2
9.817571880E-1,-1.572212949E-2,1.570914984E-1,1.669188030E-2
9.841592190E-1,-1.694386080E-2,1.680870652E-1,2.280052751E-2
9.865604170E-1,-1.816558838E-2,1.717522442E-1,2.524398640E-2
9.889608860E-1,-2.305250615E-2,1.741957068E-1,2.890917286E-2
9.913621880E-1,-3.649152815E-2,1.766391695E-1,3.135263547E-2
9.937642190E-1,-4.993055388E-2,1.754174381E-1,2.890917286E-2
9.961654170E-1,-5.359574407E-2,1.827478111E-1,2.646571770E-2
9.985658860E-1,-5.726093054E-2,1.949651092E-1,2.890917286E-2
1.000967188E0,-5.359574407E-2,2.084041387E-1,2.890917286E-2
1.003369219E0,-4.382190853E-2,2.218431532E-1,3.013090417E-2
1.005770417E0,-3.404807299E-2,2.340604514E-1,2.768744528E-2
1.008170886E0,-2.549596503E-2,2.462777495E-1,2.768744528E-2
1.010572084E0,-1.572212949E-2,2.511646748E-1,2.890917286E-2
1.012974167E0,-3.504836001E-3,2.523864210E-1,2.768744528E-2
1.015375365E0,7.490728982E-3,2.499429435E-1,2.646571770E-2
1.017775834E0,1.604283601E-2,2.462777495E-1,2.646571770E-2
1.020177136E0,1.604283601E-2,2.487211972E-1,3.501782194E-2
1.022579167E0,1.970802248E-2,2.377256453E-1,3.135263547E-2
1.024980365E0,2.459494025E-2,2.267300785E-1,3.135263547E-2
1.027380834E0,2.215148136E-2,2.206214219E-1,3.746128082E-2
1.029782136E0,2.215148136E-2,2.035172135E-1,3.501782194E-2
1.032184167E0,2.337321267E-2,1.949651092E-1,3.501782194E-2
1.034585365E0,1.726456359E-2,1.888564676E-1,3.623955324E-2
1.036985834E0,1.237764675E-2,1.803043634E-1,3.257436305E-2
1.039387136E0,6.268999539E-3,1.778609008E-1,3.379609063E-2
1.041789167E0,1.603523269E-4,1.778609008E-1,3.379609063E-2
1.044190365E0,-4.726565443E-3,1.729739755E-1,3.257436305E-2
1.046590834E0,-1.572212949E-2,1.729739755E-1,3.257436305E-2
1.048992136E0,-1.938731968E-2,1.717522442E-1,3.135263547E-2
1.051394115E0,-2.183077484E-2,1.668653339E-1,2.646571770E-2
1.053795417E0,-2.671769261E-2,1.656436026E-1,2.402225509E-2
1.056195782E0,-2.916115522E-2,1.595349610E-1,2.035706863E-2
1.058597084E0,-3.526980057E-2,1.558697671E-1,2.035706863E-2
1.060999115E0,-3.282634169E-2,1.436524689E-1,1.424842142E-2
1.063400313E0,-3.771325946E-2,1.375438273E-1,1.669188030E-2
1.065800782E0,-4.382190853E-2,1.289917231E-1,1.302669197E-2
1.068202084E0,-4.748709500E-2,1.143309623E-1,1.058323309E-2
1.070604115E0,-5.481746793E-2,1.033354029E-1,1.180496253E-2
1.073005313E0,-6.336957961E-2,9.722675383E-2,1.547015086E-2
1.075405782E0,-7.436513901E-2,8.867464960E-2,2.035706863E-2
1.077807084E0,-8.291725069E-2,6.668351591E-2,2.035706863E-2
1.080209115E0,-9.391281009E-2,3.980547562E-2,2.157879807E-2
1.082610313E0,-1.061301082E-1,2.270125970E-2,2.890917286E-2
1.085010782E0,-1.146822125E-1,-2.955058357E-3,3.013090417E-2
1.087412084E0,-1.220125854E-1,-1.883754134E-2,3.868300840E-2
1.089814115E0,-1.281212419E-1,-3.349829093E-2,3.868300840E-2
1.092215313E0,-1.330081522E-1,-3.472002223E-2,3.990473971E-2
1.094615782E0,-1.293429732E-1,-3.594175354E-2,3.746128082E-2
1.097017084E0,-1.317864209E-1,-2.005927078E-2,4.479165748E-2
1.099419063E0,-1.256777793E-1,-1.272889320E-2,4.479165748E-2
1.101820261E0,-1.207908541E-1,-6.620246917E-3,4.601338878E-2
1.104220730E0,-1.195691377E-1,-5.115994718E-4,4.601338878E-2
1.106622032E0,-1.146822125E-1,7.101298543E-4,3.623955324E-2
1.109024063E0,-1.085735708E-1,-5.115994718E-4,1.913533919E-2
1.111425261E0,-1.024649218E-1,1.414915454E-2,4.474584479E-3
1.113825730E0,-9.391281009E-2,3.125336766E-2,-1.385135762E-2
1.116227032E0,-7.558687031E-2,3.614028543E-2,-3.828594461E-2
1.118629063E0,-5.848266184E-2,3.980547562E-2,-6.027707458E-2
1.121030261E0,-4.260017723E-2,4.224893078E-2,-7.615955919E-2
1.123430730E0,-3.160461038E-2,5.446622893E-2,-7.982475311E-2
1.125832032E0,-2.183077484E-2,5.935314670E-2,-7.982475311E-2
1.128234063E0,-1.694386080E-2,6.301832944E-2,-7.738129050E-2
1.130635261E0,-1.450040191E-2,6.301832944E-2,-7.493782789E-2
1.133035730E0,-1.572212949E-2,7.401389629E-2,-6.638572365E-2
1.135437032E0,-2.305250615E-2,7.767908275E-2,-6.149880216E-2
1.137839063E0,-3.404807299E-2,9.478329122E-2,-5.050323904E-2
1.140240261E0,-4.382190853E-2,1.070005894E-1,-3.950767592E-2
1.142640678E0,-5.848266184E-2,1.131092384E-1,-3.339902684E-2
1.145042032E0,-7.314341515E-2,1.118875071E-1,-2.118173428E-2
1.147444011E0,-8.902589977E-2,1.167744249E-1,-8.964438923E-3
1.149845209E0,-9.513454139E-2,1.118875071E-1,-6.520980038E-3
1.152245678E0,-1.012431905E-1,1.179961562E-1,8.093961515E-4
1.154646980E0,-1.012431905E-1,1.192178875E-1,8.093961515E-4
1.157049011E0,-8.169551939E-2,1.363220960E-1,-6.520980038E-3
1.159450209E0,-4.993055388E-2,1.754174381E-1,-8.964438923E-3
1.161850678E0,-1.205694303E-2,1.986303031E-1,-1.751654595E-2
1.164251980E0,-2.283106558E-3,1.827478111E-1,-1.873827539E-2
1.166654011E0,-1.205694303E-2,1.094440520E-1,-2.240346372E-2
1.169055209E0,-4.137844592E-2,1.292742509E-2,-2.240346372E-2
1.171455678E0,-7.436513901E-2,-6.037634239E-2,-1.262962818E-2
1.173856980E0,-9.146935493E-2,-1.006934196E-1,-5.299250595E-3
1.176259011E0,-1.049083769E-1,-9.091958404E-2,8.139774203E-3
1.178660209E0,-1.061301082E-1,-5.548942462E-2,1.058323309E-2
1.181060678E0,-9.879973531E-2,-1.883754134E-2,2.031125594E-3
1.183461980E0,-9.513454139E-2,2.514471859E-2,-2.855792176E-3
1.185864011E0,-8.658243716E-2,5.935314670E-2,-2.240346372E-2
1.188265157E0,-8.291725069E-2,9.356156737E-2,-4.072940350E-2
1.190665625E0,-7.803033292E-2,1.228830740E-1,-4.805978015E-2
1.193066928E0,-9.024762362E-2,1.509828418E-1,-3.828594461E-2
1.195468959E0,-1.085735708E-1,1.570914984E-1,-1.996000484E-2
1.197870157E0,-1.281212419E-1,1.314351708E-1,9.361503646E-3
1.200270625E0,-1.330081522E-1,8.867464960E-2,2.402225509E-2
1.202671928E0,-1.268995106E-1,5.935314670E-2,1.791360974E-2
1.205073959E0,-1.207908541E-1,4.957931116E-2,5.696313921E-3
1.207475157E0,-1.171256751E-1,5.324449763E-2,5.696313921E-3
1.209875625E0,-1.122387573E-1,5.324449763E-2,2.402225509E-2
1.212276928E0,-1.085735708E-1,2.758817747E-2,4.234819859E-2
1.214678959E0,-1.024649218E-1,-5.398517475E-3,4.112647101E-2
1.217080157E0,-8.902589977E-2,-7.841976359E-3,1.913533919E-2
1.219480625E0,-7.436513901E-2,3.153588623E-3,-1.140789781E-2
1.221881928E0,-6.581303477E-2,1.781434193E-2,-8.964438923E-3
1.224283907E0,-5.970439315E-2,2.758817747E-2,2.031125594E-3
1.226685209E0,-5.726093054E-2,3.858374432E-2,5.696313921E-3
1.229085573E0,-5.481746793E-2,4.469239339E-2,8.093961515E-4
1.231486875E0,-5.603919923E-2,5.690968409E-2,8.093961515E-4
1.233888907E0,-5.481746793E-2,6.179660186E-2,-7.742709480E-3
1.236290105E0,-5.603919923E-2,6.546178460E-2,-1.873827539E-2
1.238690573E0,-5.359574407E-2,7.645735145E-2,-1.873827539E-2
1.241091875E0,-4.993055388E-2,8.378773183E-2,-1.751654595E-2
1.243493907E0,-4.504363611E-2,9.356156737E-2,-1.629481651E-2
1.245895105E0,-3.771325946E-2,9.844848514E-2,-1.507308707E-2
1.248295573E0,-3.038288280E-2,9.844848514E-2,-8.964438923E-3
1.250696875E0,-1.816558838E-2,8.378773183E-2,-1.140789781E-2
1.253098907E0,-1.327867061E-2,7.401389629E-2,-4.077521153E-3
1.255500105E0,-9.613484144E-3,5.568795651E-2,-4.123332910E-4
1.257900573E0,-8.391753770E-3,3.614028543E-2,4.474584479E-3
1.260301875E0,-4.726565443E-3,5.597047508E-3,2.031125594E-3
1.262703907E0,-3.504836001E-3,-1.028543431E-2,3.252855036E-3
1.265105053E0,1.603523269E-4,-2.738964744E-2,8.093961515E-4
1.267505521E0,7.490728982E-3,-3.349829093E-2,-4.123332910E-4
1.269906823E0,8.712458424E-3,-3.349829093E-2,2.031125594E-3
1.272308855E0,1.482110564E-2,-3.349829093E-2,5.696313921E-3
1.274710053E0,2.215148136E-2,-2.983310632E-2,1.547015086E-2
1.277110521E0,2.459494025E-2,-2.616791800E-2,1.791360974E-2
1.279511823E0,2.337321267E-2,-2.005927078E-2,1.791360974E-2
1.281913855E0,2.215148136E-2,-2.128100023E-2,1.547015086E-2
1.284315053E0,1.604283601E-2,-2.494618855E-2,1.180496253E-2
1.286715521E0,6.268999539E-3,-2.372445911E-2,1.424842142E-2
1.289116823E0,2.603811212E-3,-3.472002223E-2,1.058323309E-2
1.291518855E0,-2.283106558E-3,-3.472002223E-2,1.302669197E-2
1.293920053E0,-3.504836001E-3,-3.227656335E-2,1.547015086E-2
1.296320521E0,-1.061377116E-3,-3.105483577E-2,1.058323309E-2
1.298721823E0,3.825540654E-3,-2.738964744E-2,3.252855036E-3
1.301123803E0,9.934187867E-3,-2.250272967E-2,-4.123332910E-4
1.303525000E0,1.604283601E-2,-1.639408246E-2,-4.123332910E-4
1.305925469E0,2.092975378E-2,-5.398517475E-3,2.031125594E-3
1.308326771E0,2.948185802E-2,-5.398517475E-3,2.031125594E-3
1.310728803E0,3.559050709E-2,-1.733328914E-3,3.252855036E-3
1.313130000E0,3.803396598E-2,-4.176788032E-3,2.031125594E-3
1.315530469E0,3.436877578E-2,-4.176788032E-3,2.031125594E-3
1.317931771E0,3.070358932E-2,-5.115994718E-4,1.058323309E-2
1.320333803E0,2.948185802E-2,-7.841976359E-3,9.361503646E-3
1.322735000E0,2.581667155E-2,-2.128100023E-2,8.139774203E-3
1.325135469E0,2.215148136E-2,-3.105483577E-2,1.302669197E-2
1.327536771E0,2.459494025E-2,-5.182423443E-2,8.139774203E-3
1.329938803E0,2.459494025E-2,-6.770671904E-2,5.696313921E-3
1.332340000E0,2.459494025E-2,-8.114574850E-2,8.139774203E-3
1.334740469E0,3.070358932E-2,-9.702822566E-2,5.696313921E-3
1.337141771E0,2.826013044E-2,-9.580649436E-2,1.424842142E-2
1.339543803E0,2.826013044E-2,-9.458477050E-2,1.913533919E-2
1.341944948E0,2.581667155E-2,-8.847612143E-2,2.035706863E-2
1.344345417E0,2.337321267E-2,-8.481093496E-2,1.913533919E-2
1.346746719E0,1.726456359E-2,-7.503709942E-2,1.547015086E-2
1.349148750E0,1.482110564E-2,-7.259363681E-2,1.180496253E-2
1.351549948E0,7.490728982E-3,-7.259363681E-2,1.058323309E-2
1.353950417E0,1.382081769E-3,-7.748055458E-2,3.252855036E-3
1.356351719E0,-3.504836001E-3,-8.725439012E-2,-1.634062734E-3
1.358753750E0,-8.391753770E-3,-1.019151434E-1,-5.299250595E-3
1.361154948E0,-1.083521172E-2,-1.177976280E-1,-8.964438923E-3
1.363555417E0,-5.948294885E-3,-1.410104930E-1,-2.118173428E-2
1.365956719E0,-2.283106558E-3,-1.532277763E-1,-2.606865019E-2
1.368358750E0,3.825540654E-3,-1.630016118E-1,-2.729037963E-2
1.370759948E0,6.268999539E-3,-1.666668057E-1,-2.606865019E-2
1.373160417E0,3.825540654E-3,-1.617798954E-1,-2.118173428E-2
1.375561615E0,3.825540654E-3,-1.605581641E-1,-2.240346372E-2
1.377963698E0,-1.061377116E-3,-1.520060450E-1,-1.873827539E-2
1.380364896E0,-3.504836001E-3,-1.507843286E-1,-2.118173428E-2
1.382765365E0,-5.948294885E-3,-1.483408660E-1,-2.362519130E-2
1.385166667E0,-8.391753770E-3,-1.446756721E-1,-2.240346372E-2
1.387568698E0,-1.205694303E-2,-1.397887617E-1,-1.873827539E-2
1.389969896E0,-1.205694303E-2,-1.385670304E-1,-1.873827539E-2
1.392370365E0,-1.327867061E-2,-1.397887617E-1,-1.996000484E-2
1.394771667E0,-1.327867061E-2,-1.373452991E-1,-1.873827539E-2
1.397173698E0,-1.694386080E-2,-1.385670304E-1,-1.629481651E-2
1.399574896E0,-1.938731968E-2,-1.385670304E-1,-1.262962818E-2
1.401975365E0,-2.060904726E-2,-1.312366575E-1,-6.520980038E-3
1.404376667E0,-1.938731968E-2,-1.361235678E-1,-1.018616837E-2
1.406778646E0,-1.816558838E-2,-1.397887617E-1,-1.385135762E-2
1.409179948E0,-2.060904726E-2,-1.361235678E-1,-1.140789781E-2
1.411580313E0,-2.305250615E-2,-1.349018365E-1,-1.140789781E-2
1.413981615E0,-2.060904726E-2,-1.422322243E-1,-1.629481651E-2
1.416383646E0,-2.427423745E-2,-1.410104930E-1,-1.629481651E-2
1.418784844E0,-2.060904726E-2,-1.495625973E-1,-2.362519130E-2
1.421185313E0,-1.938731968E-2,-1.568929702E-1,-2.606865019E-2
1.423586615E0,-1.816558838E-2,-1.617798954E-1,-2.851210907E-2
1.425988646E0,-2.060904726E-2,-1.642233431E-1,-2.362519130E-2
1.428389844E0,-2.183077484E-2,-1.703319997E-1,-2.118173428E-2
1.430790313E0,-2.305250615E-2,-1.727754474E-1,-2.118173428E-2
1.433191615E0,-2.183077484E-2,-1.739971787E-1,-1.996000484E-2
1.435593646E0,-2.183077484E-2,-1.739971787E-1,-1.996000484E-2
1.437994844E0,-2.427423745E-2,-1.605581641E-1,-1.751654595E-2
1.440395313E0,-2.671769261E-2,-1.544495076E-1,-2.118173428E-2
1.442796615E0,-3.038288280E-2,-1.471191347E-1,-2.240346372E-2
1.445198594E0,-4.504363611E-2,-1.324583739E-1,-2.240346372E-2
1.447599792E0,-4.993055388E-2,-1.324583739E-1,-3.095556796E-2
1.450000261E0,-6.214784831E-2,-1.275714636E-1,-3.217729926E-2
1.452401563E0,-7.192168385E-2,-1.287931949E-1,-3.462075815E-2
1.454803594E0,-7.803033292E-2,-1.422322243E-1,-4.439459369E-2
1.457204792E0,-8.658243716E-2,-1.458974034E-1,-4.805978015E-2
1.459605261E0,-9.146935493E-2,-1.507843286E-1,-4.928151146E-2
1.462006563E0,-9.513454139E-2,-1.617798954E-1,-5.416842923E-2
1.464408594E0,-1.000214592E-1,-1.630016118E-1,-5.050323904E-2
1.466809792E0,-1.000214592E-1,-1.691102684E-1,-5.294669792E-2
1.469210261E0,-1.024649218E-1,-1.666668057E-1,-5.050323904E-2
1.471611563E0,-1.012431905E-1,-1.654450744E-1,-5.050323904E-2
1.474013542E0,-9.879973531E-2,-1.654450744E-1,-5.661188439E-2
1.476414740E0,-1.000214592E-1,-1.593364328E-1,-5.539015681E-2
1.478815209E0,-1.000214592E-1,-1.581147015E-1,-5.661188439E-2
1.481216511E0,-1.012431905E-1,-1.605581641E-1,-5.539015681E-2
1.483618542E0,-9.757800400E-2,-1.678885370E-1,-5.783361569E-2
1.486019740E0,-9.513454139E-2,-1.678885370E-1,-6.149880216E-2
1.488420209E0,-9.146935493E-2,-1.752189100E-1,-6.272053719E-2
1.490821511E0,-8.902589977E-2,-1.776623726E-1,-6.027707458E-2
1.493223542E0,-8.536070585E-2,-1.813275665E-1,-6.149880216E-2
1.495624740E0,-8.536070585E-2,-1.801058352E-1,-5.539015681E-2
1.498025209E0,-8.413897455E-2,-1.776623726E-1,-5.294669792E-2
1.500426511E0,-8.169551939E-2,-1.801058352E-1,-5.294669792E-2
1.502828542E0,-8.780416846E-2,-1.691102684E-1,-4.072940350E-2
1.505229740E0,-9.024762362E-2,-1.630016118E-1,-3.584248573E-2
1.507630209E0,-8.780416846E-2,-1.605581641E-1,-3.584248573E-2
1.510031407E0,-8.780416846E-2,-1.556712389E-1,-3.217729926E-2
1.512433490E0,-8.902589977E-2,-1.532277763E-1,-3.095556796E-2
1.514834688E0,-8.658243716E-2,-1.520060450E-1,-3.217729926E-2
1.517235157E0,-8.780416846E-2,-1.568929702E-1,-3.706421703E-2
1.519636459E0,-8.536070585E-2,-1.630016118E-1,-3.828594461E-2
1.522038490E0,-8.413897455E-2,-1.630016118E-1,-3.706421703E-2
1.524439688E0,-8.536070585E-2,-1.556712389E-1,-3.584248573E-2
1.526840157E0,-8.413897455E-2,-1.605581641E-1,-3.950767592E-2
1.529241459E0,-8.658243716E-2,-1.520060450E-1,-3.828594461E-2
1.531643490E0,-8.780416846E-2,-1.532277763E-1,-4.072940350E-2
1.534044688E0,-8.536070585E-2,-1.568929702E-1,-4.683804885E-2
1.536445157E0,-8.658243716E-2,-1.581147015E-1,-4.928151146E-2
1.538846459E0,-8.658243716E-2,-1.568929702E-1,-4.805978015E-2
1.541248438E0,-8.902589977E-2,-1.568929702E-1,-5.050323904E-2
1.543649636E0,-8.413897455E-2,-1.642233431E-1,-5.539015681E-2
1.546050105E0,-8.047378808E-2,-1.642233431E-1,-6.027707458E-2
1.548451407E0,-8.047378808E-2,-1.703319997E-1,-6.272053719E-2
1.550853438E0,-7.680860162E-2,-1.813275665E-1,-6.882918626E-2
1.553254636E0,-6.825649738E-2,-1.996535063E-1,-7.738129050E-2
1.555655105E0,-6.703476608E-2,-2.094273418E-1,-7.493782789E-2
1.558056407E0,-5.848266184E-2,-2.253098190E-1,-7.738129050E-2
1.560458438E0,-5.359574407E-2,-2.204229087E-1,-7.371610403E-2
1.562859636E0,-4.748709500E-2,-2.192011774E-1,-7.127264142E-2
1.565260105E0,-4.260017723E-2,-2.204229087E-1,-7.493782789E-2
1.567661407E0,-4.137844592E-2,-2.179794461E-1,-7.738129050E-2
1.570063386E0,-4.015671834E-2,-2.130925208E-1,-7.615955919E-2
1.572464584E0,-3.893499076E-2,-2.069838792E-1,-7.738129050E-2
1.574865053E0,-4.260017723E-2,-1.984317750E-1,-7.860302180E-2
1.577266355E0,-4.260017723E-2,-2.033186853E-1,-7.860302180E-2
1.579668386E0,-4.260017723E-2,-2.033186853E-1,-7.371610403E-2
1.582069584E0,-4.137844592E-2,-1.911013871E-1,-6.760745496E-2
1.584470053E0,-3.771325946E-2,-1.862144768E-1,-6.882918626E-2
1.586871355E0,-3.649152815E-2,-1.825492829E-1,-6.882918626E-2
1.589273386E0,-3.526980057E-2,-1.776623726E-1,-6.882918626E-2
1.591674584E0,-3.526980057E-2,-1.739971787E-1,-6.760745496E-2
1.594075053E0,-3.771325946E-2,-1.666668057E-1,-6.027707458E-2
1.596476355E0,-3.649152815E-2,-1.642233431E-1,-5.905534700E-2
1.598878386E0,-3.526980057E-2,-1.654450744E-1,-5.905534700E-2
1.601279532E0,-3.771325946E-2,-1.593364328E-1,-5.294669792E-2
1.603680000E0,-4.015671834E-2,-1.556712389E-1,-4.805978015E-2
1.606081303E0,-3.771325946E-2,-1.483408660E-1,-4.195113108E-2
1.608483334E0,-4.260017723E-2,-1.397887617E-1,-3.584248573E-2
1.610884532E0,-3.893499076E-2,-1.385670304E-1,-3.462075815E-2
1.613285000E0,-4.015671834E-2,-1.361235678E-1,-3.462075815E-2
1.615686303E0,-4.260017723E-2,-1.239062771E-1,-2.973383851E-2
1.618088334E0,-4.015671834E-2,-1.214628145E-1,-2.606865019E-2
1.620489532E0,-4.260017723E-2,-1.202410907E-1,-2.362519130E-2
1.622890000E0,-4.382190853E-2,-1.177976280E-1,-2.240346372E-2
1.625291303E0,-4.260017723E-2,-1.190193594E-1,-2.362519130E-2
1.627693282E0,-4.382190853E-2,-1.165758967E-1,-2.240346372E-2
1.630094480E0,-4.260017723E-2,-1.141324416E-1,-2.362519130E-2
1.632494948E0,-4.748709500E-2,-1.129107103E-1,-2.362519130E-2
1.634896250E0,-4.993055388E-2,-1.153541654E-1,-2.362519130E-2
1.637298282E0,-4.870882630E-2,-1.202410907E-1,-3.095556796E-2
1.639699480E0,-5.115228146E-2,-1.239062771E-1,-3.217729926E-2
1.642099948E0,-4.993055388E-2,-1.287931949E-1,-3.339902684E-2
1.644501250E0,-5.359574407E-2,-1.349018365E-1,-3.217729926E-2
1.646903282E0,-5.115228146E-2,-1.458974034E-1,-3.584248573E-2
1.649304480E0,-4.748709500E-2,-1.556712389E-1,-3.950767592E-2
1.651704948E0,-4.504363611E-2,-1.666668057E-1,-4.439459369E-2
1.654106250E0,-4.260017723E-2,-1.776623726E-1,-4.683804885E-2
1.656508282E0,-4.260017723E-2,-1.801058352E-1,-4.317286238E-2
1.658909428E0,-4.382190853E-2,-1.813275665E-1,-4.317286238E-2
1.661309896E0,-4.504363611E-2,-1.874362081E-1,-4.683804885E-2
1.663711198E0,-4.870882630E-2,-1.898796707E-1,-5.050323904E-2
1.666113230E0,-4.382190853E-2,-1.984317750E-1,-5.539015681E-2
1.668514428E0,-4.748709500E-2,-1.996535063E-1,-5.539015681E-2
1.670914896E0,-4.626536369E-2,-2.045404166E-1,-6.027707458E-2
1.673316198E0,-5.115228146E-2,-2.069838792E-1,-5.783361569E-2
1.675718230E0,-5.481746793E-2,-2.179794461E-1,-5.416842923E-2
1.678119428E0,-5.481746793E-2,-2.314184606E-1,-4.683804885E-2
1.680519896E0,-5.603919923E-2,-2.399705797E-1,-3.339902684E-2
1.682921198E0,-5.603919923E-2,-2.436357588E-1,-1.996000484E-2
1.685323230E0,-4.870882630E-2,-2.509661317E-1,-1.751654595E-2
1.687724375E0,-4.748709500E-2,-2.436357588E-1,-1.385135762E-2
1.690124844E0,-4.382190853E-2,-2.411922961E-1,-1.629481651E-2
1.692526146E0,-4.260017723E-2,-2.350836545E-1,-1.751654595E-2
1.694928178E0,-3.893499076E-2,-2.265315503E-1,-2.362519130E-2
1.697329375E0,-4.137844592E-2,-2.253098190E-1,-2.851210907E-2
1.699729844E0,-4.382190853E-2,-2.204229087E-1,-2.729037963E-2
1.702131146E0,-4.260017723E-2,-2.155359834E-1,-2.484692074E-2
1.704533178E0,-4.504363611E-2,-2.192011774E-1,-2.851210907E-2
1.706934375E0,-4.870882630E-2,-2.155359834E-1,-2.362519130E-2
1.709334844E0,-4.626536369E-2,-2.179794461E-1,-2.606865019E-2
1.711736146E0,-4.870882630E-2,-2.204229087E-1,-2.362519130E-2
1.714138125E0,-4.870882630E-2,-2.228663564E-1,-2.240346372E-2
1.716539323E0,-4.748709500E-2,-2.277532816E-1,-2.240346372E-2
1.718939792E0,-4.260017723E-2,-2.326401919E-1,-2.606865019E-2
1.721341094E0,-4.137844592E-2,-2.240880877E-1,-2.362519130E-2
1.723743125E0,-4.382190853E-2,-2.253098190E-1,-2.729037963E-2
1.726144323E0,-4.015671834E-2,-2.228663564E-1,-2.973383851E-2
1.728544792E0,-4.137844592E-2,-2.143142521E-1,-2.729037963E-2
1.730946094E0,-3.771325946E-2,-2.143142521E-1,-3.462075815E-2
1.733348125E0,-4.015671834E-2,-2.082056105E-1,-3.339902684E-2
1.735749323E0,-4.382190853E-2,-2.008752376E-1,-2.973383851E-2
1.738149792E0,-4.260017723E-2,-1.996535063E-1,-2.973383851E-2
1.740551094E0,-4.260017723E-2,-1.984317750E-1,-2.973383851E-2
1.742953073E0,-3.893499076E-2,-1.947665811E-1,-2.973383851E-2
1.745354271E0,-4.015671834E-2,-1.813275665E-1,-2.484692074E-2
1.747754740E0,-4.260017723E-2,-1.678885370E-1,-2.362519130E-2
1.750156042E0,-4.626536369E-2,-1.581147015E-1,-2.118173428E-2
1.752558073E0,-4.504363611E-2,-1.630016118E-1,-2.484692074E-2
1.754959271E0,-4.870882630E-2,-1.593364328E-1,-1.873827539E-2
1.757359740E0,-4.504363611E-2,-1.642233431E-1,-1.996000484E-2
1.759761042E0,-4.015671834E-2,-1.764406413E-1,-2.484692074E-2
1.762163073E0,-3.771325946E-2,-1.837710142E-1,-2.973383851E-2
1.764564271E0,-3.038288280E-2,-1.935448498E-1,-3.706421703E-2
1.766964688E0,-3.160461038E-2,-1.911013871E-1,-3.828594461E-2
1.769365990E0,-2.793942392E-2,-1.935448498E-1,-4.072940350E-2
1.771768021E0,-2.793942392E-2,-1.849927455E-1,-3.706421703E-2
1.774169219E0,-3.160461038E-2,-1.776623726E-1,-3.828594461E-2
1.776569688E0,-3.526980057E-2,-1.605581641E-1,-3.584248573E-2
1.778970990E0,-4.137844592E-2,-1.458974034E-1,-3.339902684E-2
1.781373021E0,-4.993055388E-2,-1.287931949E-1,-3.095556796E-2
1.783774219E0,-6.092611700E-2,-1.116889790E-1,-2.851210907E-2
1.786174688E0,-6.459130347E-2,-9.702822566E-2,-3.095556796E-2
1.788575990E0,-6.947822869E-2,-8.969785273E-2,-3.217729926E-2
1.790978021E0,-7.314341515E-2,-8.725439012E-2,-3.339902684E-2
1.793379167E0,-7.192168385E-2,-9.458477050E-2,-3.584248573E-2
1.795779636E0,-7.069995254E-2,-1.043586060E-1,-3.950767592E-2
1.798180938E0,-7.436513901E-2,-1.104672551E-1,-3.462075815E-2
1.800582969E0,-7.192168385E-2,-1.165758967E-1,-3.339902684E-2
1.802984167E0,-7.069995254E-2,-1.226845458E-1,-3.339902684E-2
1.805384636E0,-6.825649738E-2,-1.287931949E-1,-3.584248573E-2
1.807785938E0,-6.703476608E-2,-1.324583739E-1,-3.584248573E-2
1.810187969E0,-6.092611700E-2,-1.349018365E-1,-4.195113108E-2
1.812589167E0,-5.970439315E-2,-1.324583739E-1,-4.561632127E-2
1.814989636E0,-5.848266184E-2,-1.275714636E-1,-4.805978015E-2
1.817390938E0,-5.848266184E-2,-1.287931949E-1,-5.661188439E-2
1.819792917E0,-5.970439315E-2,-1.226845458E-1,-6.027707458E-2
1.822194115E0,-6.825649738E-2,-1.080237925E-1,-5.905534700E-2
1.824594584E0,-6.947822869E-2,-1.080237925E-1,-6.882918626E-2
1.826995886E0,-7.925206423E-2,-1.031368747E-1,-7.005091012E-2
1.829397917E0,-8.169551939E-2,-1.019151434E-1,-7.615955919E-2
1.831799115E0,-8.658243716E-2,-1.043586060E-1,-7.615955919E-2
1.834199584E0,-9.269108623E-2,-1.104672551E-1,-7.982475311E-2
1.836600886E0,-9.879973531E-2,-1.153541654E-1,-7.860302180E-2
1.839002917E0,-1.036866456E-1,-1.177976280E-1,-7.371610403E-2
1.841404115E0,-1.061301082E-1,-1.312366575E-1,-7.493782789E-2
1.843804584E0,-1.122387573E-1,-1.349018365E-1,-6.882918626E-2
1.846205782E0,-1.146822125E-1,-1.410104930E-1,-6.638572365E-2
1.848607865E0,-1.122387573E-1,-1.483408660E-1,-6.394226849E-2
1.851009063E0,-1.146822125E-1,-1.422322243E-1,-5.783361569E-2
1.853409532E0,-1.097952947E-1,-1.520060450E-1,-6.027707458E-2
1.855810834E0,-1.097952947E-1,-1.520060450E-1,-5.905534700E-2
1.858212865E0,-1.049083769E-1,-1.617798954E-1,-6.516399235E-2
1.860614063E0,-1.024649218E-1,-1.532277763E-1,-6.149880216E-2
1.863014532E0,-1.085735708E-1,-1.568929702E-1,-6.149880216E-2
1.865415834E0,-1.049083769E-1,-1.630016118E-1,-6.149880216E-2
1.867817865E0,-1.085735708E-1,-1.642233431E-1,-6.149880216E-2
1.870219011E0,-1.146822125E-1,-1.544495076E-1,-5.539015681E-2
1.872619480E0,-1.183474064E-1,-1.568929702E-1,-5.294669792E-2
1.875020782E0,-1.244560480E-1,-1.544495076E-1,-5.050323904E-2
1.877422813E0,-1.342298836E-1,-1.422322243E-1,-4.195113108E-2
1.879824011E0,-1.391168088E-1,-1.434539407E-1,-4.317286238E-2
1.882224480E0,-1.488906443E-1,-1.410104930E-1,-3.584248573E-2
1.884625782E0,-1.562210172E-1,-1.446756721E-1,-3.462075815E-2
1.887027813E0,-1.635513902E-1,-1.434539407E-1,-3.339902684E-2
1.889429011E0,-1.721034944E-1,-1.385670304E-1,-2.851210907E-2
1.891829480E0,-1.806555986E-1,-1.275714636E-1,-2.362519130E-2
1.894230782E0,-1.806555986E-1,-1.251280010E-1,-2.851210907E-2
1.896632761E0,-1.843207926E-1,-1.141324416E-1,-2.973383851E-2
1.899033959E0,-1.843207926E-1,-1.080237925E-1,-3.217729926E-2
1.901434428E0,-1.830990613E-1,-1.019151434E-1,-3.095556796E-2
1.903835730E0,-1.867642552E-1,-9.091958404E-2,-2.606865019E-2
1.906237761E0,-1.855425239E-1,-9.091958404E-2,-2.729037963E-2
1.908638959E0,-1.892077178E-1,-8.114574850E-2,-2.240346372E-2
1.911039428E0,-1.879859865E-1,-8.114574850E-2,-2.118173428E-2
1.913440730E0,-1.892077178E-1,-7.381536812E-2,-1.751654595E-2
1.915842761E0,-1.843207926E-1,-8.114574850E-2,-2.240346372E-2
1.918243959E0,-1.843207926E-1,-8.358920366E-2,-2.118173428E-2
1.920644375E0,-1.830990613E-1,-8.236747235E-2,-1.873827539E-2
1.923045678E0,-1.818773299E-1,-8.114574850E-2,-1.751654595E-2
1.925447709E0,-1.794338673E-1,-8.481093496E-2,-1.873827539E-2
1.927848907E0,-1.794338673E-1,-8.358920366E-2,-1.751654595E-2
1.930249375E0,-1.745469570E-1,-8.847612143E-2,-1.873827539E-2
1.932650678E0,-1.733252257E-1,-9.336303920E-2,-2.118173428E-2
1.935052709E0,-1.721034944E-1,-9.458477050E-2,-2.118173428E-2
1.937453907E0,-1.708817631E-1,-9.580649436E-2,-2.118173428E-2
1.939854375E0,-1.647731215E-1,-1.043586060E-1,-2.484692074E-2
1.942255573E0,-1.574427485E-1,-1.080237925E-1,-2.851210907E-2
1.944657657E0,-1.562210172E-1,-1.116889790E-1,-3.217729926E-2
1.947058855E0,-1.488906443E-1,-1.214628145E-1,-3.950767592E-2
1.949459323E0,-1.452254504E-1,-1.214628145E-1,-3.584248573E-2
1.951860625E0,-1.391168088E-1,-1.287931949E-1,-3.706421703E-2
1.954262657E0,-1.342298836E-1,-1.287931949E-1,-3.462075815E-2
1.956663855E0,-1.268995106E-1,-1.312366575E-1,-3.584248573E-2
1.959064323E0,-1.256777793E-1,-1.263497323E-1,-2.851210907E-2
1.961465625E0,-1.232343167E-1,-1.214628145E-1,-3.217729926E-2
1.963867657E0,-1.220125854E-1,-1.165758967E-1,-3.217729926E-2
1.966268803E0,-1.207908541E-1,-1.104672551E-1,-3.584248573E-2
1.968669271E0,-1.171256751E-1,-1.031368747E-1,-3.828594461E-2
1.971070573E0,-1.122387573E-1,-1.043586060E-1,-4.195113108E-2
1.973472605E0,-1.122387573E-1,-9.947168827E-2,-3.584248573E-2
1.975873803E0,-1.085735708E-1,-9.336303920E-2,-2.484692074E-2
1.978274271E0,-1.061301082E-1,-8.725439012E-2,-1.262962818E-2
1.980675573E0,-1.000214592E-1,-8.725439012E-2,-5.299250595E-3
1.983077605E0,-9.146935493E-2,-7.870228589E-2,4.474584479E-3
1.985478803E0,-9.879973531E-2,-5.671115220E-2,2.157879807E-2
1.987879271E0,-9.513454139E-2,-4.205039889E-2,2.890917286E-2
1.990280573E0,-9.635627270E-2,-2.494618855E-2,3.379609063E-2
1.992682553E0,-9.757800400E-2,-1.150716376E-2,3.623955324E-2
1.995083750E0,-1.085735708E-1,4.375318065E-3,3.623955324E-2
1.997484219E0,-1.134604812E-1,7.101298543E-4,2.768744528E-2
1.999885521E0,-1.244560480E-1,8.040507324E-3,2.890917286E-2
2.002287553E0,-1.281212419E-1,1.931859297E-3,2.157879807E-2
2.004688750E0,-1.330081522E-1,-5.398517475E-3,2.035706863E-2
2.007089219E0,-1.366733462E-1,-1.395062264E-2,1.791360974E-2
2.009490521E0,-1.427819878E-1,-1.761581190E-2,2.280052751E-2
2.011892553E0,-1.440037191E-1,-3.472002223E-2,2.035706863E-2
2.014293698E0,-1.488906443E-1,-3.716348112E-2,2.890917286E-2
2.016694167E0,-1.464471817E-1,-5.426769331E-2,2.280052751E-2
2.019095469E0,-1.452254504E-1,-6.404153258E-2,2.646571770E-2
2.021497500E0,-1.464471817E-1,-7.015018165E-2,3.013090417E-2
2.023898698E0,-1.440037191E-1,-7.015018165E-2,3.868300840E-2
2.026299167E0,-1.391168088E-1,-6.526326388E-2,4.845684394E-2
2.028700469E0,-1.317864209E-1,-4.938077554E-2,5.823067948E-2
2.031102500E0,-1.183474064E-1,-3.105483577E-2,5.823067948E-2
2.033503698E0,-1.061301082E-1,-1.028543431E-2,5.212203413E-2
2.035904167E0,-9.635627270E-2,6.818777416E-3,3.746128082E-2
2.038305365E0,-9.879973531E-2,1.292742509E-2,2.768744528E-2
2.040707448E0,-1.000214592E-1,-4.176788032E-3,1.302669197E-2
2.043108646E0,-1.024649218E-1,-2.128100023E-2,1.058323309E-2
2.045509115E0,-1.036866456E-1,-3.227656335E-2,1.302669197E-2
2.047910417E0,-1.061301082E-1,-4.449385777E-2,1.913533919E-2
2.050312448E0,-1.036866456E-1,-5.793287978E-2,1.913533919E-2
2.052713646E0,-1.024649218E-1,-6.404153258E-2,2.035706863E-2
2.055114115E0,-9.391281009E-2,-6.648498774E-2,1.913533919E-2
2.057515313E0,-9.024762362E-2,-7.015018165E-2,1.669188030E-2
2.059917396E0,-8.780416846E-2,-6.404153258E-2,1.913533919E-2
2.062318594E0,-8.169551939E-2,-6.281980127E-2,2.280052751E-2
2.064719063E0,-7.803033292E-2,-6.037634239E-2,2.646571770E-2
2.067120365E0,-7.192168385E-2,-6.281980127E-2,2.280052751E-2
2.069522396E0,-6.336957961E-2,-6.037634239E-2,2.035706863E-2
2.071923594E0,-5.726093054E-2,-6.281980127E-2,1.547015086E-2
2.074324063E0,-5.359574407E-2,-6.404153258E-2,1.424842142E-2
2.076725365E0,-4.504363611E-2,-6.770671904E-2,1.180496253E-2
2.079127396E0,-4.137844592E-2,-6.770671904E-2,1.302669197E-2
2.081528542E0,-3.649152815E-2,-7.015018165E-2,8.139774203E-3
2.083929011E0,-2.916115522E-2,-7.381536812E-2,4.474584479E-3
2.086330313E0,-2.060904726E-2,-8.603265882E-2,-7.742709480E-3
2.088732344E0,-1.694386080E-2,-9.702822566E-2,-1.629481651E-2
2.091133542E0,-1.694386080E-2,-9.824995697E-2,-1.385135762E-2
2.093534011E0,-1.327867061E-2,-1.055803299E-1,-1.873827539E-2
2.095935313E0,-1.327867061E-2,-1.104672551E-1,-1.751654595E-2
2.098337344E0,-1.450040191E-2,-1.031368747E-1,-7.742709480E-3
2.100738542E0,-1.327867061E-2,-1.019151434E-1,-1.634062734E-3
2.103138959E0,-1.450040191E-2,-9.702822566E-2,5.696313921E-3
2.105540261E0,-1.572212949E-2,-8.725439012E-2,1.424842142E-2
2.107942292E0,-2.060904726E-2,-8.236747235E-2,2.035706863E-2
2.110343490E0,-2.183077484E-2,-7.748055458E-2,2.524398640E-2
2.112743959E0,-2.427423745E-2,-7.015018165E-2,3.257436305E-2
2.115145261E0,-2.916115522E-2,-7.015018165E-2,3.746128082E-2
2.117547292E0,-3.282634169E-2,-6.037634239E-2,4.723511636E-2
2.119948490E0,-3.649152815E-2,-5.426769331E-2,5.334376171E-2
2.122348959E0,-3.282634169E-2,-6.281980127E-2,4.967857525E-2
2.124750261E0,-3.771325946E-2,-6.159806997E-2,4.845684394E-2
2.127152240E0,-3.893499076E-2,-6.648498774E-2,4.723511636E-2
2.129553438E0,-4.015671834E-2,-7.503709942E-2,4.112647101E-2
2.131953907E0,-4.748709500E-2,-7.381536812E-2,4.479165748E-2
2.134355209E0,-4.870882630E-2,-8.236747235E-2,4.112647101E-2
2.136757240E0,-5.481746793E-2,-8.603265882E-2,4.356992617E-2
2.139158438E0,-5.481746793E-2,-8.725439012E-2,4.112647101E-2
2.141558907E0,-5.970439315E-2,-8.969785273E-2,4.112647101E-2
2.143960209E0,-6.092611700E-2,-9.214130789E-2,4.112647101E-2
2.146362240E0,-6.581303477E-2,-8.603265882E-2,4.601338878E-2
2.148763386E0,-6.214784831E-2,-9.214130789E-2,4.234819859E-2
2.151163855E0,-6.336957961E-2,-9.091958404E-2,4.356992617E-2
2.153565157E0,-6.581303477E-2,-8.481093496E-2,5.090030655E-2
2.155967188E0,-6.581303477E-2,-7.259363681E-2,6.189587340E-2
2.158368386E0,-6.581303477E-2,-6.281980127E-2,6.678277999E-2
2.160768855E0,-6.825649738E-2,-4.693731666E-2,7.166970521E-2
2.163170157E0,-6.947822869E-2,-3.105483577E-2,7.655661553E-2
2.165572188E0,-7.192168385E-2,-1.517235208E-2,8.022180945E-2
2.167973386E0,-7.558687031E-2,-6.620246917E-3,8.022180945E-2
2.170373803E0,-7.680860162E-2,-7.841976359E-3,7.900007814E-2
2.172775105E0,-7.803033292E-2,-1.733328914E-3,8.388699591E-2
2.175177136E0,-7.314341515E-2,-4.176788032E-3,8.144354075E-2
2.177578334E0,-7.680860162E-2,-4.176788032E-3,8.633045107E-2
2.179978803E0,-7.192168385E-2,-1.395062264E-2,8.510872722E-2
2.182380105E0,-6.703476608E-2,-2.128100023E-2,8.510872722E-2
2.184782136E0,-6.214784831E-2,-2.494618855E-2,8.755218238E-2
2.187183334E0,-5.726093054E-2,-2.861137688E-2,8.755218238E-2
2.189583750E0,-5.359574407E-2,-3.105483577E-2,9.243910015E-2
2.191985053E0,-4.626536369E-2,-2.861137688E-2,9.610428661E-2
2.194387084E0,-4.260017723E-2,-2.250272967E-2,1.034346670E-1
2.196788282E0,-4.260017723E-2,-1.028543431E-2,1.119867712E-1
2.199188750E0,-4.015671834E-2,-5.115994718E-4,1.168736890E-1
2.201590053E0,-3.771325946E-2,1.048396621E-2,1.205388829E-1
2.203992084E0,-3.526980057E-2,2.025780082E-2,1.229823306E-1
2.206393282E0,-3.404807299E-2,2.514471859E-2,1.254258007E-1
2.208793750E0,-3.526980057E-2,3.614028543E-2,1.303127259E-1
2.211195053E0,-3.526980057E-2,4.102720320E-2,1.315344572E-1
2.213597032E0,-3.282634169E-2,3.980547562E-2,1.303127259E-1
2.215998230E0,-3.526980057E-2,4.224893078E-2,1.339779049E-1
2.218398698E0,-3.649152815E-2,4.713584855E-2,1.400865614E-1
2.220800000E0,-3.649152815E-2,4.469239339E-2,1.400865614E-1
2.223202032E0,-3.526980057E-2,4.591412097E-2,1.388648301E-1
2.225603230E0,-3.526980057E-2,4.591412097E-2,1.400865614E-1
2.228003698E0,-3.404807299E-2,4.713584855E-2,1.413082927E-1
2.230405000E0,-3.526980057E-2,4.957931116E-2,1.437517405E-1
2.232806980E0,-3.526980057E-2,5.202276632E-2,1.425300092E-1
2.235208178E0,-3.649152815E-2,5.568795651E-2,1.449734718E-1
2.237608646E0,-4.137844592E-2,6.057487428E-2,1.510821283E-1
2.240009948E0,-4.137844592E-2,6.546178460E-2,1.547473073E-1
2.242411980E0,-3.771325946E-2,6.424006075E-2,1.523038596E-1
2.244813178E0,-4.260017723E-2,7.034870982E-2,1.596342325E-1
2.247213646E0,-4.504363611E-2,8.012254536E-2,1.620776802E-1
2.249614948E0,-4.748709500E-2,8.745291829E-2,1.669646055E-1
2.252016928E0,-4.504363611E-2,8.989638090E-2,1.584125012E-1
2.254418125E0,-4.748709500E-2,9.600502253E-2,1.596342325E-1
2.256818594E0,-4.748709500E-2,9.600502253E-2,1.547473073E-1
2.259219896E0,-4.870882630E-2,9.356156737E-2,1.523038596E-1
2.261621928E0,-5.237401277E-2,1.008919403E-1,1.571907699E-1
2.264023125E0,-5.359574407E-2,1.045571268E-1,1.571907699E-1
2.266423594E0,-5.237401277E-2,1.070005894E-1,1.559690386E-1
2.268824896E0,-4.870882630E-2,1.070005894E-1,1.523038596E-1
2.271226928E0,-5.237401277E-2,1.131092384E-1,1.523038596E-1
2.273628073E0,-5.359574407E-2,1.167744249E-1,1.486386657E-1
2.276028542E0,-5.970439315E-2,1.204396114E-1,1.510821283E-1
2.278429844E0,-6.214784831E-2,1.216613427E-1,1.474169344E-1
2.280831875E0,-6.092611700E-2,1.253265291E-1,1.486386657E-1
2.283233073E0,-6.459130347E-2,1.314351708E-1,1.498603970E-1
2.285633542E0,-6.459130347E-2,1.326569021E-1,1.510821283E-1
2.288034844E0,-6.336957961E-2,1.387655586E-1,1.535255760E-1
2.290436875E0,-6.459130347E-2,1.375438273E-1,1.559690386E-1
2.292838021E0,-6.825649738E-2,1.338786334E-1,1.584125012E-1
2.295238490E0,-6.947822869E-2,1.375438273E-1,1.645211428E-1
2.297639792E0,-7.069995254E-2,1.387655586E-1,1.706297994E-1
2.300041823E0,-6.825649738E-2,1.363220960E-1,1.730732471E-1
2.302443021E0,-6.825649738E-2,1.375438273E-1,1.816253513E-1
2.304843490E0,-6.947822869E-2,1.399872899E-1,1.852905452E-1
2.307244792E0,-6.947822869E-2,1.399872899E-1,1.926209182E-1
2.309646823E0,-7.069995254E-2,1.412090212E-1,1.975078434E-1
2.312047969E0,-7.192168385E-2,1.436524689E-1,2.011730224E-1
2.314448438E0,-7.436513901E-2,1.534263045E-1,2.072816789E-1
2.316849740E0,-7.680860162E-2,1.668653339E-1,2.121685892E-1
2.319251771E0,-7.680860162E-2,1.705305129E-1,2.109468728E-1
2.321652969E0,-8.169551939E-2,1.778609008E-1,2.158337831E-1
2.324053438E0,-8.780416846E-2,1.839695424E-1,2.158337831E-1
2.326454740E0,-8.902589977E-2,1.900781840E-1,2.170555145E-1
2.328856771E0,-9.146935493E-2,1.937433779E-1,2.146120518E-1
2.331257917E0,-9.635627270E-2,1.925216466E-1,2.109468728E-1
2.333658386E0,-1.024649218E-1,1.937433779E-1,2.085034102E-1
2.336059688E0,-1.061301082E-1,1.925216466E-1,2.048382163E-1
2.338461719E0,-1.085735708E-1,1.876347363E-1,2.011730224E-1
2.340862917E0,-1.159039438E-1,1.876347363E-1,1.999513060E-1
2.343263386E0,-1.232343167E-1,1.888564676E-1,1.999513060E-1
2.345664688E0,-1.305647045E-1,1.900781840E-1,1.999513060E-1
2.348066719E0,-1.330081522E-1,1.876347363E-1,1.901774704E-1
2.350467865E0,-1.354516149E-1,1.876347363E-1,1.804036349E-1
2.352868334E0,-1.378950775E-1,1.790826321E-1,1.657428741E-1
2.355269636E0,-1.415602565E-1,1.680870652E-1,1.474169344E-1
2.357671667E0,-1.427819878E-1,1.583132297E-1,1.351996362E-1
2.360072865E0,-1.440037191E-1,1.436524689E-1,1.254258007E-1
2.362473334E0,-1.452254504E-1,1.289917231E-1,1.205388829E-1
2.364874636E0,-1.488906443E-1,1.143309623E-1,1.168736890E-1
2.367276667E0,-1.513340920E-1,1.057788581E-1,1.144302338E-1
2.369677813E0,-1.513340920E-1,9.478329122E-2,1.046563983E-1
2.372078282E0,-1.525558233E-1,9.111810476E-2,9.854774922E-2
2.374479584E0,-1.525558233E-1,8.989638090E-2,9.243910015E-2
2.376881615E0,-1.513340920E-1,8.256600052E-2,8.022180945E-2
2.379282813E0,-1.476689130E-1,7.523562014E-2,6.678277999E-2
2.381683282E0,-1.440037191E-1,7.401389629E-2,5.945241079E-2
2.384084584E0,-1.378950775E-1,7.034870982E-2,4.845684394E-2
2.386486615E0,-1.354516149E-1,6.668351591E-2,4.356992617E-2
2.388887761E0,-1.330081522E-1,7.279216498E-2,4.234819859E-2
2.391288230E0,-1.293429732E-1,6.912697852E-2,3.746128082E-2
2.393689532E0,-1.281212419E-1,6.912697852E-2,3.379609063E-2
2.396091563E0,-1.256777793E-1,6.790524721E-2,2.646571770E-2
2.398492761E0,-1.207908541E-1,6.790524721E-2,2.035706863E-2
2.400893230E0,-1.195691377E-1,6.912697852E-2,1.547015086E-2
2.403294532E0,-1.195691377E-1,7.890081406E-2,1.302669197E-2
2.405696563E0,-1.220125854E-1,9.111810476E-2,8.139774203E-3
2.408097709E0,-1.195691377E-1,9.844848514E-2,-2.855792176E-3
2.410498178E0,-1.232343167E-1,1.155526936E-1,-6.520980038E-3
2.412899480E0,-1.342298836E-1,1.289917231E-1,-1.140789781E-2
2.415301511E0,-1.403385252E-1,1.387655586E-1,-1.629481651E-2
2.417702709E0,-1.464471817E-1,1.546480358E-1,-1.629481651E-2
2.420103178E0,-1.598861963E-1,1.705305129E-1,-1.262962818E-2
2.422504480E0,-1.684383154E-1,1.827478111E-1,-1.140789781E-2
2.424906511E0,-1.794338673E-1,1.998520344E-1,-1.140789781E-2
2.427307657E0,-1.940946281E-1,2.267300785E-1,-8.964438923E-3
2.429708125E0,-2.063119262E-1,2.499429435E-1,-7.742709480E-3
2.432109428E0,-2.173074931E-1,2.694906294E-1,-1.018616837E-2
2.434511459E0,-2.246378660E-1,2.841513753E-1,-1.751654595E-2
2.436912657E0,-2.331899703E-1,2.927034795E-1,-2.606865019E-2
2.439313125E0,-2.417420894E-1,2.988121212E-1,-2.729037963E-2
2.441714428E0,-2.466289848E-1,2.963686585E-1,-3.217729926E-2
2.444116459E0,-2.515159249E-1,2.939251959E-1,-3.706421703E-2
2.446517657E0,-2.576245666E-1,2.890383005E-1,-4.072940350E-2
2.448918073E0,-2.576245666E-1,2.865948379E-1,-4.317286238E-2
2.451319375E0,-2.625114918E-1,2.658254206E-1,-5.294669792E-2
2.453721407E0,-2.637332082E-1,2.511646748E-1,-5.539015681E-2
2.456122605E0,-2.673984170E-1,2.389473766E-1,-5.539015681E-2
2.458523073E0,-2.722853422E-1,2.377256453E-1,-5.050323904E-2
2.460924375E0,-2.698418498E-1,2.328387201E-1,-4.928151146E-2
2.463326355E0,-2.698418498E-1,2.255083472E-1,-5.294669792E-2
2.465727553E0,-2.673984170E-1,2.242866158E-1,-5.539015681E-2
2.468128021E0,-2.686201334E-1,2.169562429E-1,-5.783361569E-2
2.470529323E0,-2.710635662E-1,2.059606761E-1,-6.149880216E-2
2.472931355E0,-2.698418498E-1,1.864130050E-1,-7.127264142E-2
2.475332553E0,-2.735070586E-1,1.705305129E-1,-7.493782789E-2
2.477733021E0,-2.759504914E-1,1.509828418E-1,-8.348993957E-2
2.480134323E0,-2.759504914E-1,1.375438273E-1,-9.326377511E-2
2.482536303E0,-2.832808495E-1,1.326569021E-1,-9.570723027E-2
2.484937500E0,-2.906112671E-1,1.363220960E-1,-9.815069288E-2
2.487337969E0,-2.979416251E-1,1.387655586E-1,-9.937242419E-2
2.489739271E0,-3.028285503E-1,1.424307376E-1,-1.030376107E-1
2.492141303E0,-3.126024008E-1,1.522045732E-1,-1.067027971E-1
2.494542500E0,-3.211544752E-1,1.656436026E-1,-1.079245284E-1
2.496942969E0,-3.260414004E-1,1.876347363E-1,-1.067027971E-1
2.499344271E0,-3.272631168E-1,2.096258551E-1,-1.067027971E-1
2.501746250E0,-3.297066092E-1,2.279518098E-1,-1.103679836E-1
2.504147448E0,-3.284848928E-1,2.536081374E-1,-1.054810658E-1
2.506547917E0,-3.223761916E-1,2.817079127E-1,-1.005941480E-1
2.508949219E0,-3.150458336E-1,3.110294342E-1,-9.692896158E-2
2.511351250E0,-3.126024008E-1,3.489030302E-1,-8.837685734E-2
2.513752448E0,-3.052719831E-1,3.879983723E-1,-7.982475311E-2
2.516152917E0,-3.028285503E-1,4.319806397E-1,-6.516399235E-2
2.518554115E0,-2.930546999E-1,4.564152360E-1,-6.394226849E-2
2.520956198E0,-2.845026255E-1,4.784063697E-1,-5.783361569E-2
2.523357396E0,-2.771722078E-1,5.003975034E-1,-4.805978015E-2
2.525757865E0,-2.649549246E-1,5.223886371E-1,-3.950767592E-2
2.528159167E0,-2.564028502E-1,5.468232036E-1,-3.095556796E-2
2.530561198E0,-2.466289848E-1,5.663709044E-1,-2.851210907E-2
2.532962396E0,-2.344117016E-1,5.810316205E-1,-3.095556796E-2
2.535362865E0,-2.270813286E-1,6.042444706E-1,-2.606865019E-2
2.537764167E0,-2.185292095E-1,6.176835299E-1,-2.851210907E-2
2.540166146E0,-2.111988366E-1,6.299008131E-1,-2.851210907E-2
2.542567344E0,-2.063119262E-1,6.445615888E-1,-2.240346372E-2
2.544967813E0,-2.050901949E-1,6.641092300E-1,-1.262962818E-2
2.547369115E0,-2.050901949E-1,6.751047969E-1,-5.299250595E-3
2.549771146E0,-2.063119262E-1,6.799917221E-1,8.093961515E-4
2.552172344E0,-2.087553889E-1,6.824351549E-1,8.139774203E-3
2.554572813E0,-2.160857618E-1,6.812134385E-1,1.547015086E-2
2.556974011E0,-2.221944034E-1,6.824351549E-1,2.157879807E-2
2.559376094E0,-2.295247763E-1,6.738830805E-1,2.524398640E-2
2.561777292E0,-2.417420894E-1,6.726613641E-1,3.746128082E-2
2.564177761E0,-2.502942085E-1,6.677744389E-1,3.868300840E-2
2.566579063E0,-2.600679994E-1,6.616657972E-1,4.112647101E-2
2.568981094E0,-2.637332082E-1,6.592223048E-1,4.601338878E-2
2.571382292E0,-2.686201334E-1,6.555570960E-1,4.479165748E-2
2.573782709E0,-2.673984170E-1,6.494484544E-1,4.356992617E-2
2.576184011E0,-2.710635662E-1,6.494484544E-1,4.601338878E-2
2.578586042E0,-2.698418498E-1,6.384528875E-1,3.990473971E-2
2.580987240E0,-2.661766410E-1,6.323442459E-1,3.746128082E-2
2.583387709E0,-2.612897754E-1,6.189052463E-1,3.379609063E-2
2.585789011E0,-2.612897754E-1,6.066879630E-1,3.013090417E-2
2.588191042E0,-2.490724474E-1,5.834751129E-1,2.280052751E-2
2.590592188E0,-2.405203432E-1,5.639274120E-1,1.547015086E-2
2.592992657E0,-2.344117016E-1,5.456014872E-1,1.058323309E-2
2.595393959E0,-2.258595973E-1,5.248320699E-1,8.139774203E-3
2.597795990E0,-2.160857618E-1,5.028409362E-1,4.474584479E-3
2.600197188E0,-2.099771053E-1,4.869584739E-1,8.093961515E-4
2.602597657E0,-1.977598220E-1,4.649673402E-1,-2.855792176E-3
2.604998959E0,-1.928728968E-1,4.490848482E-1,3.252855036E-3
2.607400990E0,-1.928728968E-1,4.429762065E-1,1.424842142E-2
2.609802136E0,-1.843207926E-1,4.319806397E-1,1.669188030E-2
2.612202605E0,-1.782121509E-1,4.209850729E-1,1.913533919E-2
2.614603907E0,-1.769904196E-1,4.173198938E-1,2.157879807E-2
2.617005938E0,-1.745469570E-1,4.148764312E-1,2.646571770E-2
2.619407136E0,-1.757686883E-1,4.112112224E-1,2.890917286E-2
2.621807605E0,-1.757686883E-1,4.087677896E-1,2.890917286E-2
2.624208907E0,-1.782121509E-1,4.136546850E-1,3.623955324E-2
2.626610886E0,-1.830990613E-1,4.160981476E-1,3.623955324E-2
2.629012084E0,-1.806555986E-1,4.197633266E-1,3.990473971E-2
2.631412553E0,-1.806555986E-1,4.270937145E-1,4.479165748E-2
2.633813855E0,-1.843207926E-1,4.380892813E-1,5.090030655E-2
2.636215886E0,-1.843207926E-1,4.441979229E-1,5.212203413E-2
2.638617084E0,-1.794338673E-1,4.466413856E-1,4.967857525E-2
2.641017553E0,-1.818773299E-1,4.490848482E-1,5.212203413E-2
2.643418855E0,-1.794338673E-1,4.466413856E-1,5.090030655E-2
2.645820834E0,-1.769904196E-1,4.393110275E-1,4.845684394E-2
2.648222032E0,-1.757686883E-1,4.380892813E-1,5.090030655E-2
2.650622500E0,-1.745469570E-1,4.332023561E-1,5.090030655E-2
2.653023803E0,-1.721034944E-1,4.270937145E-1,4.479165748E-2
2.655425834E0,-1.696600467E-1,4.258719981E-1,4.356992617E-2
2.657827032E0,-1.708817631E-1,4.222067893E-1,3.990473971E-2
2.660227448E0,-1.696600467E-1,4.173198938E-1,3.135263547E-2
2.662628750E0,-1.659948528E-1,4.063243270E-1,2.157879807E-2
2.665030782E0,-1.635513902E-1,3.989939392E-1,1.547015086E-2
2.667431980E0,-1.635513902E-1,3.928852975E-1,1.058323309E-2
2.669832448E0,-1.623296589E-1,3.806679845E-1,-4.123332910E-4
2.672233750E0,-1.647731215E-1,3.708941638E-1,-8.964438923E-3
2.674635782E0,-1.672165841E-1,3.611203432E-1,-1.385135762E-2
2.677036980E0,-1.696600467E-1,3.562334180E-1,-2.240346372E-2
2.679437396E0,-1.721034944E-1,3.452378511E-1,-3.339902684E-2
2.681838698E0,-1.782121509E-1,3.440161049E-1,-4.317286238E-2
2.684240730E0,-1.782121509E-1,3.366857469E-1,-5.539015681E-2
2.686641928E0,-1.818773299E-1,3.330205381E-1,-6.149880216E-2
2.689042396E0,-1.843207926E-1,3.366857469E-1,-6.516399235E-2
2.691443698E0,-1.867642552E-1,3.415726423E-1,-7.005091012E-2
2.693845730E0,-1.904294342E-1,3.427943885E-1,-7.860302180E-2
2.696246875E0,-1.989815384E-1,3.525682092E-1,-7.982475311E-2
2.698647344E0,-2.063119262E-1,3.623420596E-1,-8.226820827E-2
2.701048646E0,-2.111988366E-1,3.696724474E-1,-8.715512604E-2
2.703450678E0,-2.197509408E-1,3.831114471E-1,-8.837685734E-2
2.705851875E0,-2.283030599E-1,3.916635513E-1,-9.082031250E-2
2.708252344E0,-2.356334329E-1,3.965504766E-1,-9.448549896E-2
2.710653646E0,-2.466289848E-1,4.075460434E-1,-9.570723027E-2
2.713055625E0,-2.551810741E-1,4.112112224E-1,-9.815069288E-2
2.715456823E0,-2.625114918E-1,4.112112224E-1,-1.018158793E-1
2.717857292E0,-2.649549246E-1,4.087677896E-1,-1.103679836E-1
2.720258594E0,-2.722853422E-1,4.124329686E-1,-1.152549013E-1
2.722660625E0,-2.808374166E-1,4.173198938E-1,-1.189200953E-1
2.725061823E0,-2.857243419E-1,4.209850729E-1,-1.250287294E-1
2.727462292E0,-2.893895507E-1,4.258719981E-1,-1.311373860E-1
2.729863490E0,-2.967199087E-1,4.319806397E-1,-1.335808337E-1
2.732265573E0,-2.954981923E-1,4.307588935E-1,-1.396894902E-1
2.734666771E0,-3.028285503E-1,4.380892813E-1,-1.445764005E-1
2.737067240E0,-3.052719831E-1,4.466413856E-1,-1.457981318E-1
2.739468542E0,-3.040502667E-1,4.490848482E-1,-1.531285048E-1
2.741870573E0,-3.077154756E-1,4.588586688E-1,-1.543502361E-1
2.744271771E0,-3.064937592E-1,4.588586688E-1,-1.641240716E-1
2.746672188E0,-3.089371920E-1,4.625238776E-1,-1.690109968E-1
2.749073490E0,-3.077154756E-1,4.576369524E-1,-1.787848324E-1
2.751475521E0,-3.101589084E-1,4.588586688E-1,-1.836717427E-1
2.753876719E0,-3.113806844E-1,4.564152360E-1,-1.848934740E-1
2.756277188E0,-3.138241172E-1,4.490848482E-1,-1.922238469E-1
2.758678490E0,-3.150458336E-1,4.429762065E-1,-1.983325034E-1
2.761080521E0,-3.187110424E-1,4.356458187E-1,-2.019976825E-1
2.763481667E0,-3.199327588E-1,4.270937145E-1,-2.068846077E-1
2.765882136E0,-3.174893260E-1,4.234285355E-1,-2.081063390E-1
2.768283438E0,-3.162675500E-1,4.173198938E-1,-2.117715180E-1
2.770685469E0,-3.162675500E-1,4.148764312E-1,-2.154367119E-1
2.773086667E0,-3.113806844E-1,4.075460434E-1,-2.227670848E-1
2.775487136E0,-3.089371920E-1,4.051025808E-1,-2.276540101E-1
2.777888438E0,-3.040502667E-1,4.026591182E-1,-2.313191891E-1
2.780290417E0,-2.967199087E-1,3.989939392E-1,-2.386495620E-1
2.782691615E0,-2.893895507E-1,3.965504766E-1,-2.472016811E-1
2.785092084E0,-2.845026255E-1,3.989939392E-1,-2.496451288E-1
2.787493386E0,-2.783939838E-1,3.941070139E-1,-2.581972480E-1
2.789895417E0,-2.747287750E-1,3.965504766E-1,-2.569755316E-1
2.792296615E0,-2.698418498E-1,3.928852975E-1,-2.618624568E-1
2.794697084E0,-2.673984170E-1,3.916635513E-1,-2.630841732E-1
2.797098282E0,-2.649549246E-1,3.879983723E-1,-2.630841732E-1
2.799500365E0,-2.649549246E-1,3.843331933E-1,-2.655276358E-1
2.801901563E0,-2.600679994E-1,3.745593429E-1,-2.716362774E-1
2.804302032E0,-2.625114918E-1,3.696724474E-1,-2.691928148E-1
2.806703334E0,-2.576245666E-1,3.525682092E-1,-2.789666653E-1
2.809105365E0,-2.612897754E-1,3.489030302E-1,-2.777449191E-1
2.811506511E0,-2.637332082E-1,3.415726423E-1,-2.765232027E-1
2.813906980E0,-2.637332082E-1,3.269118965E-1,-2.826318443E-1
2.816308282E0,-2.637332082E-1,3.195815384E-1,-2.801883817E-1
2.818710313E0,-2.649549246E-1,3.134728670E-1,-2.814101279E-1
2.821111511E0,-2.673984170E-1,3.049207628E-1,-2.814101279E-1
2.823511980E0,-2.673984170E-1,3.000338674E-1,-2.826318443E-1
2.825913282E0,-2.661766410E-1,3.024773002E-1,-2.838535607E-1
2.828315261E0,-2.649549246E-1,2.963686585E-1,-2.862970233E-1
2.830716459E0,-2.612897754E-1,2.951469421E-1,-2.875187695E-1
2.833116928E0,-2.612897754E-1,2.963686585E-1,-2.850753069E-1
2.835518230E0,-2.564028502E-1,2.975904047E-1,-2.826318443E-1
2.837920261E0,-2.502942085E-1,2.951469421E-1,-2.862970233E-1
2.840321459E0,-2.441855222E-1,3.000338674E-1,-2.850753069E-1
2.842721928E0,-2.392986268E-1,2.975904047E-1,-2.838535607E-1
2.845123125E0,-2.356334329E-1,3.024773002E-1,-2.814101279E-1
2.847525209E0,-2.295247763E-1,3.061425090E-1,-2.789666653E-1
2.849926407E0,-2.246378660E-1,3.036990464E-1,-2.753014565E-1
2.852326875E0,-2.173074931E-1,3.024773002E-1,-2.728579938E-1
2.854728178E0,-2.124205679E-1,2.939251959E-1,-2.728579938E-1
2.857130209E0,-2.063119262E-1,2.829296589E-1,-2.728579938E-1
2.859531407E0,-2.014250010E-1,2.768209875E-1,-2.691928148E-1
2.861931823E0,-1.965380907E-1,2.694906294E-1,-2.643058896E-1
2.864333125E0,-1.953163594E-1,2.694906294E-1,-2.557537854E-1
2.866735157E0,-1.904294342E-1,2.646037042E-1,-2.496451288E-1
2.869136355E0,-1.879859865E-1,2.621602416E-1,-2.435364872E-1
2.871536823E0,-1.843207926E-1,2.621602416E-1,-2.349843830E-1
2.873938125E0,-1.818773299E-1,2.682688832E-1,-2.239888161E-1
2.876340105E0,-1.757686883E-1,2.743775249E-1,-2.191018909E-1
2.878741303E0,-1.721034944E-1,2.792644501E-1,-2.093280703E-1
2.881141771E0,-1.659948528E-1,2.939251959E-1,-1.971107721E-1
2.883543073E0,-1.598861963E-1,3.024773002E-1,-1.885586679E-1
2.885945105E0,-1.501123756E-1,3.146946132E-1,-1.787848324E-1
2.888346303E0,-1.464471817E-1,3.354640007E-1,-1.629023403E-1
2.890746771E0,-1.378950775E-1,3.464595675E-1,-1.531285048E-1
2.893147969E0,-1.268995106E-1,3.660072386E-1,-1.384677589E-1
2.895550053E0,-1.159039438E-1,3.831114471E-1,-1.262504607E-1
2.897951250E0,-1.024649218E-1,3.953287601E-1,-1.140331700E-1
2.900351719E0,-9.024762362E-2,4.038808644E-1,-9.937242419E-2
2.902753021E0,-7.558687031E-2,4.124329686E-1,-8.593339473E-2
2.905155053E0,-5.970439315E-2,4.185416102E-1,-7.127264142E-2
2.907556198E0,-4.504363611E-2,4.307588935E-1,-5.416842923E-2
2.909956667E0,-3.526980057E-2,4.368675649E-1,-4.195113108E-2
2.912357969E0,-2.793942392E-2,4.368675649E-1,-3.462075815E-2
2.914760000E0,-1.450040191E-2,4.429762065E-1,-2.362519130E-2
2.917161198E0,-3.504836001E-3,4.429762065E-1,-1.385135762E-2
2.919561667E0,1.382081769E-3,4.478631318E-1,-2.855792176E-3
2.921962969E0,7.490728982E-3,4.441979229E-1,5.696313921E-3
2.924364948E0,1.482110564E-2,4.441979229E-1,1.547015086E-2
2.926766146E0,2.092975378E-2,4.417544603E-1,2.280052751E-2
2.929166615E0,2.948185802E-2,4.332023561E-1,2.035706863E-2
2.931567917E0,3.803396598E-2,4.246502519E-1,1.791360974E-2
2.933969948E0,4.536434263E-2,4.160981476E-1,1.424842142E-2
2.936371146E0,5.635990947E-2,4.063243270E-1,9.361503646E-3
2.938771563E0,6.491201371E-2,3.904418349E-1,2.031125594E-3
2.941172865E0,6.979893148E-2,3.818897307E-1,-4.077521153E-3
2.943574896E0,7.835103571E-2,3.708941638E-1,-1.262962818E-2
2.945976094E0,8.568141609E-2,3.586768806E-1,-2.240346372E-2
2.948376563E0,9.056833386E-2,3.513464928E-1,-2.973383851E-2
2.950777865E0,9.789870679E-2,3.415726423E-1,-4.072940350E-2
2.953179896E0,1.040073559E-1,3.208032548E-1,-5.294669792E-2
2.955581042E0,1.064508110E-1,3.036990464E-1,-6.027707458E-2
2.957981511E0,1.137811914E-1,2.853730917E-1,-6.882918626E-2
2.960382813E0,1.211115718E-1,2.755992711E-1,-8.348993957E-2
2.962784844E0,1.272202134E-1,2.658254206E-1,-9.937242419E-2
2.965186042E0,1.357723176E-1,2.536081374E-1,-1.225852817E-1
2.967586511E0,1.467678845E-1,2.438342869E-1,-1.482415944E-1
2.969987813E0,1.565417200E-1,2.291735262E-1,-1.665675342E-1
2.972389792E0,1.687590182E-1,2.108475864E-1,-1.812282801E-1
2.974790990E0,1.858632267E-1,1.949651092E-1,-1.910021156E-1
2.977191459E0,2.029674351E-1,1.790826321E-1,-1.983325034E-1
2.979592761E0,2.176281959E-1,1.583132297E-1,-2.019976825E-1
2.981994792E0,2.371758670E-1,1.412090212E-1,-2.056628764E-1
2.984395990E0,2.542800903E-1,1.277699918E-1,-2.105497867E-1
2.986796407E0,2.689408064E-1,1.131092384E-1,-2.117715180E-1
2.989197709E0,2.823798656E-1,9.967021644E-2,-2.081063390E-1
2.991599740E0,2.933754325E-1,8.867464960E-2,-1.971107721E-1
2.994000938E0,3.055927157E-1,6.790524721E-2,-1.885586679E-1
2.996401407E0,3.178099990E-1,4.835757986E-2,-1.726761758E-1
2.998802709E0,3.300272822E-1,2.270125970E-2,-1.580154300E-1
3.001204740E0,3.434663415E-1,-7.841976359E-3,-1.433546692E-1
3.003605886E0,3.569053411E-1,-4.327212647E-2,-1.274721920E-1
3.006006355E0,3.679009080E-1,-7.015018165E-2,-1.005941480E-1
3.008407657E0,3.776747584E-1,-1.031368747E-1,-7.738129050E-2
3.010809688E0,3.886703253E-1,-1.422322243E-1,-5.172496662E-2
3.013210886E0,4.021093249E-1,-1.923231184E-1,-2.851210907E-2
3.015611355E0,4.143266082E-1,-2.375271171E-1,-5.299250595E-3
3.018012553E0,4.302091002E-1,-2.851745486E-1,1.913533919E-2
3.020414636E0,4.436481595E-1,-3.364871740E-1,4.845684394E-2
3.022815834E0,4.570871592E-1,-3.706956208E-1,8.266526461E-2
3.025216303E0,4.741913676E-1,-4.049040377E-1,1.168736890E-1
3.027617605E0,4.888521433E-1,-4.330038130E-1,1.498603970E-1
3.030019636E0,5.010694265E-1,-4.464428425E-1,1.877340078E-1
3.032420834E0,5.132867098E-1,-4.549949467E-1,2.256076187E-1
3.034821250E0,5.377212763E-1,-4.635470510E-1,2.549290955E-1
3.037222553E0,5.597124100E-1,-4.562166631E-1,2.879157960E-1
3.039624584E0,5.829252601E-1,-4.415559173E-1,3.147938550E-1
3.042025782E0,6.085816026E-1,-4.158996046E-1,3.343415260E-1
3.044426250E0,6.354596615E-1,-3.755825162E-1,3.563326597E-1
3.046827553E0,6.684463620E-1,-3.389306366E-1,3.624413013E-1
3.049229532E0,7.099851370E-1,-2.961701155E-1,3.697716892E-1
3.051630730E0,7.576326132E-1,-2.607399523E-1,3.758803308E-1
3.054031198E0,8.113886714E-1,-2.277532816E-1,3.795455098E-1
3.056432500E0,8.749186397E-1,-2.118707895E-1,3.771020472E-1
3.058834532E0,9.384485483E-1,-2.057621479E-1,3.783237934E-1
3.061235730E0,1.005643606E0,-2.118707895E-1,3.771020472E-1
3.063636198E0,1.082612514E0,-2.326401919E-1,3.734368682E-1
3.066037396E0,1.158359766E0,-2.570747733E-1,3.722151220E-1
3.068439480E0,1.237772226E0,-2.998352945E-1,3.648847640E-1
3.070840678E0,1.319628119E0,-3.511479497E-1,3.563326597E-1
3.073241146E0,1.402705669E0,-4.097909629E-1,3.465588093E-1
3.075642448E0,1.480896354E0,-4.720991552E-1,3.428936303E-1
3.078044480E0,1.570082664E0,-5.441811681E-1,3.331197798E-1
3.080445625E0,1.651938438E0,-6.235936284E-1,3.257894218E-1
3.082846094E0,1.728907466E0,-6.944538951E-1,3.270111382E-1
3.085247396E0,1.804654717E0,-7.640925050E-1,3.294546008E-1
3.087649428E0,1.881623626E0,-8.349527717E-1,3.294546008E-1
3.090050625E0,1.952483892E0,-8.997044563E-1,3.331197798E-1
3.092451094E0,2.019679070E0,-9.559040070E-1,3.392284513E-1
3.094852292E0,2.086874247E0,-1.003551483E0,3.465588093E-1
3.097254375E0,2.147960663E0,-1.037759900E0,3.599978387E-1
3.099655573E0,2.209047079E0,-1.069524884E0,3.697716892E-1
3.102056042E0,2.264024973E0,-1.095181227E0,3.807672560E-1
3.104457344E0,2.314115763E0,-1.111063719E0,3.954280019E-1
3.106859375E0,2.364206791E0,-1.115950584E0,4.113104641E-1
3.109260521E0,2.400858641E0,-1.104955077E0,4.357450604E-1
3.111660990E0,2.442397356E0,-1.089072585E0,4.552927315E-1
3.114062292E0,2.481492758E0,-1.067081451E0,4.785056114E-1
3.116464323E0,2.513257742E0,-1.029207826E0,5.017184615E-1
3.118865521E0,2.546244383E0,-9.852254987E-1,5.334834456E-1
3.121265990E0,2.573122501E0,-9.375780821E-1,5.628049374E-1
3.123667188E0,2.600000620E0,-8.813785315E-1,5.933482051E-1
3.126069271E0,2.624435186E0,-8.166268468E-1,6.263349056E-1
3.128470469E0,2.651313066E0,-7.543186545E-1,6.507694721E-1
3.130870938E0,2.667195559E0,-6.663541198E-1,6.861996055E-1
3.133272240E0,2.683078051E0,-5.844982862E-1,7.155211568E-1
3.135674271E0,2.695295334E0,-4.940902889E-1,7.460643649E-1
3.138075469E0,2.698960543E0,-4.122343957E-1,7.692772150E-1
3.140475886E0,2.692852020E0,-3.291568160E-1,7.973769903E-1
3.142877188E0,2.675747871E0,-2.607399523E-1,8.205899000E-1
3.145279219E0,2.661087036E0,-1.923231184E-1,8.413592577E-1
3.147680417E0,2.635430574E0,-1.287931949E-1,8.560200334E-1
3.150080886E0,2.609774351E0,-6.892845035E-2,8.633503914E-1
3.152482188E0,2.590226650E0,-1.639408246E-2,8.670156002E-1
3.154884219E0,2.571900845E0,4.224893078E-2,8.743459582E-1
3.157285365E0,2.558461666E0,8.989638090E-2,8.755676746E-1
3.159685834E0,2.538913965E0,1.473176628E-1,8.890067339E-1
3.162087136E0,2.521809816E0,1.925216466E-1,8.963370919E-1
3.164489167E0,2.503484011E0,2.389473766E-1,8.987805843E-1
3.166890365E0,2.479049206E0,2.780427337E-1,8.975588083E-1
3.169290782E0,2.450949430E0,3.134728670E-1,8.951153755E-1
3.171692084E0,2.424071550E0,3.464595675E-1,8.841198087E-1
3.174094115E0,2.394749880E0,3.733376265E-1,8.706808090E-1
3.176495313E0,2.356876373E0,4.014374018E-1,8.596852422E-1
3.178895782E0,2.323889732E0,4.185416102E-1,8.413592577E-1
3.181297084E0,2.288459539E0,4.319806397E-1,8.315854073E-1
3.183699115E0,2.250585794E0,4.307588935E-1,8.181464076E-1
3.186100261E0,2.215155840E0,4.148764312E-1,8.022639155E-1
3.188500730E0,2.177282095E0,3.953287601E-1,7.900466323E-1
3.190902032E0,2.143073797E0,3.623420596E-1,7.729424238E-1
3.193304063E0,2.106421947E0,3.232467175E-1,7.558382154E-1
3.195705261E0,2.070991755E0,2.780427337E-1,7.362905145E-1
3.198105730E0,2.035561562E0,2.303952575E-1,7.167428732E-1
3.200506928E0,1.997687936E0,1.864130050E-1,7.008603811E-1
3.202909011E0,1.952483892E0,1.424307376E-1,6.971951723E-1
3.205310209E0,1.909723401E0,9.111810476E-2,6.959734559E-1
3.207710678E0,1.871849775E0,1.292742509E-2,6.874213815E-1
3.210111980E0,1.830310941E0,-9.091958404E-2,6.800909638E-1
3.212514011E0,1.785107017E0,-2.192011774E-1,6.813127398E-1
3.214915209E0,1.742346406E0,-3.535913825E-1,6.923083067E-1
3.217315625E0,1.703251123E0,-4.708774090E-1,7.130776644E-1
3.219716928E0,1.675151348E0,-5.710592270E-1,7.326253653E-1
3.222118959E0,1.648273349E0,-6.443629861E-1,7.558382154E-1
3.224520157E0,1.627503872E0,-7.164450288E-1,7.778293490E-1
3.226920625E0,1.615286589E0,-7.970792055E-1,8.047074080E-1
3.229321823E0,1.611621380E0,-8.838219643E-1,8.291419744E-1
3.231723907E0,1.611621380E0,-9.668995738E-1,8.547983170E-1
3.234125105E0,1.606734514E0,-1.040203452E0,8.877850175E-1
3.236525573E0,1.603069305E0,-1.117172360E0,9.134413004E-1
3.238926875E0,1.595738888E0,-1.194141269E0,9.342107177E-1
3.241328907E0,1.585965037E0,-1.252784371E0,9.623104930E-1
3.243730053E0,1.577412963E0,-1.299210072E0,9.904102683E-1
3.246130521E0,1.581078172E0,-1.344413996E0,1.006292582E0
3.248531823E0,1.573747754E0,-1.379844189E0,1.025840282E0
3.250933855E0,1.571304321E0,-1.414052606E0,1.042944551E0
3.253335053E0,1.565195680E0,-1.426269889E0,1.064935684E0
3.255735521E0,1.559087038E0,-1.422604680E0,1.084483266E0
3.258136823E0,1.554200172E0,-1.417717814E0,1.096700549E0
3.260538803E0,1.550534964E0,-1.400613546E0,1.108917952E0
3.262940000E0,1.540761113E0,-1.372513771E0,1.116248250E0
3.265340469E0,1.529765487E0,-1.346857548E0,1.124800444E0
3.267741771E0,1.521213412E0,-1.319979429E0,1.128465533E0
3.270143803E0,1.513883114E0,-1.289436221E0,1.137017727E0
3.272545000E0,1.507774353E0,-1.261336446E0,1.139461160E0
3.274945417E0,1.501665711E0,-1.223462820E0,1.144348025E0
3.277346719E0,1.493113637E0,-1.186810970E0,1.150456667E0
3.279748750E0,1.483339787E0,-1.153824210E0,1.157787085E0
3.282149948E0,1.469900846E0,-1.131833076E0,1.166339159E0
3.284550417E0,1.456461787E0,-1.117172360E0,1.179778218E0
3.286951719E0,1.441801071E0,-1.119615793E0,1.187108636E0
3.289353698E0,1.434470654E0,-1.144050360E0,1.189552069E0
3.291754896E0,1.427140236E0,-1.172150135E0,1.194438934E0
3.294155365E0,1.418588161E0,-1.208802104E0,1.194438934E0
3.296556667E0,1.407592654E0,-1.271110296E0,1.196882367E0
3.298958698E0,1.421031594E0,-1.438487172E0,1.199325919E0
3.301359896E0,1.461348653E0,-1.688941717E0,1.191995502E0
3.303760313E0,1.504109263E0,-1.934509397E0,1.179778218E0
3.306161615E0,1.549313188E0,-2.147090197E0,1.152900219E0
3.308563646E0,1.576191306E0,-2.302249908E0,1.121135235E0
3.310964844E0,1.582299948E0,-2.410983801E0,1.094257116E0
3.313365313E0,1.579856396E0,-2.478178978E0,1.071044326E0
3.315766615E0,1.561530471E0,-2.494061470E0,1.058827043E0
3.318168594E0,1.543204546E0,-2.490396261E0,1.047831416E0
3.320569792E0,1.516326547E0,-2.486731052E0,1.044166207E0
3.322970261E0,1.488226771E0,-2.517274380E0,1.031948924E0
3.325371563E0,1.471122503E0,-2.586912870E0,1.011179566E0
3.327773594E0,1.434470654E0,-2.621121407E0,9.916319847E-1
3.330174792E0,1.402705669E0,-2.616234303E0,9.647539258E-1
3.332575209E0,1.366053820E0,-2.584469318E0,9.439845681E-1
3.334976511E0,1.336732268E0,-2.569808722E0,9.195499420E-1
3.337378542E0,1.312297702E0,-2.563699961E0,8.987805843E-1
3.339779740E0,1.293971777E0,-2.534378529E0,8.804545999E-1
3.342180209E0,1.262206793E0,-2.468405008E0,8.731242418E-1
3.344581511E0,1.224333167E0,-2.379218817E0,8.731242418E-1
3.346983490E0,1.191346526E0,-2.301028252E0,8.670156002E-1
3.349384688E0,1.154694557E0,-2.215507030E0,8.657938838E-1
3.351785157E0,1.125373125E0,-2.120212317E0,8.584634662E-1
3.354186459E0,1.103381991E0,-2.011478424E0,8.560200334E-1
3.356588490E0,1.078947425E0,-1.891748786E0,8.523548245E-1
3.358989688E0,1.061843157E0,-1.779349685E0,8.401375413E-1
3.361390157E0,1.041073799E0,-1.652289867E0,8.242550492E-1
3.363791355E0,1.025191307E0,-1.513012648E0,8.059291244E-1
3.366193438E0,9.970915914E-1,-1.373735547E0,7.851597071E-1
3.368594636E0,9.689918160E-1,-1.238123536E0,7.692772150E-1
3.370995105E0,9.408919811E-1,-1.108620286E0,7.558382154E-1
3.373396407E0,9.042401314E-1,-9.901124239E-1,7.448426485E-1
3.375798386E0,8.651447892E-1,-8.874871731E-1,7.423992157E-1
3.378199584E0,8.248277307E-1,-7.934139967E-1,7.362905145E-1
3.380600053E0,7.796237469E-1,-7.115581036E-1,7.350687981E-1
3.383001355E0,7.307545543E-1,-6.235936284E-1,7.399557233E-1
3.385403386E0,6.879940033E-1,-5.478463769E-1,7.350687981E-1
3.387804584E0,6.415683031E-1,-4.733208716E-1,7.314036489E-1
3.390205053E0,5.975860357E-1,-4.012388587E-1,7.240732312E-1
3.392606250E0,5.523820519E-1,-3.144960403E-1,7.228515148E-1
3.395008334E0,5.145084262E-1,-2.387488484E-1,7.130776644E-1
3.397409532E0,4.705261588E-1,-1.715537161E-1,7.045255899E-1
3.399810000E0,4.241004586E-1,-1.312366575E-1,6.959734559E-1
3.402211303E0,3.776747584E-1,-1.300149262E-1,6.788692474E-1
3.404613334E0,3.300272822E-1,-1.251280010E-1,6.678736806E-1
3.407014480E0,2.774929404E-1,-8.969785273E-2,6.703171730E-1
3.409414948E0,2.322889417E-1,-2.861137688E-2,6.776475310E-1
3.411816250E0,1.834197640E-1,3.858374432E-2,6.886430979E-1
3.414218282E0,1.296636760E-1,8.256600052E-2,6.886430979E-1
3.416619480E0,6.735546887E-2,9.233983606E-2,6.788692474E-1
3.419019948E0,1.603523269E-4,8.623118699E-2,6.666519642E-1
3.421421146E0,-7.925206423E-2,5.080103874E-2,6.483260393E-1
3.423823230E0,-1.525558233E-1,-4.176788032E-3,6.312218308E-1
3.426224428E0,-2.270813286E-1,-7.503709942E-2,6.141176224E-1
3.428624896E0,-2.918329835E-1,-1.617798954E-1,5.896829963E-1
3.431026198E0,-3.504760265E-1,-2.277532816E-1,5.713570714E-1
3.433428230E0,-4.066755772E-1,-2.705138028E-1,5.566962957E-1
3.435829375E0,-4.445491433E-1,-2.680703402E-1,5.395920873E-1
3.438229844E0,-4.787575603E-1,-2.350836545E-1,5.285965204E-1
3.440631146E0,-5.056356788E-1,-2.057621479E-1,5.090488791E-1
3.443033178E0,-5.300702453E-1,-1.898796707E-1,4.870577157E-1
3.445434375E0,-5.557265878E-1,-1.837710142E-1,4.675100446E-1
3.447834844E0,-5.850480795E-1,-1.862144768E-1,4.540710151E-1
3.450236042E0,-6.119261384E-1,-1.972100437E-1,4.418537021E-1
3.452638125E0,-6.388041377E-1,-2.192011774E-1,4.223060310E-1
3.455039323E0,-6.669039130E-1,-2.448574901E-1,4.015366435E-1
3.457439792E0,-6.998906136E-1,-2.607399523E-1,3.893193603E-1
3.459841094E0,-7.389859557E-1,-2.754006982E-1,3.697716892E-1
3.462243125E0,-7.805247903E-1,-2.766224444E-1,3.551109135E-1
3.464644271E0,-8.196201324E-1,-2.766224444E-1,3.172373176E-1
3.467044740E0,-8.672675490E-1,-2.876180112E-1,2.756985128E-1
3.469446042E0,-9.161367416E-1,-3.071656823E-1,2.353814542E-1
3.471848073E0,-9.613407254E-1,-3.303785324E-1,2.036164850E-1
3.474249271E0,-1.006544828E0,-3.413740993E-1,1.804036349E-1
3.476649740E0,-1.041974902E0,-3.535913825E-1,1.498603970E-1
3.479050938E0,-1.077405095E0,-3.425958157E-1,1.315344572E-1
3.481453021E0,-1.109170079E0,-3.193829656E-1,1.156519577E-1
3.483854219E0,-1.133604646E0,-2.925049365E-1,9.488256276E-2
3.486254688E0,-1.161704421E0,-2.705138028E-1,6.922624260E-2
3.488655990E0,-1.191025972E0,-2.509661317E-1,4.723511636E-2
3.491058021E0,-1.219125748E0,-2.350836545E-1,1.791360974E-2
3.493459167E0,-1.244781971E0,-2.106490582E-1,-7.742709480E-3
3.495859636E0,-1.280212164E0,-1.764406413E-1,-2.484692074E-2
3.498260938E0,-1.316864014E0,-1.458974034E-1,-3.706421703E-2
3.500662969E0,-1.347407341E0,-1.275714636E-1,-5.783361569E-2
3.503064167E0,-1.384059191E0,-1.068020612E-1,-7.371610403E-2
3.505464636E0,-1.425598025E0,-7.992401719E-2,-8.959858865E-2
3.507865834E0,-1.462249875E0,-5.548942462E-2,-1.054810658E-1
3.510267917E0,-1.498901725E0,-2.250272967E-2,-1.152549013E-1
3.512669115E0,-1.537997127E0,1.659261249E-2,-1.189200953E-1
3.515069584E0,-1.573427200E0,4.591412097E-2,-1.372460276E-1
3.517470886E0,-1.606413960E0,6.912697852E-2,-1.641240716E-1
3.519872865E0,-1.639400601E0,1.106657758E-1,-1.861152053E-1
3.522274063E0,-1.674830794E0,1.619784087E-1,-2.007759511E-1
3.524674532E0,-1.705374002E0,2.193997055E-1,-2.178801745E-1
3.527075834E0,-1.734695554E0,2.731558084E-1,-2.337626517E-1
3.529477865E0,-1.761573553E0,3.281336427E-1,-2.496451288E-1
3.531879063E0,-1.786008120E0,3.733376265E-1,-2.655276358E-1
3.534279480E0,-1.811664462E0,4.026591182E-1,-2.826318443E-1
3.536680782E0,-1.831212163E0,4.124329686E-1,-3.046229780E-1
3.539082813E0,-1.850759864E0,3.989939392E-1,-3.290575743E-1
3.541484011E0,-1.864198804E0,3.611203432E-1,-3.534921408E-1
3.543884480E0,-1.875194430E0,3.122511506E-1,-3.742615581E-1
3.546285782E0,-1.880081296E0,2.450560182E-1,-3.986961544E-1
3.548687813E0,-1.878859639E0,1.827478111E-1,-4.145786166E-1
3.551088959E0,-1.875194430E0,1.399872899E-1,-4.231307209E-1
3.553489428E0,-1.853203297E0,1.008919403E-1,-4.316828251E-1
3.555890730E0,-1.827546954E0,6.301832944E-2,-4.353480339E-1
3.558292761E0,-1.790895104E0,1.659261249E-2,-4.500087798E-1
3.560693959E0,-1.749356270E0,-3.472002223E-2,-4.634478092E-1
3.563094375E0,-1.701708794E0,-9.702822566E-2,-4.939910471E-1
3.565495678E0,-1.649174452E0,-1.568929702E-1,-5.220907927E-1
3.567897709E0,-1.588088036E0,-2.216446251E-1,-5.514122844E-1
3.570298907E0,-1.519671202E0,-2.815093696E-1,-5.770686269E-1
3.572699375E0,-1.445145607E0,-3.438175619E-1,-5.966162682E-1
3.575100678E0,-1.357181072E0,-3.963519335E-1,-6.027249098E-1
3.577502657E0,-1.256999373E0,-4.562166631E-1,-6.124987602E-1
3.579903855E0,-1.147043705E0,-5.124162436E-1,-6.112770438E-1
3.582304323E0,-1.008988261E0,-5.344073772E-1,-5.905076265E-1
3.584705625E0,-8.513850570E-1,-5.307421684E-1,-5.465253592E-1
3.587107657E0,-6.913385391E-1,-5.392942429E-1,-5.098735094E-1
3.589508855E0,-5.288485289E-1,-5.515115857E-1,-4.634478092E-1
3.591909271E0,-3.639150262E-1,-5.490680933E-1,-3.962526917E-1
3.594310573E0,-1.916511655E-1,-5.234118104E-1,-3.082881570E-1
3.596712605E0,-3.404807299E-2,-4.696556926E-1,-2.019976825E-1
3.599113803E0,1.101160049E-1,-3.816911578E-1,-8.226820827E-2
3.601514271E0,2.212933749E-1,-2.815093696E-1,3.868300840E-2
3.603915573E0,3.043709993E-1,-2.082056105E-1,1.315344572E-1
3.606317553E0,3.605705500E-1,-1.495625973E-1,2.023947537E-1
3.608718750E0,4.045528173E-1,-8.481093496E-2,2.585943043E-1
3.611119219E0,4.375395179E-1,-2.005927078E-2,3.111286759E-1
3.613520521E0,4.729696512E-1,2.636644803E-2,3.502240181E-1
3.615922553E0,4.986259937E-1,2.514471859E-2,3.771020472E-1
3.618323750E0,5.267257094E-1,-7.841976359E-3,3.942062557E-1
3.620724167E0,5.572689772E-1,-6.037634239E-2,4.088670313E-1
3.623125469E0,6.000294685E-1,-8.481093496E-2,4.381885231E-1
3.625527500E0,6.427900195E-1,-8.358920366E-2,4.675100446E-1
3.627928698E0,6.782201529E-1,-5.671115220E-2,4.980532825E-1
3.630329167E0,7.197589874E-1,-1.150716376E-2,5.212661624E-1
3.632730469E0,7.405284047E-1,2.514471859E-2,5.322617292E-1
3.635132448E0,7.478587627E-1,1.048396621E-2,5.114923120E-1
3.637533646E0,7.368631959E-1,-4.571558908E-2,4.760621488E-1
3.639934115E0,7.197589874E-1,-1.214628145E-1,4.320798814E-1
3.642335417E0,6.879940033E-1,-1.947665811E-1,3.990931809E-1
3.644737448E0,6.501203775E-1,-2.729572654E-1,3.624413013E-1
3.647138646E0,6.049163938E-1,-3.804694414E-1,3.135721385E-1
3.649539063E0,5.474951267E-1,-5.515115857E-1,2.500422001E-1
3.651940365E0,4.912955761E-1,-7.530969381E-1,1.913992018E-1
3.654342396E0,4.302091002E-1,-9.107000232E-1,1.596342325E-1
3.656743594E0,3.813399673E-1,-9.852254987E-1,1.449734718E-1
3.659144063E0,3.141447902E-1,-1.015768766E0,1.229823306E-1
3.661545365E0,2.591670156E-1,-9.974427819E-1,9.610428661E-2
3.663947344E0,2.090760916E-1,-8.789350390E-1,7.900007814E-2
3.666348542E0,1.577634513E-1,-7.201102376E-1,4.479165748E-2
3.668749011E0,1.113377362E-1,-5.661723018E-1,-1.634062734E-3
3.671150313E0,7.712930441E-2,-4.110126793E-1,-4.561632127E-2
3.673552344E0,4.536434263E-2,-2.656268775E-1,-1.018158793E-1
3.675953490E0,2.215148136E-2,-1.739971787E-1,-1.677892655E-1
3.678353959E0,9.934187867E-3,-1.239062771E-1,-2.252105474E-1
3.680755261E0,7.490728982E-3,-9.580649436E-2,-2.679710984E-1
3.683157292E0,1.359937619E-2,-7.748055458E-2,-2.911839485E-1
3.685558490E0,2.581667155E-2,-6.281980127E-2,-3.107316196E-1
3.687958959E0,2.948185802E-2,-5.060250685E-2,-3.290575743E-1
3.690360157E0,2.826013044E-2,-5.671115220E-2,-3.510486782E-1
3.692762240E0,2.459494025E-2,-8.969785273E-2,-3.693746328E-1
3.695163438E0,8.712458424E-3,-1.422322243E-1,-3.669311702E-1
3.697563907E0,-3.504836001E-3,-2.118707895E-1,-3.498269618E-1
3.699965209E0,-2.549596503E-2,-2.644051313E-1,-2.997360528E-1
3.702367240E0,-4.137844592E-2,-3.267133534E-1,-2.472016811E-1
3.704768386E0,-5.726093054E-2,-3.633652329E-1,-1.775631011E-1
3.707168855E0,-7.069995254E-2,-3.780259788E-1,-1.042593345E-1
3.709570157E0,-9.391281009E-2,-3.792477250E-1,-2.362519130E-2
3.711972188E0,-1.159039438E-1,-3.853563666E-1,4.723511636E-2
3.714373386E0,-1.427819878E-1,-3.694738746E-1,1.193171516E-1
3.716773855E0,-1.708817631E-1,-3.645869493E-1,1.718515307E-1
3.719175053E0,-2.075336576E-1,-3.450392783E-1,2.158337831E-1
3.721577136E0,-2.405203432E-1,-3.169395030E-1,2.488204688E-1
3.723978334E0,-2.722853422E-1,-2.729572654E-1,2.744767964E-1
3.726378803E0,-3.028285503E-1,-2.179794461E-1,2.928027213E-1
3.728780105E0,-3.309283257E-1,-1.458974034E-1,3.025765717E-1
3.731182084E0,-3.602498174E-1,-7.870228589E-2,3.013548255E-1
3.733583282E0,-3.920148015E-1,3.153588623E-3,2.976896465E-1
3.735983750E0,-4.213362932E-1,8.867464960E-2,2.879157960E-1
3.738385053E0,-4.543229938E-1,1.717522442E-1,2.695898712E-1
3.740787084E0,-4.848662615E-1,2.462777495E-1,2.475987524E-1
3.743188282E0,-5.202963948E-1,3.256901801E-1,2.219424248E-1
3.745588698E0,-5.545048118E-1,4.051025808E-1,1.962861121E-1
3.747990000E0,-5.887132287E-1,4.906236529E-1,1.706297994E-1
3.750392032E0,-6.204782128E-1,5.785881877E-1,1.425300092E-1
3.752793230E0,-6.510214806E-1,6.689961553E-1,1.132085025E-1
3.755193698E0,-6.840081215E-1,7.532954812E-1,7.900007814E-2
3.757595000E0,-7.206600308E-1,8.388165236E-1,4.845684394E-2
3.759996980E0,-7.609770894E-1,9.255593419E-1,1.913533919E-2
3.762398178E0,-7.976289988E-1,9.964196086E-1,-1.629481651E-2
3.764798646E0,-8.355026245E-1,1.057506084E0,-5.661188439E-2
3.767199948E0,-8.758196831E-1,1.114927292E0,-9.692896158E-2
3.769601980E0,-9.124715328E-1,1.161353111E0,-1.470198631E-1
3.772003178E0,-9.479017258E-1,1.211443901E0,-1.934455782E-1
3.774403594E0,-9.747797847E-1,1.244430661E0,-2.484234124E-1
3.776804896E0,-9.979925752E-1,1.266421795E0,-3.082881570E-1
3.779206928E0,-1.016318560E0,1.289634705E0,-3.620442450E-1
3.781608125E0,-1.021205544E0,1.299408436E0,-4.182438254E-1
3.784008594E0,-1.027314186E0,1.306738853E0,-4.646695256E-1
3.786409792E0,-1.028535962E0,1.295743346E0,-5.135386586E-1
3.788811875E0,-1.027314186E0,1.288412929E0,-5.514122844E-1
3.791213073E0,-1.017540336E0,1.272530437E0,-5.819555521E-1
3.793613542E0,-1.011431694E0,1.243208885E0,-6.124987602E-1
3.796014844E0,-1.002879620E0,1.213887453E0,-6.344898939E-1
3.798416875E0,-9.931057096E-1,1.161353111E0,-6.577027440E-1
3.800818021E0,-9.882187843E-1,1.114927292E0,-6.735852361E-1
3.803218490E0,-9.894405007E-1,1.059949517E0,-6.882460117E-1
3.805619792E0,-9.882187843E-1,1.007415175E0,-7.029067278E-1
3.808021823E0,-9.894405007E-1,9.585460424E-1,-7.090153694E-1
3.810423021E0,-9.979925752E-1,9.182289243E-1,-7.126805782E-1
3.812823490E0,-1.000436187E0,8.815770745E-1,-7.163457870E-1
3.815224688E0,-1.012653470E0,8.571425080E-1,-7.102371454E-1
3.817626771E0,-1.018762112E0,8.278209567E-1,-7.077936530E-1
3.820027969E0,-1.033422828E0,8.192688823E-1,-6.943546534E-1
3.822428438E0,-1.046861887E0,8.253775239E-1,-6.796938777E-1
3.824829740E0,-1.062744379E0,8.388165236E-1,-6.662548780E-1
3.827231771E0,-1.078626871E0,8.571425080E-1,-6.503723860E-1
3.829632917E0,-1.095731020E0,8.815770745E-1,-6.332681775E-1
3.832033386E0,-1.111613512E0,9.060116410E-1,-6.247160435E-1
3.834434688E0,-1.125052571E0,9.316679835E-1,-6.137204766E-1
3.836836719E0,-1.133604646E0,9.524374008E-1,-5.978379846E-1
3.839237917E0,-1.144600153E0,9.744285345E-1,-5.807337761E-1
3.841638334E0,-1.153152347E0,9.890892506E-1,-5.672947764E-1
3.844039636E0,-1.156817555E0,1.002528191E0,-5.477470756E-1
3.846441667E0,-1.160482645E0,1.020854115E0,-5.257560015E-1
3.848842865E0,-1.161704421E0,1.044067025E0,-4.927693009E-1
3.851243334E0,-1.159260988E0,1.055062532E0,-4.622260630E-1
3.853644636E0,-1.158039212E0,1.081940651E0,-4.255741835E-1
3.856046615E0,-1.144600153E0,1.099044800E0,-3.962526917E-1
3.858447813E0,-1.125052571E0,1.106375217E0,-3.705963790E-1
3.860848282E0,-1.105504870E0,1.118592501E0,-3.400531411E-1
3.863249584E0,-1.082291961E0,1.129588127E0,-3.095099032E-1
3.865651615E0,-1.051748753E0,1.141805410E0,-2.789666653E-1
3.868052813E0,-1.024870753E0,1.146692276E0,-2.472016811E-1
3.870453230E0,-1.005323052E0,1.156466126E0,-2.129932493E-1
3.872854532E0,-9.833318591E-1,1.147914052E0,-1.873369366E-1
3.875256563E0,-9.686710835E-1,1.128366351E0,-1.665675342E-1
3.877657761E0,-9.601190090E-1,1.113705635E0,-1.409112066E-1
3.880058230E0,-9.540103674E-1,1.105153441E0,-1.213635504E-1
3.882459428E0,-9.515668750E-1,1.100266576E0,-1.054810658E-1
3.884861511E0,-9.466800094E-1,1.088049293E0,-1.030376107E-1
3.887262709E0,-9.417930841E-1,1.085605860E0,-9.815069288E-2
3.889663178E0,-9.442365170E-1,1.089271069E0,-9.448549896E-2
3.892064480E0,-9.430148005E-1,1.095379710E0,-9.692896158E-2
3.894466511E0,-9.515668750E-1,1.103931785E0,-9.815069288E-2
3.896867657E0,-9.564538002E-1,1.116149068E0,-1.018158793E-1
3.899268125E0,-9.637842178E-1,1.130809784E0,-1.103679836E-1
3.901669428E0,-9.674493670E-1,1.141805410E0,-1.250287294E-1
3.904071459E0,-9.674493670E-1,1.150357485E0,-1.396894902E-1
3.906472657E0,-9.625624418E-1,1.157687902E0,-1.592371613E-1
3.908873073E0,-9.576755166E-1,1.168683410E0,-1.726761758E-1
3.911274375E0,-9.515668750E-1,1.172348619E0,-1.922238469E-1
3.913676407E0,-9.454582334E-1,1.162574768E0,-2.154367119E-1
3.916077605E0,-9.430148005E-1,1.163796544E0,-2.313191891E-1
3.918478073E0,-9.332409501E-1,1.156466126E0,-2.557537854E-1
3.920879375E0,-9.246888757E-1,1.156466126E0,-2.765232027E-1
3.923281355E0,-9.149150252E-1,1.167461753E0,-2.887404859E-1
3.925682553E0,-9.039194584E-1,1.173570395E0,-3.046229780E-1
3.928083021E0,-8.941456079E-1,1.189452887E0,-3.192837238E-1
3.930484323E0,-8.819283247E-1,1.202891827E0,-3.339444697E-1
3.932886355E0,-8.648241162E-1,1.207778811E0,-3.534921408E-1
3.935287553E0,-8.574937582E-1,1.222439528E0,-3.632659912E-1
3.937687969E0,-8.452764153E-1,1.234656811E0,-3.705963790E-1
3.940089271E0,-8.330591321E-1,1.243208885E0,-3.803701997E-1
3.942491303E0,-8.159549236E-1,1.238322020E0,-3.974744081E-1
3.944892500E0,-8.012941480E-1,1.237100244E0,-4.096917212E-1
3.947292969E0,-7.915203571E-1,1.238322020E0,-4.194655418E-1
3.949694167E0,-7.768595815E-1,1.239543796E0,-4.329045713E-1
3.952096250E0,-7.560901642E-1,1.229769945E0,-4.451218545E-1
3.954497448E0,-7.365425229E-1,1.235878587E0,-4.451218545E-1
3.956897917E0,-7.145513892E-1,1.230991602E0,-4.512304962E-1
3.959299219E0,-6.950036883E-1,1.223661304E0,-4.536739588E-1
3.961701250E0,-6.717908382E-1,1.217552662E0,-4.548957050E-1
3.964102396E0,-6.510214806E-1,1.202891827E0,-4.622260630E-1
3.966502865E0,-6.302520633E-1,1.191896319E0,-4.610043466E-1
3.968904167E0,-6.131478548E-1,1.176013827E0,-4.585608840E-1
3.971306198E0,-5.936001539E-1,1.157687902E0,-4.524522424E-1
3.973707396E0,-5.838263631E-1,1.140583634E0,-4.377914965E-1
3.976107865E0,-5.667220950E-1,1.114927292E0,-4.304611087E-1
3.978509063E0,-5.532830954E-1,1.102710009E0,-4.133569002E-1
3.980911146E0,-5.361788869E-1,1.081940651E0,-3.999178708E-1
3.983312344E0,-5.264050364E-1,1.072166800E0,-3.815919161E-1
3.985712813E0,-5.166311860E-1,1.059949517E0,-3.632659912E-1
3.988114115E0,-5.056356788E-1,1.045288801E0,-3.486052454E-1
3.990516094E0,-4.921966195E-1,1.031849742E0,-3.351662159E-1
3.992917292E0,-4.799793363E-1,1.014745474E0,-3.180620074E-1
3.995317761E0,-4.714272022E-1,1.004971743E0,-3.021795154E-1
3.997719063E0,-4.628751278E-1,9.915327430E-1,-2.887404859E-1
4.000121094E0,-4.506577849E-1,9.719850421E-1,-2.801883817E-1
4.002522240E0,-4.445491433E-1,9.561025500E-1,-2.655276358E-1
4.004922709E0,-4.408839941E-1,9.353331923E-1,-2.533103228E-1
4.007324011E0,-4.372187853E-1,9.060116410E-1,-2.423147559E-1
4.009726042E0,-4.372187853E-1,8.827987909E-1,-2.300974578E-1
4.012127240E0,-4.323318601E-1,8.559207320E-1,-2.203236222E-1
4.014527709E0,-4.286667109E-1,8.412600160E-1,-2.105497867E-1
4.016928907E0,-4.237797856E-1,8.143819571E-1,-2.081063390E-1
4.019330990E0,-4.311101437E-1,7.936125398E-1,-2.019976825E-1
4.021732188E0,-4.384405017E-1,7.581824064E-1,-2.056628764E-1
4.024132657E0,-4.543229938E-1,7.337477803E-1,-2.044411451E-1
4.026533959E0,-4.616533518E-1,7.117567062E-1,-2.044411451E-1
4.028935990E0,-4.689837694E-1,6.958742142E-1,-2.044411451E-1
4.031337136E0,-4.848662615E-1,6.812134385E-1,-2.044411451E-1
4.033737605E0,-4.970835447E-1,6.628875136E-1,-2.081063390E-1
4.036138907E0,-5.154094696E-1,6.518919468E-1,-2.093280703E-1
4.038540938E0,-5.300702453E-1,6.433398128E-1,-2.142149806E-1
4.040942136E0,-5.471744537E-1,6.311225295E-1,-2.239888161E-1
4.043342553E0,-5.655003786E-1,6.237921715E-1,-2.337626517E-1
4.045743855E0,-5.838263631E-1,6.213486791E-1,-2.398712933E-1
4.048145886E0,-5.997087955E-1,6.127966046E-1,-2.545320690E-1
4.050547084E0,-6.155912876E-1,6.030227542E-1,-2.728579938E-1
4.052947553E0,-6.388041377E-1,6.042444706E-1,-2.826318443E-1
4.055348855E0,-6.595735550E-1,5.993575454E-1,-2.985143363E-1
4.057750834E0,-6.754560471E-1,5.956923962E-1,-3.168402612E-1
4.060152032E0,-6.950036883E-1,5.895837545E-1,-3.327227533E-1
4.062552500E0,-7.121079564E-1,5.773664117E-1,-3.547138870E-1
4.064953803E0,-7.365425229E-1,5.663709044E-1,-3.767050207E-1
4.067355834E0,-7.548684478E-1,5.590404868E-1,-3.938092291E-1
4.069756980E0,-7.719726562E-1,5.394928455E-1,-4.133569002E-1
4.072157448E0,-7.939637899E-1,5.223886371E-1,-4.292393625E-1
4.074558750E0,-8.183984160E-1,5.065061450E-1,-4.426783919E-1
4.076960782E0,-8.403894901E-1,4.820715487E-1,-4.585608840E-1
4.079361980E0,-8.574937582E-1,4.564152360E-1,-4.683347046E-1
4.081762448E0,-8.733761907E-1,4.258719981E-1,-4.793302715E-1
4.084163646E0,-8.929238915E-1,3.941070139E-1,-4.829954803E-1
4.086565730E0,-9.112498164E-1,3.574551344E-1,-4.915475845E-1
4.088966928E0,-9.307975173E-1,3.281336427E-1,-4.903258383E-1
4.091367396E0,-9.491234422E-1,3.049207628E-1,-4.842171967E-1
4.093768698E0,-9.613407254E-1,2.731558084E-1,-4.878824055E-1
4.096170678E0,-9.747797847E-1,2.511646748E-1,-4.817737341E-1
4.098571875E0,-9.833318591E-1,2.340604514E-1,-4.768868387E-1
4.100972344E0,-9.906622767E-1,2.206214219E-1,-4.732216299E-1
4.103373646E0,-9.967709184E-1,2.120693177E-1,-4.658912718E-1
4.105775678E0,-9.992143512E-1,2.108475864E-1,-4.573391676E-1
4.108176823E0,-9.992143512E-1,2.096258551E-1,-4.451218545E-1
4.110577292E0,-9.967709184E-1,2.169562429E-1,-4.280176461E-1
4.112978594E0,-9.918839335E-1,2.242866158E-1,-4.158003628E-1
4.115380625E0,-9.918839335E-1,2.426125556E-1,-3.999178708E-1
4.117781823E0,-9.894405007E-1,2.572733164E-1,-3.913657665E-1
4.120182292E0,-9.882187843E-1,2.829296589E-1,-3.779267371E-1
4.122583490E0,-9.869970679E-1,3.122511506E-1,-3.669311702E-1
4.124985573E0,-9.845535755E-1,3.440161049E-1,-3.559356034E-1
4.127386771E0,-9.821101427E-1,3.806679845E-1,-3.449400365E-1
4.129787240E0,-9.747797847E-1,4.063243270E-1,-3.424965739E-1
4.132188542E0,-9.723362923E-1,4.344241023E-1,-3.339444697E-1
4.134590521E0,-9.735580087E-1,4.625238776E-1,-3.253923655E-1
4.136991719E0,-9.698928595E-1,4.784063697E-1,-3.241706491E-1
4.139392188E0,-9.637842178E-1,4.979540110E-1,-3.168402612E-1
4.141793490E0,-9.588972926E-1,5.028409362E-1,-3.192837238E-1
4.144195521E0,-9.503451586E-1,5.101712942E-1,-3.229489028E-1
4.146596667E0,-9.381278753E-1,5.211668611E-1,-3.315010369E-1
4.148997136E0,-9.332409501E-1,5.382710695E-1,-3.339444697E-1
4.151398438E0,-9.234670997E-1,5.456014872E-1,-3.424965739E-1
4.153800469E0,-9.161367416E-1,5.517101288E-1,-3.473834991E-1
4.156201667E0,-9.039194584E-1,5.553753376E-1,-3.559356034E-1
4.158602136E0,-8.904803991E-1,5.565970540E-1,-3.644877076E-1
4.161003334E0,-8.807066083E-1,5.602622032E-1,-3.754832745E-1
4.163405417E0,-8.648241162E-1,5.602622032E-1,-3.877005875E-1
4.165806615E0,-8.477199078E-1,5.578187704E-1,-3.962526917E-1
4.168207084E0,-8.355026245E-1,5.602622032E-1,-4.096917212E-1
4.170608386E0,-8.183984160E-1,5.553753376E-1,-4.255741835E-1
4.173010417E0,-8.000724316E-1,5.492666364E-1,-4.390132129E-1
4.175411563E0,-7.829682231E-1,5.443797708E-1,-4.500087798E-1
4.177812032E0,-7.609770894E-1,5.346059203E-1,-4.671129882E-1
4.180213334E0,-7.426511645E-1,5.272755027E-1,-4.768868387E-1
4.182615365E0,-7.255469561E-1,5.187234282E-1,-4.891041219E-1
4.185016563E0,-7.096644640E-1,5.101712942E-1,-5.037648678E-1
4.187416980E0,-6.937819719E-1,5.077278614E-1,-5.172038674E-1
4.189818282E0,-6.742343307E-1,4.979540110E-1,-5.318646431E-1
4.192220313E0,-6.583518386E-1,4.918453693E-1,-5.465253592E-1
4.194621511E0,-6.461345553E-1,4.955105782E-1,-5.550774932E-1
4.197021980E0,-6.302520633E-1,4.955105782E-1,-5.697382092E-1
4.199423178E0,-6.192564964E-1,4.967322946E-1,-5.831772685E-1
4.201825261E0,-6.107043624E-1,4.979540110E-1,-5.978379846E-1
4.204226459E0,-6.094826460E-1,5.101712942E-1,-6.088335514E-1
4.206626928E0,-6.058174372E-1,5.211668611E-1,-6.259377599E-1
4.209028230E0,-6.021522880E-1,5.223886371E-1,-6.454854608E-1
4.211430261E0,-6.033740044E-1,5.346059203E-1,-6.601462364E-1
4.213831407E0,-6.033740044E-1,5.382710695E-1,-6.772504449E-1
4.216231875E0,-5.972653627E-1,5.358276367E-1,-6.967980862E-1
4.218633178E0,-5.960436463E-1,5.394928455E-1,-7.114588618E-1
4.221035209E0,-5.936001539E-1,5.431579947E-1,-7.212327123E-1
4.223436355E0,-5.911567211E-1,5.382710695E-1,-7.371151447E-1
4.225836823E0,-5.874915123E-1,5.419362783E-1,-7.444455624E-1
4.228238125E0,-5.789394379E-1,5.382710695E-1,-7.542193532E-1
4.230640157E0,-5.667220950E-1,5.333842039E-1,-7.615497708E-1
4.233041355E0,-5.569483042E-1,5.309407115E-1,-7.639932036E-1
4.235441823E0,-5.447310209E-1,5.260537863E-1,-7.664366961E-1
4.237843021E0,-5.251833200E-1,5.223886371E-1,-7.676584125E-1
4.240245105E0,-5.154094696E-1,5.236103535E-1,-7.603280544E-1
4.242646303E0,-5.007487535E-1,5.187234282E-1,-7.505542040E-1
4.245046771E0,-4.836444855E-1,5.248320699E-1,-7.358934283E-1
4.247448073E0,-4.677620530E-1,5.236103535E-1,-7.224544287E-1
4.249850105E0,-4.579882026E-1,5.309407115E-1,-6.955763698E-1
4.252251250E0,-4.421057105E-1,5.333842039E-1,-6.699200273E-1
4.254651719E0,-4.335535765E-1,5.431579947E-1,-6.369333267E-1
4.257053021E0,-4.286667109E-1,5.565970540E-1,-6.002814770E-1
4.259455053E0,-4.262232184E-1,5.663709044E-1,-5.636295676E-1
4.261856198E0,-4.286667109E-1,5.688143373E-1,-5.245342255E-1
4.264256667E0,-4.408839941E-1,5.859185457E-1,-4.744433761E-1
4.266657969E0,-4.469926357E-1,5.810316205E-1,-4.341262877E-1
4.269060000E0,-4.579882026E-1,5.810316205E-1,-3.913657665E-1
4.271461198E0,-4.689837694E-1,5.761446953E-1,-3.522704244E-1
4.273861667E0,-4.787575603E-1,5.602622032E-1,-3.168402612E-1
4.276262865E0,-4.885314107E-1,5.443797708E-1,-2.789666653E-1
4.278664948E0,-4.885314107E-1,5.138365030E-1,-2.508668602E-1
4.281066146E0,-4.824227691E-1,4.710759819E-1,-2.288757414E-1
4.283466615E0,-4.653185606E-1,4.234285355E-1,-2.129932493E-1
4.285867917E0,-4.433274269E-1,3.782245517E-1,-1.934455782E-1
4.288269896E0,-4.066755772E-1,3.220250010E-1,-1.848934740E-1
4.290671094E0,-3.639150262E-1,2.804861963E-1,-1.726761758E-1
4.293071563E0,-3.064937592E-1,2.438342869E-1,-1.641240716E-1
4.295472865E0,-2.478507310E-1,2.193997055E-1,-1.494633257E-1
4.297874896E0,-1.806555986E-1,2.022954822E-1,-1.384677589E-1
4.300276042E0,-1.134604812E-1,1.998520344E-1,-1.274721920E-1
4.302676511E0,-4.993055388E-2,2.071824074E-1,-1.262504607E-1
4.305077813E0,1.115591731E-2,2.108475864E-1,-1.335808337E-1
4.307479844E0,6.735546887E-2,2.157345116E-1,-1.433546692E-1
4.309881042E0,1.101160049E-1,2.230648845E-1,-1.482415944E-1
4.312281511E0,1.504330784E-1,2.193997055E-1,-1.555719674E-1
4.314682709E0,1.760893911E-1,2.206214219E-1,-1.519067734E-1
4.317084792E0,1.968587935E-1,2.145127803E-1,-1.494633257E-1
4.319485990E0,2.090760916E-1,1.986303031E-1,-1.433546692E-1
4.321886459E0,2.066326290E-1,1.864130050E-1,-1.323591173E-1
4.324287761E0,1.956370622E-1,1.766391695E-1,-1.128114462E-1
4.326689740E0,1.736459285E-1,1.717522442E-1,-9.082031250E-2
4.329090938E0,1.467678845E-1,1.595349610E-1,-7.371610403E-2
4.331491407E0,1.137811914E-1,1.595349610E-1,-5.294669792E-2
4.333892709E0,8.079449832E-2,1.546480358E-1,-3.950767592E-2
4.336294740E0,4.658607394E-2,1.668653339E-1,-2.240346372E-2
4.338695886E0,1.115591731E-2,1.815260798E-1,-7.742709480E-3
4.341096355E0,-1.938731968E-2,2.010737509E-1,2.031125594E-3
4.343497657E0,-3.893499076E-2,2.255083472E-1,2.031125594E-3
4.345899688E0,-5.603919923E-2,2.621602416E-1,3.252855036E-3
4.348300886E0,-6.214784831E-2,2.951469421E-1,-4.077521153E-3
4.350701303E0,-6.214784831E-2,3.293553591E-1,-1.385135762E-2
4.353102605E0,-5.726093054E-2,3.623420596E-1,-2.240346372E-2
4.355504636E0,-4.870882630E-2,3.879983723E-1,-3.462075815E-2
4.357905834E0,-3.160461038E-2,4.075460434E-1,-5.050323904E-2
4.360306303E0,-1.938731968E-2,4.197633266E-1,-6.394226849E-2
4.362707500E0,2.603811212E-3,4.234285355E-1,-8.104647696E-2
4.365109584E0,2.581667155E-2,4.222067893E-1,-8.715512604E-2
4.367510782E0,4.780780151E-2,4.124329686E-1,-9.692896158E-2
4.369911250E0,7.835103571E-2,3.928852975E-1,-1.067027971E-1
4.372312553E0,1.076725423E-1,3.757810891E-1,-1.091462597E-1
4.374714532E0,1.394375116E-1,3.513464928E-1,-1.189200953E-1
4.377115730E0,1.675372869E-1,3.391292095E-1,-1.152549013E-1
4.379516198E0,2.078543603E-1,3.134728670E-1,-1.189200953E-1
4.381917500E0,2.493931651E-1,2.914817631E-1,-1.189200953E-1
4.384319532E0,2.970405817E-1,2.743775249E-1,-1.176983640E-1
4.386720730E0,3.532401323E-1,2.499429435E-1,-1.213635504E-1
4.389121146E0,4.192135334E-1,2.279518098E-1,-1.238070056E-1
4.391522448E0,4.839652181E-1,2.169562429E-1,-1.164766327E-1
4.393924480E0,5.584906936E-1,1.998520344E-1,-1.115897149E-1
4.396325678E0,6.427900195E-1,1.790826321E-1,-1.079245284E-1
4.398726094E0,7.258676291E-1,1.546480358E-1,-1.018158793E-1
4.401127396E0,8.101669550E-1,1.314351708E-1,-8.837685734E-2
4.403529428E0,8.932445645E-1,9.600502253E-2,-7.249437273E-2
4.405930625E0,9.751004577E-1,6.179660186E-2,-4.928151146E-2
4.408331094E0,1.052069306E0,2.392298914E-2,-2.240346372E-2
4.410732396E0,1.131481767E0,-2.128100023E-2,4.474584479E-3
4.413134375E0,1.199898601E0,-6.159806997E-2,3.623955324E-2
4.415535573E0,1.271980643E0,-1.165758967E-1,6.678277999E-2
4.417936042E0,1.337954044E0,-1.727754474E-1,1.022129357E-1
4.420337344E0,1.408814311E0,-2.448574901E-1,1.327561885E-1
4.422739375E0,1.469900846E0,-3.169395030E-1,1.706297994E-1
4.425140521E0,1.530987263E0,-3.890215456E-1,2.097251415E-1
4.427540990E0,1.596960664E0,-4.843164384E-1,2.427118272E-1
4.429942292E0,1.656825423E0,-5.698375106E-1,2.879157960E-1
4.432344323E0,1.719133615E0,-6.639106870E-1,3.331197798E-1
4.434745521E0,1.778998375E0,-7.482100129E-1,3.832106888E-1
4.437145938E0,1.844971776E0,-8.312876225E-1,4.357450604E-1
4.439547240E0,1.904836535E0,-9.131434560E-1,4.858359694E-1
4.441949271E0,1.965922952E0,-9.852254987E-1,5.383703709E-1
4.444350469E0,2.028231144E0,-1.046312094E0,5.884612799E-1
4.446750938E0,2.091761112E0,-1.101289868E0,6.348869801E-1
4.449152136E0,2.147960663E0,-1.142828703E0,6.886430979E-1
4.451554219E0,2.206603765E0,-1.177037120E0,7.375122905E-1
4.453955417E0,2.259138107E0,-1.199028254E0,7.900466323E-1
4.456355886E0,2.309228897E0,-1.221019387E0,8.291419744E-1
4.458757188E0,2.356876373E0,-1.225906253E0,8.755676746E-1
4.461159167E0,2.408189058E0,-1.230793238E0,9.146630168E-1
4.463560365E0,2.453392982E0,-1.222241044E0,9.549801350E-1
4.465960834E0,2.502262115E0,-1.208802104E0,9.891885519E-1
4.468362136E0,2.547466278E0,-1.181923985E0,1.022175074E0
4.470764167E0,2.597557068E0,-1.153824210E0,1.050274849E0
4.473165313E0,2.648869753E0,-1.123281002E0,1.074709535E0
4.475565782E0,2.694073677E0,-1.090294361E0,1.099144101E0
4.477967084E0,2.742942810E0,-1.064638019E0,1.119913459E0
4.480369115E0,2.783259869E0,-1.047533751E0,1.138239384E0
4.482770313E0,2.821133614E0,-1.034094810E0,1.161452293E0
4.485170730E0,2.855341911E0,-1.032873034E0,1.177334785E0
4.487572032E0,2.893215656E0,-1.036538243E0,1.198104143E0
4.489974063E0,2.923758745E0,-1.037759900E0,1.217651844E0
4.492375261E0,2.953080416E0,-1.037759900E0,1.237199545E0
4.494775730E0,2.984845400E0,-1.042646885E0,1.245751619E0
4.497176928E0,3.004392862E0,-1.038981676E0,1.261634111E0
4.499579011E0,3.023940563E0,-1.040203452E0,1.266520977E0
4.501980209E0,3.043488264E0,-1.037759900E0,1.271407962E0
4.504380678E0,3.059370756E0,-1.035316467E0,1.271407962E0
4.506781980E0,3.074031591E0,-1.021877408E0,1.268964410E0
4.509183959E0,3.082583666E0,-1.003551483E0,1.259190679E0
4.511585157E0,3.089914083E0,-9.791168571E-1,1.235977769E0
4.513985625E0,3.082583666E0,-9.229173064E-1,1.221317053E0
4.516386928E0,3.077696800E0,-8.581656814E-1,1.190773726E0
4.518788959E0,3.063035965E0,-7.604272962E-1,1.157787085E0
4.521190105E0,3.047153473E0,-6.480281949E-1,1.117470026E0
4.523590573E0,3.025162458E0,-5.160813928E-1,1.078374624E0
4.525991875E0,3.000727892E0,-3.694738746E-1,1.034392357E0
4.528393907E0,2.973849773E0,-2.228663564E-1,9.830799103E-1
4.530795105E0,2.949415207E0,-7.870228589E-2,9.232151508E-1
4.533195521E0,2.927423954E0,6.424006075E-2,8.609069586E-1
4.535596823E0,2.906654596E0,1.998520344E-1,7.985987663E-1
4.537998855E0,2.890772104E0,3.183597922E-1,7.338470817E-1
4.540400053E0,2.870002747E0,4.160981476E-1,6.776475310E-1
4.542800521E0,2.844346523E0,5.016192198E-1,6.446608305E-1
4.545201719E0,2.816246748E0,5.517101288E-1,6.177827716E-1
4.547603803E0,2.780816555E0,5.724795461E-1,6.019002795E-1
4.550005000E0,2.738055944E0,5.578187704E-1,5.847960711E-1
4.552405469E0,2.690408468E0,5.309407115E-1,5.701353550E-1
4.554806771E0,2.641539335E0,4.832932651E-1,5.505876541E-1
4.557208750E0,2.585339785E0,4.246502519E-1,5.359269381E-1
4.559609948E0,2.519366503E0,3.672289848E-1,5.298182368E-1
4.562010417E0,2.447284460E0,3.134728670E-1,5.285965204E-1
4.564411719E0,2.372758865E0,2.646037042E-1,5.298182368E-1
4.566813698E0,2.286015987E0,2.218431532E-1,5.408138037E-1
4.569214896E0,2.185834169E0,1.961868405E-1,5.689135790E-1
4.571615365E0,2.078322172E0,1.632001400E-1,5.872395635E-1
4.574016667E0,1.964701176E0,1.216613427E-1,6.031220555E-1
4.576418698E0,1.843750000E0,7.890081406E-2,6.348869801E-1
4.578819896E0,1.728907466E0,6.301832944E-2,6.813127398E-1
4.581220313E0,1.631169081E0,6.546178460E-2,7.326253653E-1
4.583621615E0,1.544426322E0,7.401389629E-2,7.888249159E-1
4.586023646E0,1.471122503E0,7.279216498E-2,8.450244665E-1
4.588424844E0,1.412479520E0,7.157043368E-2,9.207716584E-1
4.590825313E0,1.370940685E0,4.713584855E-2,9.952971339E-1
4.593226511E0,1.342840910E0,1.903607138E-2,1.079596400E0
4.595628594E0,1.326958418E0,-1.028543431E-2,1.157787085E0
4.598029792E0,1.326958418E0,-6.770671904E-2,1.221317053E0
4.600430261E0,1.330623627E0,-1.385670304E-1,1.276294827E0
4.602831563E0,1.348949552E0,-2.399705797E-1,1.320277095E0
4.605233542E0,1.377049327E0,-3.462610245E-1,1.365481138E0
4.607634740E0,1.412479520E0,-4.537732005E-1,1.404576421E0
4.610035209E0,1.447909713E0,-5.600636601E-1,1.438784838E0
4.612436511E0,1.477231145E0,-6.602454782E-1,1.470549822E0
4.614838490E0,1.502887487E0,-7.433230877E-1,1.497427821E0
4.617239688E0,1.529765487E0,-8.080747724E-1,1.509645104E0
4.619640157E0,1.545647979E0,-8.459483385E-1,1.524305940E0
4.622041459E0,1.562752247E0,-8.801568151E-1,1.531636238E0
4.624443490E0,1.574969530E0,-9.192520976E-1,1.537744880E0
4.626844636E0,1.585965037E0,-9.681212902E-1,1.537744880E0
4.629245105E0,1.598182440E0,-1.023099184E0,1.532858014E0
4.631646407E0,1.603069305E0,-1.062194586E0,1.515753746E0
4.634048438E0,1.600625873E0,-1.078076959E0,1.497427821E0
4.636449636E0,1.593295455E0,-1.076855302E0,1.468106389E0
4.638850105E0,1.574969530E0,-1.067081451E0,1.437563181E0
4.641251303E0,1.552978396E0,-1.051198959E0,1.402132988E0
4.643653386E0,1.519991755E0,-1.034094810E0,1.367924571E0
4.646054584E0,1.484561563E0,-1.036538243E0,1.327607512E0
4.648455053E0,1.445466161E0,-1.052420735E0,1.292177320E0
4.650856250E0,1.411257744E0,-1.101289868E0,1.255525470E0
4.653258334E0,1.380714536E0,-1.167263269E0,1.222538710E0
4.655659532E0,1.342840910E0,-1.240567088E0,1.205434561E0
4.658060000E0,1.317184567E0,-1.338305354E0,1.180999994E0
4.660461303E0,1.289084792E0,-1.425048232E0,1.166339159E0
4.662863282E0,1.262206793E0,-1.522786498E0,1.144348025E0
4.665264480E0,1.231663585E0,-1.598533750E0,1.129687309E0
4.667664948E0,1.202342033E0,-1.671837568E0,1.111361384E0
4.670066250E0,1.175464034E0,-1.739032626E0,1.088148475E0
4.672468282E0,1.149807692E0,-1.791566968E0,1.069822550E0
4.674869428E0,1.126594782E0,-1.837992668E0,1.047831416E0
4.677269896E0,1.104603648E0,-1.868535995E0,1.029505491E0
4.679671198E0,1.083834291E0,-1.901522636E0,1.009957790E0
4.682073230E0,1.060621381E0,-1.921070337E0,9.952971339E-1
4.684474428E0,1.033743382E0,-1.938174486E0,9.794147015E-1
4.686874844E0,1.009308815E0,-1.950391889E0,9.635322094E-1
4.689276146E0,9.836525321E-1,-1.966274261E0,9.476497173E-1
4.691678178E0,9.579962492E-1,-1.974826455E0,9.317672253E-1
4.694079375E0,9.286746979E-1,-1.977269888E0,9.146630168E-1
4.696479844E0,8.981314898E-1,-1.969939470E0,9.012240171E-1
4.698881042E0,8.651447892E-1,-1.946726680E0,8.951153755E-1
4.701283125E0,8.284928799E-1,-1.916183472E0,8.902284503E-1
4.703684323E0,7.918410301E-1,-1.883196712E0,8.767894506E-1
4.706084792E0,7.551891208E-1,-1.839214444E0,8.682373166E-1
4.708485990E0,7.087634206E-1,-1.786680102E0,8.682373166E-1
4.710888073E0,6.647811532E-1,-1.728037119E0,8.645721078E-1
4.713289271E0,6.207988858E-1,-1.670615792E0,8.572417498E-1
4.715689740E0,5.731514692E-1,-1.602198958E0,8.560200334E-1
4.718091042E0,5.218387842E-1,-1.525229931E0,8.609069586E-1
4.720493021E0,4.705261588E-1,-1.453148007E0,8.596852422E-1
4.722894219E0,4.179918170E-1,-1.377400756E0,8.609069586E-1
4.725294688E0,3.556836247E-1,-1.295544863E0,8.609069586E-1
4.727695990E0,2.970405817E-1,-1.218575954E0,8.572417498E-1
4.730098021E0,2.420627773E-1,-1.130611420E0,8.547983170E-1
4.732499167E0,1.907501519E-1,-1.054864168E0,8.462461829E-1
4.734899636E0,1.357723176E-1,-9.901124239E-1,8.364723325E-1
4.737300938E0,7.835103571E-2,-9.204738736E-1,8.303636909E-1
4.739702969E0,1.848629490E-2,-8.557221889E-1,8.218116164E-1
4.742104115E0,-3.893499076E-2,-8.007443547E-1,8.120377660E-1
4.744504584E0,-9.757800400E-2,-7.433230877E-1,8.034856319E-1
4.746905886E0,-1.513340920E-1,-6.944538951E-1,7.888249159E-1
4.749307917E0,-2.038684636E-1,-6.468064785E-1,7.729424238E-1
4.751709115E0,-2.564028502E-1,-6.040459275E-1,7.595034242E-1
4.754109532E0,-3.101589084E-1,-5.698375106E-1,7.460643649E-1
4.756510834E0,-3.553628922E-1,-5.527333021E-1,7.216297984E-1
4.758912865E0,-4.030103683E-1,-5.270769596E-1,7.045255899E-1
